[{"start_time":1549382286926,"click_time":1549382287559,"finger_time":1549382286927,"fix_duration":1419.4873938501885,"trial":0,"RT":1,"MT":632,"sideResp":2,"stimulus":"img/500/randomdotsizeEA/R/15_Ratio_500_L_1_R_2.png","xmouse":[393.3330078125,393.3330078125,393.3330078125,393,394,394,394,395.3330078125,395.3330078125,396,396,396,397,397.3330078125,397.3330078125,398,398.6669921875,399.3330078125,400,400,400,404.6669921875,439.3330078125,454,487.3330078125,525,543,598.6669921875,636,653.3330078125,683,697.3330078125,723.3330078125],"ymouse":[507.3330078125,507.3330078125,507.3330078125,508,508,508,508,508.6669921875,508.6669921875,509,509,510,510,509.3330078125,509.3330078125,508,507.3330078125,504.6669921875,503,500,498,490.6669921875,438.6669921875,415,367.3330078125,318,294,222.66700744628906,176,158.66700744628906,122,105.33300018310547,74.66699981689453],"timestamp_mouse":[1,11,31,51,71,92,111,133,151,171,192,215,233,251,271,291,311,331,351,371,392,411,436,452,472,491,511,535,551,571,591,612,632],"xSR":350,"ySR":451.2,"xT1":30,"yT1":0,"xT2":670,"yT2":0,"toosoon":0,"cond_shown":"randomdotsizeEA","ratio_trial":500,"smaller_num":"1","larger_num":"2","correct_side":2,"subjID":"410wm","gender":"No_gender","age":"No_age","school":"No_school","test":{"fix_dur":[250,1500],"timestim":400,"targets_dim":[100,100],"targets_relative_coord":[0.1,0.9],"size_stim":[880,420],"start_dim":[100,100],"size_start":[300,300],"size_fix":60,"samplingrate":20,"img_types":["equaldotsize","equaldotanddens","randomdotsize","randomdotsizeEA"],"ratios":[250,500,750,900],"rep_conds":7,"nTrials":128,"trials_to_rest":500,"Trials_order":[39,55,66,107,17,95,100,12,71,87,101,21,69,104,13,27,112,89,18,114,26,98,3,103,50,91,82,110,97,8,4,52,117,81,109,32,57,102,31,23,30,127,22,113,96,78,48,54,24,46,122,10,99,85,42,106,86,105,68,2,36,33,58,73,20,34,79,61,5,119,35,9,93,63,108,70,37,6,125,84,75,1,16,111,121,62,40,77,88,7,38,41,76,115,29,94,25,80,59,118,65,44,126,49,15,83,28,72,14,51,53,56,124,120,64,11,47,116,67,74,92,19,0,60,45,43,90,123],"cond_shown":["randomdotsizeEA","randomdotsizeEA","randomdotsize","randomdotsizeEA","equaldotanddens","randomdotsizeEA","equaldotsize","equaldotsize","randomdotsizeEA","randomdotsizeEA","equaldotanddens","equaldotanddens","equaldotanddens","equaldotsize","equaldotanddens","randomdotsizeEA","equaldotsize","equaldotanddens","randomdotsize","randomdotsize","randomdotsize","randomdotsize","randomdotsizeEA","randomdotsizeEA","randomdotsize","randomdotsizeEA","randomdotsize","randomdotsize","equaldotanddens","equaldotsize","equaldotsize","equaldotsize","equaldotanddens","equaldotanddens","equaldotanddens","equaldotsize","equaldotanddens","randomdotsize","randomdotsizeEA","randomdotsizeEA","randomdotsize","randomdotsizeEA","randomdotsize","equaldotanddens","equaldotsize","randomdotsize","equaldotsize","randomdotsize","equaldotsize","randomdotsize","randomdotsize","randomdotsize","randomdotsizeEA","equaldotanddens","randomdotsize","randomdotsize","randomdotsize","equaldotanddens","equaldotsize","randomdotsize","equaldotsize","equaldotanddens","randomdotsize","equaldotanddens","equaldotsize","randomdotsize","randomdotsizeEA","equaldotanddens","equaldotanddens","randomdotsizeEA","randomdotsizeEA","equaldotanddens","equaldotanddens","randomdotsizeEA","equaldotsize","randomdotsize","equaldotanddens","randomdotsize","equaldotanddens","equaldotsize","randomdotsizeEA","equaldotanddens","equaldotsize","randomdotsizeEA","equaldotanddens","randomdotsize","equaldotsize","equaldotanddens","equaldotsize","randomdotsizeEA","randomdotsize","equaldotanddens","equaldotsize","randomdotsizeEA","equaldotanddens","randomdotsize","equaldotanddens","equaldotsize","randomdotsizeEA","randomdotsize","equaldotanddens","equaldotsize","randomdotsize","equaldotanddens","randomdotsizeEA","randomdotsizeEA","equaldotsize","equaldotsize","randomdotsize","randomdotsizeEA","equaldotanddens","equaldotsize","equaldotsize","equaldotsize","equaldotsize","randomdotsizeEA","randomdotsizeEA","equaldotsize","randomdotsizeEA","randomdotsize","equaldotsize","randomdotsizeEA","equaldotsize","equaldotsize","equaldotanddens","randomdotsizeEA","randomdotsize","randomdotsizeEA"],"ratio_trial":[500,500,250,750,250,900,500,900,500,500,500,500,500,750,900,750,250,750,250,250,750,250,250,500,250,750,250,900,250,750,500,500,500,250,900,250,750,500,900,500,900,900,500,250,250,900,250,500,750,900,750,750,250,500,750,750,500,750,500,250,500,250,750,750,500,250,900,900,500,500,250,750,900,900,900,500,500,500,900,500,750,250,250,900,750,900,750,900,750,500,500,750,900,250,900,900,750,250,750,500,250,900,900,250,900,250,900,750,900,250,500,750,900,750,250,750,900,500,250,750,900,250,250,900,900,750,750,750],"smaller_num":["1","2","3","3","3","18","9","18","10","10","2","9","2","3","18","3","3","6","6","4","15","6","6","2","3","3","3","9","3","3","2","4","10","2","18","3","15","2","18","5","18","9","2","3","3","18","5","6","15","18","3","6","3","5","6","6","5","9","10","1","9","4","9","3","4","2","18","18","3","6","2","6","9","9","18","9","9","2","18","2","18","4","2","9","3","18","3","9","15","9","6","6","18","2","18","9","6","4","3","1","2","9","18","6","9","3","18","18","18","3","2","18","18","3","6","12","9","1","3","3","9","2","1","18","18","3","15","12"],"larger_num":["2","4","12","4","12","20","18","20","20","20","4","18","4","4","20","4","12","8","24","16","20","24","24","4","12","4","12","10","12","4","4","8","20","8","20","12","20","4","20","10","20","10","4","12","12","20","20","12","20","20","4","8","12","10","8","8","10","12","20","4","18","16","12","4","8","8","20","20","6","12","8","8","10","10","20","18","18","4","20","4","24","16","8","10","4","20","4","10","20","18","12","8","20","8","20","10","8","16","4","2","8","10","20","24","10","12","20","24","20","12","4","24","20","4","24","16","10","2","12","4","10","8","4","20","20","4","20","16"],"correct_side":[2,1,2,2,2,1,1,1,2,2,1,2,1,1,2,2,2,1,1,2,1,1,2,1,1,2,2,2,1,1,1,1,2,2,1,2,1,1,1,1,1,2,2,2,2,1,2,1,2,1,1,1,2,1,1,1,1,2,2,2,1,1,2,1,1,1,1,2,2,1,1,1,2,2,1,2,2,1,2,1,1,1,1,2,1,1,1,1,1,2,1,2,1,1,1,2,1,2,1,2,1,2,1,2,2,1,2,1,2,2,1,1,1,2,1,2,1,2,2,1,2,1,2,2,2,1,2,2],"img_shown":["img/500/randomdotsizeEA/R/15_Ratio_500_L_1_R_2.png","img/500/randomdotsizeEA/L/5_Ratio_500_L_4_R_2.png","img/250/randomdotsize/R/4_Ratio_250_L_3_R_12.png","img/750/randomdotsizeEA/R/12_Ratio_750_L_3_R_4.png","img/250/equaldotanddens/R/9_Ratio_250_L_3_R_12.png","img/900/randomdotsizeEA/L/8_Ratio_900_L_20_R_18.png","img/500/equaldotsize/L/4_Ratio_500_L_18_R_9.png","img/900/equaldotsize/L/8_Ratio_900_L_20_R_18.png","img/500/randomdotsizeEA/R/3_Ratio_500_L_10_R_20.png","img/500/randomdotsizeEA/R/3_Ratio_500_L_10_R_20.png","img/500/equaldotanddens/L/5_Ratio_500_L_4_R_2.png","img/500/equaldotanddens/R/6_Ratio_500_L_9_R_18.png","img/500/equaldotanddens/L/5_Ratio_500_L_4_R_2.png","img/750/equaldotsize/L/9_Ratio_750_L_4_R_3.png","img/900/equaldotanddens/R/11_Ratio_900_L_18_R_20.png","img/750/randomdotsizeEA/R/12_Ratio_750_L_3_R_4.png","img/250/equaldotsize/R/11_Ratio_250_L_3_R_12.png","img/750/equaldotanddens/L/14_Ratio_750_L_8_R_6.png","img/250/randomdotsize/L/5_Ratio_250_L_24_R_6.png","img/250/randomdotsize/R/10_Ratio_250_L_4_R_16.png","img/750/randomdotsize/L/1_Ratio_750_L_20_R_15.png","img/250/randomdotsize/L/5_Ratio_250_L_24_R_6.png","img/250/randomdotsizeEA/R/6_Ratio_250_L_6_R_24.png","img/500/randomdotsizeEA/L/5_Ratio_500_L_4_R_2.png","img/250/randomdotsize/L/14_Ratio_250_L_12_R_3.png","img/750/randomdotsizeEA/R/7_Ratio_750_L_3_R_4.png","img/250/randomdotsize/R/4_Ratio_250_L_3_R_12.png","img/900/randomdotsize/R/3_Ratio_900_L_9_R_10.png","img/250/equaldotanddens/L/14_Ratio_250_L_12_R_3.png","img/750/equaldotsize/L/9_Ratio_750_L_4_R_3.png","img/500/equaldotsize/L/5_Ratio_500_L_4_R_2.png","img/500/equaldotsize/L/8_Ratio_500_L_8_R_4.png","img/500/equaldotanddens/R/3_Ratio_500_L_10_R_20.png","img/250/equaldotanddens/R/13_Ratio_250_L_2_R_8.png","img/900/equaldotanddens/L/4_Ratio_900_L_20_R_18.png","img/250/equaldotsize/R/9_Ratio_250_L_3_R_12.png","img/750/equaldotanddens/L/1_Ratio_750_L_20_R_15.png","img/500/randomdotsize/L/5_Ratio_500_L_4_R_2.png","img/900/randomdotsizeEA/L/4_Ratio_900_L_20_R_18.png","img/500/randomdotsizeEA/L/7_Ratio_500_L_10_R_5.png","img/900/randomdotsize/L/10_Ratio_900_L_20_R_18.png","img/900/randomdotsizeEA/R/3_Ratio_900_L_9_R_10.png","img/500/randomdotsize/R/9_Ratio_500_L_2_R_4.png","img/250/equaldotanddens/R/11_Ratio_250_L_3_R_12.png","img/250/equaldotsize/R/4_Ratio_250_L_3_R_12.png","img/900/randomdotsize/L/8_Ratio_900_L_20_R_18.png","img/250/equaldotsize/R/12_Ratio_250_L_5_R_20.png","img/500/randomdotsize/L/13_Ratio_500_L_12_R_6.png","img/750/equaldotsize/R/4_Ratio_750_L_15_R_20.png","img/900/randomdotsize/L/10_Ratio_900_L_20_R_18.png","img/750/randomdotsize/L/9_Ratio_750_L_4_R_3.png","img/750/randomdotsize/L/14_Ratio_750_L_8_R_6.png","img/250/randomdotsizeEA/R/11_Ratio_250_L_3_R_12.png","img/500/equaldotanddens/L/7_Ratio_500_L_10_R_5.png","img/750/randomdotsize/L/14_Ratio_750_L_8_R_6.png","img/750/randomdotsize/L/13_Ratio_750_L_8_R_6.png","img/500/randomdotsize/L/7_Ratio_500_L_10_R_5.png","img/750/equaldotanddens/R/15_Ratio_750_L_9_R_12.png","img/500/equaldotsize/R/3_Ratio_500_L_10_R_20.png","img/250/randomdotsize/R/8_Ratio_250_L_1_R_4.png","img/500/equaldotsize/L/4_Ratio_500_L_18_R_9.png","img/250/equaldotanddens/L/2_Ratio_250_L_16_R_4.png","img/750/randomdotsize/R/15_Ratio_750_L_9_R_12.png","img/750/equaldotanddens/L/8_Ratio_750_L_4_R_3.png","img/500/equaldotsize/L/8_Ratio_500_L_8_R_4.png","img/250/randomdotsize/L/1_Ratio_250_L_8_R_2.png","img/900/randomdotsizeEA/L/4_Ratio_900_L_20_R_18.png","img/900/equaldotanddens/R/14_Ratio_900_L_18_R_20.png","img/500/equaldotanddens/R/2_Ratio_500_L_3_R_6.png","img/500/randomdotsizeEA/L/11_Ratio_500_L_12_R_6.png","img/250/randomdotsizeEA/L/7_Ratio_250_L_8_R_2.png","img/750/equaldotanddens/L/14_Ratio_750_L_8_R_6.png","img/900/equaldotanddens/R/15_Ratio_900_L_9_R_10.png","img/900/randomdotsizeEA/R/5_Ratio_900_L_9_R_10.png","img/900/equaldotsize/L/10_Ratio_900_L_20_R_18.png","img/500/randomdotsize/R/6_Ratio_500_L_9_R_18.png","img/500/equaldotanddens/R/6_Ratio_500_L_9_R_18.png","img/500/randomdotsize/L/10_Ratio_500_L_4_R_2.png","img/900/equaldotanddens/R/13_Ratio_900_L_18_R_20.png","img/500/equaldotsize/L/5_Ratio_500_L_4_R_2.png","img/750/randomdotsizeEA/L/6_Ratio_750_L_24_R_18.png","img/250/equaldotanddens/L/2_Ratio_250_L_16_R_4.png","img/250/equaldotsize/L/7_Ratio_250_L_8_R_2.png","img/900/randomdotsizeEA/R/6_Ratio_900_L_9_R_10.png","img/750/equaldotanddens/L/8_Ratio_750_L_4_R_3.png","img/900/randomdotsize/L/8_Ratio_900_L_20_R_18.png","img/750/equaldotsize/L/10_Ratio_750_L_4_R_3.png","img/900/equaldotanddens/L/1_Ratio_900_L_10_R_9.png","img/750/equaldotsize/L/1_Ratio_750_L_20_R_15.png","img/500/randomdotsizeEA/R/1_Ratio_500_L_9_R_18.png","img/500/randomdotsize/L/11_Ratio_500_L_12_R_6.png","img/750/equaldotanddens/R/2_Ratio_750_L_6_R_8.png","img/900/equaldotsize/L/4_Ratio_900_L_20_R_18.png","img/250/randomdotsizeEA/L/3_Ratio_250_L_8_R_2.png","img/900/equaldotanddens/L/4_Ratio_900_L_20_R_18.png","img/900/randomdotsize/R/3_Ratio_900_L_9_R_10.png","img/750/equaldotanddens/L/14_Ratio_750_L_8_R_6.png","img/250/equaldotsize/R/10_Ratio_250_L_4_R_16.png","img/750/randomdotsizeEA/L/10_Ratio_750_L_4_R_3.png","img/500/randomdotsize/R/12_Ratio_500_L_1_R_2.png","img/250/equaldotanddens/L/1_Ratio_250_L_8_R_2.png","img/900/equaldotsize/R/15_Ratio_900_L_9_R_10.png","img/900/randomdotsize/L/2_Ratio_900_L_20_R_18.png","img/250/equaldotanddens/R/6_Ratio_250_L_6_R_24.png","img/900/randomdotsizeEA/R/6_Ratio_900_L_9_R_10.png","img/250/randomdotsizeEA/L/14_Ratio_250_L_12_R_3.png","img/900/equaldotsize/R/12_Ratio_900_L_18_R_20.png","img/750/equaldotsize/L/6_Ratio_750_L_24_R_18.png","img/900/randomdotsize/R/9_Ratio_900_L_18_R_20.png","img/250/randomdotsizeEA/R/9_Ratio_250_L_3_R_12.png","img/500/equaldotanddens/L/10_Ratio_500_L_4_R_2.png","img/750/equaldotsize/L/6_Ratio_750_L_24_R_18.png","img/900/equaldotsize/L/10_Ratio_900_L_20_R_18.png","img/750/equaldotsize/R/7_Ratio_750_L_3_R_4.png","img/250/equaldotsize/L/5_Ratio_250_L_24_R_6.png","img/750/randomdotsizeEA/R/11_Ratio_750_L_12_R_16.png","img/900/randomdotsizeEA/L/1_Ratio_900_L_10_R_9.png","img/500/equaldotsize/R/15_Ratio_500_L_1_R_2.png","img/250/randomdotsizeEA/R/9_Ratio_250_L_3_R_12.png","img/750/randomdotsize/L/9_Ratio_750_L_4_R_3.png","img/900/equaldotsize/R/15_Ratio_900_L_9_R_10.png","img/250/randomdotsizeEA/L/7_Ratio_250_L_8_R_2.png","img/250/equaldotsize/R/8_Ratio_250_L_1_R_4.png","img/900/equaldotsize/R/9_Ratio_900_L_18_R_20.png","img/900/equaldotanddens/R/9_Ratio_900_L_18_R_20.png","img/750/randomdotsizeEA/L/10_Ratio_750_L_4_R_3.png","img/750/randomdotsize/R/4_Ratio_750_L_15_R_20.png","img/750/randomdotsizeEA/R/11_Ratio_750_L_12_R_16.png"],"Rat0":[["12_Ratio_0_L_9_R_0.png","13_Ratio_0_L_6_R_0.png","5_Ratio_0_L_2_R_0.png","6_Ratio_0_L_4_R_0.png","8_Ratio_0_L_6_R_0.png"],["1_Ratio_0_L_0_R_17.png","10_Ratio_0_L_0_R_22.png","11_Ratio_0_L_0_R_1.png","14_Ratio_0_L_0_R_24.png","15_Ratio_0_L_0_R_4.png","2_Ratio_0_L_0_R_5.png","3_Ratio_0_L_0_R_17.png","4_Ratio_0_L_0_R_7.png","7_Ratio_0_L_0_R_19.png","9_Ratio_0_L_0_R_15.png"]],"Rat250":[["1_Ratio_250_L_8_R_2.png","14_Ratio_250_L_12_R_3.png","15_Ratio_250_L_12_R_3.png","2_Ratio_250_L_16_R_4.png","3_Ratio_250_L_8_R_2.png","5_Ratio_250_L_24_R_6.png","7_Ratio_250_L_8_R_2.png"],["10_Ratio_250_L_4_R_16.png","11_Ratio_250_L_3_R_12.png","12_Ratio_250_L_5_R_20.png","13_Ratio_250_L_2_R_8.png","4_Ratio_250_L_3_R_12.png","6_Ratio_250_L_6_R_24.png","8_Ratio_250_L_1_R_4.png","9_Ratio_250_L_3_R_12.png"]],"Rat500":[["10_Ratio_500_L_4_R_2.png","11_Ratio_500_L_12_R_6.png","13_Ratio_500_L_12_R_6.png","4_Ratio_500_L_18_R_9.png","5_Ratio_500_L_4_R_2.png","7_Ratio_500_L_10_R_5.png","8_Ratio_500_L_8_R_4.png"],["1_Ratio_500_L_9_R_18.png","12_Ratio_500_L_1_R_2.png","14_Ratio_500_L_5_R_10.png","15_Ratio_500_L_1_R_2.png","2_Ratio_500_L_3_R_6.png","3_Ratio_500_L_10_R_20.png","6_Ratio_500_L_9_R_18.png","9_Ratio_500_L_2_R_4.png"]],"Rat750":[["1_Ratio_750_L_20_R_15.png","10_Ratio_750_L_4_R_3.png","13_Ratio_750_L_8_R_6.png","14_Ratio_750_L_8_R_6.png","6_Ratio_750_L_24_R_18.png","8_Ratio_750_L_4_R_3.png","9_Ratio_750_L_4_R_3.png"],["11_Ratio_750_L_12_R_16.png","12_Ratio_750_L_3_R_4.png","15_Ratio_750_L_9_R_12.png","2_Ratio_750_L_6_R_8.png","3_Ratio_750_L_15_R_20.png","4_Ratio_750_L_15_R_20.png","5_Ratio_750_L_15_R_20.png","7_Ratio_750_L_3_R_4.png"]],"Rat900":[["1_Ratio_900_L_10_R_9.png","10_Ratio_900_L_20_R_18.png","2_Ratio_900_L_20_R_18.png","4_Ratio_900_L_20_R_18.png","8_Ratio_900_L_20_R_18.png"],["11_Ratio_900_L_18_R_20.png","12_Ratio_900_L_18_R_20.png","13_Ratio_900_L_18_R_20.png","14_Ratio_900_L_18_R_20.png","15_Ratio_900_L_9_R_10.png","3_Ratio_900_L_9_R_10.png","5_Ratio_900_L_9_R_10.png","6_Ratio_900_L_9_R_10.png","7_Ratio_900_L_9_R_10.png","9_Ratio_900_L_18_R_20.png"]],"Rat1000":[["10_Ratio_1000_L_16_R_16.png","11_Ratio_1000_L_6_R_6.png","12_Ratio_1000_L_14_R_14.png","13_Ratio_1000_L_20_R_20.png","15_Ratio_1000_L_15_R_15.png","2_Ratio_1000_L_17_R_17.png","4_Ratio_1000_L_9_R_9.png","5_Ratio_1000_L_6_R_6.png","6_Ratio_1000_L_19_R_19.png","8_Ratio_1000_L_14_R_14.png","9_Ratio_1000_L_25_R_25.png"],["1_Ratio_1000_L_1_R_1.png","14_Ratio_1000_L_17_R_17.png","3_Ratio_1000_L_17_R_17.png","7_Ratio_1000_L_6_R_6.png"]]}},{"start_time":1549382289110,"click_time":1549382290337,"finger_time":1549382289998,"fix_duration":589.2240168294533,"trial":1,"RT":888,"MT":339,"sideResp":1,"stimulus":"img/500/randomdotsizeEA/L/5_Ratio_500_L_4_R_2.png","xmouse":[395,395,395,395,396,396,396,396,396,396,396,396,396,396,396.6669921875,396.6669921875,396.6669921875,396.6669921875,396.6669921875,396.6669921875,396.6669921875,396.6669921875,396.6669921875,396.6669921875,396,396,396,396,396,396,396,396,396,396,396.6669921875,396.6669921875,396.6669921875,396.6669921875,396.6669921875,396.6669921875,396.6669921875,396.6669921875,396.6669921875,396.6669921875,378.6669921875,372,358,351,320,295.3330078125,283,256.6669921875,244,202,178.66700744628906,166.66700744628906,143.33299255371094,132,102.66699981689453,88.66699981689453,81.33300018310547,72],"ymouse":[810,810,810,810,810,810,810,810,810,810,810,810,810,810,810.6669921875,810.6669921875,810.6669921875,810.6669921875,810.6669921875,810.6669921875,810.6669921875,810.6669921875,810.6669921875,810.6669921875,810,810,810,810,810,810,810,810,810,810,810.6669921875,810.6669921875,810.6669921875,810.6669921875,810.6669921875,810.6669921875,810.6669921875,810.6669921875,810.6669921875,810.6669921875,766.6669921875,745,703,682,610,556.6669921875,528,468.6669921875,444,360,306.6669921875,280.6669921875,230.66700744628906,206,144.66700744628906,114.6669921875,104.66699981689453,92],"timestamp_mouse":[7,41,48,67,87,107,128,147,167,187,207,227,247,267,287,307,328,347,367,387,407,427,448,466,487,507,527,548,567,587,607,627,647,667,687,707,727,748,768,787,807,827,847,867,887,908,927,947,968,987,1007,1027,1047,1068,1088,1107,1127,1147,1167,1188,1207,1227],"xSR":350,"ySR":768,"xT1":30,"yT1":0,"xT2":670,"yT2":0,"toosoon":0,"cond_shown":"randomdotsizeEA","ratio_trial":500,"smaller_num":"2","larger_num":"4","correct_side":1,"subjID":"410wm","gender":"No_gender","age":"No_age","school":"No_school"},{"start_time":1549382293079,"click_time":1549382294277,"finger_time":1549382293899,"fix_duration":559.6906648979113,"trial":2,"RT":820,"MT":378,"sideResp":2,"stimulus":"img/250/randomdotsize/R/4_Ratio_250_L_3_R_12.png","xmouse":[400,400,400,400,400,400,400,400,400,400,400,400,400,400,400,400,400,400,400,400,400,400,400,400,400,400,400,400,400,400,400,400.6669921875,400.6669921875,400.6669921875,400.6669921875,400.6669921875,400.6669921875,400.6669921875,404.6669921875,404.6669921875,404.6669921875,448,465.3330078125,473.3330078125,493,505.3330078125,568,580,603,613,630,652,661.3330078125,678,685.3330078125,697.3330078125,710,714,722,730,732],"ymouse":[836,836,836,836,836,836,836,836,836,836,836,836,836,836,836,836,836,836,836,836,836,836,836,836,836,836,836,836,836,836,836,836.6669921875,836.6669921875,836.6669921875,836.6669921875,836.6669921875,836.6669921875,836.6669921875,823.3330078125,823.3330078125,823.3330078125,746,718.6669921875,704.6669921875,674,653.3330078125,557,534,484,458,408,338,313.3330078125,268,247.3330078125,210.66700744628906,162,148,124,104,96],"timestamp_mouse":[10,18,39,58,78,98,118,138,158,178,199,218,238,258,278,298,318,338,358,379,399,419,438,458,478,498,519,538,558,578,598,619,638,658,678,698,718,738,758,778,798,820,839,858,878,898,920,938,958,979,998,1019,1038,1058,1078,1098,1122,1138,1158,1179,1198],"xSR":350,"ySR":768,"xT1":30,"yT1":0,"xT2":670,"yT2":0,"toosoon":0,"cond_shown":"randomdotsize","ratio_trial":250,"smaller_num":"3","larger_num":"12","correct_side":2,"subjID":"410wm","gender":"No_gender","age":"No_age","school":"No_school"},{"start_time":1549382297338,"click_time":1549382298618,"finger_time":1549382298278,"fix_duration":1435.4227808192081,"trial":3,"RT":940,"MT":340,"sideResp":2,"stimulus":"img/750/randomdotsizeEA/R/12_Ratio_750_L_3_R_4.png","xmouse":[417,417,417,417,417,417,417,417,417,417,417,417,417,417,417,417,417,417,417,417,417,417,417,417,417,417,417,417,417,417,417,417,417,417,417,417,417,417,417,417,417,417,417,416,416,430,447.3330078125,455.3330078125,472,497.3330078125,506,526.6669921875,549,563.3330078125,606,633,644,661.3330078125,670,695.3330078125,711.3330078125,716,726,732],"ymouse":[827,827,827,827,827,827,827,827,827,827,827,827,827,827,827,827,827,827,827,827,827,827,827,827,827,827,827,827,827,827,827,827,827,827,827,827,827,827,827,827,827,827,827,817,817,780,745.3330078125,728.6669921875,693,634.6669921875,614,574.6669921875,532,507.3330078125,432,380,354,305.3330078125,281,207.33299255371094,163.33299255371094,143,108,80],"timestamp_mouse":[2,44,59,79,99,119,139,159,179,199,219,240,259,279,299,319,339,359,379,399,419,439,459,479,499,519,539,559,579,599,619,639,659,679,699,719,739,759,779,799,819,840,859,879,899,919,940,959,980,1000,1019,1039,1059,1080,1099,1119,1139,1159,1179,1202,1218,1239,1259,1279],"xSR":350,"ySR":768,"xT1":30,"yT1":0,"xT2":670,"yT2":0,"toosoon":0,"cond_shown":"randomdotsizeEA","ratio_trial":750,"smaller_num":"3","larger_num":"4","correct_side":2,"subjID":"410wm","gender":"No_gender","age":"No_age","school":"No_school"},{"start_time":1549382300487,"click_time":1549382301498,"finger_time":1549382301157,"fix_duration":261.8914837132187,"trial":4,"RT":670,"MT":341,"sideResp":2,"stimulus":"img/250/equaldotanddens/R/9_Ratio_250_L_3_R_12.png","xmouse":[392,392,392,392,392,392,392,392,392,392,392,392,392,392,392,392,392,392,392,392,392,392,392,392,392,392,392,392,392,393.3330078125,393.3330078125,400.6669921875,407.3330078125,430,446,457.3330078125,479,490.6669921875,526,547,556.6669921875,582.6669921875,598,638,656,666,670.6669921875,684,699.3330078125,705.3330078125,713],"ymouse":[840,840,840,840,840,840,840,840,840,840,840,840,840,840,840,840,840,840,840,840,840,840,840,840,840,840,840,840,840,831.3330078125,828.6669921875,810.6669921875,795.3330078125,747,710,689.3330078125,642,616.6669921875,546,504,484.6669921875,436.6669921875,411,340,295,256,235.33299255371094,196,142.66700744628906,126.6669921875,98],"timestamp_mouse":[14,42,50,70,90,110,130,151,170,190,210,230,251,270,290,310,330,350,370,390,410,430,450,470,490,510,530,550,570,590,610,630,650,670,690,709,731,751,770,790,810,830,850,871,890,910,930,950,973,991,1010],"xSR":350,"ySR":768,"xT1":30,"yT1":0,"xT2":670,"yT2":0,"toosoon":0,"cond_shown":"equaldotanddens","ratio_trial":250,"smaller_num":"3","larger_num":"12","correct_side":2,"subjID":"410wm","gender":"No_gender","age":"No_age","school":"No_school"},{"start_time":1549382303479,"click_time":1549382304798,"finger_time":1549382304417,"fix_duration":477.63513237615194,"trial":5,"RT":938,"MT":381,"sideResp":1,"stimulus":"img/900/randomdotsizeEA/L/8_Ratio_900_L_20_R_18.png","xmouse":[404.6669921875,404.6669921875,404.6669921875,404.6669921875,404.6669921875,404.6669921875,404.6669921875,404.6669921875,404.6669921875,404.6669921875,404.6669921875,404.6669921875,404.6669921875,405.3330078125,405.3330078125,405.3330078125,405.3330078125,405.3330078125,405.3330078125,405.3330078125,405.3330078125,405.3330078125,405.3330078125,405.3330078125,405.3330078125,405.3330078125,405.3330078125,405.3330078125,405.3330078125,405.3330078125,405.3330078125,405.3330078125,405.3330078125,405.3330078125,405.3330078125,405.3330078125,405.3330078125,405.3330078125,405.3330078125,405.3330078125,405.3330078125,405.3330078125,405.3330078125,398.6669921875,388.6669921875,377.3330078125,369,350.6669921875,341.3330078125,314,295,286,266,255,224,203.33299255371094,194,175,168,139.33299255371094,132.66700744628906,118.66699981689453,112.66699981689453,107.33300018310547,96,87],"ymouse":[815.3330078125,815.3330078125,815.3330078125,815.3330078125,815.3330078125,815.3330078125,815.3330078125,815.3330078125,815.3330078125,815.3330078125,815.3330078125,815.3330078125,815.3330078125,814.6669921875,814.6669921875,814.6669921875,814.6669921875,814.6669921875,814.6669921875,814.6669921875,814.6669921875,814.6669921875,814.6669921875,814.6669921875,814.6669921875,814.6669921875,814.6669921875,814.6669921875,814.6669921875,814.6669921875,814.6669921875,814.6669921875,814.6669921875,813.3330078125,813.3330078125,813.3330078125,813.3330078125,813.3330078125,813.3330078125,813.3330078125,813.3330078125,813.3330078125,813.3330078125,803.3330078125,789.3330078125,771.3330078125,758,728.6669921875,715.3330078125,670,636,618,578,558,492,447.3330078125,424,376,351,261.3330078125,240.6669921875,202.66700744628906,185.33299255371094,168.66700744628906,136,94],"timestamp_mouse":[2,49,58,78,97,118,138,158,178,198,218,238,258,278,298,318,338,358,379,398,419,439,458,479,498,518,538,558,577,598,618,638,658,679,700,719,739,758,778,798,818,838,858,878,899,918,938,958,979,1000,1018,1037,1058,1078,1098,1119,1138,1158,1178,1203,1218,1238,1258,1278,1298,1318],"xSR":350,"ySR":768,"xT1":30,"yT1":0,"xT2":670,"yT2":0,"toosoon":0,"cond_shown":"randomdotsizeEA","ratio_trial":900,"smaller_num":"18","larger_num":"20","correct_side":1,"subjID":"410wm","gender":"No_gender","age":"No_age","school":"No_school"},{"start_time":1549382306460,"click_time":1549382307837,"finger_time":1549382307477,"fix_duration":520.2428076625387,"trial":6,"RT":1017,"MT":360,"sideResp":1,"stimulus":"img/500/equaldotsize/L/4_Ratio_500_L_18_R_9.png","xmouse":[408,408,408,408,408,408,408,408,408,407.3330078125,406,406,405,404.6669921875,404,403.3330078125,402.6669921875,402.6669921875,402.6669921875,403.3330078125,403.3330078125,404,404,404,404,404,404,404,404,404,404,404,404,406,406,406,406,406,406,406,406,406,406,402,402,400.6669921875,398.6669921875,398,393.3330078125,386,367,360,345.3330078125,336.6669921875,315.3330078125,284,274,252.66700744628906,244,224.66700744628906,214,186.66700744628906,168.66700744628906,159,142.66700744628906,134,112.66699981689453,101.33300018310547],"ymouse":[797,797,797,797,798,798,798,798,798,798.6669921875,800,800,802,802.6669921875,803,804.6669921875,804.6669921875,804.6669921875,804.6669921875,804.6669921875,804.6669921875,804,804,804,804,804,804,804,804,804,804,804,804,795,795,795,795,795,795,795,795,795,795,788,788,785.3330078125,781.3330078125,779,769.3330078125,754,706,686,651.3330078125,632.6669921875,594.6669921875,533,512,465.3330078125,444,399.3330078125,374,303.3330078125,258.6669921875,236,194.66700744628906,175,118.6669921875,85.33300018310547],"timestamp_mouse":[43,57,77,97,117,137,157,177,197,217,237,257,277,297,319,337,357,377,397,418,437,457,477,497,517,537,557,577,597,617,637,657,677,697,718,737,758,777,797,817,838,857,877,897,917,938,957,978,997,1017,1040,1057,1077,1097,1117,1138,1157,1177,1197,1218,1238,1258,1277,1297,1317,1337,1358,1377],"xSR":350,"ySR":768,"xT1":30,"yT1":0,"xT2":670,"yT2":0,"toosoon":0,"cond_shown":"equaldotsize","ratio_trial":500,"smaller_num":"9","larger_num":"18","correct_side":1,"subjID":"410wm","gender":"No_gender","age":"No_age","school":"No_school"},{"start_time":1549382309009,"click_time":1549382310157,"finger_time":1549382309757,"fix_duration":250,"trial":7,"RT":748,"MT":400,"sideResp":2,"stimulus":"img/900/equaldotsize/L/8_Ratio_900_L_20_R_18.png","xmouse":[412.6669921875,412.6669921875,412.6669921875,412.6669921875,412.6669921875,412.6669921875,412.6669921875,412.6669921875,413.3330078125,413.3330078125,413.3330078125,413.3330078125,413.3330078125,413.3330078125,413.3330078125,413.3330078125,413.3330078125,413.3330078125,414,414,414,414,414,414,414,414,414,414,414,414,414,414,414,414,414,414,428.6669921875,434.6669921875,443.3330078125,447.3330078125,464.6669921875,477.3330078125,484,497.3330078125,504,532,551.3330078125,560,578.6669921875,589.3330078125,632,641,657.3330078125,664,680,699.3330078125,704,711.3330078125],"ymouse":[826.6669921875,826.6669921875,826.6669921875,826.6669921875,826.6669921875,826.6669921875,826.6669921875,826.6669921875,827.3330078125,827.3330078125,827.3330078125,827.3330078125,827.3330078125,827.3330078125,827.3330078125,827.3330078125,827.3330078125,827.3330078125,828,828,828,828,828,828,828,828,828,828,828,828,828,828,828,828,828,828,780.6669921875,767.3330078125,743.3330078125,728.6669921875,680.6669921875,647.3330078125,630,595.3330078125,576,512,466.6669921875,446,401.3330078125,376.6669921875,284,262,221.33299255371094,202,166,118.6669921875,105,82.66699981689453],"timestamp_mouse":[12,46,49,68,88,108,128,148,168,188,208,228,248,269,289,308,328,348,369,388,408,428,448,468,488,508,528,548,568,588,613,629,648,668,688,708,728,748,771,788,808,829,848,868,888,909,929,948,968,988,1010,1028,1048,1068,1088,1111,1128,1148],"xSR":350,"ySR":768,"xT1":30,"yT1":0,"xT2":670,"yT2":0,"toosoon":0,"cond_shown":"equaldotsize","ratio_trial":900,"smaller_num":"18","larger_num":"20","correct_side":1,"subjID":"410wm","gender":"No_gender","age":"No_age","school":"No_school"},{"start_time":1549382311990,"click_time":1549382313218,"finger_time":1549382312817,"fix_duration":250,"trial":8,"RT":827,"MT":401,"sideResp":2,"stimulus":"img/500/randomdotsizeEA/R/3_Ratio_500_L_10_R_20.png","xmouse":[382,382,382,382,382,382,382,382,382,382,382,382,382.6669921875,382,382,382,382,382,382,382,382,382,382,382,382,382,382,382,382,382,382,382,382,385,385,386,386,386,386,386,417.3330078125,440,455.3330078125,462.6669921875,478,488,523.3330078125,551,580,592.6669921875,616,642,652,668.6669921875,676,686.6669921875,689.3330078125,698.6669921875,705,708,714.6669921875],"ymouse":[843,843,844,844,844,844,844,844,844,844,845,845,845.3330078125,845,845,845,845,845,845,845,845,845,845,846,846,846,846,846,846,846,846,846,846,836,836,831,831,831,831,831,746.6669921875,695,658.6669921875,640.6669921875,602,583,522.6669921875,478,432,408.6669921875,362,294,272,229.33299255371094,210,178.66700744628906,166.66700744628906,136.66700744628906,120,112,98.66699981689453],"timestamp_mouse":[10,57,68,87,107,129,148,167,187,207,227,247,271,287,307,327,347,368,387,408,427,447,467,487,508,527,547,567,587,607,627,652,667,687,707,727,748,767,787,808,827,847,868,887,907,927,949,967,987,1007,1027,1048,1067,1089,1107,1127,1147,1167,1187,1207,1227],"xSR":350,"ySR":768,"xT1":30,"yT1":0,"xT2":670,"yT2":0,"toosoon":0,"cond_shown":"randomdotsizeEA","ratio_trial":500,"smaller_num":"10","larger_num":"20","correct_side":2,"subjID":"410wm","gender":"No_gender","age":"No_age","school":"No_school"},{"start_time":1549382315475,"click_time":1549382316698,"finger_time":1549382316378,"fix_duration":1111.2234968407017,"trial":9,"RT":903,"MT":320,"sideResp":1,"stimulus":"img/500/randomdotsizeEA/R/3_Ratio_500_L_10_R_20.png","xmouse":[390,390,390,390,391,391,392,392,392,392,392,392,392,392,392,392,392,393,393,393.3330078125,394,394,394,394.6669921875,394.6669921875,394.6669921875,394.6669921875,395,395,395,396,396,396,396,396,396.6669921875,396.6669921875,396.6669921875,396,396.6669921875,396,394.6669921875,394.6669921875,394.6669921875,394.6669921875,361.3330078125,352,332,320.6669921875,278,244.66700744628906,232,206,194,167.33299255371094,150,142,124,115,92,78,73.33300018310547],"ymouse":[830,830,830,830,830,830,830,830,830,830,830,830,830,830,830,830,830,830,830,829.3330078125,829,829,829,829.3330078125,829.3330078125,828.6669921875,828.6669921875,828,828,828,824,824,824,824,824,812.6669921875,810.6669921875,809.3330078125,808,804.6669921875,802,795.3330078125,795.3330078125,795.3330078125,795.3330078125,684.6669921875,669,637,621.3330078125,570,529.3330078125,512,466,440,363.3330078125,312,286,236,214,149,112,93.33300018310547],"timestamp_mouse":[8,41,42,63,82,102,122,142,162,182,202,222,242,262,282,302,322,342,362,386,405,422,442,462,483,502,522,542,562,584,607,623,642,662,682,704,722,742,762,783,802,822,842,862,882,902,923,942,962,984,1004,1022,1042,1062,1084,1102,1122,1142,1162,1184,1202,1222],"xSR":350,"ySR":768,"xT1":30,"yT1":0,"xT2":670,"yT2":0,"toosoon":0,"cond_shown":"randomdotsizeEA","ratio_trial":500,"smaller_num":"10","larger_num":"20","correct_side":2,"subjID":"410wm","gender":"No_gender","age":"No_age","school":"No_school"},{"start_time":1549382318631,"click_time":1549382319937,"finger_time":1549382319637,"fix_duration":250,"trial":10,"RT":1006,"MT":300,"sideResp":1,"stimulus":"img/500/equaldotanddens/L/5_Ratio_500_L_4_R_2.png","xmouse":[412,412,412,412,412,412,412,412,412,412,412,412,412,412,412,412,412,412,412,412,412,412,412,412,412,412,412,412,412,412,412,412,412,412,412,412,412,412,412,412,412,412,412,412,412,412,412,404.6669921875,404.6669921875,396,376,369,355.3330078125,331.3330078125,315.3330078125,308,290.6669921875,258.6669921875,246.66700744628906,220.66700744628906,206.66700744628906,181.33299255371094,147,137.33299255371094,121,113.33300018310547],"ymouse":[830,830,830,830,830,830,830,830,830,830,830,830,830,830,830,830,830,830,830,830,830,830,830,830,830,830,830,830,830,830,830,830,830,830,830,830,830,830,830,830,830,830,830,830,830,830,830,822.6669921875,822.6669921875,805,756,738,701.3330078125,633.3330078125,578.6669921875,548,489.3330078125,398.6669921875,370.6669921875,316.6669921875,290.6669921875,240.6669921875,174,152.66700744628906,116,98.66699981689453],"timestamp_mouse":[7,45,47,66,86,106,127,146,166,186,206,226,246,266,286,312,326,345,366,386,407,427,446,466,486,506,527,546,566,586,606,626,647,666,686,706,727,746,766,786,806,826,846,866,886,906,926,946,967,986,1006,1026,1046,1066,1086,1106,1126,1148,1167,1186,1206,1226,1247,1266,1286,1306],"xSR":350,"ySR":768,"xT1":30,"yT1":0,"xT2":670,"yT2":0,"toosoon":0,"cond_shown":"equaldotanddens","ratio_trial":500,"smaller_num":"2","larger_num":"4","correct_side":1,"subjID":"410wm","gender":"No_gender","age":"No_age","school":"No_school"},{"start_time":1549382321781,"click_time":1549382323477,"finger_time":1549382322999,"fix_duration":359.858369928453,"trial":11,"RT":1218,"MT":478,"sideResp":2,"stimulus":"img/500/equaldotanddens/R/6_Ratio_500_L_9_R_18.png","xmouse":[409,409,409,409,409,409,409,409,409,409,409,409,409,409,409,409,409,409,409,409,409,409,409,409,409,409,409,409,409,409,409,409,409,409,409,409,409,409,409,409,409,409,409,409,409,409,409,409,409,409,409,409,409,409,409,409.3330078125,409.3330078125,409.3330078125,409.3330078125,417.3330078125,424,429,433,444.6669921875,450,464,484.6669921875,491.3330078125,508.6669921875,519.3330078125,549.3330078125,568.6669921875,578.6669921875,600,622,633.3330078125,664,680.6669921875,685.3330078125,693,697,707,712,714,716],"ymouse":[824,824,824,824,824,824,824,824,824,824,824,824,824,824,824,824,824,824,824,824,824,824,824,824,824,824,824,824,824,824,824,824,824,824,824,824,824,824,824,824,824,824,824,824,824,824,824,824,824,824,824,824,824,824,824,810.6669921875,810.6669921875,810.6669921875,810.6669921875,774.6669921875,748,728,714,677.3330078125,658,622,571.3330078125,555.3330078125,521.3330078125,504.6669921875,453.3330078125,418.6669921875,402.6669921875,367,331,314.6669921875,261,228.66700744628906,212.66700744628906,186,172,138,116,110,94],"timestamp_mouse":[16,36,56,76,96,117,137,156,176,196,216,236,256,277,311,317,336,356,376,396,418,436,456,476,497,517,536,556,576,596,616,636,656,676,696,716,736,757,776,796,816,836,857,877,896,916,936,956,976,996,1017,1036,1056,1076,1096,1124,1136,1157,1176,1196,1218,1237,1256,1276,1296,1316,1338,1356,1376,1396,1418,1437,1456,1476,1496,1516,1538,1556,1577,1596,1616,1638,1657,1676,1696],"xSR":350,"ySR":768,"xT1":30,"yT1":0,"xT2":670,"yT2":0,"toosoon":0,"cond_shown":"equaldotanddens","ratio_trial":500,"smaller_num":"9","larger_num":"18","correct_side":2,"subjID":"410wm","gender":"No_gender","age":"No_age","school":"No_school"},{"start_time":1549382324830,"click_time":1549382325997,"finger_time":1549382325658,"fix_duration":250,"trial":12,"RT":828,"MT":339,"sideResp":1,"stimulus":"img/500/equaldotanddens/L/5_Ratio_500_L_4_R_2.png","xmouse":[384,384,384,384.6669921875,384.6669921875,384.6669921875,384.6669921875,384.6669921875,385.3330078125,385.3330078125,385.3330078125,385.3330078125,385.3330078125,385.3330078125,385.3330078125,385.3330078125,385.3330078125,385.3330078125,385.3330078125,385.3330078125,385.3330078125,385.3330078125,385.3330078125,386,386,386,386,386,386,386,386,386,386,386,385,385,385,385,385,385,334.6669921875,325,304.6669921875,275,264.6669921875,247,238,221.33299255371094,192,181.33299255371094,162,153.33299255371094,140.66700744628906,128.66700744628906,126,120.6669921875,118,114],"ymouse":[822,822,822,822.6669921875,822.6669921875,822.6669921875,822.6669921875,822.6669921875,822.6669921875,822.6669921875,822.6669921875,822.6669921875,822.6669921875,822.6669921875,822.6669921875,822.6669921875,822.6669921875,822.6669921875,822.6669921875,822.6669921875,822.6669921875,822.6669921875,822.6669921875,822,822,822,822,822,822,822,822,822,821,821,820,820,820,820,820,820,751.3330078125,736,704.6669921875,646,623.3330078125,576,550,500.6669921875,428,403.3330078125,354,330.6669921875,282.6669921875,213.33299255371094,190,148.66700744628906,130,98],"timestamp_mouse":[38,47,67,87,107,127,147,168,187,207,227,247,267,287,307,327,347,367,387,407,428,447,467,487,507,528,547,567,587,607,627,647,667,688,710,727,747,767,787,810,828,848,867,889,908,927,947,967,991,1008,1027,1047,1067,1089,1109,1127,1148,1167],"xSR":350,"ySR":768,"xT1":30,"yT1":0,"xT2":670,"yT2":0,"toosoon":0,"cond_shown":"equaldotanddens","ratio_trial":500,"smaller_num":"2","larger_num":"4","correct_side":1,"subjID":"410wm","gender":"No_gender","age":"No_age","school":"No_school"},{"start_time":1549382327520,"click_time":1549382328878,"finger_time":1549382328517,"fix_duration":413.0377540223036,"trial":13,"RT":997,"MT":361,"sideResp":1,"stimulus":"img/750/equaldotsize/L/9_Ratio_750_L_4_R_3.png","xmouse":[406.6669921875,406.6669921875,406.6669921875,406.6669921875,406.6669921875,406.6669921875,406.6669921875,406.6669921875,406.6669921875,406.6669921875,406.6669921875,407.3330078125,407.3330078125,407.3330078125,407.3330078125,407.3330078125,407.3330078125,407.3330078125,407.3330078125,407.3330078125,407.3330078125,407.3330078125,407.3330078125,407.3330078125,407.3330078125,407.3330078125,407.3330078125,407.3330078125,407.3330078125,408,408,408,408,408,408,408,408,408,408,408,408,407.3330078125,407.3330078125,407.3330078125,407.3330078125,407.3330078125,407.3330078125,407.3330078125,378,370,355.3330078125,336,329.3330078125,315,308,292.6669921875,267.3330078125,250,241.33299255371094,224.66700744628906,203.33299255371094,196.66700744628906,182.66700744628906,175.33299255371094,159.33299255371094,151,128,113],"ymouse":[819.3330078125,819.3330078125,819.3330078125,819.3330078125,819.3330078125,819.3330078125,819.3330078125,819.3330078125,819.3330078125,819.3330078125,819.3330078125,819.3330078125,819.3330078125,819.3330078125,819.3330078125,819.3330078125,819.3330078125,819.3330078125,819.3330078125,819.3330078125,819.3330078125,819.3330078125,819.3330078125,819.3330078125,819.3330078125,819.3330078125,819.3330078125,819.3330078125,819.3330078125,819,819,819,819,819,819,819,819,819,819,819,818,818.6669921875,818.6669921875,818.6669921875,818.6669921875,818.6669921875,818.6669921875,818.6669921875,770,753,720.6669921875,674,656.6669921875,620,600,558.6669921875,490.6669921875,443,420.6669921875,370.6669921875,294.6669921875,270.6669921875,227.33299255371094,205.33299255371094,166.66700744628906,148,102,76],"timestamp_mouse":[15,20,37,57,77,98,138,157,177,197,217,239,257,278,297,317,337,358,377,397,417,437,458,477,497,518,537,557,577,597,617,638,658,677,697,717,738,757,777,797,824,842,857,877,898,917,938,957,977,997,1017,1037,1058,1077,1099,1117,1137,1157,1177,1197,1218,1237,1257,1277,1297,1317,1340,1357],"xSR":350,"ySR":768,"xT1":30,"yT1":0,"xT2":670,"yT2":0,"toosoon":0,"cond_shown":"equaldotsize","ratio_trial":750,"smaller_num":"3","larger_num":"4","correct_side":1,"subjID":"410wm","gender":"No_gender","age":"No_age","school":"No_school"},{"start_time":1549382331055,"click_time":1549382332357,"finger_time":1549382332038,"fix_duration":1075.9399871109838,"trial":14,"RT":983,"MT":319,"sideResp":2,"stimulus":"img/900/equaldotanddens/R/11_Ratio_900_L_18_R_20.png","xmouse":[411.3330078125,411.3330078125,410.6669921875,411.3330078125,410.6669921875,410.6669921875,410,410,410,410,410,410,410,409.3330078125,409.3330078125,409.3330078125,409,409,410,410,410,410.6669921875,410,410.6669921875,410.6669921875,410.6669921875,410.6669921875,410,411,411,411.3330078125,412,412,412,412,412,412,412,412,413.3330078125,414,414,414,414,414,414,414,414,425,444.6669921875,467.3330078125,482.6669921875,490,508,518,553.3330078125,579.3330078125,592.6669921875,614,642,652,670,680.6669921875,696,706],"ymouse":[798.6669921875,798.6669921875,798.6669921875,798.6669921875,799.3330078125,799.3330078125,800,800,800,800,800,800,800,800.6669921875,800.6669921875,801.3330078125,802,802,802,802,803,803.3330078125,804,804.6669921875,804.6669921875,805.3330078125,805.3330078125,806,806,806,806.6669921875,806,806,807,807,808,808,808,808,807.3330078125,807,807,807,807,807,807,807,807,766,726.6669921875,666.6669921875,622.6669921875,599,554,530,454.6669921875,400.6669921875,372.6669921875,320,241,217,170,149.33299255371094,112,94],"timestamp_mouse":[16,48,62,82,103,122,142,163,182,205,222,242,262,282,302,322,342,362,382,404,424,442,463,482,502,524,542,563,582,602,622,643,662,682,702,722,742,762,783,802,824,842,862,882,902,924,943,962,983,1003,1021,1042,1062,1082,1103,1122,1142,1162,1182,1206,1222,1242,1262,1282,1302],"xSR":350,"ySR":768,"xT1":30,"yT1":0,"xT2":670,"yT2":0,"toosoon":0,"cond_shown":"equaldotanddens","ratio_trial":900,"smaller_num":"18","larger_num":"20","correct_side":2,"subjID":"410wm","gender":"No_gender","age":"No_age","school":"No_school"},{"start_time":1549382334547,"click_time":1549382336477,"finger_time":1549382336137,"fix_duration":1027.0860033095641,"trial":15,"RT":1590,"MT":340,"sideResp":2,"stimulus":"img/750/randomdotsizeEA/R/12_Ratio_750_L_3_R_4.png","xmouse":[404.6669921875,404.6669921875,404.6669921875,404.6669921875,405.3330078125,405.3330078125,405.3330078125,405.3330078125,405.3330078125,405.3330078125,405.3330078125,405.3330078125,405.3330078125,405.3330078125,406,406,406,406,406,406,406,406,406,406,406,406,406,406,406,406,406,406,406.6669921875,406.6669921875,406.6669921875,406.6669921875,406.6669921875,406.6669921875,406.6669921875,406.6669921875,406.6669921875,406.6669921875,406,406,406,406,406,406,406,406,406,406,405.3330078125,405.3330078125,405.3330078125,405.3330078125,405.3330078125,405.3330078125,405.3330078125,405.3330078125,405.3330078125,405.3330078125,404.6669921875,404.6669921875,404.6669921875,404.6669921875,404.6669921875,404.6669921875,404.6669921875,404.6669921875,404.6669921875,404.6669921875,406,406,406,406,406,412,431.3330078125,442,460.6669921875,478,510,518.6669921875,534.6669921875,542,557,568.6669921875,606,629.3330078125,639.3330078125,659.3330078125,687,694.6669921875,707.3330078125,711,717],"ymouse":[833.3330078125,833.3330078125,833.3330078125,833.3330078125,833.3330078125,833.3330078125,833.3330078125,833.3330078125,833.3330078125,833.3330078125,833.3330078125,833.3330078125,833.3330078125,833.3330078125,833,833,833,833,833,833,833,833,833,833,833,833,833,833,833,833,833,833,832.6669921875,832.6669921875,832.6669921875,832.6669921875,832.6669921875,832.6669921875,832.6669921875,832.6669921875,832.6669921875,832.6669921875,830,830,830,830,830,830,830,830,830,830,825.3330078125,825.3330078125,825.3330078125,825.3330078125,825.3330078125,825.3330078125,825.3330078125,825.3330078125,825.3330078125,825.3330078125,823.3330078125,823.3330078125,823.3330078125,823.3330078125,823.3330078125,823.3330078125,823.3330078125,823.3330078125,823.3330078125,823.3330078125,822,822,822,822,822,811,783.3330078125,766,731.3330078125,692,624,602.6669921875,557.3330078125,535,490,464.6669921875,383,330.6669921875,305.3330078125,255.3330078125,186,165.33299255371094,128.66700744628906,112,86],"timestamp_mouse":[11,45,50,70,91,111,130,150,170,190,210,230,250,270,290,311,331,350,370,391,410,430,451,471,490,510,530,550,570,590,610,630,651,670,690,710,731,752,770,790,810,830,850,870,890,910,930,950,970,990,1010,1030,1050,1070,1090,1118,1146,1150,1170,1190,1211,1230,1250,1270,1291,1310,1330,1350,1370,1390,1410,1431,1451,1470,1490,1510,1530,1552,1570,1590,1611,1630,1652,1670,1691,1710,1730,1751,1771,1790,1810,1830,1853,1871,1891,1910,1930],"xSR":350,"ySR":768,"xT1":30,"yT1":0,"xT2":670,"yT2":0,"toosoon":0,"cond_shown":"randomdotsizeEA","ratio_trial":750,"smaller_num":"3","larger_num":"4","correct_side":2,"subjID":"410wm","gender":"No_gender","age":"No_age","school":"No_school"},{"start_time":1549382339213,"click_time":1549382340358,"finger_time":1549382340057,"fix_duration":1234.4510972836345,"trial":16,"RT":844,"MT":301,"sideResp":2,"stimulus":"img/250/equaldotsize/R/11_Ratio_250_L_3_R_12.png","xmouse":[392,392,392,392,392,392,392,392,392,392,392,392,392.6669921875,392.6669921875,392.6669921875,392.6669921875,392.6669921875,392.6669921875,392.6669921875,392.6669921875,392.6669921875,392.6669921875,392.6669921875,392.6669921875,392.6669921875,392.6669921875,392.6669921875,392.6669921875,392.6669921875,392.6669921875,392.6669921875,392.6669921875,392.6669921875,392.6669921875,392.6669921875,394,394,394,394,394,394,418.6669921875,434.6669921875,452,463.3330078125,502,534,547.3330078125,570.6669921875,597.3330078125,606.6669921875,627.3330078125,636.6669921875,658.6669921875,668.6669921875,697,714.6669921875],"ymouse":[846,846,845,845,845,845,845,845,845,845,845,845,845.3330078125,845.3330078125,845.3330078125,845.3330078125,845.3330078125,845.3330078125,845.3330078125,845.3330078125,845.3330078125,845.3330078125,845.3330078125,845.3330078125,845.3330078125,844.6669921875,844.6669921875,844.6669921875,844.6669921875,844.6669921875,844.6669921875,844.6669921875,844.6669921875,844.6669921875,844.6669921875,841,841,841,841,841,841,767.3330078125,730.6669921875,697,679.3330078125,616,566,536.6669921875,484.6669921875,401.3330078125,371.3330078125,309.3330078125,278.6669921875,221.33299255371094,194.66700744628906,124,86.66699981689453],"timestamp_mouse":[9,46,64,84,104,124,144,165,184,204,224,245,264,284,304,324,344,364,384,406,424,444,464,484,504,524,544,564,584,604,624,644,664,684,704,726,744,764,784,804,824,844,864,884,904,925,944,964,984,1006,1025,1044,1064,1084,1104,1124,1145],"xSR":350,"ySR":768,"xT1":30,"yT1":0,"xT2":670,"yT2":0,"toosoon":0,"cond_shown":"equaldotsize","ratio_trial":250,"smaller_num":"3","larger_num":"12","correct_side":2,"subjID":"410wm","gender":"No_gender","age":"No_age","school":"No_school"},{"start_time":1549382343307,"click_time":1549382344617,"finger_time":1549382344297,"fix_duration":1407.131518012333,"trial":17,"RT":990,"MT":320,"sideResp":1,"stimulus":"img/750/equaldotanddens/L/14_Ratio_750_L_8_R_6.png","xmouse":[382,382,382,382,382,382,382,382,382,382,382,382,382,382,382,382,382,382,382,382,382,382,382,382,382,382,382,382,382,382,382,382,382,382,382,382,382,382,382,382,382,382,382,382,382,382,380,380,370.6669921875,359,352.6669921875,336.6669921875,308,297,274.6669921875,262.6669921875,238.66700744628906,204,192.66700744628906,171.33299255371094,161.33299255371094,142.66700744628906,115.33300018310547,106,92,80],"ymouse":[836,836,836,836,836,836,836,836,836,836,836,836,836,836,836,836,836,836,836,836,836,836,836,836,836,836,836,836,836,836,836,836,836,836,836,836,836,836,836,836,836,836,836,836,836,826,821,821,781.3330078125,750,733.3330078125,700.6669921875,643,622,574.6669921875,549.3330078125,497.3330078125,420,391.3330078125,336.6669921875,307.3330078125,250.6669921875,172.66700744628906,148,104,64],"timestamp_mouse":[12,41,50,70,90,110,130,150,170,190,210,230,250,270,290,310,330,350,370,390,410,430,450,470,490,510,530,550,570,590,610,630,650,670,691,710,730,750,770,790,810,830,850,870,890,911,931,951,970,990,1010,1030,1050,1070,1090,1111,1131,1151,1170,1190,1210,1230,1251,1270,1291,1310],"xSR":350,"ySR":768,"xT1":30,"yT1":0,"xT2":670,"yT2":0,"toosoon":0,"cond_shown":"equaldotanddens","ratio_trial":750,"smaller_num":"6","larger_num":"8","correct_side":1,"subjID":"410wm","gender":"No_gender","age":"No_age","school":"No_school"},{"start_time":1549382346438,"click_time":1549382347581,"finger_time":1549382347199,"fix_duration":832.4384907983862,"trial":18,"RT":761,"MT":382,"sideResp":1,"stimulus":"img/250/randomdotsize/L/5_Ratio_250_L_24_R_6.png","xmouse":[412,412,412,412,412,412,412,412,412,412,412,412,412,412,412,412,412,412,412,412,412,412,412.6669921875,412.6669921875,412.6669921875,412.6669921875,412.6669921875,412.6669921875,412.6669921875,412.6669921875,412.6669921875,412.6669921875,412,412,412,412,412,412,378,370.6669921875,354.6669921875,347.3330078125,322.6669921875,305,295,276.6669921875,257.3330078125,226,217.33299255371094,200.66700744628906,193.33299255371094,180.66700744628906,167.33299255371094,162,151.33299255371094,146,134.66700744628906,117.33300018310547],"ymouse":[814,814,814,814,814,814,814,814,814,814,814,814,814,814,814,814,814,814,814,814,814,814,813.3330078125,813.3330078125,813.3330078125,813.3330078125,813.3330078125,813.3330078125,813.3330078125,813.3330078125,813.3330078125,813.3330078125,812,812,812,812,812,812,762,746.6669921875,716.6669921875,703.3330078125,654.6669921875,614,592,545.3330078125,499.3330078125,426,401.3330078125,349.3330078125,323.3330078125,271.3330078125,201.33299255371094,180,141.33299255371094,124,95.33300018310547,60.66699981689453],"timestamp_mouse":[4,33,55,59,79,99,120,139,159,179,199,220,239,259,279,299,319,339,360,379,399,420,439,459,479,499,519,539,559,579,600,620,641,659,679,699,719,739,761,779,799,819,841,860,879,899,919,941,959,979,999,1019,1040,1060,1079,1099,1120,1143],"xSR":350,"ySR":768,"xT1":30,"yT1":0,"xT2":670,"yT2":0,"toosoon":0,"cond_shown":"randomdotsize","ratio_trial":250,"smaller_num":"6","larger_num":"24","correct_side":1,"subjID":"410wm","gender":"No_gender","age":"No_age","school":"No_school"},{"start_time":1549382351038,"click_time":1549382351977,"finger_time":1549382351699,"fix_duration":1479.0286396217334,"trial":19,"RT":661,"MT":278,"sideResp":2,"stimulus":"img/250/randomdotsize/R/10_Ratio_250_L_4_R_16.png","xmouse":[410,410,410,410,412,412,412,412,412,412,412,412,412.6669921875,412.6669921875,413,413,413,413,413,413,413,413,413,413,410.6669921875,410.6669921875,410,410,409.3330078125,409.3330078125,410,413.3330078125,424.6669921875,442,459,469,493.3330078125,505,529.3330078125,567,579.3330078125,602.6669921875,626,637.3330078125,665.3330078125,672.6669921875,685,692],"ymouse":[841,841,841,841,840,840,840,840,840,840,840,840,841.3330078125,841.3330078125,840,840,840,840,840,840,840,840,840,840,834.6669921875,834.6669921875,832,830,826.6669921875,825.3330078125,821,812.6669921875,779.3330078125,718,672,646,591.3330078125,564,508.6669921875,426,401.3330078125,345.3330078125,291,264.6669921875,189.33299255371094,166.66700744628906,128,98],"timestamp_mouse":[2,19,56,60,81,99,119,139,159,179,199,219,239,259,283,299,319,339,362,379,400,419,440,459,484,499,519,539,562,579,599,619,639,661,683,700,719,739,760,779,799,820,839,859,883,899,919,939],"xSR":350,"ySR":768,"xT1":30,"yT1":0,"xT2":670,"yT2":0,"toosoon":0,"cond_shown":"randomdotsize","ratio_trial":250,"smaller_num":"4","larger_num":"16","correct_side":2,"subjID":"410wm","gender":"No_gender","age":"No_age","school":"No_school"},{"start_time":1549382353654,"click_time":1549382354918,"finger_time":1549382354610,"fix_duration":270.1662643594861,"trial":20,"RT":956,"MT":308,"sideResp":1,"stimulus":"img/750/randomdotsize/L/1_Ratio_750_L_20_R_15.png","xmouse":[384.6669921875,385.3330078125,385,385,384,384.6669921875,384.6669921875,384.6669921875,384.6669921875,384.6669921875,384.6669921875,384.6669921875,384.6669921875,384.6669921875,384.6669921875,385.3330078125,385.3330078125,385.3330078125,385.3330078125,385.3330078125,385.3330078125,385.3330078125,385.3330078125,385.3330078125,385.3330078125,385.3330078125,385.3330078125,385.3330078125,386,386,387.3330078125,387.3330078125,387.3330078125,387.3330078125,386.6669921875,386,386,386,386,386,386,386,386,370,370,370,329,323.3330078125,316.6669921875,301,294,276,250.6669921875,229,218,196,186,166.66700744628906,141.33299255371094,133.33299255371094,118.66699981689453,112.66699981689453,100],"ymouse":[836.6669921875,837.3330078125,838,838,838,838.6669921875,838.6669921875,838.6669921875,838.6669921875,838.6669921875,838.6669921875,838.6669921875,838.6669921875,838.6669921875,838.6669921875,838.6669921875,838.6669921875,838.6669921875,838.6669921875,838.6669921875,838.6669921875,838.6669921875,838.6669921875,838.6669921875,838.6669921875,837.3330078125,837.3330078125,837.3330078125,836,836,835.3330078125,835.3330078125,835.3330078125,834.6669921875,834.6669921875,834,834,834,834,834,834,834,834,798,798,798,690,672.6669921875,654.6669921875,616,595,550,479.3330078125,430,404,354,328,279.3330078125,206.66700744628906,183.33299255371094,141.33299255371094,120.6669921875,86],"timestamp_mouse":[3,44,66,83,103,123,143,163,183,203,223,243,264,283,303,323,343,364,383,403,423,443,463,483,503,523,543,563,584,604,624,643,663,684,703,723,743,764,785,803,823,843,863,888,903,926,956,967,984,1003,1023,1043,1065,1084,1103,1123,1143,1163,1184,1203,1223,1243,1263],"xSR":350,"ySR":768,"xT1":30,"yT1":0,"xT2":670,"yT2":0,"toosoon":0,"cond_shown":"randomdotsize","ratio_trial":750,"smaller_num":"15","larger_num":"20","correct_side":1,"subjID":"410wm","gender":"No_gender","age":"No_age","school":"No_school"},{"start_time":1549382356410,"click_time":1549382357460,"finger_time":1549382357138,"fix_duration":250,"trial":21,"RT":728,"MT":322,"sideResp":1,"stimulus":"img/250/randomdotsize/L/5_Ratio_250_L_24_R_6.png","xmouse":[400.6669921875,400.6669921875,400.6669921875,400.6669921875,400.6669921875,400.6669921875,400.6669921875,401.3330078125,401.3330078125,401.3330078125,401.3330078125,401.3330078125,401.3330078125,401.3330078125,401.3330078125,401.3330078125,401.3330078125,401.3330078125,401.3330078125,401.3330078125,401.3330078125,401.3330078125,401.3330078125,401.3330078125,401.3330078125,401.3330078125,401.3330078125,401.3330078125,401.3330078125,401.3330078125,399.3330078125,396,394,387,376,367.3330078125,334,316,306.6669921875,288.6669921875,279.3330078125,251.3330078125,229.33299255371094,219,196.66700744628906,185,159,124,124,110.66699981689453,96.66699981689453],"ymouse":[804.6669921875,804.6669921875,804.6669921875,804.6669921875,804.6669921875,804.6669921875,804.6669921875,805.3330078125,805.3330078125,805.3330078125,805.3330078125,805.3330078125,805.3330078125,805.3330078125,805.3330078125,805.3330078125,805.3330078125,805.3330078125,805.3330078125,805.3330078125,805.3330078125,805.3330078125,805.3330078125,805.3330078125,805.3330078125,805.3330078125,805.3330078125,805.3330078125,805.3330078125,805.3330078125,801.3330078125,797,795,788,774,761.3330078125,710,676,656.6669921875,615.3330078125,592.6669921875,519.3330078125,466.6669921875,444,393.3330078125,366,288,172,172,132.66700744628906,79.33300018310547],"timestamp_mouse":[13,50,67,87,107,127,147,167,188,207,228,247,268,287,307,327,347,367,387,408,427,447,467,487,507,527,547,567,588,607,628,647,667,687,707,727,747,767,787,807,827,849,867,887,907,927,994,999,1007,1027,1050],"xSR":350,"ySR":768,"xT1":30,"yT1":0,"xT2":670,"yT2":0,"toosoon":0,"cond_shown":"randomdotsize","ratio_trial":250,"smaller_num":"6","larger_num":"24","correct_side":1,"subjID":"410wm","gender":"No_gender","age":"No_age","school":"No_school"},{"start_time":1549382359442,"click_time":1549382360898,"finger_time":1549382360458,"fix_duration":660.9940186583016,"trial":22,"RT":1016,"MT":440,"sideResp":2,"stimulus":"img/250/randomdotsizeEA/R/6_Ratio_250_L_6_R_24.png","xmouse":[406,406,406,406,406,406,406,406,406,406,406,406,406,406,406,406,406.6669921875,406.6669921875,406.6669921875,406.6669921875,406.6669921875,406.6669921875,406.6669921875,406.6669921875,406.6669921875,406.6669921875,406.6669921875,406.6669921875,406.6669921875,406.6669921875,406.6669921875,406.6669921875,406.6669921875,406.6669921875,406.6669921875,406.6669921875,406.6669921875,406.6669921875,406.6669921875,406.6669921875,406.6669921875,406.6669921875,406.6669921875,406.6669921875,406.6669921875,406.6669921875,406.6669921875,406.6669921875,407,412,421,437.3330078125,450,458.6669921875,473,482.6669921875,511.3330078125,529.3330078125,540.6669921875,568.6669921875,584.6669921875,636,663.3330078125,673,688,690.6669921875,694,694,693.3330078125,694,694,694,694.6669921875],"ymouse":[826,826,826,826,826,826,826,826,826,827,827,827,828,828,828,828,827.3330078125,827.3330078125,827.3330078125,827.3330078125,826.6669921875,826.6669921875,826.6669921875,826.6669921875,826.6669921875,826.6669921875,826.6669921875,826.6669921875,826.6669921875,826.6669921875,825.3330078125,825.3330078125,825.3330078125,825.3330078125,825.3330078125,825.3330078125,825.3330078125,825.3330078125,825.3330078125,825.3330078125,823.3330078125,823.3330078125,823.3330078125,823.3330078125,823.3330078125,823.3330078125,823.3330078125,823.3330078125,794,783,760,712.6669921875,678,658.6669921875,616,591.3330078125,517.3330078125,473.3330078125,448.6669921875,400.6669921875,375.3330078125,300,256.6669921875,236,202,186.66700744628906,152,140,127.3330078125,122,112,102,99.33300018310547],"timestamp_mouse":[15,41,55,75,95,116,135,155,175,195,215,235,257,275,295,317,338,355,375,395,415,435,455,475,495,515,535,555,575,595,615,635,655,675,695,716,735,755,775,796,815,835,856,875,895,915,937,955,975,995,1016,1035,1055,1075,1095,1115,1135,1155,1175,1195,1215,1236,1255,1275,1295,1316,1337,1355,1375,1395,1415,1440,1455],"xSR":350,"ySR":768,"xT1":30,"yT1":0,"xT2":670,"yT2":0,"toosoon":0,"cond_shown":"randomdotsizeEA","ratio_trial":250,"smaller_num":"6","larger_num":"24","correct_side":2,"subjID":"410wm","gender":"No_gender","age":"No_age","school":"No_school"},{"start_time":1549382363138,"click_time":1549382364577,"finger_time":1549382364177,"fix_duration":1179.5131290470122,"trial":23,"RT":1039,"MT":400,"sideResp":1,"stimulus":"img/500/randomdotsizeEA/L/5_Ratio_500_L_4_R_2.png","xmouse":[391.3330078125,391.3330078125,391.3330078125,392,392,392,392,392,392,392,392,392,392,392,392,392,392,392,392,392,392,392,392,392,392,392,392,392,392,392,392,392,392,390,390,390,390,390,390,390,390,390,390,386,386,386,386,386,386,386,386,386,352.6669921875,337.3330078125,320,312,308,302,294,288.6669921875,276,270,255,231,221.33299255371094,202,191.33299255371094,170.66700744628906,160.66700744628906,131.33299255371094,114.66699981689453,107,92.66699981689453],"ymouse":[805.3330078125,805.3330078125,805.3330078125,804,804,804,804,804,804,804,804,804,804,805,805,805,805,805,805,805,805,805,805,804,804,804,804,804,804,804,804,804,804,798,798,798,798,798,798,798,798,798,798,790,790,790,790,790,790,790,790,790,735.3330078125,706.6669921875,663,632,614,574,516,495.3330078125,460,440,402,340,319.3330078125,280,261.3330078125,225.33299255371094,206.66700744628906,155.33299255371094,123.3330078125,110,83.33300018310547],"timestamp_mouse":[2,19,46,59,79,99,120,139,159,179,199,220,239,259,279,299,319,339,359,379,399,419,439,460,479,499,519,539,559,579,599,619,639,667,679,699,719,739,759,779,799,819,839,863,879,899,919,939,959,979,999,1019,1039,1059,1079,1099,1119,1139,1161,1179,1199,1219,1239,1260,1279,1299,1319,1339,1359,1379,1399,1419,1439],"xSR":350,"ySR":768,"xT1":30,"yT1":0,"xT2":670,"yT2":0,"toosoon":0,"cond_shown":"randomdotsizeEA","ratio_trial":500,"smaller_num":"2","larger_num":"4","correct_side":1,"subjID":"410wm","gender":"No_gender","age":"No_age","school":"No_school"},{"start_time":1549382367044,"click_time":1549382368418,"finger_time":1549382368037,"fix_duration":1145.291186617415,"trial":24,"RT":993,"MT":381,"sideResp":1,"stimulus":"img/250/randomdotsize/L/14_Ratio_250_L_12_R_3.png","xmouse":[416.6669921875,416.6669921875,416.6669921875,416.6669921875,416.6669921875,416.6669921875,416.6669921875,416.6669921875,418.6669921875,418.6669921875,418.6669921875,418.6669921875,418.6669921875,418.6669921875,418.6669921875,418.6669921875,418.6669921875,418.6669921875,418,418,418,418,418,418,418,418,418,418,420,420,420,420,420,420,420,420,420,420,420,418.6669921875,418.6669921875,418.6669921875,418.6669921875,418.6669921875,418.6669921875,418.6669921875,418.6669921875,418.6669921875,380,364,349,342,327,319,298,285.3330078125,278,261.3330078125,234,225.33299255371094,206,198,178.66700744628906,170,138.66700744628906,131.33299255371094,120,114,106],"ymouse":[820.6669921875,820.6669921875,820.6669921875,820.6669921875,820.6669921875,820.6669921875,820.6669921875,820.6669921875,819.3330078125,819.3330078125,819.3330078125,819.3330078125,819.3330078125,819.3330078125,819.3330078125,819.3330078125,819.3330078125,819.3330078125,820,820,820,820,820,820,820,820,820,820,820,820,820,820,820,820,820,820,820,820,820,819.3330078125,819.3330078125,819.3330078125,819.3330078125,819.3330078125,819.3330078125,819.3330078125,819.3330078125,819.3330078125,769,746,718,704,676,660,604,558.6669921875,534,489.3330078125,424,402.6669921875,358,336,293.3330078125,272,195.33299255371094,176.66700744628906,142,126,98],"timestamp_mouse":[18,48,53,73,93,113,133,152,175,193,213,233,253,273,293,313,333,353,375,394,413,434,453,473,493,513,534,553,576,593,613,633,653,673,693,713,733,754,773,793,813,833,853,873,894,913,933,953,976,993,1013,1033,1053,1073,1093,1113,1133,1153,1175,1195,1213,1233,1253,1273,1296,1313,1333,1353,1373],"xSR":350,"ySR":768,"xT1":30,"yT1":0,"xT2":670,"yT2":0,"toosoon":0,"cond_shown":"randomdotsize","ratio_trial":250,"smaller_num":"3","larger_num":"12","correct_side":1,"subjID":"410wm","gender":"No_gender","age":"No_age","school":"No_school"},{"start_time":1549382371269,"click_time":1549382372577,"finger_time":1549382372258,"fix_duration":1390.5117028016998,"trial":25,"RT":989,"MT":319,"sideResp":2,"stimulus":"img/750/randomdotsizeEA/R/7_Ratio_750_L_3_R_4.png","xmouse":[414,414,414,414,414,414,414,414,414,414,409.3330078125,409.3330078125,408.6669921875,408.6669921875,408.6669921875,408.6669921875,408.6669921875,408.6669921875,408.6669921875,409.3330078125,409.3330078125,409.3330078125,409.3330078125,408.6669921875,408.6669921875,408.6669921875,408.6669921875,408.6669921875,408.6669921875,408.6669921875,408.6669921875,408.6669921875,408,408.6669921875,408,407.3330078125,406,406,406,406,406,406,406,406,406,408,409.3330078125,412,414,425.3330078125,437.3330078125,450,456.6669921875,474.6669921875,508,518.6669921875,542.6669921875,554.6669921875,584.6669921875,628.6669921875,640.6669921875,658,665.3330078125,679.3330078125,695.3330078125,700],"ymouse":[836,836,836,836,836,836,836,836,836,836,829.3330078125,829.3330078125,829.3330078125,829.3330078125,829.3330078125,829.3330078125,829.3330078125,829.3330078125,829.3330078125,828.6669921875,828.6669921875,828.6669921875,828.6669921875,828.6669921875,829.3330078125,829.3330078125,829.3330078125,829.3330078125,829.3330078125,829.3330078125,829.3330078125,829.3330078125,828,827.3330078125,825,825.3330078125,824,822,822,820,819,819,818,817,814,808,805.3330078125,795,788,748.6669921875,708.6669921875,666,643.3330078125,593.3330078125,522,499.3330078125,452.6669921875,430.6669921875,380.6669921875,304.6669921875,280.6669921875,234,211.33299255371094,169.33299255371094,114.6669921875,98],"timestamp_mouse":[8,46,48,69,88,108,128,148,168,188,208,228,248,268,289,308,329,348,369,388,408,428,448,469,488,508,528,548,569,588,608,628,648,668,688,708,728,748,768,788,808,828,848,868,888,908,928,948,968,989,1009,1031,1048,1068,1091,1108,1128,1148,1168,1190,1209,1228,1248,1268,1291,1308],"xSR":350,"ySR":768,"xT1":30,"yT1":0,"xT2":670,"yT2":0,"toosoon":0,"cond_shown":"randomdotsizeEA","ratio_trial":750,"smaller_num":"3","larger_num":"4","correct_side":2,"subjID":"410wm","gender":"No_gender","age":"No_age","school":"No_school"},{"start_time":1549382374455,"click_time":1549382375482,"finger_time":1549382375098,"fix_duration":896.0347797628813,"trial":26,"RT":643,"MT":384,"sideResp":2,"stimulus":"img/250/randomdotsize/R/4_Ratio_250_L_3_R_12.png","xmouse":[364.6669921875,364.6669921875,364.6669921875,364.6669921875,364.6669921875,364.6669921875,364.6669921875,364.6669921875,364.6669921875,364.6669921875,364.6669921875,364.6669921875,364.6669921875,364.6669921875,364.6669921875,364,364,364,364,364,364,364,364,364,364,366,366,366,366,366,371.3330078125,385,394,413,422.6669921875,474.6669921875,490,519,533.3330078125,556,594,607,633.3330078125,645.3330078125,662.6669921875,678,681,687,689.3330078125,696,704],"ymouse":[816.6669921875,816.6669921875,816.6669921875,816.6669921875,816.6669921875,815.3330078125,815.3330078125,815.3330078125,815.3330078125,815.3330078125,815.3330078125,815.3330078125,815.3330078125,815.3330078125,815.3330078125,814,814,814,814,814,814,814,814,814,814,814,814,814,814,814,795.3330078125,762,738,690,666.6669921875,559.3330078125,531,478,453.3330078125,408,340,318,271.3330078125,249.3330078125,208.66700744628906,160,148,128,117.3330078125,102,86],"timestamp_mouse":[11,43,62,82,102,126,142,162,182,202,222,242,262,282,302,325,342,362,382,403,423,442,462,482,502,523,542,562,582,602,623,643,662,682,702,724,744,762,782,802,823,842,862,882,902,928,942,962,982,1002,1026],"xSR":350,"ySR":768,"xT1":30,"yT1":0,"xT2":670,"yT2":0,"toosoon":0,"cond_shown":"randomdotsize","ratio_trial":250,"smaller_num":"3","larger_num":"12","correct_side":2,"subjID":"410wm","gender":"No_gender","age":"No_age","school":"No_school"},{"start_time":1549382377003,"click_time":1549382378600,"finger_time":1549382378219,"fix_duration":504.92071032780603,"trial":27,"RT":1216,"MT":381,"sideResp":2,"stimulus":"img/900/randomdotsize/R/3_Ratio_900_L_9_R_10.png","xmouse":[376,376,376,377,377.3330078125,377.3330078125,378,378,378,378.6669921875,378.6669921875,378.6669921875,378,379,379,379,379,379.3330078125,379.3330078125,379.3330078125,379.3330078125,379.3330078125,379.3330078125,379.3330078125,379.3330078125,379,379,379.3330078125,379.3330078125,379.3330078125,379.3330078125,379.3330078125,379.3330078125,379.3330078125,378.6669921875,378.6669921875,378.6669921875,378.6669921875,378.6669921875,378.6669921875,378.6669921875,378.6669921875,378.6669921875,378.6669921875,378.6669921875,378,378,378,378,378,378,378,378,378,378,377.3330078125,377.3330078125,377.3330078125,377.3330078125,377.3330078125,392,399.3330078125,414,421.3330078125,443.3330078125,456,467,474.6669921875,489.3330078125,520,532,561.3330078125,575.3330078125,600,632,646,673.3330078125,685.3330078125,708,731],"ymouse":[816,816,816,816,816.6669921875,816.6669921875,817,817,817,817.3330078125,817.3330078125,817.3330078125,818,818,818,818,818,818.6669921875,818.6669921875,818.6669921875,818.6669921875,818.6669921875,818.6669921875,818.6669921875,818.6669921875,818,818,817.3330078125,817.3330078125,816.6669921875,816.6669921875,816.6669921875,816.6669921875,816.6669921875,816.6669921875,816.6669921875,816.6669921875,816.6669921875,816.6669921875,816.6669921875,816.6669921875,816.6669921875,816.6669921875,816.6669921875,816.6669921875,812,812,812,812,812,812,812,812,812,812,811.3330078125,811.3330078125,811.3330078125,811.3330078125,811.3330078125,749,731.3330078125,695,677.3330078125,622.6669921875,586,548,529.3330078125,486.6669921875,414,390,339.3330078125,315.3330078125,270,212,192,152.66700744628906,134.66700744628906,100,56],"timestamp_mouse":[19,53,54,74,94,115,134,154,175,194,233,237,254,274,294,314,334,354,374,394,414,434,454,474,494,514,534,554,574,594,614,634,654,674,694,714,734,755,775,794,814,834,854,874,894,914,934,954,974,994,1014,1034,1054,1074,1094,1118,1134,1154,1174,1194,1216,1234,1255,1274,1296,1315,1334,1354,1374,1395,1415,1434,1454,1474,1496,1514,1534,1554,1574,1596],"xSR":350,"ySR":768,"xT1":30,"yT1":0,"xT2":670,"yT2":0,"toosoon":0,"cond_shown":"randomdotsize","ratio_trial":900,"smaller_num":"9","larger_num":"10","correct_side":2,"subjID":"410wm","gender":"No_gender","age":"No_age","school":"No_school"},{"start_time":1549382381044,"click_time":1549382382177,"finger_time":1549382381837,"fix_duration":844.2672960742334,"trial":28,"RT":793,"MT":340,"sideResp":1,"stimulus":"img/250/equaldotanddens/L/14_Ratio_250_L_12_R_3.png","xmouse":[394,394,394,394,401,401,401,401,401.3330078125,401.3330078125,401.3330078125,402,402,402,402,402.6669921875,402,402,402.6669921875,402.6669921875,402.6669921875,402.6669921875,402.6669921875,403.3330078125,403.3330078125,403.3330078125,403.3330078125,403.3330078125,403.3330078125,403.3330078125,402.6669921875,402,402,402,402,402,402,376,376,342,328,322.6669921875,312.6669921875,295,284,278,264,256.6669921875,232,218,210.66700744628906,196.66700744628906,188.66700744628906,171.33299255371094,144.66700744628906,136,120],"ymouse":[832,832,832,832,836,836,836,836,836.6669921875,836.6669921875,837.3330078125,837,837,837,837,837.3330078125,838,838,838.6669921875,838.6669921875,838.6669921875,839.3330078125,839.3330078125,839.3330078125,839.3330078125,838.6669921875,838.6669921875,838.6669921875,838.6669921875,838.6669921875,838.6669921875,838,838,838,838,838,838,802,802,741,710,692.6669921875,653.3330078125,588,538,513,460,432.6669921875,354,300,274.6669921875,227.33299255371094,204.66700744628906,165.33299255371094,114.6669921875,98,72],"timestamp_mouse":[15,51,53,73,93,113,133,153,173,193,213,233,253,275,293,313,333,353,376,393,413,433,453,473,493,513,533,553,573,594,613,633,653,675,693,713,733,753,774,793,814,834,853,875,894,913,933,953,976,994,1012,1033,1053,1074,1094,1113,1133],"xSR":350,"ySR":768,"xT1":30,"yT1":0,"xT2":670,"yT2":0,"toosoon":0,"cond_shown":"equaldotanddens","ratio_trial":250,"smaller_num":"3","larger_num":"12","correct_side":1,"subjID":"410wm","gender":"No_gender","age":"No_age","school":"No_school"},{"start_time":1549382384877,"click_time":1549382386218,"finger_time":1549382385877,"fix_duration":1157.031218459016,"trial":29,"RT":1000,"MT":341,"sideResp":1,"stimulus":"img/750/equaldotsize/L/9_Ratio_750_L_4_R_3.png","xmouse":[422,422,422,422,422,422,422,422,422,422,422,421.3330078125,421.3330078125,421.3330078125,421.3330078125,421.3330078125,421.3330078125,421.3330078125,421.3330078125,421.3330078125,421.3330078125,421.3330078125,421.3330078125,421.3330078125,421.3330078125,422,422,422,422,422,422,422,422,422,422,422.6669921875,422.6669921875,422.6669921875,422.6669921875,422,422,422,422,422,422,416,416,406,402,402,374,368.6669921875,356,350,330.6669921875,313.3330078125,294,284,251,230,219,198,188.66700744628906,170,146,139.33299255371094,126,120],"ymouse":[839,839,839,839,839,839,838,838,838,838,838,837.3330078125,837.3330078125,837.3330078125,837.3330078125,836.6669921875,836.6669921875,836.6669921875,836.6669921875,836.6669921875,836.6669921875,836.6669921875,836.6669921875,836.6669921875,836.6669921875,837,837,837,837,837,837,837,837,837,837,837.3330078125,837.3330078125,837.3330078125,836.6669921875,836,836,836,836,836,836,826,826,811,799,799,721,705.3330078125,668,647,576.6669921875,526.6669921875,480,457,382,336,312,266,244.6669921875,204,150,133.33299255371094,102,89],"timestamp_mouse":[7,37,40,60,80,100,120,140,162,180,200,220,240,261,280,300,320,340,360,380,400,420,440,461,480,500,520,540,561,580,600,620,640,661,680,700,720,740,760,780,800,820,840,860,882,904,920,940,961,980,1000,1020,1040,1060,1081,1100,1120,1140,1164,1182,1200,1220,1240,1260,1281,1300,1320,1341],"xSR":350,"ySR":768,"xT1":30,"yT1":0,"xT2":670,"yT2":0,"toosoon":0,"cond_shown":"equaldotsize","ratio_trial":750,"smaller_num":"3","larger_num":"4","correct_side":1,"subjID":"410wm","gender":"No_gender","age":"No_age","school":"No_school"},{"start_time":1549382387794,"click_time":1549382388998,"finger_time":1549382388637,"fix_duration":547.4914822949221,"trial":30,"RT":843,"MT":361,"sideResp":1,"stimulus":"img/500/equaldotsize/L/5_Ratio_500_L_4_R_2.png","xmouse":[404,404,404,404,404,404,404,405.3330078125,405.3330078125,405.3330078125,405.3330078125,405.3330078125,405.3330078125,405.3330078125,405.3330078125,405.3330078125,405.3330078125,406,406,406,406,406,406,406,406,406,406,406,406,406,406,406,406,406,406,406,406,400.6669921875,400,400.6669921875,400.6669921875,396,390.6669921875,365,358,341,332,304,281.3330078125,270,246,232,206,170.66700744628906,158,137.33299255371094,126.66699981689453,107.33300018310547,81.33300018310547,72.66699981689453],"ymouse":[818,818,818,818,818,818,818,817.3330078125,817.3330078125,817.3330078125,817.3330078125,817.3330078125,817.3330078125,817.3330078125,817.3330078125,817.3330078125,817.3330078125,817,817,817,817,817,817,817,817,817,817,817,816,816,816,816,816,816,816,816,816,794.6669921875,790,779.3330078125,770.6669921875,745,728.6669921875,664,648,616,596,532,484.6669921875,464,418,395,348,280.6669921875,258,214.66700744628906,194.66700744628906,156.66700744628906,106.66699981689453,91.33300018310547],"timestamp_mouse":[17,55,63,83,103,123,143,167,183,203,224,243,263,283,303,323,344,366,383,403,423,443,463,483,503,523,543,563,583,604,623,643,663,683,703,723,743,766,784,802,823,843,863,885,903,923,943,967,985,1003,1023,1044,1064,1085,1103,1123,1143,1163,1185,1204],"xSR":350,"ySR":768,"xT1":30,"yT1":0,"xT2":670,"yT2":0,"toosoon":0,"cond_shown":"equaldotsize","ratio_trial":500,"smaller_num":"2","larger_num":"4","correct_side":1,"subjID":"410wm","gender":"No_gender","age":"No_age","school":"No_school"},{"start_time":1549382390434,"click_time":1549382391678,"finger_time":1549382391080,"fix_duration":250,"trial":31,"RT":646,"MT":598,"sideResp":1,"stimulus":"img/500/equaldotsize/L/8_Ratio_500_L_8_R_4.png","xmouse":[413,413,412.6669921875,412.6669921875,412.6669921875,412.6669921875,412,412,412,412,412,412,412,412.6669921875,412.6669921875,412.6669921875,412.6669921875,412.6669921875,413.3330078125,413.3330078125,413.3330078125,413.3330078125,414,414,414,414,414,414,414,414,414,420.6669921875,424,430,432,438,439.3330078125,442.6669921875,444.6669921875,444.6669921875,444.6669921875,444.6669921875,440,438,432.6669921875,428.6669921875,417,392,381.3330078125,358,346.6669921875,320,281.3330078125,268.6669921875,242.66700744628906,230,205,170,158.66700744628906,135.33299255371094,124,106],"ymouse":[790,790,790.6669921875,791.3330078125,791.3330078125,791.3330078125,791,792,792,792,792,792,792,792.6669921875,792.6669921875,792.6669921875,793.3330078125,793.3330078125,793.3330078125,793.3330078125,793.3330078125,792.6669921875,792,792,792,792,792,792,792,792,792,751.3330078125,742,725,716,698,690.6669921875,671.3330078125,658.6669921875,653.3330078125,644.6669921875,641.3330078125,630,626,618.6669921875,612.6669921875,598,562,545.3330078125,510,492.6669921875,456,394.6669921875,373.3330078125,329.3330078125,307,264,204,184.66700744628906,148.66700744628906,132,99],"timestamp_mouse":[3,44,63,82,103,123,143,163,183,203,223,243,263,284,302,323,343,363,383,403,423,443,464,484,503,523,543,564,583,603,623,646,664,684,703,723,743,763,783,803,823,843,865,883,904,923,944,965,983,1003,1024,1043,1066,1083,1103,1123,1144,1164,1183,1203,1223,1244],"xSR":350,"ySR":768,"xT1":30,"yT1":0,"xT2":670,"yT2":0,"toosoon":0,"cond_shown":"equaldotsize","ratio_trial":500,"smaller_num":"4","larger_num":"8","correct_side":1,"subjID":"410wm","gender":"No_gender","age":"No_age","school":"No_school"},{"start_time":1549382392979,"click_time":1549382393978,"finger_time":1549382393657,"fix_duration":278.48312375394937,"trial":32,"RT":678,"MT":321,"sideResp":2,"stimulus":"img/500/equaldotanddens/R/3_Ratio_500_L_10_R_20.png","xmouse":[408,408,408,408,408,409.3330078125,409.3330078125,409.3330078125,409.3330078125,409.3330078125,409.3330078125,409.3330078125,409.3330078125,409.3330078125,409,409,409,409,409,409,409,409,409,409,410.6669921875,410.6669921875,410.6669921875,410.6669921875,410.6669921875,410.6669921875,410.6669921875,429,448,456,480,498,508.6669921875,529.3330078125,540.6669921875,567,583,591.3330078125,609,618,636,661.3330078125,676.6669921875,684,695],"ymouse":[833,833,833,833,833,833.3330078125,833.3330078125,833.3330078125,833.3330078125,833.3330078125,833.3330078125,833.3330078125,833.3330078125,833.3330078125,834,834,834,834,834,834,834,834,834,834,833.3330078125,833.3330078125,833.3330078125,833.3330078125,833.3330078125,833.3330078125,833.3330078125,772,726,704,639,594,570.6669921875,521.3330078125,497.3330078125,430,382,357.3330078125,310,286,238,173.33299255371094,134.66700744628906,117,88],"timestamp_mouse":[42,58,78,98,118,138,158,178,198,218,238,258,278,298,320,338,358,378,399,418,438,459,478,498,524,537,558,579,598,618,638,658,678,698,721,739,759,778,798,821,838,858,878,898,918,940,958,979,998],"xSR":350,"ySR":768,"xT1":30,"yT1":0,"xT2":670,"yT2":0,"toosoon":0,"cond_shown":"equaldotanddens","ratio_trial":500,"smaller_num":"10","larger_num":"20","correct_side":2,"subjID":"410wm","gender":"No_gender","age":"No_age","school":"No_school"},{"start_time":1549382395783,"click_time":1549382397058,"finger_time":1549382396677,"fix_duration":376.61905031269384,"trial":33,"RT":894,"MT":381,"sideResp":2,"stimulus":"img/250/equaldotanddens/R/13_Ratio_250_L_2_R_8.png","xmouse":[407,407,407,407,407,407,407,407,407,407,407,407,407,407,407,407,407,407,407,407,407,407,407,407,407,407,407,407,407,407,407,407,407,407,407,407,407,407,405,405,408,408,424.6669921875,428,440,445.3330078125,457,478,496,506.6669921875,531.3330078125,546,590,616.6669921875,628,644,650.6669921875,663.3330078125,670.6669921875,676,685.3330078125,693.3330078125,704,712],"ymouse":[839,839,839,839,839,839,839,839,839,839,839,839,839,839,839,839,839,839,839,839,839,839,839,839,839,839,839,839,839,839,839,839,839,839,839,839,839,839,830,830,822,822,783.3330078125,770,734,714.6669921875,676,612,566,542.6669921875,492.6669921875,464,387,337.3330078125,312,268,247.3330078125,199.33299255371094,172.66700744628906,160,138.66700744628906,119.3330078125,100,84],"timestamp_mouse":[3,41,59,74,94,114,134,154,174,194,214,234,254,274,294,314,334,354,374,394,415,434,454,474,494,514,534,554,574,595,615,634,654,674,694,714,735,754,778,794,814,834,854,874,894,914,934,954,975,994,1014,1034,1054,1074,1094,1114,1134,1157,1175,1194,1214,1234,1254,1274],"xSR":350,"ySR":768,"xT1":30,"yT1":0,"xT2":670,"yT2":0,"toosoon":0,"cond_shown":"equaldotanddens","ratio_trial":250,"smaller_num":"2","larger_num":"8","correct_side":2,"subjID":"410wm","gender":"No_gender","age":"No_age","school":"No_school"},{"start_time":1549382399737,"click_time":1549382400961,"finger_time":1549382400560,"fix_duration":1457.7555828860166,"trial":34,"RT":823,"MT":401,"sideResp":1,"stimulus":"img/900/equaldotanddens/L/4_Ratio_900_L_20_R_18.png","xmouse":[382,382,382,382,382,382,382,382,381,381,381,381,381,381,381,381,381,381,381,381,381,381,381,381,381,381,381,380.6669921875,380,380,378,378,377.3330078125,375.3330078125,374,371.3330078125,371.3330078125,367,367,354.6669921875,343.3330078125,338.6669921875,329,325.3330078125,314,291.3330078125,284,268,260,241.33299255371094,213,204.66700744628906,186.66700744628906,178,161,138.66700744628906,131.33299255371094,118.66699981689453,113.33300018310547,102,90],"ymouse":[842,842,842,842,842,842,842,842,842,842,842,842,842,842,842,842,842,842,840,840,840,840,840,840,840,840,840,836.6669921875,834,834,832,831,830.6669921875,829.3330078125,828,820.6669921875,820.6669921875,808,808,778.6669921875,752.6669921875,743.3330078125,724,714.6669921875,692,645.3330078125,630,598,581,543.3330078125,482,460.6669921875,416.6669921875,394,348,276.6669921875,253.3330078125,205.33299255371094,182.66700744628906,140,81],"timestamp_mouse":[8,44,60,80,99,120,140,160,180,200,220,240,260,280,300,320,340,361,380,401,420,440,460,480,500,520,540,560,580,600,622,640,660,680,701,721,740,760,780,800,823,841,860,880,901,921,940,960,980,1000,1021,1040,1060,1081,1100,1124,1140,1160,1180,1200,1224],"xSR":350,"ySR":768,"xT1":30,"yT1":0,"xT2":670,"yT2":0,"toosoon":0,"cond_shown":"equaldotanddens","ratio_trial":900,"smaller_num":"18","larger_num":"20","correct_side":1,"subjID":"410wm","gender":"No_gender","age":"No_age","school":"No_school"},{"start_time":1549382403265,"click_time":1549382404577,"finger_time":1549382404180,"fix_duration":966.1935367459655,"trial":35,"RT":915,"MT":397,"sideResp":2,"stimulus":"img/250/equaldotsize/R/9_Ratio_250_L_3_R_12.png","xmouse":[404,404,404,404,404,404,404,404,404.6669921875,404.6669921875,404.6669921875,404.6669921875,404.6669921875,404.6669921875,404.6669921875,404.6669921875,404.6669921875,404.6669921875,405.3330078125,405.3330078125,405.3330078125,405.3330078125,405.3330078125,405.3330078125,405.3330078125,405.3330078125,405.3330078125,405.3330078125,405.3330078125,405.3330078125,405.3330078125,405.3330078125,406,406,406,406,406,406,406,406,406,406,406,406,426,435.3330078125,451.3330078125,457.3330078125,468,486,496,503.3330078125,518,527.3330078125,554.6669921875,574,584,607.3330078125,619.3330078125,643.3330078125,670.6669921875,679,692,698,710],"ymouse":[810,810,810,810,810,810,810,810,810.6669921875,810.6669921875,810.6669921875,810.6669921875,810.6669921875,810.6669921875,810.6669921875,810.6669921875,810.6669921875,810.6669921875,810.6669921875,810.6669921875,810.6669921875,810.6669921875,810.6669921875,810.6669921875,810.6669921875,810.6669921875,810.6669921875,810.6669921875,810.6669921875,810.6669921875,810.6669921875,810.6669921875,810,810,810,810,810,810,810,810,810,810,800,800,761,745.3330078125,713.3330078125,698.6669921875,668,620,588,570.6669921875,534,512.6669921875,450.6669921875,406,381,330.6669921875,304.6669921875,252.6669921875,184.66700744628906,164,126,110,79],"timestamp_mouse":[19,53,72,93,112,132,152,172,192,212,232,252,272,292,312,332,352,372,392,412,432,452,472,492,512,532,552,573,592,612,632,652,672,692,722,732,752,772,792,813,833,852,872,892,915,933,952,972,993,1014,1035,1052,1072,1092,1113,1132,1152,1172,1192,1212,1232,1252,1272,1292,1312],"xSR":350,"ySR":768,"xT1":30,"yT1":0,"xT2":670,"yT2":0,"toosoon":0,"cond_shown":"equaldotsize","ratio_trial":250,"smaller_num":"3","larger_num":"12","correct_side":2,"subjID":"410wm","gender":"No_gender","age":"No_age","school":"No_school"},{"start_time":1549382406242,"click_time":1549382408319,"finger_time":1549382407937,"fix_duration":643.7283317067573,"trial":36,"RT":1695,"MT":382,"sideResp":1,"stimulus":"img/750/equaldotanddens/L/1_Ratio_750_L_20_R_15.png","xmouse":[410,410,410,410,410,410,410,410,410,410,410,410,410,410,410,410,410,410,410,410,410,410,410,410,410,410,410,410,410,410,410,410,410,410,410,410.6669921875,410.6669921875,410.6669921875,410.6669921875,410.6669921875,410.6669921875,410.6669921875,410.6669921875,410.6669921875,410.6669921875,410,410,410,410,410,410,410,410,410,410,410,410,410,410,410,410,410,410,410,410,410.6669921875,410.6669921875,410.6669921875,410.6669921875,410.6669921875,410.6669921875,410.6669921875,410.6669921875,410.6669921875,410.6669921875,410,410,410,410,410,410,410,422,422,424,423,418,418,396,363.3330078125,339,324.6669921875,281.3330078125,254.6669921875,238.66700744628906,208.66700744628906,194.66700744628906,154,133,124.6669921875,108,100.66699981689453,82,70],"ymouse":[838,838,838,838,838,839,839,839,839,839,839,839,839,839,839,839,839,839,839,839,839,839,839,839,839,838,838,838,838,838,838,838,838,838,838,836.6669921875,836.6669921875,836.6669921875,836.6669921875,836.6669921875,836.6669921875,836.6669921875,836.6669921875,836.6669921875,836.6669921875,836,836,836,836,836,836,836,836,836,836,836,836,836,836,836,836,836,836,836,836,836.6669921875,836.6669921875,836.6669921875,836.6669921875,836.6669921875,836.6669921875,836.6669921875,836.6669921875,834.6669921875,833.3330078125,832,830,830,830,830,830,830,777,772,758,748,718,718,660,603.3330078125,566,545.3330078125,480.6669921875,437.3330078125,414.6669921875,373.3330078125,352.6669921875,286,238,215.33299255371094,172,151.33299255371094,100,72],"timestamp_mouse":[15,48,55,75,95,115,135,155,175,195,215,235,255,275,295,316,336,355,375,395,415,436,455,475,495,515,535,555,575,595,615,635,656,675,695,715,735,755,775,795,815,835,855,875,895,915,935,955,975,995,1015,1035,1055,1075,1095,1115,1135,1155,1175,1195,1215,1235,1255,1274,1295,1315,1335,1355,1375,1395,1415,1435,1455,1475,1495,1515,1535,1555,1578,1595,1615,1635,1660,1675,1695,1715,1735,1756,1775,1796,1815,1835,1861,1877,1895,1915,1935,1957,1976,1995,2016,2035,2058,2077],"xSR":350,"ySR":768,"xT1":30,"yT1":0,"xT2":670,"yT2":0,"toosoon":0,"cond_shown":"equaldotanddens","ratio_trial":750,"smaller_num":"15","larger_num":"20","correct_side":1,"subjID":"410wm","gender":"No_gender","age":"No_age","school":"No_school"},{"start_time":1549382411167,"click_time":1549382412398,"finger_time":1549382412077,"fix_duration":1386.6033353688156,"trial":37,"RT":910,"MT":321,"sideResp":1,"stimulus":"img/500/randomdotsize/L/5_Ratio_500_L_4_R_2.png","xmouse":[413,413,413,413,413,413,413,413,413,413,413,413,413,413,413,413,413,413,413,413,413,413,413,413,413,413,413,413,413,413,413,413,413,413,413,413,413,413,413,413,413,408,406.6669921875,406.6669921875,406.6669921875,376,368,351,325.3330078125,315,293,281.3330078125,256.6669921875,220.66700744628906,208.66700744628906,185,165.33299255371094,155.33299255371094,129.33299255371094,115.33300018310547,109,96],"ymouse":[822,822,822,822,822,822,822,822,822,822,822,822,822,822,822,822,822,822,822,822,822,822,822,822,822,822,822,822,822,822,822,822,822,822,822,822,822,822,822,822,822,814,811.3330078125,811.3330078125,811.3330078125,758,742,712,658.6669921875,638,588,561.3330078125,505.3330078125,420.6669921875,392.6669921875,336,279.3330078125,253.3330078125,180.66700744628906,140.66700744628906,122,91],"timestamp_mouse":[10,43,50,70,90,110,130,150,170,190,211,230,250,270,290,310,330,350,370,391,410,430,450,471,490,510,530,550,570,591,610,630,650,670,690,710,730,750,770,790,811,831,850,870,890,910,930,950,971,990,1010,1030,1050,1071,1090,1110,1131,1150,1171,1191,1210,1230],"xSR":350,"ySR":768,"xT1":30,"yT1":0,"xT2":670,"yT2":0,"toosoon":0,"cond_shown":"randomdotsize","ratio_trial":500,"smaller_num":"2","larger_num":"4","correct_side":1,"subjID":"410wm","gender":"No_gender","age":"No_age","school":"No_school"},{"start_time":1549382414698,"click_time":1549382416299,"finger_time":1549382415559,"fix_duration":939.9788722996535,"trial":38,"RT":861,"MT":740,"sideResp":2,"stimulus":"img/900/randomdotsizeEA/L/4_Ratio_900_L_20_R_18.png","xmouse":[391,391,391.3330078125,391.3330078125,391.3330078125,391.3330078125,391.3330078125,391.3330078125,391.3330078125,391.3330078125,391.3330078125,391.3330078125,391.3330078125,391.3330078125,391.3330078125,391.3330078125,391.3330078125,391.3330078125,391.3330078125,391.3330078125,391.3330078125,391.3330078125,391.3330078125,391.3330078125,391.3330078125,391.3330078125,391,391,391,391,391,391,391,391,391,391,389.3330078125,389.3330078125,391.3330078125,392,395,397.3330078125,402,418.6669921875,432,437.3330078125,448,454.6669921875,471,481.3330078125,486.6669921875,494.6669921875,497,498,491,486,477.3330078125,472,464.6669921875,455.3330078125,453.3330078125,452,453,457,469,482,490,506,515,524.6669921875,531.3330078125,531.3330078125,531.3330078125,542,542,542,542,542,542,542,686.6669921875],"ymouse":[844,844,843.3330078125,843.3330078125,843.3330078125,843.3330078125,843.3330078125,843.3330078125,843.3330078125,843.3330078125,843.3330078125,843.3330078125,843.3330078125,842.6669921875,842.6669921875,842.6669921875,842.6669921875,842.6669921875,842.6669921875,842.6669921875,842.6669921875,842.6669921875,842.6669921875,842.6669921875,842.6669921875,842.6669921875,842,842,842,842,842,842,842,842,842,842,832.6669921875,832.6669921875,821.3330078125,818,806,798.6669921875,780,730.6669921875,692,672.6669921875,632,611.3330078125,552,517.3330078125,499.3330078125,467.3330078125,452,410,388,376,352.6669921875,340,315.3330078125,278.6669921875,265.3330078125,238,224,196,158,136,129,114,110,106.66699981689453,106.66699981689453,106.66699981689453,106.66699981689453,111,111,111,111,111,111,111,89.33300018310547],"timestamp_mouse":[2,20,56,59,78,99,119,139,159,179,199,219,239,261,279,299,319,340,359,379,400,420,439,459,479,499,519,539,559,580,599,619,639,659,680,699,719,739,761,778,799,819,839,861,881,899,919,939,962,980,999,1019,1039,1061,1079,1099,1120,1139,1159,1179,1200,1219,1239,1259,1279,1299,1319,1339,1358,1381,1401,1419,1439,1459,1480,1499,1519,1539,1559,1582,1600],"xSR":350,"ySR":768,"xT1":30,"yT1":0,"xT2":670,"yT2":0,"toosoon":0,"cond_shown":"randomdotsizeEA","ratio_trial":900,"smaller_num":"18","larger_num":"20","correct_side":1,"subjID":"410wm","gender":"No_gender","age":"No_age","school":"No_school"},{"start_time":1549382419042,"click_time":1549382420297,"finger_time":1549382419977,"fix_duration":1240.1987495995565,"trial":39,"RT":935,"MT":320,"sideResp":1,"stimulus":"img/500/randomdotsizeEA/L/7_Ratio_500_L_10_R_5.png","xmouse":[386,386,385.3330078125,385.3330078125,384.6669921875,384.6669921875,384.6669921875,384,384,384,384,384,384,384,384,384,384,384,384,384,384,384,384,384,384,384,384,380.6669921875,380,380,380,379,379.3330078125,378,378.6669921875,378,377,375.3330078125,374,372,371,368,363,361,356,352,339.3330078125,314.6669921875,306.6669921875,290.6669921875,282,266,236.66700744628906,225,204.66700744628906,196,175.33299255371094,147.33299255371094,138,122,115.33300018310547,101,86],"ymouse":[834,833,832.6669921875,832.6669921875,832.6669921875,832.6669921875,832.6669921875,833,833,833,833,833,833,833,833,833,833,834,834,834,834,834,834,834,834,834,834,830.6669921875,830,829,828,828,827.3330078125,826,825.3330078125,824,824,821.3330078125,818,814,812,806,796,792,781,773,746.6669921875,691.3330078125,670.6669921875,624.6669921875,599,544,459.3330078125,432,378.6669921875,354,300.6669921875,225.33299255371094,202,158,138.66700744628906,102,56],"timestamp_mouse":[15,42,55,75,95,115,135,157,175,195,215,236,255,275,295,315,336,355,375,396,415,436,456,475,495,515,535,555,575,595,615,635,655,675,695,715,735,756,775,795,816,835,863,876,896,915,935,957,975,995,1015,1036,1057,1076,1095,1115,1136,1158,1175,1195,1215,1235,1255],"xSR":350,"ySR":768,"xT1":30,"yT1":0,"xT2":670,"yT2":0,"toosoon":0,"cond_shown":"randomdotsizeEA","ratio_trial":500,"smaller_num":"5","larger_num":"10","correct_side":1,"subjID":"410wm","gender":"No_gender","age":"No_age","school":"No_school"},{"start_time":1549382422502,"click_time":1549382423859,"finger_time":1549382423537,"fix_duration":881.9084653829191,"trial":40,"RT":1035,"MT":322,"sideResp":2,"stimulus":"img/900/randomdotsize/L/10_Ratio_900_L_20_R_18.png","xmouse":[410,410,410,410,410,410,410,410,410,410,410,410,410,410,410,410,410,410,410,410,410,410,410,410,410,410,410,410,410,410,410,410,410,410,410,410,410,410,410,410,410,410,410,410,410,410.6669921875,410.6669921875,410.6669921875,410.6669921875,410.6669921875,410.6669921875,442.6669921875,451.3330078125,470,480,515.3330078125,542,558,593.3330078125,612.6669921875,670,679.3330078125,692,698.6669921875,711.3330078125,725.3330078125,728.6669921875,732],"ymouse":[824,824,824,824,824,826,826,826,826,826,826,826,826,826,826,828,828,828,828,828,828,828,828,828,828,827,827,827,827,827,827,827,827,827,827,828,828,828,828,828,828,828,828,828,828,824.6669921875,824.6669921875,824.6669921875,824.6669921875,824.6669921875,824.6669921875,737.3330078125,717.3330078125,676,652,578.6669921875,522,494,434.6669921875,402.6669921875,294,269.3330078125,226,204.66700744628906,164.66700744628906,115.3330078125,102.66699981689453,84],"timestamp_mouse":[15,46,55,75,95,115,135,154,175,195,215,235,255,275,295,315,335,355,375,395,415,435,455,475,495,515,535,555,575,595,616,636,655,675,694,715,735,755,775,795,816,835,855,875,895,915,936,955,975,995,1015,1035,1055,1076,1095,1115,1135,1155,1175,1195,1218,1235,1255,1275,1295,1316,1337,1357],"xSR":350,"ySR":768,"xT1":30,"yT1":0,"xT2":670,"yT2":0,"toosoon":0,"cond_shown":"randomdotsize","ratio_trial":900,"smaller_num":"18","larger_num":"20","correct_side":1,"subjID":"410wm","gender":"No_gender","age":"No_age","school":"No_school"},{"start_time":1549382426883,"click_time":1549382428777,"finger_time":1549382428357,"fix_duration":1343.3008587544066,"trial":41,"RT":1474,"MT":420,"sideResp":1,"stimulus":"img/900/randomdotsizeEA/R/3_Ratio_900_L_9_R_10.png","xmouse":[382,382,382,382,382,382,382,382,382,382,382,382,382,382,382,382,382,382,382,382,382,382,382,382,382,382,382,382,382,382,382,382,382,382,382,382,382,382,382,382,382,382,382,382,382,382,382,382,382,382,382,382,382,382,382,382,382,382,382,382,382,382,382,384.6669921875,384.6669921875,384.6669921875,384,384,384,384,384,384,371.3330078125,357.3330078125,351,337.3330078125,330.6669921875,316,292.6669921875,278,272,258,250,224,206.66700744628906,198,181.33299255371094,172,149.33299255371094,136,128.66700744628906,116,104,93,84],"ymouse":[826,826,826,826,826,826,826,826,826,826,826,826,826,826,826,826,826,826,826,826,826,826,826,826,826,826,826,826,826,826,826,826,826,826,826,826,826,826,826,826,826,826,826,826,826,826,826,826,826,826,826,826,826,826,826,826,826,826,826,826,826,826,826,818.6669921875,818.6669921875,818.6669921875,818,818,818,818,818,818,793.3330078125,759.3330078125,744,713.3330078125,698.6669921875,667,615.3330078125,574,551,508,484,422,380.6669921875,360,321.3330078125,302,246.6669921875,211,195.33299255371094,164,136,110,88],"timestamp_mouse":[15,50,54,74,94,114,134,154,174,194,214,234,254,274,294,314,334,354,374,394,414,434,455,474,494,515,534,554,574,594,614,634,654,674,694,714,734,754,774,794,814,834,855,874,894,914,935,954,974,994,1015,1035,1054,1074,1094,1115,1134,1154,1174,1194,1215,1234,1254,1279,1295,1314,1334,1354,1374,1394,1415,1435,1454,1474,1494,1514,1534,1554,1574,1594,1614,1634,1654,1674,1694,1714,1734,1754,1778,1794,1814,1834,1854,1877,1894],"xSR":350,"ySR":768,"xT1":30,"yT1":0,"xT2":670,"yT2":0,"toosoon":0,"cond_shown":"randomdotsizeEA","ratio_trial":900,"smaller_num":"9","larger_num":"10","correct_side":2,"subjID":"410wm","gender":"No_gender","age":"No_age","school":"No_school"},{"start_time":1549382431046,"click_time":1549382432397,"finger_time":1549382431957,"fix_duration":824.752583487049,"trial":42,"RT":911,"MT":440,"sideResp":2,"stimulus":"img/500/randomdotsize/R/9_Ratio_500_L_2_R_4.png","xmouse":[379.3330078125,379.3330078125,379.3330078125,379.3330078125,382,382,382,382,382,382,382,382,382,382,383,383,386,386,386,386,386,386,386,386,384,384,384,384,384,384,384,384,384,384,382,382,382,382,382,382,382,382,382,382,373.3330078125,377.3330078125,377.3330078125,414,436.6669921875,446.6669921875,466.6669921875,494,502,521.3330078125,529.3330078125,547.3330078125,572,581.3330078125,600,620,630.6669921875,661,680,688,704,710,721,726],"ymouse":[787.3330078125,787.3330078125,787.3330078125,787.3330078125,790,790,790,790,790,790,790,790,790,790,796,796,798,798,797,797,797,797,797,797,797,797,797,797,797,797,797,797,797,797,794,794,794,794,794,794,794,794,794,794,773.3330078125,760.6669921875,760.6669921875,683,636.6669921875,615.3330078125,573.3330078125,509,490,451.3330078125,432.6669921875,395.3330078125,343,324.6669921875,290,256,239.33299255371094,194,168,156,134,124,106,97],"timestamp_mouse":[14,40,50,71,91,111,131,151,171,191,211,231,251,271,290,311,332,351,371,391,412,431,452,472,491,511,531,551,572,591,611,631,652,671,691,711,731,752,771,791,811,831,853,871,891,911,931,953,971,991,1011,1032,1051,1071,1092,1112,1133,1151,1171,1191,1211,1234,1251,1272,1291,1311,1334,1351],"xSR":350,"ySR":768,"xT1":30,"yT1":0,"xT2":670,"yT2":0,"toosoon":0,"cond_shown":"randomdotsize","ratio_trial":500,"smaller_num":"2","larger_num":"4","correct_side":2,"subjID":"410wm","gender":"No_gender","age":"No_age","school":"No_school"},{"start_time":1549382435405,"click_time":1549382437198,"finger_time":1549382436400,"fix_duration":1483.5976275018804,"trial":43,"RT":995,"MT":798,"sideResp":2,"stimulus":"img/250/equaldotanddens/R/11_Ratio_250_L_3_R_12.png","xmouse":[406,405,405,405.3330078125,405.3330078125,405.3330078125,405.3330078125,406,406,406,406,406,406,406,406,406,406,406,406,406,406,406,406,406,406,406,406,406,406,406,406,406,406,406,406,406,406,406,406,406,406,406,406,406,405.3330078125,405.3330078125,405.3330078125,405.3330078125,405.3330078125,442,450,456,465.3330078125,470,484.6669921875,496,502,514.6669921875,522.6669921875,536.6669921875,558,565.3330078125,580,592,600,614,622.6669921875,626,630,632.6669921875,638.6669921875,640.6669921875,642,644,644,646,647.3330078125,648,650,652,657.3330078125,660,664,666,671,678.6669921875,680.6669921875,685.3330078125,686.6669921875,691.3330078125],"ymouse":[826,826,826,825.3330078125,825.3330078125,825.3330078125,825.3330078125,825,825,824,824,824,824,824,824,824,824,824,824,824,824,824,824,824,824,824,824,824,824,822,822,822,822,822,822,822,822,822,822,821,821,821,821,821,815.3330078125,815.3330078125,815.3330078125,815.3330078125,815.3330078125,673,640,623,588.6669921875,570,519.3330078125,482,462,421.3330078125,400.6669921875,358.6669921875,300,283.3330078125,249,222,209,182,169.33299255371094,166,161,159.33299255371094,154.66700744628906,152.66700744628906,151,149,148,146,144.66700744628906,144,141,138,133.33299255371094,131,126,124,120,113.3330078125,111.33300018310547,106.66699981689453,104.66699981689453,97.33300018310547],"timestamp_mouse":[14,39,52,72,92,113,132,152,172,192,212,233,252,272,292,312,333,352,372,392,412,432,453,472,492,512,532,552,572,592,612,632,652,672,693,712,733,752,772,794,812,832,852,872,892,913,933,952,972,995,1014,1032,1052,1072,1095,1112,1132,1152,1172,1192,1212,1232,1252,1272,1292,1313,1332,1352,1372,1392,1415,1432,1452,1472,1492,1514,1532,1553,1572,1592,1615,1631,1652,1673,1692,1712,1731,1752,1773,1792],"xSR":350,"ySR":768,"xT1":30,"yT1":0,"xT2":670,"yT2":0,"toosoon":0,"cond_shown":"equaldotanddens","ratio_trial":250,"smaller_num":"3","larger_num":"12","correct_side":2,"subjID":"410wm","gender":"No_gender","age":"No_age","school":"No_school"},{"start_time":1549382440339,"click_time":1549382441838,"finger_time":1549382441397,"fix_duration":473.12452165309327,"trial":44,"RT":1058,"MT":441,"sideResp":2,"stimulus":"img/250/equaldotsize/R/4_Ratio_250_L_3_R_12.png","xmouse":[404,404,404,404,404,404,404,404,404,404,404,404,404,404,404,404,404,404,404,404,404,404,404,404,404,404,404,404,404,404,404,404,404,404,404,404,404,404,404,404,404,404,404,404,404,404,404,404,402,402.6669921875,402.6669921875,402.6669921875,426,440,445.3330078125,458,475.3330078125,481.3330078125,493,498,510,527,534,548.6669921875,565.3330078125,574,598,614,624,642,652,681,696.6669921875,705.3330078125,718,722],"ymouse":[852,852,852,852,852,852,852,852,852,852,852,852,852,852,852,852,852,852,852,852,852,852,852,852,852,852,852,852,852,852,852,852,852,852,852,852,852,852,852,852,852,852,852,852,852,852,852,852,844,842.6669921875,842.6669921875,842.6669921875,780,747,732.6669921875,702,654.6669921875,638.6669921875,606,588,555,506,488,451.3330078125,411.3330078125,390,330,291,270,232,212,162,132.66700744628906,120.6669921875,100,92],"timestamp_mouse":[7,18,38,76,78,98,118,138,158,178,197,218,239,258,278,298,318,338,358,378,398,419,438,458,478,498,518,538,558,578,598,618,638,658,678,698,718,739,758,778,798,819,838,858,879,898,918,938,958,978,998,1018,1038,1058,1078,1099,1118,1138,1158,1178,1198,1218,1238,1258,1278,1298,1318,1338,1358,1378,1398,1420,1438,1458,1478,1498],"xSR":350,"ySR":768,"xT1":30,"yT1":0,"xT2":670,"yT2":0,"toosoon":0,"cond_shown":"equaldotsize","ratio_trial":250,"smaller_num":"3","larger_num":"12","correct_side":2,"subjID":"410wm","gender":"No_gender","age":"No_age","school":"No_school"},{"start_time":1549382443877,"click_time":1549382446718,"finger_time":1549382445638,"fix_duration":317.1876909730773,"trial":45,"RT":1761,"MT":1080,"sideResp":2,"stimulus":"img/900/randomdotsize/L/8_Ratio_900_L_20_R_18.png","xmouse":[406,406,406,406,406,405,405,405,405,405,405,405,405,405,403.3330078125,403.3330078125,403.3330078125,403.3330078125,404,404,404,404,404,404,404,404,404,404,404,404,404,404,404,404,404,404,404,404,404,404,404,404,404,404,404,402,402,402,402,402,402,402,401,401.3330078125,400.6669921875,400,400,399.3330078125,398,397,396.6669921875,395,395.3330078125,394.6669921875,394,394.6669921875,395,395,395,395,395,395,395,395,395,395,398,398,398,398,398,398,398,398,398,404,404.6669921875,405.3330078125,406,406,405.3330078125,405,405,404,404,403.3330078125,402,402,402,402,402,396,396,396,396,396,396,400,400,400,400.6669921875,400.6669921875,403.3330078125,403.3330078125,418,433,440.6669921875,461,488,495.3330078125,508,515.3330078125,530.6669921875,551.3330078125,565,572.6669921875,585,594,606,624,628,640,646.6669921875,658,672,678.6669921875,688,698.6669921875,704,716,724],"ymouse":[830,830,830,830,830,830,830,830,830,830,830,830,830,830,829.3330078125,829.3330078125,829.3330078125,829.3330078125,829,829,830,830,830,830,830,830,830,830,830,830,829,829,829,829,829,829,829,829,829,829,830,830,830,830,830,828,828,827,827,827,826,826,826,825.3330078125,824.6669921875,824,823,822.6669921875,821,820,819.3330078125,818,816.6669921875,815.3330078125,812,809.3330078125,808,806,806,806,806,806,806,806,806,806,793,793,793,793,7