[{"start_time":1549381628502,"click_time":1549381629566,"finger_time":1549381628509,"fix_duration":1091.9803970461774,"trial":0,"RT":7,"MT":1057,"sideResp":2,"stimulus":[],"xmouse":[393.3330078125,394,394,394,394,394,394,394,393.3330078125,393.3330078125,393.3330078125,393.3330078125,392.6669921875,392.6669921875,392.6669921875,392.6669921875,392.6669921875,392.6669921875,392.6669921875,392.6669921875,392.6669921875,392.6669921875,391.3330078125,391.3330078125,391.3330078125,391.3330078125,391.3330078125,391.3330078125,391.3330078125,391.3330078125,391.3330078125,391.3330078125,391.3330078125,391.3330078125,391.3330078125,391.3330078125,391.3330078125,391.3330078125,414.6669921875,414,414,414,414,448,468,478.6669921875,502.6669921875,516,560,590,603.3330078125,636.6669921875,652.6669921875,690],"ymouse":[587.3330078125,587,587,587,587,587,587,587,586.6669921875,586.6669921875,586.6669921875,586.6669921875,586.6669921875,586.6669921875,586.6669921875,586.6669921875,586.6669921875,586.6669921875,586.6669921875,586.6669921875,586.6669921875,586.6669921875,585.3330078125,585.3330078125,585.3330078125,585.3330078125,585.3330078125,585.3330078125,585.3330078125,585.3330078125,585.3330078125,585.3330078125,585.3330078125,585.3330078125,585.3330078125,585.3330078125,585.3330078125,585.3330078125,843.3330078125,840,840,840,840,692,622,584.6669921875,504.6669921875,462,340,265,233.33299255371094,162.66700744628906,129.33299255371094,56],"timestamp_mouse":[6,22,42,61,82,101,121,141,167,181,201,222,241,262,281,302,322,342,362,382,401,422,442,462,481,501,522,542,562,582,602,622,641,662,682,701,722,742,767,784,802,822,841,862,881,902,921,941,962,981,1001,1021,1042,1063],"xSR":350,"ySR":508.79999999999995,"xT1":30,"yT1":0,"xT2":670,"yT2":0,"toosoon":0,"cond_shown":"Congruent","ratio_trial":100,"L_num":7,"L_den":14,"R_num":9,"R_den":15,"correct_side":2,"subjID":"410wm","gender":"No_gender","age":"No_age","school":"No_school","test":{"fix_dur":[250,1500],"timestim":900,"targets_dim":[100,100],"targets_relative_coord":[0.1,0.9],"size_stim":[880,420],"start_dim":[100,100],"size_start":[300,300],"size_fix":60,"samplingrate":20,"img_types":["Congruent","Incongruent"],"ratios":[100,200,300,500],"rep_conds":15,"nTrials":128,"trials_to_rest":500,"Trials_order":[80,21,71,84,31,78,70,108,104,86,51,43,67,113,127,66,116,101,112,91,17,19,32,23,121,77,27,11,95,92,73,68,34,22,59,83,0,99,4,9,14,111,7,75,36,115,38,103,122,97,37,47,126,124,49,110,119,29,5,100,15,35,2,54,120,39,52,10,42,96,82,90,89,55,6,87,74,20,123,93,12,105,1,28,107,56,98,102,50,41,114,72,58,125,109,46,8,62,26,94,60,30,79,18,57,106,63,33,25,69,48,13,44,76,24,64,117,3,61,53,88,85,45,118,40,81,65,16],"cond_shown":["Congruent","Incongruent","Incongruent","Congruent","Incongruent","Congruent","Congruent","Congruent","Congruent","Congruent","Incongruent","Incongruent","Incongruent","Incongruent","Incongruent","Congruent","Congruent","Incongruent","Congruent","Incongruent","Incongruent","Incongruent","Congruent","Incongruent","Incongruent","Incongruent","Incongruent","Incongruent","Incongruent","Congruent","Incongruent","Congruent","Congruent","Congruent","Incongruent","Incongruent","Congruent","Incongruent","Congruent","Incongruent","Congruent","Incongruent","Incongruent","Incongruent","Congruent","Incongruent","Congruent","Incongruent","Congruent","Incongruent","Incongruent","Incongruent","Congruent","Congruent","Incongruent","Congruent","Incongruent","Incongruent","Incongruent","Congruent","Incongruent","Incongruent","Congruent","Congruent","Congruent","Incongruent","Congruent","Congruent","Congruent","Congruent","Congruent","Congruent","Incongruent","Incongruent","Congruent","Incongruent","Congruent","Congruent","Incongruent","Incongruent","Congruent","Incongruent","Incongruent","Congruent","Incongruent","Congruent","Congruent","Congruent","Congruent","Incongruent","Congruent","Congruent","Congruent","Incongruent","Incongruent","Congruent","Congruent","Congruent","Congruent","Congruent","Congruent","Congruent","Incongruent","Congruent","Incongruent","Congruent","Incongruent","Incongruent","Incongruent","Incongruent","Congruent","Incongruent","Congruent","Congruent","Congruent","Congruent","Incongruent","Incongruent","Incongruent","Incongruent","Congruent","Incongruent","Incongruent","Congruent","Congruent","Incongruent","Incongruent","Congruent"],"ratio_trial":[100,300,500,300,500,500,500,300,100,500,200,200,200,100,500,200,300,300,100,200,100,200,100,500,100,300,200,200,500,300,100,300,200,500,200,200,100,200,300,100,500,500,500,200,300,200,500,500,200,100,300,500,500,300,100,500,500,300,300,300,500,200,200,500,100,500,300,200,200,100,200,200,100,500,500,500,200,300,200,300,300,100,100,300,200,100,200,500,200,100,200,100,200,300,300,500,100,500,200,500,300,500,500,200,100,200,500,100,100,300,100,300,300,300,100,100,300,200,300,300,100,300,300,500,100,100,100,100],"left_num":[7,4,7,1,7,3,3,1,11,20,7,1,7,10,7,3,18,3,11,11,9,14,4,5,9,4,3,3,7,11,3,11,9,15,4,3,15,7,20,4,2,2,2,7,8,4,2,7,3,9,13,5,3,2,2,4,7,4,7,20,7,9,8,21,8,2,5,14,15,11,1,3,3,5,1,7,9,1,7,3,1,9,9,2,1,1,3,20,14,4,20,1,4,1,8,10,7,22,16,4,8,3,7,3,12,13,2,2,9,7,4,3,5,1,3,10,8,4,4,3,15,13,4,15,2,12,10,3],"right_num":[9,6,9,8,5,15,4,8,4,3,8,3,6,8,5,7,9,4,6,3,14,12,6,6,20,2,11,1,5,2,11,4,4,5,6,11,13,6,5,8,12,4,4,8,10,6,7,5,11,6,12,6,4,12,8,12,5,2,8,14,5,8,7,6,2,4,7,6,4,4,21,7,8,6,12,5,4,6,6,4,7,6,6,10,3,3,9,3,6,8,9,3,3,3,9,22,9,2,12,15,10,15,5,11,2,14,4,6,14,8,6,4,7,19,4,3,14,6,6,4,13,12,2,5,6,9,9,2],"left_den":[14,5,8,30,21,12,10,30,22,24,10,2,15,25,21,10,20,6,22,20,15,30,8,6,10,20,4,10,21,22,5,22,20,18,5,4,25,15,25,8,12,3,3,10,15,5,24,21,10,18,26,6,10,10,4,24,21,20,10,25,21,15,15,28,16,3,25,28,25,22,2,10,5,6,4,21,20,5,15,6,20,18,18,20,2,2,12,28,28,8,25,2,8,2,10,24,14,28,20,16,15,12,21,10,30,26,3,4,15,10,8,6,25,3,20,25,10,5,5,6,25,26,20,18,5,24,25,6],"right_den":[15,12,24,24,6,20,5,24,10,9,16,10,9,16,6,14,15,20,15,4,28,18,10,18,25,4,20,2,6,10,22,20,16,15,10,20,26,9,10,20,18,24,24,16,12,10,12,6,22,10,15,18,5,24,20,18,6,4,20,28,6,10,21,24,5,24,14,20,10,10,30,14,16,18,16,6,16,12,9,20,20,10,10,25,10,5,20,14,20,20,15,5,10,15,18,24,15,7,20,20,12,20,6,22,4,20,24,15,28,20,10,20,14,30,16,10,28,10,12,20,26,15,4,15,12,15,18,5],"correct_side":[2,1,1,2,2,2,2,2,1,1,1,1,2,2,2,2,1,1,1,2,1,2,2,1,1,2,1,2,2,1,1,1,1,1,1,1,1,2,1,1,2,1,1,1,2,1,2,2,2,2,2,1,2,2,1,2,2,2,1,1,2,2,1,1,1,1,2,1,1,1,2,2,1,1,2,2,1,2,2,1,2,2,2,2,1,2,2,1,1,1,1,2,1,1,1,2,2,1,1,2,2,2,2,2,2,2,1,1,1,1,2,1,2,2,2,1,1,1,1,1,1,2,2,1,2,2,2,1],"img_shown":["img2/100/Congruent/R/C_Dist_100_LN_7_LD_14_RN_9_RD_15_1.png","img2/300/Incongruent/L/I_Dist_300_LN_4_LD_5_RN_6_RD_12_0.png","img2/500/Incongruent/L/I_Dist_500_LN_7_LD_8_RN_9_RD_24_0.png","img2/300/Congruent/R/C_Dist_300_LN_1_LD_30_RN_8_RD_24_1.png","img2/500/Incongruent/R/I_Dist_500_LN_7_LD_21_RN_5_RD_6_1.png","img2/500/Congruent/R/C_Dist_500_LN_3_LD_12_RN_15_RD_20_1.png","img2/500/Congruent/R/C_Dist_500_LN_3_LD_10_RN_4_RD_5_1.png","img2/300/Congruent/R/C_Dist_300_LN_1_LD_30_RN_8_RD_24_1.png","img2/100/Congruent/L/C_Dist_100_LN_11_LD_22_RN_4_RD_10_0.png","img2/500/Congruent/L/C_Dist_500_LN_20_LD_24_RN_3_RD_9_0.png","img2/200/Incongruent/L/I_Dist_200_LN_7_LD_10_RN_8_RD_16_0.png","img2/200/Incongruent/L/I_Dist_200_LN_1_LD_2_RN_3_RD_10_0.png","img2/200/Incongruent/R/I_Dist_200_LN_7_LD_15_RN_6_RD_9_1.png","img2/100/Incongruent/R/I_Dist_100_LN_10_LD_25_RN_8_RD_16_1.png","img2/500/Incongruent/R/I_Dist_500_LN_7_LD_21_RN_5_RD_6_1.png","img2/200/Congruent/R/C_Dist_200_LN_3_LD_10_RN_7_RD_14_1.png","img2/300/Congruent/L/C_Dist_300_LN_18_LD_20_RN_9_RD_15_0.png","img2/300/Incongruent/L/I_Dist_300_LN_3_LD_6_RN_4_RD_20_0.png","img2/100/Congruent/L/C_Dist_100_LN_11_LD_22_RN_6_RD_15_0.png","img2/200/Incongruent/R/I_Dist_200_LN_11_LD_20_RN_3_RD_4_1.png","img2/100/Incongruent/L/I_Dist_100_LN_9_LD_15_RN_14_RD_28_0.png","img2/200/Incongruent/R/I_Dist_200_LN_14_LD_30_RN_12_RD_18_1.png","img2/100/Congruent/R/C_Dist_100_LN_4_LD_8_RN_6_RD_10_1.png","img2/500/Incongruent/L/I_Dist_500_LN_5_LD_6_RN_6_RD_18_0.png","img2/100/Incongruent/L/I_Dist_100_LN_9_LD_10_RN_20_RD_25_0.png","img2/300/Incongruent/R/I_Dist_300_LN_4_LD_20_RN_2_RD_4_1.png","img2/200/Incongruent/L/I_Dist_200_LN_3_LD_4_RN_11_RD_20_0.png","img2/200/Incongruent/R/I_Dist_200_LN_3_LD_10_RN_1_RD_2_1.png","img2/500/Incongruent/R/I_Dist_500_LN_7_LD_21_RN_5_RD_6_1.png","img2/300/Congruent/L/C_Dist_300_LN_11_LD_22_RN_2_RD_10_0.png","img2/100/Incongruent/L/I_Dist_100_LN_3_LD_5_RN_11_RD_22_0.png","img2/300/Congruent/L/C_Dist_300_LN_11_LD_22_RN_4_RD_20_0.png","img2/200/Congruent/L/C_Dist_200_LN_9_LD_20_RN_4_RD_16_0.png","img2/500/Congruent/L/C_Dist_500_LN_15_LD_18_RN_5_RD_15_0.png","img2/200/Incongruent/L/I_Dist_200_LN_4_LD_5_RN_6_RD_10_0.png","img2/200/Incongruent/L/I_Dist_200_LN_3_LD_4_RN_11_RD_20_0.png","img2/100/Congruent/L/C_Dist_100_LN_15_LD_25_RN_13_RD_26_0.png","img2/200/Incongruent/R/I_Dist_200_LN_7_LD_15_RN_6_RD_9_1.png","img2/300/Congruent/L/C_Dist_300_LN_20_LD_25_RN_5_RD_10_0.png","img2/100/Incongruent/L/I_Dist_100_LN_4_LD_8_RN_8_RD_20_0.png","img2/500/Congruent/R/C_Dist_500_LN_2_LD_12_RN_12_RD_18_1.png","img2/500/Incongruent/L/I_Dist_500_LN_2_LD_3_RN_4_RD_24_0.png","img2/500/Incongruent/L/I_Dist_500_LN_2_LD_3_RN_4_RD_24_0.png","img2/200/Incongruent/L/I_Dist_200_LN_7_LD_10_RN_8_RD_16_0.png","img2/300/Congruent/R/C_Dist_300_LN_8_LD_15_RN_10_RD_12_1.png","img2/200/Incongruent/L/I_Dist_200_LN_4_LD_5_RN_6_RD_10_0.png","img2/500/Congruent/R/C_Dist_500_LN_2_LD_24_RN_7_RD_12_1.png","img2/500/Incongruent/R/I_Dist_500_LN_7_LD_21_RN_5_RD_6_1.png","img2/200/Congruent/R/C_Dist_200_LN_3_LD_10_RN_11_RD_22_1.png","img2/100/Incongruent/R/I_Dist_100_LN_9_LD_18_RN_6_RD_10_1.png","img2/300/Incongruent/R/I_Dist_300_LN_13_LD_26_RN_12_RD_15_1.png","img2/500/Incongruent/L/I_Dist_500_LN_5_LD_6_RN_6_RD_18_0.png","img2/500/Congruent/R/C_Dist_500_LN_3_LD_10_RN_4_RD_5_1.png","img2/300/Congruent/R/C_Dist_300_LN_2_LD_10_RN_12_RD_24_1.png","img2/100/Incongruent/L/I_Dist_100_LN_2_LD_4_RN_8_RD_20_0.png","img2/500/Congruent/R/C_Dist_500_LN_4_LD_24_RN_12_RD_18_1.png","img2/500/Incongruent/R/I_Dist_500_LN_7_LD_21_RN_5_RD_6_1.png","img2/300/Incongruent/R/I_Dist_300_LN_4_LD_20_RN_2_RD_4_1.png","img2/300/Incongruent/L/I_Dist_300_LN_7_LD_10_RN_8_RD_20_0.png","img2/300/Congruent/L/C_Dist_300_LN_20_LD_25_RN_14_RD_28_0.png","img2/500/Incongruent/R/I_Dist_500_LN_7_LD_21_RN_5_RD_6_1.png","img2/200/Incongruent/R/I_Dist_200_LN_9_LD_15_RN_8_RD_10_1.png","img2/200/Congruent/L/C_Dist_200_LN_8_LD_15_RN_7_RD_21_0.png","img2/500/Congruent/L/C_Dist_500_LN_21_LD_28_RN_6_RD_24_0.png","img2/100/Congruent/L/C_Dist_100_LN_8_LD_16_RN_2_RD_5_0.png","img2/500/Incongruent/L/I_Dist_500_LN_2_LD_3_RN_4_RD_24_0.png","img2/300/Congruent/R/C_Dist_300_LN_5_LD_25_RN_7_RD_14_1.png","img2/200/Congruent/L/C_Dist_200_LN_14_LD_28_RN_6_RD_20_0.png","img2/200/Congruent/L/C_Dist_200_LN_15_LD_25_RN_4_RD_10_0.png","img2/100/Congruent/L/C_Dist_100_LN_11_LD_22_RN_4_RD_10_0.png","img2/200/Congruent/R/C_Dist_200_LN_1_LD_2_RN_21_RD_30_1.png","img2/200/Congruent/R/C_Dist_200_LN_3_LD_10_RN_7_RD_14_1.png","img2/100/Incongruent/L/I_Dist_100_LN_3_LD_5_RN_8_RD_16_0.png","img2/500/Incongruent/L/I_Dist_500_LN_5_LD_6_RN_6_RD_18_0.png","img2/500/Congruent/R/C_Dist_500_LN_1_LD_4_RN_12_RD_16_1.png","img2/500/Incongruent/R/I_Dist_500_LN_7_LD_21_RN_5_RD_6_1.png","img2/200/Congruent/L/C_Dist_200_LN_9_LD_20_RN_4_RD_16_0.png","img2/300/Congruent/R/C_Dist_300_LN_1_LD_5_RN_6_RD_12_1.png","img2/200/Incongruent/R/I_Dist_200_LN_7_LD_15_RN_6_RD_9_1.png","img2/300/Incongruent/L/I_Dist_300_LN_3_LD_6_RN_4_RD_20_0.png","img2/300/Congruent/R/C_Dist_300_LN_1_LD_20_RN_7_RD_20_1.png","img2/100/Incongruent/R/I_Dist_100_LN_9_LD_18_RN_6_RD_10_1.png","img2/100/Incongruent/R/I_Dist_100_LN_9_LD_18_RN_6_RD_10_1.png","img2/300/Congruent/R/C_Dist_300_LN_2_LD_20_RN_10_RD_25_1.png","img2/200/Incongruent/L/I_Dist_200_LN_1_LD_2_RN_3_RD_10_0.png","img2/100/Congruent/R/C_Dist_100_LN_1_LD_2_RN_3_RD_5_1.png","img2/200/Congruent/R/C_Dist_200_LN_3_LD_12_RN_9_RD_20_1.png","img2/500/Congruent/L/C_Dist_500_LN_20_LD_28_RN_3_RD_14_0.png","img2/200/Congruent/L/C_Dist_200_LN_14_LD_28_RN_6_RD_20_0.png","img2/100/Incongruent/L/I_Dist_100_LN_4_LD_8_RN_8_RD_20_0.png","img2/200/Congruent/L/C_Dist_200_LN_20_LD_25_RN_9_RD_15_0.png","img2/100/Congruent/R/C_Dist_100_LN_1_LD_2_RN_3_RD_5_1.png","img2/200/Congruent/L/C_Dist_200_LN_4_LD_8_RN_3_RD_10_0.png","img2/300/Incongruent/L/I_Dist_300_LN_1_LD_2_RN_3_RD_15_0.png","img2/300/Incongruent/L/I_Dist_300_LN_8_LD_10_RN_9_RD_18_0.png","img2/500/Congruent/R/C_Dist_500_LN_10_LD_24_RN_22_RD_24_1.png","img2/100/Congruent/R/C_Dist_100_LN_7_LD_14_RN_9_RD_15_1.png","img2/500/Congruent/L/C_Dist_500_LN_22_LD_28_RN_2_RD_7_0.png","img2/200/Congruent/L/C_Dist_200_LN_16_LD_20_RN_12_RD_20_0.png","img2/500/Congruent/R/C_Dist_500_LN_4_LD_16_RN_15_RD_20_1.png","img2/300/Congruent/R/C_Dist_300_LN_8_LD_15_RN_10_RD_12_1.png","img2/500/Congruent/R/C_Dist_500_LN_3_LD_12_RN_15_RD_20_1.png","img2/500/Incongruent/R/I_Dist_500_LN_7_LD_21_RN_5_RD_6_1.png","img2/200/Congruent/R/C_Dist_200_LN_3_LD_10_RN_11_RD_22_1.png","img2/100/Incongruent/R/I_Dist_100_LN_12_LD_30_RN_2_RD_4_1.png","img2/200/Congruent/R/C_Dist_200_LN_13_LD_26_RN_14_RD_20_1.png","img2/500/Incongruent/L/I_Dist_500_LN_2_LD_3_RN_4_RD_24_0.png","img2/100/Incongruent/L/I_Dist_100_LN_2_LD_4_RN_6_RD_15_0.png","img2/100/Incongruent/L/I_Dist_100_LN_9_LD_15_RN_14_RD_28_0.png","img2/300/Incongruent/L/I_Dist_300_LN_7_LD_10_RN_8_RD_20_0.png","img2/100/Congruent/R/C_Dist_100_LN_4_LD_8_RN_6_RD_10_1.png","img2/300/Incongruent/L/I_Dist_300_LN_3_LD_6_RN_4_RD_20_0.png","img2/300/Congruent/R/C_Dist_300_LN_5_LD_25_RN_7_RD_14_1.png","img2/300/Congruent/R/C_Dist_300_LN_1_LD_3_RN_19_RD_30_1.png","img2/100/Congruent/R/C_Dist_100_LN_3_LD_20_RN_4_RD_16_1.png","img2/100/Congruent/L/C_Dist_100_LN_10_LD_25_RN_3_RD_10_0.png","img2/300/Incongruent/L/I_Dist_300_LN_8_LD_10_RN_14_RD_28_0.png","img2/200/Incongruent/L/I_Dist_200_LN_4_LD_5_RN_6_RD_10_0.png","img2/300/Incongruent/L/I_Dist_300_LN_4_LD_5_RN_6_RD_12_0.png","img2/300/Incongruent/L/I_Dist_300_LN_3_LD_6_RN_4_RD_20_0.png","img2/100/Congruent/L/C_Dist_100_LN_15_LD_25_RN_13_RD_26_0.png","img2/300/Incongruent/R/I_Dist_300_LN_13_LD_26_RN_12_RD_15_1.png","img2/300/Incongruent/R/I_Dist_300_LN_4_LD_20_RN_2_RD_4_1.png","img2/500/Congruent/L/C_Dist_500_LN_15_LD_18_RN_5_RD_15_0.png","img2/100/Congruent/R/C_Dist_100_LN_2_LD_5_RN_6_RD_12_1.png","img2/100/Incongruent/R/I_Dist_100_LN_12_LD_24_RN_9_RD_15_1.png","img2/100/Incongruent/R/I_Dist_100_LN_10_LD_25_RN_9_RD_18_1.png","img2/100/Congruent/L/C_Dist_100_LN_3_LD_6_RN_2_RD_5_0.png"],"dist100_C":[["C_Dist_100_LN_10_LD_25_RN_3_RD_10_0.png","C_Dist_100_LN_11_LD_22_RN_4_RD_10_0.png","C_Dist_100_LN_11_LD_22_RN_6_RD_15_0.png","C_Dist_100_LN_15_LD_25_RN_13_RD_26_0.png","C_Dist_100_LN_3_LD_6_RN_2_RD_5_0.png","C_Dist_100_LN_6_LD_20_RN_5_RD_25_0.png","C_Dist_100_LN_8_LD_16_RN_2_RD_5_0.png","C_Dist_100_LN_9_LD_15_RN_8_RD_16_0.png"],["C_Dist_100_LN_1_LD_2_RN_18_RD_30_1.png","C_Dist_100_LN_1_LD_2_RN_3_RD_5_1.png","C_Dist_100_LN_12_LD_30_RN_13_RD_26_1.png","C_Dist_100_LN_2_LD_5_RN_11_RD_22_1.png","C_Dist_100_LN_2_LD_5_RN_6_RD_12_1.png","C_Dist_100_LN_3_LD_20_RN_4_RD_16_1.png","C_Dist_100_LN_4_LD_10_RN_15_RD_30_1.png","C_Dist_100_LN_4_LD_8_RN_6_RD_10_1.png","C_Dist_100_LN_6_LD_12_RN_15_RD_25_1.png","C_Dist_100_LN_7_LD_14_RN_15_RD_25_1.png","C_Dist_100_LN_7_LD_14_RN_9_RD_15_1.png"]],"dist100_I":[["I_Dist_100_LN_1_LD_2_RN_8_RD_20_0.png","I_Dist_100_LN_2_LD_4_RN_6_RD_15_0.png","I_Dist_100_LN_2_LD_4_RN_8_RD_20_0.png","I_Dist_100_LN_3_LD_5_RN_11_RD_22_0.png","I_Dist_100_LN_3_LD_5_RN_8_RD_16_0.png","I_Dist_100_LN_3_LD_6_RN_4_RD_10_0.png","I_Dist_100_LN_3_LD_9_RN_7_RD_30_0.png","I_Dist_100_LN_4_LD_8_RN_8_RD_20_0.png","I_Dist_100_LN_6_LD_10_RN_11_RD_22_0.png","I_Dist_100_LN_6_LD_10_RN_13_RD_26_0.png","I_Dist_100_LN_6_LD_10_RN_7_RD_14_0.png","I_Dist_100_LN_9_LD_10_RN_20_RD_25_0.png","I_Dist_100_LN_9_LD_15_RN_13_RD_26_0.png","I_Dist_100_LN_9_LD_15_RN_14_RD_28_0.png"],["I_Dist_100_LN_10_LD_25_RN_8_RD_16_1.png","I_Dist_100_LN_10_LD_25_RN_9_RD_18_1.png","I_Dist_100_LN_11_LD_22_RN_9_RD_15_1.png","I_Dist_100_LN_12_LD_24_RN_9_RD_15_1.png","I_Dist_100_LN_12_LD_30_RN_2_RD_4_1.png","I_Dist_100_LN_13_LD_26_RN_12_RD_20_1.png","I_Dist_100_LN_13_LD_26_RN_6_RD_10_1.png","I_Dist_100_LN_17_LD_30_RN_10_RD_15_1.png","I_Dist_100_LN_6_LD_12_RN_3_RD_5_1.png","I_Dist_100_LN_8_LD_16_RN_6_RD_10_1.png","I_Dist_100_LN_8_LD_20_RN_1_RD_2_1.png","I_Dist_100_LN_9_LD_18_RN_6_RD_10_1.png"]],"dist100_S":[["E_Dist_100_LN_2_LD_12_RN_2_RD_30_0.png","E_Dist_100_LN_6_LD_10_RN_6_RD_12_0.png"],["E_Dist_100_LN_6_LD_12_RN_6_RD_10_1.png"]],"dist200_C":[["C_Dist_200_LN_11_LD_22_RN_3_RD_10_0.png","C_Dist_200_LN_12_LD_15_RN_6_RD_10_0.png","C_Dist_200_LN_12_LD_20_RN_6_RD_15_0.png","C_Dist_200_LN_14_LD_28_RN_6_RD_20_0.png","C_Dist_200_LN_15_LD_25_RN_4_RD_10_0.png","C_Dist_200_LN_16_LD_20_RN_12_RD_20_0.png","C_Dist_200_LN_16_LD_30_RN_9_RD_27_0.png","C_Dist_200_LN_20_LD_25_RN_9_RD_15_0.png","C_Dist_200_LN_21_LD_30_RN_2_RD_4_0.png","C_Dist_200_LN_4_LD_10_RN_3_RD_15_0.png","C_Dist_200_LN_4_LD_8_RN_3_RD_10_0.png","C_Dist_200_LN_6_LD_15_RN_3_RD_15_0.png","C_Dist_200_LN_7_LD_21_RN_2_RD_15_0.png","C_Dist_200_LN_8_LD_15_RN_2_RD_6_0.png","C_Dist_200_LN_8_LD_15_RN_3_RD_9_0.png","C_Dist_200_LN_8_LD_15_RN_7_RD_21_0.png","C_Dist_200_LN_9_LD_20_RN_4_RD_16_0.png"],["C_Dist_200_LN_1_LD_2_RN_21_RD_30_1.png","C_Dist_200_LN_13_LD_26_RN_14_RD_20_1.png","C_Dist_200_LN_3_LD_10_RN_11_RD_22_1.png","C_Dist_200_LN_3_LD_10_RN_14_RD_28_1.png","C_Dist_200_LN_3_LD_10_RN_7_RD_14_1.png","C_Dist_200_LN_3_LD_12_RN_9_RD_20_1.png","C_Dist_200_LN_3_LD_6_RN_14_RD_20_1.png","C_Dist_200_LN_5_LD_10_RN_14_RD_20_1.png","C_Dist_200_LN_6_LD_12_RN_7_RD_10_1.png","C_Dist_200_LN_6_LD_20_RN_11_RD_22_1.png","C_Dist_200_LN_7_LD_15_RN_18_RD_27_1.png","C_Dist_200_LN_9_LD_30_RN_13_RD_26_1.png"]],"dist200_I":[["I_Dist_200_LN_1_LD_2_RN_3_RD_10_0.png","I_Dist_200_LN_1_LD_3_RN_2_RD_15_0.png","I_Dist_200_LN_3_LD_4_RN_11_RD_20_0.png","I_Dist_200_LN_4_LD_5_RN_6_RD_10_0.png","I_Dist_200_LN_4_LD_6_RN_14_RD_30_0.png","I_Dist_200_LN_7_LD_10_RN_12_RD_24_0.png","I_Dist_200_LN_7_LD_10_RN_14_RD_28_0.png","I_Dist_200_LN_7_LD_10_RN_8_RD_16_0.png"],["I_Dist_200_LN_11_LD_20_RN_3_RD_4_1.png","I_Dist_200_LN_14_LD_30_RN_12_RD_18_1.png","I_Dist_200_LN_14_LD_30_RN_6_RD_9_1.png","I_Dist_200_LN_3_LD_10_RN_1_RD_2_1.png","I_Dist_200_LN_4_LD_30_RN_1_RD_3_1.png","I_Dist_200_LN_6_LD_20_RN_3_RD_6_1.png","I_Dist_200_LN_7_LD_15_RN_4_RD_6_1.png","I_Dist_200_LN_7_LD_15_RN_6_RD_9_1.png","I_Dist_200_LN_9_LD_15_RN_8_RD_10_1.png"]],"dist200_S":[["E_Dist_200_LN_3_LD_6_RN_3_RD_10_0.png"],["E_Dist_200_LN_3_LD_10_RN_3_RD_6_1.png"]],"dist300_C":[["C_Dist_300_LN_11_LD_22_RN_1_RD_5_0.png","C_Dist_300_LN_11_LD_22_RN_2_RD_10_0.png","C_Dist_300_LN_11_LD_22_RN_4_RD_20_0.png","C_Dist_300_LN_12_LD_24_RN_2_RD_10_0.png","C_Dist_300_LN_18_LD_20_RN_9_RD_15_0.png","C_Dist_300_LN_20_LD_25_RN_13_RD_26_0.png","C_Dist_300_LN_20_LD_25_RN_14_RD_28_0.png","C_Dist_300_LN_20_LD_25_RN_5_RD_10_0.png","C_Dist_300_LN_20_LD_25_RN_8_RD_16_0.png","C_Dist_300_LN_20_LD_25_RN_9_RD_18_0.png","C_Dist_300_LN_24_LD_30_RN_2_RD_4_0.png","C_Dist_300_LN_24_LD_30_RN_8_RD_16_0.png","C_Dist_300_LN_3_LD_6_RN_2_RD_10_0.png","C_Dist_300_LN_4_LD_10_RN_1_RD_10_0.png","C_Dist_300_LN_4_LD_5_RN_2_RD_4_0.png","C_Dist_300_LN_8_LD_16_RN_1_RD_5_0.png","C_Dist_300_LN_9_LD_10_RN_3_RD_5_0.png"],["C_Dist_300_LN_1_LD_20_RN_7_RD_20_1.png","C_Dist_300_LN_1_LD_3_RN_19_RD_30_1.png","C_Dist_300_LN_1_LD_30_RN_8_RD_24_1.png","C_Dist_300_LN_1_LD_5_RN_11_RD_22_1.png","C_Dist_300_LN_1_LD_5_RN_3_RD_6_1.png","C_Dist_300_LN_1_LD_5_RN_6_RD_12_1.png","C_Dist_300_LN_2_LD_10_RN_12_RD_24_1.png","C_Dist_300_LN_2_LD_20_RN_10_RD_25_1.png","C_Dist_300_LN_3_LD_12_RN_11_RD_20_1.png","C_Dist_300_LN_3_LD_6_RN_4_RD_5_1.png","C_Dist_300_LN_4_LD_20_RN_13_RD_26_1.png","C_Dist_300_LN_5_LD_25_RN_6_RD_12_1.png","C_Dist_300_LN_5_LD_25_RN_7_RD_14_1.png","C_Dist_300_LN_7_LD_14_RN_20_RD_25_1.png","C_Dist_300_LN_8_LD_15_RN_10_RD_12_1.png"]],"dist300_I":[["I_Dist_300_LN_1_LD_2_RN_2_RD_10_0.png","I_Dist_300_LN_1_LD_2_RN_3_RD_15_0.png","I_Dist_300_LN_2_LD_4_RN_6_RD_30_0.png","I_Dist_300_LN_3_LD_6_RN_4_RD_20_0.png","I_Dist_300_LN_4_LD_5_RN_6_RD_12_0.png","I_Dist_300_LN_4_LD_5_RN_8_RD_16_0.png","I_Dist_300_LN_7_LD_10_RN_8_RD_20_0.png","I_Dist_300_LN_8_LD_10_RN_14_RD_28_0.png","I_Dist_300_LN_8_LD_10_RN_9_RD_18_0.png"],["I_Dist_300_LN_13_LD_26_RN_12_RD_15_1.png","I_Dist_300_LN_4_LD_20_RN_2_RD_4_1.png"]],"dist300_S":[["E_Dist_300_LN_9_LD_12_RN_9_RD_20_0.png"],["E_Dist_300_LN_18_LD_30_RN_18_RD_20_1.png","E_Dist_300_LN_3_LD_10_RN_3_RD_5_1.png","E_Dist_300_LN_9_LD_20_RN_9_RD_12_1.png"]],"dist500_C":[["C_Dist_500_LN_10_LD_13_RN_7_RD_26_0.png","C_Dist_500_LN_10_LD_15_RN_4_RD_24_0.png","C_Dist_500_LN_12_LD_16_RN_3_RD_12_0.png","C_Dist_500_LN_12_LD_18_RN_4_RD_24_0.png","C_Dist_500_LN_15_LD_18_RN_5_RD_15_0.png","C_Dist_500_LN_15_LD_20_RN_1_RD_4_0.png","C_Dist_500_LN_18_LD_27_RN_1_RD_6_0.png","C_Dist_500_LN_20_LD_24_RN_1_RD_3_0.png","C_Dist_500_LN_20_LD_24_RN_3_RD_9_0.png","C_Dist_500_LN_20_LD_24_RN_7_RD_21_0.png","C_Dist_500_LN_20_LD_28_RN_3_RD_14_0.png","C_Dist_500_LN_21_LD_28_RN_6_RD_24_0.png","C_Dist_500_LN_22_LD_28_RN_2_RD_7_0.png","C_Dist_500_LN_25_LD_30_RN_9_RD_27_0.png","C_Dist_500_LN_4_LD_6_RN_1_RD_6_0.png","C_Dist_500_LN_5_LD_6_RN_2_RD_6_0.png","C_Dist_500_LN_6_LD_9_RN_1_RD_6_0.png","C_Dist_500_LN_7_LD_10_RN_1_RD_5_0.png","C_Dist_500_LN_8_LD_12_RN_1_RD_6_0.png","C_Dist_500_LN_8_LD_12_RN_4_RD_24_0.png"],["C_Dist_500_LN_1_LD_4_RN_12_RD_16_1.png","C_Dist_500_LN_1_LD_4_RN_9_RD_12_1.png","C_Dist_500_LN_1_LD_9_RN_11_RD_18_1.png","C_Dist_500_LN_10_LD_24_RN_22_RD_24_1.png","C_Dist_500_LN_2_LD_12_RN_10_RD_15_1.png","C_Dist_500_LN_2_LD_12_RN_12_RD_18_1.png","C_Dist_500_LN_2_LD_12_RN_4_RD_6_1.png","C_Dist_500_LN_2_LD_24_RN_7_RD_12_1.png","C_Dist_500_LN_2_LD_5_RN_18_RD_20_1.png","C_Dist_500_LN_2_LD_5_RN_9_RD_10_1.png","C_Dist_500_LN_2_LD_8_RN_12_RD_16_1.png","C_Dist_500_LN_2_LD_8_RN_21_RD_28_1.png","C_Dist_500_LN_3_LD_10_RN_4_RD_5_1.png","C_Dist_500_LN_3_LD_12_RN_15_RD_20_1.png","C_Dist_500_LN_3_LD_30_RN_6_RD_10_1.png","C_Dist_500_LN_3_LD_8_RN_14_RD_16_1.png","C_Dist_500_LN_4_LD_16_RN_15_RD_20_1.png","C_Dist_500_LN_4_LD_24_RN_12_RD_18_1.png","C_Dist_500_LN_5_LD_14_RN_6_RD_7_1.png","C_Dist_500_LN_7_LD_21_RN_20_RD_24_1.png","C_Dist_500_LN_7_LD_28_RN_12_RD_16_1.png","C_Dist_500_LN_7_LD_28_RN_9_RD_12_1.png","C_Dist_500_LN_9_LD_27_RN_20_RD_24_1.png"]],"dist500_I":[["I_Dist_500_LN_2_LD_3_RN_4_RD_24_0.png","I_Dist_500_LN_5_LD_6_RN_6_RD_18_0.png","I_Dist_500_LN_7_LD_8_RN_9_RD_24_0.png"],["I_Dist_500_LN_7_LD_21_RN_5_RD_6_1.png"]],"dist500_S":[["E_Dist_500_LN_6_LD_8_RN_6_RD_24_0.png"],["E_Dist_500_LN_2_LD_12_RN_2_RD_3_1.png","E_Dist_500_LN_6_LD_24_RN_6_RD_8_1.png"]]}},{"start_time":1549381634422,"click_time":1549381636707,"finger_time":1549381635904,"fix_duration":255.57673763654998,"trial":1,"RT":1482,"MT":803,"sideResp":2,"stimulus":[],"xmouse":[391.3330078125,391.3330078125,391.3330078125,391.3330078125,391.3330078125,391.3330078125,391.3330078125,391.3330078125,391.3330078125,391.3330078125,391.3330078125,391.3330078125,391.3330078125,391.3330078125,391.3330078125,391.3330078125,391.3330078125,391.3330078125,391,391,391,391,391,391,391,391,391,391,391.3330078125,391.3330078125,391.3330078125,391.3330078125,391.3330078125,391.3330078125,391.3330078125,391.3330078125,391.3330078125,391.3330078125,391.3330078125,391.3330078125,391.3330078125,391.3330078125,391.3330078125,391.3330078125,391.3330078125,391.3330078125,391.3330078125,391.3330078125,391,391,391,391,391,391,391,391,391,391,391,391,391,391,391,391,391,391,391,391,398.6669921875,403,405.3330078125,410.6669921875,414,419,426,432.6669921875,436,442,446,455,464,468,478,484,499.3330078125,510,523.3330078125,529.3330078125,542,548,570,578,592,602.6669921875,608.6669921875,628,638.6669921875,644,655.3330078125,661,677,685.3330078125,688,694,700.6669921875,703.3330078125,706,708.6669921875,711.3330078125,714.6669921875,716,716.6669921875,718.6669921875,719.3330078125,722.6669921875],"ymouse":[823.3330078125,823.3330078125,823.3330078125,823.3330078125,823.3330078125,823.3330078125,823.3330078125,823.3330078125,824.6669921875,824.6669921875,824.6669921875,824.6669921875,824.6669921875,824.6669921875,824.6669921875,824.6669921875,824.6669921875,824.6669921875,826,826,826,826,826,826,826,826,826,826,826.6669921875,826.6669921875,826.6669921875,826.6669921875,826.6669921875,826.6669921875,826.6669921875,826.6669921875,826.6669921875,826.6669921875,827.3330078125,827.3330078125,827.3330078125,827.3330078125,827.3330078125,827.3330078125,827.3330078125,827.3330078125,827.3330078125,827.3330078125,828,828,828,828,828,828,828,828,828,828,828,828,828,828,828,828,828,828,828,828,814.6669921875,804,799.3330078125,788.6669921875,783,772,756,740.6669921875,732,718,710,684,660,648,622,607,567.3330078125,540,513.3330078125,500.6669921875,474,460,418,406,377,350.6669921875,337.3330078125,299,276.6669921875,266,245.3330078125,234,206,189.33299255371094,182,170,156.66700744628906,151.33299255371094,142,137.33299255371094,129.33299255371094,118.6669921875,112,109.33300018310547,103.33300018310547,100.66699981689453,93.33300018310547],"timestamp_mouse":[8,21,52,61,81,101,121,141,162,182,201,222,241,261,283,304,322,342,361,381,401,421,441,461,482,501,522,541,561,581,602,623,642,661,681,701,721,741,761,782,801,821,841,861,881,902,922,942,962,982,1001,1022,1042,1061,1081,1102,1121,1141,1161,1182,1201,1222,1242,1261,1282,1302,1322,1342,1362,1383,1401,1421,1441,1461,1482,1504,1522,1542,1562,1584,1601,1621,1641,1661,1685,1708,1727,1741,1761,1782,1801,1822,1842,1861,1882,1902,1922,1941,1961,1981,2002,2021,2042,2061,2082,2101,2121,2142,2162,2183,2203,2223,2241,2262,2283],"xSR":350,"ySR":768,"xT1":30,"yT1":0,"xT2":670,"yT2":0,"toosoon":0,"cond_shown":"Incongruent","ratio_trial":300,"L_num":4,"L_den":5,"R_num":6,"R_den":12,"correct_side":1,"subjID":"410wm","gender":"No_gender","school":"No_school","age":"No_age"},{"start_time":1549381639958,"click_time":1549381642585,"finger_time":1549381641823,"fix_duration":1234.6748775932344,"trial":2,"RT":1865,"MT":762,"sideResp":2,"stimulus":[],"xmouse":[395.3330078125,395.3330078125,395.3330078125,395.3330078125,395.3330078125,395.3330078125,395,395,395,395,395,395,395,395,395,395,394.6669921875,394.6669921875,394.6669921875,394.6669921875,394.6669921875,394.6669921875,394.6669921875,394.6669921875,394.6669921875,394.6669921875,394.6669921875,394.6669921875,394.6669921875,394.6669921875,394.6669921875,394.6669921875,394.6669921875,394.6669921875,394.6669921875,394.6669921875,394.6669921875,394.6669921875,394.6669921875,394.6669921875,394.6669921875,394.6669921875,394,394,394,394,394,394,394,394,394,394,394,394,394,394,394,394,394,394,394,394,394,394,394,394,394,394,394,394,394,394,393.3330078125,393.3330078125,393.3330078125,393.3330078125,393.3330078125,393.3330078125,393.3330078125,393.3330078125,393.3330078125,393.3330078125,398,401,402.6669921875,404.6669921875,406,406,406,406,420,421.3330078125,424.6669921875,428,432,434.6669921875,439.3330078125,442,449.3330078125,460,463,470.6669921875,474,482,486,488.6669921875,493.3330078125,495,500,506,510,518,524,534,552,558,568.6669921875,580.6669921875,586.6669921875,602.6669921875,608.6669921875,624,631,654,668,675.3330078125,687,699.3330078125,706,717.3330078125,725.3330078125],"ymouse":[829.3330078125,829.3330078125,829.3330078125,829.3330078125,829.3330078125,829.3330078125,830,830,830,830,830,830,830,830,830,830,830.6669921875,830.6669921875,830.6669921875,830.6669921875,830.6669921875,830.6669921875,830.6669921875,830.6669921875,830.6669921875,830.6669921875,830.6669921875,830.6669921875,830.6669921875,830.6669921875,830.6669921875,830.6669921875,830.6669921875,830.6669921875,830.6669921875,830.6669921875,830.6669921875,830.6669921875,830.6669921875,830.6669921875,830.6669921875,830.6669921875,830,830,830,830,830,830,830,830,830,830,830,830,830,830,830,830,830,830,830,830,831,831,831,831,831,831,831,831,831,831,830.6669921875,830.6669921875,830.6669921875,830.6669921875,830.6669921875,830.6669921875,830.6669921875,830.6669921875,830.6669921875,830.6669921875,820,814,811.3330078125,806.6669921875,804,804,804,804,778,774.6669921875,767.3330078125,756,746,739.3330078125,725.3330078125,718,702.6669921875,675,666,649.3330078125,642,620,608,600.6669921875,586.6669921875,580,564,542,532,512,499,475,430,416,390.6669921875,363.3330078125,351.3330078125,313.3330078125,301.3330078125,276,262,229,206,194.66700744628906,176,153.33299255371094,141,114.6669921875,98.66699981689453],"timestamp_mouse":[18,54,65,85,105,125,146,166,185,205,225,245,265,285,306,326,345,365,385,405,426,445,466,486,505,526,546,565,586,606,625,646,665,685,705,726,746,765,785,805,825,845,865,886,905,925,946,966,986,1006,1026,1046,1066,1085,1105,1125,1145,1165,1185,1205,1226,1245,1266,1285,1306,1325,1346,1365,1386,1406,1426,1446,1465,1485,1506,1525,1546,1565,1587,1605,1626,1645,1665,1687,1706,1725,1746,1765,1785,1808,1826,1845,1865,1888,1908,1926,1946,1965,1985,2006,2025,2045,2066,2090,2106,2125,2146,2166,2185,2205,2225,2245,2265,2285,2306,2325,2346,2365,2386,2407,2425,2446,2466,2487,2505,2525,2545,2566,2586,2606,2626],"xSR":350,"ySR":768,"xT1":30,"yT1":0,"xT2":670,"yT2":0,"toosoon":0,"cond_shown":"Incongruent","ratio_trial":500,"L_num":7,"L_den":8,"R_num":9,"R_den":24,"correct_side":1,"subjID":"410wm","gender":"No_gender","school":"No_school","age":"No_age"},{"start_time":1549381648822,"click_time":1549381651244,"finger_time":1549381650606,"fix_duration":1034.0648800014296,"trial":3,"RT":1784,"MT":638,"sideResp":2,"stimulus":[],"xmouse":[388.6669921875,388.6669921875,388.6669921875,388.6669921875,388.6669921875,388.6669921875,388.6669921875,388.6669921875,388.6669921875,388.6669921875,388.6669921875,388.6669921875,388.6669921875,388.6669921875,388.6669921875,388.6669921875,389.3330078125,389.3330078125,389.3330078125,389.3330078125,389.3330078125,389.3330078125,389.3330078125,389.3330078125,389.3330078125,389.3330078125,389.3330078125,389.3330078125,389.3330078125,389.3330078125,389.3330078125,389.3330078125,389.3330078125,389.3330078125,389.3330078125,389.3330078125,390,390,390,390,390,390,390,390,390,390,390,390,390,390,390,390,390,390,390,390,390,390,390,390,390,390,390.6669921875,390.6669921875,390.6669921875,390.6669921875,390.6669921875,390.6669921875,390.6669921875,390.6669921875,390.6669921875,390.6669921875,392,392,392,392,392,392,394.6669921875,394.6669921875,394,394.6669921875,394.6669921875,395.3330078125,397.3330078125,398,399.3330078125,400.6669921875,405.3330078125,416,420,432.6669921875,440,459.3330078125,469.3330078125,496,514,522,539.3330078125,546,572.6669921875,579.3330078125,586.6669921875,600,610.6669921875,616.6669921875,630.6669921875,641.3330078125,645,654.6669921875,668.6669921875,673.3330078125,682.6669921875,685,694.6669921875,700.6669921875,703,708,712,714,716.6669921875,718],"ymouse":[834.6669921875,834.6669921875,834.6669921875,834.6669921875,834.6669921875,834.6669921875,834.6669921875,834.6669921875,834.6669921875,834.6669921875,834.6669921875,834.6669921875,834.6669921875,834.6669921875,834.6669921875,834.6669921875,834.6669921875,834.6669921875,834.6669921875,834.6669921875,834.6669921875,834.6669921875,834.6669921875,834.6669921875,834.6669921875,834.6669921875,834.6669921875,834.6669921875,834.6669921875,834.6669921875,834.6669921875,834.6669921875,834.6669921875,834.6669921875,834.6669921875,834.6669921875,834,834,834,834,834,834,834,834,834,834,834,834,834,834,834,834,834,834,834,834,834,834,834,834,834,834,834.6669921875,834.6669921875,834.6669921875,834.6669921875,834.6669921875,834.6669921875,834.6669921875,834.6669921875,834.6669921875,834.6669921875,828,828,828,828,828,828,817.3330078125,815.3330078125,814,813.3330078125,811.3330078125,809.3330078125,805.3330078125,803,799.3330078125,796.6669921875,787.3330078125,767,760,738.6669921875,724,691.3330078125,675.3330078125,626,590,572,532.6669921875,515,443.3330078125,424.6669921875,407.3330078125,372,339.3330078125,323.3330078125,281.3330078125,258.6669921875,248,227.33299255371094,196.66700744628906,187.33299255371094,172.66700744628906,166,146.66700744628906,137.33299255371094,132,121,113,109,100.66699981689453,95],"timestamp_mouse":[1,35,41,61,81,102,121,141,161,181,202,221,241,261,281,301,321,342,361,381,401,422,442,461,482,501,521,542,561,581,601,621,641,661,682,701,721,742,761,781,801,821,842,862,883,901,921,941,962,982,1001,1021,1042,1061,1082,1101,1121,1142,1161,1181,1201,1222,1242,1261,1282,1301,1321,1342,1361,1381,1401,1422,1441,1461,1482,1503,1521,1541,1561,1584,1601,1622,1642,1662,1684,1701,1721,1741,1761,1784,1803,1822,1841,1862,1881,1901,1922,1941,1961,1981,2002,2021,2042,2061,2081,2103,2121,2141,2162,2181,2201,2222,2241,2261,2284,2303,2321,2342,2362,2381,2401,2422],"xSR":350,"ySR":768,"xT1":30,"yT1":0,"xT2":670,"yT2":0,"toosoon":0,"cond_shown":"Congruent","ratio_trial":300,"L_num":1,"L_den":30,"R_num":8,"R_den":24,"correct_side":2,"subjID":"410wm","gender":"No_gender","school":"No_school","age":"No_age"},{"start_time":1549381654451,"click_time":1549381656667,"finger_time":1549381656184,"fix_duration":1144.3889510823524,"trial":4,"RT":1733,"MT":483,"sideResp":1,"stimulus":[],"xmouse":[391,391,391,391,391,391,391,391,391,391,391,391,391,391,391,391,391,391,391,391,391,391,391,391,391,391,391,391,391,391,391,391,391,391,391,391,391,391,391,391,391,391,391,391,391,391,391,391,391,391,391,391,391,391,391,391,391,391,391,391,391,391,391,391,391,391,391,391,391,391,391,391,391,396.6669921875,396.6669921875,396,396,396,396,396,396,396,396,383.3330078125,376.6669921875,374,370,367,360,343,330.6669921875,324,309.3330078125,300,273.3330078125,254,244,224.66700744628906,216,197.33299255371094,170.66700744628906,162,147,140,128,113.33300018310547,109,102,98,92,87.33300018310547],"ymouse":[842,842,842,842,842,842,842,842,842,842,842,842,842,842,842,842,842,842,842,842,842,842,842,842,842,842,842,842,842,842,842,842,842,842,842,842,842,842,842,842,842,842,842,842,842,842,842,842,842,842,842,842,842,842,842,842,842,842,842,842,842,842,842,842,842,842,842,842,842,842,842,842,842,835.3330078125,835.3330078125,835,835,835,835,835,835,835,835,804.6669921875,786.6669921875,779,766,756,728,680,648.6669921875,632,599.3330078125,582,530.6669921875,496,477,442.6669921875,426,391.3330078125,338.6669921875,322,290,274,242,198.66700744628906,186,160,148,126,95.33300018310547],"timestamp_mouse":[15,50,52,73,92,113,133,153,172,192,213,233,253,272,293,313,332,353,372,392,413,433,453,473,493,513,533,553,573,593,612,633,652,672,693,713,732,753,773,793,813,832,853,873,893,913,933,952,972,993,1012,1033,1053,1072,1092,1113,1132,1152,1172,1192,1212,1232,1253,1273,1292,1313,1333,1352,1373,1392,1413,1432,1453,1480,1492,1512,1532,1552,1573,1592,1613,1635,1653,1672,1693,1712,1732,1753,1772,1794,1814,1833,1852,1872,1894,1912,1932,1952,1973,1992,2014,2032,2052,2072,2092,2114,2132,2152,2172,2193,2215],"xSR":350,"ySR":768,"xT1":30,"yT1":0,"xT2":670,"yT2":0,"toosoon":0,"cond_shown":"Incongruent","ratio_trial":500,"L_num":7,"L_den":21,"R_num":5,"R_den":6,"correct_side":2,"subjID":"410wm","gender":"No_gender","school":"No_school","age":"No_age"},{"start_time":1549381659016,"click_time":1549381661003,"finger_time":1549381660485,"fix_duration":250,"trial":5,"RT":1469,"MT":518,"sideResp":2,"stimulus":[],"xmouse":[402,402,402,402,402,402,402,402,402,402,402,402,402,402,402,402,402,402,402,402,402,402,402,402,402,402,402,402,402,402,402,402,402,402,402,402,402,402,402,402,402,402,402,402,402,402,402,402,402,402,402,402,402,402,402,402,402,402,402,402,402,402,402,402,402,402,402,402,406,406,406,406,436.6669921875,444,460,467.3330078125,484,504,510,524,530.6669921875,546,568,575,588,595.3330078125,606.6669921875,622.6669921875,628,636.6669921875,642,650.6669921875,662,668,672,677,680,687.3330078125,691.3330078125],"ymouse":[817,817,817,817,817,817,817,817,817,817,817,817,817,817,817,817,817,817,817,817,817,817,817,817,817,817,817,817,817,817,817,817,817,817,817,817,817,817,817,817,817,817,817,817,817,817,817,817,817,817,817,817,817,817,817,817,817,817,817,817,817,817,817,817,817,817,817,817,808,808,808,808,722.6669921875,706,672,654.6669921875,618,564,546,508,489.3330078125,448,390,372,336,318.6669921875,286.6669921875,245.3330078125,232,206.66700744628906,194,175.33299255371094,149,136,130,120,114,100.66699981689453,91.33300018310547],"timestamp_mouse":[10,27,47,67,87,108,128,148,167,187,208,227,278,287,307,327,348,367,387,407,428,448,468,488,507,527,548,567,588,608,627,648,668,687,707,727,748,768,788,807,828,848,868,888,907,927,947,967,987,1007,1027,1047,1067,1087,1107,1127,1148,1167,1188,1208,1227,1248,1268,1288,1308,1328,1348,1367,1390,1407,1427,1447,1469,1487,1508,1527,1547,1568,1588,1607,1627,1648,1668,1687,1708,1727,1748,1773,1790,1809,1827,1848,1871,1889,1908,1927,1947,1970,1987],"xSR":350,"ySR":768,"xT1":30,"yT1":0,"xT2":670,"yT2":0,"toosoon":0,"cond_shown":"Congruent","ratio_trial":500,"L_num":3,"L_den":12,"R_num":15,"R_den":20,"correct_side":2,"subjID":"410wm","gender":"No_gender","school":"No_school","age":"No_age"},{"start_time":1549381663523,"click_time":1549381668243,"finger_time":1549381666343,"fix_duration":666.8633510511524,"trial":6,"RT":2820,"MT":1900,"sideResp":2,"stimulus":[],"xmouse":[396,396,396,396,396,396,396,396,396,396,396,396,396,396,396,396,396,396,396,396,396,396,396,396,396,396,396,396,396,396,396,396,396,396,396,396,396,396,396,396,396,396,396,396,396,396,396,396,396,396,396,396,396,396,396,396,396,396,396,396,396,396,396,396,396,396,396,396,396,396,396,396,396,396,396,396,396,396,400,400,400,400,400,400,400,400,400,400,400,400,400,400,400,400,395.3330078125,395,395.3330078125,394.6669921875,394,394.6669921875,394,394.6669921875,394,394.6669921875,394,394.6669921875,395,395.3330078125,394.6669921875,394.6669921875,394.6669921875,394.6669921875,394,394.6669921875,394.6669921875,394,394.6669921875,395,395.3330078125,395.3330078125,396,396,396,396,396,396,396,396,396.6669921875,397.3330078125,397,398,398,398,398.6669921875,398,399.3330078125,399,399.3330078125,400,400,400,400,400,400,400,400,400,400,401,401,402,402,402,402.6669921875,402.6669921875,402.6669921875,402.6669921875,402.6669921875,402.6669921875,402.6669921875,402.6669921875,402.6669921875,402.6669921875,405.3330078125,405.3330078125,405.3330078125,405.3330078125,405.3330078125,405.3330078125,405.3330078125,405.3330078125,405.3330078125,405.3330078125,406,406,406,406,406,406,406,406,406,406,406.6669921875,406.6669921875,406.6669921875,406.6669921875,406.6669921875,406.6669921875,406.6669921875,406.6669921875,406.6669921875,406.6669921875,407.3330078125,407.3330078125,407.3330078125,407.3330078125,407.3330078125,407.3330078125,407.3330078125,409,410,412,413,425.3330078125,438.6669921875,445.3330078125,456,462,472,478.6669921875,482,490,506,511,520.6669921875,524,535.3330078125,545,550,566,578,582,595.3330078125,614,621.3330078125,635.3330078125,642,656,674.6669921875,681.3330078125,693.3330078125,699.3330078125,712,725.3330078125],"ymouse":[837,837,837,837,837,837,837,837,837,837,837,837,837,837,837,837,837,837,837,837,837,837,837,837,837,837,837,837,837,837,837,837,837,837,837,837,837,837,837,837,837,837,837,837,837,837,837,837,837,837,837,837,837,837,837,837,837,837,837,837,837,837,837,837,837,837,837,837,837,837,837,837,837,837,837,837,837,837,830,829,829,829,829,829,828,828,828,828,828,828,828,828,828,828,822.6669921875,822,821.3330078125,820.6669921875,820,818.6669921875,818,817.3330078125,816,815.3330078125,814,812.6669921875,812,811.3330078125,810.6669921875,808.6669921875,807.3330078125,806.6669921875,806,804.6669921875,802.6669921875,802,800.6669921875,800,798.6669921875,797.3330078125,796,796,795,793,792,791,789,787,786.6669921875,782.6669921875,780,778,776,776,773.3330078125,772,771.3330078125,770,769.3330078125,768,767,766,766,766,765,764,764,764,764,764,764,764,764,764,764.6669921875,764.6669921875,764.6669921875,764.6669921875,764.6669921875,764.6669921875,764.6669921875,764.6669921875,764.6669921875,764.6669921875,766.6669921875,766.6669921875,766.6669921875,766.6669921875,766.6669921875,766.6669921875,766.6669921875,766.6669921875,766.6669921875,766.6669921875,768,768,768,768,768,768,768,768,768,768,769.3330078125,769.3330078125,769.3330078125,769.3330078125,769.3330078125,769.3330078125,769.3330078125,769.3330078125,769.3330078125,769.3330078125,769.3330078125,769.3330078125,769.3330078125,769.3330078125,769.3330078125,769.3330078125,769.3330078125,756,753,747,744,720.6669921875,696.6669921875,686.6669921875,668,658,639,625.3330078125,616,590,540,526,501.3330078125,488,462.6669921875,438,424,386,362,350,325.3330078125,288,275.3330078125,250.6669921875,239,215,182.66700744628906,171.33299255371094,149.33299255371094,138.66700744628906,117,90.66699981689453],"timestamp_mouse":[3,40,61,81,100,120,140,160,181,200,220,240,260,280,301,320,341,361,381,400,421,440,460,480,501,521,541,561,580,601,620,640,660,680,700,721,741,761,781,801,821,841,861,880,901,920,940,960,980,1000,1020,1040,1060,1080,1100,1120,1141,1160,1181,1201,1220,1240,1261,1280,1300,1320,1341,1361,1381,1401,1420,1440,1460,1480,1500,1521,1541,1560,1581,1603,1621,1640,1660,1680,1703,1721,1740,1760,1780,1800,1820,1841,1861,1881,1900,1920,1940,1960,1981,2000,2020,2040,2060,2080,2101,2121,2141,2160,2181,2202,2221,2240,2260,2280,2301,2320,2341,2361,2380,2401,2421,2440,2460,2485,2503,2520,2540,2560,2580,2601,2620,2640,2660,2680,2702,2720,2741,2760,2780,2802,2820,2841,2860,2881,2901,2923,2941,2960,2981,3001,3021,3040,3060,3080,3102,3120,3140,3160,3180,3201,3220,3241,3260,3280,3300,3321,3341,3360,3381,3400,3421,3440,3460,3481,3500,3520,3540,3560,3581,3600,3621,3641,3661,3680,3701,3720,3740,3761,3781,3800,3820,3840,3861,3881,3900,3920,3940,3960,3980,4000,4020,4040,4061,4080,4100,4121,4141,4161,4181,4200,4220,4241,4260,4281,4302,4322,4341,4361,4380,4401,4420,4440,4461,4480,4501,4523,4540,4560,4580,4600,4622,4640,4660,4681,4700,4720],"xSR":350,"ySR":768,"xT1":30,"yT1":0,"xT2":670,"yT2":0,"toosoon":0,"cond_shown":"Congruent","ratio_trial":500,"L_num":3,"L_den":10,"R_num":4,"R_den":5,"correct_side":2,"subjID":"410wm","gender":"No_gender","school":"No_school","age":"No_age"},{"start_time":1549381670518,"click_time":1549381672624,"finger_time":1549381671864,"fix_duration":517.6325343201726,"trial":7,"RT":1346,"MT":760,"sideResp":2,"stimulus":[],"xmouse":[381,381,381,382,382,382,382,382,382.6669921875,382.6669921875,382.6669921875,382.6669921875,382.6669921875,382.6669921875,382.6669921875,382.6669921875,382.6669921875,382.6669921875,383.3330078125,383.3330078125,383.3330078125,383.3330078125,383.3330078125,383.3330078125,383.3330078125,383.3330078125,383,383,383,383,384,384,384,384,384,384,384,384,384,384,384,384,384,384,384.6669921875,384.6669921875,384.6669921875,384.6669921875,384.6669921875,384.6669921875,384.6669921875,384.6669921875,384.6669921875,384,384.6669921875,384.6669921875,384.6669921875,384,384,384,384,384,384,384,384,384,417,425.3330078125,428,433.3330078125,435.3330078125,439.3330078125,442.6669921875,445.3330078125,450,454,465.3330078125,477.3330078125,484,497,503.3330078125,516.6669921875,533.3330078125,540,553.3330078125,566.6669921875,574,592,604,608,618,634,640,650.6669921875,656,665.3330078125,670,688,691.3330078125,694.6669921875,701.3330078125,710,714,716,720],"ymouse":[824,824,824,824,824,824,824,824,824.6669921875,824.6669921875,824.6669921875,824.6669921875,824.6669921875,824.6669921875,824.6669921875,824.6669921875,824.6669921875,824.6669921875,824.6669921875,824.6669921875,824.6669921875,824.6669921875,824.6669921875,824.6669921875,824.6669921875,824.6669921875,824,824,824,824,824,824,824,824,824,824,823,823,823,823,823,823,823,823,823.3330078125,823.3330078125,823.3330078125,823.3330078125,823.3330078125,823.3330078125,823.3330078125,823.3330078125,822.6669921875,822,821.3330078125,820.6669921875,818.6669921875,818,816,816,816,816,816,816,816,816,718,697.3330078125,690,677.3330078125,672.6669921875,658.6669921875,646.6669921875,639.3330078125,624,616,589.3330078125,561.3330078125,545,516,502.6669921875,477.3330078125,442.6669921875,431,408.6669921875,386.6669921875,374,344,324,316,296,266,254,234.66700744628906,225,203.33299255371094,194,160,151.33299255371094,143.33299255371094,131.33299255371094,113,105,101,94],"timestamp_mouse":[11,57,66,85,106,126,146,166,185,205,225,245,265,285,305,325,345,365,386,406,425,446,466,485,506,526,546,566,585,605,625,645,666,685,705,726,748,765,785,806,825,845,865,886,907,926,946,965,986,1005,1025,1045,1066,1085,1105,1125,1145,1165,1186,1205,1226,1246,1265,1285,1305,1326,1346,1367,1385,1405,1426,1448,1465,1485,1505,1526,1546,1565,1586,1605,1626,1645,1665,1685,1705,1725,1745,1768,1785,1805,1825,1848,1866,1885,1905,1925,1945,1967,1985,2006,2025,2045,2065,2085,2106],"xSR":350,"ySR":768,"xT1":30,"yT1":0,"xT2":670,"yT2":0,"toosoon":0,"cond_shown":"Congruent","ratio_trial":300,"L_num":1,"L_den":30,"R_num":8,"R_den":24,"correct_side":2,"subjID":"410wm","gender":"No_gender","school":"No_school","age":"No_age"},{"start_time":1549381674376,"click_time":1549381678364,"finger_time":1549381676045,"fix_duration":250,"trial":8,"RT":1669,"MT":2319,"sideResp":1,"stimulus":[],"xmouse":[392,392,392,392,392,392,392,392,392,392,392,392,392,392,392,392,392,392,392,392,392,392,392,392,392,392,392,392,392,392,392,392,392,390,390,390,390,390,390,390,390,390,390,390,390,390,390,390,390,390,390,390,390,390,390,390,390,390,390,390,390,390,390,390,390,390,390,390,390,390,390,390,390,388,388,386,383.3330078125,382,380,376,374.6669921875,372,370.6669921875,367,366,360,358.6669921875,356,355.3330078125,354.6669921875,353.3330078125,353,354,354,354,356.6669921875,356.6669921875,356.6669921875,356.6669921875,356.6669921875,356.6669921875,356.6669921875,356.6669921875,356.6669921875,356.6669921875,356,356,356,352.6669921875,350,347.3330078125,346,344,344,343,344,345,346.6669921875,348,348,348,348,348,348,348,348,348,348,358.6669921875,359,362,364,365,368.6669921875,370,375,380,382,388,390.6669921875,398.6669921875,402.6669921875,404,408,409.3330078125,412.6669921875,414,414,414.6669921875,414.6669921875,415,415,415.3330078125,416,416,416,416,416,416,416,416,416,416,411.3330078125,411.3330078125,411.3330078125,395.3330078125,388,384,375.3330078125,361.3330078125,354.6669921875,340.6669921875,333.3330078125,320,300,293.3330078125,280,273.3330078125,260,242,236,225.33299255371094,218.66700744628906,210,204.66700744628906,191.33299255371094,184,180,173.33299255371094,162,158,150,147,141.33299255371094,134.66700744628906,133.33299255371094,130,129.33299255371094],"ymouse":[819,819,819,819,819,819,819,819,819,819,819,819,819,819,819,819,819,819,819,819,819,819,819,819,819,819,819,819,819,819,819,819,819,830,830,830,830,830,830,830,830,830,830,830,830,830,830,830,830,830,830,830,830,830,830,830,830,830,830,830,830,830,830,830,830,830,830,830,830,830,830,830,830,821,821,814,807.3330078125,804,794,781,776.6669921875,769,765.3330078125,758,754,739,735.3330078125,728,724.6669921875,718.6669921875,713.3330078125,712,710,710,710,710.6669921875,710.6669921875,710.6669921875,710.6669921875,710.6669921875,710.6669921875,710.6669921875,710.6669921875,710.6669921875,710.6669921875,710,710,710,706.6669921875,704,699.3330078125,697,694,692,690,688,688,688.6669921875,688,688,688,688,688,688,688,688,688,688,706.6669921875,708,712,716,718,722.6669921875,724,734,741,746,754,758.6669921875,770.6669921875,777.3330078125,780,784,786.6669921875,790.6669921875,792,792,793.3330078125,793.3330078125,794,794,793.3330078125,793,793,793,793,793,793,793,793,793,793,785.3330078125,785.3330078125,785.3330078125,759.3330078125,746,739,723.3330078125,697.3330078125,684.6669921875,653.3330078125,638.6669921875,612,570,555.3330078125,525,509.3330078125,476,429,412,378.6669921875,361.3330078125,329,312.6669921875,264.6669921875,234,220,192.66700744628906,154,141,120,112,97.33300018310547,82.66699981689453,78.66699981689453,70,66.66699981689453],"timestamp_mouse":[14,52,67,88,107,127,148,168,187,207,227,247,268,287,308,328,347,367,388,407,428,448,467,487,507,528,548,568,587,607,627,648,667,694,707,727,747,768,788,807,827,847,867,887,910,927,948,968,988,1008,1028,1047,1067,1087,1108,1127,1148,1167,1187,1207,1227,1247,1268,1287,1307,1328,1348,1368,1387,1407,1428,1447,1467,1491,1507,1529,1548,1568,1588,1610,1627,1647,1669,1687,1707,1729,1747,1767,1787,1808,1830,1847,1867,1888,1908,1929,1948,1968,1987,2007,2027,2047,2068,2088,2108,2134,2147,2167,2188,2207,2229,2247,2268,2287,2307,2327,2348,2367,2387,2409,2428,2448,2468,2488,2508,2530,2549,2568,2588,2607,2629,2648,2667,2687,2707,2728,2748,2767,2787,2807,2829,2848,2868,2887,2908,2928,2947,2967,2987,3007,3029,3048,3067,3087,3108,3127,3147,3167,3187,3208,3227,3248,3268,3288,3307,3327,3348,3368,3387,3408,3428,3447,3467,3487,3508,3529,3548,3567,3587,3607,3628,3647,3667,3687,3708,3727,3749,3767,3788,3807,3831,3848,3867,3887,3908,3929,3948,3968,3987],"xSR":350,"ySR":768,"xT1":30,"yT1":0,"xT2":670,"yT2":0,"toosoon":0,"cond_shown":"Congruent","ratio_trial":100,"L_num":11,"L_den":22,"R_num":4,"R_den":10,"correct_side":1,"subjID":"410wm","gender":"No_gender","school":"No_school","age":"No_age"},{"start_time":1549381680955,"click_time":1549381683023,"finger_time":1549381682345,"fix_duration":350.8441199439429,"trial":9,"RT":1390,"MT":678,"sideResp":1,"stimulus":[],"xmouse":[394,394,394,394,394,394,394,394,394,394,394,394,394,394,394,394,394,394,394,394,394,394,394,394,394,394,394,394,394,394,394,394,394,394,394,394,394,394,394,394,394,394,394,394,394,394,394,394,394,394,394,394,394,394,394,388,388,388,388,388,388,388,378,378,376,373,371.3330078125,367.3330078125,364.6669921875,353.3330078125,346,342,332.6669921875,323.3330078125,300,290.6669921875,274.6669921875,252,252,229.33299255371094,222.66700744628906,208,201.33299255371094,187.33299255371094,168.66700744628906,162.66700744628906,151,146.66700744628906,138,126,122.66699981689453,116.66699981689453,113.33300018310547,108,102.66699981689453,100,98.66699981689453,98,96,94,94,93,92,92],"ymouse":[829,829,829,829,829,829,829,829,829,829,829,829,829,829,829,829,829,829,829,829,829,829,829,829,829,829,829,829,829,829,829,829,829,829,829,829,829,829,829,829,829,829,829,829,829,829,829,829,829,829,829,829,829,829,829,822,820,820,820,820,820,820,808,806,802,798,795.3330078125,787.3330078125,781.3330078125,758.6669921875,744,736,716.6669921875,697.3330078125,653,636.6669921875,607.3330078125,562,562,514.6669921875,498.6669921875,466,452.6669921875,420.6669921875,372.6669921875,356.6669921875,326,310.6669921875,279,236,223.33299255371094,199.33299255371094,188.66700744628906,169,144.66700744628906,140,131.33299255371094,126,118,110,108,104,102,98],"timestamp_mouse":[13,39,48,68,88,109,129,148,168,189,208,228,248,269,289,309,329,349,368,388,408,429,449,468,489,508,529,549,569,588,609,629,649,669,688,708,729,748,769,789,808,828,849,869,889,909,929,948,970,988,1008,1028,1048,1068,1089,1108,1128,1148,1169,1189,1208,1229,1248,1268,1289,1309,1329,1349,1368,1390,1408,1429,1448,1469,1489,1508,1530,1563,1568,1591,1608,1629,1648,1668,1690,1708,1728,1749,1768,1793,1808,1829,1849,1870,1893,1908,1928,1949,1970,1989,2009,2029,2049,2068],"xSR":350,"ySR":768,"xT1":30,"yT1":0,"xT2":670,"yT2":0,"toosoon":0,"cond_shown":"Congruent","ratio_trial":500,"L_num":20,"L_den":24,"R_num":3,"R_den":9,"correct_side":1,"subjID":"410wm","gender":"No_gender","school":"No_school","age":"No_age"},{"start_time":1549381685422,"click_time":1549381687283,"finger_time":1549381686685,"fix_duration":316.5194403410644,"trial":10,"RT":1263,"MT":598,"sideResp":2,"stimulus":[],"xmouse":[406,406,406,406,406,406,406,406,406,406,406,406,406,406,406,406,406,406,406,406,406,406,406,406,406,406,406,406,406,406,406,406,406,406,406,406,406,406,406,406,406,406,406,406,406,406,406,406,406,406,406,406,406,406,406,406,406,400,400,400,400,400,400,431,446,466,473,488.6669921875,506,510.6669921875,519,522,542.6669921875,548.6669921875,558,562,574.6669921875,592.6669921875,598,606,610,622,628.6669921875,646,657.3330078125,663,677.3330078125,686,694.6669921875,697.3330078125,704,708,714,720],"ymouse":[826,826,826,826,826,826,826,826,826,826,826,826,826,826,826,826,826,826,826,826,826,826,826,826,826,826,826,826,826,826,826,826,826,826,826,826,826,826,826,826,826,826,826,826,826,826,826,826,826,826,826,826,826,826,826,826,826,820,818,818,818,818,818,764,745,716,704,681.3330078125,650,641.3330078125,622,612,562.6669921875,549.3330078125,524,512,484.6669921875,439.3330078125,426,402,388,360,345.3330078125,303,277.3330078125,262,233.33299255371094,206,174.66700744628906,162.66700744628906,142,130,110,88],"timestamp_mouse":[2,21,42,62,81,101,122,142,161,182,202,221,241,261,282,301,322,342,362,381,401,421,441,461,481,502,522,542,561,582,601,622,642,662,682,702,722,741,761,782,802,822,841,861,881,902,922,941,961,982,1001,1022,1042,1062,1081,1101,1122,1142,1164,1181,1202,1221,1242,1263,1282,1301,1322,1342,1362,1381,1401,1422,1444,1462,1482,1501,1522,1542,1561,1583,1602,1622,1641,1663,1682,1701,1721,1741,1763,1781,1801,1821,1841,1861],"xSR":350,"ySR":768,"xT1":30,"yT1":0,"xT2":670,"yT2":0,"toosoon":0,"cond_shown":"Incongruent","ratio_trial":200,"L_num":7,"L_den":10,"R_num":8,"R_den":16,"correct_side":1,"subjID":"410wm","gender":"No_gender","school":"No_school","age":"No_age"},{"start_time":1549381689450,"click_time":1549381691504,"finger_time":1549381690887,"fix_duration":823.4545428112921,"trial":11,"RT":1437,"MT":617,"sideResp":2,"stimulus":[],"xmouse":[389,389,389,389,389,388,388,388,388,388,388,388,388,388,388,389,389,389,389,389,389,389,389,389,389,389,389,389,389,389,389,389,389,389,389,389,390,390,390,390,390,390,390,390,390,390,390,390,390,390,390,390,390,390,390,390,390,390,390,390,390,390,390.6669921875,390.6669921875,390.6669921875,390.6669921875,391,391.3330078125,396,404,424,442.6669921875,450,453,458.6669921875,461,473,484,490,500,504,516,533,540,552,560,573.3330078125,590.6669921875,597,608.6669921875,621.3330078125,627,642,652,658,666.6669921875,671.3330078125,683.3330078125,688,691,698.6669921875,704,711.3330078125],"ymouse":[840,840,840,840,840,840,840,840,840,840,840,840,840,840,840,840,840,840,840,840,840,840,840,840,840,840,840,840,840,840,840,840,840,840,840,840,840,840,840,840,840,840,840,840,840,840,840,840,840,840,840,840,840,840,840,840,840,840,840,840,840,840,839.3330078125,839.3330078125,839.3330078125,839.3330078125,834,832.6669921875,822,806,772,737.3330078125,721,714,701.3330078125,694,662,636,623,597,584,558,520,506,480,465,439.3330078125,399.3330078125,384,355.3330078125,327.3330078125,314,276,250,236,212.66700744628906,199.33299255371094,165.33299255371094,144,136,115.3330078125,104,82.66699981689453],"timestamp_mouse":[15,44,53,73,93,114,133,153,173,193,213,233,254,273,293,313,333,353,374,394,413,434,454,474,493,514,533,553,573,594,614,633,654,673,694,713,734,753,774,794,814,833,854,874,893,913,934,954,973,994,1013,1034,1055,1073,1093,1113,1133,1153,1173,1193,1214,1233,1254,1273,1293,1313,1336,1353,1373,1394,1413,1437,1458,1475,1493,1514,1535,1555,1573,1594,1613,1633,1656,1675,1693,1713,1734,1756,1774,1793,1814,1835,1857,1873,1894,1913,1934,1958,1974,1993,2013,2033,2054],"xSR":350,"ySR":768,"xT1":30,"yT1":0,"xT2":670,"yT2":0,"toosoon":0,"cond_shown":"Incongruent","ratio_trial":200,"L_num":1,"L_den":2,"R_num":3,"R_den":10,"correct_side":1,"subjID":"410wm","gender":"No_gender","school":"No_school","age":"No_age"},{"start_time":1549381695149,"click_time":1549381697526,"finger_time":1549381697124,"fix_duration":1443.724996258919,"trial":12,"RT":1975,"MT":402,"sideResp":1,"stimulus":[],"xmouse":[402,402,402,402,402,402,402,402,402,402,402,402,402,402,402,402,402,402,402,402,402,402,402,402,402,402,402,402,402,402,402,402,402,402,402,402,402,402,402,402,402,402,402,402,402,402,402,402,402,402,402,402,402,402,402,402,402,402,402,402,402,402,402,402,402,402,402,402,402,402,402,402,402,402,402,402,402,402,402,402,406.6669921875,406.6669921875,406.6669921875,406.6669921875,406.6669921875,406.6669921875,406.6669921875,406.6669921875,406.6669921875,406.6669921875,406.6669921875,406.6669921875,404,404,404,404,388,380.6669921875,368,346,338.6669921875,324,316.6669921875,300.6669921875,276.6669921875,268,249,239.33299255371094,218.66700744628906,185,176,156,141.33299255371094,132,113.33300018310547,108,99,96,92],"ymouse":[830,830,830,830,830,830,830,830,830,830,830,830,830,830,830,830,830,830,830,830,830,830,830,830,830,830,830,830,830,830,830,830,830,830,830,830,830,830,830,830,830,830,830,830,830,830,830,830,830,830,830,830,830,830,830,830,830,830,830,830,830,830,830,830,830,830,830,830,830,830,830,830,830,830,830,830,830,830,830,830,823.3330078125,823.3330078125,822.6669921875,822.6669921875,822.6669921875,822.6669921875,822.6669921875,822.6669921875,822.6669921875,822.6669921875,822.6669921875,822.6669921875,819,819,819,819,792,775.3330078125,748,702,687.3330078125,652,631.3330078125,585.3330078125,506.6669921875,480,430,406.6669921875,359.3330078125,296,276,238,204.66700744628906,188,145.33299255371094,133,112,102,87],"timestamp_mouse":[15,49,54,75,95,115,135,154,175,195,214,235,255,274,294,315,335,354,374,395,415,435,455,475,495,514,535,555,575,595,615,634,655,675,694,715,735,755,775,795,814,834,854,875,895,915,934,954,974,995,1015,1034,1054,1075,1094,1115,1135,1154,1175,1195,1214,1235,1255,1274,1295,1314,1334,1355,1374,1395,1415,1434,1454,1475,1495,1514,1534,1555,1574,1594,1615,1634,1655,1675,1695,1714,1734,1754,1774,1794,1815,1834,1855,1874,1895,1915,1935,1954,1975,1997,2015,2035,2054,2074,2096,2114,2135,2154,2174,2194,2215,2234,2255,2274,2297,2314,2334,2354,2374],"xSR":350,"ySR":768,"xT1":30,"yT1":0,"xT2":670,"yT2":0,"toosoon":0,"cond_shown":"Incongruent","ratio_trial":200,"L_num":7,"L_den":15,"R_num":6,"R_den":9,"correct_side":2,"subjID":"410wm","gender":"No_gender","school":"No_school","age":"No_age"},{"start_time":1549381699202,"click_time":1549381701285,"finger_time":1549381700904,"fix_duration":250,"trial":13,"RT":1702,"MT":381,"sideResp":1,"stimulus":[],"xmouse":[405.3330078125,404,404,404,404,404,404,406,406.6669921875,407.3330078125,407.3330078125,406.6669921875,406.6669921875,406.6669921875,406.6669921875,406.6669921875,406.6669921875,406.6669921875,406.6669921875,406.6669921875,406.6669921875,406.6669921875,401.3330078125,401.3330078125,401.3330078125,401.3330078125,401.3330078125,401.3330078125,401.3330078125,401.3330078125,401.3330078125,401.3330078125,398,397.3330078125,396,396,396,395.3330078125,396,396,396,396.6669921875,396.6669921875,396.6669921875,396.6669921875,396.6669921875,396.6669921875,396.6669921875,396.6669921875,396.6669921875,396.6669921875,396.6669921875,396.6669921875,396.6669921875,396.6669921875,396.6669921875,396.6669921875,396.6669921875,396.6669921875,396.6669921875,396.6669921875,397.3330078125,397.3330078125,397.3330078125,397.3330078125,397.3330078125,397.3330078125,397.3330078125,397.3330078125,397.3330078125,397.3330078125,396,396,396,396,396,396,393.3330078125,393,391.3330078125,390.6669921875,388,381,376.6669921875,364,364,344.6669921875,338,316.6669921875,300,284,274,246.66700744628906,226,216.66700744628906,197,188,162,146.66700744628906,139.33299255371094,126,120.6669921875,108,93.33300018310547],"ymouse":[828.6669921875,828,828,828,828,828,828,828,828.6669921875,828.6669921875,828.6669921875,827.3330078125,827.3330078125,827.3330078125,827.3330078125,827.3330078125,827.3330078125,827.3330078125,827.3330078125,827.3330078125,827.3330078125,827.3330078125,825.3330078125,825.3330078125,825.3330078125,825.3330078125,825.3330078125,825.3330078125,825.3330078125,825.3330078125,825.3330078125,825.3330078125,822,822.6669921875,822,821,821,820.6669921875,820,820,820,821.3330078125,821.3330078125,821.3330078125,821.3330078125,821.3330078125,821.3330078125,821.3330078125,821.3330078125,821.3330078125,821.3330078125,820.6669921875,820.6669921875,820.6669921875,820.6669921875,820.6669921875,820.6669921875,820.6669921875,820.6669921875,820.6669921875,820.6669921875,821.3330078125,821.3330078125,821.3330078125,821.3330078125,821.3330078125,821.3330078125,821.3330078125,821.3330078125,821.3330078125,821.3330078125,819,819,819,819,819,819,816.6669921875,816,814.6669921875,813.3330078125,808,788,775.3330078125,744,744,697.3330078125,682,631.3330078125,594,552,530,470.6669921875,430,409.3330078125,368,347,284,240.6669921875,218.66700744628906,176,155.33299255371094,122,84.66699981689453],"timestamp_mouse":[2,51,61,81,101,121,141,161,181,201,221,246,261,281,302,322,342,362,381,401,421,442,461,481,501,521,541,562,581,601,622,641,662,682,701,721,741,761,782,801,822,842,861,881,901,921,942,962,981,1002,1022,1041,1062,1082,1101,1122,1141,1161,1181,1202,1221,1241,1262,1282,1301,1321,1341,1363,1382,1401,1422,1441,1462,1482,1502,1522,1541,1563,1581,1602,1622,1641,1663,1684,1702,1722,1741,1761,1781,1801,1822,1841,1863,1882,1901,1922,1942,1963,1982,2001,2021,2041,2061,2082],"xSR":350,"ySR":768,"xT1":30,"yT1":0,"xT2":670,"yT2":0,"toosoon":0,"cond_shown":"Incongruent","ratio_trial":100,"L_num":10,"L_den":25,"R_num":8,"R_den":16,"correct_side":2,"subjID":"410wm","gender":"No_gender","school":"No_school","age":"No_age"},{"start_time":1549381703960,"click_time":1549381707464,"finger_time":1549381706044,"fix_duration":633.8968679498192,"trial":14,"RT":2084,"MT":1420,"sideResp":2,"stimulus":[],"xmouse":[408,408,408,408,408,408,408,408,408,408,408,408,408,408,408,408,408,408,408,408,408,408,408,408,408,408,408,408,408,408,408,408,408,408,408,408,408,408,408,408,408,408,408,408,408,408,408,408,408,408,408,408,408,408,408,408,408,408,408,408,408,408,408,408,408,408,408,408,408,408,408,408,408,408,408,408,408,408,408,408,408,408,408,408,408,408,408,408,408,408,408,408,408,408,408,408,408,402.6669921875,400,400,396.6669921875,392,390,387.3330078125,386,383,380,379.3330078125,378,377.3330078125,378,379.3330078125,379.3330078125,379.3330078125,379.3330078125,379.3330078125,379.3330078125,379.3330078125,379.3330078125,379.3330078125,379.3330078125,379.3330078125,385.3330078125,385,386,386,387,389.3330078125,390,392,392,396,399,400,403.3330078125,404.6669921875,408.6669921875,410.6669921875,411.3330078125,413.3330078125,414,416,418,419,419.3330078125,420,420,420,420,420,435.3330078125,456.6669921875,463.3330078125,476,482,493,510.6669921875,523,530,542.6669921875,548,568.6669921875,584,591,607.3330078125,615.3330078125,631,655.3330078125,661.3330078125,669.3330078125,674.6669921875,682,686,688.6669921875,691.3330078125],"ymouse":[809,809,809,809,809,809,809,809,809,809,809,809,809,809,809,809,809,809,809,809,809,809,809,809,809,809,809,809,809,809,809,809,809,809,809,809,809,809,809,809,809,809,809,809,809,809,809,809,809,809,809,809,809,809,809,809,809,809,809,809,809,809,809,809,809,809,809,809,809,809,809,809,809,809,809,809,809,809,809,809,809,809,809,809,809,809,809,809,809,809,809,809,809,809,809,809,809,803.3330078125,798,798,789.3330078125,776,772,763.3330078125,759,750,740,736.6669921875,733,731.3330078125,730,730.6669921875,730.6669921875,730.6669921875,730.6669921875,730.6669921875,730.6669921875,730.6669921875,730.6669921875,730.6669921875,730.6669921875,730.6669921875,745.3330078125,748,749,750,754,757.3330078125,759,763,766,776,784,788,795.3330078125,798.6669921875,806.6669921875,811.3330078125,813.3330078125,816.6669921875,818,820,821,822,821.3330078125,820,820,820,820,820,759.3330078125,698.6669921875,678.6669921875,639,620,584,524.6669921875,486,467,429.3330078125,410,353.3330078125,316,298,262.6669921875,244.6669921875,210,166.66700744628906,155.33299255371094,137.33299255371094,129.33299255371094,116,106,102.66699981689453,97.33300018310547],"timestamp_mouse":[3,48,63,84,104,124,143,164,183,204,224,244,263,284,303,324,343,363,384,403,424,443,464,484,504,524,543,564,583,603,623,643,664,683,704,724,743,763,784,804,824,843,863,883,903,924,943,963,984,1004,1023,1044,1064,1084,1103,1124,1144,1163,1183,1203,1224,1244,1263,1284,1304,1324,1343,1364,1383,1403,1424,1443,1463,1484,1503,1524,1543,1564,1583,1604,1623,1643,1664,1683,1709,1738,1743,1764,1784,1804,1823,1844,1863,1883,1903,1924,1943,1964,1984,2003,2024,2045,2063,2084,2103,2124,2146,2165,2184,2204,2224,2246,2263,2283,2303,2323,2345,2373,2384,2404,2423,2443,2464,2484,2504,2523,2547,2564,2583,2603,2624,2646,2663,2683,2704,2724,2745,2764,2784,2803,2823,2844,2864,2884,2904,2923,2943,2965,2984,3003,3024,3045,3065,3083,3104,3124,3145,3165,3184,3204,3224,3246,3264,3284,3303,3323,3343,3365,3383,3404,3423,3443,3464,3484,3503],"xSR":350,"ySR":768,"xT1":30,"yT1":0,"xT2":670,"yT2":0,"toosoon":0,"cond_shown":"Incongruent","ratio_trial":500,"L_num":7,"L_den":21,"R_num":5,"R_den":6,"correct_side":2,"subjID":"410wm","gender":"No_gender","school":"No_school","age":"No_age"},{"start_time":1549381711180,"click_time":1549381713264,"finger_time":1549381712763,"fix_duration":1474.345083430056,"trial":15,"RT":1583,"MT":501,"sideResp":2,"stimulus":[],"xmouse":[389,389,389,389,389,389,389,389,389,389,389,394,394,394,394,394,394,394,394,394,394,394,394,394,394,394,394,394,394.6669921875,394.6669921875,394.6669921875,394.6669921875,394.6669921875,394.6669921875,394.6669921875,394.6669921875,394.6669921875,394.6669921875,394,394,394,394,394,394,394,394,394,394,394.6669921875,394.6669921875,394.6669921875,394.6669921875,394.6669921875,394.6669921875,394.6669921875,394.6669921875,394.6669921875,394.6669921875,395,395,395,395,395,395,395,395,395,395,395,393.3330078125,393.3330078125,392,392,392,392,392,392.6669921875,398,402.6669921875,416,426,431.3330078125,442.6669921875,458.6669921875,462.6669921875,473.3330078125,478.6669921875,490,496,515.3330078125,529.3330078125,538,552,560,587,594,610.6669921875,619,634,653.3330078125,659.3330078125,669.3330078125,674,686,694],"ymouse":[830,830,830,830,830,830,830,830,830,830,830,824,824,824,824,824,824,823,823,823,823,823,823,823,823,823,823,823,823.3330078125,823.3330078125,823.3330078125,823.3330078125,823.3330078125,823.3330078125,823.3330078125,823.3330078125,823.3330078125,823.3330078125,824,824,824,824,824,824,824,824,824,824,823.3330078125,823.3330078125,823.3330078125,823.3330078125,823.3330078125,823.3330078125,823.3330078125,823.3330078125,823.3330078125,823.3330078125,824,824,824,824,824,824,824,824,824,824,824,818.6669921875,818.6669921875,815,814,812,810,810,806.6669921875,794,786.6669921875,761,742,731.3330078125,707.3330078125,672.6669921875,661.3330078125,636.6669921875,622.6669921875,594,580,536.6669921875,506.6669921875,490,458,441,372,352,312.6669921875,292,256,206.66700744628906,191.33299255371094,163.33299255371094,150,114,92],"timestamp_mouse":[11,41,44,63,83,103,124,143,163,183,204,224,244,263,283,303,323,343,363,384,403,424,444,464,483,504,524,543,564,584,604,624,643,665,683,703,724,744,765,784,803,823,844,864,884,904,924,944,965,984,1003,1023,1043,1065,1084,1103,1123,1143,1165,1183,1203,1224,1244,1264,1283,1304,1323,1343,1364,1384,1403,1424,1443,1466,1483,1503,1523,1543,1564,1583,1603,1624,1643,1666,1684,1703,1723,1743,1763,1784,1803,1823,1843,1863,1887,1904,1924,1943,1963,1983,2003,2023,2043,2067,2084],"xSR":350,"ySR":768,"xT1":30,"yT1":0,"xT2":670,"yT2":0,"toosoon":0,"cond_shown":"Congruent","ratio_trial":200,"L_num":3,"L_den":10,"R_num":7,"R_den":14,"correct_side":2,"subjID":"410wm","gender":"No_gender","school":"No_school","age":"No_age"},{"start_time":1549381715613,"click_time":1549381717344,"finger_time":1549381716804,"fix_duration":446.10544394809716,"trial":16,"RT":1191,"MT":540,"sideResp":1,"stimulus":[],"xmouse":[391,391,391,391.3330078125,391.3330078125,391.3330078125,391.3330078125,391.3330078125,391.3330078125,392,392,392,392,392,392,392,392,392,392,392,392,392,392,392,392,392,392,392,392,392,392,392,393,392.6669921875,392.6669921875,392.6669921875,392.6669921875,392.6669921875,392,392,392,392,392,392,392,392,392.6669921875,392.6669921875,392,391.3330078125,390,389,387,383.3330078125,382,378.6669921875,376,371.3330078125,362.6669921875,358.6669921875,352.6669921875,350,342,324,318.6669921875,310,304.6669921875,295.3330078125,280,268.6669921875,263.3330078125,251.3330078125,244,224,209.33299255371094,202,188,180.66700744628906,161.33299255371094,150,144.66700744628906,134.66700744628906,130,118.66699981689453,112,109.33300018310547,104],"ymouse":[842,842,842,841.3330078125,840.6669921875,840.6669921875,840.6669921875,840.6669921875,840.6669921875,840,840,840,840,840,840,840,840,840,840,840,840,840,840,840,840,840,840,840,840,840,840,840,840,839.3330078125,839.3330078125,838.6669921875,838.6669921875,838.6669921875,838,838,838,838,838,838,838,838,837.3330078125,836.6669921875,835,834.6669921875,832,832,830,825.3330078125,822,814.6669921875,809,797.3330078125,772.6669921875,763.3330078125,746.6669921875,738,718,674,659.3330078125,628,612.6669921875,580.6669921875,528,491.3330078125,473.3330078125,439.3330078125,424,378,348.6669921875,333,302,288.6669921875,246.6669921875,220,207.33299255371094,182.66700744628906,170,137.33299255371094,119,110.66699981689453,96],"timestamp_mouse":[15,31,58,70,92,110,131,150,171,190,211,231,251,271,291,311,330,350,371,390,411,430,451,470,490,511,530,550,571,590,610,630,651,671,691,710,730,750,771,790,810,830,850,873,890,910,931,950,973,990,1011,1030,1050,1072,1091,1110,1130,1150,1171,1190,1211,1230,1251,1270,1291,1310,1331,1350,1371,1391,1411,1430,1450,1471,1490,1510,1531,1551,1571,1591,1610,1632,1651,1670,1691,1710,1731],"xSR":350,"ySR":768,"xT1":30,"yT1":0,"xT2":670,"yT2":0,"toosoon":0,"cond_shown":"Congruent","ratio_trial":300,"L_num":18,"L_den":20,"R_num":9,"R_den":15,"correct_side":1,"subjID":"410wm","gender":"No_gender","school":"No_school","age":"No_age"},{"start_time":1549381719497,"click_time":1549381721984,"finger_time":1549381721464,"fix_duration":284.1750557307965,"trial":17,"RT":1967,"MT":520,"sideResp":2,"stimulus":[],"xmouse":[400,400,400,400,400,400,400,400,400,400,400,400,400,400,400,400,400,400,400,400,400,400,400,400,400,400,400,400,400,400,400,400,400,400,400,400,400,400,400,400,400,400,400,400,400,400,400,400,400,400,400,400,400,400,400,400,400,400,400,400,400,400,400,400,400,400,400,400,400,400,400,400,400,400,400,400,400,400,400,400,400,400,400,400,400,400,400,400,400,400,400,400,406,406,406,413,428,435.3330078125,447,464,468,480,485.3330078125,495.3330078125,502,519.3330078125,532,546,551.3330078125,564,581.3330078125,587,600,604.6669921875,615,628.6669921875,632,640,643.3330078125,650.6669921875,660,662.6669921875,668,674],"ymouse":[836,836,836,836,836,836,836,836,836,836,836,836,836,836,836,836,836,836,836,836,836,836,836,836,836,836,836,836,836,836,836,836,836,836,836,836,836,836,836,836,836,836,836,836,836,836,836,836,836,836,836,836,836,836,836,836,836,836,836,836,836,836,836,836,836,836,836,836,836,836,836,836,836,836,836,836,836,836,836,836,836,836,836,836,836,836,836,836,836,836,836,836,830,828,828,806,775,761.3330078125,734,696,682,654,639.3330078125,611.3330078125,594,547.3330078125,510,473,454.6669921875,417,360.6669921875,344,309,293.3330078125,262,220.66700744628906,207,184,173.33299255371094,152.66700744628906,128,121.3330078125,107,95],"timestamp_mouse":[39,61,67,87,106,126,147,167,186,207,227,246,266,287,306,326,346,366,387,407,426,447,466,487,507,527,547,566,586,607,626,647,667,686,706,727,746,767,786,806,827,846,867,886,907,926,946,966,986,1006,1026,1046,1066,1087,1106,1126,1147,1167,1187,1206,1226,1247,1267,1287,1306,1327,1347,1366,1387,1406,1426,1447,1467,1486,1506,1527,1547,1566,1587,1607,1626,1646,1666,1687,1706,1726,1746,1767,1787,1806,1827,1847,1867,1887,1906,1926,1946,1967,1987,2009,2030,2047,2067,2087,2107,2127,2146,2168,2186,2206,2228,2246,2266,2286,2306,2328,2346,2366,2386,2407,2428,2446,2466,2486],"xSR":350,"ySR":768,"xT1":30,"yT1":0,"xT2":670,"yT2":0,"toosoon":0,"cond_shown":"Incongruent","ratio_trial":300,"L_num":3,"L_den":6,"R_num":4,"R_den":20,"correct_side":1,"subjID":"410wm","gender":"No_gender","school":"No_school","age":"No_age"},{"start_time":1549381724697,"click_time":1549381726704,"finger_time":1549381726184,"fix_duration":751.2798632389676,"trial":18,"RT":1487,"MT":520,"sideResp":1,"stimulus":[],"xmouse":[380,380,380,380,380,380,380,380,380,380,380,380,380,380,380,380,380,380,380,380,380,380,380,380,380,380,380,380,380,380,380,380,380,380,387.3330078125,387.3330078125,387.3330078125,387.3330078125,387.3330078125,387.3330078125,387.3330078125,387,387,387,387,387,387,387,388,388,388,388,388,388,388,388,388,388,388,388,388,388,388,388,388,388,386.6669921875,384,382.6669921875,380,378.6669921875,376,374.6669921875,374.6669921875,358,354,345.3330078125,332,312,305.3330078125,292,286,263,247.33299255371094,238.66700744628906,224,216,194,180,174,160,154,142,124,119.33300018310547,109.33300018310547,107.33300018310547,100,92.66699981689453,92,88],"ymouse":[832,832,832,832,832,832,832,832,832,832,832,832,832,832,832,832,832,832,832,832,832,832,832,832,832,832,832,832,832,832,832,832,832,832,828.6669921875,828.6669921875,828.6669921875,828.6669921875,828.6669921875,828.6669921875,828.6669921875,828,828,828,828,828,828,828,828,828,828,828,828,828,828,828,827,827,827,827,827,827,827,827,827,827,823.3330078125,821,819.3330078125,814,808.6669921875,798,792.6669921875,792.6669921875,750,742,723.3330078125,694,643,626.6669921875,591,572,512,470.6669921875,449.3330078125,408,390,332,298,282,252,240,214,182,171.33299255371094,150.66700744628906,143.33299255371094,126,106.66699981689453,102,92],"timestamp_mouse":[7,44,47,66,87,106,127,146,167,186,206,227,247,266,286,306,327,346,366,387,407,427,446,466,487,506,526,546,567,586,607,627,647,667,690,706,727,747,766,786,806,826,847,867,887,907,927,947,967,986,1006,1026,1046,1066,1086,1106,1126,1147,1166,1187,1206,1226,1246,1267,1287,1306,1326,1349,1367,1387,1406,1426,1448,1467,1486,1507,1526,1546,1567,1587,1606,1627,1648,1667,1687,1706,1728,1749,1767,1786,1807,1826,1847,1867,1886,1906,1926,1947,1969,1986,2007],"xSR":350,"ySR":768,"xT1":30,"yT1":0,"xT2":670,"yT2":0,"toosoon":0,"cond_shown":"Congruent","ratio_trial":100,"L_num":11,"L_den":22,"R_num":6,"R_den":15,"correct_side":1,"subjID":"410wm","gender":"No_gender","school":"No_school","age":"No_age"},{"start_time":1549381729129,"click_time":1549381731390,"finger_time":1549381730903,"fix_duration":543.2569322532765,"trial":19,"RT":1774,"MT":487,"sideResp":2,"stimulus":[],"xmouse":[402,402,402,402,402,402,402,402,402,402,402,402,402,402,402,402,402,402,402,402,402,402,402,402,402,402,402,402,402,402,402,402,402,402,402,402,402,402,402,402,402,402,402,402,402,402,402,402,402,402,402,402,402,402,402,402,402,402,402,402,402,402,402,402,402,402,402,402,402,402,402,402,402,402,402,402,402,402,402,402,402,402,402,402,402,404.6669921875,406,406,432,436.6669921875,442.6669921875,445,454,462,468,481,488.6669921875,514,532,540.6669921875,557,566.6669921875,589.3330078125,604.6669921875,618,625,638,659.3330078125,664,678,686,699.3330078125,717],"ymouse":[818,818,818,818,818,818,818,818,818,818,818,818,818,818,818,818,818,818,818,818,818,818,818,818,818,818,818,818,818,818,818,818,818,818,818,818,818,818,818,818,818,818,818,818,818,818,818,818,818,818,818,818,818,818,818,818,818,818,818,818,818,818,818,818,818,818,818,818,818,818,818,818,818,818,818,818,818,818,818,818,818,818,818,818,818,809.3330078125,804,804,752,742.6669921875,731.3330078125,724,704,682,666,630,610.6669921875,550,510,489.3330078125,450,430.6669921875,374.6669921875,340.6669921875,306,290,257,207.33299255371094,192,162,148,120.6669921875,86],"timestamp_mouse":[15,35,54,74,110,114,134,154,174,194,214,235,255,275,295,315,334,354,374,394,414,435,454,475,494,514,535,554,575,595,614,635,655,674,694,714,735,755,774,795,815,834,854,874,894,915,937,954,974,995,1015,1035,1054,1074,1094,1114,1135,1154,1174,1195,1215,1234,1254,1275,1295,1315,1335,1355,1374,1394,1415,1435,1454,1475,1495,1515,1534,1555,1575,1594,1614,1635,1654,1674,1694,1714,1735,1755,1774,1794,1815,1834,1854,1876,1894,1915,1934,1955,1974,1994,2015,2035,2056,2075,2098,2115,2134,2159,2175,2195,2214,2234,2260],"xSR":350,"ySR":768,"xT1":30,"yT1":0,"xT2":670,"yT2":0,"toosoon":0,"cond_shown":"Incongruent","ratio_trial":200,"L_num":11,"L_den":20,"R_num":3,"R_den":4,"correct_side":2,"subjID":"410wm","gender":"No_gender","school":"No_school","age":"No_age"},{"start_time":1549381734194,"click_time":1549381736527,"finger_time":1549381736103,"fix_duration":809.758664444897,"trial":20,"RT":1909,"MT":424,"sideResp":1,"stimulus":[],"xmouse":[391,391,391,391,391,391,391,391,391,391,391,391,391,391,391,391,391,391,391,391,391,391,391,391,391,391,391,391,391,391,391,391,391,391,391,391,391,391,391,391,391,391,391,391,391,391,391,391,391,391,391,391,391,391,391,391,391,391,391,391,391,391,391,391,391,391,391,391,391,391,391,391,391,391,391,391,391,391,391,391,391,391,391,391,391,391,391,391,396,394,394,394,384,378.6669921875,374.6669921875,356,340.6669921875,333.3330078125,319.3330078125,312,286,265.3330078125,256,237,227,200,182,166,156.66700744628906,149.33299255371094,128.66700744628906,116.66699981689453,111.33300018310547,100.66699981689453,92.66699981689453,82.66699981689453],"ymouse":[819,819,819,819,819,819,819,819,819,819,819,819,819,819,819,819,819,819,819,819,819,819,819,819,819,819,819,819,819,819,819,819,819,819,819,819,819,819,819,819,819,819,819,819,819,819,819,819,819,819,819,819,819,819,819,819,819,819,819,819,819,819,819,819,819,819,819,819,819,819,819,819,819,819,819,819,819,819,819,819,819,819,819,819,819,819,819,819,812,810,810,810,788,772.6669921875,764.6669921875,726,694.6669921875,680.6669921875,650.6669921875,634,577,536.6669921875,515,472,448,382,340,299,280.6669921875,260.6669921875,205.33299255371094,173.33299255371094,157.33299255371094,130.66700744628906,109.33300018310547,81.33300018310547],"timestamp_mouse":[15,50,69,90,110,130,149,169,189,210,230,250,270,289,310,330,349,369,390,438,439,449,469,489,509,530,549,570,590,610,630,649,670,689,710,730,750,770,790,809,829,850,870,889,910,929,950,969,989,1009,1029,1050,1070,1089,1109,1129,1149,1170,1190,1209,1229,1249,1270,1289,1309,1330,1350,1370,1390,1409,1430,1449,1470,1490,1509,1529,1550,1569,1589,1609,1630,1649,1670,1690,1709,1729,1749,1770,1790,1810,1830,1849,1870,1889,1909,1930,1950,1969,1990,2010,2029,2049,2069,2089,2110,2129,2149,2172,2189,2210,2233,2250,2269,2289,2309,2333],"xSR":350,"ySR":768,"xT1":30,"yT1":0,"xT2":670,"yT2":0,"toosoon":0,"cond_shown":"Incongruent","ratio_trial":100,"L_num":9,"L_den":15,"R_num":14,"R_den":28,"correct_side":1,"subjID":"410wm","gender":"No_gender","school":"No_school","age":"No_age"},{"start_time":1549381738929,"click_time":1549381740723,"finger_time":1549381740223,"fix_duration":859.8599930991711,"trial":21,"RT":1294,"MT":500,"sideResp":2,"stimulus":[],"xmouse":[402,402,402,402,402,402,402,402,402,402,402,402,402,402,402,402,402,402,402,402,402,402,402,402,402,402,402,402,402,402,403,403,403,403,403,403,403,403,403,403,403.3330078125,403.3330078125,403.3330078125,403.3330078125,403.3330078125,403.3330078125,403.3330078125,403.3330078125,403.3330078125,403.3330078125,403.3330078125,403.3330078125,403.3330078125,403.3330078125,404,404,404,404,404,404,404,406.6669921875,413.3330078125,433.3330078125,461.3330078125,468.6669921875,483,497,504,524,539,546.6669921875,562,569.3330078125,593.3330078125,608,614.6669921875,627,632,649.3330078125,660,663.3330078125,671.3330078125,681,695.3330078125,700.6669921875,710,713.3330078125,718.6669921875],"ymouse":[828,828,828,828,828,828,828,828,828,828,828,828,828,828,828,828,828,828,828,828,828,828,828,828,828,828,828,828,828,828,828,828,828,828,828,828,828,828,828,828,827.3330078125,827.3330078125,827.3330078125,827.3330078125,827.3330078125,827.3330078125,827.3330078125,826.6669921875,826.6669921875,826.6669921875,826.6669921875,826.6669921875,826.6669921875,826.6669921875,826,826,826,825,824,822,820,811.3330078125,796.6669921875,756.6669921875,696.6669921875,678.6669921875,642,606,588,537,504,486.6669921875,454,437.3330078125,388.6669921875,359,345.3330078125,318,306,267.3330078125,242,231.33299255371094,206.66700744628906,184,148.66700744628906,136.66700744628906,114,107.33300018310547,91.33300018310547],"timestamp_mouse":[15,60,75,94,115,135,154,174,194,214,235,254,275,295,315,334,355,374,395,415,435,455,474,494,515,534,554,575,594,614,634,655,675,694,714,735,754,775,794,817,834,855,874,895,915,935,954,974,994,1014,1035,1055,1074,1095,1115,1135,1154,1174,1194,1217,1234,1254,1274,1294,1315,1335,1355,1375,1397,1415,1434,1454,1474,1494,1516,1535,1554,1575,1594,1616,1636,1654,1674,1694,1717,1735,1754,1774,1794],"xSR":350,"ySR":768,"xT1":30,"yT1":0,"xT2":670,"yT2":0,"toosoon":0,"cond_shown":"Incongruent","ratio_trial":200,"L_num":14,"L_den":30,"R_num":12,"R_den":18,"correct_side":2,"subjID":"410wm","gender":"No_gender","school":"No_school","age":"No_age"},{"start_time":1549381743065,"click_time":1549381746263,"finger_time":1549381745686,"fix_duration":596.1881034161199,"trial":22,"RT":2621,"MT":577,"sideResp":2,"stimulus":[],"xmouse":[394,394,394,394,394,394,394,394,394,394,394,394,394,394,394,394,394,394,394,394,394,394,394,394,394,394,394,394,394,394,394,394,394,394,394,394,394,394,394,394,394,394,394,394,394,394,394,394,394,394,394,394,394,394,394,394,394,394,394,394,394,394,394,394,394,394,394,394,394,394,394,394,394,394,394,394,394,394,394,394,394,394,394,394,394,396.6669921875,396.6669921875,396.6669921875,397.3330078125,397.3330078125,397.3330078125,397.3330078125,397.3330078125,397.3330078125,397.3330078125,397.3330078125,397.3330078125,397.3330078125,399.3330078125,399.3330078125,399.3330078125,399.3330078125,399.3330078125,399.3330078125,400.6669921875,401,401.3330078125,402,402,402,402,402.6669921875,402.6669921875,403.3330078125,403,403.3330078125,403.3330078125,404,404,404,404.6669921875,404,404.6669921875,404.6669921875,405.3330078125,406,409,410,416.6669921875,425.3330078125,428,433.3330078125,436.6669921875,443.3330078125,458,464,474,479.3330078125,488,502,507.3330078125,518,527.3330078125,532.6669921875,547,560,566,578,584,603,616.6669921875,624,635,640,654.6669921875,660.6669921875,665,668,672.6669921875],"ymouse":[837,837,837,837,837,837,837,837,837,837,837,837,837,837,837,837,837,837,837,837,837,837,837,837,837,837,837,837,837,837,837,837,837,837,837,837,837,837,837,837,837,837,837,837,837,837,837,837,837,837,837,837,837,837,837,837,837,837,837,837,837,837,837,837,837,837,837,837,837,837,837,837,837,837,837,837,837,837,837,837,837,837,837,837,837,829.3330078125,829.3330078125,829.3330078125,828.6669921875,828.6669921875,828.6669921875,828.6669921875,828.6669921875,828.6669921875,828.6669921875,828.6669921875,828.6669921875,828.6669921875,823.3330078125,823.3330078125,823.3330078125,823.3330078125,823.3330078125,823.3330078125,818.6669921875,818,817.3330078125,817,817,816,816,815.3330078125,814.6669921875,814.6669921875,814,813.3330078125,812.6669921875,812,812,811,810.6669921875,810,809.3330078125,808.6669921875,806.6669921875,804,798,794,784.6669921875,767.3330078125,761,748.6669921875,741.3330078125,721.3330078125,676,658,625,608.6669921875,576,526,508.6669921875,472,437.3330078125,420.6669921875,366,326,308,268,250,194,158.66700744628906,142,114,102,72.66699981689453,56.66699981689453,48,44,37.33300018310547],"timestamp_mouse":[18,39,58,79,122,138,158,179,198,219,238,259,278,299,318,338,358,379,398,419,438,459,479,499,519,538,558,579,598,618,638,658,678,699,719,739,759,779,798,818,838,859,878,899,919,939,958,978,999,1018,1039,1058,1079,1099,1118,1138,1158,1179,1199,1218,1239,1259,1278,1298,1318,1339,1359,1379,1399,1418,1438,1459,1478,1499,1519,1538,1558,1578,1600,1618,1639,1659,1678,1698,1718,1738,1759,1778,1798,1820,1838,1858,1878,1899,1919,1939,1958,1979,1999,2019,2039,2058,2078,2099,2119,2139,2159,2179,2199,2220,2239,2258,2280,2298,2319,2338,2358,2379,2398,2421,2438,2458,2478,2499,2519,2539,2558,2579,2599,2621,2642,2660,2679,2699,2722,2739,2758,2780,2798,2819,2838,2858,2878,2898,2919,2939,2958,2978,2998,3019,3038,3058,3079,3098,3119,3138,3158,3178,3198],"xSR":350,"ySR":768,"xT1":30,"yT1":0,"xT2":670,"yT2":0,"toosoon":0,"cond_shown":"Congruent","ratio_trial":100,"L_num":4,"L_den":8,"R_num":6,"R_den":10,"correct_side":2,"subjID":"410wm","gender":"No_gender","school":"No_school","age":"No_age"},{"start_time":1549381749033,"click_time":1549381751064,"finger_time":1549381750563,"fix_duration":968.8197428405437,"trial":23,"RT":1530,"MT":501,"sideResp":1,"stimulus":[],"xmouse":[386.6669921875,386.6669921875,387,387,387,387,387,387,387.3330078125,387.3330078125,387.3330078125,387.3330078125,387.3330078125,387.3330078125,387.3330078125,387.3330078125,387.3330078125,387.3330078125,388,388,388,388,388,388,388,388,388,388,388,388,388,388,388,388,388,388,388,388,388,388.6669921875,388.6669921875,388.6669921875,388.6669921875,388.6669921875,388.6669921875,388.6669921875,388.6669921875,389.3330078125,389.3330078125,389.3330078125,389.3330078125,389.3330078125,389.3330078125,389.3330078125,389.3330078125,389.3330078125,389.3330078125,389.3330078125,389.3330078125,390,390,390,390,390,390,389.3330078125,389.3330078125,388,387.3330078125,382.6669921875,382,379.3330078125,378,374,367.3330078125,363.3330078125,356,352,346,330,324,314,308,297.3330078125,278.6669921875,272,258,252,237,218,206,199.33299255371094,186,178.66700744628906,158,144.66700744628906,138,124.66699981689453,118,105.33300018310547,96,93],"ymouse":[844.6669921875,844.6669921875,844,844,844,844,844,844,843.3330078125,843.3330078125,843.3330078125,843.3330078125,843.3330078125,843.3330078125,843.3330078125,843.3330078125,843.3330078125,843.3330078125,843,842,842,842,842,842,842,842,842,842,842,842,842,842,842,842,842,842,842,842,842,841.3330078125,841.3330078125,841.3330078125,841.3330078125,841.3330078125,841.3330078125,841.3330078125,841.3330078125,841.3330078125,841.3330078125,841.3330078125,840.6669921875,840.6669921875,840.6669921875,840.6669921875,840.6669921875,840.6669921875,840.6669921875,840.6669921875,840.6669921875,840,840,840,840,840,840,839.3330078125,839.3330078125,838,837.3330078125,833.3330078125,831,823.3330078125,818,806,788.6669921875,780.6669921875,763,756,740,701,685,651,635,602.6669921875,546.6669921875,526,486,465,424,361,322,304.6669921875,270,255.3330078125,214,188.66700744628906,177,155.33299255371094,144,119.3330078125,104,98],"timestamp_mouse":[16,46,54,70,90,111,130,150,175,190,210,230,250,270,291,310,330,351,373,390,411,431,450,471,493,510,530,551,579,591,610,631,651,671,690,711,730,750,770,790,810,830,850,871,890,911,931,950,970,990,1011,1031,1050,1070,1091,1111,1130,1150,1171,1190,1210,1230,1250,1271,1290,1310,1331,1350,1370,1392,1410,1431,1450,1470,1491,1510,1530,1550,1571,1591,1610,1630,1650,1670,1690,1710,1730,1750,1771,1791,1810,1830,1850,1870,1890,1910,1930,1950,1971,1991,2011,2030],"xSR":350,"ySR":768,"xT1":30,"yT1":0,"xT2":670,"yT2":0,"toosoon":0,"cond_shown":"Incongruent","ratio_trial":500,"L_num":5,"L_den":6,"R_num":6,"R_den":18,"correct_side":1,"subjID":"410wm","gender":"No_gender","school":"No_school","age":"No_age"},{"start_time":1549381753216,"click_time":1549381755184,"finger_time":1549381754723,"fix_duration":250,"trial":24,"RT":1507,"MT":461,"sideResp":1,"stimulus":[],"xmouse":[393,393,393,393,393,393,393,393,393,393,393,393,393,393,393,393,393,393,393,393,393,393,393,393,393,393,393,393,393,393,393,393,393,393,393,393,393,393,393,393,393,393,393,393,393,393,393,393,393,393,393,393,393,393,393,393,393,393,393,393,393,393,393,393,393,393,385,383,383,383,383,372,366.6669921875,366.6669921875,356,345.3330078125,336.6669921875,332.6669921875,320,314,294.6669921875,281.3330078125,273.3330078125,256,248,221.33299255371094,204.66700744628906,196,180.66700744628906,173,158.66700744628906,138,130.66700744628906,118,114,102,90,86.66699981689453],"ymouse":[827,827,827,827,827,827,827,827,827,827,827,827,827,827,827,827,827,827,827,827,827,827,827,827,827,827,827,827,827,827,827,827,827,827,827,827,827,827,827,827,827,827,827,827,827,827,827,827,827,827,827,827,827,827,827,827,827,827,827,827,827,827,827,827,827,827,824,822,822,822,822,796,781.3330078125,781.3330078125,756,732.6669921875,713.3330078125,702.6669921875,676,660,614.6669921875,582.6669921875,564.6669921875,528,508,448.6669921875,411.3330078125,394,354.6669921875,336,297.3330078125,242,225.33299255371094,190,174,142,101,89.33300018310547],"timestamp_mouse":[13,58,67,88,107,127,147,167,187,207,227,247,267,287,308,327,347,368,388,408,428,448,468,488,507,528,548,567,587,608,627,648,668,688,707,728,747,768,788,808,827,847,867,888,908,928,948,968,987,1007,1028,1047,1068,1088,1107,1128,1147,1167,1187,1207,1228,1247,1268,1288,1307,1327,1347,1368,1387,1408,1427,1447,1469,1487,1507,1530,1550,1567,1587,1607,1630,1647,1667,1687,1707,1729,1747,1767,1787,1808,1830,1849,1867,1888,1908,1927,1948,1968],"xSR":350,"ySR":768,"xT1":30,"yT1":0,"xT2":670,"yT2":0,"toosoon":0,"cond_shown":"Incongruent","ratio_trial":100,"L_num":9,"L_den":10,"R_num":20,"R_den":25,"correct_side":1,"subjID":"410wm","gender":"No_gender","school":"No_school","age":"No_age"},{"start_time":1549381758477,"click_time":1549381760504,"finger_time":1549381760086,"fix_duration":1365.140766890287,"trial":25,"RT":1609,"MT":418,"sideResp":2,"stimulus":[],"xmouse":[415,415,415,415,415,415,415,415,415,415,415,415,415,415,415,415,415,415,415,415,415,415,415,415,415,415,415,415,415,415,415,415,415,415,415,415,415,415,415,415,415,415,415,415,415,415,415,415,415,415,415,415,415,415,415,415,415,415,415,415,415,415,415,415,415,415,415,415,415,415,415,415,415,415,415,415,408,408,408,408,447,451.3330078125,461,468,480.6669921875,500.6669921875,508,524.6669921875,532,548,572,579,594,602.6669921875,620,636,658,664,680,685.3330078125,701.3330078125,708],"ymouse":[816,816,816,816,816,816,816,816,816,816,816,816,816,816,816,816,816,816,816,816,816,816,816,816,816,816,816,816,816,816,816,816,816,816,816,816,816,816,816,816,816,816,816,816,816,816,816,816,816,816,816,816,816,816,816,816,816,816,816,816,816,816,816,816,816,816,816,816,816,816,816,816,816,816,816,816,810,810,810,810,738,730.6669921875,710,697,668.6669921875,623.3330078125,606,572.6669921875,554,516,458,438,398,375.3330078125,332,289,230,210,175,158.66700744628906,116.6669921875,94],"timestamp_mouse":[13,46,47,66,87,107,127,147,166,186,206,227,246,266,287,307,326,347,367,386,406,427,446,467,486,506,527,546,567,587,607,626,646,666,687,707,727,746,767,787,807,826,846,866,887,907,927,946,966,987,1006,1027,1046,1066,1086,1106,1127,1147,1167,1187,1206,1226,1246,1267,1287,1307,1326,1346,1366,1386,1406,1426,1446,1467,1486,1506,1529,1547,1567,1586,1609,1627,1646,1667,1686,1707,1726,1746,1766,1786,1807,1827,1847,1866,1886,1906,1928,1947,1966,1986,2010,2027],"xSR":350,"ySR":768,"xT1":30,"yT1":0,"xT2":670,"yT2":0,"toosoon":0,"cond_shown":"Incongruent","ratio_trial":300,"L_num":4,"L_den":20,"R_num":2,"R_den":4,"correct_side":2,"subjID":"410wm","gender":"No_gender","school":"No_school","age":"No_age"},{"start_time":1549381762646,"click_time":1549381764705,"finger_time":1549381764126,"fix_duration":427.52711101540984,"trial":26,"RT":1480,"MT":579,"sideResp":1,"stimulus":[],"xmouse":[382,382,382,382,384.6669921875,384.6669921875,384.6669921875,384.6669921875,384.6669921875,384.6669921875,384.6669921875,384.6669921875,384.6669921875,384.6669921875,384.6669921875,384.6669921875,384.6669921875,384.6669921875,384.6669921875,384.6669921875,384.6669921875,384.6669921875,384.6669921875,384.6669921875,384.6669921875,384.6669921875,384.6669921875,384.6669921875,384.6669921875,384.6669921875,384.6669921875,384.6669921875,384.6669921875,384.6669921875,385.3330078125,385.3330078125,385.3330078125,385.3330078125,385.3330078125,385.3330078125,385.3330078125,385.3330078125,385.3330078125,385.3330078125,385,385,385,385,385,385,385,386,386,386,386,386,385,385.3330078125,385.3330078125,385.3330078125,385.3330078125,385,384,384,382,381.3330078125,380,376.6669921875,374,372,370,366,359.3330078125,355.3330078125,352.6669921875,347,344,334.6669921875,327.3330078125,323.3330078125,310.6669921875,303.3330078125,282,266.6669921875,258.6669921875,242,235.33299255371094,219.33299255371094,199,192.66700744628906,180,167.33299255371094,160.66700744628906,144,134,130,120,116,100.66699981689453,90,86,78,74.66699981689453],"ymouse":[840,840,840,840,837.3330078125,837.3330078125,837.3330078125,837.3330078125,837.3330078125,837.3330078125,837.3330078125,837.3330078125,837.3330078125,837.3330078125,837.3330078125,837.3330078125,837.3330078125,837.3330078125,837.3330078125,837.3330078125,837.3330078125,837.3330078125,837.3330078125,837.3330078125,836.6669921875,836.6669921875,836.6669921875,836.6669921875,836.6669921875,836.6669921875,836.6669921875,836.6669921875,836.6669921875,836.6669921875,836.6669921875,836.6669921875,836.6669921875,836.6669921875,836.6669921875,836.6669921875,836.6669921875,836.6669921875,836.6669921875,836.6669921875,836,836,836,836,836,836,836,836,836,836,836,836,836,835.3330078125,835.3330078125,834.6669921875,834.6669921875,834,834,833,832,831.3330078125,830,823.3330078125,820,810,804,793,775.3330078125,762.6669921875,756.6669921875,744,738,715.3330078125,699.3330078125,689.3330078125,662.6669921875,646.6669921875,602,573.3330078125,559.3330078125,528,512.6669921875,480.6669921875,436,421.3330078125,391,361.3330078125,346.6669921875,302,270,254,222,207,163.33299255371094,136,124,101,90.66699981689453],"timestamp_mouse":[8,44,57,77,97,117,137,158,177,198,218,237,258,278,297,317,337,358,378,397,417,438,457,478,497,517,538,558,578,597,618,637,657,677,697,718,737,758,778,798,817,837,857,878,897,918,937,957,978,998,1017,1037,1057,1077,1097,1117,1137,1157,1178,1198,1218,1237,1257,1277,1298,1318,1338,1360,1378,1397,1418,1437,1461,1480,1498,1517,1537,1559,1578,1597,1617,1637,1661,1679,1698,1717,1738,1758,1778,1797,1818,1838,1857,1879,1897,1918,1937,1958,1977,1997,2017,2037,2057],"xSR":350,"ySR":768,"xT1":30,"yT1":0,"xT2":670,"yT2":0,"toosoon":0,"cond_shown":"Incongruent","ratio_trial":200,"L_num":3,"L_den":4,"R_num":11,"R_den":20,"correct_side":1,"subjID":"410wm","gender":"No_gender","school":"No_school","age":"No_age"},{"start_time":1549381767525,"click_time":1549381769884,"finger_time":1549381768724,"fix_duration":1498.3498823898476,"trial":27,"RT":1199,"MT":1160,"sideResp":2,"stimulus":[],"xmouse":[414,414,414,414,414,414,414,414,414,414,414,414,414,414,414,414,414,414,414,414,414,414,414,414,414,414,414,414,414,414,414,414,414,414,414,414,414,414,414,414,414,414,414,414,414,414,414,414,414,414,414,414,414,414,414,414,394.6669921875,388.6669921875,386,379,370.6669921875,368,363,362,358,355.3330078125,353,351,348,346,340,328.6669921875,324.6669921875,317,313,304.6669921875,300,298,296,295.3330078125,295,298,300,300,300,300,300,300,322.6669921875,327,327,358.6669921875,366,380.6669921875,388,400,411.3330078125,411.3330078125,411.3330078125,411.3330078125,411.3330078125,449.3330078125,463.3330078125,471.3330078125,486,494,519.3330078125,536.6669921875,546.6669921875,563.3330078125,591.3330078125,601.3330078125,622,633,656,675,704,713.3330078125],"ymouse":[814,814,814,814,814,814,814,814,814,814,814,814,814,814,814,814,814,814,814,814,814,814,814,814,814,814,814,814,814,814,814,814,814,814,814,814,814,814,814,814,814,814,814,814,814,814,814,814,814,814,814,814,814,814,814,814,785.3330078125,775.3330078125,769,756,737.3330078125,732,722,717,710,700.6669921875,694,690,682,676,662,639.3330078125,631.3330078125,616,608,588.6669921875,576,569,558,554.6669921875,550,550,551,551,551,551,551,551,575.3330078125,578,578,588.6669921875,590,591.3330078125,591,590,587.3330078125,587.3330078125,587.3330078125,587.3330078125,587.3330078125,528.6669921875,497.3330078125,483.3330078125,458,445,405.3330078125,376.6669921875,362.6669921875,334.6669921875,287.3330078125,270.6669921875,236,218,184,150,100,84.66699981689453],"timestamp_mouse":[8,40,58,78,99,118,138,159,178,198,218,238,258,278,299,319,339,359,379,398,418,438,459,479,498,519,539,559,578,598,619,639,658,678,698,718,738,758,779,798,818,838,859,878,898,919,939,958,979,999,1018,1040,1059,1078,1099,1118,1139,1158,1179,1199,1220,1239,1259,1279,1299,1319,1340,1358,1379,1399,1418,1442,1458,1478,1498,1521,1539,1558,1578,1598,1618,1639,1658,1678,1698,1719,1740,1758,1779,1798,1819,1838,1858,1878,1898,1918,1941,1958,1978,1998,2019,2042,2059,2078,2098,2118,2141,2159,2178,2199,2220,2239,2258,2278,2299,2318,2341,2359],"xSR":350,"ySR":768,"xT1":30,"yT1":0,"xT2":670,"yT2":0,"toosoon":0,"cond_shown":"Incongruent","ratio_trial":200,"L_num":3,"L_den":10,"R_num":1,"R_den":2,"correct_side":2,"subjID":"410wm","gender":"No_gender","school":"No_school","age":"No_age"},{"start_time":1549381772211,"click_time":1549381773964,"finger_time":1549381773384,"fix_duration":743.2086859854084,"trial":28,"RT":1173,"MT":580,"sideResp":2,"stimulus":[],"xmouse":[389,389,389,389,389,390,390,390,389.3330078125,389.3330078125,389.3330078125,389.3330078125,389.3330078125,389.3330078125,389.3330078125,390,390,390,390,390,390,390.6669921875,390.6669921875,390.6669921875,390.6669921875,390,390,390,390,390,390,390,390,390.6669921875,390.6669921875,390.6669921875,390.6669921875,390.6669921875,390.6669921875,390.6669921875,390.6669921875,390.6669921875,390,390,390,390,390,390.6669921875,390.6669921875,390.6669921875,390,390,390,390,390,390,390,390,410,414,416,419,421,428.6669921875,435,438.6669921875,446,457.3330078125,460,468.6669921875,474.6669921875,488,494,514.6669921875,531.3330078125,550,559,578,603.3330078125,610.6669921875,628,636,652,675.3330078125,682.6669921875,692,703.3330078125,708],"ymouse":[818,818,818,818,818,818,817,817,817.3330078125,817.3330078125,817.3330078125,817.3330078125,817.3330078125,817.3330078125,817.3330078125,818,818,818,818,818,818,818.6669921875,818.6669921875,818.6669921875,818.6669921875,818,818,818,818,818,818,818,818,818.6669921875,818.6669921875,818.6669921875,818.6669921875,818.6669921875,818.6669921875,818.6669921875,819.3330078125,819.3330078125,820,820,820,820,820,819.3330078125,818.6669921875,816.6669921875,816,814,811,811,811,811,811,811,758,750,746,738,734,715.3330078125,698,689.3330078125,670,642.6669921875,634,615.3330078125,603.3330078125,572,557,511.3330078125,473.3330078125,432,412,371,312.6669921875,294.6669921875,259,242,210,165.33299255371094,152.66700744628906,129,106.66699981689453,96],"timestamp_mouse":[14,46,53,73,92,112,132,152,172,193,213,232,252,273,292,313,333,353,372,392,412,433,452,472,492,512,533,553,573,592,612,633,652,672,692,712,733,752,772,792,813,833,852,873,892,912,932,952,973,993,1012,1033,1052,1072,1093,1112,1132,1153,1173,1193,1213,1233,1253,1273,1292,1312,1333,1356,1375,1392,1412,1433,1452,1475,1493,1512,1533,1552,1576,1593,1613,1632,1652,1674,1692,1712,1732,1752],"xSR":350,"ySR":768,"xT1":30,"yT1":0,"xT2":670,"yT2":0,"toosoon":0,"cond_shown":"Incongruent","ratio_trial":500,"L_num":7,"L_den":21,"R_num":5,"R_den":6,"correct_side":2,"subjID":"410wm","gender":"No_gender","school":"No_school","age":"No_age"},{"start_time":1549381776590,"click_time":1549381778264,"finger_time":1549381777809,"fix_duration":964.1986854648213,"trial":29,"RT":1219,"MT":455,"sideResp":2,"stimulus":[],"xmouse":[393,393,393,393,393,393,393,393,393,393,393,393,393,393,393,393,393,393,393,393,393,393,393,393,393,393,393,393,393,393,393,393,393,393,393,393,393,393,393,398,398,398,398,398,398,398,398,398,398,398,398,398,398,398,398.6669921875,404,407.3330078125,414,418,429.3330078125,437,441.3330078125,452.6669921875,468,476,498,512,520,534.6669921875,543.3330078125,569,588,599.3330078125,618,636,662,670,686,693.3330078125,709,725,730,738.6669921875],"ymouse":[836,836,836,836,836,836,836,836,836,836,836,836,836,836,836,836,836,836,836,836,836,836,836,836,836,836,836,836,836,836,836,836,836,836,836,836,836,836,836,830,830,830,830,830,830,830,830,830,830,830,830,830,830,830,817.3330078125,804,797.3330078125,782,775,753.3330078125,738,730.6669921875,709.3330078125,678,661,616,587,572,540.6669921875,524.6669921875,474,436,415.3330078125,375,336,280,262,226,207.33299255371094,174,130,117,93.33300018310547],"timestamp_mouse":[48,53,73,93,114,134,154,173,193,214,233,254,273,293,313,333,353,374,394,413,433,454,473,493,513,533,553,573,593,613,633,654,674,693,7