[{"start_time":1549382157621,"click_time":1549382158281,"finger_time":1549382157634,"fix_duration":573.8002636916592,"trial":0,"RT":13,"MT":647,"sideResp":2,"stimulus":"img/900/randomdotsize/R/12_Ratio_900_L_18_R_20.png","xmouse":[391,391,391,391,391,391,391,391,391,391,391,391,391,391,391,391,391,391,391,391,391,391,391,391,391,391,391,391,391,391,391,391,391,723],"ymouse":[488,488,488,488,488,488,488,488,488,488,488,488,488,488,488,488,488,488,488,488,488,488,488,488,488,488,488,488,488,488,488,488,488,48],"timestamp_mouse":[13,20,39,59,79,98,119,139,159,178,198,219,239,259,279,298,319,339,359,379,400,420,438,459,479,499,519,539,559,579,599,619,639,660],"xSR":350,"ySR":451.2,"xT1":30,"yT1":0,"xT2":670,"yT2":0,"toosoon":0,"cond_shown":"randomdotsize","ratio_trial":900,"smaller_num":"18","larger_num":"20","correct_side":2,"subjID":"411wm","gender":"No_gender","age":"No_age","school":"No_school","test":{"fix_dur":[250,1500],"timestim":400,"targets_dim":[100,100],"targets_relative_coord":[0.1,0.9],"size_stim":[880,420],"start_dim":[100,100],"size_start":[300,300],"size_fix":60,"samplingrate":20,"img_types":["equaldotsize","equaldotanddens","randomdotsize","randomdotsizeEA"],"ratios":[250,500,750,900],"rep_conds":7,"nTrials":128,"trials_to_rest":500,"Trials_order":[110,90,121,64,51,104,124,74,31,63,21,53,14,103,17,126,32,30,2,76,16,83,85,127,59,91,89,92,125,73,116,0,102,57,27,97,19,98,111,7,52,23,58,1,72,120,41,69,8,10,9,55,35,118,75,113,78,115,82,36,46,61,123,26,22,100,109,33,114,122,43,71,56,101,67,68,88,18,65,70,34,50,60,79,49,94,4,86,87,39,107,29,15,117,6,96,66,105,93,112,11,25,12,95,5,77,119,28,38,3,48,42,37,108,40,84,24,20,44,45,99,13,106,80,62,81,47,54],"cond_shown":["randomdotsize","randomdotsize","equaldotanddens","equaldotsize","randomdotsizeEA","equaldotsize","equaldotsize","randomdotsize","randomdotsizeEA","randomdotsizeEA","equaldotanddens","equaldotanddens","randomdotsize","randomdotsizeEA","equaldotanddens","randomdotsize","equaldotsize","randomdotsize","randomdotsize","equaldotsize","equaldotsize","randomdotsizeEA","equaldotanddens","randomdotsizeEA","randomdotsizeEA","randomdotsizeEA","equaldotanddens","equaldotsize","equaldotanddens","equaldotanddens","equaldotsize","equaldotsize","randomdotsize","equaldotanddens","randomdotsizeEA","equaldotanddens","randomdotsizeEA","randomdotsize","randomdotsizeEA","randomdotsizeEA","equaldotsize","randomdotsizeEA","randomdotsize","equaldotanddens","equaldotsize","equaldotsize","equaldotanddens","equaldotanddens","equaldotsize","randomdotsize","equaldotanddens","randomdotsizeEA","randomdotsizeEA","randomdotsize","randomdotsizeEA","equaldotanddens","randomdotsize","randomdotsizeEA","randomdotsize","equaldotsize","randomdotsize","equaldotanddens","randomdotsizeEA","randomdotsize","randomdotsize","equaldotsize","equaldotanddens","equaldotanddens","randomdotsize","randomdotsize","randomdotsizeEA","randomdotsizeEA","equaldotsize","equaldotanddens","randomdotsizeEA","equaldotsize","equaldotsize","randomdotsize","equaldotanddens","randomdotsize","randomdotsize","randomdotsize","equaldotsize","randomdotsizeEA","equaldotanddens","randomdotsize","equaldotsize","randomdotsize","randomdotsizeEA","randomdotsizeEA","randomdotsizeEA","equaldotanddens","randomdotsizeEA","equaldotanddens","randomdotsize","equaldotsize","randomdotsize","equaldotanddens","equaldotanddens","equaldotsize","randomdotsizeEA","equaldotanddens","equaldotsize","randomdotsizeEA","equaldotanddens","equaldotanddens","randomdotsizeEA","equaldotsize","randomdotsize","randomdotsizeEA","equaldotsize","randomdotsize","equaldotanddens","equaldotsize","equaldotsize","equaldotsize","equaldotsize","equaldotsize","equaldotsize","equaldotanddens","randomdotsizeEA","equaldotanddens","randomdotsize","equaldotsize","randomdotsize","equaldotanddens","randomdotsizeEA","randomdotsize"],"ratio_trial":[900,750,750,250,250,750,900,750,900,900,500,500,900,500,250,900,250,900,250,900,250,250,500,900,750,750,750,900,900,750,500,250,500,750,750,250,250,250,900,500,500,500,750,250,750,750,750,500,750,750,750,500,250,500,750,250,900,250,250,500,900,900,750,750,500,500,900,250,250,750,750,500,750,500,250,500,750,250,250,500,250,250,900,900,250,900,500,500,500,500,750,900,900,500,500,250,250,750,900,250,750,750,900,900,500,900,500,900,500,250,250,750,500,900,750,500,750,500,900,900,250,900,750,250,900,250,900,500],"smaller_num":["18","12","6","3","1","6","18","15","18","18","2","6","18","9","3","9","4","18","3","9","2","3","2","18","15","15","6","9","18","3","1","1","5","3","6","6","3","2","18","10","1","5","3","2","3","12","3","10","6","6","15","9","3","6","6","2","9","2","6","2","18","18","6","3","10","6","9","4","4","3","12","1","3","2","2","9","3","2","4","9","3","6","9","9","3","18","2","2","1","2","6","9","9","6","9","6","3","3","18","5","18","6","9","18","4","18","9","9","6","2","5","15","6","9","15","4","3","9","18","18","2","18","12","6","18","2","18","5"],"larger_num":["20","16","8","12","4","8","20","20","20","20","4","12","20","18","12","10","16","20","12","10","8","12","4","20","20","20","8","10","20","4","2","4","10","4","8","24","12","8","20","20","2","10","4","8","4","16","4","20","8","8","20","18","12","12","8","8","10","8","24","4","20","20","8","4","20","12","10","16","16","4","16","2","4","4","8","18","4","8","16","18","12","24","10","10","12","20","4","4","2","4","8","10","10","12","18","24","12","4","20","20","24","8","10","20","8","20","18","10","12","8","20","20","12","10","20","8","4","18","20","20","8","20","16","24","20","8","20","10"],"correct_side":[2,2,1,1,2,1,1,2,2,2,1,1,1,2,2,2,1,1,2,2,1,1,1,2,2,1,2,1,1,2,2,2,1,2,1,2,2,1,1,2,2,1,2,1,2,2,1,2,2,1,2,1,2,1,1,1,2,2,2,1,1,1,2,1,2,1,1,2,1,1,2,2,2,1,2,2,1,1,1,2,1,1,1,1,2,1,1,1,2,1,1,2,1,1,2,1,1,1,2,2,1,2,2,2,1,1,2,1,1,2,2,2,1,2,2,1,2,2,2,1,1,2,2,2,1,1,2,1],"img_shown":["img/900/randomdotsize/R/12_Ratio_900_L_18_R_20.png","img/750/randomdotsize/R/11_Ratio_750_L_12_R_16.png","img/750/equaldotanddens/L/14_Ratio_750_L_8_R_6.png","img/250/equaldotsize/L/15_Ratio_250_L_12_R_3.png","img/250/randomdotsizeEA/R/8_Ratio_250_L_1_R_4.png","img/750/equaldotsize/L/14_Ratio_750_L_8_R_6.png","img/900/equaldotsize/L/8_Ratio_900_L_20_R_18.png","img/750/randomdotsize/R/3_Ratio_750_L_15_R_20.png","img/900/randomdotsizeEA/R/12_Ratio_900_L_18_R_20.png","img/900/randomdotsizeEA/R/11_Ratio_900_L_18_R_20.png","img/500/equaldotanddens/L/10_Ratio_500_L_4_R_2.png","img/500/equaldotanddens/L/13_Ratio_500_L_12_R_6.png","img/900/randomdotsize/L/10_Ratio_900_L_20_R_18.png","img/500/randomdotsizeEA/R/6_Ratio_500_L_9_R_18.png","img/250/equaldotanddens/R/11_Ratio_250_L_3_R_12.png","img/900/randomdotsize/R/6_Ratio_900_L_9_R_10.png","img/250/equaldotsize/L/2_Ratio_250_L_16_R_4.png","img/900/randomdotsize/L/2_Ratio_900_L_20_R_18.png","img/250/randomdotsize/R/4_Ratio_250_L_3_R_12.png","img/900/equaldotsize/R/7_Ratio_900_L_9_R_10.png","img/250/equaldotsize/L/1_Ratio_250_L_8_R_2.png","img/250/randomdotsizeEA/L/15_Ratio_250_L_12_R_3.png","img/500/equaldotanddens/L/10_Ratio_500_L_4_R_2.png","img/900/randomdotsizeEA/R/11_Ratio_900_L_18_R_20.png","img/750/randomdotsizeEA/R/3_Ratio_750_L_15_R_20.png","img/750/randomdotsizeEA/L/1_Ratio_750_L_20_R_15.png","img/750/equaldotanddens/R/2_Ratio_750_L_6_R_8.png","img/900/equaldotsize/L/1_Ratio_900_L_10_R_9.png","img/900/equaldotanddens/L/2_Ratio_900_L_20_R_18.png","img/750/equaldotanddens/R/12_Ratio_750_L_3_R_4.png","img/500/equaldotsize/R/12_Ratio_500_L_1_R_2.png","img/250/equaldotsize/R/8_Ratio_250_L_1_R_4.png","img/500/randomdotsize/L/7_Ratio_500_L_10_R_5.png","img/750/equaldotanddens/R/7_Ratio_750_L_3_R_4.png","img/750/randomdotsizeEA/L/13_Ratio_750_L_8_R_6.png","img/250/equaldotanddens/R/6_Ratio_250_L_6_R_24.png","img/250/randomdotsizeEA/R/4_Ratio_250_L_3_R_12.png","img/250/randomdotsize/L/1_Ratio_250_L_8_R_2.png","img/900/randomdotsizeEA/L/2_Ratio_900_L_20_R_18.png","img/500/randomdotsizeEA/R/3_Ratio_500_L_10_R_20.png","img/500/equaldotsize/R/15_Ratio_500_L_1_R_2.png","img/500/randomdotsizeEA/L/7_Ratio_500_L_10_R_5.png","img/750/randomdotsize/R/7_Ratio_750_L_3_R_4.png","img/250/equaldotanddens/L/7_Ratio_250_L_8_R_2.png","img/750/equaldotsize/R/7_Ratio_750_L_3_R_4.png","img/750/equaldotsize/R/11_Ratio_750_L_12_R_16.png","img/750/equaldotanddens/L/10_Ratio_750_L_4_R_3.png","img/500/equaldotanddens/R/3_Ratio_500_L_10_R_20.png","img/750/equaldotsize/R/2_Ratio_750_L_6_R_8.png","img/750/randomdotsize/L/14_Ratio_750_L_8_R_6.png","img/750/equaldotanddens/R/4_Ratio_750_L_15_R_20.png","img/500/randomdotsizeEA/L/4_Ratio_500_L_18_R_9.png","img/250/randomdotsizeEA/R/11_Ratio_250_L_3_R_12.png","img/500/randomdotsize/L/13_Ratio_500_L_12_R_6.png","img/750/randomdotsizeEA/L/13_Ratio_750_L_8_R_6.png","img/250/equaldotanddens/L/7_Ratio_250_L_8_R_2.png","img/900/randomdotsize/R/3_Ratio_900_L_9_R_10.png","img/250/randomdotsizeEA/R/13_Ratio_250_L_2_R_8.png","img/250/randomdotsize/R/6_Ratio_250_L_6_R_24.png","img/500/equaldotsize/L/5_Ratio_500_L_4_R_2.png","img/900/randomdotsize/L/8_Ratio_900_L_20_R_18.png","img/900/equaldotanddens/L/2_Ratio_900_L_20_R_18.png","img/750/randomdotsizeEA/R/2_Ratio_750_L_6_R_8.png","img/750/randomdotsize/L/10_Ratio_750_L_4_R_3.png","img/500/randomdotsize/R/3_Ratio_500_L_10_R_20.png","img/500/equaldotsize/L/11_Ratio_500_L_12_R_6.png","img/900/equaldotanddens/L/1_Ratio_900_L_10_R_9.png","img/250/equaldotanddens/R/10_Ratio_250_L_4_R_16.png","img/250/randomdotsize/L/2_Ratio_250_L_16_R_4.png","img/750/randomdotsize/L/10_Ratio_750_L_4_R_3.png","img/750/randomdotsizeEA/R/11_Ratio_750_L_12_R_16.png","img/500/randomdotsizeEA/R/12_Ratio_500_L_1_R_2.png","img/750/equaldotsize/R/7_Ratio_750_L_3_R_4.png","img/500/equaldotanddens/L/5_Ratio_500_L_4_R_2.png","img/250/randomdotsizeEA/R/13_Ratio_250_L_2_R_8.png","img/500/equaldotsize/R/1_Ratio_500_L_9_R_18.png","img/750/equaldotsize/L/10_Ratio_750_L_4_R_3.png","img/250/randomdotsize/L/3_Ratio_250_L_8_R_2.png","img/250/equaldotanddens/L/2_Ratio_250_L_16_R_4.png","img/500/randomdotsize/R/6_Ratio_500_L_9_R_18.png","img/250/randomdotsize/L/15_Ratio_250_L_12_R_3.png","img/250/randomdotsize/L/5_Ratio_250_L_24_R_6.png","img/900/equaldotsize/L/1_Ratio_900_L_10_R_9.png","img/900/randomdotsizeEA/L/1_Ratio_900_L_10_R_9.png","img/250/equaldotanddens/R/11_Ratio_250_L_3_R_12.png","img/900/randomdotsize/L/4_Ratio_900_L_20_R_18.png","img/500/equaldotsize/L/10_Ratio_500_L_4_R_2.png","img/500/randomdotsize/L/5_Ratio_500_L_4_R_2.png","img/500/randomdotsizeEA/R/12_Ratio_500_L_1_R_2.png","img/500/randomdotsizeEA/L/10_Ratio_500_L_4_R_2.png","img/750/randomdotsizeEA/L/13_Ratio_750_L_8_R_6.png","img/900/equaldotanddens/R/5_Ratio_900_L_9_R_10.png","img/900/randomdotsizeEA/L/1_Ratio_900_L_10_R_9.png","img/500/equaldotanddens/L/13_Ratio_500_L_12_R_6.png","img/500/randomdotsize/R/6_Ratio_500_L_9_R_18.png","img/250/equaldotsize/L/5_Ratio_250_L_24_R_6.png","img/250/randomdotsize/L/14_Ratio_250_L_12_R_3.png","img/750/equaldotanddens/L/8_Ratio_750_L_4_R_3.png","img/900/equaldotanddens/R/9_Ratio_900_L_18_R_20.png","img/250/equaldotsize/R/12_Ratio_250_L_5_R_20.png","img/750/randomdotsizeEA/L/6_Ratio_750_L_24_R_18.png","img/750/equaldotanddens/R/2_Ratio_750_L_6_R_8.png","img/900/equaldotsize/R/15_Ratio_900_L_9_R_10.png","img/900/randomdotsizeEA/R/13_Ratio_900_L_18_R_20.png","img/500/equaldotanddens/L/8_Ratio_500_L_8_R_4.png","img/900/equaldotanddens/L/10_Ratio_900_L_20_R_18.png","img/500/randomdotsizeEA/R/6_Ratio_500_L_9_R_18.png","img/900/equaldotsize/L/1_Ratio_900_L_10_R_9.png","img/500/randomdotsize/L/11_Ratio_500_L_12_R_6.png","img/250/randomdotsizeEA/R/13_Ratio_250_L_2_R_8.png","img/250/equaldotsize/R/12_Ratio_250_L_5_R_20.png","img/750/randomdotsize/R/4_Ratio_750_L_15_R_20.png","img/500/equaldotanddens/L/11_Ratio_500_L_12_R_6.png","img/900/equaldotsize/R/5_Ratio_900_L_9_R_10.png","img/750/equaldotsize/R/4_Ratio_750_L_15_R_20.png","img/500/equaldotsize/L/8_Ratio_500_L_8_R_4.png","img/750/equaldotsize/R/12_Ratio_750_L_3_R_4.png","img/500/equaldotsize/R/1_Ratio_500_L_9_R_18.png","img/900/equaldotsize/R/14_Ratio_900_L_18_R_20.png","img/900/equaldotanddens/L/4_Ratio_900_L_20_R_18.png","img/250/randomdotsizeEA/L/1_Ratio_250_L_8_R_2.png","img/900/equaldotanddens/R/9_Ratio_900_L_18_R_20.png","img/750/randomdotsize/R/11_Ratio_750_L_12_R_16.png","img/250/equaldotsize/R/6_Ratio_250_L_6_R_24.png","img/900/randomdotsize/L/2_Ratio_900_L_20_R_18.png","img/250/equaldotanddens/L/3_Ratio_250_L_8_R_2.png","img/900/randomdotsizeEA/R/9_Ratio_900_L_18_R_20.png","img/500/randomdotsize/L/7_Ratio_500_L_10_R_5.png"],"Rat0":[["12_Ratio_0_L_9_R_0.png","13_Ratio_0_L_6_R_0.png","5_Ratio_0_L_2_R_0.png","6_Ratio_0_L_4_R_0.png","8_Ratio_0_L_6_R_0.png"],["1_Ratio_0_L_0_R_17.png","10_Ratio_0_L_0_R_22.png","11_Ratio_0_L_0_R_1.png","14_Ratio_0_L_0_R_24.png","15_Ratio_0_L_0_R_4.png","2_Ratio_0_L_0_R_5.png","3_Ratio_0_L_0_R_17.png","4_Ratio_0_L_0_R_7.png","7_Ratio_0_L_0_R_19.png","9_Ratio_0_L_0_R_15.png"]],"Rat250":[["1_Ratio_250_L_8_R_2.png","14_Ratio_250_L_12_R_3.png","15_Ratio_250_L_12_R_3.png","2_Ratio_250_L_16_R_4.png","3_Ratio_250_L_8_R_2.png","5_Ratio_250_L_24_R_6.png","7_Ratio_250_L_8_R_2.png"],["10_Ratio_250_L_4_R_16.png","11_Ratio_250_L_3_R_12.png","12_Ratio_250_L_5_R_20.png","13_Ratio_250_L_2_R_8.png","4_Ratio_250_L_3_R_12.png","6_Ratio_250_L_6_R_24.png","8_Ratio_250_L_1_R_4.png","9_Ratio_250_L_3_R_12.png"]],"Rat500":[["10_Ratio_500_L_4_R_2.png","11_Ratio_500_L_12_R_6.png","13_Ratio_500_L_12_R_6.png","4_Ratio_500_L_18_R_9.png","5_Ratio_500_L_4_R_2.png","7_Ratio_500_L_10_R_5.png","8_Ratio_500_L_8_R_4.png"],["1_Ratio_500_L_9_R_18.png","12_Ratio_500_L_1_R_2.png","14_Ratio_500_L_5_R_10.png","15_Ratio_500_L_1_R_2.png","2_Ratio_500_L_3_R_6.png","3_Ratio_500_L_10_R_20.png","6_Ratio_500_L_9_R_18.png","9_Ratio_500_L_2_R_4.png"]],"Rat750":[["1_Ratio_750_L_20_R_15.png","10_Ratio_750_L_4_R_3.png","13_Ratio_750_L_8_R_6.png","14_Ratio_750_L_8_R_6.png","6_Ratio_750_L_24_R_18.png","8_Ratio_750_L_4_R_3.png","9_Ratio_750_L_4_R_3.png"],["11_Ratio_750_L_12_R_16.png","12_Ratio_750_L_3_R_4.png","15_Ratio_750_L_9_R_12.png","2_Ratio_750_L_6_R_8.png","3_Ratio_750_L_15_R_20.png","4_Ratio_750_L_15_R_20.png","5_Ratio_750_L_15_R_20.png","7_Ratio_750_L_3_R_4.png"]],"Rat900":[["1_Ratio_900_L_10_R_9.png","10_Ratio_900_L_20_R_18.png","2_Ratio_900_L_20_R_18.png","4_Ratio_900_L_20_R_18.png","8_Ratio_900_L_20_R_18.png"],["11_Ratio_900_L_18_R_20.png","12_Ratio_900_L_18_R_20.png","13_Ratio_900_L_18_R_20.png","14_Ratio_900_L_18_R_20.png","15_Ratio_900_L_9_R_10.png","3_Ratio_900_L_9_R_10.png","5_Ratio_900_L_9_R_10.png","6_Ratio_900_L_9_R_10.png","7_Ratio_900_L_9_R_10.png","9_Ratio_900_L_18_R_20.png"]],"Rat1000":[["10_Ratio_1000_L_16_R_16.png","11_Ratio_1000_L_6_R_6.png","12_Ratio_1000_L_14_R_14.png","13_Ratio_1000_L_20_R_20.png","15_Ratio_1000_L_15_R_15.png","2_Ratio_1000_L_17_R_17.png","4_Ratio_1000_L_9_R_9.png","5_Ratio_1000_L_6_R_6.png","6_Ratio_1000_L_19_R_19.png","8_Ratio_1000_L_14_R_14.png","9_Ratio_1000_L_25_R_25.png"],["1_Ratio_1000_L_1_R_1.png","14_Ratio_1000_L_17_R_17.png","3_Ratio_1000_L_17_R_17.png","7_Ratio_1000_L_6_R_6.png"]]}},{"start_time":1549382161680,"click_time":1549382163380,"finger_time":1549382162560,"fix_duration":578.3189115801468,"trial":1,"RT":880,"MT":820,"sideResp":2,"stimulus":"img/750/randomdotsize/R/11_Ratio_750_L_12_R_16.png","xmouse":[407.3333435058594,407.3333435058594,407.3333435058594,407.3333435058594,407.3333435058594,407.3333435058594,407.3333435058594,407.3333435058594,407.3333435058594,407.3333435058594,407.3333435058594,407.3333435058594,400,400,400,400,400,400,400,400,400,400,400,400,400,400,400,400,400,400,401.3333435058594,401.3333435058594,401.3333435058594,401.3333435058594,401.3333435058594,401.3333435058594,401.3333435058594,401.3333435058594,401.3333435058594,401.3333435058594,404,408,410.66668701171875,416,423.3333435058594,427.3333435058594,429.3333435058594,434,442,447.3333435058594,450,455.3333435058594,461.3333435058594,464,473.3333435058594,478.66668701171875,483.3333435058594,485.3333435058594,488.66668701171875,494.66668701171875,498.66668701171875,500,505.3333435058594,512.6666870117188,522.6666870117188,526,532.6666870117188,539.3333740234375,542.6666870117188,556,564.6666870117188,576,579.3333740234375,586.6666870117188,603.3333740234375,614,619.3333740234375,628.6666870117188,633.3333740234375,657.3333740234375,663.3333740234375,675.3333740234375,682,691.3333740234375,706.6666870117188,714],"ymouse":[837.3333740234375,837.3333740234375,837.3333740234375,837.3333740234375,837.3333740234375,837.3333740234375,837.3333740234375,837.3333740234375,837.3333740234375,837.3333740234375,837.3333740234375,837.3333740234375,831,831,831,831,831,831,831,831,831,831,831,831,831,831,831,831,831,831,822,822,822,822,822,822,822,822,822,822,799.3333740234375,791.3333740234375,786.6666870117188,776,760,748.6666870117188,743.3333740234375,730.6666870117188,712,700,694,681.3333740234375,669.3333740234375,663.3333740234375,646.6666870117188,636,626.6666870117188,622.6666870117188,613.3333740234375,598.6666870117188,586.6666870117188,582,566,549.3333740234375,524.6666870117188,516,498,480.66668701171875,472,441.3333435058594,421.3333435058594,397.3333435058594,388,370.66668701171875,330,300.66668701171875,288.66668701171875,265.3333435058594,254,204.6666717529297,192.6666717529297,170,159.33334350585938,141.33334350585938,113.33334350585938,98.66667175292969],"timestamp_mouse":[2,38,39,60,80,100,119,140,160,179,199,219,240,260,280,300,320,340,360,379,399,420,440,460,480,500,520,540,560,579,600,620,640,659,680,700,719,740,760,781,800,820,840,860,880,900,919,940,962,980,999,1019,1039,1059,1080,1099,1119,1140,1161,1182,1200,1220,1239,1260,1281,1300,1320,1340,1359,1383,1400,1420,1440,1460,1480,1499,1519,1540,1560,1579,1600,1620,1639,1660,1679,1700],"xSR":350,"ySR":768,"xT1":30,"yT1":0,"xT2":670,"yT2":0,"toosoon":0,"cond_shown":"randomdotsize","ratio_trial":750,"smaller_num":"12","larger_num":"16","correct_side":2,"subjID":"411wm","gender":"No_gender","age":"No_age","school":"No_school"},{"start_time":1549382165989,"click_time":1549382167481,"finger_time":1549382166540,"fix_duration":1320.1698466759105,"trial":2,"RT":551,"MT":941,"sideResp":1,"stimulus":"img/750/equaldotanddens/L/14_Ratio_750_L_8_R_6.png","xmouse":[405.3333435058594,405.3333435058594,405.3333435058594,405.3333435058594,405.3333435058594,404.66668701171875,404.66668701171875,404,404,402.66668701171875,402.66668701171875,402,402,402,402,402,402,400,399.3333435058594,397.3333435058594,396.66668701171875,394.66668701171875,392,390.66668701171875,387.3333435058594,386,384.66668701171875,383.3333435058594,382,380,378.66668701171875,377.3333435058594,376,374,370,369.3333435058594,366.66668701171875,364,362.66668701171875,360.66668701171875,356.66668701171875,354.66668701171875,353.3333435058594,350,343.3333435058594,338,334.66668701171875,326.66668701171875,321.3333435058594,300.66668701171875,295.3333435058594,284,278.66668701171875,269.3333435058594,254,243.33334350585938,238,229.33334350585938,220,209.33334350585938,206,200,194,191.33334350585938,182,176,170,167.33334350585938,162,154,147.33334350585938,144,137.33334350585938,134.6666717529297,120],"ymouse":[808,808,808,808,807.3333740234375,807.3333740234375,806.6666870117188,805.3333740234375,804.6666870117188,803.3333740234375,802.6666870117188,802.6666870117188,802.6666870117188,803.3333740234375,802.6666870117188,802.6666870117188,802.6666870117188,800,798.6666870117188,796,794.6666870117188,791.3333740234375,786.6666870117188,784,776,771.3333740234375,768,766,761.3333740234375,753.3333740234375,746.6666870117188,743.3333740234375,737.3333740234375,731.3333740234375,722.6666870117188,719.3333740234375,712,704.6666870117188,700.6666870117188,692.6666870117188,680,671.3333740234375,666.6666870117188,657.3333740234375,637.3333740234375,622,612,582,564.6666870117188,517.3333740234375,507.3333740234375,485.3333435058594,473.3333435058594,446,408.66668701171875,386.66668701171875,375.3333435058594,354,335.3333435058594,309.3333435058594,302,286,271.3333435058594,260.66668701171875,231.33334350585938,213.33334350585938,198.6666717529297,191.33334350585938,180,162,149.33334350585938,141.33334350585938,127.33334350585938,121.33334350585938,98.66667175292969],"timestamp_mouse":[20,39,51,71,90,111,131,150,171,191,211,231,250,271,291,310,331,351,370,390,411,431,451,471,491,511,531,551,570,591,610,630,651,670,692,710,731,751,771,790,811,830,850,870,893,911,931,951,970,992,1011,1031,1051,1071,1092,1111,1131,1151,1170,1192,1210,1230,1250,1270,1291,1311,1331,1351,1370,1392,1410,1430,1451,1470,1491],"xSR":350,"ySR":768,"xT1":30,"yT1":0,"xT2":670,"yT2":0,"toosoon":0,"cond_shown":"equaldotanddens","ratio_trial":750,"smaller_num":"6","larger_num":"8","correct_side":1,"subjID":"411wm","gender":"No_gender","age":"No_age","school":"No_school"},{"start_time":1549382169538,"click_time":1549382171020,"finger_time":1549382170100,"fix_duration":936.3203866705918,"trial":3,"RT":562,"MT":920,"sideResp":1,"stimulus":"img/250/equaldotsize/L/15_Ratio_250_L_12_R_3.png","xmouse":[417,417,417,417,417,417,417,417,417,417,417,417,417,416,416,416,416,416,416,416,414,413.3333435058594,412.66668701171875,411.3333435058594,409.3333435058594,408.66668701171875,407.3333435058594,406.66668701171875,403.3333435058594,402.66668701171875,400.66668701171875,398,396,392,388,384.66668701171875,382.66668701171875,379.3333435058594,377.3333435058594,368,366,361.3333435058594,355.3333435058594,352.66668701171875,344,337.3333435058594,334,327.3333435058594,319.3333435058594,304.66668701171875,300,291.3333435058594,282,266.66668701171875,261.3333435058594,250,240,235.33334350585938,228,215.33334350585938,202,196.6666717529297,190,180.6666717529297,174,170,158,152,141.33334350585938,128.6666717529297,122,119.33333587646484,114,110.66667175292969,104],"ymouse":[807,807,807,807,807,807,807,807,807,807,807,807,807,798.6666870117188,798,798,798,798,798,798,790.6666870117188,789.3333740234375,786.6666870117188,782,779.3333740234375,777.3333740234375,772.6666870117188,770.6666870117188,757.3333740234375,753.3333740234375,744.6666870117188,735.3333740234375,730,716,706,696,691.3333740234375,680,674.6666870117188,649.3333740234375,643.3333740234375,631.3333740234375,618.6666870117188,612.6666870117188,595.3333740234375,584,578,565.3333740234375,551.3333740234375,527.3333740234375,520,504.66668701171875,488.66668701171875,460.66668701171875,450.66668701171875,426.66668701171875,404.66668701171875,394,377.3333435058594,349.3333435058594,320.66668701171875,309.3333435058594,292.66668701171875,274,260,250,220.6666717529297,204.6666717529297,174,145.33334350585938,130.6666717529297,124.66667175292969,114.66667175292969,106.66667175292969,91.33333587646484],"timestamp_mouse":[7,26,42,62,82,101,122,142,162,182,202,222,241,262,281,302,322,341,363,382,401,421,442,462,481,502,522,541,562,581,601,621,642,663,681,701,721,741,762,782,801,822,841,862,883,901,922,942,962,983,1001,1022,1042,1064,1082,1102,1121,1141,1161,1182,1202,1221,1242,1263,1282,1301,1321,1341,1362,1381,1401,1422,1442,1461,1482],"xSR":350,"ySR":768,"xT1":30,"yT1":0,"xT2":670,"yT2":0,"toosoon":0,"cond_shown":"equaldotsize","ratio_trial":250,"smaller_num":"3","larger_num":"12","correct_side":1,"subjID":"411wm","gender":"No_gender","age":"No_age","school":"No_school"},{"start_time":1549382172391,"click_time":1549382174842,"finger_time":1549382173180,"fix_duration":250,"trial":4,"RT":789,"MT":1662,"sideResp":2,"stimulus":"img/250/randomdotsizeEA/R/8_Ratio_250_L_1_R_4.png","xmouse":[403,403,403,403,403,403,403,403,403,403,403,403,393,393,393,393,393,393,393,393,393,393,393,393,393,393,393,397.3333435058594,397.3333435058594,397.3333435058594,397.3333435058594,395.3333435058594,394.66668701171875,393.3333435058594,392.66668701171875,392,392.66668701171875,394,394.66668701171875,396.66668701171875,397.3333435058594,400.66668701171875,401.3333435058594,402.66668701171875,403.3333435058594,404,406,408,409.3333435058594,410,412,412.66668701171875,414,414.66668701171875,414.66668701171875,414.66668701171875,414,413.3333435058594,412.66668701171875,412,410.66668701171875,408.66668701171875,406,405.3333435058594,403.3333435058594,400,394.66668701171875,392.66668701171875,388,383.3333435058594,380.66668701171875,374,363.3333435058594,357.3333435058594,354,345.3333435058594,338.66668701171875,327.3333435058594,324,318,312.66668701171875,310,303.3333435058594,300,297.3333435058594,296.66668701171875,296.66668701171875,297.3333435058594,300,302,302,302,302,302,302,302,302,302,302,377.3333435058594,377.3333435058594,405.3333435058594,432.66668701171875,443.3333435058594,462,484,498,536.6666870117188,556.6666870117188,577.3333740234375,586.6666870117188,605.3333740234375,630,640.6666870117188,644,650,656.6666870117188,669.3333740234375,673.3333740234375,680,684.6666870117188,686.6666870117188,690.6666870117188],"ymouse":[819,819,819,819,819,819,819,819,819,819,819,819,828,828,828,828,828,828,828,828,828,828,828,828,828,828,828,820,817.3333740234375,817.3333740234375,817.3333740234375,809.3333740234375,807.3333740234375,805.3333740234375,804,800.6666870117188,791.3333740234375,779.3333740234375,774.6666870117188,764,758.6666870117188,744,741.3333740234375,736.6666870117188,732.6666870117188,730,725.3333740234375,716.6666870117188,711.3333740234375,708,702.6666870117188,700,691.3333740234375,688.6666870117188,684.6666870117188,682.6666870117188,678,672,668,666,662,658,649.3333740234375,646.6666870117188,639.3333740234375,632,619.3333740234375,615.3333740234375,606.6666870117188,598,593.3333740234375,582.6666870117188,564,553.3333740234375,547.3333740234375,533.3333740234375,522,503.3333740234375,497.3333740234375,486,476,471.3333435058594,459.3333435058594,452.66668701171875,448,446,442.66668701171875,442,442.66668701171875,442.66668701171875,442.66668701171875,442.66668701171875,442.66668701171875,442.66668701171875,442.66668701171875,442.66668701171875,442.66668701171875,442.66668701171875,442.66668701171875,442,442,432,422.66668701171875,418.66668701171875,411.3333435058594,400.66668701171875,393.3333435058594,364,342.66668701171875,318,305.3333435058594,279.3333435058594,240,220,210.6666717529297,194,177.33334350585938,144.6666717529297,137.33334350585938,120,109.33333587646484,105.33333587646484,93.33333587646484],"timestamp_mouse":[10,29,48,69,89,108,129,148,168,189,209,229,248,269,288,308,329,349,369,389,409,429,448,469,489,509,529,549,568,589,609,630,649,668,688,708,730,749,769,789,809,830,849,868,889,909,928,953,969,988,1008,1029,1050,1068,1088,1108,1128,1149,1169,1189,1209,1229,1249,1268,1289,1309,1330,1350,1368,1389,1408,1429,1449,1468,1489,1509,1528,1549,1569,1589,1609,1629,1649,1669,1689,1709,1740,1748,1769,1789,1809,1828,1850,1868,1888,1908,1929,1950,1968,1989,2008,2029,2049,2068,2088,2108,2129,2149,2168,2189,2209,2229,2248,2269,2288,2309,2329,2358,2369,2389,2409,2428,2451],"xSR":350,"ySR":768,"xT1":30,"yT1":0,"xT2":670,"yT2":0,"toosoon":0,"cond_shown":"randomdotsizeEA","ratio_trial":250,"smaller_num":"1","larger_num":"4","correct_side":2,"subjID":"411wm","gender":"No_gender","age":"No_age","school":"No_school"},{"start_time":1549382176599,"click_time":1549382178520,"finger_time":1549382177340,"fix_duration":698.560949488365,"trial":5,"RT":741,"MT":1180,"sideResp":2,"stimulus":"img/750/equaldotsize/L/14_Ratio_750_L_8_R_6.png","xmouse":[404,404,404,404,404,404,404,404,404.66668701171875,404.66668701171875,404.66668701171875,404.66668701171875,404,404,403.3333435058594,403.3333435058594,403.3333435058594,403.3333435058594,403.3333435058594,404,404,404,404,404,404,404,404,404,404,404,404,404,404,404,404.66668701171875,404.66668701171875,404.66668701171875,405.3333435058594,405.3333435058594,405.3333435058594,405.3333435058594,406,406,406.66668701171875,406.66668701171875,407.3333435058594,407.3333435058594,407.3333435058594,408,408,408.66668701171875,409.3333435058594,410,412,414,416,418.66668701171875,420,424,424.66668701171875,425.3333435058594,426,426,426.66668701171875,426.66668701171875,427.3333435058594,428,429.3333435058594,434.66668701171875,440.66668701171875,443.3333435058594,449.3333435058594,452.66668701171875,460,461.3333435058594,462,462,461.3333435058594,464,475.3333435058594,483.3333435058594,501.3333435058594,518,539.3333740234375,553.3333740234375,560,575.3333740234375,582.6666870117188,614,620.6666870117188,634,640,653.3333740234375,670.6666870117188,682,687.3333740234375,696],"ymouse":[815.3333740234375,813.3333740234375,813.3333740234375,813.3333740234375,807.3333740234375,806,805.3333740234375,803.3333740234375,801.3333740234375,800,799.3333740234375,798.6666870117188,797.3333740234375,796.6666870117188,796.6666870117188,796,795.3333740234375,794.6666870117188,794,793.3333740234375,792,791.3333740234375,789.3333740234375,786.6666870117188,784.6666870117188,784,782.6666870117188,781.3333740234375,780,779.3333740234375,778,776,775.3333740234375,773.3333740234375,771.3333740234375,770,768.6666870117188,767.3333740234375,766,764.6666870117188,764,762,761.3333740234375,757.3333740234375,756,754,752.6666870117188,752.6666870117188,750.6666870117188,750,748.6666870117188,747.3333740234375,746,742,737.3333740234375,734,727.3333740234375,724,713.3333740234375,712,709.3333740234375,707.3333740234375,706.6666870117188,704.6666870117188,703.3333740234375,701.3333740234375,700.6666870117188,696,679.3333740234375,663.3333740234375,656,642,636,618,615.3333740234375,610.6666870117188,608.6666870117188,605.3333740234375,593.3333740234375,566.6666870117188,549.3333740234375,514.6666870117188,483.3333435058594,438,405.3333435058594,387.3333435058594,348,331.3333435058594,258.66668701171875,242,212,198,172,137.33334350585938,116.66667175292969,107.33333587646484,90],"timestamp_mouse":[1,26,40,60,80,100,121,141,161,180,200,220,241,260,280,300,320,340,360,381,401,420,441,461,480,501,521,541,560,580,601,621,641,661,680,701,721,741,761,781,801,821,841,860,881,901,920,940,961,981,1001,1020,1040,1060,1081,1100,1120,1141,1162,1181,1201,1221,1240,1261,1281,1301,1320,1341,1361,1381,1401,1420,1440,1461,1481,1500,1520,1540,1561,1581,1600,1621,1641,1661,1681,1701,1721,1741,1762,1781,1800,1821,1840,1862,1881,1900,1920],"xSR":350,"ySR":768,"xT1":30,"yT1":0,"xT2":670,"yT2":0,"toosoon":0,"cond_shown":"equaldotsize","ratio_trial":750,"smaller_num":"6","larger_num":"8","correct_side":1,"subjID":"411wm","gender":"No_gender","age":"No_age","school":"No_school"},{"start_time":1549382180511,"click_time":1549382181920,"finger_time":1549382181219,"fix_duration":250,"trial":6,"RT":708,"MT":701,"sideResp":1,"stimulus":"img/900/equaldotsize/L/8_Ratio_900_L_20_R_18.png","xmouse":[396.66668701171875,396.66668701171875,396.66668701171875,396.66668701171875,396.66668701171875,396.66668701171875,396.66668701171875,396.66668701171875,397.3333435058594,397.3333435058594,397.3333435058594,397.3333435058594,397.3333435058594,397.3333435058594,397.3333435058594,397.3333435058594,397.3333435058594,397.3333435058594,397.3333435058594,397.3333435058594,397.3333435058594,397.3333435058594,397.3333435058594,397.3333435058594,397.3333435058594,397.3333435058594,397.3333435058594,397.3333435058594,383.3333435058594,383.3333435058594,383.3333435058594,383.3333435058594,383.3333435058594,368,365.3333435058594,361.3333435058594,359.3333435058594,356,349.3333435058594,343.3333435058594,334,330.66668701171875,324,314,310.66668701171875,303.3333435058594,296,292.66668701171875,285.3333435058594,273.3333435058594,266,262.66668701171875,256.66668701171875,250,238,234.6666717529297,227.33334350585938,222.6666717529297,215.33334350585938,202.6666717529297,194.6666717529297,184,179.33334350585938,170.6666717529297,160,156.6666717529297,150.6666717529297,145.33334350585938,136,130.6666717529297,128.6666717529297],"ymouse":[834,834,834,834,834,834,834,834,837.3333740234375,837.3333740234375,837.3333740234375,837.3333740234375,837.3333740234375,837.3333740234375,837.3333740234375,837.3333740234375,837.3333740234375,837.3333740234375,837.3333740234375,837.3333740234375,837.3333740234375,837.3333740234375,837.3333740234375,837.3333740234375,837.3333740234375,837.3333740234375,837.3333740234375,837.3333740234375,826,826,826,826,826,798,784.6666870117188,762.6666870117188,754.6666870117188,742.6666870117188,722.6666870117188,706,682,672,655.3333740234375,633.3333740234375,626,611.3333740234375,596,587.3333740234375,567.3333740234375,521.3333740234375,489.3333435058594,475.3333435058594,448.66668701171875,420.66668701171875,378,364,338.66668701171875,324,298,258,232.6666717529297,208,196,174.6666717529297,150,142,128,118.66667175292969,104.66667175292969,95.33333587646484,91.33333587646484],"timestamp_mouse":[10,35,49,69,89,109,128,148,169,189,208,229,249,271,289,309,328,348,369,389,408,429,449,472,489,508,529,548,573,588,608,628,649,670,689,708,729,748,770,789,809,829,848,870,889,909,928,949,969,990,1009,1029,1048,1068,1088,1109,1129,1148,1169,1189,1208,1229,1249,1269,1289,1309,1329,1349,1370,1388,1409],"xSR":350,"ySR":768,"xT1":30,"yT1":0,"xT2":670,"yT2":0,"toosoon":0,"cond_shown":"equaldotsize","ratio_trial":900,"smaller_num":"18","larger_num":"20","correct_side":1,"subjID":"411wm","gender":"No_gender","age":"No_age","school":"No_school"},{"start_time":1549382184317,"click_time":1549382185820,"finger_time":1549382184999,"fix_duration":1191.7473569424621,"trial":7,"RT":682,"MT":821,"sideResp":2,"stimulus":"img/750/randomdotsize/R/3_Ratio_750_L_15_R_20.png","xmouse":[405.3333435058594,406,406,406.66668701171875,407.3333435058594,407.3333435058594,407.3333435058594,408,408,407.3333435058594,407.3333435058594,407.3333435058594,407.3333435058594,406.66668701171875,406.66668701171875,406.66668701171875,407.3333435058594,407.3333435058594,408,408.66668701171875,409.3333435058594,409.3333435058594,409.3333435058594,409.3333435058594,410,410.66668701171875,410.66668701171875,410.66668701171875,410.66668701171875,411.3333435058594,411.3333435058594,411.3333435058594,412,412,412.66668701171875,413.3333435058594,414,414.66668701171875,415.3333435058594,416.66668701171875,418.66668701171875,419.3333435058594,422,427.3333435058594,430.66668701171875,444,454.66668701171875,463.3333435058594,468.66668701171875,478.66668701171875,492.66668701171875,500,503.3333435058594,511.3333740234375,516.6666870117188,529.3333740234375,534,545.3333740234375,550,558.6666870117188,573.3333740234375,585.3333740234375,591.3333740234375,604,613.3333740234375,626.6666870117188,632.6666870117188,636,644.6666870117188,648,661.3333740234375,664,670,673.3333740234375,678.6666870117188,686.6666870117188],"ymouse":[803.3333740234375,802.6666870117188,802.6666870117188,802.6666870117188,802.6666870117188,802,802,801.3333740234375,801.3333740234375,800,800,799.3333740234375,798.6666870117188,798.6666870117188,798,797.3333740234375,796,795.3333740234375,793.3333740234375,790.6666870117188,790,788,786,785.3333740234375,782.6666870117188,780.6666870117188,778.6666870117188,778,776.6666870117188,774,772.6666870117188,771.3333740234375,770,769.3333740234375,767.3333740234375,765.3333740234375,763.3333740234375,762.6666870117188,760.6666870117188,758,753.3333740234375,750.6666870117188,744,730.6666870117188,722.6666870117188,688.6666870117188,664,640.6666870117188,627.3333740234375,596,554,528.6666870117188,516.6666870117188,490.66668701171875,478.66668701171875,431.3333435058594,419.3333435058594,390.66668701171875,378,352,314.66668701171875,288.66668701171875,274.66668701171875,250,229.33334350585938,200.6666717529297,186,178,161.33334350585938,154,130.6666717529297,124.66667175292969,113.33334350585938,108.66667175292969,100.66667175292969,86],"timestamp_mouse":[11,38,42,63,84,102,123,143,162,184,203,222,243,263,282,303,322,343,362,384,403,423,442,463,485,502,522,543,563,584,603,623,643,663,682,703,723,742,763,782,803,822,842,862,883,903,923,943,963,983,1003,1022,1043,1062,1083,1103,1123,1142,1162,1182,1202,1223,1242,1263,1283,1303,1323,1343,1362,1383,1403,1422,1442,1463,1483,1503],"xSR":350,"ySR":768,"xT1":30,"yT1":0,"xT2":670,"yT2":0,"toosoon":0,"cond_shown":"randomdotsize","ratio_trial":750,"smaller_num":"15","larger_num":"20","correct_side":2,"subjID":"411wm","gender":"No_gender","age":"No_age","school":"No_school"},{"start_time":1549382187520,"click_time":1549382188839,"finger_time":1549382188220,"fix_duration":659.1221544249453,"trial":8,"RT":700,"MT":619,"sideResp":2,"stimulus":"img/900/randomdotsizeEA/R/12_Ratio_900_L_18_R_20.png","xmouse":[402.66668701171875,402.66668701171875,402.66668701171875,402.66668701171875,402.66668701171875,402.66668701171875,402.66668701171875,402.66668701171875,402.66668701171875,405.3333435058594,405.3333435058594,405.3333435058594,405.3333435058594,405.3333435058594,405.3333435058594,405.3333435058594,405.3333435058594,405.3333435058594,405.3333435058594,406,406,406,406,406,404.66668701171875,405.3333435058594,405.3333435058594,406,406,407.3333435058594,407.3333435058594,410,410.66668701171875,412.66668701171875,414,417.3333435058594,423.3333435058594,428,430.66668701171875,438,448.66668701171875,465.3333435058594,470,480.66668701171875,491.3333435058594,496,520.6666870117188,526.6666870117188,540.6666870117188,548,562,582,596,602.6666870117188,614.6666870117188,621.3333740234375,642.6666870117188,648.6666870117188,659.3333740234375,664,674,685.3333740234375,690.6666870117188,697.3333740234375,700.6666870117188,707.3333740234375,715.3333740234375],"ymouse":[810,810,810,810,810,810,810,810,810,813.3333740234375,813.3333740234375,813.3333740234375,813.3333740234375,813.3333740234375,813.3333740234375,813.3333740234375,813.3333740234375,813.3333740234375,813.3333740234375,808,808,808,808,808,800,797.3333740234375,794.6666870117188,794,791.3333740234375,788.6666870117188,788,782,780.6666870117188,775.3333740234375,772,762,747.3333740234375,736,730,712.6666870117188,688.6666870117188,654,643.3333740234375,622,600,589.3333740234375,536,520.6666870117188,490.66668701171875,476,447.3333435058594,399.3333435058594,365.3333435058594,349.3333435058594,320,307.3333435058594,255.33334350585938,243.33334350585938,219.33334350585938,207.33334350585938,185.33334350585938,160,146,131.33334350585938,124,110.66667175292969,92],"timestamp_mouse":[5,32,40,59,80,102,120,139,160,180,199,220,239,259,280,300,319,340,359,379,399,424,440,460,480,502,520,539,559,580,599,620,640,660,680,700,720,740,759,780,800,821,840,859,880,899,923,940,960,979,999,1020,1040,1060,1079,1100,1122,1139,1160,1179,1200,1221,1240,1260,1279,1299,1319],"xSR":350,"ySR":768,"xT1":30,"yT1":0,"xT2":670,"yT2":0,"toosoon":0,"cond_shown":"randomdotsizeEA","ratio_trial":900,"smaller_num":"18","larger_num":"20","correct_side":2,"subjID":"411wm","gender":"No_gender","age":"No_age","school":"No_school"},{"start_time":1549382190459,"click_time":1549382191862,"finger_time":1549382191220,"fix_duration":618.9317301876957,"trial":9,"RT":761,"MT":642,"sideResp":1,"stimulus":"img/900/randomdotsizeEA/R/11_Ratio_900_L_18_R_20.png","xmouse":[388.66668701171875,388.66668701171875,388.66668701171875,388.66668701171875,388.66668701171875,388.66668701171875,388.66668701171875,388.66668701171875,388.66668701171875,391.3333435058594,391.3333435058594,391.3333435058594,391.3333435058594,391.3333435058594,391.3333435058594,391.3333435058594,391.3333435058594,391.3333435058594,391.3333435058594,391.3333435058594,392.66668701171875,392.66668701171875,392.66668701171875,392.66668701171875,392.66668701171875,392.66668701171875,392.66668701171875,392.66668701171875,392.66668701171875,392.66668701171875,382,380.66668701171875,378.66668701171875,375.3333435058594,373.3333435058594,373.3333435058594,373.3333435058594,373.3333435058594,352,347.3333435058594,340,334,331.3333435058594,322.66668701171875,319.3333435058594,302.66668701171875,298.66668701171875,290,286,278,262,250,244.6666717529297,236,227.33334350585938,213.33334350585938,208.6666717529297,199.33334350585938,191.33334350585938,186.6666717529297,170.6666717529297,165.33334350585938,156.6666717529297,153.33334350585938,146,134.6666717529297,127.33334350585938,122.66667175292969,115.33333587646484,107.33333587646484,96],"ymouse":[819.3333740234375,819.3333740234375,819.3333740234375,819.3333740234375,819.3333740234375,819.3333740234375,819.3333740234375,819.3333740234375,819.3333740234375,819.3333740234375,819.3333740234375,819.3333740234375,819.3333740234375,819.3333740234375,819.3333740234375,819.3333740234375,819.3333740234375,819.3333740234375,819.3333740234375,819.3333740234375,818,818,818,818,818,818,818,818,818,818,802.6666870117188,801.3333740234375,798,793.3333740234375,790,790,790,790,753.3333740234375,742.6666870117188,726.6666870117188,716.6666870117188,711.3333740234375,697.3333740234375,691.3333740234375,661.3333740234375,654,635.3333740234375,626.6666870117188,606.6666870117188,566,532.6666870117188,516,485.3333435058594,452,401.3333435058594,384.66668701171875,353.3333435058594,324,310.66668701171875,256,243.33334350585938,219.33334350585938,210.6666717529297,190,162,145.33334350585938,133.33334350585938,119.33334350585938,102.66667175292969,81.33333587646484],"timestamp_mouse":[3,34,40,60,81,101,121,141,161,182,201,221,241,261,280,301,321,341,361,381,400,421,441,461,481,500,520,541,561,581,601,620,640,661,681,701,721,741,761,781,801,821,840,861,880,901,920,941,961,981,1001,1020,1041,1061,1081,1103,1120,1141,1160,1181,1203,1221,1241,1261,1281,1303,1321,1340,1360,1380,1403],"xSR":350,"ySR":768,"xT1":30,"yT1":0,"xT2":670,"yT2":0,"toosoon":0,"cond_shown":"randomdotsizeEA","ratio_trial":900,"smaller_num":"18","larger_num":"20","correct_side":2,"subjID":"411wm","gender":"No_gender","age":"No_age","school":"No_school"},{"start_time":1549382193090,"click_time":1549382194682,"finger_time":1549382193800,"fix_duration":250,"trial":10,"RT":710,"MT":882,"sideResp":1,"stimulus":"img/500/equaldotanddens/L/10_Ratio_500_L_4_R_2.png","xmouse":[396.66668701171875,396,396,396,396,396,396,396,396,396,396,396,396,396.66668701171875,396.66668701171875,396.66668701171875,396.66668701171875,397.3333435058594,397.3333435058594,397.3333435058594,397.3333435058594,397.3333435058594,397.3333435058594,397.3333435058594,397.3333435058594,397.3333435058594,397.3333435058594,398.66668701171875,398.66668701171875,398.66668701171875,398.66668701171875,398.66668701171875,398.66668701171875,398.66668701171875,410,422.66668701171875,429.3333435058594,440.66668701171875,444.66668701171875,453.3333435058594,455.3333435058594,458,458.66668701171875,460,460.66668701171875,460.66668701171875,461.3333435058594,461.3333435058594,461.3333435058594,462,462,461.3333435058594,460,460,460,446,438.66668701171875,434,424.66668701171875,407.3333435058594,396,389.3333435058594,376,366.66668701171875,328,319.3333435058594,300.66668701171875,292,273.3333435058594,248,231.33334350585938,223.33334350585938,207.33334350585938,192.6666717529297,171.33334350585938,164.6666717529297,150.6666717529297,136,128,104.66667175292969],"ymouse":[822.6666870117188,822.6666870117188,822.6666870117188,823.3333740234375,823.3333740234375,823.3333740234375,823.3333740234375,824,824,824,824,824,824.6666870117188,824.6666870117188,824.6666870117188,824.6666870117188,824.6666870117188,824.6666870117188,824.6666870117188,824.6666870117188,824.6666870117188,824.6666870117188,824.6666870117188,824.6666870117188,824.6666870117188,824.6666870117188,824.6666870117188,820.6666870117188,820.6666870117188,820.6666870117188,820.6666870117188,820.6666870117188,820.6666870117188,820.6666870117188,782,749.3333740234375,732,708,699.3333740234375,682.6666870117188,680,674,672,668,664,661.3333740234375,660.6666870117188,658,655.3333740234375,651.3333740234375,650,647.3333740234375,645.3333740234375,645.3333740234375,645.3333740234375,638,630.6666870117188,626,615.3333740234375,594.6666870117188,581.3333740234375,574,557.3333740234375,545.3333740234375,489.3333435058594,475.3333435058594,447.3333435058594,432.66668701171875,402.66668701171875,355.3333435058594,324.66668701171875,308,278.66668701171875,249.33334350585938,206,192,165.33334350585938,140.6666717529297,128.6666717529297,94],"timestamp_mouse":[9,30,50,72,90,115,129,150,169,190,210,230,249,270,289,309,330,349,370,390,409,430,449,470,490,510,530,549,570,591,609,630,650,670,689,710,730,749,769,790,810,830,850,869,889,910,929,950,969,990,1010,1029,1049,1069,1092,1109,1130,1149,1169,1191,1209,1230,1250,1270,1290,1310,1329,1349,1369,1389,1410,1429,1449,1469,1490,1509,1529,1550,1570,1592],"xSR":350,"ySR":768,"xT1":30,"yT1":0,"xT2":670,"yT2":0,"toosoon":0,"cond_shown":"equaldotanddens","ratio_trial":500,"smaller_num":"2","larger_num":"4","correct_side":1,"subjID":"411wm","gender":"No_gender","age":"No_age","school":"No_school"},{"start_time":1549382196587,"click_time":1549382198080,"finger_time":1549382197500,"fix_duration":886.8009951301835,"trial":11,"RT":913,"MT":580,"sideResp":1,"stimulus":"img/500/equaldotanddens/L/13_Ratio_500_L_12_R_6.png","xmouse":[408,408,408,408,408.66668701171875,408.66668701171875,408.66668701171875,408.66668701171875,408.66668701171875,408.66668701171875,408.66668701171875,408.66668701171875,408.66668701171875,408.66668701171875,408.66668701171875,408.66668701171875,408.66668701171875,408.66668701171875,408.66668701171875,408.66668701171875,408.66668701171875,408.66668701171875,408.66668701171875,408.66668701171875,408.66668701171875,408.66668701171875,408.66668701171875,408.66668701171875,408.66668701171875,408.66668701171875,408.66668701171875,408.66668701171875,408.66668701171875,408.66668701171875,408,408,408,408,408,408,400.66668701171875,398,398,398,388.66668701171875,382,375.3333435058594,371.3333435058594,362.66668701171875,357.3333435058594,334.66668701171875,318.66668701171875,305.3333435058594,298,286,267.3333435058594,254,248.66668701171875,235.33334350585938,222,215.33334350585938,197.33334350585938,186.6666717529297,180.6666717529297,172,158.6666717529297,150.6666717529297,144.6666717529297,141.33334350585938,132.6666717529297,122,118.66667175292969,111.33333587646484,104,99.33333587646484],"ymouse":[828.6666870117188,828.6666870117188,828.6666870117188,828.6666870117188,828.6666870117188,828.6666870117188,828.6666870117188,828.6666870117188,828.6666870117188,828.6666870117188,828.6666870117188,828.6666870117188,828.6666870117188,828.6666870117188,828.6666870117188,828.6666870117188,828.6666870117188,828.6666870117188,828.6666870117188,828.6666870117188,828.6666870117188,828.6666870117188,828.6666870117188,828.6666870117188,829.3333740234375,829.3333740234375,829.3333740234375,829.3333740234375,829.3333740234375,829.3333740234375,829.3333740234375,829.3333740234375,829.3333740234375,829.3333740234375,821.3333740234375,821.3333740234375,821.3333740234375,821.3333740234375,821.3333740234375,821.3333740234375,806,804,804,804,782,761.3333740234375,746.6666870117188,739.3333740234375,722.6666870117188,714.6666870117188,674,643.3333740234375,613.3333740234375,598,565.3333740234375,509.3333740234375,471.3333435058594,455.3333435058594,421.3333435058594,388,372,328.66668701171875,300.66668701171875,286.66668701171875,260,224.6666717529297,202.6666717529297,183.33334350585938,176,158.6666717529297,137.33334350585938,130,116,101.33333587646484,91.33333587646484],"timestamp_mouse":[27,33,52,73,93,113,133,153,173,193,212,233,252,273,293,313,333,352,372,393,413,433,452,473,493,513,533,552,573,593,612,632,652,672,692,713,732,753,773,792,813,833,853,873,892,913,932,952,973,993,1013,1032,1052,1073,1092,1113,1133,1152,1172,1192,1213,1232,1252,1273,1292,1315,1332,1353,1373,1392,1415,1433,1452,1472,1493],"xSR":350,"ySR":768,"xT1":30,"yT1":0,"xT2":670,"yT2":0,"toosoon":0,"cond_shown":"equaldotanddens","ratio_trial":500,"smaller_num":"6","larger_num":"12","correct_side":1,"subjID":"411wm","gender":"No_gender","age":"No_age","school":"No_school"},{"start_time":1549382199635,"click_time":1549382200980,"finger_time":1549382200240,"fix_duration":613.2048285706294,"trial":12,"RT":605,"MT":740,"sideResp":2,"stimulus":"img/900/randomdotsize/L/10_Ratio_900_L_20_R_18.png","xmouse":[380,380,380,380,380,380,380,380,380,380,380.66668701171875,380.66668701171875,380.66668701171875,380.66668701171875,380.66668701171875,380.66668701171875,380.66668701171875,380.66668701171875,380.66668701171875,380.66668701171875,380.66668701171875,380.66668701171875,380.66668701171875,380.66668701171875,380.66668701171875,380.66668701171875,380.66668701171875,367.3333435058594,364.66668701171875,356,351.3333435058594,342.66668701171875,336.66668701171875,324,314.66668701171875,311.3333435058594,310,307.3333435058594,304.66668701171875,303.3333435058594,303.3333435058594,305.3333435058594,305.3333435058594,305.3333435058594,305.3333435058594,324.66668701171875,340.66668701171875,352,377.3333435058594,414.66668701171875,438,449.3333435058594,470,480,520,528.6666870117188,548,556.6666870117188,574.6666870117188,600.6666870117188,616,628.6666870117188,634.6666870117188,644,648,663.3333740234375,666,674],"ymouse":[836.6666870117188,836.6666870117188,836.6666870117188,836.6666870117188,836.6666870117188,836.6666870117188,836.6666870117188,836.6666870117188,836.6666870117188,836.6666870117188,836.6666870117188,836.6666870117188,836.6666870117188,836.6666870117188,836.6666870117188,836.6666870117188,836.6666870117188,836.6666870117188,836.6666870117188,836.6666870117188,836,836,836,836,836,836,836,810.6666870117188,805.3333740234375,774,760,734.6666870117188,721.3333740234375,694,670.6666870117188,662,657.3333740234375,649.3333740234375,642,632.6666870117188,630,626.6666870117188,626.6666870117188,626.6666870117188,626.6666870117188,617.3333740234375,606,594.6666870117188,564,511.3333740234375,479.3333435058594,464,437.3333435058594,425.3333435058594,370.66668701171875,358.66668701171875,331.3333435058594,318,292,250,221.33334350585938,193.33334350585938,182,159.33334350585938,148,110,102,86.66667175292969],"timestamp_mouse":[11,34,45,65,84,104,124,145,164,184,205,225,245,265,285,305,325,345,364,384,404,425,444,465,487,505,525,544,564,586,605,625,644,665,684,705,725,745,764,785,805,824,844,864,884,906,925,945,965,985,1005,1025,1045,1065,1086,1104,1124,1145,1165,1187,1205,1224,1244,1265,1285,1306,1325,1345],"xSR":350,"ySR":768,"xT1":30,"yT1":0,"xT2":670,"yT2":0,"toosoon":0,"cond_shown":"randomdotsize","ratio_trial":900,"smaller_num":"18","larger_num":"20","correct_side":1,"subjID":"411wm","gender":"No_gender","age":"No_age","school":"No_school"},{"start_time":1549382203485,"click_time":1549382205259,"finger_time":1549382204279,"fix_duration":1324.1343606566054,"trial":13,"RT":794,"MT":980,"sideResp":2,"stimulus":"img/500/randomdotsizeEA/R/6_Ratio_500_L_9_R_18.png","xmouse":[382,381.3333435058594,381.3333435058594,381.3333435058594,381.3333435058594,381.3333435058594,381.3333435058594,381.3333435058594,381.3333435058594,381.3333435058594,381.3333435058594,380.66668701171875,380.66668701171875,380.66668701171875,380.66668701171875,380.66668701171875,380.66668701171875,380.66668701171875,380.66668701171875,380.66668701171875,380.66668701171875,380,380,380,380,380,376,374.66668701171875,374,373.3333435058594,372,371.3333435058594,369.3333435058594,368,366.66668701171875,364.66668701171875,363.3333435058594,358.66668701171875,355.3333435058594,350.66668701171875,348.66668701171875,343.3333435058594,340,328,324.66668701171875,314.66668701171875,308,293.3333435058594,274.66668701171875,263.3333435058594,256.66668701171875,246,233.33334350585938,215.33334350585938,210,199.33334350585938,190.6666717529297,186.6666717529297,177.33334350585938,173.33334350585938,171.33334350585938,170.6666717529297,170.6666717529297,172,175.33334350585938,177.33334350585938,177.33334350585938,177.33334350585938,177.33334350585938,228,228,282,324.66668701171875,324.66668701171875,324.66668701171875,476,476,476,555.3333740234375,568.6666870117188,597.3333740234375,626.6666870117188,640.6666870117188,672.6666870117188,685.3333740234375,688.6666870117188,690,692.6666870117188,696.6666870117188],"ymouse":[833.3333740234375,832.6666870117188,832.6666870117188,832.6666870117188,832.6666870117188,832.6666870117188,832.6666870117188,832.6666870117188,832.6666870117188,832.6666870117188,832.6666870117188,834,834,834,834,834,834,834,834,834,834,830,830,830,830,830,821.3333740234375,818.6666870117188,816,814.6666870117188,811.3333740234375,808.6666870117188,803.3333740234375,801.3333740234375,796.6666870117188,792.6666870117188,790.6666870117188,781.3333740234375,773.3333740234375,761.3333740234375,756.6666870117188,742.6666870117188,734,701.3333740234375,693.3333740234375,670.6666870117188,654.6666870117188,622,578,548,532.6666870117188,500.66668701171875,466.66668701171875,416,400.66668701171875,370,343.3333435058594,330,298,282,272,268.66668701171875,262,260,261.3333435058594,262.66668701171875,262.66668701171875,262.66668701171875,262.66668701171875,299.3333435058594,299.3333435058594,312,313.3333435058594,313.3333435058594,313.3333435058594,298,298,298,259.3333435058594,248,221.33334350585938,192.6666717529297,179.33334350585938,144.6666717529297,130.6666717529297,120,116,106.66667175292969,90],"timestamp_mouse":[15,41,56,75,95,115,135,154,175,195,215,235,255,275,294,315,335,355,374,395,414,434,455,475,495,514,535,556,574,594,615,634,655,674,694,714,735,756,774,794,815,835,855,875,894,914,935,955,977,995,1015,1035,1054,1074,1095,1115,1134,1155,1174,1194,1215,1235,1257,1275,1295,1315,1334,1355,1374,1394,1414,1434,1455,1476,1495,1514,1534,1555,1575,1595,1615,1634,1655,1675,1694,1715,1735,1755,1774],"xSR":350,"ySR":768,"xT1":30,"yT1":0,"xT2":670,"yT2":0,"toosoon":0,"cond_shown":"randomdotsizeEA","ratio_trial":500,"smaller_num":"9","larger_num":"18","correct_side":2,"subjID":"411wm","gender":"No_gender","age":"No_age","school":"No_school"},{"start_time":1549382207523,"click_time":1549382208621,"finger_time":1549382208140,"fix_duration":1263.502194996081,"trial":14,"RT":617,"MT":481,"sideResp":2,"stimulus":"img/250/equaldotanddens/R/11_Ratio_250_L_3_R_12.png","xmouse":[380.66668701171875,380.66668701171875,380.66668701171875,380.66668701171875,380.66668701171875,380,380,380,380,380,380,380,380,380,380,378.66668701171875,378.66668701171875,378,378,378,378,378,378.66668701171875,379.3333435058594,379.3333435058594,380,380,380,380,380,394.66668701171875,399.3333435058594,410,416.66668701171875,432,447.3333435058594,453.3333435058594,466.66668701171875,476,486,492.66668701171875,504.66668701171875,529.3333740234375,547.3333740234375,556,573.3333740234375,581.3333740234375,618.6666870117188,628.6666870117188,646,654.6666870117188,666.6666870117188,682.6666870117188,692,704],"ymouse":[828,828,828,828,828,824,824,824,824,824,824,824,824,824,824,818.6666870117188,818.6666870117188,815.3333740234375,815.3333740234375,815.3333740234375,815.3333740234375,810,807.3333740234375,806.6666870117188,806.6666870117188,804,804,804,804,804,762.6666870117188,750.6666870117188,721.3333740234375,704.6666870117188,665.3333740234375,630.6666870117188,616.6666870117188,583.3333740234375,558.6666870117188,531.3333740234375,515.3333740234375,479.3333435058594,424,388,368,335.3333435058594,318.66668701171875,249.33334350585938,232.6666717529297,198,184.6666717529297,159.33334350585938,128,106,83.33333587646484],"timestamp_mouse":[17,37,57,76,97,117,137,157,177,196,217,237,256,277,297,316,336,357,377,396,416,436,457,476,496,517,537,558,576,596,617,637,657,677,697,716,736,756,776,797,816,837,857,877,897,916,936,958,977,996,1017,1036,1058,1076,1096],"xSR":350,"ySR":768,"xT1":30,"yT1":0,"xT2":670,"yT2":0,"toosoon":0,"cond_shown":"equaldotanddens","ratio_trial":250,"smaller_num":"3","larger_num":"12","correct_side":2,"subjID":"411wm","gender":"No_gender","age":"No_age","school":"No_school"},{"start_time":1549382210156,"click_time":1549382211280,"finger_time":1549382210819,"fix_duration":595.4656800131629,"trial":15,"RT":663,"MT":461,"sideResp":1,"stimulus":"img/900/randomdotsize/R/6_Ratio_900_L_9_R_10.png","xmouse":[400.66668701171875,400,400,400,399.3333435058594,398.66668701171875,398.66668701171875,399.3333435058594,399.3333435058594,400,400,400,400,400,400,400,400,400,400,400.66668701171875,400.66668701171875,400.66668701171875,400.66668701171875,400.66668701171875,400.66668701171875,400.66668701171875,400.66668701171875,400.66668701171875,394.66668701171875,394.66668701171875,394.66668701171875,396,400.66668701171875,403.3333435058594,404,406,406,401.3333435058594,399.3333435058594,391.3333435058594,385.3333435058594,369.3333435058594,340.66668701171875,322.66668701171875,303.3333435058594,294,274.66668701171875,246,238,218.6666717529297,201.33334350585938,192,155.33334350585938,146,127.33333587646484,118.66667175292969,102],"ymouse":[826,826,826,826,826,826,826.6666870117188,826.6666870117188,826.6666870117188,827.3333740234375,827.3333740234375,828,828,828.6666870117188,828.6666870117188,828.6666870117188,828,828,828,828,828,828,828,828,828,828,828,828,806.6666870117188,802,800,792,772.6666870117188,756.6666870117188,749.3333740234375,731.3333740234375,724,691.3333740234375,684,665.3333740234375,655.3333740234375,629.3333740234375,584,554.6666870117188,524,508,471.3333435058594,412.66668701171875,394.66668701171875,354,310,286.66668701171875,198.6666717529297,178.6666717529297,144,128,99.33333587646484],"timestamp_mouse":[5,26,59,64,84,104,124,143,164,183,204,225,243,264,283,304,324,344,363,384,404,424,443,463,484,504,524,545,564,583,604,623,644,663,684,704,724,743,763,783,803,824,843,864,883,903,924,945,964,983,1003,1024,1045,1063,1084,1104,1124],"xSR":350,"ySR":768,"xT1":30,"yT1":0,"xT2":670,"yT2":0,"toosoon":0,"cond_shown":"randomdotsize","ratio_trial":900,"smaller_num":"9","larger_num":"10","correct_side":2,"subjID":"411wm","gender":"No_gender","age":"No_age","school":"No_school"},{"start_time":1549382212794,"click_time":1549382214180,"finger_time":1549382213439,"fix_duration":472.6148423241313,"trial":16,"RT":645,"MT":741,"sideResp":1,"stimulus":"img/250/equaldotsize/L/2_Ratio_250_L_16_R_4.png","xmouse":[439,439,439,439,439,439,439,439,439,439,439,439,431.3333435058594,431.3333435058594,431.3333435058594,431.3333435058594,431.3333435058594,431.3333435058594,431.3333435058594,431.3333435058594,431.3333435058594,431.3333435058594,431.3333435058594,431.3333435058594,431.3333435058594,430.66668701171875,430.66668701171875,430.66668701171875,430.66668701171875,430.66668701171875,430.66668701171875,430.66668701171875,462,482,503.3333435058594,513.3333740234375,544,560,574,580,585.3333740234375,589.3333740234375,588.6666870117188,588.6666870117188,588.6666870117188,588.6666870117188,588.6666870117188,588.6666870117188,576.6666870117188,576.6666870117188,576.6666870117188,576.6666870117188,498.66668701171875,473.3333435058594,462.66668701171875,462.66668701171875,403.3333435058594,375.3333435058594,360,330.66668701171875,315.3333435058594,261.3333435058594,249.33334350585938,226.6666717529297,217.33334350585938,197.33334350585938,170,152.6666717529297,144.6666717529297,128.6666717529297],"ymouse":[820,820,820,820,820,820,820,820,820,820,820,820,816,816,816,816,815.3333740234375,815.3333740234375,815.3333740234375,815.3333740234375,815.3333740234375,815.3333740234375,815.3333740234375,815.3333740234375,815.3333740234375,809.3333740234375,809.3333740234375,809.3333740234375,809.3333740234375,809.3333740234375,809.3333740234375,809.3333740234375,690.6666870117188,637.3333740234375,584,559.3333740234375,484,443.3333435058594,405.3333435058594,389.3333435058594,364,341.3333435058594,330.66668701171875,327.3333435058594,327.3333435058594,327.3333435058594,327.3333435058594,327.3333435058594,308.66668701171875,308.66668701171875,308.66668701171875,308.66668701171875,348,346,342.66668701171875,342.66668701171875,302,279.3333435058594,268,247.33334350585938,236,192,180,156.6666717529297,145.33334350585938,123.33334350585938,96.66667175292969,81.33333587646484,76.66667175292969,68],"timestamp_mouse":[16,35,46,66,86,106,126,145,166,186,205,225,246,266,286,305,326,346,365,386,407,426,445,466,486,509,526,545,565,585,606,626,645,666,686,706,726,745,766,786,806,826,846,866,885,906,926,946,966,985,1006,1026,1046,1066,1085,1106,1126,1145,1165,1186,1205,1226,1245,1265,1285,1306,1325,1346,1366,1386],"xSR":350,"ySR":768,"xT1":30,"yT1":0,"xT2":670,"yT2":0,"toosoon":0,"cond_shown":"equaldotsize","ratio_trial":250,"smaller_num":"4","larger_num":"16","correct_side":1,"subjID":"411wm","gender":"No_gender","age":"No_age","school":"No_school"},{"start_time":1549382216521,"click_time":1549382217699,"finger_time":1549382217340,"fix_duration":1359.070125928404,"trial":17,"RT":819,"MT":359,"sideResp":2,"stimulus":"img/900/randomdotsize/L/2_Ratio_900_L_20_R_18.png","xmouse":[418,418,418,418,419.3333435058594,418.66668701171875,418.66668701171875,418.66668701171875,418.66668701171875,418.66668701171875,418.66668701171875,418.66668701171875,418.66668701171875,418.66668701171875,416,416,416,416,416,416,416,416,416,416,413.3333435058594,413.3333435058594,413.3333435058594,413.3333435058594,410.66668701171875,410,410,410,410,410,411.3333435058594,411.3333435058594,411.3333435058594,411.3333435058594,411.3333435058594,411.3333435058594,443.3333435058594,462.66668701171875,470,482,490.66668701171875,498,504,506.66668701171875,518.6666870117188,523.3333740234375,551.3333740234375,558,574.6666870117188,582.6666870117188,601.3333740234375,635.3333740234375,660.6666870117188,673.3333740234375,698.6666870117188],"ymouse":[826,826,826,826,825.3333740234375,826,826,826,826,826,826,826,826,826,824,824,824,824,824,824,824,824,824,824,819.3333740234375,819.3333740234375,819.3333740234375,819.3333740234375,818,816.6666870117188,814,814,814,814,809.3333740234375,809.3333740234375,809.3333740234375,809.3333740234375,809.3333740234375,809.3333740234375,685.3333740234375,646.6666870117188,628.6666870117188,594.6666870117188,565.3333740234375,521.3333740234375,488,470.66668701171875,431.3333435058594,414,334.66668701171875,314.66668701171875,278.66668701171875,260,223.33334350585938,168,136.6666717529297,122,96.66667175292969],"timestamp_mouse":[34,38,58,79,99,119,139,158,178,199,219,239,259,279,299,319,339,358,379,399,418,439,458,478,499,519,539,559,579,599,620,639,658,678,699,718,739,758,779,799,819,838,858,878,898,919,938,958,979,999,1020,1039,1059,1079,1099,1121,1138,1159,1178],"xSR":350,"ySR":768,"xT1":30,"yT1":0,"xT2":670,"yT2":0,"toosoon":0,"cond_shown":"randomdotsize","ratio_trial":900,"smaller_num":"18","larger_num":"20","correct_side":1,"subjID":"411wm","gender":"No_gender","age":"No_age","school":"No_school"},{"start_time":1549382219595,"click_time":1549382220781,"finger_time":1549382220379,"fix_duration":533.9502528517913,"trial":18,"RT":784,"MT":402,"sideResp":2,"stimulus":"img/250/randomdotsize/R/4_Ratio_250_L_3_R_12.png","xmouse":[387.3333435058594,387.3333435058594,387.3333435058594,385.3333435058594,385.3333435058594,385.3333435058594,385.3333435058594,385.3333435058594,385.3333435058594,385.3333435058594,385.3333435058594,385.3333435058594,385.3333435058594,384,384,383.3333435058594,383.3333435058594,382.66668701171875,381.3333435058594,379.3333435058594,377.3333435058594,375.3333435058594,375.3333435058594,373.3333435058594,371.3333435058594,370.66668701171875,370,369.3333435058594,366.66668701171875,365.3333435058594,364,364,362.66668701171875,362,362.66668701171875,362.66668701171875,363.3333435058594,365.3333435058594,368.66668701171875,370.66668701171875,376,384,390.66668701171875,405.3333435058594,429.3333435058594,446.66668701171875,456,474.66668701171875,506.66668701171875,530.6666870117188,542,565.3333740234375,588.6666870117188,620.6666870117188,630,643.3333740234375,650.6666870117188,654.6666870117188,664,672],"ymouse":[842.6666870117188,842.6666870117188,842.6666870117188,836.6666870117188,836.6666870117188,836.6666870117188,836.6666870117188,836.6666870117188,836.6666870117188,836.6666870117188,836.6666870117188,836.6666870117188,836.6666870117188,828.6666870117188,828.6666870117188,828.6666870117188,828,828,827.3333740234375,826,825.3333740234375,824,824,822.6666870117188,818,816,812,810,800,798.6666870117188,795.3333740234375,794,791.3333740234375,787.3333740234375,784,782.6666870117188,780,776.6666870117188,768.6666870117188,762.6666870117188,748,726,710.6666870117188,676.6666870117188,625.3333740234375,588,568.6666870117188,527.3333740234375,456,404.66668701171875,383.3333435058594,335.3333435058594,288.66668701171875,218.6666717529297,196.6666717529297,163.33334350585938,140,129.33334350585938,102.66667175292969,88],"timestamp_mouse":[6,29,45,67,84,104,124,145,166,184,204,225,245,264,284,304,324,344,365,384,404,426,445,466,485,504,524,544,564,585,605,624,644,664,685,705,724,744,765,784,804,825,844,865,885,905,925,945,965,985,1005,1025,1045,1066,1085,1105,1125,1145,1166,1185],"xSR":350,"ySR":768,"xT1":30,"yT1":0,"xT2":670,"yT2":0,"toosoon":0,"cond_shown":"randomdotsize","ratio_trial":250,"smaller_num":"3","larger_num":"12","correct_side":2,"subjID":"411wm","gender":"No_gender","age":"No_age","school":"No_school"},{"start_time":1549382223099,"click_time":1549382224360,"finger_time":1549382223860,"fix_duration":1377.689210606326,"trial":19,"RT":761,"MT":500,"sideResp":2,"stimulus":"img/900/equaldotsize/R/7_Ratio_900_L_9_R_10.png","xmouse":[416.66668701171875,416.66668701171875,416.66668701171875,416.66668701171875,418,418,418,418,418,418,418,418,418,418,420,420,420,420,420,420,420,420,420,420,420,420.66668701171875,420.66668701171875,420.66668701171875,420.66668701171875,420.66668701171875,420.66668701171875,420.66668701171875,420.66668701171875,420.66668701171875,402.66668701171875,401.3333435058594,399.3333435058594,398,394.66668701171875,390.66668701171875,388.66668701171875,388.66668701171875,388.66668701171875,391.3333435058594,391.3333435058594,391.3333435058594,417.3333435058594,431.3333435058594,438.66668701171875,460,474.66668701171875,490,498.66668701171875,516,544.6666870117188,564,572.6666870117188,593.3333740234375,613.3333740234375,645.3333740234375,656,673.3333740234375,690,696.6666870117188],"ymouse":[823.3333740234375,823.3333740234375,823.3333740234375,823.3333740234375,822,822,822,822,822,822,822,822,822,822,820.6666870117188,820.6666870117188,820.6666870117188,820.6666870117188,820.6666870117188,820.6666870117188,820.6666870117188,820.6666870117188,820.6666870117188,820.6666870117188,820.6666870117188,820.6666870117188,820.6666870117188,820.6666870117188,820.6666870117188,820.6666870117188,820.6666870117188,820.6666870117188,820.6666870117188,820.6666870117188,796,792.6666870117188,784.6666870117188,779.3333740234375,767.3333740234375,750,738.6666870117188,733.3333740234375,722,708.6666870117188,708.6666870117188,708.6666870117188,639.3333740234375,608,592,542,507.3333740234375,469.3333435058594,450.66668701171875,414,356.66668701171875,317.3333435058594,300,262.66668701171875,225.33334350585938,173.33334350585938,157.33334350585938,128.6666717529297,104.66667175292969,94],"timestamp_mouse":[1,32,41,61,81,100,121,141,161,181,201,220,241,261,281,300,320,340,360,381,401,420,441,461,482,500,520,541,561,581,600,620,640,660,682,700,720,740,761,783,801,821,841,860,881,900,920,941,960,983,1000,1020,1041,1061,1082,1101,1121,1141,1160,1182,1201,1220,1240,1261],"xSR":350,"ySR":768,"xT1":30,"yT1":0,"xT2":670,"yT2":0,"toosoon":0,"cond_shown":"equaldotsize","ratio_trial":900,"smaller_num":"9","larger_num":"10","correct_side":2,"subjID":"411wm","gender":"No_gender","age":"No_age","school":"No_school"},{"start_time":1549382225899,"click_time":1549382227021,"finger_time":1549382226601,"fix_duration":598.7867287748735,"trial":20,"RT":702,"MT":420,"sideResp":1,"stimulus":"img/250/equaldotsize/L/1_Ratio_250_L_8_R_2.png","xmouse":[390,390,390,390,390,390,390,390,390,390,390,390,390,390,390,390,390,390,390.66668701171875,390.66668701171875,390.66668701171875,390.66668701171875,390.66668701171875,390.66668701171875,390.66668701171875,390.66668701171875,390.66668701171875,390.66668701171875,388,388,388,382,376,372,372,342,327.3333435058594,320.66668701171875,310,298,279.3333435058594,274,262.66668701171875,252.66668701171875,248,230,216,200.6666717529297,193.33334350585938,177.33334350585938,170,140.6666717529297,133.33334350585938,122,117.33333587646484,108,97.33333587646484],"ymouse":[825.3333740234375,825.3333740234375,825.3333740234375,825.3333740234375,825.3333740234375,825.3333740234375,825.3333740234375,825.3333740234375,826,826,826,826,826,826,826,826,826,826,826.6666870117188,826.6666870117188,826.6666870117188,826.6666870117188,826.6666870117188,826.6666870117188,826.6666870117188,826.6666870117188,826.6666870117188,826.6666870117188,823.3333740234375,823.3333740234375,823.3333740234375,814.6666870117188,804.6666870117188,797.3333740234375,797.3333740234375,747.3333740234375,715.3333740234375,699.3333740234375,666.6666870117188,632,579.3333740234375,562,526,490.66668701171875,474.66668701171875,422,388.66668701171875,354,334.66668701171875,298,278.66668701171875,204.6666717529297,188,154.6666717529297,140,113.33334350585938,83.33333587646484],"timestamp_mouse":[6,28,40,61,80,100,120,141,160,181,201,221,240,261,280,300,321,341,361,380,401,421,441,461,480,500,521,540,562,580,600,621,641,660,680,702,721,741,761,781,802,821,841,861,880,903,921,940,961,980,1000,1020,1041,1060,1080,1101,1122],"xSR":350,"ySR":768,"xT1":30,"yT1":0,"xT2":670,"yT2":0,"toosoon":0,"cond_shown":"equaldotsize","ratio_trial":250,"smaller_num":"2","larger_num":"8","correct_side":1,"subjID":"411wm","gender":"No_gender","age":"No_age","school":"No_school"},{"start_time":1549382228726,"click_time":1549382230240,"finger_time":1549382229421,"fix_duration":883.1303388542482,"trial":21,"RT":695,"MT":819,"sideResp":1,"stimulus":"img/250/randomdotsizeEA/L/15_Ratio_250_L_12_R_3.png","xmouse":[408.66668701171875,408.66668701171875,408.66668701171875,408.66668701171875,408.66668701171875,408.66668701171875,408,408,408,408,408,408,408,407.3333435058594,407.3333435058594,407.3333435058594,407.3333435058594,406.66668701171875,406.66668701171875,406,405.3333435058594,404.66668701171875,404,403.3333435058594,402,400.66668701171875,400,399.3333435058594,397.3333435058594,393.3333435058594,390,388,384.66668701171875,383.3333435058594,378.66668701171875,378,376,374.66668701171875,372.66668701171875,369.3333435058594,366.66668701171875,365.3333435058594,362.66668701171875,360.66668701171875,357.3333435058594,356,354,352,350.66668701171875,349.3333435058594,347.3333435058594,345.3333435058594,344.66668701171875,341.3333435058594,335.3333435058594,326.66668701171875,322,312.66668701171875,306,282,266,249.33334350585938,239.33334350585938,220,190.6666717529297,174,166,150,143.33334350585938,130,112,102,98,91.33333587646484,85.33333587646484,77.33333587646484],"ymouse":[812,812,812,811.3333740234375,811.3333740234375,811.3333740234375,811.3333740234375,811.3333740234375,811.3333740234375,811.3333740234375,811.3333740234375,810.6666870117188,810.6666870117188,810.6666870117188,810,810,810,810,809.3333740234375,808.6666870117188,808,807.3333740234375,806.6666870117188,806,804.6666870117188,804,802,801.3333740234375,798,790.6666870117188,784.6666870117188,782,777.3333740234375,774.6666870117188,766,764,760,758,753.3333740234375,746,740.6666870117188,738,732.6666870117188,727.3333740234375,720,717.3333740234375,712.6666870117188,708,706.6666870117188,702.6666870117188,699.3333740234375,696.6666870117188,694.6666870117188,690.6666870117188,682,671.3333740234375,664,650,638.6666870117188,596,568,538,522.6666870117188,494,448,417.3333435058594,400,364.66668701171875,346.66668701171875,309.3333435058594,254.66668701171875,217.33334350585938,198.6666717529297,162,129.33334350585938,90],"timestamp_mouse":[29,34,53,74,94,114,133,153,174,194,214,234,254,274,294,314,334,353,374,394,413,434,454,473,495,514,533,554,573,594,613,634,654,674,695,713,734,754,774,796,814,834,853,874,896,913,933,953,974,994,1014,1033,1053,1074,1095,1114,1133,1153,1174,1196,1214,1234,1253,1274,1295,1314,1334,1354,1374,1393,1414,1434,1454,1474,1493,1514],"xSR":350,"ySR":768,"xT1":30,"yT1":0,"xT2":670,"yT2":0,"toosoon":0,"cond_shown":"randomdotsizeEA","ratio_trial":250,"smaller_num":"3","larger_num":"12","correct_side":1,"subjID":"411wm","gender":"No_gender","age":"No_age","school":"No_school"},{"start_time":1549382231894,"click_time":1549382233140,"finger_time":1549382232680,"fix_duration":672.0709614386341,"trial":22,"RT":786,"MT":460,"sideResp":1,"stimulus":"img/500/equaldotanddens/L/10_Ratio_500_L_4_R_2.png","xmouse":[406,406,406,406,406,406,406,406,406,406,406,406,406,406,406,406,406,406,406,406,406,406,406,406,405.3333435058594,405.3333435058594,405.3333435058594,405.3333435058594,405.3333435058594,405.3333435058594,405.3333435058594,405.3333435058594,405.3333435058594,405.3333435058594,389.3333435058594,386.66668701171875,385.3333435058594,380.66668701171875,377.3333435058594,373.3333435058594,371.3333435058594,366.66668701171875,356.66668701171875,348.66668701171875,343.3333435058594,330,323.3333435058594,308.66668701171875,281.3333435058594,262.66668701171875,254,236,221.33334350585938,200,194,180.6666717529297,173.33334350585938,159.33334350585938,136,118.66667175292969,102.66667175292969,95.33333587646484,86],"ymouse":[828,828,828,828,828,828,828,828,828,828,828,828,828,828,828,828,828,828,828,828,828,828,828,819.3333740234375,818.6666870117188,818.6666870117188,818.6666870117188,818.6666870117188,818.6666870117188,818.6666870117188,818.6666870117188,818.6666870117188,818.6666870117188,818.6666870117188,798,792,789.3333740234375,778.6666870117188,772,765.3333740234375,762,753.3333740234375,734,718,706,675.3333740234375,658.6666870117188,627.3333740234375,577.3333740234375,540.6666870117188,521.3333740234375,482,443.3333435058594,374,351.3333435058594,305.3333435058594,282.66668701171875,240.66668701171875,186,154.6666717529297,126.66667175292969,112.66667175292969,88],"timestamp_mouse":[9,26,45,66,86,106,126,146,165,186,205,226,246,266,286,306,325,345,365,386,405,425,446,466,486,505,525,545,568,586,605,625,646,665,685,706,725,747,765,786,805,825,848,867,886,906,926,946,966,986,1005,1026,1046,1067,1086,1106,1125,1146,1166,1186,1205,1226,1246],"xSR":350,"ySR":768,"xT1":30,"yT1":0,"xT2":670,"yT2":0,"toosoon":0,"cond_shown":"equaldotanddens","ratio_trial":500,"smaller_num":"2","larger_num":"4","correct_side":1,"subjID":"411wm","gender":"No_gender","age":"No_age","school":"No_school"},{"start_time":1549382235302,"click_time":1549382236680,"finger_time":1549382235781,"fix_duration":1235.5501107552245,"trial":23,"RT":479,"MT":899,"sideResp":1,"stimulus":"img/900/randomdotsizeEA/R/11_Ratio_900_L_18_R_20.png","xmouse":[391.3333435058594,391.3333435058594,391.3333435058594,392,392,392.66668701171875,392.66668701171875,392.66668701171875,392.66668701171875,392.66668701171875,392.66668701171875,392.66668701171875,392.66668701171875,389.3333435058594,389.3333435058594,388,386,385.3333435058594,382,380,378,376.66668701171875,376.66668701171875,376.66668701171875,366,364,360,357.3333435058594,351.3333435058594,346.66668701171875,343.3333435058594,341.3333435058594,338,336.66668701171875,328.66668701171875,326.66668701171875,322.66668701171875,320,310,306.66668701171875,300.66668701171875,298.66668701171875,294.66668701171875,288.66668701171875,282,278,272.66668701171875,268,264.66668701171875,253.33334350585938,250.66668701171875,246,244,238,225.33334350585938,214.6666717529297,209.33334350585938,200.6666717529297,196.6666717529297,179.33334350585938,175.33334350585938,168,164,155.33334350585938,147.33334350585938,141.33334350585938,138,131.33334350585938,128,114.66667175292969],"ymouse":[802.6666870117188,802.6666870117188,802,802,802,802,802,802,802,802,802,802,802,797.3333740234375,796.6666870117188,796,795.3333740234375,794.6666870117188,787.3333740234375,780,772.6666870117188,769.3333740234375,769.3333740234375,769.3333740234375,753.3333740234375,750.6666870117188,744.6666870117188,742,732.6666870117188,726,718.6666870117188,715.3333740234375,708.6666870117188,704.6666870117188,687.3333740234375,682,670.6666870117188,665.3333740234375,644.6666870117188,640,625.3333740234375,619.3333740234375,608.6666870117188,590.6666870117188,572,563.3333740234375,546,531.3333740234375,516.6666870117188,470,458,439.3333435058594,432.66668701171875,420,397.3333435058594,372,356.66668701171875,331.3333435058594,314,252.66668701171875,235.33334350585938,209.33334350585938,197.33334350585938,164,135.33334350585938,123.33334350585938,118,108.66667175292969,104.66667175292969,90],"timestamp_mouse":[7,24,45,58,77,98,117,137,158,178,198,218,237,259,278,298,317,338,360,378,397,418,437,457,479,498,518,538,561,577,598,617,637,657,677,698,718,738,761,778,798,818,837,858,879,897,918,937,958,982,998,1018,1038,1057,1079,1098,1117,1138,1157,1179,1197,1218,1237,1258,1278,1298,1317,1338,1358,1378],"xSR":350,"ySR":768,"xT1":30,"yT1":0,"xT2":670,"yT2":0,"toosoon":0,"cond_shown":"randomdotsizeEA","ratio_trial":900,"smaller_num":"18","larger_num":"20","correct_side":2,"subjID":"411wm","gender":"No_gender","age":"No_age","school":"No_school"},{"start_time":1549382238551,"click_time":1549382240240,"finger_time":1549382239400,"fix_duration":250,"trial":24,"RT":849,"MT":840,"sideResp":2,"stimulus":"img/750/randomdotsizeEA/R/3_Ratio_750_L_15_R_20.png","xmouse":[398.66668701171875,398.66668701171875,398.66668701171875,398.66668701171875,398.66668701171875,398.66668701171875,398.66668701171875,398.66668701171875,398.66668701171875,398.66668701171875,398.66668701171875,398.66668701171875,398.66668701171875,398.66668701171875,398.66668701171875,398.66668701171875,398.66668701171875,388,388,388,388,388,388,388,388,388,388,388,388,388,388,389.3333435058594,390,390.66668701171875,390.66668701171875,390.66668701171875,390.66668701171875,391.3333435058594,395.3333435058594,398,402.66668701171875,405.3333435058594,414,418,420.66668701171875,422,422,419.3333435058594,416.66668701171875,415.3333435058594,411.3333435058594,408,402.66668701171875,402,400.66668701171875,400.66668701171875,400.66668701171875,401.3333435058594,401.3333435058594,402,402.66668701171875,405.3333435058594,424,432.66668701171875,452,472.66668701171875,482,499.3333435058594,524.6666870117188,536.6666870117188,542.6666870117188,554,569.3333740234375,580.6666870117188,585.3333740234375,596,601.3333740234375,620.6666870117188,626.6666870117188,636,644.6666870117188,647.3333740234375,658,664.6666870117188,670.6666870117188],"ymouse":[807.3333740234375,807.3333740234375,807.3333740234375,807.3333740234375,807.3333740234375,807.3333740234375,807.3333740234375,807.3333740234375,807.3333740234375,807.3333740234375,807.3333740234375,807.3333740234375,807.3333740234375,807.3333740234375,807.3333740234375,807.3333740234375,807.3333740234375,821,821,821,821,821,821,821,821,821,821,821,821,821,821,813.3333740234375,812,809.3333740234375,807.3333740234375,806,804.6666870117188,801.3333740234375,794,787.3333740234375,776.6666870117188,770,750.6666870117188,740.6666870117188,732.6666870117188,728.6666870117188,722.6666870117188,714.6666870117188,709.3333740234375,706.6666870117188,698,688,665.3333740234375,656,638,618.6666870117188,610.6666870117188,582.6666870117188,565.3333740234375,546,536,510,453.3333435058594,437.3333435058594,408.66668701171875,380.66668701171875,367.3333435058594,343.3333435058594,303.3333435058594,279.3333435058594,268.66668701171875,244.66668701171875,210,187.33334350585938,176.6666717529297,154.6666717529297,145.33334350585938,108,98,85.33333587646484,73.33333587646484,68.66667175292969,56.66667175292969,48.66667175292969,42.66666793823242],"timestamp_mouse":[11,29,48,69,89,108,128,149,168,189,208,228,249,268,289,309,329,348,369,389,408,429,449,469,489,508,529,549,569,589,609,629,651,668,689,709,729,748,768,789,808,828,849,868,889,909,929,948,968,988,1009,1028,1051,1068,1089,1109,1128,1151,1168,1188,1209,1229,1250,1268,1288,1309,1329,1349,1369,1389,1409,1428,1449,1468,1489,1508,1528,1549,1568,1589,1608,1629,1650,1669,1688],"xSR":350,"ySR":768,"xT1":30,"yT1":0,"xT2":670,"yT2":0,"toosoon":0,"cond_shown":"randomdotsizeEA","ratio_trial":750,"smaller_num":"15","larger_num":"20","correct_side":2,"subjID":"411wm","gender":"No_gender","age":"No_age","school":"No_school"},{"start_time":1549382241976,"click_time":1549382243121,"finger_time":1549382242380,"fix_duration":575.6987831087964,"trial":25,"RT":404,"MT":741,"sideResp":2,"stimulus":"img/750/randomdotsizeEA/L/1_Ratio_750_L_20_R_15.png","xmouse":[407.3333435058594,407.3333435058594,407.3333435058594,408,408,408.66668701171875,408.66668701171875,408.66668701171875,408.66668701171875,408.66668701171875,408.66668701171875,408.66668701171875,408.66668701171875,416,416.66668701171875,418,419.3333435058594,426.66668701171875,432.66668701171875,448.66668701171875,468,477.3333435058594,509.3333435058594,514,520.6666870117188,524,528,531.3333740234375,533.3333740234375,534.6666870117188,536,538.6666870117188,545.3333740234375,548,555.3333740234375,563.3333740234375,566.6666870117188,573.3333740234375,582,586.6666870117188,588,591.3333740234375,596.6666870117188,603.3333740234375,608.6666870117188,622,634.6666870117188,646.6666870117188,650,655.3333740234375,661.3333740234375,663.3333740234375,672.6666870117188,683.3333740234375,692.6666870117188,698.6666870117188,708,717.3333740234375],"ymouse":[834.6666870117188,834.6666870117188,834,834,834,833.3333740234375,833.3333740234375,833.3333740234375,833.3333740234375,833.3333740234375,833.3333740234375,833.3333740234375,833.3333740234375,828.6666870117188,828,826.6666870117188,824.6666870117188,812,803.3333740234375,775.3333740234375,747.3333740234375,734.6666870117188,686,678,662.6666870117188,654.6666870117188,643.3333740234375,630,621.3333740234375,612.6666870117188,609.3333740234375,598.6666870117188,575.3333740234375,567.3333740234375,551.3333740234375,534.6666870117188,527.3333740234375,516,496.66668701171875,483.3333435058594,477.3333435058594,464,435.3333435058594,412,395.3333435058594,360,330.66668701171875,296.66668701171875,284.66668701171875,266.66668701171875,246.66668701171875,236,196.6666717529297,166.6666717529297,137.33334350585938,124.66667175292969,100.66667175292969,76.66667175292969],"timestamp_mouse":[4,28,44,64,84,104,124,143,163,183,204,224,244,264,284,304,323,343,364,384,404,424,445,464,483,504,524,544,563,583,604,624,645,664,683,703,724,744,764,783,804,824,847,864,884,903,923,944,964,983,1003,1024,1045,1064,1083,1103,1124,1145],"xSR":350,"ySR":768,"xT1":30,"yT1":0,"xT2":670,"yT2":0,"toosoon":0,"cond_shown":"randomdotsizeEA","ratio_trial":750,"smaller_num":"15","larger_num":"20","correct_side":1,"subjID":"411wm","gender":"No_gender","age":"No_age","school":"No_school"},{"start_time":1549382244641,"click_time":1549382245800,"finger_time":1549382245119,"fix_duration":480.9157729689586,"trial":26,"RT":478,"MT":681,"sideResp":1,"stimulus":"img/750/equaldotanddens/R/2_Ratio_750_L_6_R_8.png","xmouse":[393,393,392,392,392,392,392,392,392,392,392,392,392,392,392,392,392,392,392,392,384,378.66668701171875,371.3333435058594,369.3333435058594,362.66668701171875,358.66668701171875,352,346,336,325.3333435058594,320.66668701171875,318,311.3333435058594,307.3333435058594,284.66668701171875,276.66668701171875,264.66668701171875,259.3333435058594,248.6666717529297,234,224,218.6666717529297,210,200.6666717529297,186,180,170.6666717529297,160,155.33334350585938,138,132,124,118,112,98.66667175292969,91.33333587646484,88.66667175292969,84.66667175292969],"ymouse":[818,818,829,829,829,829,829,829,829,829,829,829,829,829,829,829,829,829,829,829,818,796.6666870117188,770,761.3333740234375,742,732.6666870117188,717.3333740234375,706,681.3333740234375,656,643.3333740234375,637.3333740234375,624.6666870117188,617.3333740234375,568.6666870117188,552.6666870117188,524,511.3333740234375,486.66668701171875,446.66668701171875,418,404,378.66668701171875,354,320,308.66668701171875,287.3333435058594,266.66668701171875,256,217.33334350585938,207.33334350585938,190.6666717529297,182,167.33334350585938,137.33334350585938,114.66667175292969,107.33333587646484,94.66667175292969],"timestamp_mouse":[28,38,59,79,98,119,138,158,179,199,218,239,259,279,299,319,338,359,379,399,419,439,459,478,500,518,539,558,579,599,618,639,659,678,698,718,738,759,779,802,819,838,858,879,900,919,939,958,978,1002,1018,1038,1059,1079,1100,1119,1138,1159],"xSR":350,"ySR":768,"xT1":30,"yT1":0,"xT2":670,"yT2":0,"toosoon":0,"cond_shown":"equaldotanddens","ratio_trial":750,"smaller_num":"6","larger_num":"8","correct_side":2,"subjID":"411wm","gender":"No_gender","age":"No_age","school":"No_school"},{"start_time":1549382247312,"click_time":1549382248080,"finger_time":1549382247341,"fix_duration":451.39863195162434,"trial":27,"RT":29,"MT":739,"sideResp":2,"stimulus":"img/900/equaldotsize/L/1_Ratio_900_L_10_R_9.png","xmouse":[422,431.3333435058594,451.3333435058594,468.66668701171875,476,491.3333435058594,499.3333435058594,523.3333740234375,529.3333740234375,537.3333740234375,540,546,555.3333740234375,562,565.3333740234375,576,587.3333740234375,603.3333740234375,608.6666870117188,617.3333740234375,625.3333740234375,629.3333740234375,638.6666870117188,643.3333740234375,647.3333740234375,649.3333740234375,654.6666870117188,660.6666870117188,664.6666870117188,666.6666870117188,671.3333740234375,678,687.3333740234375,690.6666870117188,698,705.3333740234375,709.3333740234375,718,723.3333740234375],"ymouse":[782.6666870117188,756.6666870117188,710,682.6666870117188,669.3333740234375,642,628.6666870117188,582.6666870117188,569.3333740234375,550,540.6666870117188,524.6666870117188,500,481.3333435058594,472,450,427.3333435058594,396,387.3333435058594,368.66668701171875,352,344.66668701171875,322.66668701171875,308.66668701171875,296.66668701171875,288.66668701171875,274,256.66668701171875,243.33334350585938,236.6666717529297,218.6666717529297,200,173.33334350585938,164.6666717529297,148,132,124,105.33333587646484,93.33333587646484],"timestamp_mouse":[10,29,50,68,88,107,128,148,168,188,207,227,247,268,287,307,327,348,368,388,408,427,448,467,488,508,528,548,568,588,607,628,648,667,687,707,727,748,767],"xSR":350,"ySR":768,"xT1":30,"yT1":0,"xT2":670,"yT2":0,"toosoon":0,"cond_shown":"equaldotsize","ratio_trial":900,"smaller_num":"9","larger_num":"10","correct_side":1,"subjID":"411wm","gender":"No_gender","age":"No_age","school":"No_school"},{"start_time":1549382252161,"click_time":1549382253740,"finger_time":1549382252940,"fix_duration":334.1646263564925,"trial":28,"RT":779,"MT":800,"sideResp":1,"stimulus":"img/900/equaldotanddens/L/2_Ratio_900_L_20_R_18.png","xmouse":[412,412,412,412,412,418.66668701171875,419.3333435058594,419.3333435058594,419.3333435058594,419.3333435058594,419.3333435058594,419.3333435058594,419.3333435058594,419.3333435058594,419.3333435058594,419.3333435058594,419.3333435058594,420,420,420,420,420,420,420,420,420,420,406.66668701171875,404.66668701171875,402.66668701171875,402,400.66668701171875,400,398.66668701171875,397.3333435058594,394.66668701171875,393.3333435058594,382.66668701171875,380,372.66668701171875,369.3333435058594,362,348.66668701171875,336,329.3333435058594,318,308.66668701171875,294,288.66668701171875,280.66668701171875,274.66668701171875,270.66668701171875,260.66668701171875,255.33334350585938,250.66668701171875,249.33334350585938,246,238.6666717529297,233.33334350585938,229.33334350585938,224,216.6666717529297,214,204,197.33334350585938,194,186,172.6666717529297,162,158,150.6666717529297,145.33334350585938,136.6666717529297,133.33334350585938,126,118.66667175292969,115.33333587646484,106,101.33333587646484,98],"ymouse":[850,850,850,850,850,829.3333740234375,829.3333740234375,829.3333740234375,829.3333740234375,829.3333740234375,829.3333740234375,829.3333740234375,829.3333740234375,829.3333740234375,829.3333740234375,829.3333740234375,829.3333740234375,830,830,830,830,830,830,830,830,830,830,822,819.3333740234375,816.6666870117188,815.3333740234375,812,810.6666870117188,809.3333740234375,808.6666870117188,804.6666870117188,802,782.6666870117188,777.3333740234375,760,751.3333740234375,734,701.3333740234375,670.6666870117188,656,630,605.3333740234375,572,560.6666870117188,540,524.6666870117188,516.6666870117188,494,482,470.66668701171875,466,458,442,430,422,408.66668701171875,390.66668701171875,383.3333435058594,359.3333435058594,342,332.66668701171875,312.66668701171875,278.66668701171875,250.66668701171875,238.6666717529297,221.33334350585938,208,188,180.6666717529297,164.6666717529297,147.33334350585938,138.6666717529297,117.33334350585938,105.33333587646484,98.66667175292969],"timestamp_mouse":[7,21,39,58,79,98,122,139,159,178,199,218,238,259,279,299,319,338,358,379,399,418,438,458,479,498,519,538,558,579,599,622,639,658,679,698,718,738,758,779,798,819,840,859,879,898,919,938,959,978,998,1019,1040,1059,1079,1099,1119,1139,1158,1179,1199,1218,1239,1259,1279,1299,1319,1340,1359,1378,1399,1418,1439,1458,1478,1498,1518,1540,1560,1578],"xSR":350,"ySR":768,"xT1":30,"yT1":0,"xT2":670,"yT2":0,"toosoon":0,"cond_shown":"equaldotanddens","ratio_trial":900,"smaller_num":"18","larger_num":"20","correct_side":1,"subjID":"411wm","gender":"No_gender","age":"No_age","school":"No_school"},{"start_time":1549382256048,"click_time":1549382257422,"finger_time":1549382256380,"fix_duration":1067.1895338360555,"trial":29,"RT":332,"MT":1042,"sideResp":2,"stimulus":"img/750/equaldotanddens/R/12_Ratio_750_L_3_R_4.png","xmouse":[384.66668701171875,384,384,383.3333435058594,382.66668701171875,382,381.3333435058594,380.66668701171875,380,380,379.3333435058594,378.66668701171875,378,376.66668701171875,376,375.3333435058594,374.66668701171875,374,372,371.3333435058594,370.66668701171875,370,368.66668701171875,366.66668701171875,366,364.66668701171875,363.3333435058594,362.66668701171875,360.66668701171875,359.3333435058594,357.3333435058594,356,353.3333435058594,348.66668701171875,346,344,341.3333435058594,340,335.3333435058594,334.66668701171875,334,333.3333435058594,334,336.66668701171875,340,341.3333435058594,346.66668701171875,354,381.3333435058594,392.66668701171875,412,432,441.3333435058594,470,488,503.3333435058594,512,527.3333740234375,550.6666870117188,567.3333740234375,574.6666870117188,592.6666870117188,610,636,644.6666870117188,661.3333740234375,676,683.3333740234375,701.3333740234375],"ymouse":[785.3333740234375,784.6666870117188,784.6666870117188,783.3333740234375,782.6666870117188,782,781.3333740234375,780.6666870117188,779.3333740234375,778.6666870117188,777.3333740234375,775.3333740234375,774.6666870117188,771.3333740234375,770,768,767.3333740234375,765.3333740234375,762.6666870117188,760,756.6666870117188,755.3333740234375,751.3333740234375,744,741.3333740234375,736,730.6666870117188,728,717.3333740234375,710,702.6666870117188,699.3333740234375,691.3333740234375,678,668,663.3333740234375,652.6666870117188,648,629.3333740234375,626,619.3333740234375,616.6666870117188,612.6666870117188,608.6666870117188,606.6666870117188,605.3333740234375,602,594.6666870117188,559.3333740234375,545.3333740234375,521.3333740234375,498,486.66668701171875,451.3333435058594,429.3333435058594,404.66668701171875,392,368,330.66668701171875,302.66668701171875,288.66668701171875,260.66668701171875,232,190.6666717529297,177.33334350585938,154,132,122.66667175292969,98.66667175292969],"timestamp_mouse":[12,36,52,71,91,111,132,151,171,191,212,231,251,272,291,312,332,352,374,392,412,431,451,473,491,511,532,551,572,591,613,631,652,672,691,711,732,752,773,791,812,832,851,872,892,911,932,952,972,991,1012,1031,1051,1073,1091,1113,1132,1152,1173,1192,1211,1231,1251,1272,1291,1312,1332,1352,1373],"xSR":350,"ySR":768,"xT1":30,"yT1":0,"xT2":670,"yT2":0,"toosoon":0,"cond_shown":"equaldotanddens","ratio_trial":750,"smaller_num":"3","larger_num":"4","correct_side":2,"subjID":"411wm","gender":"No_gender","age":"No_age","school":"No_school"},{"start_time":1549382258903,"click_time":1549382260180,"finger_time":1549382259639,"fix_duration":382.5685288467474,"trial":30,"RT":736,"MT":541,"sideResp":2,"stimulus":"img/500/equaldotsize/R/12_Ratio_500_L_1_R_2.png","xmouse":[403,403,403,403,403,403,405,405,405,405,405,405,405,405,405,405,405,405,405,405,405,405,405,405,404,404,404.66668701171875,404.66668701171875,404.66668701171875,404.66668701171875,404.66668701171875,411.3333435058594,414.66668701171875,416,418.66668701171875,420.66668701171875,422,422.66668701171875,423.3333435058594,424.66668701171875,425.3333435058594,428.66668701171875,433.3333435058594,439.3333435058594,444.66668701171875,455.3333435058594,476.66668701171875,491.3333435058594,498.66668701171875,515.3333740234375,532,560.6666870117188,571.3333740234375,589.3333740234375,606,613.3333740234375,629.3333740234375,652,666.6666870117188,674.6666870117188,689.3333740234375,710,720,724],"ymouse":[818,818,818,818,818,818,827,827,827,827,827,827,827,827,827,827,827,827,827,827,827,827,827,827,819.3333740234375,819.3333740234375,818.6666870117188,818.6666870117188,818.6666870117188,818.6666870117188,818.6666870117188,798,787.3333740234375,784,775.3333740234375,768,757.3333740234375,754,746.6666870117188,738,733.3333740234375,717.3333740234375,702,684,672,649.3333740234375,604.6666870117188,573.3333740234375,556.6666870117188,522.6666870117188,487.3333435058594,428,409.3333435058594,370,335.3333435058594,318.66668701171875,284.66668701171875,235.33334350585938,203.33334350585938,188.6666717529297,161.33334350585938,126,106,98.66667175292969],"timestamp_mouse":[16,37,56,77,96,117,137,157,177,196,217,237,257,276,297,317,337,357,376,397,417,436,457,477,497,517,538,557,576,596,617,637,656,676,697,716,736,757,777,796,817,837,856,877,897,917,939,956,977,996,1017,1039,1056,1077,1097,1117,1137,1157,1177,1197,1217,1240,1256,1277],"xSR":350,"ySR":768,"xT1":30,"yT1":0,"xT2":670,"yT2":0,"toosoon":0,"cond_shown":"equaldotsize","ratio_trial":500,"smaller_num":"1","larger_num":"2","correct_side":2,"subjID":"411wm","gender":"No_gender","age":"No_age","school":"No_school"},{"start_time":1549382262422,"click_time":1549382263440,"finger_time":1549382262740,"fix_duration":1161.3065324392232,"trial":31,"RT":318,"MT":700,"sideResp":2,"stimulus":"img/250/equaldotsize/R/8_Ratio_250_L_1_R_4.png","xmouse":[408.66668701171875,408.66668701171875,408.66668701171875,409.3333435058594,409.3333435058594,409.3333435058594,410,410,410.66668701171875,410.66668701171875,411.3333435058594,412,414,414.66668701171875,418,420.66668701171875,425.3333435058594,427.3333435058594,430.66668701171875,434.66668701171875,437.3333435058594,443.3333435058594,448,452.66668701171875,455.3333435058594,459.3333435058594,464.66668701171875,469.3333435058594,471.3333435058594,476,482,492.66668701171875,498,511.3333740234375,524.6666870117188,531.3333740234375,551.3333740234375,566.6666870117188,582,590.6666870117188,606,629.3333740234375,644,652,665.3333740234375,680,697.3333740234375,704,712.6666870117188,717.3333740234375,718.6666870117188],"ymouse":[794.6666870117188,794,793.3333740234375,793.3333740234375,792.6666870117188,792,790.6666870117188,790,788.6666870117188,788,786.6666870117188,784.6666870117188,781.3333740234375,779.3333740234375,772.6666870117188,766,756,752.6666870117188,745.3333740234375,736.6666870117188,731.3333740234375,717.3333740234375,706,694.6666870117188,688.6666870117188,678,662,651.3333740234375,645.3333740234375,634,617.3333740234375,590,576.6666870117188,542.6666870117188,509.3333740234375,493.3333435058594,443.3333435058594,408,372,354,320,272.66668701171875,242.66668701171875,228.6666717529297,200.6666717529297,176,142,131.33334350585938,115.33334350585938,103.33333587646484,98.66667175292969],"timestamp_mouse":[17,39,57,78,98,118,139,158,178,197,218,239,258,277,298,318,338,358,377,397,418,439,458,478,498,518,538,558,578,597,617,638,657,678,698,718,740,758,778,797,818,839,858,878,898,918,939,958,977,997,1018],"xSR":350,"ySR":768,"xT1":30,"yT1":0,"xT2":670,"yT2":0,"toosoon":0,"cond_shown":"equaldotsize","ratio_trial":250,"smaller_num":"1","larger_num":"4","correct_side":2,"subjID":"411wm","gender":"No_gender","age":"No_age","school":"No_school"},{"start_time":1549382265168,"click_time":1549382266082,"finger_time":1549382265220,"fix_duration":707.5435958992133,"trial":32,"RT":52,"MT":862,"sideResp":2,"stimulus":"img/500/randomdotsize/L/7_Ratio_500_L_10_R_5.png","xmouse":[422,422,428,430,433.3333435058594,441.3333435058594,446.66668701171875,450,460,465.3333435058594,488.66668701171875,494,502,507.3333435058594,509.3333435058594,516,520.6666870117188,526.6666870117188,529.3333740234375,536,540.6666870117188,556,559.3333740234375,566,569.3333740234375,576,587.3333740234375,594.6666870117188,598.6666870117188,606.6666870117188,616,620.6666870117188,623.3333740234375,628,631.3333740234375,636,641.3333740234375,644,651.3333740234375,654.6666870117188,670.6666870117188,674,681.3333740234375,684.6666870117188,690.6666870117188,699.3333740234375],"ymouse":[776.6666870117188,776.6666870117188,757.3333740234375,752.6666870117188,741.3333740234375,718,703.3333740234375,695.3333740234375,672.6666870117188,660.6666870117188,613.3333740234375,602,584.6666870117188,573.3333740234375,570,551.3333740234375,536.6666870117188,518.6666870117188,510.66668701171875,493.3333435058594,483.3333435058594,446.66668701171875,439.3333435058594,420.66668701171875,412.66668701171875,394,364.66668701171875,346,335.3333435058594,316.66668701171875,294.66668701171875,282,275.3333435058594,262,250,233.33334350585938,221.33334350585938,214,200,192.6666717529297,161.33334350585938,154,138.6666717529297,132,117.33334350585938,99.33333587646484],"timestamp_mouse":[30,32,52,72,92,112,132,151,172,191,214,232,252,272,292,314,332,352,372,392,412,432,452,472,491,512,533,552,572,591,614,632,652,671,692,712,732,751,772,791,813,831,852,872,892,912],"xSR":350,"ySR":768,"xT1":30,"yT1":0,"xT2":670,"yT2":0,"toosoon":0,"cond_shown":"randomdotsize","ratio_trial":500,"smaller_num":"5","larger_num":"10","correct_side":1,"subjID":"411wm","gender":"No_gender","age":"No_age","school":"No_school"},{"start_time":1549382268067,"click_time":1549382269221,"finger_time":1549382268820,"fix_duration":746.6348649317473,"trial":33,"RT":753,"MT":401,"sideResp":2,"stimulus":"img/750/equaldotanddens/R/7_Ratio_750_L_3_R_4.png","xmouse":[402.66668701171875,402.66668701171875,402.66668701171875,402.66668701171875,403.3333435058594,403.3333435058594,403.3333435058594,403.3333435058594,404,404,404,404,404,404,404,404,404,404,404,404,404.66668701171875,404.66668701171875,404,404,404,404,404,404,404,404,401.3333435058594,401.3333435058594,401.3333435058594,402,402,404,409.3333435058594,418,423.3333435058594,434,439.3333435058594,463.3333435058594,469.3333435058594,484.66668701171875,498.66668701171875,506,520.6666870117188,543.3333740234375,560,568.6666870117188,586.6666870117188,598,638,648,662.6666870117188,676.6666870117188,684,706],"ymouse":[820.6666870117188,820,820,820,820,820,820,820,820,820,820,820,820,820.6666870117188,820.6666870117188,820.6666870117188,820.6666870117188,820.6666870117188,820.6666870117188,820.6666870117188,820.6666870117188,820,820,819.3333740234375,819.3333740234375,819.3333740234375,819.3333740234375,819.3333740234375,819.3333740234375,819.3333740234375,808.6666870117188,805.3333740234375,803.3333740234375,801.3333740234375,800,794,773.3333740234375,743.3333740234375,725.3333740234375,691.3333740234375,674,602,582.6666870117188,544,504,485.3333435058594,447.3333435058594,390.66668701171875,355.3333435058594,335.3333435058594,298,278,200.6666717529297,183.33334350585938,149.33334350585938,118.66667175292969,105.33333587646484,68],"timestamp_mouse":[12,33,52,73,92,112,133,152,174,192,212,232,253,273,292,313,333,353,372,392,413,433,453,472,493,513,533,553,572,592,612,633,653,672,693,713,733,752,773,792,813,834,853,872,893,913,932,953,973,993,1013,1032,1053,1073,1093,1113,1133,1154],"xSR":350,"ySR":768,"xT1":30,"yT1":0,"xT2":670,"yT2":0,"toosoon":0,"cond_shown":"equaldotanddens","ratio_trial":750,"smaller_num":"3","larger_num":"4","correct_side":2,"subjID":"411wm","gender":"No_gender","age":"No_age","school":"No_school"},{"start_time":1549382271188,"click_time":1549382272620,"finger_time":1549382272140,"fix_duration