[{"start_time":1549381677881,"click_time":1549381679227,"finger_time":1549381677942,"fix_duration":1329.2837618198812,"trial":0,"RT":61,"MT":1285,"sideResp":2,"stimulus":[],"xmouse":[400,400,400,400,400,400,400,400,400,400,400,400,400,393,393,394,394,394.46600341796875,394.6669921875,394.3110046386719,394.3110046386719,394.3110046386719,394.3110046386719,394.3110046386719,394.3110046386719,394.3110046386719,389.0320129394531,389.0320129394531,389.0320129394531,389.0320129394531,389.0320129394531,389.0320129394531,389.0320129394531,389.0320129394531,389.0320129394531,389.0320129394531,389.0320129394531,389.0320129394531,389.0320129394531,389.0320129394531,389.0320129394531,389.0320129394531,389.0320129394531,389.0320129394531,389.0320129394531,389.0320129394531,389.0320129394531,389.0320129394531,405.2640075683594,405.2640075683594,405.2640075683594,445.5920104980469,462.8190002441406,499.3550109863281,518.4299926757812,538.2230224609375,556.8740234375,575.5449829101562,607.1430053710938,621.2059936523438,634.72900390625,646.927001953125,661.3989868164062,688.7760009765625,700.8480224609375,712.7479858398438],"ymouse":[519,519,519,519,519,519,519,519,519,519,519,519,519,516,516,516,516,516.6669921875,516.6669921875,516.6669921875,516.6669921875,516.6669921875,516.6669921875,516.6669921875,516.6669921875,516.6669921875,510.7300109863281,510.7300109863281,510.7300109863281,510.7300109863281,510.7300109863281,510.7300109863281,510.7300109863281,510.7300109863281,510.7300109863281,510.7300109863281,510.7300109863281,510.7300109863281,510.7300109863281,510.7300109863281,510.7300109863281,510.7300109863281,510.7300109863281,510.7300109863281,510.7300109863281,510.7300109863281,510.7300109863281,510.7300109863281,810.7360229492188,810.7360229492188,810.7360229492188,713.2849731445312,665.6119995117188,565.0170288085938,514.8189697265625,466.5669860839844,421.2080078125,381.9570007324219,299.6910095214844,263.55499267578125,228.47900390625,200.10299682617188,172.8350067138672,125.10600280761719,105.71299743652344,87.09400177001953],"timestamp_mouse":[61,65,85,105,125,145,165,185,205,225,245,265,285,305,325,345,365,385,405,425,445,465,485,505,525,545,565,585,606,625,645,665,686,705,725,745,765,785,805,825,845,865,885,905,925,945,965,985,1007,1025,1045,1065,1085,1105,1125,1145,1165,1185,1205,1225,1245,1265,1285,1306,1325,1345],"xSR":350,"ySR":451.2,"xT1":30,"yT1":0,"xT2":670,"yT2":0,"toosoon":0,"cond_shown":"Incongruent","ratio_trial":100,"L_num":6,"L_den":12,"R_num":3,"R_den":5,"correct_side":2,"subjID":"412wm","gender":"No_gender","age":"No_age","school":"No_school","test":{"fix_dur":[250,1500],"timestim":900,"targets_dim":[100,100],"targets_relative_coord":[0.1,0.9],"size_stim":[880,420],"start_dim":[100,100],"size_start":[300,300],"size_fix":60,"samplingrate":20,"img_types":["Congruent","Incongruent"],"ratios":[100,200,300,500],"rep_conds":15,"nTrials":128,"trials_to_rest":500,"Trials_order":[1,47,94,59,5,95,12,74,56,99,112,111,11,69,83,87,81,126,44,58,105,100,106,64,4,32,66,63,119,115,28,79,98,48,75,20,101,76,2,68,35,71,17,127,121,57,70,30,110,102,33,51,97,90,34,116,108,123,124,103,26,45,24,0,10,22,40,93,15,46,31,29,14,52,50,37,91,21,72,104,117,53,120,62,7,6,19,49,8,78,125,113,36,122,61,118,41,73,86,9,18,16,25,13,67,23,114,43,3,77,80,42,82,85,27,54,107,55,92,109,65,84,96,38,39,60,89,88],"cond_shown":["Incongruent","Incongruent","Congruent","Incongruent","Incongruent","Incongruent","Congruent","Congruent","Congruent","Incongruent","Congruent","Incongruent","Incongruent","Incongruent","Incongruent","Incongruent","Incongruent","Congruent","Congruent","Congruent","Incongruent","Congruent","Congruent","Congruent","Congruent","Congruent","Congruent","Incongruent","Incongruent","Incongruent","Congruent","Incongruent","Congruent","Congruent","Incongruent","Congruent","Incongruent","Congruent","Congruent","Congruent","Incongruent","Incongruent","Incongruent","Incongruent","Incongruent","Incongruent","Congruent","Congruent","Congruent","Congruent","Incongruent","Incongruent","Incongruent","Congruent","Congruent","Congruent","Congruent","Incongruent","Congruent","Incongruent","Congruent","Incongruent","Congruent","Congruent","Congruent","Congruent","Congruent","Incongruent","Incongruent","Congruent","Incongruent","Incongruent","Congruent","Congruent","Congruent","Incongruent","Incongruent","Incongruent","Congruent","Congruent","Incongruent","Incongruent","Congruent","Congruent","Incongruent","Congruent","Incongruent","Incongruent","Congruent","Congruent","Incongruent","Incongruent","Congruent","Congruent","Incongruent","Congruent","Incongruent","Incongruent","Congruent","Incongruent","Congruent","Congruent","Incongruent","Incongruent","Incongruent","Incongruent","Congruent","Incongruent","Incongruent","Incongruent","Congruent","Congruent","Congruent","Incongruent","Incongruent","Congruent","Incongruent","Incongruent","Congruent","Incongruent","Incongruent","Congruent","Congruent","Congruent","Incongruent","Congruent","Incongruent","Congruent"],"ratio_trial":[100,500,500,200,300,500,300,200,100,200,100,500,200,300,200,500,100,500,300,200,100,300,200,100,300,100,200,500,500,200,300,500,200,100,200,300,300,300,200,300,200,500,100,500,100,100,500,500,500,500,100,200,100,200,200,300,300,200,300,500,200,300,100,100,200,500,100,300,500,500,500,300,500,300,200,300,200,300,100,100,300,300,100,500,500,500,200,100,100,500,300,100,300,200,300,500,100,100,500,100,200,100,100,300,200,500,200,200,200,300,100,200,200,300,200,500,200,500,300,300,100,300,100,500,500,300,100,100],"left_num":[6,7,2,7,4,7,4,1,3,7,11,7,14,2,7,7,12,3,24,11,6,18,8,6,20,4,20,5,7,7,11,7,12,9,7,20,13,20,8,8,14,5,6,7,9,6,10,4,4,5,12,7,3,20,14,20,12,7,1,7,8,4,11,11,4,4,4,1,7,20,7,7,5,11,8,8,7,2,6,6,4,4,12,9,7,7,7,2,11,4,8,2,1,6,13,1,10,6,15,3,6,15,6,4,9,7,8,3,1,1,2,8,8,7,14,25,3,7,24,13,2,3,1,8,7,9,3,7],"right_num":[3,5,10,14,8,5,2,21,4,6,6,5,6,6,14,5,2,6,8,3,11,9,3,5,5,6,9,6,5,8,2,5,6,8,4,9,12,5,3,10,12,6,3,5,6,7,4,12,1,2,2,12,7,9,6,5,2,8,3,9,3,2,4,4,3,1,6,3,5,3,5,8,2,2,7,9,12,6,15,5,2,2,13,20,5,12,12,6,4,12,14,8,11,11,12,11,9,7,5,11,7,13,7,2,8,5,2,11,3,2,6,7,2,8,12,9,1,9,2,12,8,4,18,1,5,3,4,9],"left_den":[12,21,12,10,5,21,5,2,20,15,22,21,30,4,10,21,30,30,30,22,10,20,15,20,25,8,25,6,21,10,22,21,20,15,15,25,26,25,15,15,30,6,12,21,18,10,15,24,6,6,30,10,9,25,28,25,24,10,5,8,15,20,22,22,8,6,8,2,21,28,21,10,6,22,15,10,10,4,12,20,20,20,30,27,21,28,10,4,22,24,10,4,5,20,26,9,25,10,18,5,12,25,10,20,15,21,15,4,2,2,5,15,15,10,30,30,10,8,30,26,4,6,2,12,21,10,6,14],"right_den":[5,6,15,28,16,6,4,30,16,9,15,6,9,30,28,6,4,10,16,10,22,15,9,25,10,10,15,18,6,16,10,6,15,16,6,18,15,10,9,12,18,18,5,6,10,14,24,18,6,6,4,24,30,15,20,10,10,16,6,24,9,4,10,10,10,6,10,15,6,14,6,20,6,10,21,18,24,30,25,25,4,4,26,24,6,16,24,15,10,18,28,20,22,22,15,18,18,14,15,22,10,26,14,4,10,6,6,20,10,10,12,21,6,20,18,27,2,24,4,15,20,5,30,6,6,5,10,15],"correct_side":[2,2,2,1,1,2,1,2,2,2,1,2,2,1,1,2,2,2,1,1,1,1,1,1,1,2,1,1,2,1,1,2,1,1,2,1,2,1,1,2,2,1,2,2,2,1,1,2,1,1,2,1,1,1,1,1,1,1,2,1,1,2,1,1,1,1,2,1,2,1,2,1,1,1,1,1,1,1,2,1,2,2,2,2,2,2,1,1,1,2,1,1,2,2,2,2,2,1,1,1,2,1,1,2,2,2,1,1,1,1,2,1,1,1,2,1,2,1,1,2,1,2,2,1,2,1,1,2],"img_shown":["img2/100/Incongruent/R/I_Dist_100_LN_6_LD_12_RN_3_RD_5_1.png","img2/500/Incongruent/R/I_Dist_500_LN_7_LD_21_RN_5_RD_6_1.png","img2/500/Congruent/R/C_Dist_500_LN_2_LD_12_RN_10_RD_15_1.png","img2/200/Incongruent/L/I_Dist_200_LN_7_LD_10_RN_14_RD_28_0.png","img2/300/Incongruent/L/I_Dist_300_LN_4_LD_5_RN_8_RD_16_0.png","img2/500/Incongruent/R/I_Dist_500_LN_7_LD_21_RN_5_RD_6_1.png","img2/300/Congruent/L/C_Dist_300_LN_4_LD_5_RN_2_RD_4_0.png","img2/200/Congruent/R/C_Dist_200_LN_1_LD_2_RN_21_RD_30_1.png","img2/100/Congruent/R/C_Dist_100_LN_3_LD_20_RN_4_RD_16_1.png","img2/200/Incongruent/R/I_Dist_200_LN_7_LD_15_RN_6_RD_9_1.png","img2/100/Congruent/L/C_Dist_100_LN_11_LD_22_RN_6_RD_15_0.png","img2/500/Incongruent/R/I_Dist_500_LN_7_LD_21_RN_5_RD_6_1.png","img2/200/Incongruent/R/I_Dist_200_LN_14_LD_30_RN_6_RD_9_1.png","img2/300/Incongruent/L/I_Dist_300_LN_2_LD_4_RN_6_RD_30_0.png","img2/200/Incongruent/L/I_Dist_200_LN_7_LD_10_RN_14_RD_28_0.png","img2/500/Incongruent/R/I_Dist_500_LN_7_LD_21_RN_5_RD_6_1.png","img2/100/Incongruent/R/I_Dist_100_LN_12_LD_30_RN_2_RD_4_1.png","img2/500/Congruent/R/C_Dist_500_LN_3_LD_30_RN_6_RD_10_1.png","img2/300/Congruent/L/C_Dist_300_LN_24_LD_30_RN_8_RD_16_0.png","img2/200/Congruent/L/C_Dist_200_LN_11_LD_22_RN_3_RD_10_0.png","img2/100/Incongruent/L/I_Dist_100_LN_6_LD_10_RN_11_RD_22_0.png","img2/300/Congruent/L/C_Dist_300_LN_18_LD_20_RN_9_RD_15_0.png","img2/200/Congruent/L/C_Dist_200_LN_8_LD_15_RN_3_RD_9_0.png","img2/100/Congruent/L/C_Dist_100_LN_6_LD_20_RN_5_RD_25_0.png","img2/300/Congruent/L/C_Dist_300_LN_20_LD_25_RN_5_RD_10_0.png","img2/100/Congruent/R/C_Dist_100_LN_4_LD_8_RN_6_RD_10_1.png","img2/200/Congruent/L/C_Dist_200_LN_20_LD_25_RN_9_RD_15_0.png","img2/500/Incongruent/L/I_Dist_500_LN_5_LD_6_RN_6_RD_18_0.png","img2/500/Incongruent/R/I_Dist_500_LN_7_LD_21_RN_5_RD_6_1.png","img2/200/Incongruent/L/I_Dist_200_LN_7_LD_10_RN_8_RD_16_0.png","img2/300/Congruent/L/C_Dist_300_LN_11_LD_22_RN_2_RD_10_0.png","img2/500/Incongruent/R/I_Dist_500_LN_7_LD_21_RN_5_RD_6_1.png","img2/200/Congruent/L/C_Dist_200_LN_12_LD_20_RN_6_RD_15_0.png","img2/100/Congruent/L/C_Dist_100_LN_9_LD_15_RN_8_RD_16_0.png","img2/200/Incongruent/R/I_Dist_200_LN_7_LD_15_RN_4_RD_6_1.png","img2/300/Congruent/L/C_Dist_300_LN_20_LD_25_RN_9_RD_18_0.png","img2/300/Incongruent/R/I_Dist_300_LN_13_LD_26_RN_12_RD_15_1.png","img2/300/Congruent/L/C_Dist_300_LN_20_LD_25_RN_5_RD_10_0.png","img2/200/Congruent/L/C_Dist_200_LN_8_LD_15_RN_3_RD_9_0.png","img2/300/Congruent/R/C_Dist_300_LN_8_LD_15_RN_10_RD_12_1.png","img2/200/Incongruent/R/I_Dist_200_LN_14_LD_30_RN_12_RD_18_1.png","img2/500/Incongruent/L/I_Dist_500_LN_5_LD_6_RN_6_RD_18_0.png","img2/100/Incongruent/R/I_Dist_100_LN_6_LD_12_RN_3_RD_5_1.png","img2/500/Incongruent/R/I_Dist_500_LN_7_LD_21_RN_5_RD_6_1.png","img2/100/Incongruent/R/I_Dist_100_LN_9_LD_18_RN_6_RD_10_1.png","img2/100/Incongruent/L/I_Dist_100_LN_6_LD_10_RN_7_RD_14_0.png","img2/500/Congruent/L/C_Dist_500_LN_10_LD_15_RN_4_RD_24_0.png","img2/500/Congruent/R/C_Dist_500_LN_4_LD_24_RN_12_RD_18_1.png","img2/500/Congruent/L/C_Dist_500_LN_4_LD_6_RN_1_RD_6_0.png","img2/500/Congruent/L/C_Dist_500_LN_5_LD_6_RN_2_RD_6_0.png","img2/100/Incongruent/R/I_Dist_100_LN_12_LD_30_RN_2_RD_4_1.png","img2/200/Incongruent/L/I_Dist_200_LN_7_LD_10_RN_12_RD_24_0.png","img2/100/Incongruent/L/I_Dist_100_LN_3_LD_9_RN_7_RD_30_0.png","img2/200/Congruent/L/C_Dist_200_LN_20_LD_25_RN_9_RD_15_0.png","img2/200/Congruent/L/C_Dist_200_LN_14_LD_28_RN_6_RD_20_0.png","img2/300/Congruent/L/C_Dist_300_LN_20_LD_25_RN_5_RD_10_0.png","img2/300/Congruent/L/C_Dist_300_LN_12_LD_24_RN_2_RD_10_0.png","img2/200/Incongruent/L/I_Dist_200_LN_7_LD_10_RN_8_RD_16_0.png","img2/300/Congruent/R/C_Dist_300_LN_1_LD_5_RN_3_RD_6_1.png","img2/500/Incongruent/L/I_Dist_500_LN_7_LD_8_RN_9_RD_24_0.png","img2/200/Congruent/L/C_Dist_200_LN_8_LD_15_RN_3_RD_9_0.png","img2/300/Incongruent/R/I_Dist_300_LN_4_LD_20_RN_2_RD_4_1.png","img2/100/Congruent/L/C_Dist_100_LN_11_LD_22_RN_4_RD_10_0.png","img2/100/Congruent/L/C_Dist_100_LN_11_LD_22_RN_4_RD_10_0.png","img2/200/Congruent/L/C_Dist_200_LN_4_LD_8_RN_3_RD_10_0.png","img2/500/Congruent/L/C_Dist_500_LN_4_LD_6_RN_1_RD_6_0.png","img2/100/Congruent/R/C_Dist_100_LN_4_LD_8_RN_6_RD_10_1.png","img2/300/Incongruent/L/I_Dist_300_LN_1_LD_2_RN_3_RD_15_0.png","img2/500/Incongruent/R/I_Dist_500_LN_7_LD_21_RN_5_RD_6_1.png","img2/500/Congruent/L/C_Dist_500_LN_20_LD_28_RN_3_RD_14_0.png","img2/500/Incongruent/R/I_Dist_500_LN_7_LD_21_RN_5_RD_6_1.png","img2/300/Incongruent/L/I_Dist_300_LN_7_LD_10_RN_8_RD_20_0.png","img2/500/Congruent/L/C_Dist_500_LN_5_LD_6_RN_2_RD_6_0.png","img2/300/Congruent/L/C_Dist_300_LN_11_LD_22_RN_2_RD_10_0.png","img2/200/Congruent/L/C_Dist_200_LN_8_LD_15_RN_7_RD_21_0.png","img2/300/Incongruent/L/I_Dist_300_LN_8_LD_10_RN_9_RD_18_0.png","img2/200/Incongruent/L/I_Dist_200_LN_7_LD_10_RN_12_RD_24_0.png","img2/300/Incongruent/L/I_Dist_300_LN_2_LD_4_RN_6_RD_30_0.png","img2/100/Congruent/R/C_Dist_100_LN_6_LD_12_RN_15_RD_25_1.png","img2/100/Congruent/L/C_Dist_100_LN_6_LD_20_RN_5_RD_25_0.png","img2/300/Incongruent/R/I_Dist_300_LN_4_LD_20_RN_2_RD_4_1.png","img2/300/Incongruent/R/I_Dist_300_LN_4_LD_20_RN_2_RD_4_1.png","img2/100/Congruent/R/C_Dist_100_LN_12_LD_30_RN_13_RD_26_1.png","img2/500/Congruent/R/C_Dist_500_LN_9_LD_27_RN_20_RD_24_1.png","img2/500/Incongruent/R/I_Dist_500_LN_7_LD_21_RN_5_RD_6_1.png","img2/500/Congruent/R/C_Dist_500_LN_7_LD_28_RN_12_RD_16_1.png","img2/200/Incongruent/L/I_Dist_200_LN_7_LD_10_RN_12_RD_24_0.png","img2/100/Incongruent/L/I_Dist_100_LN_2_LD_4_RN_6_RD_15_0.png","img2/100/Congruent/L/C_Dist_100_LN_11_LD_22_RN_4_RD_10_0.png","img2/500/Congruent/R/C_Dist_500_LN_4_LD_24_RN_12_RD_18_1.png","img2/300/Incongruent/L/I_Dist_300_LN_8_LD_10_RN_14_RD_28_0.png","img2/100/Incongruent/L/I_Dist_100_LN_2_LD_4_RN_8_RD_20_0.png","img2/300/Congruent/R/C_Dist_300_LN_1_LD_5_RN_11_RD_22_1.png","img2/200/Congruent/R/C_Dist_200_LN_6_LD_20_RN_11_RD_22_1.png","img2/300/Incongruent/R/I_Dist_300_LN_13_LD_26_RN_12_RD_15_1.png","img2/500/Congruent/R/C_Dist_500_LN_1_LD_9_RN_11_RD_18_1.png","img2/100/Incongruent/R/I_Dist_100_LN_10_LD_25_RN_9_RD_18_1.png","img2/100/Incongruent/L/I_Dist_100_LN_6_LD_10_RN_7_RD_14_0.png","img2/500/Congruent/L/C_Dist_500_LN_15_LD_18_RN_5_RD_15_0.png","img2/100/Incongruent/L/I_Dist_100_LN_3_LD_5_RN_11_RD_22_0.png","img2/200/Congruent/R/C_Dist_200_LN_6_LD_12_RN_7_RD_10_1.png","img2/100/Congruent/L/C_Dist_100_LN_15_LD_25_RN_13_RD_26_0.png","img2/100/Incongruent/L/I_Dist_100_LN_6_LD_10_RN_7_RD_14_0.png","img2/300/Incongruent/R/I_Dist_300_LN_4_LD_20_RN_2_RD_4_1.png","img2/200/Incongruent/R/I_Dist_200_LN_9_LD_15_RN_8_RD_10_1.png","img2/500/Incongruent/R/I_Dist_500_LN_7_LD_21_RN_5_RD_6_1.png","img2/200/Congruent/L/C_Dist_200_LN_8_LD_15_RN_2_RD_6_0.png","img2/200/Incongruent/L/I_Dist_200_LN_3_LD_4_RN_11_RD_20_0.png","img2/200/Incongruent/L/I_Dist_200_LN_1_LD_2_RN_3_RD_10_0.png","img2/300/Incongruent/L/I_Dist_300_LN_1_LD_2_RN_2_RD_10_0.png","img2/100/Congruent/R/C_Dist_100_LN_2_LD_5_RN_6_RD_12_1.png","img2/200/Congruent/L/C_Dist_200_LN_8_LD_15_RN_7_RD_21_0.png","img2/200/Congruent/L/C_Dist_200_LN_8_LD_15_RN_2_RD_6_0.png","img2/300/Incongruent/L/I_Dist_300_LN_7_LD_10_RN_8_RD_20_0.png","img2/200/Incongruent/R/I_Dist_200_LN_14_LD_30_RN_12_RD_18_1.png","img2/500/Congruent/L/C_Dist_500_LN_25_LD_30_RN_9_RD_27_0.png","img2/200/Incongruent/R/I_Dist_200_LN_3_LD_10_RN_1_RD_2_1.png","img2/500/Incongruent/L/I_Dist_500_LN_7_LD_8_RN_9_RD_24_0.png","img2/300/Congruent/L/C_Dist_300_LN_24_LD_30_RN_2_RD_4_0.png","img2/300/Incongruent/R/I_Dist_300_LN_13_LD_26_RN_12_RD_15_1.png","img2/100/Incongruent/L/I_Dist_100_LN_2_LD_4_RN_8_RD_20_0.png","img2/300/Congruent/R/C_Dist_300_LN_3_LD_6_RN_4_RD_5_1.png","img2/100/Congruent/R/C_Dist_100_LN_1_LD_2_RN_18_RD_30_1.png","img2/500/Congruent/L/C_Dist_500_LN_8_LD_12_RN_1_RD_6_0.png","img2/500/Incongruent/R/I_Dist_500_LN_7_LD_21_RN_5_RD_6_1.png","img2/300/Congruent/L/C_Dist_300_LN_9_LD_10_RN_3_RD_5_0.png","img2/100/Incongruent/L/I_Dist_100_LN_3_LD_6_RN_4_RD_10_0.png","img2/100/Congruent/R/C_Dist_100_LN_7_LD_14_RN_9_RD_15_1.png"],"dist100_C":[["C_Dist_100_LN_10_LD_25_RN_3_RD_10_0.png","C_Dist_100_LN_11_LD_22_RN_4_RD_10_0.png","C_Dist_100_LN_11_LD_22_RN_6_RD_15_0.png","C_Dist_100_LN_15_LD_25_RN_13_RD_26_0.png","C_Dist_100_LN_3_LD_6_RN_2_RD_5_0.png","C_Dist_100_LN_6_LD_20_RN_5_RD_25_0.png","C_Dist_100_LN_8_LD_16_RN_2_RD_5_0.png","C_Dist_100_LN_9_LD_15_RN_8_RD_16_0.png"],["C_Dist_100_LN_1_LD_2_RN_18_RD_30_1.png","C_Dist_100_LN_1_LD_2_RN_3_RD_5_1.png","C_Dist_100_LN_12_LD_30_RN_13_RD_26_1.png","C_Dist_100_LN_2_LD_5_RN_11_RD_22_1.png","C_Dist_100_LN_2_LD_5_RN_6_RD_12_1.png","C_Dist_100_LN_3_LD_20_RN_4_RD_16_1.png","C_Dist_100_LN_4_LD_10_RN_15_RD_30_1.png","C_Dist_100_LN_4_LD_8_RN_6_RD_10_1.png","C_Dist_100_LN_6_LD_12_RN_15_RD_25_1.png","C_Dist_100_LN_7_LD_14_RN_15_RD_25_1.png","C_Dist_100_LN_7_LD_14_RN_9_RD_15_1.png"]],"dist100_I":[["I_Dist_100_LN_1_LD_2_RN_8_RD_20_0.png","I_Dist_100_LN_2_LD_4_RN_6_RD_15_0.png","I_Dist_100_LN_2_LD_4_RN_8_RD_20_0.png","I_Dist_100_LN_3_LD_5_RN_11_RD_22_0.png","I_Dist_100_LN_3_LD_5_RN_8_RD_16_0.png","I_Dist_100_LN_3_LD_6_RN_4_RD_10_0.png","I_Dist_100_LN_3_LD_9_RN_7_RD_30_0.png","I_Dist_100_LN_4_LD_8_RN_8_RD_20_0.png","I_Dist_100_LN_6_LD_10_RN_11_RD_22_0.png","I_Dist_100_LN_6_LD_10_RN_13_RD_26_0.png","I_Dist_100_LN_6_LD_10_RN_7_RD_14_0.png","I_Dist_100_LN_9_LD_10_RN_20_RD_25_0.png","I_Dist_100_LN_9_LD_15_RN_13_RD_26_0.png","I_Dist_100_LN_9_LD_15_RN_14_RD_28_0.png"],["I_Dist_100_LN_10_LD_25_RN_8_RD_16_1.png","I_Dist_100_LN_10_LD_25_RN_9_RD_18_1.png","I_Dist_100_LN_11_LD_22_RN_9_RD_15_1.png","I_Dist_100_LN_12_LD_24_RN_9_RD_15_1.png","I_Dist_100_LN_12_LD_30_RN_2_RD_4_1.png","I_Dist_100_LN_13_LD_26_RN_12_RD_20_1.png","I_Dist_100_LN_13_LD_26_RN_6_RD_10_1.png","I_Dist_100_LN_17_LD_30_RN_10_RD_15_1.png","I_Dist_100_LN_6_LD_12_RN_3_RD_5_1.png","I_Dist_100_LN_8_LD_16_RN_6_RD_10_1.png","I_Dist_100_LN_8_LD_20_RN_1_RD_2_1.png","I_Dist_100_LN_9_LD_18_RN_6_RD_10_1.png"]],"dist100_S":[["E_Dist_100_LN_2_LD_12_RN_2_RD_30_0.png","E_Dist_100_LN_6_LD_10_RN_6_RD_12_0.png"],["E_Dist_100_LN_6_LD_12_RN_6_RD_10_1.png"]],"dist200_C":[["C_Dist_200_LN_11_LD_22_RN_3_RD_10_0.png","C_Dist_200_LN_12_LD_15_RN_6_RD_10_0.png","C_Dist_200_LN_12_LD_20_RN_6_RD_15_0.png","C_Dist_200_LN_14_LD_28_RN_6_RD_20_0.png","C_Dist_200_LN_15_LD_25_RN_4_RD_10_0.png","C_Dist_200_LN_16_LD_20_RN_12_RD_20_0.png","C_Dist_200_LN_16_LD_30_RN_9_RD_27_0.png","C_Dist_200_LN_20_LD_25_RN_9_RD_15_0.png","C_Dist_200_LN_21_LD_30_RN_2_RD_4_0.png","C_Dist_200_LN_4_LD_10_RN_3_RD_15_0.png","C_Dist_200_LN_4_LD_8_RN_3_RD_10_0.png","C_Dist_200_LN_6_LD_15_RN_3_RD_15_0.png","C_Dist_200_LN_7_LD_21_RN_2_RD_15_0.png","C_Dist_200_LN_8_LD_15_RN_2_RD_6_0.png","C_Dist_200_LN_8_LD_15_RN_3_RD_9_0.png","C_Dist_200_LN_8_LD_15_RN_7_RD_21_0.png","C_Dist_200_LN_9_LD_20_RN_4_RD_16_0.png"],["C_Dist_200_LN_1_LD_2_RN_21_RD_30_1.png","C_Dist_200_LN_13_LD_26_RN_14_RD_20_1.png","C_Dist_200_LN_3_LD_10_RN_11_RD_22_1.png","C_Dist_200_LN_3_LD_10_RN_14_RD_28_1.png","C_Dist_200_LN_3_LD_10_RN_7_RD_14_1.png","C_Dist_200_LN_3_LD_12_RN_9_RD_20_1.png","C_Dist_200_LN_3_LD_6_RN_14_RD_20_1.png","C_Dist_200_LN_5_LD_10_RN_14_RD_20_1.png","C_Dist_200_LN_6_LD_12_RN_7_RD_10_1.png","C_Dist_200_LN_6_LD_20_RN_11_RD_22_1.png","C_Dist_200_LN_7_LD_15_RN_18_RD_27_1.png","C_Dist_200_LN_9_LD_30_RN_13_RD_26_1.png"]],"dist200_I":[["I_Dist_200_LN_1_LD_2_RN_3_RD_10_0.png","I_Dist_200_LN_1_LD_3_RN_2_RD_15_0.png","I_Dist_200_LN_3_LD_4_RN_11_RD_20_0.png","I_Dist_200_LN_4_LD_5_RN_6_RD_10_0.png","I_Dist_200_LN_4_LD_6_RN_14_RD_30_0.png","I_Dist_200_LN_7_LD_10_RN_12_RD_24_0.png","I_Dist_200_LN_7_LD_10_RN_14_RD_28_0.png","I_Dist_200_LN_7_LD_10_RN_8_RD_16_0.png"],["I_Dist_200_LN_11_LD_20_RN_3_RD_4_1.png","I_Dist_200_LN_14_LD_30_RN_12_RD_18_1.png","I_Dist_200_LN_14_LD_30_RN_6_RD_9_1.png","I_Dist_200_LN_3_LD_10_RN_1_RD_2_1.png","I_Dist_200_LN_4_LD_30_RN_1_RD_3_1.png","I_Dist_200_LN_6_LD_20_RN_3_RD_6_1.png","I_Dist_200_LN_7_LD_15_RN_4_RD_6_1.png","I_Dist_200_LN_7_LD_15_RN_6_RD_9_1.png","I_Dist_200_LN_9_LD_15_RN_8_RD_10_1.png"]],"dist200_S":[["E_Dist_200_LN_3_LD_6_RN_3_RD_10_0.png"],["E_Dist_200_LN_3_LD_10_RN_3_RD_6_1.png"]],"dist300_C":[["C_Dist_300_LN_11_LD_22_RN_1_RD_5_0.png","C_Dist_300_LN_11_LD_22_RN_2_RD_10_0.png","C_Dist_300_LN_11_LD_22_RN_4_RD_20_0.png","C_Dist_300_LN_12_LD_24_RN_2_RD_10_0.png","C_Dist_300_LN_18_LD_20_RN_9_RD_15_0.png","C_Dist_300_LN_20_LD_25_RN_13_RD_26_0.png","C_Dist_300_LN_20_LD_25_RN_14_RD_28_0.png","C_Dist_300_LN_20_LD_25_RN_5_RD_10_0.png","C_Dist_300_LN_20_LD_25_RN_8_RD_16_0.png","C_Dist_300_LN_20_LD_25_RN_9_RD_18_0.png","C_Dist_300_LN_24_LD_30_RN_2_RD_4_0.png","C_Dist_300_LN_24_LD_30_RN_8_RD_16_0.png","C_Dist_300_LN_3_LD_6_RN_2_RD_10_0.png","C_Dist_300_LN_4_LD_10_RN_1_RD_10_0.png","C_Dist_300_LN_4_LD_5_RN_2_RD_4_0.png","C_Dist_300_LN_8_LD_16_RN_1_RD_5_0.png","C_Dist_300_LN_9_LD_10_RN_3_RD_5_0.png"],["C_Dist_300_LN_1_LD_20_RN_7_RD_20_1.png","C_Dist_300_LN_1_LD_3_RN_19_RD_30_1.png","C_Dist_300_LN_1_LD_30_RN_8_RD_24_1.png","C_Dist_300_LN_1_LD_5_RN_11_RD_22_1.png","C_Dist_300_LN_1_LD_5_RN_3_RD_6_1.png","C_Dist_300_LN_1_LD_5_RN_6_RD_12_1.png","C_Dist_300_LN_2_LD_10_RN_12_RD_24_1.png","C_Dist_300_LN_2_LD_20_RN_10_RD_25_1.png","C_Dist_300_LN_3_LD_12_RN_11_RD_20_1.png","C_Dist_300_LN_3_LD_6_RN_4_RD_5_1.png","C_Dist_300_LN_4_LD_20_RN_13_RD_26_1.png","C_Dist_300_LN_5_LD_25_RN_6_RD_12_1.png","C_Dist_300_LN_5_LD_25_RN_7_RD_14_1.png","C_Dist_300_LN_7_LD_14_RN_20_RD_25_1.png","C_Dist_300_LN_8_LD_15_RN_10_RD_12_1.png"]],"dist300_I":[["I_Dist_300_LN_1_LD_2_RN_2_RD_10_0.png","I_Dist_300_LN_1_LD_2_RN_3_RD_15_0.png","I_Dist_300_LN_2_LD_4_RN_6_RD_30_0.png","I_Dist_300_LN_3_LD_6_RN_4_RD_20_0.png","I_Dist_300_LN_4_LD_5_RN_6_RD_12_0.png","I_Dist_300_LN_4_LD_5_RN_8_RD_16_0.png","I_Dist_300_LN_7_LD_10_RN_8_RD_20_0.png","I_Dist_300_LN_8_LD_10_RN_14_RD_28_0.png","I_Dist_300_LN_8_LD_10_RN_9_RD_18_0.png"],["I_Dist_300_LN_13_LD_26_RN_12_RD_15_1.png","I_Dist_300_LN_4_LD_20_RN_2_RD_4_1.png"]],"dist300_S":[["E_Dist_300_LN_9_LD_12_RN_9_RD_20_0.png"],["E_Dist_300_LN_18_LD_30_RN_18_RD_20_1.png","E_Dist_300_LN_3_LD_10_RN_3_RD_5_1.png","E_Dist_300_LN_9_LD_20_RN_9_RD_12_1.png"]],"dist500_C":[["C_Dist_500_LN_10_LD_13_RN_7_RD_26_0.png","C_Dist_500_LN_10_LD_15_RN_4_RD_24_0.png","C_Dist_500_LN_12_LD_16_RN_3_RD_12_0.png","C_Dist_500_LN_12_LD_18_RN_4_RD_24_0.png","C_Dist_500_LN_15_LD_18_RN_5_RD_15_0.png","C_Dist_500_LN_15_LD_20_RN_1_RD_4_0.png","C_Dist_500_LN_18_LD_27_RN_1_RD_6_0.png","C_Dist_500_LN_20_LD_24_RN_1_RD_3_0.png","C_Dist_500_LN_20_LD_24_RN_3_RD_9_0.png","C_Dist_500_LN_20_LD_24_RN_7_RD_21_0.png","C_Dist_500_LN_20_LD_28_RN_3_RD_14_0.png","C_Dist_500_LN_21_LD_28_RN_6_RD_24_0.png","C_Dist_500_LN_22_LD_28_RN_2_RD_7_0.png","C_Dist_500_LN_25_LD_30_RN_9_RD_27_0.png","C_Dist_500_LN_4_LD_6_RN_1_RD_6_0.png","C_Dist_500_LN_5_LD_6_RN_2_RD_6_0.png","C_Dist_500_LN_6_LD_9_RN_1_RD_6_0.png","C_Dist_500_LN_7_LD_10_RN_1_RD_5_0.png","C_Dist_500_LN_8_LD_12_RN_1_RD_6_0.png","C_Dist_500_LN_8_LD_12_RN_4_RD_24_0.png"],["C_Dist_500_LN_1_LD_4_RN_12_RD_16_1.png","C_Dist_500_LN_1_LD_4_RN_9_RD_12_1.png","C_Dist_500_LN_1_LD_9_RN_11_RD_18_1.png","C_Dist_500_LN_10_LD_24_RN_22_RD_24_1.png","C_Dist_500_LN_2_LD_12_RN_10_RD_15_1.png","C_Dist_500_LN_2_LD_12_RN_12_RD_18_1.png","C_Dist_500_LN_2_LD_12_RN_4_RD_6_1.png","C_Dist_500_LN_2_LD_24_RN_7_RD_12_1.png","C_Dist_500_LN_2_LD_5_RN_18_RD_20_1.png","C_Dist_500_LN_2_LD_5_RN_9_RD_10_1.png","C_Dist_500_LN_2_LD_8_RN_12_RD_16_1.png","C_Dist_500_LN_2_LD_8_RN_21_RD_28_1.png","C_Dist_500_LN_3_LD_10_RN_4_RD_5_1.png","C_Dist_500_LN_3_LD_12_RN_15_RD_20_1.png","C_Dist_500_LN_3_LD_30_RN_6_RD_10_1.png","C_Dist_500_LN_3_LD_8_RN_14_RD_16_1.png","C_Dist_500_LN_4_LD_16_RN_15_RD_20_1.png","C_Dist_500_LN_4_LD_24_RN_12_RD_18_1.png","C_Dist_500_LN_5_LD_14_RN_6_RD_7_1.png","C_Dist_500_LN_7_LD_21_RN_20_RD_24_1.png","C_Dist_500_LN_7_LD_28_RN_12_RD_16_1.png","C_Dist_500_LN_7_LD_28_RN_9_RD_12_1.png","C_Dist_500_LN_9_LD_27_RN_20_RD_24_1.png"]],"dist500_I":[["I_Dist_500_LN_2_LD_3_RN_4_RD_24_0.png","I_Dist_500_LN_5_LD_6_RN_6_RD_18_0.png","I_Dist_500_LN_7_LD_8_RN_9_RD_24_0.png"],["I_Dist_500_LN_7_LD_21_RN_5_RD_6_1.png"]],"dist500_S":[["E_Dist_500_LN_6_LD_8_RN_6_RD_24_0.png"],["E_Dist_500_LN_2_LD_12_RN_2_RD_3_1.png","E_Dist_500_LN_6_LD_24_RN_6_RD_8_1.png"]]}},{"start_time":1549381683701,"click_time":1549381685029,"finger_time":1549381684527,"fix_duration":911.5808581531506,"trial":1,"RT":826,"MT":502,"sideResp":2,"stimulus":[],"xmouse":[404,404,404,404,404,404,404,404,404,404,404,404,404,404,404,404,404,404,404,404,404,404,404,404,404,404,404,404,404,404,404,404,404,404,404,405.9389953613281,409.8380126953125,409.8380126953125,445.4169921875,452.8399963378906,461.43499755859375,471.8380126953125,485.2019958496094,511.0530090332031,520.0960083007812,526.8209838867188,534.0479736328125,541.843017578125,556.614013671875,564.31298828125,571.072021484375,578.926025390625,589.8150024414062,618.4000244140625,634.1110229492188,651.5869750976562,664.0770263671875,675.0780029296875,685.1079711914062,684.7000122070312,686.3820190429688,689.0599975585938,699.2860107421875,724.448974609375],"ymouse":[838,838,838,838,838,838,838,838,838,838,838,838,838,838,838,838,838,838,838,838,838,838,838,838,838,838,838,838,838,838,838,838,838,838,838,830.7899780273438,822.323974609375,822.323974609375,746.7310180664062,725.5449829101562,703.6510009765625,679.1069946289062,652.3289794921875,600.3690185546875,579.9149780273438,562.031982421875,541.85498046875,522.4710083007812,483.6199951171875,465.04998779296875,446.2909851074219,426.8139953613281,405.0360107421875,358.5329895019531,333.864990234375,309.593994140625,284.8689880371094,259.67999267578125,208.7100067138672,182.13800048828125,155.79400634765625,130.31500244140625,106.09500122070312,62.660003662109375],"timestamp_mouse":[75,85,106,125,145,165,185,205,225,245,265,286,305,326,346,366,386,405,426,446,466,485,506,525,546,565,586,606,625,646,666,685,706,726,746,766,786,806,825,846,866,886,906,927,946,966,986,1006,1030,1046,1066,1086,1106,1127,1146,1166,1186,1206,1228,1246,1266,1286,1306,1328],"xSR":350,"ySR":768,"xT1":30,"yT1":0,"xT2":670,"yT2":0,"toosoon":0,"cond_shown":"Incongruent","ratio_trial":500,"L_num":7,"L_den":21,"R_num":5,"R_den":6,"correct_side":2,"subjID":"412wm","gender":"No_gender","school":"No_school","age":"No_age"},{"start_time":1549381687565,"click_time":1549381688588,"finger_time":1549381688229,"fix_duration":250,"trial":2,"RT":664,"MT":359,"sideResp":2,"stimulus":[],"xmouse":[389,389,389,389,389,389,389,389,389,389,389,389,389,389,389,389,389,389,389,389,389,389,389,389,389,389,389,389,389,396.68798828125,404.49200439453125,414.1180114746094,436.6570129394531,450.47100830078125,466.7969970703125,485.19500732421875,507.7409973144531,553.2630004882812,571.9520263671875,589.7039794921875,607.2960205078125,622.7680053710938,652.4210205078125,667.5770263671875,683.6430053710938,696.0289916992188,709.2319946289062,724.5900268554688,729.0380249023438,729.3330078125],"ymouse":[830,830,830,830,830,830,830,830,830,830,830,830,830,830,830,830,830,830,830,830,830,830,830,830,830,830,830,830,830,817.9310302734375,793.1909790039062,767.9219970703125,721.9110107421875,689.697021484375,652.7570190429688,610.7490234375,570.1069946289062,496.27001953125,459.35400390625,423.8429870605469,385.7070007324219,348.3030090332031,280.3710021972656,249.29299926757812,218.24600219726562,192.11700439453125,166.2030029296875,122.67599487304688,103.33000183105469,91.85600280761719],"timestamp_mouse":[4,77,84,102,122,142,162,182,202,222,242,262,282,302,322,342,362,382,402,422,442,462,482,502,522,542,562,582,602,622,642,664,682,703,722,742,762,783,802,822,842,862,882,902,922,942,962,982,1002,1022],"xSR":350,"ySR":768,"xT1":30,"yT1":0,"xT2":670,"yT2":0,"toosoon":0,"cond_shown":"Congruent","ratio_trial":500,"L_num":2,"L_den":12,"R_num":10,"R_den":15,"correct_side":2,"subjID":"412wm","gender":"No_gender","school":"No_school","age":"No_age"},{"start_time":1549381691474,"click_time":1549381693708,"finger_time":1549381692870,"fix_duration":325.0249513147049,"trial":3,"RT":1396,"MT":838,"sideResp":1,"stimulus":[],"xmouse":[406,406,406,406,406,406,406,406,406,406,406,406,406,406,406,406,406,406,406,406,406,406,406,406,406,406,406,405,405,405,405,405,404,404,404,404,404,404,404,404,404,404,404,404,404,404,405.3330078125,405.3330078125,405.3330078125,405.3330078125,405.3330078125,405.3330078125,405.3330078125,405.3330078125,405.3330078125,405.3330078125,405.3330078125,405.3330078125,405.3330078125,405.3330078125,405.3330078125,405.3330078125,405.3330078125,405.3330078125,406.74798583984375,406.74798583984375,406.74798583984375,439.3869934082031,444.79901123046875,447.239013671875,448.3269958496094,450.1409912109375,451.14898681640625,453.3110046386719,455.4530029296875,457.6180114746094,458,459,459,459,459,459,459,459,459,459,459,459,448.3599853515625,448.3599853515625,448.3599853515625,448.3599853515625,448.3599853515625,375.8429870605469,356.31201171875,337.5920104980469,319.6839904785156,302.46600341796875,260.906005859375,235.9499969482422,210.15499877929688,187.08099365234375,168.96800231933594,151.37399291992188,145.322998046875,138.0260009765625,129.18699645996094,118.427001953125,103.95999908447266,97.6259994506836],"ymouse":[810,810,810,810,810,810,811,811,811,811,811,811,811,811,811,811,811,811,811,811,811,811,811,811,811,811,811,810,810,810,810,810,809,809,809,809,808,808,808,808,808,808,808,808,808,808,805.3330078125,805.3330078125,805.3330078125,805.3330078125,805.3330078125,805.3330078125,805.3330078125,805.3330078125,805.3330078125,805.3330078125,805.3330078125,805.3330078125,805.3330078125,805.3330078125,805.3330078125,805.3330078125,804.739013671875,804.739013671875,803.1699829101562,803.1699829101562,803.1699829101562,711.530029296875,691.7899780273438,679.6069946289062,670.718017578125,664.2429809570312,657.5889892578125,646.7570190429688,643.2130126953125,641.0479736328125,640,640,640,640,640,640,640,640,640,640,640,640,644.6669921875,644.6669921875,644.6669921875,644.6669921875,644.6669921875,600.0910034179688,583.8150024414062,564.9019775390625,539.7559814453125,511.1619873046875,443.52301025390625,411.5400085449219,381.36700439453125,352.5769958496094,317.97698974609375,242.82501220703125,205.13299560546875,174.10400390625,148.91200256347656,130.3679962158203,101.35700225830078,87.63500213623047],"timestamp_mouse":[71,74,94,114,134,154,174,194,214,234,254,274,294,314,334,354,374,394,414,434,454,474,494,514,534,554,574,594,614,634,654,674,694,714,734,754,774,794,814,834,854,874,894,914,934,954,974,994,1014,1034,1054,1074,1094,1114,1134,1154,1174,1194,1214,1234,1254,1274,1295,1314,1334,1354,1374,1396,1414,1434,1454,1474,1494,1516,1534,1554,1574,1596,1614,1634,1654,1674,1695,1714,1734,1754,1774,1794,1815,1834,1854,1874,1894,1914,1934,1954,1974,1994,2014,2034,2054,2074,2094,2116,2134,2154,2174,2194,2217,2234],"xSR":350,"ySR":768,"xT1":30,"yT1":0,"xT2":670,"yT2":0,"toosoon":0,"cond_shown":"Incongruent","ratio_trial":200,"L_num":7,"L_den":10,"R_num":14,"R_den":28,"correct_side":1,"subjID":"412wm","gender":"No_gender","school":"No_school","age":"No_age"},{"start_time":1549381695823,"click_time":1549381697109,"finger_time":1549381696608,"fix_duration":250,"trial":4,"RT":785,"MT":501,"sideResp":1,"stimulus":[],"xmouse":[407.3330078125,407.3330078125,407.3330078125,407.3330078125,407.3330078125,407.3330078125,407.3330078125,407.3330078125,407.3330078125,407.3330078125,407.3330078125,407.3330078125,407.3330078125,407.3330078125,407.3330078125,407.3330078125,407.3330078125,407.3330078125,407.3330078125,407.3330078125,407.3330078125,407.3330078125,407.3330078125,407.3330078125,407.3330078125,407.3330078125,407.3330078125,407.3330078125,407.3330078125,407.3330078125,407.3330078125,405.09698486328125,403.4620056152344,403.4620056152344,394.4880065917969,384.8760070800781,364.6809997558594,350.3599853515625,336.06500244140625,321.2820129394531,308.1679992675781,275.69000244140625,257.7139892578125,242.03599548339844,227.73699951171875,212.1820068359375,181.5989990234375,168.19000244140625,154.97900390625,143.08799743652344,131.927001953125,107.56600189208984,98.16500091552734,92.35700225830078,93.88300323486328,93.88300323486328,93.88300323486328,93.88300323486328,93.88300323486328,93.88300323486328,93.88300323486328,76.76899719238281],"ymouse":[807.3330078125,807.3330078125,807.3330078125,807.3330078125,807.3330078125,807.3330078125,807.3330078125,807.3330078125,807.3330078125,807.3330078125,807.3330078125,807.3330078125,807.3330078125,807.3330078125,807.3330078125,807.3330078125,807.3330078125,807.3330078125,807.3330078125,807.3330078125,807.3330078125,807.3330078125,807.3330078125,807.3330078125,807.3330078125,807.3330078125,807.3330078125,807.3330078125,807.3330078125,807.3330078125,807.3330078125,816.5479736328125,813.052978515625,813.052978515625,792.8579711914062,769.5230102539062,713.1710205078125,683.0759887695312,654.031005859375,627.447998046875,606.3209838867188,561.8319702148438,535.6580200195312,510.1400146484375,484.1300048828125,461.72198486328125,411.73199462890625,380.4590148925781,348.7909851074219,316.3609924316406,287.8760070800781,239.08900451660156,219.16299438476562,196.56700134277344,174.56100463867188,174.56100463867188,174.56100463867188,174.56100463867188,174.56100463867188,174.56100463867188,174.56100463867188,89.43599700927734],"timestamp_mouse":[5,98,105,125,145,165,185,205,225,245,265,285,305,325,346,365,385,405,425,445,465,485,505,525,545,569,585,606,625,645,665,685,705,726,745,765,785,805,825,845,865,885,905,925,945,965,985,1005,1025,1045,1066,1088,1105,1125,1145,1165,1185,1205,1225,1245,1265,1285],"xSR":350,"ySR":768,"xT1":30,"yT1":0,"xT2":670,"yT2":0,"toosoon":0,"cond_shown":"Incongruent","ratio_trial":300,"L_num":4,"L_den":5,"R_num":8,"R_den":16,"correct_side":1,"subjID":"412wm","gender":"No_gender","school":"No_school","age":"No_age"},{"start_time":1549381699490,"click_time":1549381700890,"finger_time":1549381700489,"fix_duration":1120.7139768255627,"trial":5,"RT":999,"MT":401,"sideResp":2,"stimulus":[],"xmouse":[402,401.3330078125,401.3330078125,401.3330078125,401.3330078125,401.3330078125,401.3330078125,401.3330078125,401.3330078125,401.3330078125,401.3330078125,401.3330078125,401.3330078125,401.3330078125,400.91400146484375,400.91400146484375,400.91400146484375,400.91400146484375,400.91400146484375,400.91400146484375,400.91400146484375,400.91400146484375,399.3330078125,399.3330078125,399.3330078125,399.3330078125,399.3330078125,399.3330078125,399.3330078125,399.3330078125,399.3330078125,399.3330078125,399.3330078125,401.3330078125,401.3330078125,402,402.6669921875,403.61700439453125,403.3330078125,404,404.614990234375,404.6669921875,405.4429931640625,407.18798828125,413.33099365234375,416.59100341796875,419.90399169921875,425.04901123046875,430.6990051269531,449.5159912109375,461.4119873046875,474.5450134277344,485.30499267578125,493.9859924316406,510.25201416015625,522.0139770507812,536.6229858398438,552.916015625,570.364990234375,599.8419799804688,611.4240112304688,624.31201171875,635.8209838867188,649.3369750976562,677.9089965820312,691.4400024414062,704.1409912109375,714.1649780273438],"ymouse":[829,829.3330078125,829.3330078125,829.3330078125,829.3330078125,829.3330078125,829.3330078125,829.3330078125,829.3330078125,829.3330078125,829.3330078125,829.3330078125,829.3330078125,829.3330078125,829.3330078125,829.3330078125,829.3330078125,829.3330078125,829.3330078125,829.3330078125,829.3330078125,829.3330078125,828.8369750976562,828.8369750976562,828.8369750976562,828.8369750976562,828.8369750976562,828.8369750976562,828.8369750976562,828.8369750976562,828.8369750976562,828.8369750976562,828.8369750976562,827.1090087890625,827.1090087890625,826,824.7860107421875,823.7160034179688,822.6190185546875,819,817.43798828125,814.9140014648438,811.6719970703125,807.3939819335938,794.6710205078125,786.3989868164062,776.9559936523438,763.5919799804688,748.9199829101562,700.6270141601562,669.427978515625,640.2730102539062,612.7529907226562,586.708984375,528.9910278320312,496.6939697265625,462.75299072265625,431.0740051269531,399.2170104980469,339.36700439453125,311.2749938964844,282.7690124511719,253.42599487304688,224.19700622558594,164.7480010986328,136.3730010986328,110.38400268554688,90.48400115966797],"timestamp_mouse":[76,79,99,119,139,159,179,199,219,239,259,279,299,319,339,359,379,399,419,439,459,479,499,519,539,559,579,599,619,639,659,679,699,719,739,759,779,799,819,839,859,879,900,919,939,959,979,999,1019,1040,1059,1079,1099,1119,1141,1159,1179,1199,1220,1241,1259,1279,1299,1319,1341,1359,1379,1399],"xSR":350,"ySR":768,"xT1":30,"yT1":0,"xT2":670,"yT2":0,"toosoon":0,"cond_shown":"Incongruent","ratio_trial":500,"L_num":7,"L_den":21,"R_num":5,"R_den":6,"correct_side":2,"subjID":"412wm","gender":"No_gender","school":"No_school","age":"No_age"},{"start_time":1549381704803,"click_time":1549381706090,"finger_time":1549381705690,"fix_duration":250,"trial":6,"RT":887,"MT":400,"sideResp":1,"stimulus":[],"xmouse":[424,424,424,424,424,424,424,424,424,424,424,424,424,424,424,424,424,424,424,424,424,424,424,424,424,424,424,424,424,424,424,424,424,424,424,424,424,424,424,413.81201171875,413.81201171875,378.531005859375,359.7950134277344,343.3240051269531,326.4540100097656,295.3550109863281,278.99700927734375,261.6910095214844,246.0590057373047,226.51699829101562,186.26499938964844,166.24600219726562,148.92999267578125,136.35000610351562,123.44999694824219,105.28500366210938,101.31600189208984,101.29100036621094,102.66699981689453,102.66699981689453,100.26300048828125,91.25199890136719],"ymouse":[832,832,832,832,832,832,832,832,832,832,832,832,832,832,832,832,832,832,832,832,832,832,832,832,832,832,832,832,832,832,832,832,832,832,832,832,832,832,832,804.4310302734375,804.4310302734375,766.8410034179688,747.2730102539062,728.7890014648438,708.4010009765625,649.4769897460938,611.0609741210938,570.9509887695312,534.3300170898438,496.87701416015625,420.55999755859375,379.4909973144531,338.1419982910156,296.7539978027344,260.6549987792969,202.10400390625,174.96600341796875,150.36000061035156,128.98399353027344,128.98399353027344,100.64600372314453,77.7979965209961],"timestamp_mouse":[8,91,107,127,147,167,187,207,227,247,267,287,307,327,347,367,387,407,427,447,467,487,507,527,547,567,587,607,627,647,667,687,707,727,747,767,787,807,827,848,867,887,907,927,947,967,987,1007,1027,1047,1067,1087,1107,1127,1147,1167,1187,1207,1227,1247,1267,1287],"xSR":350,"ySR":768,"xT1":30,"yT1":0,"xT2":670,"yT2":0,"toosoon":0,"cond_shown":"Congruent","ratio_trial":300,"L_num":4,"L_den":5,"R_num":2,"R_den":4,"correct_side":1,"subjID":"412wm","gender":"No_gender","school":"No_school","age":"No_age"},{"start_time":1549381708064,"click_time":1549381710151,"finger_time":1549381708671,"fix_duration":551.0911342793493,"trial":7,"RT":607,"MT":1480,"sideResp":2,"stimulus":[],"xmouse":[413.3330078125,413.3330078125,413.3330078125,413.3330078125,413.3330078125,413.3330078125,413.3330078125,413.3330078125,413.3330078125,413.3330078125,413.3330078125,413.3330078125,413.3330078125,413.3330078125,413.3330078125,402.6669921875,402,402,402,402,402,402,402,404,404,405.2699890136719,407.0249938964844,409.5950012207031,414.7349853515625,430.7539978027344,441.5870056152344,454.1719970703125,470.2090148925781,488.3330078125,509.84100341796875,549.3820190429688,561.9929809570312,568.7420043945312,571.656005859375,572.573974609375,573.260986328125,573.260986328125,573.260986328125,578.5540161132812,587.89599609375,594.60400390625,600.2080078125,606.9520263671875,611.8250122070312,619.8519897460938,623.7990112304688,627.0289916992188,629.0750122070312,630.2839965820312,631.364013671875,630.885009765625,630.885009765625,630.885009765625,632.1069946289062,633.7050170898438,636.6630249023438,637.0969848632812,637,636.0830078125,636.0830078125,636.0830078125,636.0830078125,636.0830078125,636.0830078125,548.7030029296875,503.45098876953125,489.90301513671875,474.23199462890625,458.86700439453125,437.3420104980469,393.6510009765625,373.5469970703125,373.5469970703125,373.5469970703125,373.5469970703125,312.9230041503906,308.62799072265625,305.81201171875,303.00299072265625,300.85101318359375,300.0199890136719,300,300,300,300,300,336.9880065917969,362.6449890136719,388.5050048828125,414.6789855957031,467.1629943847656,493.6199951171875,520.5560302734375,548.405029296875,577.5969848632812,636.7160034179688,660.0809936523438,667.3499755859375,670.156005859375],"ymouse":[847.3330078125,847.3330078125,847.3330078125,847.3330078125,847.3330078125,847.3330078125,847.3330078125,847.3330078125,847.3330078125,847.3330078125,847.3330078125,847.3330078125,847.3330078125,847.3330078125,847.3330078125,839.0369873046875,838,838,838,838,838,838,838,814,805,800.9180297851562,795.1840209960938,788.0560302734375,777.4959716796875,738.4500122070312,705.905029296875,674.083984375,643.5059814453125,610.3330078125,574.2030029296875,507.07501220703125,483.34698486328125,466.19000244140625,452.72900390625,445.2200012207031,434.97198486328125,434.97198486328125,434.97198486328125,413.0039978027344,389.9259948730469,376.9119873046875,364.6099853515625,351.4289855957031,341.2279968261719,322.3340148925781,312.98199462890625,305.9419860839844,301.0539855957031,297.81500244140625,295.9389953613281,295.552001953125,295.552001953125,295.552001953125,284.13299560546875,279.40399169921875,272.00299072265625,270.4729919433594,270,270.6669921875,270.6669921875,270.6669921875,270.6669921875,270.6669921875,270.6669921875,346.8340148925781,383.6820068359375,392.5719909667969,405.0140075683594,419.79998779296875,443.260009765625,472.24700927734375,471.2820129394531,471.2820129394531,471.2820129394531,471.2820129394531,433.5889892578125,428.62799072265625,425.052001953125,424.1679992675781,423.0920104980469,423.9800109863281,424,424,424,424,424,399.5270080566406,378.4360046386719,355.8080139160156,331.1619873046875,269.3580017089844,232.76100158691406,197.50100708007812,168.92799377441406,144.45599365234375,103.3010025024414,89.572998046875,81.98500061035156,77.68900299072266],"timestamp_mouse":[17,26,81,86,106,126,146,166,186,206,226,246,266,286,306,326,346,366,386,406,426,446,466,486,507,526,546,566,586,607,626,646,666,686,709,730,746,766,786,806,827,847,866,886,910,926,946,966,986,1007,1027,1046,1066,1086,1107,1126,1146,1166,1186,1207,1228,1247,1267,1287,1307,1327,1347,1367,1387,1407,1427,1447,1467,1487,1507,1527,1547,1567,1587,1607,1627,1647,1667,1687,1707,1727,1747,1767,1787,1807,1827,1847,1867,1887,1907,1927,1947,1967,1987,2007,2027,2047,2067,2087],"xSR":350,"ySR":768,"xT1":30,"yT1":0,"xT2":670,"yT2":0,"toosoon":0,"cond_shown":"Congruent","ratio_trial":200,"L_num":1,"L_den":2,"R_num":21,"R_den":30,"correct_side":2,"subjID":"412wm","gender":"No_gender","school":"No_school","age":"No_age"},{"start_time":1549381712820,"click_time":1549381714872,"finger_time":1549381713611,"fix_duration":1027.6237182975858,"trial":8,"RT":791,"MT":1261,"sideResp":2,"stimulus":[],"xmouse":[398,398,398,398,398,398,398,398,398,398,398,398,398,398,398,398,398,398,398,398,398,398,398,398,398,398,398,398,398,398.41900634765625,398.6669921875,398.6669921875,398.6669921875,398.6669921875,398.6669921875,416.52398681640625,427.0320129394531,457.7690124511719,471.9649963378906,486.7019958496094,500.56298828125,514.8330078125,529.60498046875,536.1179809570312,540.8369750976562,544.2069702148438,546.7449951171875,551.051025390625,553.1920166015625,555.0120239257812,556.9010009765625,558.3759765625,560.0029907226562,560,560,560.6669921875,560.6669921875,560.6669921875,560.6669921875,560.6669921875,560.6669921875,560.6669921875,560.6669921875,537.4000244140625,527,519.9580078125,516.77001953125,511.0479736328125,507.2340087890625,497.1669921875,478.5,457.5929870605469,431.7829895019531,422.7650146484375,414.57598876953125,408.89801025390625,402.37799072265625,395.12799072265625,392.9639892578125,392.6669921875,392.3450012207031,392.6669921875,392.6669921875,392.6669921875,392.6669921875,392.6669921875,392.6669921875,440.5220031738281,457.6619873046875,478.2439880371094,506.1669921875,535.2109985351562,581.7780151367188,600.4320068359375,613.2579956054688,626.843017578125,638.3060302734375,667.489990234375,681.6129760742188,688.5430297851562,694.051025390625],"ymouse":[839,839,839,839,839,839,839,839,839,839,839,839,839,839,839,839,839,839,839,839,839,839,839,839,839,839,839,839,839,830.9140014648438,830.6669921875,830.6669921875,830.6669921875,830.6669921875,830.6669921875,792.8909912109375,774.8569946289062,727.791015625,705.8989868164062,681.47802734375,662.4990234375,645.1799926757812,633.531005859375,628.6799926757812,625.7050170898438,622.458984375,619.8829956054688,616.4749755859375,614.1420288085938,612.3209838867188,610.4320068359375,609.47900390625,607.9970092773438,608,608,608.5919799804688,608.5919799804688,608.5919799804688,608.5919799804688,608.5919799804688,608.5919799804688,608.5919799804688,608.5919799804688,664.2000122070312,686.1840209960938,698.2919921875,703.1610107421875,711.093994140625,716.6519775390625,732.843994140625,764.781005859375,807.5139770507812,836.5170288085938,839.0780029296875,841.5499877929688,843.0339965820312,845.2069702148438,849.5380249023438,851.7020263671875,852.6669921875,852.9879760742188,852.6669921875,852.6669921875,852.6669921875,852.6669921875,852.6669921875,852.6669921875,725.9569702148438,691.3419799804688,653.6939697265625,604.8989868164062,553.8070068359375,445.44500732421875,392.93701171875,341.1650085449219,297.90301513671875,256.70001220703125,177.75599670410156,143.48800659179688,117.16299438476562,95.12899780273438],"timestamp_mouse":[11,80,91,111,131,151,171,191,211,231,251,271,291,311,331,351,371,391,411,431,451,471,491,511,531,551,571,591,611,631,651,671,692,711,731,751,771,791,811,831,851,871,893,911,935,951,971,991,1011,1031,1051,1071,1094,1111,1131,1151,1171,1194,1212,1231,1251,1271,1291,1311,1331,1351,1371,1391,1413,1436,1451,1471,1491,1511,1531,1551,1572,1591,1611,1631,1651,1672,1693,1711,1731,1752,1771,1791,1811,1831,1851,1871,1894,1912,1931,1951,1972,1994,2011,2032,2052],"xSR":350,"ySR":768,"xT1":30,"yT1":0,"xT2":670,"yT2":0,"toosoon":0,"cond_shown":"Congruent","ratio_trial":100,"L_num":3,"L_den":20,"R_num":4,"R_den":16,"correct_side":2,"subjID":"412wm","gender":"No_gender","school":"No_school","age":"No_age"},{"start_time":1549381716865,"click_time":1549381719436,"finger_time":1549381718672,"fix_duration":250,"trial":9,"RT":1807,"MT":764,"sideResp":2,"stimulus":[],"xmouse":[416,416,416,416,416,416,416,416,416,416,416,416,416,416,416,416,416,416,416,416,416,416,416,416,416,416,416,416,416,416,416,416,416,416,416,416,416,416,416,416,416,416,416,416,416,416,416,416,416,416,416,416,416,416,416,416,416,416,416,416,416,416,416,416,416,416,416,416,416,416,416,416,416,416,416,416,416,416,416,416,416,416,416,416,416,416,416,416,452.14300537109375,441.2409973144531,438,438,438,438,438,438,438,438,438,438,438,387.36700439453125,387.36700439453125,387.36700439453125,387.36700439453125,415.80999755859375,435.4339904785156,448.5929870605469,460.65899658203125,478.16400146484375,497.2179870605469,536.4569702148438,554.2550048828125,571.9039916992188,586.739013671875,600.0040283203125,619.2479858398438,626.406005859375,633.5399780273438,641,650.02099609375,666.1799926757812,669.989013671875,673.2440185546875,676.4990234375,678.4920043945312,685.6859741210938],"ymouse":[834,834,834,834,834,834,834,834,834,834,834,834,834,834,834,834,834,834,834,834,834,834,834,834,834,834,834,834,834,834,834,834,834,834,834,834,834,834,834,834,834,834,834,834,834,834,834,834,834,834,834,834,834,834,834,834,834,834,834,834,834,834,834,834,834,834,834,834,834,834,834,834,834,834,834,834,834,834,834,834,834,834,834,834,834,834,834,834,668.094970703125,707.7750244140625,716,716,716,716,716,716,716,716,716,716,716,829.3560180664062,829.3560180664062,829.3560180664062,829.3560180664062,731.9229736328125,657.3599853515625,611.4290161132812,564.031982421875,523.4639892578125,479.968994140625,397.802001953125,359.12200927734375,321.1679992675781,285.2099914550781,254.2139892578125,215.0399932861328,202.03399658203125,188.17599487304688,175,164.4739990234375,140.81100463867188,134.6840057373047,127.51199340820312,121.00199890136719,114.61199951171875,97.2249984741211],"timestamp_mouse":[8,86,87,107,127,147,167,187,207,227,247,267,287,307,327,347,367,387,407,427,447,467,487,507,527,547,567,587,607,627,647,667,687,707,727,747,767,787,807,827,847,867,887,907,927,947,967,987,1007,1027,1047,1067,1087,1107,1127,1147,1167,1187,1207,1227,1247,1267,1287,1307,1327,1347,1367,1387,1407,1427,1447,1467,1487,1507,1527,1547,1567,1587,1607,1627,1647,1667,1687,1707,1727,1747,1767,1787,1807,1827,1847,1867,1887,1907,1927,1947,1967,1987,2007,2027,2047,2068,2087,2107,2127,2147,2168,2187,2207,2227,2247,2268,2287,2307,2327,2347,2371,2387,2407,2427,2447,2471,2487,2507,2527,2547,2571],"xSR":350,"ySR":768,"xT1":30,"yT1":0,"xT2":670,"yT2":0,"toosoon":0,"cond_shown":"Incongruent","ratio_trial":200,"L_num":7,"L_den":15,"R_num":6,"R_den":9,"correct_side":2,"subjID":"412wm","gender":"No_gender","school":"No_school","age":"No_age"},{"start_time":1549381721224,"click_time":1549381722493,"finger_time":1549381722073,"fix_duration":250,"trial":10,"RT":849,"MT":420,"sideResp":1,"stimulus":[],"xmouse":[400,400,400,400,400,400,400,400,400,400,400,400,400,400,400,400,400,400,400,400,400,400,400,400,408,408,408,408,408,408,408,408,408,408,408,408,412.6669921875,412.010009765625,412.010009765625,412.010009765625,412.010009765625,401.96099853515625,397.6210021972656,391.2959899902344,384.09100341796875,374.45599365234375,348.2149963378906,332.0199890136719,315.61199951171875,300.7309875488281,273.927001953125,259.3240051269531,246.07200622558594,230.51499938964844,216.41400146484375,190.2729949951172,178.28399658203125,167.07000732421875,154.57899475097656,142.81900024414062,121,113.43299865722656,106.37100219726562],"ymouse":[828,828,828,828,828,828,828,828,828,828,828,828,828,828,828,828,828,828,828,828,828,828,828,828,815,815,815,815,815,815,815,815,815,815,815,815,807.64599609375,806.0189819335938,806.0189819335938,806.0189819335938,806.0189819335938,758.02099609375,742.9359741210938,727.9130249023438,710.6010131835938,686.4739990234375,625.7789916992188,598.1649780273438,577.135009765625,556.6630249023438,501.6829833984375,463.4989929199219,430.17999267578125,395.7749938964844,363.8739929199219,304.1470031738281,270.4630126953125,239.26199340820312,206.36599731445312,178.4669952392578,127,106.46199798583984,87.927001953125],"timestamp_mouse":[8,57,68,89,109,129,148,168,189,209,229,249,269,289,309,329,349,369,389,409,429,449,469,489,509,529,549,569,589,609,629,649,669,689,709,729,749,769,789,809,829,849,869,889,909,929,949,969,989,1009,1030,1049,1069,1089,1109,1132,1149,1169,1189,1209,1232,1249,1269],"xSR":350,"ySR":768,"xT1":30,"yT1":0,"xT2":670,"yT2":0,"toosoon":0,"cond_shown":"Congruent","ratio_trial":100,"L_num":11,"L_den":22,"R_num":6,"R_den":15,"correct_side":1,"subjID":"412wm","gender":"No_gender","school":"No_school","age":"No_age"},{"start_time":1549381725441,"click_time":1549381726795,"finger_time":1549381726373,"fix_duration":1186.5768595001186,"trial":11,"RT":932,"MT":422,"sideResp":2,"stimulus":[],"xmouse":[424,424,424,424,424,415.90301513671875,415.3330078125,414.41900634765625,413.3179931640625,411.15301513671875,408.8330078125,406.3320007324219,403.0870056152344,399.77398681640625,397.48199462890625,394.6669921875,393.822998046875,394,394,394,394,394,394,394,393.3330078125,392.614013671875,392.6669921875,392.6669921875,392.0199890136719,391.60699462890625,390.7850036621094,390.6669921875,390,390.6669921875,390.6669921875,390.6669921875,390.6669921875,390.6669921875,390.6669921875,390.6669921875,390.6669921875,390.6669921875,390.6669921875,390.6669921875,411.260986328125,438.9909973144531,456.76800537109375,473.4280090332031,488.9590148925781,503.51800537109375,521.0659790039062,527.5260009765625,532.0360107421875,538.0440063476562,543.344970703125,563.6409912109375,575.4359741210938,589.3909912109375,604.864013671875,620.2050170898438,650.083984375,663.4840087890625,677.4199829101562,691.9910278320312,706.0469970703125,725.1060180664062],"ymouse":[830,830,830,830,830,827.2360229492188,826.822998046875,825.7529907226562,825.3179931640625,823.8189697265625,820.916015625,817.6649780273438,813.6710205078125,809.7739868164062,806.5570068359375,804.2429809570312,803.156982421875,803,803,803,803,803,803,803,803.3330078125,802.614013671875,802.6669921875,801.7630004882812,800.02001953125,798.9400024414062,795.5689697265625,794.3619995117188,794,792.8679809570312,791.7849731445312,791.7849731445312,791.7849731445312,791.7849731445312,791.7849731445312,791.7849731445312,791.7849731445312,791.7849731445312,791.7849731445312,791.7849731445312,737.6539916992188,679.3740234375,648.6510009765625,620.7310180664062,594.4509887695312,569.343994140625,531.6680297851562,513.676025390625,499.87298583984375,483.5559997558594,469.4679870605469,427.385009765625,402.3219909667969,371.7770080566406,336.59698486328125,301.010986328125,230.36099243164062,196.38699340820312,162.92100524902344,131.69000244140625,103.34500122070312,64.36900329589844],"timestamp_mouse":[60,72,92,112,132,152,172,192,212,234,252,272,292,312,332,352,372,392,412,432,452,472,492,512,532,552,572,592,612,632,652,672,692,712,732,753,772,792,812,832,855,872,892,912,932,952,972,992,1012,1032,1054,1072,1092,1112,1132,1154,1172,1192,1212,1232,1254,1272,1292,1312,1332,1354],"xSR":350,"ySR":768,"xT1":30,"yT1":0,"xT2":670,"yT2":0,"toosoon":0,"cond_shown":"Incongruent","ratio_trial":500,"L_num":7,"L_den":21,"R_num":5,"R_den":6,"correct_side":2,"subjID":"412wm","gender":"No_gender","school":"No_school","age":"No_age"},{"start_time":1549381729799,"click_time":1549381731334,"finger_time":1549381731014,"fix_duration":302.3791111479156,"trial":12,"RT":1215,"MT":320,"sideResp":2,"stimulus":[],"xmouse":[414,414,414,414,414,414,414,414,414,414,414,414,414,414,414,414,414,414,414,414,414,414,414,414,414,414,414,414,414,415,415,415,415,415,415,421.3349914550781,422.4209899902344,422.4209899902344,426.3330078125,428.8169860839844,430.3089904785156,432.49200439453125,436.125,437.4599914550781,439.2229919433594,440.30999755859375,441.3970031738281,442.6669921875,443.27899169921875,443.3330078125,443.3330078125,442.6669921875,442.6669921875,442.6669921875,442.6669921875,443.3330078125,445.0790100097656,458.5450134277344,471.3210144042969,485.6199951171875,498.2879943847656,512.458984375,541.1710205078125,555.22802734375,570.2269897460938,583.9970092773438,600.4530029296875,628.8629760742188,636.0189819335938,646.5980224609375,656.739013671875,673.5659790039062,709.1190185546875,723.8469848632812],"ymouse":[830,830,830,830,830,830,830,830,830,830,830,830,830,830,830,830,830,830,830,830,830,830,830,830,830,830,830,830,830,852,852,852,852,852,852,846.6649780273438,845.156982421875,845.156982421875,837.6690063476562,835.1079711914062,830.2269897460938,823.8560180664062,814.4169921875,810.9530029296875,807.6649780273438,804.4019775390625,802.5399780273438,798.8920288085938,798.6669921875,797.6279907226562,797.3330078125,797.3330078125,796.6669921875,796.6669921875,795.802978515625,793.447998046875,787.7899780273438,753.6380004882812,723.5850219726562,690.6729736328125,656.8309936523438,619.3800048828125,532.4609985351562,489.64801025390625,451.2980041503906,414.87799072265625,377.8059997558594,305.7590026855469,277.7380065917969,247.5260009765625,215.70799255371094,181.1699981689453,115.04499816894531,88.83499908447266],"timestamp_mouse":[88,95,115,135,155,175,195,215,235,255,275,295,315,335,355,375,395,415,435,455,475,495,515,535,555,575,595,615,635,655,675,695,715,735,755,775,795,815,835,855,875,895,915,935,955,975,995,1015,1035,1055,1075,1095,1115,1135,1155,1175,1195,1215,1235,1255,1275,1295,1317,1335,1355,1375,1395,1418,1435,1455,1475,1495,1517,1535],"xSR":350,"ySR":768,"xT1":30,"yT1":0,"xT2":670,"yT2":0,"toosoon":0,"cond_shown":"Incongruent","ratio_trial":200,"L_num":14,"L_den":30,"R_num":6,"R_den":9,"correct_side":2,"subjID":"412wm","gender":"No_gender","school":"No_school","age":"No_age"},{"start_time":1549381734937,"click_time":1549381736255,"finger_time":1549381735595,"fix_duration":1077.1676342517928,"trial":13,"RT":658,"MT":660,"sideResp":2,"stimulus":[],"xmouse":[419.7279968261719,419.7279968261719,418.6669921875,419.3330078125,419.3330078125,419.3330078125,419.3330078125,419.3330078125,419.3330078125,419.3330078125,419.3330078125,419.3330078125,419.3330078125,420,420,420,420,420,420,420,420,420,420.6669921875,421.3330078125,421.3330078125,421.3330078125,421.3330078125,422.510009765625,426.02398681640625,428.8290100097656,432.65899658203125,438.8169860839844,446.3210144042969,471.8070068359375,484.5710144042969,495.8559875488281,505.2239990234375,514.7589721679688,523.8380126953125,545.1060180664062,557.1719970703125,565.6199951171875,569.8939819335938,573.833984375,579.0999755859375,581.239990234375,582.0449829101562,582.6669921875,583.5440063476562,584,586.281982421875,590.7449951171875,596.9849853515625,608.1090087890625,634.1160278320312,643.3980102539062,652.1199951171875,658.4730224609375,662.2009887695312,668.6900024414062,673.4329833984375,679.7459716796875,687.5230102539062,693.6649780273438,705.1409912109375],"ymouse":[823.4559936523438,823.4559936523438,813.9349975585938,814.2529907226562,814.2529907226562,814.2529907226562,814.2529907226562,814.2529907226562,814.2529907226562,814.2529907226562,814.2529907226562,814.2529907226562,814.2529907226562,814,814,814,814,814,814,814,814,811,809.969970703125,808.4829711914062,807.4030151367188,805.9639892578125,804.5689697265625,801.1370239257812,789.25,780.6829833984375,769.52001953125,755.7849731445312,741.6900024414062,686.5540161132812,659.0960083007812,636.2730102539062,617.6920166015625,600.7990112304688,587.1400146484375,558.6740112304688,543.4169921875,530.7880249023438,523.52001953125,516.219970703125,501.36700439453125,496.85400390625,493.8659973144531,491.0740051269531,488.0350036621094,482,476.76800537109375,465.47198486328125,452.6969909667969,427.7380065917969,368.1400146484375,338.5409851074219,307.2309875488281,278.2090148925781,251.06298828125,206.51199340820312,186.51400756835938,166.9429931640625,144.6840057373047,125.67098999023438,93.73799896240234],"timestamp_mouse":[2,60,78,98,118,138,158,178,198,218,238,258,278,298,318,338,358,378,398,418,438,458,478,499,518,538,558,578,599,618,638,658,679,701,718,738,768,778,798,822,838,858,878,898,918,938,958,978,998,1018,1038,1058,1078,1098,1118,1138,1158,1178,1198,1218,1238,1258,1278,1298,1318],"xSR":350,"ySR":768,"xT1":30,"yT1":0,"xT2":670,"yT2":0,"toosoon":0,"cond_shown":"Incongruent","ratio_trial":300,"L_num":2,"L_den":4,"R_num":6,"R_den":30,"correct_side":1,"subjID":"412wm","gender":"No_gender","school":"No_school","age":"No_age"},{"start_time":1549381738779,"click_time":1549381740096,"finger_time":1549381739595,"fix_duration":281.55119126424154,"trial":14,"RT":816,"MT":501,"sideResp":1,"stimulus":[],"xmouse":[412,412,412,412,412,412,412,412,412,412,412,412,412,412,412,412,412,412,418.6669921875,417.9330139160156,418,417.3330078125,417.3330078125,417.3330078125,417.3330078125,417.3330078125,418.6669921875,419.5450134277344,419.9440002441406,420,420,419.0610046386719,419.3330078125,418.2149963378906,417.12298583984375,414.8280029296875,404.53399658203125,397.54901123046875,390.9649963378906,383.86199951171875,375.6199951171875,352.9620056152344,337.8190002441406,324.2239990234375,313.447998046875,304.6400146484375,284.3039855957031,275.4429931640625,265.552001953125,256.781005859375,246.8040008544922,222.16900634765625,208.41799926757812,197.65899658203125,189.76699829101562,182.2740020751953,167.09300231933594,155.87600708007812,143.1529998779297,114.98600006103516,114.98600006103516,92.98799896240234,85.06300354003906],"ymouse":[814,814,814,814,814,814,814,814,814,814,814,814,814,814,814,814,814,814,824.3579711914062,823.2670288085938,822,820.697021484375,819.2059936523438,817.85498046875,814.968994140625,812.7109985351562,802.2990112304688,796.9400024414062,793.5020141601562,790,789,786.39501953125,785.2960205078125,784.8820190429688,783.7890014648438,782.1079711914062,770.5339965820312,760.1370239257812,751.0650024414062,739.0570068359375,726.5460205078125,695.0900268554688,672.72900390625,650.0579833984375,627.218017578125,604.6799926757812,556.1439819335938,529.510009765625,501.2249755859375,475.010986328125,450.0979919433594,402.7919921875,377.43798828125,351.2659912109375,322.52899169921875,291.7640075683594,234.61300659179688,211.95599365234375,192.06300354003906,155.31100463867188,155.31100463867188,115.49400329589844,94.08399963378906],"timestamp_mouse":[80,96,116,136,156,176,196,216,236,256,276,296,316,336,356,376,396,416,436,456,476,496,516,536,556,576,596,616,636,656,676,696,716,736,756,776,796,816,836,856,876,896,916,936,956,976,996,1016,1036,1056,1076,1098,1116,1136,1156,1176,1199,1216,1240,1269,1276,1297,1316],"xSR":350,"ySR":768,"xT1":30,"yT1":0,"xT2":670,"yT2":0,"toosoon":0,"cond_shown":"Incongruent","ratio_trial":200,"L_num":7,"L_den":10,"R_num":14,"R_den":28,"correct_side":1,"subjID":"412wm","gender":"No_gender","school":"No_school","age":"No_age"},{"start_time":1549381741637,"click_time":1549381743017,"finger_time":1549381742596,"fix_duration":480.7263575204975,"trial":15,"RT":959,"MT":421,"sideResp":2,"stimulus":[],"xmouse":[421.3330078125,421.3330078125,421.3330078125,421.3330078125,421.3330078125,421.3330078125,421.3330078125,421.3330078125,421.3330078125,421.3330078125,421.3330078125,421.3330078125,421.3330078125,421.3330078125,421.3330078125,421.3330078125,421.3330078125,421.3330078125,421.3330078125,421.3330078125,421.3330078125,421.3330078125,421.3330078125,421.3330078125,421.3330078125,421.3330078125,421.3330078125,421.3330078125,421.3330078125,421.3330078125,421.3330078125,421.3330078125,421.3330078125,421.3330078125,421.3330078125,421.3330078125,421.3330078125,421.3330078125,422,422,422,422,422,422,422,451.6470031738281,457.7900085449219,463.3219909667969,468.7359924316406,476.3489990234375,497.27301025390625,509.7489929199219,522.3270263671875,535.7689819335938,548.083984375,572.5170288085938,581.8870239257812,591.7760009765625,600.5009765625,608.3660278320312,629.3839721679688,640.9619750976562,653.6300048828125,663.9940185546875,676.3400268554688,693.6710205078125,703.0960083007812],"ymouse":[819.3330078125,819.3330078125,819.3330078125,819.3330078125,819.3330078125,819.3330078125,819.3330078125,818.6669921875,818.6669921875,818.6669921875,818.6669921875,818.6669921875,818.6669921875,818.6669921875,818.6669921875,818.6669921875,818.6669921875,818.6669921875,819.0830078125,819.0830078125,819.0830078125,819.0830078125,819.0830078125,819.0830078125,819.0830078125,819.0830078125,819.0830078125,819.0830078125,819.3330078125,819.3330078125,819.3330078125,819.3330078125,819.3330078125,819.3330078125,819.3330078125,819.3330078125,819.3330078125,819.3330078125,818,818,818,818,818,818,818,713.7529907226562,678.822998046875,645.135986328125,618.3319702148438,587.739990234375,518.9920043945312,488.45098876953125,458.40899658203125,429.3169860839844,401.4989929199219,344.3999938964844,319.1570129394531,296.7460021972656,275.0820007324219,250.3280029296875,206.77699279785156,187.3070068359375,168.0260009765625,151.12100219726562,135.88099670410156,108.70700073242188,95.68900299072266],"timestamp_mouse":[75,78,99,118,139,159,179,199,219,239,259,279,299,319,339,359,379,399,419,439,459,479,499,519,539,559,579,599,619,639,659,679,699,719,739,759,779,799,819,839,859,879,899,919,939,959,979,999,1019,1039,1060,1079,1099,1119,1139,1160,1179,1199,1219,1239,1261,1279,1299,1319,1339,1361,1379],"xSR":350,"ySR":768,"xT1":30,"yT1":0,"xT2":670,"yT2":0,"toosoon":0,"cond_shown":"Incongruent","ratio_trial":500,"L_num":7,"L_den":21,"R_num":5,"R_den":6,"correct_side":2,"subjID":"412wm","gender":"No_gender","school":"No_school","age":"No_age"},{"start_time":1549381744848,"click_time":1549381746177,"finger_time":1549381745816,"fix_duration":847.2618063655722,"trial":16,"RT":968,"MT":361,"sideResp":1,"stimulus":[],"xmouse":[426,425.760009765625,425.760009765625,425.760009765625,426,426,426,426,426,426,426,426,426,426,426,426,426,426,426,426,426,426,426,426,425,425,425,425,425,425,425,425,425,425,425,422.6669921875,422.6669921875,422.6669921875,422.6669921875,422.6669921875,422.6669921875,422.6669921875,422.6669921875,422.6669921875,422.6669921875,370.4289855957031,348.906005859375,326.3219909667969,303.8420104980469,285.1990051269531,260.781005859375,254.04998779296875,244.16299438476562,232.3070068359375,215.18499755859375,171.0240020751953,150.53199768066406,134.69700622558594,121.7969970703125,111.41000366210938,92.4010009765625,86.01399993896484,79.68199920654297,76.62200164794922],"ymouse":[842,842.906982421875,842.906982421875,842.906982421875,843,843,843,844,844,844,844,844,844,844,844,844,844,844,844,844,845,845,845,846,846,846,846,846,846,846,846,846,846,846,846,842.8660278320312,842.8660278320312,842.8660278320312,842.8660278320312,842.8660278320312,842.8660278320312,842.8660278320312,842.8660278320312,842.8660278320312,842.8660278320312,746.5900268554688,715.4019775390625,684.1589965820312,647.7239990234375,603.2960205078125,501.40899658203125,459.6510009765625,420.5899963378906,384.4339904785156,351.6510009765625,288.47698974609375,258.01300048828125,231.23800659179688,204.68899536132812,180.83599853515625,139.60299682617188,124.29901123046875,109.4800033569336,96.48699951171875],"timestamp_mouse":[14,91,108,128,148,168,188,208,228,250,269,288,308,328,350,368,388,408,428,448,468,488,508,528,551,568,588,608,628,649,670,688,708,728,749,769,789,808,828,848,869,889,908,928,949,968,988,1008,1028,1048,1069,1088,1108,1128,1149,1170,1188,1208,1229,1249,1270,1289,1308,1329],"xSR":350,"ySR":768,"xT1":30,"yT1":0,"xT2":670,"yT2":0,"toosoon":0,"cond_shown":"Incongruent","ratio_trial":100,"L_num":12,"L_den":30,"R_num":2,"R_den":4,"correct_side":2,"subjID":"412wm","gender":"No_gender","school":"No_school","age":"No_age"},{"start_time":1549381747568,"click_time":1549381749057,"finger_time":1549381749057,"fix_duration":250,"trial":17,"RT":1489,"MT":0,"sideResp":2,"stimulus":[],"xmouse":[420,420,420,420,420,420,420,420,420,420,420,420,420,420,420,420,420,420,420,420,420,420,420,420,420,420,420,420,420,420,420,420,420,420,420,420,420,420,420,420,420,420,420,420,420,420,420,420,420,420,420,420,420,420,420,420,420,420,420,420,420,420,420,420,420,420,420,420,420,420,420,420,420,703.3330078125],"ymouse":[817,817,817,817,817,817,817,817,817,817,817,817,817,817,817,817,817,817,817,817,817,817,817,817,817,817,817,817,817,817,817,817,817,817,817,817,817,817,817,817,817,817,817,817,817,817,817,817,817,817,817,817,817,817,817,817,817,817,817,817,817,817,817,817,817,817,817,817,817,817,817,817,817,94.66699981689453],"timestamp_mouse":[9,64,69,89,109,129,149,169,189,209,229,249,269,289,309,329,349,369,389,409,429,449,469,489,509,529,549,569,589,609,629,649,669,689,709,729,749,769,789,809,829,849,869,889,909,929,949,969,989,1009,1029,1049,1069,1089,1109,1129,1149,1169,1189,1209,1229,1249,1269,1289,1309,1329,1349,1369,1389,1409,1429,1449,1469,1489],"xSR":350,"ySR":768,"xT1":30,"yT1":0,"xT2":670,"yT2":0,"toosoon":0,"cond_shown":"Congruent","ratio_trial":500,"L_num":3,"L_den":30,"R_num":6,"R_den":10,"correct_side":2,"subjID":"412wm","gender":"No_gender","school":"No_school","age":"No_age"},{"start_time":1549381751960,"click_time":1549381753359,"finger_time":1549381752978,"fix_duration":1220.2879354200215,"trial":18,"RT":1018,"MT":381,"sideResp":1,"stimulus":[],"xmouse":[421,421,421,421,421,421,421,421,421,421,421,421,421,421,421,421,421,421,421,421,421,421,421,421,421,421,421,421,421,421,421,421,421,421,421,421,421,421,421,421,421,421,421,412.47198486328125,406.9490051269531,406.9490051269531,389.7919921875,389.7919921875,367.3039855957031,349.3500061035156,311.46099853515625,311.46099853515625,279.1289978027344,263.7860107421875,248.25299072265625,212.51400756835938,194.26699829101562,178.60299682617188,165.15899658203125,151.51199340820312,127.76998901367188,115.95999908447266,105.9020004272461,95.0510025024414,88.0790023803711,74.05500030517578],"ymouse":[819,819,819,819,819,819,819,819,819,819,819,819,819,819,819,819,819,819,819,819,819,819,819,819,819,819,819,819,819,819,819,819,819,819,819,819,819,819,819,819,819,819,819,835.7080078125,827.2319946289062,827.2319946289062,749.322021484375,749.322021484375,693.8480224609375,663.9099731445312,593.8469848632812,593.8469848632812,528.3209838867188,500.6080322265625,471.4219970703125,410.4460144042969,375.1759948730469,338.8399963378906,301.8380126953125,269.5610046386719,214.7100067138672,190.09800720214844,164.406005859375,138.9219970703125,116.30999755859375,78.54399871826172],"timestamp_mouse":[102,117,137,157,178,197,217,237,257,277,297,317,338,357,377,397,417,437,457,477,497,518,538,558,578,598,618,638,658,678,698,718,738,758,778,798,818,838,857,877,898,918,938,957,978,997,1017,1038,1058,1078,1098,1117,1138,1158,1178,1198,1218,1238,1258,1278,1298,1318,1338,1358,1378,1399],"xSR":350,"ySR":768,"xT1":30,"yT1":0,"xT2":670,"yT2":0,"toosoon":0,"cond_shown":"Congruent","ratio_trial":300,"L_num":24,"L_den":30,"R_num":8,"R_den":16,"correct_side":1,"subjID":"412wm","gender":"No_gender","school":"No_school","age":"No_age"},{"start_time":1549381756373,"click_time":1549381758158,"finger_time":1549381757818,"fix_duration":433.79623424225025,"trial":19,"RT":1445,"MT":340,"sideResp":1,"stimulus":[],"xmouse":[399,399,399,399,399,399,399,399,399,399,399,399,399,399,399,399,399,399,399,399,399,399,399,399,399,399,399,399,399,399,399,399,399,399,399,399,399,399,399,399,399,399,399,399,399,399,399,399,399,399,399,399,399,399,399,399,399,399,399,399,399,399,399,399,399,399,399,399,367.5360107421875,367.5360107421875,340.63299560546875,333.9100036621094,323.177001953125,297.64599609375,284.6669921875,271.6319885253906,256.92498779296875,241.21600341796875,211.11399841308594,196.25599670410156,182.88499450683594,172.05599975585938,160.656005859375,144.29200744628906,135.64300537109375,126.19500732421875,114.51599884033203,103.28600311279297],"ymouse":[816,816,816,816,816,816,816,816,816,816,816,816,816,816,816,816,816,816,816,816,816,816,816,816,816,816,816,816,816,816,816,816,816,816,816,816,816,816,816,816,816,816,816,816,816,816,816,816,816,816,816,816,816,816,816,816,816,816,816,816,816,816,816,816,816,816,816,816,788.448974609375,788.448974609375,760.3629760742188,745.8309936523438,721.9340209960938,646.3460083007812,602.3330078125,559.5609741210938,519.5869750976562,485.5350036621094,423.97198486328125,394.093994140625,359.17999267578125,323.1239929199219,285.2969970703125,211.46099853515625,176.447998046875,145.36900329589844,116.32400512695312,91.23899841308594],"timestamp_mouse":[9,75,85,105,125,145,165,185,205,225,245,265,285,305,325,345,365,385,405,425,445,465,485,505,525,545,565,585,605,625,645,665,685,705,725,745,765,785,805,825,845,865,885,906,925,945,965,985,1005,1025,1045,1065,1085,1105,1125,1145,1165,1185,1205,1225,1245,1265,1285,1305,1325,1345,1365,1385,1406,1425,1445,1465,1485,1506,1526,1545,1565,1585,1606,1625,1645,1665,1685,1711,1725,1745,1765,1785],"xSR":350,"ySR":768,"xT1":30,"yT1":0,"xT2":670,"yT2":0,"toosoon":0,"cond_shown":"Congruent","ratio_trial":200,"L_num":11,"L_den":22,"R_num":3,"R_den":10,"correct_side":1,"subjID":"412wm","gender":"No_gender","school":"No_school","age":"No_age"},{"start_time":1549381761252,"click_time":1549381762721,"finger_time":1549381762279,"fix_duration":250,"trial":20,"RT":1027,"MT":442,"sideResp":2,"stimulus":[],"xmouse":[423,423,423,423,423,423,423,423,423,423,423,423,423,423,423,423,423,423,423,423,423,423,423,423,423,423,423,423,423,423,423,423,423,423,423,423,423,423,423,423,423,423,423,423,410.8919982910156,425.59698486328125,429.70599365234375,433.9930114746094,438.34698486328125,441.49798583984375,446.625,448.4079895019531,448.6669921875,451.6579895019531,455.9490051269531,476.3559875488281,491.0159912109375,507.489990234375,524.0670166015625,542.2219848632812,575.2340087890625,590.6439819335938,603.1799926757812,615.469970703125,628.719970703125,652.5230102539062,663.343017578125,671.156982421875,678.0599975585938,683.375,694.2260131835938],"ymouse":[857,857,857,857,857,857,857,857,857,857,857,857,857,857,857,857,857,857,857,857,857,857,857,857,857,857,857,857,857,857,857,857,857,857,857,857,857,857,857,857,857,857,857,857,821.0239868164062,793.2869873046875,784.5880126953125,776.0130004882812,765.9730224609375,757.8389892578125,746.7509765625,743.4429931640625,740.2169799804688,732.4739990234375,714.5490112304688,649.5989990234375,607.3820190429688,557.4340209960938,507.2239990234375,459.7130126953125,377.82000732421875,341.97100830078125,310.7250061035156,280.7539978027344,251.45098876953125,193.7480010986328,168.0489959716797,143.3419952392578,123.77400207519531,105.31500244140625,71.7239990234375],"timestamp_mouse":[8,88,107,127,147,167,187,207,227,247,267,287,307,327,347,367,387,407,427,447,467,487,507,527,547,567,587,607,627,647,667,687,707,727,747,767,787,807,827,847,867,887,907,927,947,967,987,1007,1027,1047,1068,1087,1107,1127,1147,1167,1187,1207,1227,1247,1268,1287,1307,1327,1347,1368,1387,1407,1427,1447,1469],"xSR":350,"ySR":768,"xT1":30,"yT1":0,"xT2":670,"yT2":0,"toosoon":0,"cond_shown":"Incongruent","ratio_trial":100,"L_num":6,"L_den":10,"R_num":11,"R_den":22,"correct_side":1,"subjID":"412wm","gender":"No_gender","school":"No_school","age":"No_age"},{"start_time":1549381764372,"click_time":1549381765641,"finger_time":1549381765299,"fix_duration":250,"trial":21,"RT":927,"MT":342,"sideResp":1,"stimulus":[],"xmouse":[416,416,416,416,416,416,416,416,416,416,416,416,416,416,416,416,416,416,416,416,416,416,416,416,416,416,416,416,416,416,416,416,416,416,416,416,416,416,397.85198974609375,392.3059997558594,383.29400634765625,379.50201416015625,378.7640075683594,378,376.5260009765625,365.40399169921875,352.87799072265625,337.0199890136719,317.2669982910156,296.8500061035156,263.4169921875,252.37701416015625,241.3260040283203,228.88999938964844,213.98899841308594,184.5590057373047,170.77200317382812,157.3350067138672,143.7100067138672,131.57400512695312,105.21700286865234],"ymouse":[810,810,810,810,810,810,810,810,810,810,810,810,810,810,810,810,810,810,810,810,810,810,810,810,810,810,810,810,810,810,810,810,810,810,810,810,810,810,826.3569946289062,818.0889892578125,799.6630249023438,789.0059814453125,771.7529907226562,744,715.4390258789062,657.4869995117188,628.458984375,600.406982421875,573.0709838867188,544.114013671875,467.739990234375,425.7409973144531,382.8370056152344,342.0790100097656,303.52899169921875,227.9709930419922,188.31500244140625,155.33799743652344,129.3260040283203,107.46800231933594,76.58899688720703],"timestamp_mouse":[86,87,107,127,148,168,187,207,227,247,267,287,307,327,347,367,387,407,427,447,467,487,507,527,548,568,587,608,627,647,667,687,708,728,748,767,787,807,827,847,867,887,907,927,947,969,988,1007,1028,1048,1069,1088,1107,1128,1148,1169,1188,1208,1228,1248,1269],"xSR":350,"ySR":768,"xT1":30,"yT1":0,"xT2":670,"yT2":0,"toosoon":0,"cond_shown":"Congruent","ratio_trial":300,"L_num":18,"L_den":20,"R_num":9,"R_den":15,"correct_side":1,"subjID":"412wm","gender":"No_gender","school":"No_school","age":"No_age"},{"start_time":1549381768012,"click_time":1549381769660,"finger_time":1549381769300,"fix_duration":250,"trial":22,"RT":1288,"MT":360,"sideResp":1,"stimulus":[],"xmouse":[410,410,410,410,410,410,410,410,410,410,410,410,410,410,410,410,410,410,410,410,410,410,410,410,410,410,410,410,410,410,410,410,410,410,410,410,410,410,410,410,410,410,410,410,410,410,410,410,410,410,410,410,410,410,410,410,410,410,410,410,410,398.3919982910156,378.72100830078125,360.22900390625,342.2929992675781,315.7690124511719,300.95098876953125,283.9620056152344,266.760009765625,249.41000366210938,210.69500732421875,210.69500732421875,170.5709991455078,152.38600158691406,140.36399841308594,123.38299560546875,118.03700256347656,112.6050033569336,109.18800354003906,104.8759994506836,93.6510009765625],"ymouse":[802,802,802,802,802,802,802,802,802,802,802,802,802,802,802,802,802,802,802,802,802,802,802,802,802,802,802,802,802,802,802,802,802,802,802,802,802,802,802,802,802,802,802,802,802,802,802,802,802,802,802,802,802,802,802,802,802,802,802,802,802,776.1680297851562,733.2260131835938,691.6069946289062,648.6729736328125,562.4509887695312,514.1740112304688,461.3819885253906,410.60699462890625,371.0429992675781,310.92999267578125,310.92999267578125,254.31900024414062,223.91299438476562,194.1649932861328,144.1490020751953,126.89498901367188,114.39700317382812,107.58000183105469,100.03299713134766,85.05599975585938],"timestamp_mouse":[62,68,88,108,128,148,168,188,208,228,248,268,288,308,328,348,368,388,408,428,448,468,488,508,528,548,568,588,608,628,648,668,688,708,728,748,768,788,808,828,848,868,888,908,928,948,968,988,1008,1028,1048,1068,1088,1108,1128,1148,1168,1188,1208,1228,1248,1268,1288,1308,1328,1348,1368,1388,1408,1428,1452,1468,1488,1508,1528,1549,1568,1588,1608,1628,1648],"xSR":350,"ySR":768,"xT1":30,"yT1":0,"xT2":670,"yT2":0,"toosoon":0,"cond_shown":"Congruent","ratio_trial":200,"L_num":8,"L_den":15,"R_num":3,"R_den":9,"correct_side":1,"subjID":"412wm","gender":"No_gender","school":"No_school","age":"No_age"},{"start_time":1549381771286,"click_time":1549381772881,"finger_time":1549381772581,"fix_duration":564.598531566023,"trial":23,"RT":1295,"MT":300,"sideResp":2,"stimulus":[],"xmouse":[422.3330078125,422.3330078125,422.3330078125,422.3330078125,422.3330078125,422.3330078125,422.3330078125,422.3330078125,422.3330078125,422.3330078125,422.3330078125,422.3330078125,422.3330078125,422.3330078125,422.3330078125,422.3330078125,422.3330078125,422.3330078125,422.3330078125,422.3330078125,422.3330078125,422.3330078125,422.3330078125,422.3330078125,422.3330078125,400,400,400,400,400,400,400,400,400,400,400,400,400,400,400,400,400,400,400,400,400,400,400,400,400,400,400,400,400,400,400,400,400,400,400,405.3190002441406,414.14801025390625,436.4259948730469,450.56500244140625,467.11700439453125,485.2340087890625,501.99700927734375,536.1199951171875,552.8330078125,569.4580078125,586.3480224609375,607.2369995117188,649.8920288085938,666.6199951171875,666.6199951171875,681.2030029296875,685.5670166015625,693.5239868164062],"ymouse":[834.3330078125,834.3330078125,834.3330078125,834.3330078125,834.3330078125,834.3330078125,834.3330078125,834.3330078125,834.3330078125,834.3330078125,834.3330078125,834.3330078125,834.3330078125,834.3330078125,834.3330078125,834.3330078125,834.3330078125,834.3330078125,834.3330078125,834.3330078125,834.3330078125,834.3330078125,834.3330078125,834.3330078125,834.3330078125,833,833,833,833,833,833,833,833,833,833,833,833,833,833,833,833,833,833,833,833,833,833,833,833,833,833,833,833,833,833,833,833,833,833,833,825.0460205078125,800.4660034179688,716.0549926757812,670.3200073242188,622.385009765625,568.2969970703125,511.010986328125,400.49200439453125,357.9320068359375,321.95599365234375,280.7449951171875,238.58799743652344,165.10699462890625,137.63299560546875,137.63299560546875,113.59300231933594,106.6500015258789,95.80899810791016],"timestamp_mouse":[60,74,94,114,134,154,174,195,214,234,255,274,294,314,334,354,374,394,414,434,454,474,494,514,534,555,574,594,614,635,655,674,694,714,735,754,774,794,814,835,855,875,894,915,935,955,975,995,1015,1035,1055,1075,1095,1115,1135,1155,1175,1195,1215,1235,1255,1275,1295,1315,1335,1355,1375,1395,1415,1435,1455,1475,1497,1515,1535,1555,1575,1595],"xSR":350,"ySR":768,"xT1":30,"yT1":0,"xT2":670,"yT2":0,"toosoon":0,"cond_shown":"Congruent","ratio_trial":100,"L_num":6,"L_den":20,"R_num":5,"R_den":25,"correct_side":1,"subjID":"412wm","gender":"No_gender","school":"No_school","age":"No_age"},{"start_time":1549381775924,"click_time":1549381777305,"finger_time":1549381776941,"fix_duration":1180.8258098852625,"trial":24,"RT":1017,"MT":364,"sideResp":1,"stimulus":[],"xmouse":[391,391,391,391,391,391,391,391,391,391,391,391,391,391,391,391,391,391,391,391,391,391,391,391,391,391,391,391,391,391,391,391,391,391,391,391,391,391,391,391,391,391,391,391,391,389.4530029296875,389.4530029296875,366.3890075683594,346.79998779296875,325.3089904785156,285.3420104980469,264.7239990234375,245.74200439453125,229.2239990234375,213.35899353027344,199.8179931640625,195.48899841308594,191.17999267578125,185.9550018310547,176.61500549316406,156.90499877929688,145.41099548339844,132.96299743652344,121.29901123046875,111.1259994506836,92.38700103759766],"ymouse":[861,861,861,861,861,861,861,861,861,861,861,861,861,861,861,861,861,861,861,861,861,861,861,861,861,861,861,861,861,861,861,861,861,861,861,861,861,861,861,861,861,861,861,861,861,799.1179809570312,799.1179809570312,737.9719848632812,707.541015625,675.56298828125,608.2369995117188,573.3250122070312,538.2059936523438,505.509033203125,467.17498779296875,391.60101318359375,352.86199951171875,312.8760070800781,276.9010009765625,243.82098388671875,182.9290008544922,158.3040008544922,137.93899536132812,121.77499389648438,108.38999938964844,84.48400115966797],"timestamp_mouse":[17,105,117,137,157,177,197,217,237,257,277,297,317,337,357,377,397,417,437,457,477,497,517,537,557,577,597,617,637,657,677,697,717,737,757,777,797,817,837,857,877,897,917,937,957,979,997,1017,1037,1057,1078,1097,1117,1137,1157,1178,1197,1217,1237,1257,1282,1297,1317,1337,1357,1380],"xSR":350,"ySR":768,"xT1":30,"yT1":0,"xT2":670,"yT2":0,"toosoon":0,"cond_shown":"Congruent","ratio_trial":300,"L_num":20,"L_den":25,"R_num":5,"R_den":10,"correct_side":1,"subjID":"412wm","gender":"No_gender","school":"No_school","age":"No_age"},{"start_time":1549381780069,"click_time":1549381781922,"finger_time":1549381781542,"fix_duration":866.8703326549598,"trial":25,"RT":1473,"MT":380,"sideResp":2,"stimulus":[],"xmouse":[401.3330078125,401.3330078125,401.3330078125,401.3330078125,401.3330078125,402,402,402,402,402,402,402,402,402,402,402,402,402,402,402,402,402,402,402,402,400,400,400,400,400,400,400,400,400,400,400,400,400,400,400,400,400,400.6669921875,400.6669921875,400.6669921875,400.6669921875,400.6669921875,400.6669921875,400.6669921875,409,410,410,410,410,410,410,410,412.6669921875,412.6669921875,412.6669921875,412.6669921875,412.6669921875,412.6669921875,412.6669921875,412.6669921875,412.6669921875,412.6669921875,412.6669921875,411.2349853515625,411.2349853515625,411.2349853515625,434.35699462890625,440.16400146484375,448.20098876953125,458.510009765625,469.21600341796875,490.906005859375,501.1839904785156,511.135986328125,526.7589721679688,546.573974609375,594.0230102539062,615.6220092773438,635.6179809570312,653.8519897460938,671.3510131835938,700.7899780273438,713.2069702148438,717.5830078125,721.989013671875,725.6519775390625],"ymouse":[804.4970092773438,804.4970092773438,804.4970092773438,804.4970092773438,804.4970092773438,803,803,803,803,803,803,803,803,803,803,802,802,802,802,802,802,802,802,802,802,799,799,799,799,799,799,799,799,799,799,799,801,801,801,801,802,803,804.4089965820312,804.4089965820312,804.4089965820312,804.4089965820312,804.4089965820312,804.4089965820312,804.4089965820312,808,808,808,808,808,808,808,808,811.885986328125,811.885986328125,811.885986328125,811.885986328125,811.885986328125,811.885986328125,811.885986328125,811.885986328125,811.885986328125,811.885986328125,811.885986328125,793.7760009765625,793.7760009765625,793.7760009765625,736.4420166015625,722.2420043945312,704.2739868164062,678.7249755859375,645.1749877929688,571.5869750976562,534.4329833984375,498.553955078125,456.4280090332031,413.0899963378906,327.24200439453125,291.4049987792969,257.9070129394531,229.13800048828125,201.7220001220703,155.77699279785156,137.9409942626953,125.08399963378906,113.031005859375,98.2979965209961],"timestamp_mouse":[13,77,93,113,133,153,173,193,213,233,253,273,293,313,333,353,373,393,413,433,453,473,493,513,533,554,573,593,613,633,653,673,693,713,733,753,773,793,813,833,854,873,893,913,933,953,973,993,1013,1033,1054,1073,1093,1113,1133,1153,1173,1193,1213,1233,1253,1273,1293,1313,1333,1353,1373,1393,1413,1433,1453,1473,1493,1513,1533,1553,1574,1593,1613,1633,1653,1674,1693,1713,1733,1753,1774,1793,1813,1833,1853],"xSR":350,"ySR":768,"xT1":30,"yT1":0,"xT2":670,"yT2":0,"toosoon":0,"cond_shown":"Congruent","ratio_trial":100,"L_num":4,"L_den":8,"R_num":6,"R_den":10,"correct_side":2,"subjID":"412wm","gender":"No_gender","school":"No_school","age":"No_age"},{"start_time":1549381785059,"click_time":1549381786223,"finger_time":1549381785803,"fix_duration":590.6166539192669,"trial":26,"RT":744,"MT":420,"sideResp":1,"stimulus":[],"xmouse":[415,415,415,415,415,415,415,415,415,415,415,415,415,415,415,415,415,415,415,415,415,415,415,415,415,415,415,415,415,415,415,415,405.2929992675781,384.6940002441406,371.2820129394531,355.0690002441406,341.2330017089844,329.1520080566406,301.5150146484375,286.81500244140625,272.2650146484375,257.9360046386719,246.60000610351562,224.322998046875,212.3699951171875,199.11700439453125,186.35499572753906,174.07200622558594,160.80799865722656,156.22500610351562,151.6739959716797,145.3990020751953,139.0679931640625,122.30099487304688,116.61000061035156,111.22000122070312,105.8489990234375],"ymouse":[824,824,824,824,824,824,824,824,824,824,824,824,824,824,824,824,824,824,824,824,824,824,824,824,824,824,824,824,824,824,824,824,813.7979736328125,795.3610229492188,781.8079833984375,760.9810180664062,731.8040161132812,700.0679931640625,632.7269897460938,604.7509765625,575.8839721679688,544.1740112304688,507.76800537109375,431.4630126953125,395.18499755859375,360.6839904785156,328.22198486328125,299.9200134277344,245.47698974609375,223.5679931640625,202.6179962158203,186.1959991455078,170.40199279785156,139.02699279785156,125.05300903320312,110.99400329589844,98.5999984741211],"timestamp_mouse":[12,64,83,103,123,143,163,183,203,223,243,263,283,303,323,343,363,383,403,423,443,463,483,503,523,543,563,583,603,623,644,664,684,703,724,744,764,784,803,824,844,864,884,903,924,944,964,985,1004,1024,1044,1064,1084,1104,1124,1144,1164],"xSR":350,"ySR":768,"xT1":30,"yT1":0,"xT2":670,"yT2":0,"toosoon":0,"cond_shown":"Congruent","ratio_trial":200,"L_num":20,"L_den":25,"R_num":9,"R_den":15,"correct_side":1,"subjID":"412wm","gender":"No_gender","school":"No_school","age":"No_age"},{"start_time":1549381788585,"click_time":1549381790164,"finger_time":1549381789503,"fix_duration":1040.4421948860318,"trial":27,"RT":918,"MT":661,"sideResp":1,"stimulus":[],"xmouse":[413.3330078125,413.3330078125,413.3330078125,413.3330078125,413.3330078125,413.3330078125,413.3330078125,414,414,414,414,414,414,414,414,414,414,414.6669921875,414.6669921875,414.6669921875,414.6669921875,414.6669921875,414.6669921875,414.6669921875,414.6669921875,414.6669921875,414.6669921875,414.6669921875,414.6669921875,414.6669921875,414.6669921875,414.6669921875,414.6669921875,414.6669921875,414.6669921875,414.6669921875,414.6669921875,414.6669921875,409.9859924316406,409.9859924316406,409.9859924316406,409.9859924316406,409.9859924316406,338.802001953125,322.2080078125,309.9129943847656,300.69500732421875,288.42401123046875,284.02398681640625,280.35101318359375,274.0870056152344,263.6059875488281,221.9770050048828,196.25,168.3470001220703,142.16400146484375,120.40798950195312,83.65899658203125,72.88400268554688,63.06999969482422,55.47700119018555,47.18299865722656,27.117000579833984,19.523000717163086,16.464000701904297,17.177000045776367,17.177000045776367,17.177000045776367,17.177000045776367,17.177000045776367,17.177000045776367,17.177000045776367,17.177000045776367,17.177000045776367,17.177000045776367,17.177000045776367,30.886999130249023],"ymouse":[857.3330078125,857.3330078125,857.3330078125,857.3330078125,857.3330078125,857.3330078125,857.3330078125,857,857,857,857,857,857,857,857,857,857,858.6669921875,858.6669921875,858.6669921875,858.6669921875,858.6669921875,858.6669921875,858.6669921875,858.6669921875,858.6669921875,858.6669921875,859.3330078125,859.3330078125,859.3330078125,859.3330078125,859.3330078125,859.3330078125,859.3330078125,859.3330078125,859.3330078125,859.3330078125,859.3330078125,855.3189697265625,855.3189697265625,855.3189697265625,855.3189697265625,855.3189697265625,785.7979736328125,765.197021484375,745.1909790039062,725.22900390625,682.531005859375,655.8159790039062,624.2239990234375,592.8380126953125,561.9639892578125,491.85198974609375,451.1180114746094,408.58099365234375,368.2799987792969,332.906005859375,260.31500244140625,223.09300231933594,184.2790069580078,151.97300720214844,124.2659912109375,78.28399658203125,59.17900085449219,40.18000030517578,24.54399871826172,24.54399871826172,24.54399871826172,24.54399871826172,24.54399871826172,24.54399871826172,24.54399871826172,24.54399871826172,24.54399871826172,24.54399871826172,24.54399871826172,16.663999557495117],"timestamp_mouse":[18,88,98,118,138,158,178,198,218,238,258,278,298,318,338,358,378,398,418,438,458,478,498,518,538,558,578,598,618,638,658,678,698,718,738,758,778,801,818,838,858,878,898,918,938,958,978,998,1018,1038,1058,1078,1101,1118,1138,1158,1178,1201,1218,1238,1258,1278,1303,1318,1338,1358,1378,1402,1418,1438,1458,1478,1499,1518,1538,1558,1578],"xSR":350,"ySR":768,"xT1":30,"yT1":0,"xT2":670,"yT2":0,"toosoon":0,"cond_shown":"Incongruent","ratio_trial":500,"L_num":5,"L_den":6,"R_num":6,"R_den":18,"correct_side":1,"subjID":"412wm","gender":"No_gender","school":"No_school","age":"No_age"},{"start_time":1549381792359,"click_time":1549381793407,"finger_time":1549381793104,"fix_duration":1273.7062409384187,"trial":28,"RT":745,"MT":303,"sideResp":2,"stimulus":[],"xmouse":[391,391,391,391,391,391,391,391,391,391.3330078125,391.3330078125,391.3330078125,391.3330078125,391.3330078125,391.3330078125,391.3330078125,391.3330078125,391.3330078125,391.3330078125,390.6470031738281,390.6470031738281,390.6470031738281,390.6470031738281,390.6470031738281,390.6470031738281,390.6470031738281,390.6470031738281,390.6470031738281,390.6470031738281,387.3330078125,388.6940002441406,388.6940002441406,388.6940002441406,388.6940002441406,403.9259948730469,413.2359924316406,424.9849853515625,442.27301025390625,464.49798583984375,526.4760131835938,559.9080200195312,594.1329956054688,622.427001953125,647.8560180664062,679.594970703125,692.5759887695312,705.4949951171875,717.3820190429688,727.3709716796875,743.8889770507812],"ymouse":[816,816,816,816,816,816,816,816,816,814.6669921875,814.6669921875,814.6669921875,814.6669921875,814.6669921875,814.6669921875,814.6669921875,814.6669921875,814.6669921875,814.6669921875,812.6669921875,812.6669921875,812.6669921875,812.6669921875,812.6669921875,812.6669921875,812.6669921875,812.6669921875,812.6669921875,812.6669921875,795.8090209960938,793.2509765625,793.2509765625,793.2509765625,793.2509765625,752.2219848632812,721.0869750976562,679.4180297851562,622.4829711914062,565.5850219726562,451.53399658203125,396.9280090332031,340.0299987792969,288.3169860839844,237.62100219726562,169.8769989013672,143.3419952392578,126.79800415039062,113.64399719238281,105.43699645996094,98.84400177001953],"timestamp_mouse":[71,85,105,125,145,165,185,205,225,245,265,285,305,325,345,365,385,405,425,447,465,485,505,525,545,565,585,605,625,645,665,685,705,725,745,765,785,805,825,847,865,886,905,925,947,965,985,1005,1025,1048],"xSR":350,"ySR":768,"xT1":30,"yT1":0,"xT2":670,"yT2":0,"toosoon":0,"cond_shown":"Incongruent","ratio_trial":500,"L_num":7,"L_den":21,"R_num":5,"R_den":6,"correct_side":2,"subjID":"412wm","gender":"No_gender","school":"No_school","age":"No_age"},{"start_time":1549381798072,"click_time":1549381799705,"finger_time":1549381798725,"fix_duration":1425.9190150397246,"trial":29,"RT":653,"MT":980,"sideResp":2,"stimulus":[],"xmouse":[424,424,424,424,424,424,424,424,424,424,424,424,424,424,424,424,424,424,424,424,413.3330078125,414,414.6669921875,415.5429992675781,415.94500732421875,416.6669921875,417.8699951171875,418.9419860839844,421.3810119628906,424.2590026855469,432.2619934082031,437.552001953125,442.3219909667969,447.24798583984375,453.35198974609375,464.8840026855469,472.23699951171875,479.7030029296875,486.4020080566406,491.5119934082031,500.1449890136719,502.4849853515625,505.7659912109375,508.22100830078125,512.0859985351562,522.1320190429688,527.9580078125,536.1510009765625,544.7930297851562,552.7940063476562,568.2949829101562,574.905029296875,579.9920043945312,585.3729858398438,591.6849975585938,604.3289794921875,607.4739990234375,610.3090209960938,613.3670043945312,614.6300048828125,614.6669921875,612,612,612,612,612,612,607.6160278320312,607.6160278320312,607.6160278320312,653.6019897460938,664.916015625,671.5980224609375,679.3800048828125,687.7570190429688,697.4710083007812,698.041015625,698,697.1339721679688],"ymouse":[834,834,834,834,834,834,834,834,834,834,834,834,834,834,834,834,834,834,834,834,797.7000122070312,796,795.5460205078125,794.4580078125,792.7219848632812,788.302978515625,785.0579833984375,779.9559936523438,772.4979858398438,762.2969970703125,731.4600219726562,711.7459716796875,692.8400268554688,679.5889892578125,667.52197265625,651.0440063476562,643.0960083007812,634.9630126953125,626.3519897460938,619.75,604.5789794921875,596.4229736328125,586.4030151367188,577.781005859375,562.843017578125,526.93701171875,507.46099853515625,486.2879943847656,462.7510070800781,440.3479919433594,400.5220031738281,386.8580017089844,374.01800537109375,361.9209899902344,350.9700012207031,327.6780090332031,321.052001953125,314.8949890136719,308.6000061035156,304.739990234375,299.843994140625,300,300,300,300,300,300,308.5249938964844,308.5249938964844,308.5249938964844,238.11700439453125,213.94200134277344,192.9550018310547,170.52499389648438,147.00100708007812,115.510009765625,107.6719970703125,101,97.20099639892578],"timestamp_mouse":[18,97,113,133,152,172,192,212,232,252,272,292,312,332,352,372,393,413,433,452,473,492,512,533,553,573,592,612,633,653,672,693,712,732,753,773,792,812,833,853,873,893,913,933,953,973,993,1013,1033,1053,1073,1093,1113,1133,1153,1173,1193,1213,1233,1253,1273,1293,1313,1333,1353,1373,1393,1413,1433,1453,1473,1493,1513,1533,1553,1573,1593,1613,1633],"xSR":350,"ySR":768,"xT1":30,"yT1":0,"xT2":670,"yT2":0,"toosoon":0,"cond_shown":"Incongruent","ratio_trial":200,"L_num":7,"L_den":10,"R_num":8,"R_den":16,"correct_side":1,"subjID":"412wm","gender":"No_gender","school":"No_school","age":"No_age"},{"start_time":1549381803137,"click_time":1549381804546,"finger_time":1549381804105,"fix_duration":250,"trial":30,"RT":968,"MT":441,"sideResp":1,"stimulus":[],"xmouse":[415,415,405.3070068359375,403.9079895019531,403.9079895019531,403.9079895019531,403.9079895019531,403.9079895019531,403.9079895019531,400,400,400.6669921875,400.6669921875,400.6669921875,400,400,400.6669921875,400.2030029296875,400.2030029296875,400.2030029296875,400.2030029296875,400.2030029296875,400.2030029296875,400.2030029296875,400.2030029296875,400.2030029296875,400.2030029296875,400,400,400,400,400,400,400,400,400,400,401.3330078125,401.3330078125,401.3330078125,400.6669921875,400.6669921875,400.6669921875,400.6669921875,400.6669921875,391.24200439453125,374.4779968261719,362.9259948730469,350.01300048828125,336.9020080566406,307.7909851074219,290.5849914550781,273.010986328125,256.95098876953125,244.68299865722656,222.53599548339844,211.09300231933594,200.21800231933594,191.8249969482422,185.42100524902344,175.30799865722656,169.06300354003906,159.85299682617188,150.343994140625,128.13600158691406,117.85600280761719,110.91600036621094,105.62300109863281,99.58499908447266],"ymouse":[802,802,827.3330078125,827.3330078125,827.3330078125,827.3330078125,827.3330078125,827.3330078125,827.3330078125,824,824,823.3330078125,822.6669921875,822.2509765625,822,822,821.3330078125,821.3330078125,821.3330078125,821.3330078125,821.3330078125,821.3330078125,821.3330078125,821.3330078125,821.3330078125,821.3330078125,821.3330078125,822,822,822,822,822,822,822,822,822,822,819.3330078125,818.4569702148438,817.4000244140625,816.97802734375,816.97802734375,816.97802734375,816.97802734375,816.97802734375,791.43701171875,757.2329711914062,729.364013671875,695.4669799804688,661.9979858398438,599.0759887695312,566.0089721679688,528.1209716796875,489.1889953613281,451.9849853515625,384.5150146484375,357.7749938964844,329.40899658203125,300.08599853515625,272.0740051269531,217.18299865722656,192.52200317382812,170.71099853515625,151.05099487304688,124.13600158691406,113.85600280761719,106.91600036621094,101.02799987792969,94.56900024414062],"timestamp_mouse":[60,68,88,108,130,148,168,188,208,229,248,268,288,308,328,348,368,388,408,428,448,468,488,508,528,548,568,588,608,628,648,668,688,708,728,748,768,788,808,828,848,868,888,908,928,948,968,988,1008,1028,1048,1068,1088,1108,1128,1150,1168,1188,1208,1228,1251,1268,1288,1308,1333,1351,1368,1388,1408],"xSR":350,"ySR":768,"xT1":30,"yT1":0,"xT2":670,"yT2":0,"toosoon":0,"cond_shown":"Congruent","ratio_trial":300,"L_num":11,"L_den":22,"R_num":2,"R_den":10,"correct_side":1,"subjID":"412wm","gender":"No_gender","school":"No_school","age":"No_age"},{"start_time":1549381808496,"click_time":1549381809526,"finger_time":1549381809146,"fix_duration":1168.713773031017,"trial":31,"RT":650,"MT":380,"sideResp":2,"stimulus":[],"xmouse":[420,430,430,430,430,430,430,430,430,430,430,430,430,430,430,430,430,430,430,430,430,426.02099609375,426.3909912109375,426.3909912109375,426.3909912109375,426.3909912109375,426.3909912109375,426.3909912109375,426.3909912109375,431.82598876953125,436.5950012207031,441.13800048828125,448.2720031738281,474.2720031738281,492.5249938964844,511.3289794921875,533.8200073242188,557.9609985351562,605.2340087890625,623.7860107421875,636.8179931640625,646.22900390625,653.4450073242188,663.364990234375,666.7869873046875,671.3159790039062,678.906005859375,687.2899780273438,699,705.8189697265625],"ymouse":[822,826,826,826,826,826,826,826,826,826,826,826,826,826,826,826,826,826,826,826,826,818.02099609375,817.6090087890625,817.6090087890625,817.6090087890625,817.6090087890625,817.6090087890625,817.6090087890625,817.6090087890625,784.572021484375,758.3569946289062,728.0360107421875,692.7550048828125,611.60498046875,564.1729736328125,515.510009765625,466.6709899902344,423.26800537109375,345.0450134277344,310.87298583984375,278.9949951171875,253.56500244140625,227.9409942626953,188.2220001220703,172.9949951171875,160.70799255371094,146.55099487304688,131.60499572753906,109,98.55599975585938],"timestamp_mouse":[59,70,90,110,130,150,170,190,210,230,250,270,290,310,330,350,370,390,410,430,450,470,490,511,530,550,570,590,610,630,650,670,690,711,730,750,770,790,813,830,850,870,890,913,930,950,970,990,1014,1030],"xSR":350,"ySR":768,"xT1":30,"yT1":0,"xT2":670,"yT2":0,"toosoon":0,"cond_shown":"Incongruent","ratio_trial":500,"L_num":7,"L_den":21,"R_num":5,"R_den":6,"correct_side":2,"subjID":"412wm","gender":"No_gender","school":"No_school","age":"No_age"},{"start_time":1549381811306,"click_time":1549381812530,"finger_time":1549381812086,"fix_duration":678.6622054821431,"trial":32,"RT":780,"MT":444,"sideResp":1,"stimulus":[],"xmouse":[423.3330078125,424,424,424,424,424,424,424,424,421.43798828125,421.3330078125,421.3330078125,421,421,421,421,421,421,421,421,421,421,420,420,420,420,420,422,422,422,422,422,422,422,422,421.2669982910156,417.4110107421875,412.114013671875,404.79400634765625,385.8609924316406,373.1889953613281,355.12298583984375,336.8940124511719,322.9530029296875,295.8280029296875,277.8580017089844,258.50299072265625,258.50299072265625,222.50100708007812,194.46200561523438,180.4810028076172,167.4320068359375,156.625,148.81900024414062,139.04600524902344,132.78900146484375,123.52400207519531,113.55699920654297,103.39199829101562,85.25900268554688],"ymouse":[794.6669921875,794,794,794,794,794,794,794,794,791.3330078125,791.3330078125,791.3330078125,792,792,792,792,792,792,792,792,792,792,792,792,792,792,792,790,790,788,787,786,785,783,781,779.135009765625,770.5269775390625,758.6500244140625,744.9030151367188,716.7030029296875,700.2219848632812,679.8049926757812,651.041015625,619.5260009765625,554.989013671875,526.2550048828125,500.448974609375,500.448974609375,443.65899658203125,382.0379943847656,352.79400634765625,319.4209899902344,286.510009765625,253.7230224609375,196.46499633789062,175.156005859375,154.85699462890625,138.9409942626953,122.7550048828125,94.50399780273438],"timestamp_mouse":[1,71,80,101,120,140,160,180,200,220,240,260,280,300,320,340,360,380,400,420,440,460,480,500,522,540,560,580,600,621,640,660,680,700,721,740,760,780,800,824,840,860,880,900,922,940,960,980,1000,1021,1040,1060,1080,1100,1122,1140,1160,1180,1200,1224],"xSR":350,"ySR":768,"xT1":30,"yT1":0,"xT2":670,"yT2":0,"toosoon":0,"cond_shown":"Congruent","ratio_trial":200,"L_num":12,"L_den":20,"R_num":6,"R_den":15,"correct_side":1,"subjID":"412wm","gen