[{"start_time":1549383010152,"click_time":1549383012767,"finger_time":1549383010230,"fix_duration":375.27488603197077,"trial":0,"RT":78,"MT":2537,"sideResp":2,"stimulus":"img/750/equaldotanddens/L/1_Ratio_750_L_20_R_15.png","xmouse":[408,408,408,408,408,408,408,408,408,408,408,408,408,408,408,408,408,408,408,408,408,408,408,408,408,408,408,408,408,408,408,408,408,408,408,408,408,408,408,408,408,408,408,408,408,408,408,408,408,408,408,408,408,408,408,408,408,408,408,408,408,408,408,408,408,408,408,408,408,408,408,408,408,408,408,408,408,408,408,408,408,408,408,408,408,408,408,408,408,408,408,408,408,408,408,408,408,408,408,408,408,408,408,408,408,408,408,408,408,408,408,408,408,408,408,408,408,408,408,408,408,408,408,408,408,408,408,724],"ymouse":[502,502,502,502,502,502,502,502,502,502,502,502,502,502,502,502,502,502,502,502,502,502,502,502,502,502,502,502,502,502,502,502,502,502,502,502,502,502,502,502,502,502,502,502,502,502,502,502,502,502,502,502,502,502,502,502,502,502,502,502,502,502,502,502,502,502,502,502,502,502,502,502,502,502,502,502,502,502,502,502,502,502,502,502,502,502,502,502,502,502,502,502,502,502,502,502,502,502,502,502,502,502,502,502,502,502,502,502,502,502,502,502,502,502,502,502,502,502,502,502,502,502,502,502,502,502,502,66],"timestamp_mouse":[77,94,114,134,154,174,194,214,234,254,274,294,314,334,354,374,395,414,434,454,474,494,514,534,555,575,594,614,634,655,676,694,714,734,755,776,794,814,834,854,874,894,915,935,954,974,994,1014,1035,1055,1075,1094,1114,1134,1155,1174,1195,1215,1235,1255,1275,1295,1315,1335,1355,1375,1395,1415,1435,1455,1475,1495,1515,1535,1555,1575,1595,1615,1635,1655,1675,1695,1715,1735,1755,1775,1795,1815,1835,1855,1875,1895,1915,1935,1955,1975,1995,2015,2035,2055,2075,2095,2115,2135,2155,2175,2195,2215,2235,2255,2275,2295,2315,2335,2355,2375,2395,2415,2435,2455,2475,2495,2515,2536,2555,2575,2595,2615],"xSR":350,"ySR":451.2,"xT1":30,"yT1":0,"xT2":670,"yT2":0,"toosoon":0,"cond_shown":"equaldotanddens","ratio_trial":750,"smaller_num":"15","larger_num":"20","correct_side":1,"subjID":"412wm","gender":"No_gender","age":"No_age","school":"No_school","test":{"fix_dur":[250,1500],"timestim":400,"targets_dim":[100,100],"targets_relative_coord":[0.1,0.9],"size_stim":[880,420],"start_dim":[100,100],"size_start":[300,300],"size_fix":60,"samplingrate":20,"img_types":["equaldotsize","equaldotanddens","randomdotsize","randomdotsizeEA"],"ratios":[250,500,750,900],"rep_conds":7,"nTrials":128,"trials_to_rest":500,"Trials_order":[57,96,48,12,40,123,9,23,85,56,73,43,30,124,41,33,3,118,42,106,116,2,13,72,125,16,111,51,17,90,93,105,97,54,26,71,98,103,28,49,6,20,108,21,25,32,45,10,39,35,99,60,102,107,27,61,114,34,74,24,58,63,67,11,119,94,1,8,84,7,18,66,115,110,70,0,101,59,75,22,77,91,36,44,38,88,86,109,46,126,76,82,112,81,92,64,89,14,29,5,80,55,69,78,15,122,95,4,65,47,52,113,62,104,120,31,50,79,127,121,37,83,68,117,19,87,53,100],"cond_shown":["equaldotanddens","equaldotsize","equaldotsize","equaldotsize","equaldotsize","randomdotsizeEA","equaldotanddens","randomdotsizeEA","equaldotanddens","equaldotsize","equaldotanddens","randomdotsizeEA","randomdotsize","equaldotsize","equaldotanddens","equaldotanddens","randomdotsizeEA","randomdotsize","randomdotsize","randomdotsize","equaldotsize","randomdotsize","equaldotanddens","equaldotsize","equaldotanddens","equaldotsize","randomdotsizeEA","randomdotsizeEA","equaldotanddens","randomdotsize","equaldotanddens","equaldotanddens","equaldotanddens","randomdotsize","randomdotsize","randomdotsizeEA","randomdotsize","randomdotsizeEA","equaldotsize","equaldotanddens","randomdotsize","equaldotsize","equaldotsize","equaldotanddens","equaldotanddens","equaldotsize","equaldotanddens","randomdotsize","randomdotsizeEA","randomdotsizeEA","randomdotsizeEA","equaldotsize","randomdotsize","randomdotsizeEA","randomdotsizeEA","equaldotanddens","randomdotsize","randomdotsize","randomdotsize","equaldotsize","randomdotsize","randomdotsizeEA","randomdotsizeEA","randomdotsizeEA","randomdotsizeEA","randomdotsize","equaldotanddens","equaldotsize","equaldotsize","randomdotsizeEA","randomdotsize","randomdotsize","randomdotsizeEA","randomdotsize","randomdotsize","equaldotsize","equaldotanddens","randomdotsizeEA","randomdotsizeEA","randomdotsize","equaldotanddens","randomdotsizeEA","equaldotsize","equaldotsize","randomdotsize","equaldotsize","randomdotsize","equaldotanddens","randomdotsize","randomdotsize","equaldotsize","randomdotsize","equaldotsize","equaldotanddens","equaldotsize","equaldotsize","equaldotanddens","randomdotsize","equaldotanddens","equaldotanddens","equaldotsize","randomdotsizeEA","equaldotanddens","randomdotsize","randomdotsizeEA","randomdotsize","randomdotsizeEA","equaldotsize","equaldotanddens","randomdotsizeEA","equaldotsize","equaldotanddens","randomdotsize","equaldotsize","equaldotsize","randomdotsizeEA","randomdotsize","randomdotsizeEA","randomdotsizeEA","equaldotanddens","equaldotanddens","randomdotsizeEA","equaldotsize","equaldotanddens","randomdotsizeEA","randomdotsizeEA","equaldotanddens","equaldotsize"],"ratio_trial":[750,250,250,900,750,750,750,500,500,750,750,750,900,900,750,250,250,500,750,750,500,250,900,750,900,250,900,250,250,750,900,750,250,500,750,500,250,500,900,250,500,500,900,500,750,250,900,750,500,250,250,900,500,750,750,900,250,250,750,750,750,900,250,750,500,900,250,750,500,500,250,250,250,900,500,250,500,750,750,500,900,750,500,900,500,750,500,900,900,900,900,250,250,250,900,250,750,900,900,500,250,500,500,900,900,750,900,500,250,900,500,250,900,750,750,900,250,900,900,750,500,250,500,500,250,500,500,500],"smaller_num":["15","3","6","18","18","6","15","1","4","6","15","3","9","18","15","1","2","9","12","3","9","1","18","12","9","2","18","6","5","3","18","3","3","9","18","2","3","1","9","4","2","9","18","1","6","2","9","15","1","2","4","9","1","3","6","9","3","4","15","3","6","9","6","12","9","18","2","3","6","5","3","3","2","9","2","3","9","3","3","6","18","9","2","9","9","3","2","9","18","9","18","5","2","3","18","6","12","9","18","4","4","9","9","18","9","3","9","2","3","18","10","2","9","18","3","9","3","9","18","3","2","2","1","9","3","6","4","4"],"larger_num":["20","12","24","20","24","8","20","2","8","8","20","4","10","20","20","4","8","18","16","4","18","4","20","16","10","8","20","24","20","4","20","4","12","18","24","4","12","2","10","16","4","18","20","2","8","8","10","20","2","8","16","10","2","4","8","10","12","16","20","4","8","10","24","16","18","20","8","4","12","10","12","12","8","10","4","12","18","4","4","12","20","12","4","10","18","4","4","10","20","10","20","20","8","12","20","24","16","10","20","8","16","18","18","20","10","4","10","4","12","20","20","8","10","24","4","10","12","10","20","4","4","8","2","18","12","12","8","8"],"correct_side":[1,1,2,1,1,1,2,2,1,1,2,2,1,2,1,2,1,1,2,1,2,2,1,2,2,1,2,2,2,1,1,1,1,2,1,1,1,2,2,1,1,2,2,2,1,1,1,1,2,2,1,1,2,1,1,2,2,2,1,1,1,1,2,2,1,2,1,1,1,2,1,1,1,1,2,1,2,2,2,1,1,2,1,2,2,1,1,2,1,2,1,2,1,2,2,2,2,1,1,1,2,1,2,2,2,1,1,2,2,1,2,2,2,1,2,2,2,2,1,1,1,1,2,1,1,1,1,1],"img_shown":["img/750/equaldotanddens/L/1_Ratio_750_L_20_R_15.png","img/250/equaldotsize/L/15_Ratio_250_L_12_R_3.png","img/250/equaldotsize/R/6_Ratio_250_L_6_R_24.png","img/900/equaldotsize/L/4_Ratio_900_L_20_R_18.png","img/750/equaldotsize/L/6_Ratio_750_L_24_R_18.png","img/750/randomdotsizeEA/L/13_Ratio_750_L_8_R_6.png","img/750/equaldotanddens/R/5_Ratio_750_L_15_R_20.png","img/500/randomdotsizeEA/R/12_Ratio_500_L_1_R_2.png","img/500/equaldotanddens/L/8_Ratio_500_L_8_R_4.png","img/750/equaldotsize/L/13_Ratio_750_L_8_R_6.png","img/750/equaldotanddens/R/3_Ratio_750_L_15_R_20.png","img/750/randomdotsizeEA/R/7_Ratio_750_L_3_R_4.png","img/900/randomdotsize/L/1_Ratio_900_L_10_R_9.png","img/900/equaldotsize/R/9_Ratio_900_L_18_R_20.png","img/750/equaldotanddens/L/1_Ratio_750_L_20_R_15.png","img/250/equaldotanddens/R/8_Ratio_250_L_1_R_4.png","img/250/randomdotsizeEA/L/7_Ratio_250_L_8_R_2.png","img/500/randomdotsize/L/4_Ratio_500_L_18_R_9.png","img/750/randomdotsize/R/11_Ratio_750_L_12_R_16.png","img/750/randomdotsize/L/8_Ratio_750_L_4_R_3.png","img/500/equaldotsize/R/1_Ratio_500_L_9_R_18.png","img/250/randomdotsize/R/8_Ratio_250_L_1_R_4.png","img/900/equaldotanddens/L/4_Ratio_900_L_20_R_18.png","img/750/equaldotsize/R/11_Ratio_750_L_12_R_16.png","img/900/equaldotanddens/R/5_Ratio_900_L_9_R_10.png","img/250/equaldotsize/L/7_Ratio_250_L_8_R_2.png","img/900/randomdotsizeEA/R/11_Ratio_900_L_18_R_20.png","img/250/randomdotsizeEA/R/6_Ratio_250_L_6_R_24.png","img/250/equaldotanddens/R/12_Ratio_250_L_5_R_20.png","img/750/randomdotsize/L/9_Ratio_750_L_4_R_3.png","img/900/equaldotanddens/L/2_Ratio_900_L_20_R_18.png","img/750/equaldotanddens/L/8_Ratio_750_L_4_R_3.png","img/250/equaldotanddens/L/15_Ratio_250_L_12_R_3.png","img/500/randomdotsize/R/6_Ratio_500_L_9_R_18.png","img/750/randomdotsize/L/6_Ratio_750_L_24_R_18.png","img/500/randomdotsizeEA/L/5_Ratio_500_L_4_R_2.png","img/250/randomdotsize/L/14_Ratio_250_L_12_R_3.png","img/500/randomdotsizeEA/R/12_Ratio_500_L_1_R_2.png","img/900/equaldotsize/R/5_Ratio_900_L_9_R_10.png","img/250/equaldotanddens/L/2_Ratio_250_L_16_R_4.png","img/500/randomdotsize/L/5_Ratio_500_L_4_R_2.png","img/500/equaldotsize/R/1_Ratio_500_L_9_R_18.png","img/900/equaldotsize/R/13_Ratio_900_L_18_R_20.png","img/500/equaldotanddens/R/15_Ratio_500_L_1_R_2.png","img/750/equaldotanddens/L/13_Ratio_750_L_8_R_6.png","img/250/equaldotsize/L/3_Ratio_250_L_8_R_2.png","img/900/equaldotanddens/L/1_Ratio_900_L_10_R_9.png","img/750/randomdotsize/L/1_Ratio_750_L_20_R_15.png","img/500/randomdotsizeEA/R/12_Ratio_500_L_1_R_2.png","img/250/randomdotsizeEA/R/13_Ratio_250_L_2_R_8.png","img/250/randomdotsizeEA/L/2_Ratio_250_L_16_R_4.png","img/900/equaldotsize/L/1_Ratio_900_L_10_R_9.png","img/500/randomdotsize/R/12_Ratio_500_L_1_R_2.png","img/750/randomdotsizeEA/L/9_Ratio_750_L_4_R_3.png","img/750/randomdotsizeEA/L/13_Ratio_750_L_8_R_6.png","img/900/equaldotanddens/R/6_Ratio_900_L_9_R_10.png","img/250/randomdotsize/R/11_Ratio_250_L_3_R_12.png","img/250/randomdotsize/R/10_Ratio_250_L_4_R_16.png","img/750/randomdotsize/L/1_Ratio_750_L_20_R_15.png","img/750/equaldotsize/L/10_Ratio_750_L_4_R_3.png","img/750/randomdotsize/L/14_Ratio_750_L_8_R_6.png","img/900/randomdotsizeEA/L/1_Ratio_900_L_10_R_9.png","img/250/randomdotsizeEA/R/6_Ratio_250_L_6_R_24.png","img/750/randomdotsizeEA/R/11_Ratio_750_L_12_R_16.png","img/500/randomdotsizeEA/L/4_Ratio_500_L_18_R_9.png","img/900/randomdotsize/R/9_Ratio_900_L_18_R_20.png","img/250/equaldotanddens/L/7_Ratio_250_L_8_R_2.png","img/750/equaldotsize/L/8_Ratio_750_L_4_R_3.png","img/500/equaldotsize/L/13_Ratio_500_L_12_R_6.png","img/500/randomdotsizeEA/R/14_Ratio_500_L_5_R_10.png","img/250/randomdotsize/L/14_Ratio_250_L_12_R_3.png","img/250/randomdotsize/L/14_Ratio_250_L_12_R_3.png","img/250/randomdotsizeEA/L/3_Ratio_250_L_8_R_2.png","img/900/randomdotsize/L/1_Ratio_900_L_10_R_9.png","img/500/randomdotsize/R/9_Ratio_500_L_2_R_4.png","img/250/equaldotsize/L/15_Ratio_250_L_12_R_3.png","img/500/equaldotanddens/R/1_Ratio_500_L_9_R_18.png","img/750/randomdotsizeEA/R/7_Ratio_750_L_3_R_4.png","img/750/randomdotsizeEA/R/7_Ratio_750_L_3_R_4.png","img/500/randomdotsize/L/13_Ratio_500_L_12_R_6.png","img/900/equaldotanddens/L/8_Ratio_900_L_20_R_18.png","img/750/randomdotsizeEA/R/15_Ratio_750_L_9_R_12.png","img/500/equaldotsize/L/5_Ratio_500_L_4_R_2.png","img/900/equaldotsize/R/15_Ratio_900_L_9_R_10.png","img/500/randomdotsize/R/1_Ratio_500_L_9_R_18.png","img/750/equaldotsize/L/10_Ratio_750_L_4_R_3.png","img/500/randomdotsize/L/5_Ratio_500_L_4_R_2.png","img/900/equaldotanddens/R/3_Ratio_900_L_9_R_10.png","img/900/randomdotsize/L/8_Ratio_900_L_20_R_18.png","img/900/randomdotsize/R/5_Ratio_900_L_9_R_10.png","img/900/equaldotsize/L/10_Ratio_900_L_20_R_18.png","img/250/randomdotsize/R/12_Ratio_250_L_5_R_20.png","img/250/equaldotsize/L/7_Ratio_250_L_8_R_2.png","img/250/equaldotanddens/R/9_Ratio_250_L_3_R_12.png","img/900/equaldotsize/R/13_Ratio_900_L_18_R_20.png","img/250/equaldotsize/R/6_Ratio_250_L_6_R_24.png","img/750/equaldotanddens/R/11_Ratio_750_L_12_R_16.png","img/900/randomdotsize/L/1_Ratio_900_L_10_R_9.png","img/900/equaldotanddens/L/2_Ratio_900_L_20_R_18.png","img/500/equaldotanddens/L/8_Ratio_500_L_8_R_4.png","img/250/equaldotsize/R/10_Ratio_250_L_4_R_16.png","img/500/randomdotsizeEA/L/4_Ratio_500_L_18_R_9.png","img/500/equaldotanddens/R/6_Ratio_500_L_9_R_18.png","img/900/randomdotsize/R/13_Ratio_900_L_18_R_20.png","img/900/randomdotsizeEA/R/3_Ratio_900_L_9_R_10.png","img/750/randomdotsize/L/8_Ratio_750_L_4_R_3.png","img/900/randomdotsizeEA/L/1_Ratio_900_L_10_R_9.png","img/500/equaldotsize/R/9_Ratio_500_L_2_R_4.png","img/250/equaldotanddens/R/11_Ratio_250_L_3_R_12.png","img/900/randomdotsizeEA/L/10_Ratio_900_L_20_R_18.png","img/500/equaldotsize/R/3_Ratio_500_L_10_R_20.png","img/250/equaldotanddens/R/13_Ratio_250_L_2_R_8.png","img/900/randomdotsize/R/15_Ratio_900_L_9_R_10.png","img/750/equaldotsize/L/6_Ratio_750_L_24_R_18.png","img/750/equaldotsize/R/7_Ratio_750_L_3_R_4.png","img/900/randomdotsizeEA/R/7_Ratio_900_L_9_R_10.png","img/250/randomdotsize/R/11_Ratio_250_L_3_R_12.png","img/900/randomdotsizeEA/R/15_Ratio_900_L_9_R_10.png","img/900/randomdotsizeEA/L/8_Ratio_900_L_20_R_18.png","img/750/equaldotanddens/L/8_Ratio_750_L_4_R_3.png","img/500/equaldotanddens/L/5_Ratio_500_L_4_R_2.png","img/250/randomdotsizeEA/L/3_Ratio_250_L_8_R_2.png","img/500/equaldotsize/R/15_Ratio_500_L_1_R_2.png","img/500/equaldotanddens/L/4_Ratio_500_L_18_R_9.png","img/250/randomdotsizeEA/L/14_Ratio_250_L_12_R_3.png","img/500/randomdotsizeEA/L/11_Ratio_500_L_12_R_6.png","img/500/equaldotanddens/L/8_Ratio_500_L_8_R_4.png","img/500/equaldotsize/L/8_Ratio_500_L_8_R_4.png"],"Rat0":[["12_Ratio_0_L_9_R_0.png","13_Ratio_0_L_6_R_0.png","5_Ratio_0_L_2_R_0.png","6_Ratio_0_L_4_R_0.png","8_Ratio_0_L_6_R_0.png"],["1_Ratio_0_L_0_R_17.png","10_Ratio_0_L_0_R_22.png","11_Ratio_0_L_0_R_1.png","14_Ratio_0_L_0_R_24.png","15_Ratio_0_L_0_R_4.png","2_Ratio_0_L_0_R_5.png","3_Ratio_0_L_0_R_17.png","4_Ratio_0_L_0_R_7.png","7_Ratio_0_L_0_R_19.png","9_Ratio_0_L_0_R_15.png"]],"Rat250":[["1_Ratio_250_L_8_R_2.png","14_Ratio_250_L_12_R_3.png","15_Ratio_250_L_12_R_3.png","2_Ratio_250_L_16_R_4.png","3_Ratio_250_L_8_R_2.png","5_Ratio_250_L_24_R_6.png","7_Ratio_250_L_8_R_2.png"],["10_Ratio_250_L_4_R_16.png","11_Ratio_250_L_3_R_12.png","12_Ratio_250_L_5_R_20.png","13_Ratio_250_L_2_R_8.png","4_Ratio_250_L_3_R_12.png","6_Ratio_250_L_6_R_24.png","8_Ratio_250_L_1_R_4.png","9_Ratio_250_L_3_R_12.png"]],"Rat500":[["10_Ratio_500_L_4_R_2.png","11_Ratio_500_L_12_R_6.png","13_Ratio_500_L_12_R_6.png","4_Ratio_500_L_18_R_9.png","5_Ratio_500_L_4_R_2.png","7_Ratio_500_L_10_R_5.png","8_Ratio_500_L_8_R_4.png"],["1_Ratio_500_L_9_R_18.png","12_Ratio_500_L_1_R_2.png","14_Ratio_500_L_5_R_10.png","15_Ratio_500_L_1_R_2.png","2_Ratio_500_L_3_R_6.png","3_Ratio_500_L_10_R_20.png","6_Ratio_500_L_9_R_18.png","9_Ratio_500_L_2_R_4.png"]],"Rat750":[["1_Ratio_750_L_20_R_15.png","10_Ratio_750_L_4_R_3.png","13_Ratio_750_L_8_R_6.png","14_Ratio_750_L_8_R_6.png","6_Ratio_750_L_24_R_18.png","8_Ratio_750_L_4_R_3.png","9_Ratio_750_L_4_R_3.png"],["11_Ratio_750_L_12_R_16.png","12_Ratio_750_L_3_R_4.png","15_Ratio_750_L_9_R_12.png","2_Ratio_750_L_6_R_8.png","3_Ratio_750_L_15_R_20.png","4_Ratio_750_L_15_R_20.png","5_Ratio_750_L_15_R_20.png","7_Ratio_750_L_3_R_4.png"]],"Rat900":[["1_Ratio_900_L_10_R_9.png","10_Ratio_900_L_20_R_18.png","2_Ratio_900_L_20_R_18.png","4_Ratio_900_L_20_R_18.png","8_Ratio_900_L_20_R_18.png"],["11_Ratio_900_L_18_R_20.png","12_Ratio_900_L_18_R_20.png","13_Ratio_900_L_18_R_20.png","14_Ratio_900_L_18_R_20.png","15_Ratio_900_L_9_R_10.png","3_Ratio_900_L_9_R_10.png","5_Ratio_900_L_9_R_10.png","6_Ratio_900_L_9_R_10.png","7_Ratio_900_L_9_R_10.png","9_Ratio_900_L_18_R_20.png"]],"Rat1000":[["10_Ratio_1000_L_16_R_16.png","11_Ratio_1000_L_6_R_6.png","12_Ratio_1000_L_14_R_14.png","13_Ratio_1000_L_20_R_20.png","15_Ratio_1000_L_15_R_15.png","2_Ratio_1000_L_17_R_17.png","4_Ratio_1000_L_9_R_9.png","5_Ratio_1000_L_6_R_6.png","6_Ratio_1000_L_19_R_19.png","8_Ratio_1000_L_14_R_14.png","9_Ratio_1000_L_25_R_25.png"],["1_Ratio_1000_L_1_R_1.png","14_Ratio_1000_L_17_R_17.png","3_Ratio_1000_L_17_R_17.png","7_Ratio_1000_L_6_R_6.png"]]}},{"start_time":1549383014905,"click_time":1549383016369,"finger_time":1549383016007,"fix_duration":375.3165119455255,"trial":1,"RT":1102,"MT":362,"sideResp":1,"stimulus":"img/250/equaldotsize/L/15_Ratio_250_L_12_R_3.png","xmouse":[413,413.3330078125,413.3330078125,413.3330078125,413.3330078125,413.3330078125,413.3330078125,413.3330078125,413.3330078125,413.3330078125,412.6669921875,412.6669921875,412.6669921875,412.6669921875,412.6669921875,412.6669921875,412.6669921875,412.6669921875,412.6669921875,412.6669921875,412.6669921875,412.6669921875,412.6669921875,412.6669921875,412.6669921875,412.6669921875,412.6669921875,412.6669921875,412.2099914550781,412.2099914550781,412.2099914550781,412.2099914550781,412.2099914550781,412.2099914550781,412.2099914550781,412.2099914550781,412.2099914550781,412.2099914550781,412.2099914550781,411.3330078125,411.3330078125,411.3330078125,411.3330078125,411.3330078125,411.3330078125,411.3330078125,411.3330078125,411.3330078125,411.3330078125,407.7850036621094,407.7850036621094,407.7850036621094,407.7850036621094,378.9490051269531,370.99200439453125,362.5329895019531,343.0050048828125,332.12200927734375,316.7279968261719,301.51800537109375,264.14801025390625,248.26800537109375,232.3159942626953,216.1439971923828,198.86500549316406,183.01800537109375,157.10699462890625,149.94000244140625,144.5399932861328,137.47900390625,128.1060028076172,108.64099884033203],"ymouse":[830,829.0159912109375,829.0159912109375,829.0159912109375,829.0159912109375,829.0159912109375,829.0159912109375,829.0159912109375,829.0159912109375,829.0159912109375,829.3330078125,829.3330078125,829.3330078125,829.3330078125,829.3330078125,829.3330078125,829.3330078125,829.3330078125,829.3330078125,829.3330078125,829.3330078125,829.3330078125,829.3330078125,829.3330078125,829.3330078125,829.3330078125,829.3330078125,829.3330078125,829.3330078125,829.3330078125,829.3330078125,829.3330078125,829.3330078125,829.3330078125,829.3330078125,829.3330078125,829.3330078125,829.3330078125,829.3330078125,829.3330078125,829.3330078125,829.3330078125,829.3330078125,829.3330078125,829.3330078125,829.3330078125,829.3330078125,829.3330078125,829.3330078125,825.1190185546875,825.1190185546875,825.1190185546875,825.1190185546875,747.8109741210938,725.6920166015625,705.7340087890625,668.010009765625,646.7130126953125,622.3599853515625,594.7319946289062,528.2969970703125,485.50799560546875,443.48699951171875,403.09698486328125,365.8949890136719,331.1499938964844,262.9159851074219,226.3730010986328,189.7239990234375,155.23599243164062,127.47900390625,82.0260009765625],"timestamp_mouse":[2,63,82,102,122,142,162,182,202,222,242,262,282,302,322,342,362,382,402,422,442,462,482,502,522,542,562,582,602,622,642,662,682,702,722,742,762,782,802,822,842,862,882,902,922,944,962,982,1002,1022,1043,1062,1082,1102,1122,1142,1162,1182,1202,1222,1243,1263,1282,1302,1322,1342,1362,1382,1402,1422,1442,1463],"xSR":350,"ySR":768,"xT1":30,"yT1":0,"xT2":670,"yT2":0,"toosoon":0,"cond_shown":"equaldotsize","ratio_trial":250,"smaller_num":"3","larger_num":"12","correct_side":1,"subjID":"412wm","gender":"No_gender","age":"No_age","school":"No_school"},{"start_time":1549383017640,"click_time":1549383018728,"finger_time":1549383018488,"fix_duration":250,"trial":2,"RT":848,"MT":240,"sideResp":2,"stimulus":"img/250/equaldotsize/R/6_Ratio_250_L_6_R_24.png","xmouse":[416.8429870605469,416.8429870605469,416.8429870605469,420.1730041503906,421.25799560546875,423.00299072265625,424.0719909667969,425.8160095214844,427.9750061035156,428.6669921875,429.4639892578125,428.6669921875,428.6669921875,428,428,428.6669921875,429.052001953125,429.3330078125,430,430.6669921875,430,430.6669921875,430.6669921875,430.6669921875,430.6669921875,430.6669921875,430.6669921875,430.6669921875,430.6669921875,430.6669921875,430.6669921875,430.6669921875,429.3330078125,429.3330078125,429.3330078125,429.3330078125,429.3330078125,429.3330078125,426.43701171875,438.28399658203125,459.3269958496094,485.40399169921875,519.405029296875,598.7559814453125,642.572998046875,675.2459716796875,692.4849853515625,704.4719848632812,718.39599609375,723.1420288085938,727.739013671875,728.6669921875],"ymouse":[818.843017578125,818.843017578125,818.843017578125,831.6799926757812,833.2579956054688,836.0050048828125,838.1439819335938,840.2990112304688,844.6420288085938,846.7630004882812,848.927001953125,849.8709716796875,851.9910278320312,853,854,855.3330078125,856.385009765625,857.468017578125,858,860.0399780273438,860,860.8720092773438,860.6669921875,860.6669921875,860.6669921875,860.6669921875,860.6669921875,860.6669921875,860.6669921875,860.6669921875,860.6669921875,860.6669921875,857.7319946289062,857.7319946289062,857.7319946289062,857.7319946289062,857.7319946289062,857.7319946289062,797.6099853515625,746.0960083007812,691.1259765625,637.1929931640625,579.2540283203125,447.77899169921875,373.60198974609375,305.7510070800781,255.33999633789062,218.39500427246094,155.08999633789062,125.62399291992188,101.87100219726562,84.82099914550781],"timestamp_mouse":[72,87,107,127,147,167,188,207,227,247,267,288,307,327,347,367,387,408,428,447,467,487,508,527,548,567,588,608,628,647,668,688,708,730,748,768,788,808,828,848,868,888,908,928,948,968,988,1008,1028,1048,1068,1088],"xSR":350,"ySR":768,"xT1":30,"yT1":0,"xT2":670,"yT2":0,"toosoon":0,"cond_shown":"equaldotsize","ratio_trial":250,"smaller_num":"6","larger_num":"24","correct_side":2,"subjID":"412wm","gender":"No_gender","age":"No_age","school":"No_school"},{"start_time":1549383020648,"click_time":1549383021508,"finger_time":1549383021208,"fix_duration":577.1605019573016,"trial":3,"RT":560,"MT":300,"sideResp":2,"stimulus":"img/900/equaldotsize/L/4_Ratio_900_L_20_R_18.png","xmouse":[386,386,386,386,386,386,394,394.6199951171875,394.6199951171875,394.6199951171875,394.6199951171875,394.6199951171875,394.6199951171875,394.6199951171875,394.6199951171875,394,394,394,394.6669921875,394.6669921875,394.6669921875,394.6669921875,395.44500732421875,395.44500732421875,395.44500732421875,395.44500732421875,395.44500732421875,430.7330017089844,447.3009948730469,465.42498779296875,484.4909973144531,523.4530029296875,543.2919921875,564.3870239257812,585.7529907226562,604.27099609375,636.9099731445312,651.1220092773438,658.9219970703125,664.2860107421875,669.6370239257812,683.656982421875,691.4959716796875],"ymouse":[852,852,852,852,852,852,850,850.6669921875,850.6669921875,850.6669921875,850.6669921875,850.6669921875,850.6669921875,850.6669921875,850.6669921875,850,850,850,849.3330078125,849.3330078125,849.3330078125,848.6669921875,848.6669921875,848.6669921875,848.6669921875,848.6669921875,848.6669921875,742.1900024414062,703.531982421875,663.447021484375,625.81298828125,544.4660034179688,504.5250244140625,460.8529968261719,417.25299072265625,375.2439880371094,290.4679870605469,250.84197998046875,216.8350067138672,186.11099243164062,156.56700134277344,102.06800079345703,78.05899810791016],"timestamp_mouse":[2,21,69,80,100,120,140,160,180,200,220,240,260,280,300,320,340,360,380,400,420,440,460,480,500,520,540,560,580,600,621,642,660,680,700,720,742,760,780,800,820,843,860],"xSR":350,"ySR":768,"xT1":30,"yT1":0,"xT2":670,"yT2":0,"toosoon":0,"cond_shown":"equaldotsize","ratio_trial":900,"smaller_num":"18","larger_num":"20","correct_side":1,"subjID":"412wm","gender":"No_gender","age":"No_age","school":"No_school"},{"start_time":1549383024357,"click_time":1549383025529,"finger_time":1549383025128,"fix_duration":1447.4922257667497,"trial":4,"RT":771,"MT":401,"sideResp":1,"stimulus":"img/750/equaldotsize/L/6_Ratio_750_L_24_R_18.png","xmouse":[405,405,405,405,405,405,405,405,405,405,405,405,405,405,405,405,405,405,405,405,405,405,405,405,405,405,405,405,405,405,405,407.8210144042969,409.8030090332031,409.8030090332031,418.3420104980469,420.35198974609375,420.6669921875,421.3450012207031,422.4330139160156,420.1730041503906,413.8340148925781,403.57598876953125,388.2590026855469,369.9580078125,332.6260070800781,332.6260070800781,305.4620056152344,294.1549987792969,280.7030029296875,245.57699584960938,225.7969970703125,204.906005859375,184.17100524902344,165.125,130.48199462890625,117.4280014038086],"ymouse":[832,832,832,832,832,832,832,832,832,832,832,832,832,832,832,832,832,832,832,832,832,832,832,832,832,832,832,832,832,832,832,817.7940063476562,808.7890014648438,808.7890014648438,773.6229858398438,756.0070190429688,734.4660034179688,705.6749877929688,676.4990234375,635.5880126953125,616.2940063476562,596.7030029296875,577.2080078125,553.906005859375,489.9570007324219,489.9570007324219,420.85400390625,384.4339904785156,346.5090026855469,263.8529968261719,226.99200439453125,197.0449981689453,172.33799743652344,152.55799865722656,112.23800659179688,90.66500091552734],"timestamp_mouse":[74,91,111,131,151,171,191,211,231,251,271,291,311,331,351,371,391,411,431,451,471,491,511,531,551,571,591,611,631,651,671,692,712,731,752,771,791,811,831,852,871,891,911,931,952,973,991,1011,1031,1053,1072,1091,1111,1131,1153,1171],"xSR":350,"ySR":768,"xT1":30,"yT1":0,"xT2":670,"yT2":0,"toosoon":0,"cond_shown":"equaldotsize","ratio_trial":750,"smaller_num":"18","larger_num":"24","correct_side":1,"subjID":"412wm","gender":"No_gender","age":"No_age","school":"No_school"},{"start_time":1549383027141,"click_time":1549383028871,"finger_time":1549383028709,"fix_duration":250,"trial":5,"RT":1568,"MT":162,"sideResp":2,"stimulus":"img/750/randomdotsizeEA/L/13_Ratio_750_L_8_R_6.png","xmouse":[388,388,388,388,388,388,388,388,388,388,388,388,388,388,388,388,388,388,388,388,388,388,388,388,388,388,388,388,388,388,388,388,388,388,388,388,388,388,388,388,388,388,388,388,388,388,388,388,388,388,388,388,388,388,388,388,388,388,388,388,388,388,388,392,392,392.6669921875,392.6669921875,392.6669921875,392.6669921875,392.6669921875,392.6669921875,392.6669921875,392.6669921875,392.6669921875,392.6669921875,392.6669921875,418.5429992675781,460.1449890136719,481.8890075683594,506.656005859375,535.0780029296875,572.1680297851562,657.4769897460938,692.4409790039062,718.02197265625],"ymouse":[853,853,853,853,853,853,853,853,853,853,853,853,853,853,853,853,853,853,853,853,853,853,853,853,853,853,853,853,853,853,853,853,853,853,853,853,853,853,853,853,853,853,853,853,853,853,853,853,853,853,853,853,853,853,853,853,853,853,853,853,853,853,853,846,846,845.3330078125,845.3330078125,845.3330078125,845.3330078125,845.3330078125,845.3330078125,845.3330078125,845.3330078125,845.3330078125,845.3330078125,845.3330078125,735.1619873046875,595.0289916992188,530.333984375,464.61199951171875,395.3789978027344,320.68701171875,185.11500549316406,138.41600036621094,97.90399932861328],"timestamp_mouse":[8,75,88,108,128,148,168,188,208,228,248,268,288,308,328,348,368,388,408,428,448,468,488,508,528,548,568,588,608,628,648,668,688,708,728,748,768,788,808,828,848,868,888,908,928,948,968,988,1008,1028,1048,1068,1088,1108,1128,1148,1168,1188,1208,1228,1248,1268,1288,1308,1328,1348,1368,1388,1408,1428,1448,1468,1490,1508,1528,1548,1568,1589,1608,1628,1648,1668,1694,1719,1729],"xSR":350,"ySR":768,"xT1":30,"yT1":0,"xT2":670,"yT2":0,"toosoon":0,"cond_shown":"randomdotsizeEA","ratio_trial":750,"smaller_num":"6","larger_num":"8","correct_side":1,"subjID":"412wm","gender":"No_gender","age":"No_age","school":"No_school"},{"start_time":1549383031540,"click_time":1549383032750,"finger_time":1549383032390,"fix_duration":1289.9352926568224,"trial":6,"RT":850,"MT":360,"sideResp":2,"stimulus":"img/750/equaldotanddens/R/5_Ratio_750_L_15_R_20.png","xmouse":[382,382,382,382,382,382,382,382,382,382,382,382,382,382,382,382,382,382,382,382,382,382,382,382,382,380,379.1440124511719,379.1440124511719,379.1440124511719,379.1440124511719,379.1440124511719,379.1440124511719,379.1440124511719,379.1440124511719,379.1440124511719,379.1440124511719,384.1409912109375,384.1409912109375,384.1409912109375,384.1409912109375,404.1059875488281,416.0589904785156,429.3699951171875,444.0780029296875,483.91400146484375,507.489990234375,529.5800170898438,555.9940185546875,581.385009765625,619.843017578125,631.4249877929688,637.530029296875,644.3519897460938,656.4290161132812,659.7559814453125,663.0070190429688,663.0070190429688,663.0070190429688,694.6669921875],"ymouse":[843,843,843,843,843,843,843,843,843,843,843,843,843,843,843,843,843,843,843,843,843,843,843,843,843,835,834.4769897460938,834.4769897460938,834.4769897460938,834.4769897460938,834.4769897460938,834.4769897460938,834.4769897460938,834.4769897460938,834.4769897460938,834.4769897460938,831.4739990234375,831.4739990234375,831.4739990234375,831.4739990234375,745.1259765625,708.9130249023438,665.2059936523438,610.0800170898438,481.0580139160156,421.260986328125,371.27899169921875,313.5199890136719,255.03399658203125,155.5279998779297,115.12799072265625,85.21299743652344,60.513999938964844,35.52299880981445,35.33300018310547,36.893001556396484,36.893001556396484,36.893001556396484,73.33300018310547],"timestamp_mouse":[69,69,89,109,129,149,169,189,209,229,249,269,289,309,329,349,370,390,411,430,449,469,489,509,529,550,570,590,610,630,649,669,690,709,730,749,770,790,810,829,850,870,890,910,929,950,970,990,1010,1030,1050,1070,1090,1111,1130,1150,1170,1190,1210],"xSR":350,"ySR":768,"xT1":30,"yT1":0,"xT2":670,"yT2":0,"toosoon":0,"cond_shown":"equaldotanddens","ratio_trial":750,"smaller_num":"15","larger_num":"20","correct_side":2,"subjID":"412wm","gender":"No_gender","age":"No_age","school":"No_school"},{"start_time":1549383034702,"click_time":1549383036110,"finger_time":1549383035950,"fix_duration":250,"trial":7,"RT":1248,"MT":160,"sideResp":2,"stimulus":"img/500/randomdotsizeEA/R/12_Ratio_500_L_1_R_2.png","xmouse":[417.3330078125,417.3330078125,417.3330078125,417.3330078125,417.3330078125,417.3330078125,417.3330078125,417.3330078125,419.3330078125,419.3330078125,419.3330078125,419.3330078125,419.3330078125,419.3330078125,419.3330078125,419.3330078125,419.3330078125,419.3330078125,420,420,420,420,420,420,420,420,420,420,420,420,420,420,420,420,420,419.3330078125,419.3330078125,419.3330078125,419.3330078125,419.3330078125,419.3330078125,419.3330078125,419.3330078125,419.3330078125,419.3330078125,418,418,418,418,418,418,418,418,418,418,417.3330078125,417.3330078125,417.3330078125,417.3330078125,417.3330078125,456.77099609375,474.1570129394531,514,541.3150024414062,568.447021484375,600.176025390625,629.5780029296875,686.3150024414062,708.6909790039062],"ymouse":[847.3330078125,847.3330078125,847.3330078125,847.3330078125,847.3330078125,847.3330078125,847.3330078125,847.3330078125,853.3330078125,853.3330078125,853.3330078125,853.3330078125,853.3330078125,853.3330078125,853.3330078125,853.3330078125,853.3330078125,853.3330078125,854,853,853,853,853,854,854,854,854,854,854,854,854,854,854,854,854,854.6669921875,854.6669921875,854.6669921875,854.6669921875,854.6669921875,854.6669921875,854.6669921875,854.6669921875,854.6669921875,854.6669921875,854,854,854,854,854,854,854,854,854,854,853.3330078125,853.3330078125,853.3330078125,853.3330078125,853.3330078125,712.7630004882812,644.10498046875,511.1669921875,437.4079895019531,364.6969909667969,294.8900146484375,230.1490020751953,112.7030029296875,73.21800231933594],"timestamp_mouse":[8,71,88,108,128,148,168,188,208,228,248,270,288,308,328,348,368,388,408,428,448,468,488,508,528,548,569,588,608,628,648,669,688,708,728,748,768,788,808,828,848,868,888,908,928,948,968,988,1008,1028,1048,1068,1088,1108,1128,1148,1168,1188,1208,1228,1248,1268,1288,1308,1328,1348,1368,1388,1408],"xSR":350,"ySR":768,"xT1":30,"yT1":0,"xT2":670,"yT2":0,"toosoon":0,"cond_shown":"randomdotsizeEA","ratio_trial":500,"smaller_num":"1","larger_num":"2","correct_side":2,"subjID":"412wm","gender":"No_gender","age":"No_age","school":"No_school"},{"start_time":1549383038857,"click_time":1549383040051,"finger_time":1549383039791,"fix_duration":1444.337325930431,"trial":8,"RT":934,"MT":260,"sideResp":1,"stimulus":"img/500/equaldotanddens/L/8_Ratio_500_L_8_R_4.png","xmouse":[379,379,379,379,379,379,379,379,379,379,379,378,378,378,378,378,378,378,378,378,378,378,378,378,378,378,378,378,378,378,378,378,378.6669921875,378.6669921875,378.6669921875,378.6669921875,378.6669921875,378.6669921875,378.6669921875,378.6669921875,378.6669921875,378.6669921875,363.8269958496094,363.8269958496094,341.5379943847656,329.0469970703125,317.7950134277344,303.0509948730469,284.0270080566406,262.2799987792969,221.7209930419922,202.46299743652344,185.56700134277344,169.49899291992188,154.74000549316406,126.11199951171875,113.21099853515625,105.08200073242188],"ymouse":[822,822,822,822,822,822,822,822,822,822,822,822,822,822,822,822,822,822,822,822,822,820,820,820,820,820,820,820,820,820,820,820,818.6669921875,818.6669921875,818.6669921875,818.6669921875,818.6669921875,818.6669921875,818.6669921875,818.6669921875,818.6669921875,818.6669921875,780.5170288085938,780.5170288085938,698.0989990234375,618.6820068359375,573.8060302734375,529.0919799804688,483.6189880371094,437.9700012207031,349.1730041503906,303.84600830078125,259.0379943847656,219.75999450683594,185.20799255371094,130.22300720214844,105.37699890136719,85.35399627685547],"timestamp_mouse":[13,83,93,113,134,154,173,193,214,233,254,273,294,314,334,354,374,394,414,434,454,474,494,514,534,554,574,594,614,634,654,674,694,714,734,754,774,794,814,834,854,874,894,914,934,953,974,994,1014,1034,1054,1074,1094,1114,1134,1154,1174,1194],"xSR":350,"ySR":768,"xT1":30,"yT1":0,"xT2":670,"yT2":0,"toosoon":0,"cond_shown":"equaldotanddens","ratio_trial":500,"smaller_num":"4","larger_num":"8","correct_side":1,"subjID":"412wm","gender":"No_gender","age":"No_age","school":"No_school"},{"start_time":1549383041706,"click_time":1549383043033,"finger_time":1549383042791,"fix_duration":250,"trial":9,"RT":1085,"MT":242,"sideResp":1,"stimulus":"img/750/equaldotsize/L/13_Ratio_750_L_8_R_6.png","xmouse":[401,401,401,401,401,401,401,401,401,401,401,401,401,401,401,401,401,401,401,401,401,401,401,401,401,401,401,401,401,401,401,401,401,401,401,401,401,401,401,401,401,401,401,401,401,401,401,401,403.635986328125,398.9490051269531,398.9490051269531,378.5769958496094,369.96600341796875,347.2590026855469,331.0050048828125,310.6709899902344,291.5060119628906,268.3290100097656,220.1540069580078,194.31700134277344,168.41299438476562,143.51100158691406,121.07499694824219,102.44300079345703],"ymouse":[848,848,848,848,848,848,848,848,848,848,848,848,848,848,848,848,848,848,848,848,848,848,848,848,848,848,848,848,848,848,848,848,848,848,848,848,848,848,848,848,848,848,848,848,848,848,848,848,832.8469848632812,802.1190185546875,802.1190185546875,728.094970703125,688.5120239257812,609.1110229492188,560.2360229492188,504.0469970703125,448.1839904785156,389.656005859375,282.8489990234375,231.53799438476562,181.49200439453125,136.20599365234375,100.79900360107422,76.88700103759766],"timestamp_mouse":[71,85,105,125,145,165,185,205,225,245,265,285,305,325,345,365,385,405,425,445,465,485,505,525,545,565,585,605,625,645,665,685,705,725,745,765,785,805,825,845,865,885,905,925,945,965,985,1005,1027,1045,1065,1085,1105,1125,1145,1165,1185,1205,1225,1245,1265,1285,1305,1327],"xSR":350,"ySR":768,"xT1":30,"yT1":0,"xT2":670,"yT2":0,"toosoon":0,"cond_shown":"equaldotsize","ratio_trial":750,"smaller_num":"6","larger_num":"8","correct_side":1,"subjID":"412wm","gender":"No_gender","age":"No_age","school":"No_school"},{"start_time":1549383044643,"click_time":1549383045533,"finger_time":1549383045291,"fix_duration":250,"trial":10,"RT":648,"MT":242,"sideResp":2,"stimulus":"img/750/equaldotanddens/R/3_Ratio_750_L_15_R_20.png","xmouse":[399,399,399,399,399,399,399,399,399,399,399,399,399,399,399,399,399,399,399,399,399,399,399,399,399,399,399,399,399,408.2139892578125,421.510009765625,421.510009765625,473.2330017089844,492.3580017089844,514.718017578125,538.7670288085938,560.31298828125,578.1610107421875,610.6409912109375,626.239990234375,638.9219970703125,650.010986328125,673.2769775390625],"ymouse":[822,822,822,822,822,822,822,822,822,822,822,822,822,822,822,822,822,822,822,822,822,822,822,822,822,822,822,822,822,804.3699951171875,758.719970703125,758.719970703125,598.7919921875,543.0570068359375,479.34698486328125,417.4419860839844,366.2439880371094,324.0690002441406,241.79901123046875,203.45599365234375,169,141.125,86.61299896240234],"timestamp_mouse":[10,78,88,108,128,148,168,188,208,228,248,268,288,308,328,348,368,388,408,428,448,468,488,508,528,548,568,588,608,628,648,668,689,709,728,748,768,788,808,828,848,868,889],"xSR":350,"ySR":768,"xT1":30,"yT1":0,"xT2":670,"yT2":0,"toosoon":0,"cond_shown":"equaldotanddens","ratio_trial":750,"smaller_num":"15","larger_num":"20","correct_side":2,"subjID":"412wm","gender":"No_gender","age":"No_age","school":"No_school"},{"start_time":1549383047837,"click_time":1549383049532,"finger_time":1549383049052,"fix_duration":1483.309146248211,"trial":11,"RT":1215,"MT":480,"sideResp":1,"stimulus":"img/750/randomdotsizeEA/R/7_Ratio_750_L_3_R_4.png","xmouse":[402.6669921875,402.6669921875,402.6669921875,402.6669921875,402.6669921875,402.6669921875,402.6669921875,402.6669921875,402,402,402,402,402,402,402,402,402,402,402,402,402,402,402,402,402,402,402,402,402,402,402,402,402,401,401,401,401,401,401,401,401,401,401,400,400,400,400,400,400,400,400,400,400,389.375,384.65301513671875,384.65301513671875,375.7300109863281,371.3800048828125,368.447998046875,365.7650146484375,365.3330078125,364.2699890136719,363.1919860839844,361.4460144042969,359.2959899902344,358,358,358,358,358,351.74700927734375,344.06500244140625,335.02899169921875,324.50799560546875,287.0580139160156,259.9230041503906,233.61900329589844,209.2519989013672,186.8070068359375,146.0959930419922,130.90199279785156,119.05799865722656,113.91300201416016],"ymouse":[822.3880004882812,822.3880004882812,822.3880004882812,822.3880004882812,822.3880004882812,822.3880004882812,822.3880004882812,822.3880004882812,822,822,822,822,822,822,822,822,822,822,822,822,822,822,822,822,822,822,822,822,822,822,822,822,822,822,822,822,822,822,822,822,822,822,822,815,815,815,815,815,815,815,815,815,815,800.718017578125,794.6530151367188,794.6530151367188,780.1259765625,770.4390258789062,756.4600219726562,729.4130249023438,718.81201171875,708.4320068359375,698.72802734375,691.89697265625,685.2960205078125,684,684,684,684,684,670.1370239257812,641.6010131835938,601.572021484375,559.5150146484375,483.0570068359375,431.17999267578125,371.2909851074219,311.4639892578125,264.9469909667969,187.8350067138672,147.6580047607422,112.7760009765625,84.23100280761719],"timestamp_mouse":[15,87,95,115,135,155,175,195,215,235,255,275,295,315,335,356,375,395,415,435,455,475,495,515,535,555,575,595,615,635,655,675,695,715,735,755,775,795,818,835,855,875,895,915,935,955,976,995,1017,1035,1055,1075,1095,1116,1136,1155,1175,1195,1215,1235,1255,1275,1295,1315,1335,1355,1375,1395,1415,1435,1455,1475,1495,1515,1535,1555,1575,1595,1615,1636,1655,1675,1695],"xSR":350,"ySR":768,"xT1":30,"yT1":0,"xT2":670,"yT2":0,"toosoon":0,"cond_shown":"randomdotsizeEA","ratio_trial":750,"smaller_num":"3","larger_num":"4","correct_side":2,"subjID":"412wm","gender":"No_gender","age":"No_age","school":"No_school"},{"start_time":1549383051420,"click_time":1549383052353,"finger_time":1549383052192,"fix_duration":866.9890710912478,"trial":12,"RT":772,"MT":161,"sideResp":2,"stimulus":"img/900/randomdotsize/L/1_Ratio_900_L_10_R_9.png","xmouse":[380.6669921875,380.6669921875,380.6669921875,380.6669921875,380.6669921875,380.6669921875,380.6669921875,380.6669921875,380.6669921875,380.6669921875,380.6669921875,380.6669921875,380.6669921875,380.6669921875,380.6669921875,380.6669921875,380.6669921875,380.6669921875,380.6669921875,380.6669921875,380.6669921875,380.6669921875,380.6669921875,380.6669921875,380.6669921875,380,380,380,380,380,380,380,380,380,380,414.7749938964844,414.7749938964844,499.4800109863281,524.3410034179688,547.9559936523438,571.4940185546875,595.3699951171875,647.2670288085938,671.0830078125,690.47900390625,698.18798828125],"ymouse":[837.3330078125,837.3330078125,837.3330078125,837.3330078125,837.3330078125,837.3330078125,837.3330078125,837.3330078125,837.3330078125,837.3330078125,837.3330078125,837.3330078125,837.3330078125,837.3330078125,837.3330078125,837.3330078125,837.3330078125,837.3330078125,837.3330078125,837.3330078125,837.3330078125,837.3330078125,837.3330078125,837.3330078125,837.3330078125,836,836,836,836,836,836,836,836,836,836,786.3820190429688,786.3820190429688,599.0570068359375,523.0490112304688,451.1470031738281,388.5010070800781,328.9110107421875,218.1280059814453,165.48300170898438,118.04400634765625,84.71900177001953],"timestamp_mouse":[12,32,88,92,112,132,152,174,192,212,232,252,273,292,312,332,352,372,392,412,432,452,472,492,512,532,552,572,592,612,632,652,672,692,712,732,753,772,792,812,832,852,873,892,912,932],"xSR":350,"ySR":768,"xT1":30,"yT1":0,"xT2":670,"yT2":0,"toosoon":0,"cond_shown":"randomdotsize","ratio_trial":900,"smaller_num":"9","larger_num":"10","correct_side":1,"subjID":"412wm","gender":"No_gender","age":"No_age","school":"No_school"},{"start_time":1549383054144,"click_time":1549383055415,"finger_time":1549383055133,"fix_duration":250,"trial":13,"RT":989,"MT":282,"sideResp":2,"stimulus":"img/900/equaldotsize/R/9_Ratio_900_L_18_R_20.png","xmouse":[418,418,418,418,418,418,418,418,418,418,418,418,418,418,418,418,418,418,418,418,418,418,418,418,418,418,418,418,418,418,418,418,418,418,418,418,418,418,418,418,418,418,418,418,418,418.0480041503906,422.2929992675781,434.80999755859375,443.1809997558594,452.51300048828125,462.1990051269531,493.4939880371094,514.6060180664062,537.4580078125,556.2169799804688,575.9910278320312,606.4810180664062,622.3200073242188,637.3569946289062,654.2000122070312,668.8989868164062,690.8720092773438],"ymouse":[804,804,804,804,804,804,804,804,804,804,804,804,804,804,804,804,804,804,804,804,804,804,804,804,804,804,804,804,804,804,804,804,804,804,804,804,804,804,804,804,804,804,804,804,804,793.9639892578125,768.0009765625,695.6920166015625,663.572021484375,631.7440185546875,598.1309814453125,521.2789916992188,478.1210021972656,432.3500061035156,387.0539855957031,338.8380126953125,245.3179931640625,204.1020050048828,165.7519989013672,127.38299560546875,101.46900177001953,68.98300170898438],"timestamp_mouse":[67,69,89,109,129,149,169,189,209,229,249,269,289,309,329,349,369,389,409,429,449,469,489,509,529,549,569,589,609,629,649,669,689,709,729,749,769,789,809,829,849,869,889,909,929,949,969,989,1009,1029,1049,1070,1089,1109,1129,1149,1169,1189,1209,1229,1249,1270],"xSR":350,"ySR":768,"xT1":30,"yT1":0,"xT2":670,"yT2":0,"toosoon":0,"cond_shown":"equaldotsize","ratio_trial":900,"smaller_num":"18","larger_num":"20","correct_side":2,"subjID":"412wm","gender":"No_gender","age":"No_age","school":"No_school"},{"start_time":1549383058087,"click_time":1549383059274,"finger_time":1549383058993,"fix_duration":1030.1353821310504,"trial":14,"RT":906,"MT":281,"sideResp":1,"stimulus":"img/750/equaldotanddens/L/1_Ratio_750_L_20_R_15.png","xmouse":[401,401,401,401,401,401,401,401,401,401,401,401,401,401,401,401,401,401,401,401,401,401,401,401,401,401,401,401,401,401,401,401,401,401,401,401,401,401,401,401,401,398.7640075683594,391.81500244140625,380.88299560546875,370.8789978027344,344.989990234375,325.47198486328125,306.8689880371094,306.8689880371094,274.0450134277344,245.1009979248047,228.73899841308594,210.0279998779297,187.677001953125,167.0709991455078,133.4239959716797,120.8489990234375,109.09500122070312],"ymouse":[833,833,833,833,833,833,833,833,833,833,833,833,833,833,833,833,833,833,833,833,833,833,833,833,833,833,833,833,833,833,833,833,833,833,833,833,833,833,833,833,833,821.5360107421875,775.531005859375,720.1929931640625,672.989990234375,610.0650024414062,577.6290283203125,540.4140014648438,540.4140014648438,452.1310119628906,361.75,322.6319885253906,283.7430114746094,246.26800537109375,208.6009979248047,138.53199768066406,109.3239974975586,84.85600280761719],"timestamp_mouse":[9,75,86,106,126,146,166,186,206,226,246,266,286,306,326,346,366,386,406,426,446,466,486,506,526,546,566,586,606,626,646,666,686,706,726,746,766,786,806,826,846,866,886,906,926,946,966,986,1006,1026,1046,1067,1086,1106,1126,1146,1166,1186],"xSR":350,"ySR":768,"xT1":30,"yT1":0,"xT2":670,"yT2":0,"toosoon":0,"cond_shown":"equaldotanddens","ratio_trial":750,"smaller_num":"15","larger_num":"20","correct_side":1,"subjID":"412wm","gender":"No_gender","age":"No_age","school":"No_school"},{"start_time":1549383060905,"click_time":1549383061756,"finger_time":1549383061554,"fix_duration":250,"trial":15,"RT":649,"MT":202,"sideResp":2,"stimulus":"img/250/equaldotanddens/R/8_Ratio_250_L_1_R_4.png","xmouse":[399,399,399,399,399,399,399,399,399,399,399,399,399,399,399,399,399,399,399,399,399,399,399,399,399,399,399,399,405.6610107421875,420.7120056152344,463.0379943847656,488.8559875488281,516.4030151367188,544.64599609375,597.0560302734375,616.4340209960938,636.9639892578125,655.2509765625,671.4559936523438,683.5250244140625,699.780029296875],"ymouse":[859,859,859,859,859,859,859,859,859,859,859,859,859,859,859,859,859,859,859,859,859,859,859,859,859,859,859,859,836.426025390625,790.531005859375,674.6610107421875,609.7119750976562,538.9450073242188,470.6659851074219,358.6449890136719,310.7909851074219,255.06100463867188,207.15899658203125,162.86399841308594,126.09300231933594,56.8800048828125],"timestamp_mouse":[68,69,89,109,129,149,169,189,209,229,249,269,289,309,329,349,369,389,409,429,449,469,489,509,529,549,569,589,609,629,649,669,689,709,730,751,769,789,809,829,850],"xSR":350,"ySR":768,"xT1":30,"yT1":0,"xT2":670,"yT2":0,"toosoon":0,"cond_shown":"equaldotanddens","ratio_trial":250,"smaller_num":"1","larger_num":"4","correct_side":2,"subjID":"412wm","gender":"No_gender","age":"No_age","school":"No_school"},{"start_time":1549383063264,"click_time":1549383064458,"finger_time":1549383064155,"fix_duration":668.0438587971072,"trial":16,"RT":891,"MT":303,"sideResp":1,"stimulus":"img/250/randomdotsizeEA/L/7_Ratio_250_L_8_R_2.png","xmouse":[370.6669921875,370.6669921875,370.6669921875,370.6669921875,370.6669921875,370.6669921875,370.6669921875,370.6669921875,370.6669921875,370.6669921875,370,370,370,370,370,370,370,370,370,370,370,370,370,370,370,370,370,369.4519958496094,369.4519958496094,369.4519958496094,369.4519958496094,369.4519958496094,369.4519958496094,369.4519958496094,369.4519958496094,369.4519958496094,369.4519958496094,369.4519958496094,365.39300537109375,365.39300537109375,365.39300537109375,365.39300537109375,337.18499755859375,325.906005859375,314.0840148925781,302.1520080566406,290.27301025390625,265.90899658203125,251.39398193359375,234.0189971923828,213.15199279785156,192.13099670410156,150.99400329589844,135.68299865722656,122.18499755859375,111.85600280761719,103.34100341796875,89.06800079345703],"ymouse":[856.6669921875,856.6669921875,856.6669921875,856.6669921875,856.6669921875,856.6669921875,856.6669921875,856.6669921875,856.6669921875,856.6669921875,856,856,856,856,856,856,856,856,856,856,853,853,853,853,853,853,853,842.7860107421875,842.7860107421875,842.7860107421875,842.7860107421875,842.7860107421875,842.7860107421875,842.7860107421875,842.7860107421875,842.7860107421875,842.7860107421875,842.7860107421875,844.6669921875,844.6669921875,844.6669921875,844.6669921875,752.781982421875,722.1160278320312,689.2680053710938,650.0889892578125,606.4349975585938,518.5670166015625,477.54998779296875,442.7850036621094,402.67999267578125,358.52801513671875,268.32000732421875,229.8509979248047,192.74600219726562,156.41900634765625,124.69900512695312,66.89600372314453],"timestamp_mouse":[65,70,90,110,130,150,170,190,210,230,250,270,290,310,330,350,370,390,411,431,450,470,490,510,530,550,570,590,610,630,650,670,691,710,730,750,770,791,810,830,850,870,891,910,930,950,970,993,1010,1030,1050,1070,1094,1110,1130,1150,1170,1194],"xSR":350,"ySR":768,"xT1":30,"yT1":0,"xT2":670,"yT2":0,"toosoon":0,"cond_shown":"randomdotsizeEA","ratio_trial":250,"smaller_num":"2","larger_num":"8","correct_side":1,"subjID":"412wm","gender":"No_gender","age":"No_age","school":"No_school"},{"start_time":1549383066971,"click_time":1549383068295,"finger_time":1549383068075,"fix_duration":1215.0641831401783,"trial":17,"RT":1104,"MT":220,"sideResp":1,"stimulus":"img/500/randomdotsize/L/4_Ratio_500_L_18_R_9.png","xmouse":[417.3330078125,417.3330078125,417.3330078125,417.3330078125,417.3330078125,417.3330078125,417.3330078125,417.3330078125,417.3330078125,417.3330078125,417.3330078125,417.3330078125,417.3330078125,417.3330078125,417.3330078125,417.3330078125,417.3330078125,417.3330078125,417.3330078125,417.3330078125,417.3330078125,417.3330078125,417.3330078125,417.3330078125,417.3330078125,417.3330078125,417.3330078125,417.3330078125,417.3330078125,417.3330078125,417.3330078125,417.3330078125,416.6669921875,416.6669921875,416.6669921875,416.6669921875,416.6669921875,416.6669921875,416.6669921875,416.6669921875,416.6669921875,416.6669921875,416.6289978027344,416.6289978027344,416.6289978027344,416.6289978027344,416.6289978027344,416.6289978027344,416.6289978027344,416.6289978027344,416.6289978027344,416.6289978027344,416.6289978027344,221.78199768066406,221.78199768066406,221.78199768066406,221.78199768066406,221.78199768066406,221.78199768066406,221.78199768066406,221.78199768066406,221.78199768066406,221.78199768066406,221.78199768066406,84],"ymouse":[811.3330078125,811.3330078125,811.3330078125,811.3330078125,811.3330078125,811.3330078125,811.3330078125,811.3330078125,811.3330078125,811.3330078125,811.3330078125,811.3330078125,811.3330078125,811.3330078125,811.3330078125,811.3330078125,811.3330078125,811.3330078125,811.3330078125,811.3330078125,811.3330078125,811.3330078125,810.4940185546875,810.4940185546875,810.4940185546875,810.4940185546875,810.4940185546875,810.4940185546875,810.4940185546875,810.4940185546875,810.4940185546875,810.4940185546875,808.6669921875,808.6669921875,808.6669921875,808.6669921875,808.6669921875,808.6669921875,808.6669921875,808.6669921875,808.6669921875,808.6669921875,777.1079711914062,777.1079711914062,777.1079711914062,777.1079711914062,777.1079711914062,777.1079711914062,777.1079711914062,777.1079711914062,777.1079711914062,777.1079711914062,777.1079711914062,358.1210021972656,358.1210021972656,358.1210021972656,358.1210021972656,358.1210021972656,358.1210021972656,358.1210021972656,358.1210021972656,358.1210021972656,358.1210021972656,358.1210021972656,34],"timestamp_mouse":[7,23,96,103,123,143,163,183,203,223,244,263,283,303,323,343,363,383,405,423,443,463,484,503,523,544,564,584,603,623,643,664,684,704,724,744,764,784,804,824,844,864,884,904,924,944,964,984,1004,1024,1044,1064,1084,1104,1124,1144,1164,1184,1204,1224,1244,1264,1284,1304,1324],"xSR":350,"ySR":768,"xT1":30,"yT1":0,"xT2":670,"yT2":0,"toosoon":0,"cond_shown":"randomdotsize","ratio_trial":500,"smaller_num":"9","larger_num":"18","correct_side":1,"subjID":"412wm","gender":"No_gender","age":"No_age","school":"No_school"},{"start_time":1549383070196,"click_time":1549383071495,"finger_time":1549383071295,"fix_duration":660.1265177032981,"trial":18,"RT":1099,"MT":200,"sideResp":1,"stimulus":"img/750/randomdotsize/R/11_Ratio_750_L_12_R_16.png","xmouse":[416,416,416,412.6669921875,412.6669921875,412.6669921875,412.6669921875,412.6669921875,412.6669921875,412.6669921875,412.6669921875,412.6669921875,412.6669921875,412.6669921875,412.6669921875,412.6669921875,412.6669921875,412.6669921875,412.6669921875,412.6669921875,412.6669921875,412.6669921875,412.6669921875,412.6669921875,412.6669921875,412.6669921875,412.6669921875,412.6669921875,412.6669921875,412.6669921875,412.6669921875,413.08599853515625,413.08599853515625,413.08599853515625,413.08599853515625,413.08599853515625,413.08599853515625,413.08599853515625,413.08599853515625,413.08599853515625,413.08599853515625,413.08599853515625,399.2550048828125,399.2550048828125,399.2550048828125,399.2550048828125,399.2550048828125,399.2550048828125,399.2550048828125,399.2550048828125,399.2550048828125,399.2550048828125,283.29998779296875,283.29998779296875,283.29998779296875,283.29998779296875,283.29998779296875,283.29998779296875,283.29998779296875,283.29998779296875,283.29998779296875,283.29998779296875,68.74600219726562],"ymouse":[804,804,804,811.3770141601562,811.3330078125,811.3330078125,811.3330078125,811.3330078125,811.3330078125,811.3330078125,811.3330078125,811.3330078125,811.3330078125,811.3330078125,811.3330078125,811.3330078125,811.3330078125,811.3330078125,811.3330078125,811.3330078125,811.3330078125,810.5579833984375,810.5579833984375,810.5579833984375,810.5579833984375,810.5579833984375,810.5579833984375,810.5579833984375,810.5579833984375,810.5579833984375,810.5579833984375,808.6669921875,808.6669921875,808.6669921875,808.6669921875,808.6669921875,808.6669921875,808.6669921875,808.6669921875,808.6669921875,808.6669921875,808.6669921875,779.3460083007812,779.3460083007812,779.3460083007812,779.3460083007812,779.3460083007812,779.3460083007812,779.3460083007812,779.3460083007812,779.3460083007812,779.3460083007812,405.96600341796875,405.96600341796875,405.96600341796875,405.96600341796875,405.96600341796875,405.96600341796875,405.96600341796875,405.96600341796875,405.96600341796875,405.96600341796875,48.40399932861328],"timestamp_mouse":[65,79,99,119,139,159,179,199,219,239,259,279,299,319,339,359,379,399,419,439,459,479,499,519,539,559,579,599,619,639,659,679,699,719,739,759,779,799,819,839,859,879,899,919,939,959,979,999,1019,1039,1059,1079,1099,1119,1139,1159,1179,1199,1219,1239,1259,1279,1299],"xSR":350,"ySR":768,"xT1":30,"yT1":0,"xT2":670,"yT2":0,"toosoon":0,"cond_shown":"randomdotsize","ratio_trial":750,"smaller_num":"12","larger_num":"16","correct_side":2,"subjID":"412wm","gender":"No_gender","age":"No_age","school":"No_school"},{"start_time":1549383073659,"click_time":1549383074857,"finger_time":1549383074595,"fix_duration":942.4093380251586,"trial":19,"RT":936,"MT":262,"sideResp":2,"stimulus":"img/750/randomdotsize/L/8_Ratio_750_L_4_R_3.png","xmouse":[399.3330078125,399.3330078125,399.3330078125,399.3330078125,399.3330078125,399.3330078125,399.3330078125,399.3330078125,399.3330078125,399.3330078125,399.3330078125,399.3330078125,398.6669921875,398.6669921875,398.6669921875,398.6669921875,398.6669921875,398.6669921875,398.6669921875,398.6669921875,398.6669921875,398.6669921875,398.6669921875,398.6669921875,398.6669921875,398.6669921875,398.6669921875,398.6669921875,398.6669921875,398.6669921875,398.6669921875,398.6669921875,398.6669921875,398.6669921875,398,398,398,398,398,398,398,398,398,398,572.4030151367188,572.4030151367188,572.4030151367188,572.4030151367188,572.4030151367188,572.4030151367188,572.4030151367188,572.4030151367188,572.4030151367188,572.4030151367188,572.4030151367188,776.0230102539062,776.0230102539062,768.6669921875],"ymouse":[809.3330078125,809.3330078125,808.6669921875,808.6669921875,808.6669921875,808.6669921875,808.6669921875,808.6669921875,808.6669921875,808.6669921875,808.6669921875,808.6669921875,809.3330078125,809.3330078125,809.3330078125,809.3330078125,809.3330078125,809.3330078125,809.3330078125,809.3330078125,809.3330078125,809.3330078125,809.3330078125,807.8590087890625,807.8590087890625,807.8590087890625,807.8590087890625,807.8590087890625,807.8590087890625,807.8590087890625,807.8590087890625,807.8590087890625,807.8590087890625,807.8590087890625,806,806,806,806,806,806,806,806,806,806,407.1440124511719,407.1440124511719,407.1440124511719,407.1440124511719,407.1440124511719,407.1440124511719,407.1440124511719,407.1440124511719,407.1440124511719,407.1440124511719,407.1440124511719,5.333000183105469,5.333000183105469,15.333000183105469],"timestamp_mouse":[75,76,96,116,136,156,176,196,216,236,256,276,296,316,336,356,376,396,416,436,456,476,496,516,536,556,576,596,616,636,656,676,697,717,737,756,776,796,816,837,857,877,896,916,936,957,976,996,1017,1037,1057,1076,1097,1117,1137,1157,1177,1198],"xSR":350,"ySR":768,"xT1":30,"yT1":0,"xT2":670,"yT2":0,"toosoon":0,"cond_shown":"randomdotsize","ratio_trial":750,"smaller_num":"3","larger_num":"4","correct_side":1,"subjID":"412wm","gender":"No_gender","age":"No_age","school":"No_school"},{"start_time":1549383076497,"click_time":1549383077536,"finger_time":1549383077257,"fix_duration":640.0820508172307,"trial":20,"RT":760,"MT":279,"sideResp":2,"stimulus":"img/500/equaldotsize/R/1_Ratio_500_L_9_R_18.png","xmouse":[411,411,411,411,411,411,411,411,411,411,411,411,411,411,411,411,411,411,411,411,411,411,411,411,411,411,411,411,411,411,411,411,411,411,411,411,416.5820007324219,416.5820007324219,436.7900085449219,451.510986328125,484.1210021972656,502.9700012207031,524.4910278320312,546.7730102539062,572.75,596.4949951171875,636.6019897460938,650.656982421875,662.968017578125,671.5009765625,678.0009765625],"ymouse":[797,797,797,797,797,797,797,797,797,797,797,797,797,797,797,797,797,797,797,797,797,797,797,797,797,797,797,797,797,797,797,797,797,797,797,797,763.9409790039062,763.9409790039062,686.22900390625,637.0460205078125,519.0700073242188,453.4179992675781,389.8609924316406,333.3840026855469,277.26300048828125,237.1739959716797,170.43099975585938,144.63499450683594,124.47698974609375,107.68599700927734,93.5530014038086],"timestamp_mouse":[19,73,79,99,119,139,159,179,199,219,239,259,279,300,319,339,359,379,399,419,439,459,479,499,519,539,559,579,599,619,639,659,679,699,719,739,760,779,799,819,840,859,879,899,919,939,959,979,999,1019,1039],"xSR":350,"ySR":768,"xT1":30,"yT1":0,"xT2":670,"yT2":0,"toosoon":0,"cond_shown":"equaldotsize","ratio_trial":500,"smaller_num":"9","larger_num":"18","correct_side":2,"subjID":"412wm","gender":"No_gender","age":"No_age","school":"No_school"},{"start_time":1549383080805,"click_time":1549383081597,"finger_time":1549383081336,"fix_duration":1067.3548540543748,"trial":21,"RT":531,"MT":261,"sideResp":2,"stimulus":"img/250/randomdotsize/R/8_Ratio_250_L_1_R_4.png","xmouse":[392,392,392,392,392,392,392,392,392,392,392,392,392,392,392,392,392,392,392,398,398.6669921875,398.6669921875,400.23699951171875,406.760986328125,418.2099914550781,429.67401123046875,465.8909912109375,491.40399169921875,522.7849731445312,556.7730102539062,591.156005859375,640.676025390625,657.7130126953125,665.676025390625,671.4559936523438,674.7869873046875,673.7930297851562,672.0969848632812],"ymouse":[821,821,821,821,821,821,821,821,821,821,821,821,821,821,821,821,821,821,821,815,814.7890014648438,814.7890014648438,803.4619750976562,778.9019775390625,741.552978515625,705.5079956054688,626.885009765625,573.0159912109375,509.1719970703125,441.364990234375,380.84698486328125,284.81201171875,244.50701904296875,210.52999877929688,180.13499450683594,151.7030029296875,107.61000061035156,90.01499938964844],"timestamp_mouse":[11,74,91,111,131,151,171,191,211,231,251,271,291,311,331,351,371,391,411,431,452,471,491,511,531,551,574,591,611,631,651,672,691,711,731,751,773,792],"xSR":350,"ySR":768,"xT1":30,"yT1":0,"xT2":670,"yT2":0,"toosoon":0,"cond_shown":"randomdotsize","ratio_trial":250,"smaller_num":"1","larger_num":"4","correct_side":2,"subjID":"412wm","gender":"No_gender","age":"No_age","school":"No_school"},{"start_time":1549383084107,"click_time":1549383085637,"finger_time":1549383084657,"fix_duration":1128.7287361793667,"trial":22,"RT":550,"MT":980,"sideResp":1,"stimulus":"img/900/equaldotanddens/L/4_Ratio_900_L_20_R_18.png","xmouse":[429.3330078125,429.3330078125,429.3330078125,429.3330078125,429.3330078125,429.3330078125,429.3330078125,429.3330078125,429.3330078125,429.3330078125,429.3330078125,429.3330078125,429.3330078125,429.3330078125,429.3330078125,429.3330078125,429.3330078125,429.3330078125,429.3330078125,429.3330078125,429.3330078125,428.6669921875,428.6669921875,432.27099609375,435.49700927734375,442.59600830078125,452.95098876953125,479.07000732421875,494.0190124511719,509.4830017089844,524.364013671875,539.5850219726562,567.697021484375,575.7760009765625,583.125,593.4559936523438,599.864013671875,618.4099731445312,628.5260009765625,636.7169799804688,647.77099609375,658.5780029296875,668.4130249023438,673.8980102539062,677.5700073242188,679.8900146484375,682.7039794921875,686.1920166015625,686.6099853515625,686,686,686,686,686,686,686,686,680.822021484375,680.6669921875,679.3109741210938,675.1229858398438,664.6019897460938,641.4869995117188,579.1079711914062,555.7730102539062,527.2830200195312,485.49700927734375,377.6809997558594,321.90301513671875,321.90301513671875,321.90301513671875,174.2989959716797,110.11399841308594,92.25299835205078,81.64800262451172],"ymouse":[839.3330078125,838.3820190429688,838.3820190429688,838.3820190429688,838.3820190429688,838.3820190429688,838.3820190429688,838.3820190429688,838.3820190429688,838.3820190429688,838.3820190429688,838.6669921875,838.6669921875,838.6669921875,838.6669921875,838.6669921875,838.6669921875,838.6669921875,838.6669921875,838.6669921875,838.6669921875,829.0960083007812,829.0960083007812,792.2420043945312,770.6400146484375,745.385986328125,713.7839965820312,645.9140014648438,603.8939819335938,561.551025390625,521.635986328125,483.9049987792969,427.27301025390625,409.7799987792969,389.9580078125,367.2099914550781,346.5409851074219,299.8160095214844,277.0530090332031,255.21099853515625,231.57000732421875,209.51199340820312,182.5399932861328,175.32200622558594,171.24000549316406,168.77699279785156,165.27699279785156,163.33299255371094,163.33299255371094,163,163,163,163,163,163,163,163,186.35699462890625,189.53799438476562,193.4010009765625,203.74600219726562,222.8990020751953,250.98500061035156,291.906005859375,297.260009765625,302.70098876953125,309.4110107421875,317.031005859375,307.4330139160156,307.4330139160156,307.4330139160156,219.9320068359375,147.7530059814453,117.70098876953125,87.49700164794922],"timestamp_mouse":[10,78,90,110,130,150,170,190,210,230,250,270,290,310,330,350,370,390,410,430,450,470,490,510,530,550,570,593,610,630,650,670,692,710,730,750,770,791,810,830,850,870,893,910,930,950,970,992,1010,1030,1050,1070,1092,1110,1130,1150,1170,1190,1210,1230,1250,1270,1292,1310,1330,1350,1370,1390,1410,1430,1450,1470,1490,1510,1530],"xSR":350,"ySR":768,"xT1":30,"yT1":0,"xT2":670,"yT2":0,"toosoon":0,"cond_shown":"equaldotanddens","ratio_trial":900,"smaller_num":"18","larger_num":"20","correct_side":1,"subjID":"412wm","gender":"No_gender","age":"No_age","school":"No_school"},{"start_time":1549383089705,"click_time":1549383090798,"finger_time":1549383090558,"fix_duration":1446.939480780112,"trial":23,"RT":853,"MT":240,"sideResp":2,"stimulus":"img/750/equaldotsize/R/11_Ratio_750_L_12_R_16.png","xmouse":[360,360,360,360,360,360,360,360,360,360,360,360,360,360,360,360,360,360,360,360,360,360,360,362,362,362,362,362,362,362,362,362,362,361.3330078125,361.3330078125,361.3330078125,361.3330078125,361.3330078125,361.3330078125,361.3330078125,403.25201416015625,429.07000732421875,460.60699462890625,490.39898681640625,538.93798828125,560.8989868164062,583.8209838867188,604.9099731445312,622.4409790039062,652.5819702148438,661.2360229492188,666.948974609375,673.4180297851562],"ymouse":[862,862,862,862,862,862,862,862,862,862,862,862,862,862,862,862,862,862,862,862,862,862,862,864,864,864,864,864,864,864,864,864,864,864.6669921875,864.6669921875,864.6669921875,864.6669921875,864.6669921875,864.6669921875,864.6669921875,752.7230224609375,681.7239990234375,613.5430297851562,552.9010009765625,437.4010009765625,379.01800537109375,325.74200439453125,280.1199951171875,239.63800048828125,160.93800354003906,126.06300354003906,96.2030029296875,72.13400268554688],"timestamp_mouse":[13,88,93,113,133,153,173,193,213,233,253,273,293,313,333,353,373,393,413,433,453,473,493,513,533,553,573,593,613,633,653,673,693,714,733,753,773,793,813,833,853,873,893,913,933,953,973,993,1013,1033,1053,1073,1093],"xSR":350,"ySR":768,"xT1":30,"yT1":0,"xT2":670,"yT2":0,"toosoon":0,"cond_shown":"equaldotsize","ratio_trial":750,"smaller_num":"12","larger_num":"16","correct_side":2,"subjID":"412wm","gender":"No_gender","age":"No_age","school":"No_school"},{"start_time":1549383093624,"click_time":1549383094818,"finger_time":1549383094198,"fix_duration":1484.689107203676,"trial":24,"RT":574,"MT":620,"sideResp":1,"stimulus":"img/900/equaldotanddens/R/5_Ratio_900_L_9_R_10.png","xmouse":[402,402,402,402,402,402,402,402,402,402,402,402,402,402,402,402,402,402,402,402,402,402,402,402,416.9549865722656,416.9549865722656,427.5989990234375,429.9339904785156,431.38299560546875,434.22100830078125,434.6340026855469,434,432.39300537109375,429.68798828125,425.47601318359375,425.47601318359375,425.47601318359375,425.47601318359375,425.47601318359375,346.6929931640625,336.7659912109375,325.61199951171875,311.42401123046875,296.5539855957031,267.6050109863281,255.4169921875,242.93299865722656,229.218994140625,215.22000122070312,189.7310028076172,179.6739959716797,172.802001953125,166.41600036621094,159.0500030517578,145.04800415039062,137.89999389648438,132.97900390625,128.5050048828125],"ymouse":[842,842,842,842,842,842,842,842,842,842,842,842,842,842,842,842,842,842,842,842,842,842,842,842,805.3590087890625,805.3590087890625,760.135986328125,750.9320068359375,747.135009765625,740.0040283203125,738.7310180664062,737,736.530029296875,736.1179809570312,736.9639892578125,736.9639892578125,736.9639892578125,736.9639892578125,736.9639892578125,661.9420166015625,631.3460083007812,600.208984375,568.3619995117188,535.177978515625,460.81500244140625,425.0299987792969,385.9880065917969,349.6499938964844,315.75799560546875,251.031982421875,217.22500610351562,180.76800537109375,146.3939971923828,116.91299438476562,70.78199768066406,53.44999694824219,38.7599983215332,32.17599868774414],"timestamp_mouse":[71,74,94,114,134,154,174,194,214,234,254,274,294,314,334,354,374,394,414,434,454,474,494,514,536,554,574,594,614,636,654,674,694,714,736,754,774,794,814,834,854,874,894,914,934,954,974,994,1014,1036,1055,1074,1094,1114,1136,1154,1174,1194],"xSR":350,"ySR":768,"xT1":30,"yT1":0,"xT2":670,"yT2":0,"toosoon":0,"cond_shown":"equaldotanddens","ratio_trial":900,"smaller_num":"9","larger_num":"10","correct_side":2,"subjID":"412wm","gender":"No_gender","age":"No_age","school":"No_school"},{"start_time":1549383097263,"click_time":1549383098299,"finger_time":1549383097939,"fix_duration":1043.4576873963601,"trial":25,"RT":676,"MT":360,"sideResp":1,"stimulus":"img/250/equaldotsize/L/7_Ratio_250_L_8_R_2.png","xmouse":[425.3330078125,425.3330078125,425.3330078125,425.3330078125,425.3330078125,425.3330078125,425.3330078125,424.6669921875,424.6669921875,424.6669921875,424.6669921875,424.6669921875,424.6669921875,424.6669921875,424.6669921875,424.6669921875,424.6669921875,425.3330078125,426,426.3380126953125,426.6669921875,426.6669921875,426.6669921875,426.6669921875,425.8500061035156,426,425,424.5950012207031,421.7699890136719,418.1109924316406,406.8940124511719,388.7969970703125,365.2200012207031,318.2279968261719,292.7439880371094,266.9200134277344,244.875,225.92599487304688,197.468994140625,186.50999450683594,175.22000122070312,159.14100646972656,143.5279998779297,112.56800079345703,101.41899871826172,92.35700225830078,84.68599700927734,78.44200134277344,73.28199768066406,76.23899841308594],"ymouse":[829.3330078125,829.3330078125,829.3330078125,829.3330078125,829.3330078125,829.3330078125,829.3330078125,829.3330078125,829.3330078125,829.3330078125,829.3330078125,829.3330078125,829.3330078125,829.3330078125,829.3330078125,829.3330078125,829.3330078125,828.2540283203125,826,824.9959716796875,823.1920166015625,821.656982421875,819.5289916992188,813.0250244140625,809.5499877929688,806,804.0009765625,801.8569946289062,800.6669921875,798.7219848632812,787.833984375,765.4249877929688,730.3300170898438,659.7260131835938,620.3759765625,575.7780151367188,520.3179931640625,457.98199462890625,347.9440002441406,292.9330139160156,248.84600830078125,207.9010009765625,174.87899780273438,138.21600341796875,131.68299865722656,128.42300415039062,126.29100036621094,122.29400634765625,108.2020034790039,94.62699890136719],"timestamp_mouse":[16,85,96,116,136,156,176,196,216,236,256,276,296,316,336,356,376,396,417,436,456,476,496,516,536,556,576,596,616,636,656,676,696,718,736,756,776,796,817,836,856,876,896,919,936,956,976,996,1019,1036],"xSR":350,"ySR":768,"xT1":30,"yT1":0,"xT2":670,"yT2":0,"toosoon":0,"cond_shown":"equaldotsize","ratio_trial":250,"smaller_num":"2","larger_num":"8","correct_side":1,"subjID":"412wm","gender":"No_gender","age":"No_age","school":"No_school"},{"start_time":1549383099786,"click_time":1549383100880,"finger_time":1549383100579,"fix_duration":603.1731681152937,"trial":26,"RT":793,"MT":301,"sideResp":2,"stimulus":"img/900/randomdotsizeEA/R/11_Ratio_900_L_18_R_20.png","xmouse":[397.3330078125,398,398,398,398,398,398,398.6669921875,398.6669921875,398.6669921875,397.7120056152344,398,398,398,398,398,398,398.947998046875,398.6669921875,398.6669921875,398.6669921875,398.6669921875,398.6669921875,398.6669921875,398.6669921875,398.6669921875,398.6669921875,398.6669921875,400,400,400,400,400,400,400,400,400,407.7330017089844,428.09698486328125,441.70098876953125,460.75,487.37200927734375,520.5180053710938,559.3779907226562,632.4609985351562,660.0239868164062,679.8740234375,687.7440185546875,686.458984375,686.458984375,686.458984375,686.458984375,679.093017578125],"ymouse":[820.6669921875,820,820,820,820,820,820,820.6669921875,820.6669921875,820.6669921875,820.6669921875,820,820,820,820,820,820,820.6669921875,820.2119750976562,820.2119750976562,820.2119750976562,820.2119750976562,820.2119750976562,820.2119750976562,820.2119750976562,820.2119750976562,820.2119750976562,820.2119750976562,819,819,819,819,819,819,819,819,819,756.5369873046875,667.8099975585938,618.1060180664062,555.3610229492188,490.8269958496094,426.1289978027344,370.50299072265625,272.031005859375,229.0229949951172,188.56199645996094,159.06500244140625,110.48799896240234,110.48799896240234,110.48799896240234,110.48799896240234,64.53299713134766],"timestamp_mouse":[13,85,93,113,133,153,173,194,213,233,253,273,293,313,333,353,373,393,413,433,453,473,494,513,533,553,573,593,613,633,653,673,693,714,733,753,773,793,813,833,853,873,893,913,933,953,973,993,1013,1033,1053,1073,1093],"xSR":350,"ySR":768,"xT1":30,"yT1":0,"xT2":670,"yT2":0,"toosoon":0,"cond_shown":"randomdotsizeEA","ratio_trial":900,"smaller_num":"18","larger_num":"20","correct_side":2,"subjID":"412wm","gender":"No_gender","age":"No_age","school":"No_school"},{"start_time":1549383103574,"click_time":1549383104541,"finger_time":1549383104320,"fix_duration":1432.5424024367928,"trial":27,"RT":746,"MT":221,"sideResp":1,"stimulus":"img/250/randomdotsizeEA/R/6_Ratio_250_L_6_R_24.png","xmouse":[398,398,398,398,398,398,398,398,398,398,398,398,398,398,398,398,398,398,398,398,398,398,398,398,398,398,398,398,398,398,398,398,398,378.6919860839844,323.843994140625,302.1409912109375,283.60101318359375,270.5150146484375,259.6730041503906,250.4949951171875,246.20700073242188,227.46099853515625,202.47900390625,171.79600524902344,118.24099731445312,105.18099975585938],"ymouse":[852,852,852,852,852,852,852,852,852,852,852,852,852,852,852,852,852,852,852,852,852,852,852,852,852,852,852,852,852,852,852,852,852,827.47998046875,739.1859741210938,688.0139770507812,632.8040161132812,575.0260009765625,509.7569580078125,367.4949951171875,310.02099609375,253.35000610351562,208.71400451660156,170.6510009765625,103.50900268554688,75.28500366210938],"timestamp_mouse":[69,88,106,126,146,166,186,206,226,246,266,286,306,326,346,366,386,406,426,446,466,486,506,526,546,566,586,606,626,646,666,686,706,726,746,766,786,806,826,848,866,886,906,926,948,967],"xSR":350,"ySR":768,"xT1":30,"yT1":0,"xT2":670,"yT2":0,"toosoon":0,"cond_shown":"randomdotsizeEA","ratio_trial":250,"smaller_num":"6","larger_num":"24","correct_side":2,"subjID":"412wm","gender":"No_gender","age":"No_age","school":"No_school"},{"start_time":1549383106512,"click_time":1549383107641,"finger_time":1549383107400,"fix_duration":250,"trial":28,"RT":888,"MT":241,"sideResp":2,"stimulus":"img/250/equaldotanddens/R/12_Ratio_250_L_5_R_20.png","xmouse":[389,389,389,389,389,389,389,389,389,389,389,389,389,389,389,389,389,389,389,389,389,389,389,389,389,389,389,389,389,389,389,389,389,389,389,389,389,389,389,389,397.9440002441406,411.8840026855469,425.65399169921875,456.19500732421875,474.4289855957031,494.8330078125,523.7210083007812,551.260986328125,597.6300048828125,617.843994140625,636.1900024414062,652.8259887695312,666.4240112304688,698.3179931640625],"ymouse":[841,841,841,841,841,841,841,841,841,841,841,841,841,841,841,841,841,841,841,841,841,841,841,841,841,841,841,841,841,841,841,841,841,841,841,841,841,841,841,841,808.0780029296875,737.9199829101562,668.8109741210938,554.6129760742188,491.989990234375,426.0190124511719,364.5580139160156,306.68701171875,213.16600036621094,174.66400146484375,142.5970001220703,116.07199096679688,94.27200317382812,54.638999938964844],"timestamp_mouse":[69,88,108,128,148,168,188,208,228,248,268,288,308,328,348,368,388,408,428,448,468,488,508,528,548,568,588,608,628,648,668,688,708,728,748,768,788,808,829,848,869,888,909,928,948,968,989,1009,1030,1048,1069,1088,1109,1129],"xSR":350,"ySR":768,"xT1":30,"yT1":0,"xT2":670,"yT2":0,"toosoon":0,"cond_shown":"equaldotanddens","ratio_trial":250,"smaller_num":"5","larger_num":"20","correct_side":2,"subjID":"412wm","gender":"No_gender","age":"No_age","school":"No_school"},{"start_time":1549383109702,"click_time":1549383110461,"finger_time":1549383110281,"fix_duration":598.9701141446868,"trial":29,"RT":579,"MT":180,"sideResp":2,"stimulus":"img/750/randomdotsize/L/9_Ratio_750_L_4_R_3.png","xmouse":[403,403,403,403,403,403,403,403,403,403,403,403,403,403,403,403,403,403,403,403,403,403,403,403,403,403,412.9540100097656,425.2229919433594,442.739013671875,465.5249938964844,493.0889892578125,555.7860107421875,589.8489990234375,624.7269897460938,651.2739868164062,674.77001953125,700.3599853515625],"ymouse":[840,840,840,840,840,840,840,840,840,840,840,840,840,840,840,840,840,840,840,840,840,840,840,840,840,840,821.5180053710938,766.510009765625,704.5490112304688,644.52197265625,581.1790161132812,425.98699951171875,344.6820068359375,274.9939880371094,220.79400634765625,170.55499267578125,94.3499984741211],"timestamp_mouse":[0,62,79,99,119,139,159,179,199,219,239,259,279,299,319,339,359,379,399,419,439,459,479,499,519,539,561,579,599,619,639,659,679,699,719,739,759],"xSR":350,"ySR":768,"xT1":30,"yT1":0,"xT2":670,"yT2":0,"toosoon":0,"cond_shown":"randomdotsize","ratio_trial":750,"smaller_num":"3","larger_num":"4","correct_side":1,"subjID":"412wm","gender":"No_gender","age":"No_age","school":"No_school"},{"start_time":1549383113114,"click_time":1549383114122,"finger_time":1549383113821,"fix_duration":1149.9273100245061,"trial":30,"RT":707,"MT":301,"sideResp":1,"stimulus":"img/900/equaldotanddens/L/2_Ratio_900_L_20_R_18.png","xmouse":[397,397,397,397,397,397,397,397,397,397,397,397,397,397,397,397,397,397,397,397,397,397,397,397,397,397,397,397,397,397,397,387.2909851074219,376.7969970703125,365.2539978027344,353.4779968261719,340.9079895019531,321.3219909667969,311.2019958496094,298.2409973144531,284.4590148925781,269.9909973144531,234.91600036621094,218.6219940185547,202.82400512695312,190.3419952392578,176.38400268554688,146.56500244140625,132.29299926757812,117.04199981689453],"ymouse":[834,834,834,834,834,834,834,834,834,834,834,834,834,834,834,834,834,834,834,834,834,834,834,834,834,834,834,834,834,834,834,809.7479858398438,783.6599731445312,756.468017578125,725.593994140625,691.4310302734375,610.822998046875,561.14501953125,511.9150390625,462.3110046386719,420.7770080566406,343.1659851074219,304.6910095214844,266.81201171875,228.27499389648438,192.46200561523438,136.39700317382812,112.18800354003906,92.5479965209961],"timestamp_mouse":[60,69,87,107,127,147,167,187,207,227,247,267,287,307,327,347,367,387,407,427,447,467,487,507,527,547,567,587,607,627,647,667,687,707,727,747,769,787,807,827,848,867,887,907,927,948,969,987,1007],"xSR":350,"ySR":768,"xT1":30,"yT1":0,"xT2":670,"yT2":0,"toosoon":0,"cond_shown":"equaldotanddens","ratio_trial":900,"smaller_num":"18","larger_num":"20","correct_side":1,"subjID":"412wm","gender":"No_gender","age":"No_age","school":"No_school"},{"start_time":1549383116250,"click_time":1549383117462,"finger_time":1549383117162,"fix_duration":547.7119089335373,"trial":31,"RT":912,"MT":300,"sideResp":1,"stimulus":"img/750/equaldotanddens/L/8_Ratio_750_L_4_R_3.png","xmouse":[412,412,412,412,412,412,412,412,412,412,412,412,412,412,412,412,412,412,412,412,412,412,412,412,412,412,412,412,412,412,412,412,412,412,412,412,412,412,412,412,404.79400634765625,392.72900390625,392.72900390625,360.2929992675781,343.2439880371094,307.989013671875,288.2359924316406,269.739013671875,252.697021484375,239.31199645996094,215.38400268554688,202.75999450683594,188.7519989013672,172.35699462890625,156.19400024414062,126.00399780273438,113.65599822998047,106.74299621582031,99.29399871826172],"ymouse":[838,838,838,838,838,838,838,838,838,838,838,838,838,838,838,838,838,838,838,838,838,838,838,838,838,838,838,838,838,838,838,838,838,838,838,838,838,838,838,838,830.4929809570312,809.7100219726562,809.7100219726562,745.9349975585938,711.1539916992188,635.3489990234375,590.6749877929688,542.291015625,492.1719970703125,448.6029968261719,365.74700927734375,324.9830017089844,286.6409912109375,249.85198974609375,214.29299926757812,153.75100708007812,127.67401123046875,107.24299621582031,89.0479965209961],"timestamp_mouse":[68,72,92,112,132,152,172,192,212,232,252,272,292,312,332,352,372,392,412,432,452,472,492,512,532,552,572,592,612,632,652,672,692,712,732,752,772,792,812,832,852,872,892,912,932,952,972,992,1012,1032,1054,1072,1092,1112,1132,1153,1172,1192,1212],"xSR":350,"ySR":768,"xT1":30,"yT1":0,"xT2":670,"yT2":0,"toosoon":0,"cond_shown":"equaldotanddens","ratio_trial":750,"smaller_num":"3","larger_num":"4","correct_side":1,"subjID":"412wm","gender":"No_gender","age":"No_age","school":"No_school"},{"start_time":1549383119569,"click_time":1549383120503,"finger_time":1549383120303,"fix_duration":965.8303281063542,"trial":32,"RT":734,"MT":200,"sideResp":1,"stimulus":"img/250/equaldotanddens/L/15_Ratio_250_L_12_R_3.png","xmouse":[408,408,408,408,408.97100830078125,408.97100830078125,408.97100830078125,408.97100830078125,408.97100830078125,408.97100830078125,408.97100830078125,408.97100830078125,408.97100830078125,408.97100830078125,408.6669921875,408.6669921875,408.6669921875,408.6669921875,408.6669921875,408.6669921875,408.6669921875,408.6669921875,408.6669921875,408.6669921875,408.6669921875,408,408,408,408,408,408,408,408,408,408,211.29100036621094,211.29100036621094,211.29100036621094,211.29100036621094,211.29100036621094,211.29100036621094,211.29100036621094,211.29100036621094,211.29100036621094,211.29100036621094,74.11699676513672],"ymouse":[829,829,829,829,829.3330078125,829.3330078125,829.3330078125,829.3330078125,829.3330078125,829.3330078125,829.3330078125,829.3330078125,829.3330078125,829.3330078125,829.3330078125,829.3330078125,829.3330078125,829.3330078125,829.3330078125,829.3330078125,829.3330078125,829.3330078125,829.3330078125,829.3330078125,829.3330078125,827,827,827,827,827,827,827,827,827,827,317.5069885253906,317.5069885253906,317.5069885253906,317.5069885253906,317.5069885253906,317.5069885253906,317.5069885253906,317.5069885253906,317.5069885253906,317.5069885253906,60.9010009765625],"timestamp_mouse":[13,56,73,93,113,133,153,173,193,213,233,253,273,294,314,334,353,374,393,413,434,454,474,494,514,534,554,574,594,614,634,654,674,694,714,734,754,774,794,814,834,854,874,894,914,934],"xSR":350,"ySR":768,"xT1":30,"yT1":0,"xT2":670,"yT2":0,"toosoon":0,"cond_shown":"equaldotanddens","ratio_trial":250,"smaller_num":"3","larger_num":"12","correct_side":1,"subjID":"412wm","gender":"No_gender","age":"No_age","school":"No_school"},{"start_time":1549383122521,"click_time":1549383123603,"finger_time":1549383123423,"fix_duration":616.1356201144857,"trial":33,"RT":902,"MT":180,"sideResp":2,"stimulus":"img/500/randomdotsize/R/6_Ratio_500_L_9_R_18.png","xmouse":[398,398,398,398,398,398,398,398,398,398,398,398,398,398,398,398,398,398,398,398,398,398,398,398,398,398,398,398,398,398,398,398,398,398,398,398,398,398,398,398,404,410.2650146484375,410.2650146484375,438.5119934082031,477.1830139160156,498.4700012207031,523.18798828125,547.8619995117188,579.7890014648438,651.5239868164062,689.9349975585938,725.7899780273438,753.8839721679688],"ymouse":[829,829,829,829,829,829,829,829,829,829,829,829,829,829,829,829,829,829,829,829,829,829,829,829,829,829,829,829,829,829,829,829,829,829,829,829,829,829,829,829,821,805.0050048828125,805.0050048828125,718.093994140625,599.4979858398438,542.7919921875,483.50799560546875,422.7760009765625,358.8479919433594,240.3170166015625,181.76400756835938,127.98199462890625,86.1500015258789],"timestamp_mouse":[2,78,82,102,122,142,162,182,202,222,242,262,282,302,322,342,362,382,402,422,442,462,482,502,522,542,562,582,602,622,642,662,682,702,722,742,762,782,802,822,842,862,882,902,922,942,962,982,1002,1022,1042,1062,1082],"xSR":350,"ySR":768,"xT1":30,"yT1":0,"xT2":670,"yT2":0,"toosoon":0,"cond_shown":"randomdotsize","ratio_trial":500,"smaller_num":"9","larger_num":"18","correct_side":2,"subjID":"412wm","gender":"No_gender","age":"No_age","school":"No_school"},{"start_time":1549383125404,"click_time":1549383126824,"finger_time":1549383126263,"fix_duration":399.9861185876277,"trial":34,"RT":859,"MT":561,"sideResp":1,"stimulus":"img/750/randomdotsize/L/6_Ratio_750_L_24_R_18.png","xmouse":[412,412,412,412,412,412,412,412,412,412,412,412,412,412,412,412,412,412,412,412,412,412,412,412,412,412,412,412,412,412,412,412,412,412,412,412,412,412,412,412,412,377.1300048828125,362.9159851074219,349.7959899902344,337.61700439453125,324.7179870605469,294.9670104980469,282.1719970703125,267.8949890136719,256.7279968261719,249.5460205078125,237.1490020751953,233.92100524902344,233.33299255371094,231.6020050048828,230.52099609375,219.16000366210938,204.1179962158203,194.0540008544922,181.48399353027344,171.1060028076172,149.4720001220703,140.68299865722656,130.16000366210938,119.93099975585938,112.18299865722656,97.36299896240234,91.76799774169922,84.23300170898438,78.30400085449219],"ymouse":[822,822,822,822,822,822,822,822,822,822,822,822,822,822,822,822,822,822,822,822,822,822,822,822,822,822,822,822,822,822,822,822,822,822,822,822,822,822,822,822,822,767.0780029296875,739.1859741210938,714.1430053710938,692.2119750976562,671.780029296875,638.4290161132812,620.3590087890625,601.10302734375,580.5239868164062,560.9879760742188,517.3779907226562,491.1180114746094,462.8179931640625,432.4530029296875,406.49798583984375,361.9079895019531,341.864013671875,323.2860107421875,305.10198974609375,288.06500244140625,253.48699951171875,235.73199462890625,217.73899841308594,199.8769989013672,180.96200561523438,143.69200134277344,125.34500122070312,109.02400207519531,96.40399932861328],"timestamp_mouse":[1,65,79,99,119,139,159,179,199,219,239,259,279,299,319,339,359,379,399,419,439,459,479,499,519,539,559,579,599,619,639,659,679,699,719,739,759,779,799,819,839,859,879,899,919,940,959,979,999,1019,1039,1060,1079,1099,1119,1139,1161,1179,1199,1219,1239,1261,1279,1299,1319,1339,1360,1379,1399,1419],"xSR":350,"ySR":768,"xT1":30,"yT1":0,"xT2":670,"yT2":0,"toosoon":0,"cond_shown":"randomdotsize","ratio_trial":750,"smaller_num":"18","larger_num":"24","correct_side":1,"subjID":"412wm","gender":"No_gender","age":"No_age","school":"No_school"},{"start_time":1549383129469,"click_time":1549383130787,"finger_time":1549383130484,"fix_duration":1263.0870936562867,"trial":35,"RT":1015,"MT":303,"sideResp":1,"stimulus":"img/500/randomdotsizeEA/L/5_Ratio_500_L_4_R_2.png","xmouse":[390,390,390,390,390,390,390,390,390,390,390,390,390,390,390,390,390,390,390,390,390.6669921875,390.6669921875,390.6669921875,390.6669921875,390.6669921875,390.6669921875,390.6669921875,390.6669921875,390.6669921875,390.6669921875,390.6669921875,391,391,391,391,391,391,391,391,391,391,381.3330078125,380.6669921875,380,378.677001953125,376.7799987792969,372.7040100097656,372.7040100097656,328.8919982910156,313.8699951171875,298.822998046875,283.6289978027344,268.8819885253906,234.53900146484375,221.97999572753906,206.73300170898438,192.9810028076172,179.3780059814453,148.3990020751953,136.2030029296875,125.51100158691406,114.9280014038086,106.70899963378906,89.26799774169922],"ymouse":[828,828,828,828,828,828,828,828,828,828,827,827,827,827,827,827,827,827,827,827,827.3330078125,827.3330078125,827.3330078125,827.3330078125,827.3330078125,827.3330078125,827.3330078125,827.3330078125,827.3330078125,827.3330078125,827.3330078125,826,826,826,826,826,826,826,826,826,826,825.3330078125,824.5770263671875,815,804.1090087890625,794.3389892578125,779.6400146484375,779.6400146484375,701.5599975585938,673.739990234375,641.8590087890625,609.2990112304688,576.7119750976562,494.1319885253906,451.4440002441406,404.8210144042969,360.6629943847656,319.66900634765625,240.17300415039062,200.96800231933594,164.87399291992188,127.5830078125,101.45899963378906,66.24400329589844],"timestamp_mouse":[15,86,95,115,135,155,175,195,215,235,255,275,295,315,335,355,375,395,415,435,455,475,495,515,535,555,575,595,615,635,655,675,695,715,735,755,775,795,816,835,855,875,895,915,935,955,975,996,1015,1035,1055,1075,1095,1116,1135,1155,1175,1195,1217,1235,1255,1275,1295,1318],"xSR":350,"ySR":768,"xT1":30,"yT1":0,"xT2":670,"yT2":0,"toosoon":0,"cond_shown":"randomdotsizeEA","ratio_trial":500,"smaller_num":"2","larger_num":"4","correct_side":1,"subjID":"412wm","gender":"No_gender","age":"No_age","school":"No_school"},{"start_time":1549383133038,"click_time":1549383133907,"finger_time":1549383133604,"fix_duration":792.8840200887973,"trial":36,"RT":566,"MT":303,"sideResp":1,"stimulus":"img/250/randomdotsize/L/14_Ratio_250_L_12_R_3.png","xmouse":[441,441,441,441,441,441,441,441,441,441,441,441,441,441,441,441,441,441,441,441,441,441,441,434.71099853515625,425.1780090332031,425.1780090332031,351.09100341796875,327.40899658203125,308.2019958496094,292.29400634765625,277.1409912109375,238.02499389648438,218.91099548339844,200.6750030517578,185.61000061035156,170.91600036621094,139.04299926757812,122,107.447998046875,95.89299774169922,86.72100067138672,72.06400299072266],"ymouse":[823,823,823,823,823,823,823,823,823,823,823,823,823,823,823,823,823,823,823,823,823,823,823,816.073974609375,803.7689819335938,803.7689819335938,739.2119750976562,718.1900024414062,689.4990234375,656.60302734375,621.083984375,548.9749755859375,509.1109619140625,466.3739929199219,416.60198974609375,368.97698974609375,283.9049987792969,244,207.6199951171875,167.5279998779297,129.48899841308594,78.75199890136719],"timestamp_mouse":[65,66,86,106,126,146,166,186,206,226,246,266,286,307,326,346,366,386,406,426,446,466,486,506,526,546,566,586,606,626,647,666,686,706,726,746,768,786,806,826,846,869],"xSR":350,"ySR":768,"xT1":30,"yT1":0,"xT2":670,"yT2":0,"toosoon":0,"cond_shown":"randomdotsize","ratio_trial":250,"smaller_num":"3","larger_num":"12","correct_side":1,"subjID":"412wm","gender":"No_gender","age":"No_age","school":"No_school"},{"start_time":1549383136721,"click_time":1549383137665,"finger_time":1549383137385,"fix_duration":955.9178241575736,"trial":37,"RT":664,"MT":280,"sideResp":2,"stimulus":"img/500/randomdotsizeEA/R/12_Ratio_500_L_1_R_2.png","xmouse":[367,367,367,367,367,367,367,367,367,367,367,367,367,367,367,367,367,367,367,367,367,367,367,367,367,367,367,367,372.3940124511719,386.489013671875,386.489013671875,439.781005859375,455.1419982910156,478.9129943847656,489.5710144042969,502.4670104980469,516.0960083007812,530.0679931640625,566.1170043945312,585.5490112304688,604.1909790039062,614.1680297851562,626.530029296875,658.0079956054688,677.3079833984375,696.6500244140625],"ymouse":[820,820,820,820,820,820,820,820,820,820,820,820,820,820,820,820,820,820,820,820,820,820,820,820,820,820,820,820,812.8909912109375,792.0469970703125,792.0469970703125,713.52099609375,685.843017578125,613.7249755859375,575.6680297851562,542.0339965820312,510.5469970703125,479.7130126953125,398.9679870605469,356.20098876953125,317.4100036621094,280.2539978027344,241.36599731445312,159.9429931640625,119.79299926757812,88.69300079345703],"timestamp_mouse":[9,74,84,104,124,144,164,184,204,224,244,264,284,304,324,344,364,384,405,424,444,464,484,504,524,544,564,584,604,624,644,664,684,705,724,744,764,784,805,825,844,864,884,904,924,944],"xSR":350,"ySR":768,"xT1":30,"yT1":0,"xT2":670,"yT2":0,"toosoon":0,"cond_shown":"randomdotsizeEA","ratio_trial":500,"smaller_num":"1","larger_num":"2","correct_side":2,"subjID":"412wm","gender":"No_gender","age":"No_age","school":"No_school"},{"start_time":1549383139865,"click_time":1549383141148,"finger_time":1549383140845,"fix_duration":758.14807783084,"trial":38,"RT":980,"MT":303,"sideResp":2,"stimulus":"img/900/equaldotsize/R/5_Ratio_900_L_9_R_10.png","xmouse":[403,403,403,403,403,403,403,403,403,403,403,403,403,403,403,403,403,403,403,403,403,403,403,403,403,403,403,403,403,403,403,403,403,403,403,403,403,403,403,403,403,403,403,408.6239929199219,410.8389892578125,410.8389892578125,410.8389892578125,453.3280029296875,472.9519958496094,497.010009765625,523.9860229492188,552.7689819335938,604.4600219726562,623.7379760742188,639.1749877929688,653.7689819335938,664.4000244140625,687.4299926757812,694.3870239257812,701.989013671875,706.7150268554688,713.3870239257812,718.8159790039062],"ymouse":[840,840,840,840,840,840,840,840,840,840,840,840,840,840,840,840,840,840,840,840,840,840,840,840,840,840,840,840,840,840,840,840,840,840,840,840,840,840,840,840,840,840,840,832.7960205078125,826.322021484375,826.322021484375,826.322021484375,714.9290161132812,668.7119750976562,616.573974609375,556.6959838867188,497.3809814453125,393.4649963378906,352.1709899902344,313.5950012207031,278.0260009765625,245.22601318359375,184.5679931640625,161.6439971923828,142.68800354003906,125.16500854492188,103.73699951171875,81.822998046875],"timestamp_mouse":[1,62,80,100,120,140,160,180,200,220,240,260,280,300,320,340,360,380,400,420,440,460,480,500,520,540,560,580,600,620,640,660,680,700,720,740,760,780,800,820,840,860,880,900,921,941,960,980,1000,1020,1040,1060,1081,1100,1121,1140,1161,1181,1200,1220,1240,1260,1283],"xSR":350,"ySR":768,"xT1":30,"yT1":0,"xT2":670,"yT2":0,"toosoon":0,"cond_shown":"equaldotsize","ratio_trial":900,"smaller_num":"9","larger_num":"10","correct_side":2,"subjID":"412wm","gender":"No_gender","age":"No_age","school":"No_school"},{"start_time":1549383143607,"click_time":1549383144646,"finger_time":1549383144326,"fix_duration":1056.437226911499,"trial":39,"RT":719,"MT":320,"sideResp":1,"stimulus":"img/250/equaldotanddens/L/2_Ratio_250_L_16_R_4.png","xmouse":[390,390,390,390,390,390,390,390,390,390,390,390,390,390,390,390,390,390,390,390,390,390,390,390,390,390,390,390,390,390,390,390,378.8999938964844,361.1470031738281,340.7250061035156,327.28399658203125,300.5249938964844,285.54400634765625,269.635009765625,256.3399963378906,249.7010040283203,227.2429962158203,210.5469970703125,192.18800354003906,172.01800537109375,172.01800537109375,121.09201049804688,113.77999877929688,109.49299621582031,108,105.0979995727539],"ymouse":[857,857,857,857,857,857,857,857,857,857,857,857,857,857,857,857,857,857,857,857,857,857,857,857,857,857,857,857,857,857,857,857,832.3140258789062,792.6430053710938,745.4650268554688,704.7940063476562,636.0020141601562,601.0670166015625,560.3590087890625,504.4019775390625,450.7309875488281,351.06298828125,313.760986328125,285.0329895019531,257.8840026855469,257.8840026855469,184.42100524902344,156.3470001220703,127.41299438476562,102,81.66999816894531],"timestamp_mouse":[0,61,79,99,119,139,159,179,199,219,239,259,279,299,319,339,359,379,399,419,439,459,479,499,519,539,559,579,599,619,639,659,680,699,719,739,759,779,799,819,839,860,879,899,919,939,960,979,999,1019,1039],"xSR":350,"ySR":768,"xT1":30,"yT1":0,"xT2":670,"yT2":0,"toosoon":0,"cond_shown":"equaldotanddens","ratio_trial":250,"smaller_num":"4","larger_num":"16","correct_side":1,"subjID":"412wm","gender":"No_gender","age":"No_age","school":"No_school"},{"start_time":1549383146900,"click_time":1549383148407,"finger_time":1549383147287,"fix_duration":852.6992163728718,"trial":40,"RT":387,"MT":1120,"sideResp":1,"stimulus":"img/500/randomdotsize/L/5_Ratio_500_L_4_R_2.png","xmouse":[402,402,402,402,402,402,402,402,402,402,402,402,400,400,400,400,399.3330078125,400.85198974609375,401.9320068359375,403.343994140625,404.75201416015625,405.8370056152344,408.66400146484375,409.0719909667969,410.1499938964844,410,410,408.8590087890625,406.8739929199219,406.8739929199219,406.8739929199219,406.8739929199219,406.8739929199219,406.8739929199219,433.4209899902344,456.8890075683594,483.84100341796875,538.7239990234375,565.0659790039062,589.0869750976562,611.4329833984375,633.2979736328125,653.166015625,652.6669921875,651.89501953125,649.5980224609375,647.405029296875,645.2830200195312,645.2830200195312,645.2830200195312,645.2830200195312,645.2830200195312,645.2830200195312,631.2150268554688,622.239990234375,610.4869995117188,602.9450073242188,586.822021484375,569.7260131835938,546.5469970703125,546.5469970703125,505.1090087890625,431.57000732421875,388.8590087890625,349.7380065917969,349.7380065917969,349.7380065917969,213.4290008544922,186.4250030517578,164.49099731445312,141.8509979248047,121.35299682617188,100.56900024414062,59.634002685546875],"ymouse":[834,834,834,834,834,834,834,834,834,834,834,834,823,813,813,813,777.8060302734375,750.0789794921875,740.0819702148438,729.2780151367188,718.4749755859375,709.968994140625,698.676025390625,695.1890258789062,693.0330200195312,690,689,688.6669921875,689.56298828125,689.56298828125,689.56298828125,689.56298828125,689.56298828125,689.56298828125,614.7670288085938,571.7780151367188,521.552001953125,405.739013671875,347.5530090332031,297.24200439453125,253.84100341796875,217.68499755859375,179.08599853515625,172.7969970703125,168.24600219726562,166.7989959716797,166.66700744628906,167.35800170898438,167.35800170898438,167.35800170898438,167.35800170898438,167.35800170898438,167.35800170898438,206.5030059814453,232.8419952392578,261.1520080566406,275.3330078125,300.27301025390625,326.8659973144531,359.9570007324219,359.9570007324219,408.66900634765625,462.52801513671875,474.2070007324219,472.01300048828125,472.01300048828125,472.01300048828125,347.75299072265625,303.71099853515625,257.07000732421875,210.7100067138672,163.8419952392578,124.35800170898438,68.39700317382812],"timestamp_mouse":[7,75,86,106,126,146,166,186,206,226,246,266,286,306,326,346,366,386,406,426,446,466,487,506,526,546,566,589,606,626,646,666,686,706,726,746,766,788,806,826,846,866,887,907,926,946,966,986,1006,1026,1046,1066,1086,1106,1127,1146,1166,1187,1206,1226,1246,1266,1287,1306,1326,1346,1366,1388,1407,1426,1446,1466,1487,1506],"xSR":350,"ySR":768,"xT1":30,"yT1":0,"xT2":670,"yT2":0,"toosoon":0,"cond_shown":"randomdotsize","ratio_trial":500,"smaller_num":"2","larger_num":"4","correct_side":1,"subjID":"412wm","gender":"No_gender","age":"No_age","school":"No_school"},{"start_time":1549383150458,"click_time":1549383151467,"finger_time":1549383151247,"fix_duration":610.1595325055813,"trial":41,"RT":789,"MT":220,"sideResp":2,"stimulus":"img/500/equaldotsize/R/1_Ratio_500_L_9_R_18.png","xmouse":[377,377,377,377,377,377,377,377,377,377,377,377,377,377,377,377,377,377,377,377,377,377,377,377,377,377,377,377,377,377,377,377,377,377,377,377,383.85400390625,400.47900390625,419.44000244140625,438.8689880371094,460.91900634765625,507.8139953613281,534.9140014648438,564.1640014648438,587.89501953125,632.5170288085938,651.0540161132812,667.7769775390625,684.3060302734375],"ymouse":[809,809,809,809,809,809,809,809,809,809,809,809,809,809,809,809,809,809,809,809,809,809,809,809,809,809,809,809,809,809,809,809,809,809,809,809,785.2329711914062,747.5900268554688,700.614990234375,647.5130004882812,590.81201171875,479.8320007324219,425.3609924316406,369.8380126953125,318.1300048828125,218.0030059814453,174.33700561523438,135.0570068359375,98.28399658203125],"timestamp_mouse":[61,69,89,109,129,149,169,189,209,229,249,269,289,309,329,349,369,389,409,429,449,469,489,509,529,549,569,589,609,629,649,669,689,709,729,749,771,789,809,829,849,869,889,909,929,951,969,989,1009],"xSR":350,"ySR":768,"xT1":30,"yT1":0,"xT2":670,"yT2":0,"toosoon":0,"cond_shown":"equaldotsize","ratio_trial":500,"smaller_num":"9","larger_num":"18","correct_side":2,"subjID":"412wm","gender":"No_gender","age":"No_age","school":"No_school"},{"start_time":1549383154319,"click_time":1549383155188,"finger_time":1549383154867,"fix_duration":250,"trial":42,"RT":548,"MT":321,"sideResp":2,"stimulus":"img/900/equaldotsize/R/13_Ratio_900_L_18_R_20.png","xmouse":[428,428,428,428,428,428,428,428,428,428,428,428,428,428,428,428,428,428,428,428,428,428,428,428,427.6919860839844,432.3659973144531,432.3659973144531,445.9679870605469,451.2619934082031,462.1080017089844,472.75201416015625,486.375,500.3800048828125,517.1290283203125,551.47802734375,569.7650146484375,588.760986328125,608.9869995117188,630.333984375,667.6669921875,684.2780151367188,696.1190185546875],"ymouse":[810,810,810,810,810,810,810,810,810,810,810,810,810,810,810,810,810,810,810,810,810,810,810,810,796.156005859375,764.4739990234375,764.4739990234375,721.291015625,712.3670043945312,692.4500122070312,670.72998046875,640.7020263671875,604.3829956054688,562.3040161132812,465.25,415.3429870605469,365.08599853515625,315.0509948730469,263.0150146484375,167.33299255371094,123.50700378417969,86.50599670410156],"timestamp_mouse":[63,68,88,108,128,148,168,188,208,228,248,268,288,308,328,348,368,388,410,428,448,468,488,508,530,548,568,588,609,629,648,668,688,708,728,748,768,788,808,829,848,868],"xSR":350,"ySR":768,"xT1":30,"yT1":0,"xT2":670,"yT2":0,"toosoon":0,"cond_shown":"equaldotsize","ratio_trial":900,"smaller_num":"18","larger_num":"20","correct_side":2,"subjID":"412wm","gender":"No_gender","age":"No_age","school":"No_school"},{"start_time":1549383156930,"click_time":1549383157988,"finger_time":1549383157769,"fix_duration":380.7889864021556,"trial":43,"RT":839,"MT":219,"sideResp":2,"stimulus":"img/500/equaldotanddens/R/15_Ratio_500_L_1_R_2.png","xmouse":[367,367,367,367,367,367,367,367,367,367,367,367,367,367,367,367,367,367,367,367,367,367,367,367,367,367,367,367,367,367,367,367,367,375.3330078125,375.90301513671875,376,376.6669921875,377.14300537109375,385.0880126953125,402.71099853515625,402.71099853515625,454.0769958496094,480.8489990234375,547.14697265625,583.9539794921875,612.948974609375,632.5780029296875,647.9559936523438,662.2919921875,690.1329956054688,703.6939697265625],"ymouse":[827,827,827,827,827,827,827,827,827,827,827,827,827,827,827,827,827,827,827,827,827,827,827,827,827,827,827,827,827,827,827,827,827,828.6669921875,828.0969848632812,828,825.927001953125,823.9039916992188,796.0419921875,747.4869995117188,747.4869995117188,629.4769897460938,569.8319702148438,429.3420104980469,359.69500732421875,301.4670104980469,256.2900085449219,217.70199584960938,178.93499755859375,119.5889892578125,99.19300079345703],"timestamp_mouse":[63,78,98,118,138,158,178,198,218,239,258,278,298,318,338,358,378,398,418,438,458,478,498,518,538,558,578,598,618,638,658,678,698,719,738,758,778,798,818,839,858,878,898,919,938,958,978,998,1018,1038,1058],"xSR":350,"ySR":768,"xT1":30,"yT1":0,"xT2":670,"yT2":0,"toosoon":0,"cond_shown":"equaldotanddens","ratio_trial":500,"smaller_num":"1","larger_num":"2","correct_side":2,"subjID":"412wm","gender":"No_gender","age":"No_age","school":"No_school"},{"start_time":1549383160415,"click_time":1549383162069,"finger_time":1549383161248,"fix_duration":1064.245918636309,"trial":44,"RT":833,"MT":821,"sideResp":1,"stimul