[{"start_time":1549381933234,"click_time":1549381933874,"finger_time":1549381933242,"fix_duration":1273.7956670467674,"trial":0,"RT":8,"MT":632,"sideResp":2,"stimulus":"img/250/randomdotsize/L/7_Ratio_250_L_8_R_2.png","xmouse":[421.3333435058594,421.3333435058594,421.3333435058594,421.3333435058594,421.3333435058594,421.3333435058594,421.3333435058594,421.3333435058594,421.3333435058594,421.3333435058594,421.3333435058594,421.3333435058594,421.3333435058594,421.3333435058594,421.3333435058594,421.3333435058594,421.3333435058594,421.3333435058594,421.3333435058594,421.3333435058594,421.3333435058594,421.3333435058594,421.3333435058594,421.3333435058594,421.3333435058594,421.3333435058594,421.3333435058594,421.3333435058594,421.3333435058594,421.3333435058594,421.3333435058594,421.3333435058594,727],"ymouse":[764,764,764,764,764,764,764,764,764,764,764,764,764,764,764,764,764,764,764,764,764,764,764,764,764,764,764,764,764,764,764,764,50],"timestamp_mouse":[8,19,39,59,79,99,119,139,159,179,199,219,239,259,279,299,319,339,358,379,400,419,439,459,479,499,519,539,559,579,599,619,639],"xSR":350,"ySR":696,"xT1":30,"yT1":0,"xT2":670,"yT2":0,"toosoon":0,"cond_shown":"randomdotsize","ratio_trial":250,"smaller_num":"2","larger_num":"8","correct_side":1,"subjID":"13wm","gender":"No_gender","age":"No_age","school":"No_school","test":{"fix_dur":[250,1500],"timestim":400,"targets_dim":[100,100],"targets_relative_coord":[0.1,0.9],"size_stim":[880,420],"start_dim":[100,100],"size_start":[300,300],"size_fix":60,"samplingrate":20,"img_types":["equaldotsize","equaldotanddens","randomdotsize","randomdotsizeEA"],"ratios":[250,500,750,900],"rep_conds":7,"nTrials":128,"trials_to_rest":500,"Trials_order":[34,114,78,86,84,101,18,94,93,27,85,24,73,38,6,115,63,29,45,112,79,48,5,65,108,66,3,111,44,36,69,96,113,55,110,105,14,26,116,90,60,82,121,20,62,12,57,92,0,81,15,122,1,8,4,37,31,19,70,100,25,104,117,77,17,83,54,98,30,41,67,118,51,11,61,9,80,107,28,103,42,74,59,64,88,22,2,46,40,56,50,75,99,124,43,52,91,125,7,71,39,47,16,76,120,95,123,49,89,106,72,32,23,21,33,35,127,10,53,87,13,126,102,68,119,97,58,109],"cond_shown":["randomdotsize","randomdotsize","randomdotsize","randomdotsize","equaldotsize","equaldotanddens","randomdotsize","randomdotsize","equaldotanddens","randomdotsizeEA","equaldotanddens","equaldotsize","equaldotanddens","randomdotsize","randomdotsize","randomdotsizeEA","randomdotsizeEA","equaldotanddens","equaldotanddens","equaldotsize","randomdotsizeEA","equaldotsize","equaldotanddens","equaldotanddens","equaldotsize","randomdotsize","randomdotsizeEA","randomdotsizeEA","equaldotsize","equaldotsize","equaldotanddens","equaldotsize","equaldotanddens","randomdotsizeEA","randomdotsize","equaldotanddens","randomdotsize","randomdotsize","equaldotsize","randomdotsize","equaldotsize","randomdotsize","equaldotanddens","equaldotsize","randomdotsize","equaldotsize","equaldotanddens","equaldotsize","equaldotsize","equaldotanddens","randomdotsizeEA","randomdotsize","equaldotanddens","equaldotsize","equaldotsize","equaldotanddens","randomdotsizeEA","randomdotsizeEA","randomdotsize","equaldotsize","equaldotanddens","equaldotsize","equaldotanddens","equaldotanddens","equaldotanddens","randomdotsizeEA","randomdotsize","randomdotsize","randomdotsize","equaldotanddens","randomdotsizeEA","randomdotsize","randomdotsizeEA","randomdotsizeEA","equaldotanddens","equaldotanddens","equaldotsize","randomdotsizeEA","equaldotsize","randomdotsizeEA","randomdotsize","randomdotsize","randomdotsizeEA","equaldotsize","equaldotsize","randomdotsize","randomdotsize","randomdotsize","equaldotsize","equaldotsize","randomdotsize","randomdotsizeEA","randomdotsizeEA","equaldotsize","randomdotsizeEA","equaldotsize","randomdotsizeEA","equaldotanddens","randomdotsizeEA","randomdotsizeEA","randomdotsizeEA","randomdotsizeEA","equaldotsize","equaldotsize","equaldotsize","randomdotsizeEA","randomdotsizeEA","equaldotanddens","equaldotanddens","randomdotsize","equaldotsize","equaldotsize","randomdotsizeEA","equaldotanddens","equaldotanddens","randomdotsizeEA","randomdotsizeEA","randomdotsize","equaldotanddens","randomdotsizeEA","equaldotanddens","randomdotsize","randomdotsize","equaldotsize","randomdotsizeEA","equaldotanddens","randomdotsize","equaldotanddens"],"ratio_trial":[250,250,900,500,500,500,250,900,900,750,500,750,750,500,500,250,900,900,900,250,900,250,500,250,900,250,250,900,900,500,500,250,250,500,900,750,900,750,500,750,900,250,750,500,900,900,750,900,250,250,900,750,250,750,500,500,900,250,500,500,750,750,500,900,250,250,500,250,900,750,250,500,250,750,900,750,250,750,900,500,750,750,750,250,750,500,250,900,750,750,250,750,250,900,750,500,750,900,500,500,500,900,250,900,750,900,750,250,750,750,750,250,500,500,250,250,900,750,500,500,900,900,500,500,500,250,750,900],"smaller_num":["2","6","9","3","5","1","3","18","9","3","2","3","3","9","1","5","18","18","18","2","18","1","6","6","9","2","3","18","18","6","1","2","3","5","9","3","18","3","9","15","9","1","15","2","18","18","9","18","2","4","9","6","2","18","10","4","18","2","2","1","9","6","3","18","3","1","4","3","18","18","3","4","6","18","18","3","4","6","18","2","18","12","3","3","15","2","2","18","3","3","6","15","3","18","9","5","18","9","9","5","1","18","4","18","18","9","3","3","3","3","3","3","2","10","2","4","18","3","3","3","18","9","3","5","6","4","3","18"],"larger_num":["8","24","10","6","10","2","12","20","10","4","4","4","4","18","2","20","20","20","20","8","20","4","12","24","10","8","12","20","20","12","2","8","12","10","10","4","20","4","18","20","10","4","20","4","20","20","12","20","8","16","10","8","8","24","20","8","20","8","4","2","12","8","6","20","12","4","8","12","20","24","12","8","24","24","20","4","16","8","20","4","24","16","4","12","20","4","8","20","4","4","24","20","12","20","12","10","24","10","18","10","2","20","16","20","24","10","4","12","4","4","4","12","4","20","8","16","20","4","6","6","20","10","6","10","12","16","4","20"],"correct_side":[1,2,2,2,1,2,2,2,1,2,2,1,1,2,2,2,1,1,2,1,1,2,1,1,2,1,1,1,1,1,2,2,1,1,2,1,1,2,1,2,2,2,2,2,1,1,2,2,1,1,2,1,2,1,2,1,1,1,1,2,2,1,2,2,2,2,1,2,1,1,2,1,2,1,1,2,2,1,1,1,1,2,2,2,2,1,1,2,2,2,1,2,1,1,2,1,1,2,1,2,2,1,2,1,1,2,1,2,2,1,1,2,2,2,1,1,1,1,2,2,2,2,2,2,1,1,1,2],"img_shown":["img/250/randomdotsize/L/7_Ratio_250_L_8_R_2.png","img/250/randomdotsize/R/6_Ratio_250_L_6_R_24.png","img/900/randomdotsize/R/5_Ratio_900_L_9_R_10.png","img/500/randomdotsize/R/2_Ratio_500_L_3_R_6.png","img/500/equaldotsize/L/7_Ratio_500_L_10_R_5.png","img/500/equaldotanddens/R/12_Ratio_500_L_1_R_2.png","img/250/randomdotsize/R/4_Ratio_250_L_3_R_12.png","img/900/randomdotsize/R/9_Ratio_900_L_18_R_20.png","img/900/equaldotanddens/L/1_Ratio_900_L_10_R_9.png","img/750/randomdotsizeEA/R/7_Ratio_750_L_3_R_4.png","img/500/equaldotanddens/R/9_Ratio_500_L_2_R_4.png","img/750/equaldotsize/L/9_Ratio_750_L_4_R_3.png","img/750/equaldotanddens/L/8_Ratio_750_L_4_R_3.png","img/500/randomdotsize/R/1_Ratio_500_L_9_R_18.png","img/500/randomdotsize/R/15_Ratio_500_L_1_R_2.png","img/250/randomdotsizeEA/R/12_Ratio_250_L_5_R_20.png","img/900/randomdotsizeEA/L/2_Ratio_900_L_20_R_18.png","img/900/equaldotanddens/L/8_Ratio_900_L_20_R_18.png","img/900/equaldotanddens/R/12_Ratio_900_L_18_R_20.png","img/250/equaldotsize/L/7_Ratio_250_L_8_R_2.png","img/900/randomdotsizeEA/L/10_Ratio_900_L_20_R_18.png","img/250/equaldotsize/R/8_Ratio_250_L_1_R_4.png","img/500/equaldotanddens/L/13_Ratio_500_L_12_R_6.png","img/250/equaldotanddens/L/5_Ratio_250_L_24_R_6.png","img/900/equaldotsize/R/5_Ratio_900_L_9_R_10.png","img/250/randomdotsize/L/7_Ratio_250_L_8_R_2.png","img/250/randomdotsizeEA/L/15_Ratio_250_L_12_R_3.png","img/900/randomdotsizeEA/L/2_Ratio_900_L_20_R_18.png","img/900/equaldotsize/L/8_Ratio_900_L_20_R_18.png","img/500/equaldotsize/L/11_Ratio_500_L_12_R_6.png","img/500/equaldotanddens/R/12_Ratio_500_L_1_R_2.png","img/250/equaldotsize/R/13_Ratio_250_L_2_R_8.png","img/250/equaldotanddens/L/14_Ratio_250_L_12_R_3.png","img/500/randomdotsizeEA/L/7_Ratio_500_L_10_R_5.png","img/900/randomdotsize/R/3_Ratio_900_L_9_R_10.png","img/750/equaldotanddens/L/9_Ratio_750_L_4_R_3.png","img/900/randomdotsize/L/8_Ratio_900_L_20_R_18.png","img/750/randomdotsize/R/12_Ratio_750_L_3_R_4.png","img/500/equaldotsize/L/4_Ratio_500_L_18_R_9.png","img/750/randomdotsize/R/3_Ratio_750_L_15_R_20.png","img/900/equaldotsize/R/6_Ratio_900_L_9_R_10.png","img/250/randomdotsize/R/8_Ratio_250_L_1_R_4.png","img/750/equaldotanddens/R/3_Ratio_750_L_15_R_20.png","img/500/equaldotsize/R/9_Ratio_500_L_2_R_4.png","img/900/randomdotsize/L/4_Ratio_900_L_20_R_18.png","img/900/equaldotsize/L/2_Ratio_900_L_20_R_18.png","img/750/equaldotanddens/R/15_Ratio_750_L_9_R_12.png","img/900/equaldotsize/R/9_Ratio_900_L_18_R_20.png","img/250/equaldotsize/L/1_Ratio_250_L_8_R_2.png","img/250/equaldotanddens/L/2_Ratio_250_L_16_R_4.png","img/900/randomdotsizeEA/R/7_Ratio_900_L_9_R_10.png","img/750/randomdotsize/L/13_Ratio_750_L_8_R_6.png","img/250/equaldotanddens/R/13_Ratio_250_L_2_R_8.png","img/750/equaldotsize/L/6_Ratio_750_L_24_R_18.png","img/500/equaldotsize/R/3_Ratio_500_L_10_R_20.png","img/500/equaldotanddens/L/8_Ratio_500_L_8_R_4.png","img/900/randomdotsizeEA/L/8_Ratio_900_L_20_R_18.png","img/250/randomdotsizeEA/L/3_Ratio_250_L_8_R_2.png","img/500/randomdotsize/L/10_Ratio_500_L_4_R_2.png","img/500/equaldotsize/R/12_Ratio_500_L_1_R_2.png","img/750/equaldotanddens/R/15_Ratio_750_L_9_R_12.png","img/750/equaldotsize/L/13_Ratio_750_L_8_R_6.png","img/500/equaldotanddens/R/2_Ratio_500_L_3_R_6.png","img/900/equaldotanddens/R/12_Ratio_900_L_18_R_20.png","img/250/equaldotanddens/R/9_Ratio_250_L_3_R_12.png","img/250/randomdotsizeEA/R/8_Ratio_250_L_1_R_4.png","img/500/randomdotsize/L/8_Ratio_500_L_8_R_4.png","img/250/randomdotsize/R/4_Ratio_250_L_3_R_12.png","img/900/randomdotsize/L/2_Ratio_900_L_20_R_18.png","img/750/equaldotanddens/L/6_Ratio_750_L_24_R_18.png","img/250/randomdotsizeEA/R/4_Ratio_250_L_3_R_12.png","img/500/randomdotsize/L/8_Ratio_500_L_8_R_4.png","img/250/randomdotsizeEA/R/6_Ratio_250_L_6_R_24.png","img/750/randomdotsizeEA/L/6_Ratio_750_L_24_R_18.png","img/900/equaldotanddens/L/4_Ratio_900_L_20_R_18.png","img/750/equaldotanddens/R/7_Ratio_750_L_3_R_4.png","img/250/equaldotsize/R/10_Ratio_250_L_4_R_16.png","img/750/randomdotsizeEA/L/13_Ratio_750_L_8_R_6.png","img/900/equaldotsize/L/2_Ratio_900_L_20_R_18.png","img/500/randomdotsizeEA/L/5_Ratio_500_L_4_R_2.png","img/750/randomdotsize/L/6_Ratio_750_L_24_R_18.png","img/750/randomdotsize/R/11_Ratio_750_L_12_R_16.png","img/750/randomdotsizeEA/R/7_Ratio_750_L_3_R_4.png","img/250/equaldotsize/R/4_Ratio_250_L_3_R_12.png","img/750/equaldotsize/R/4_Ratio_750_L_15_R_20.png","img/500/randomdotsize/L/10_Ratio_500_L_4_R_2.png","img/250/randomdotsize/L/1_Ratio_250_L_8_R_2.png","img/900/randomdotsize/R/9_Ratio_900_L_18_R_20.png","img/750/equaldotsize/R/7_Ratio_750_L_3_R_4.png","img/750/equaldotsize/R/12_Ratio_750_L_3_R_4.png","img/250/randomdotsize/L/5_Ratio_250_L_24_R_6.png","img/750/randomdotsizeEA/R/3_Ratio_750_L_15_R_20.png","img/250/randomdotsizeEA/L/14_Ratio_250_L_12_R_3.png","img/900/equaldotsize/L/8_Ratio_900_L_20_R_18.png","img/750/randomdotsizeEA/R/15_Ratio_750_L_9_R_12.png","img/500/equaldotsize/L/7_Ratio_500_L_10_R_5.png","img/750/randomdotsizeEA/L/6_Ratio_750_L_24_R_18.png","img/900/equaldotanddens/R/7_Ratio_900_L_9_R_10.png","img/500/randomdotsizeEA/L/4_Ratio_500_L_18_R_9.png","img/500/randomdotsizeEA/R/14_Ratio_500_L_5_R_10.png","img/500/randomdotsizeEA/R/15_Ratio_500_L_1_R_2.png","img/900/randomdotsizeEA/L/2_Ratio_900_L_20_R_18.png","img/250/equaldotsize/R/10_Ratio_250_L_4_R_16.png","img/900/equaldotsize/L/10_Ratio_900_L_20_R_18.png","img/750/equaldotsize/L/6_Ratio_750_L_24_R_18.png","img/900/randomdotsizeEA/R/15_Ratio_900_L_9_R_10.png","img/750/randomdotsizeEA/L/10_Ratio_750_L_4_R_3.png","img/250/equaldotanddens/R/4_Ratio_250_L_3_R_12.png","img/750/equaldotanddens/R/12_Ratio_750_L_3_R_4.png","img/750/randomdotsize/L/9_Ratio_750_L_4_R_3.png","img/750/equaldotsize/L/10_Ratio_750_L_4_R_3.png","img/250/equaldotsize/R/11_Ratio_250_L_3_R_12.png","img/500/randomdotsizeEA/R/9_Ratio_500_L_2_R_4.png","img/500/equaldotanddens/R/3_Ratio_500_L_10_R_20.png","img/250/equaldotanddens/L/1_Ratio_250_L_8_R_2.png","img/250/randomdotsizeEA/L/2_Ratio_250_L_16_R_4.png","img/900/randomdotsizeEA/L/8_Ratio_900_L_20_R_18.png","img/750/randomdotsize/L/8_Ratio_750_L_4_R_3.png","img/500/equaldotanddens/R/2_Ratio_500_L_3_R_6.png","img/500/randomdotsizeEA/R/2_Ratio_500_L_3_R_6.png","img/900/equaldotanddens/R/14_Ratio_900_L_18_R_20.png","img/900/randomdotsize/R/3_Ratio_900_L_9_R_10.png","img/500/randomdotsize/R/2_Ratio_500_L_3_R_6.png","img/500/equaldotsize/R/14_Ratio_500_L_5_R_10.png","img/500/randomdotsizeEA/L/11_Ratio_500_L_12_R_6.png","img/250/equaldotanddens/L/2_Ratio_250_L_16_R_4.png","img/750/randomdotsize/L/10_Ratio_750_L_4_R_3.png","img/900/equaldotanddens/R/9_Ratio_900_L_18_R_20.png"],"Rat0":[["12_Ratio_0_L_9_R_0.png","13_Ratio_0_L_6_R_0.png","5_Ratio_0_L_2_R_0.png","6_Ratio_0_L_4_R_0.png","8_Ratio_0_L_6_R_0.png"],["1_Ratio_0_L_0_R_17.png","10_Ratio_0_L_0_R_22.png","11_Ratio_0_L_0_R_1.png","14_Ratio_0_L_0_R_24.png","15_Ratio_0_L_0_R_4.png","2_Ratio_0_L_0_R_5.png","3_Ratio_0_L_0_R_17.png","4_Ratio_0_L_0_R_7.png","7_Ratio_0_L_0_R_19.png","9_Ratio_0_L_0_R_15.png"]],"Rat250":[["1_Ratio_250_L_8_R_2.png","14_Ratio_250_L_12_R_3.png","15_Ratio_250_L_12_R_3.png","2_Ratio_250_L_16_R_4.png","3_Ratio_250_L_8_R_2.png","5_Ratio_250_L_24_R_6.png","7_Ratio_250_L_8_R_2.png"],["10_Ratio_250_L_4_R_16.png","11_Ratio_250_L_3_R_12.png","12_Ratio_250_L_5_R_20.png","13_Ratio_250_L_2_R_8.png","4_Ratio_250_L_3_R_12.png","6_Ratio_250_L_6_R_24.png","8_Ratio_250_L_1_R_4.png","9_Ratio_250_L_3_R_12.png"]],"Rat500":[["10_Ratio_500_L_4_R_2.png","11_Ratio_500_L_12_R_6.png","13_Ratio_500_L_12_R_6.png","4_Ratio_500_L_18_R_9.png","5_Ratio_500_L_4_R_2.png","7_Ratio_500_L_10_R_5.png","8_Ratio_500_L_8_R_4.png"],["1_Ratio_500_L_9_R_18.png","12_Ratio_500_L_1_R_2.png","14_Ratio_500_L_5_R_10.png","15_Ratio_500_L_1_R_2.png","2_Ratio_500_L_3_R_6.png","3_Ratio_500_L_10_R_20.png","6_Ratio_500_L_9_R_18.png","9_Ratio_500_L_2_R_4.png"]],"Rat750":[["1_Ratio_750_L_20_R_15.png","10_Ratio_750_L_4_R_3.png","13_Ratio_750_L_8_R_6.png","14_Ratio_750_L_8_R_6.png","6_Ratio_750_L_24_R_18.png","8_Ratio_750_L_4_R_3.png","9_Ratio_750_L_4_R_3.png"],["11_Ratio_750_L_12_R_16.png","12_Ratio_750_L_3_R_4.png","15_Ratio_750_L_9_R_12.png","2_Ratio_750_L_6_R_8.png","3_Ratio_750_L_15_R_20.png","4_Ratio_750_L_15_R_20.png","5_Ratio_750_L_15_R_20.png","7_Ratio_750_L_3_R_4.png"]],"Rat900":[["1_Ratio_900_L_10_R_9.png","10_Ratio_900_L_20_R_18.png","2_Ratio_900_L_20_R_18.png","4_Ratio_900_L_20_R_18.png","8_Ratio_900_L_20_R_18.png"],["11_Ratio_900_L_18_R_20.png","12_Ratio_900_L_18_R_20.png","13_Ratio_900_L_18_R_20.png","14_Ratio_900_L_18_R_20.png","15_Ratio_900_L_9_R_10.png","3_Ratio_900_L_9_R_10.png","5_Ratio_900_L_9_R_10.png","6_Ratio_900_L_9_R_10.png","7_Ratio_900_L_9_R_10.png","9_Ratio_900_L_18_R_20.png"]],"Rat1000":[["10_Ratio_1000_L_16_R_16.png","11_Ratio_1000_L_6_R_6.png","12_Ratio_1000_L_14_R_14.png","13_Ratio_1000_L_20_R_20.png","15_Ratio_1000_L_15_R_15.png","2_Ratio_1000_L_17_R_17.png","4_Ratio_1000_L_9_R_9.png","5_Ratio_1000_L_6_R_6.png","6_Ratio_1000_L_19_R_19.png","8_Ratio_1000_L_14_R_14.png","9_Ratio_1000_L_25_R_25.png"],["1_Ratio_1000_L_1_R_1.png","14_Ratio_1000_L_17_R_17.png","3_Ratio_1000_L_17_R_17.png","7_Ratio_1000_L_6_R_6.png"]]}},{"start_time":1549381936761,"click_time":1549381937833,"finger_time":1549381937553,"fix_duration":542.8715004483489,"trial":1,"RT":792,"MT":280,"sideResp":2,"stimulus":"img/250/randomdotsize/R/6_Ratio_250_L_6_R_24.png","xmouse":[394.6666564941406,394.6666564941406,394.6666564941406,394.6666564941406,394.6666564941406,391.3333435058594,391.3333435058594,391.3333435058594,391.3333435058594,391.3333435058594,391.3333435058594,391.3333435058594,391.3333435058594,391.3333435058594,391.3333435058594,395.3333435058594,395.3333435058594,395.3333435058594,395.3333435058594,395.3333435058594,395.3333435058594,395.3333435058594,395.3333435058594,395.3333435058594,395.3333435058594,398.6666564941406,398.6666564941406,398.6666564941406,398.6666564941406,398.6666564941406,398.6666564941406,398.6666564941406,398.6666564941406,398.6666564941406,398.6666564941406,401.3333435058594,401.3333435058594,401.3333435058594,407.3333435058594,422.6666564941406,430.6666564941406,448,456.6666564941406,476,508.0000305175781,533.3334350585938,547.3334350585938,576.6666870117188,591.3334350585938,634.0000610351562,658.6666870117188,677.3333740234375,685.3333740234375,698.0000610351562],"ymouse":[840,840,840,840,840,836,836,836,836,836,836,836,836,836,836,834.6666870117188,834.6666870117188,834.6666870117188,834.6666870117188,834.6666870117188,834.6666870117188,834.6666870117188,834.6666870117188,834.6666870117188,834.6666870117188,836,836,836,836,836,836,836,836,836,836,830.6666870117188,830.6666870117188,830.6666870117188,810.6666870117188,760.6666870117188,739.3333740234375,691.3333740234375,666,610.6666870117188,513.3333740234375,443.3333435058594,407.3333435058594,339.3333435058594,309.3333435058594,220,170,129.33334350585938,112.66667175292969,86],"timestamp_mouse":[22,39,52,72,91,112,132,152,172,192,212,232,252,272,292,312,332,352,371,391,412,432,452,473,492,512,532,552,572,592,611,632,652,673,694,712,732,752,772,792,813,832,852,872,892,912,932,951,972,992,1012,1032,1052,1072],"xSR":350,"ySR":768,"xT1":30,"yT1":0,"xT2":670,"yT2":0,"toosoon":0,"cond_shown":"randomdotsize","ratio_trial":250,"smaller_num":"6","larger_num":"24","correct_side":2,"subjID":"13wm","gender":"No_gender","age":"No_age","school":"No_school"},{"start_time":1549381939425,"click_time":1549381940674,"finger_time":1549381940412,"fix_duration":690.6618364964748,"trial":2,"RT":987,"MT":262,"sideResp":1,"stimulus":"img/900/randomdotsize/R/5_Ratio_900_L_9_R_10.png","xmouse":[398,398,398,398,398,398,398.6666564941406,398.6666564941406,398.6666564941406,398.6666564941406,398.6666564941406,398.6666564941406,398.6666564941406,398.6666564941406,398.6666564941406,398.6666564941406,399.3333435058594,399.3333435058594,399.3333435058594,399.3333435058594,399.3333435058594,399.3333435058594,399.3333435058594,399.3333435058594,399.3333435058594,399.3333435058594,399.3333435058594,399.3333435058594,399.3333435058594,399.3333435058594,399.3333435058594,399.3333435058594,399.3333435058594,399.3333435058594,399.3333435058594,399.3333435058594,399.3333435058594,399.3333435058594,399.3333435058594,399.3333435058594,399.3333435058594,399.3333435058594,399.3333435058594,399.3333435058594,399.3333435058594,399.3333435058594,399.3333435058594,402,390,374,355.3333435058594,346,312.66668701171875,285.3333435058594,271.3333435058594,242.00001525878906,229.33334350585938,174.6666717529297,162.00001525878906,139.33335876464844,129.33335876464844,110.66666412353516,87.33333587646484],"ymouse":[820,820,820,820,820,820,822,822,822,822,822,822,822,822,822,822,823.3333129882812,823.3333129882812,823.3333129882812,823.3333129882812,823.3333129882812,823.3333129882812,823.3333129882812,823.3333129882812,823.3333129882812,823.3333129882812,823.3333129882812,823.3333129882812,823.3333129882812,823.3333129882812,823.3333129882812,823.3333129882812,823.3333129882812,823.3333129882812,823.3333129882812,823.3333129882812,823.3333129882812,821.3333129882812,821.3333129882812,821.3333129882812,821.3333129882812,821.3333129882812,821.3333129882812,821.3333129882812,821.3333129882812,821.3333129882812,821.3333129882812,808.6666870117188,778,738,696,674,588.6666870117188,522.6666870117188,489.3333435058594,420,390.66668701171875,261.3333435058594,231.33334350585938,182,160,123.33334350585938,78],"timestamp_mouse":[12,31,48,68,88,108,129,148,167,188,208,228,248,268,288,308,330,348,368,388,408,428,448,468,488,508,528,547,568,588,608,628,648,668,688,708,728,748,768,788,808,828,849,868,888,908,928,948,968,987,1008,1028,1048,1068,1088,1108,1128,1148,1167,1187,1208,1228,1248],"xSR":350,"ySR":768,"xT1":30,"yT1":0,"xT2":670,"yT2":0,"toosoon":0,"cond_shown":"randomdotsize","ratio_trial":900,"smaller_num":"9","larger_num":"10","correct_side":2,"subjID":"13wm","gender":"No_gender","age":"No_age","school":"No_school"},{"start_time":1549381942185,"click_time":1549381943193,"finger_time":1549381942974,"fix_duration":250,"trial":3,"RT":789,"MT":219,"sideResp":2,"stimulus":"img/500/randomdotsize/R/2_Ratio_500_L_3_R_6.png","xmouse":[406.66668701171875,406.66668701171875,406.66668701171875,406.66668701171875,406.66668701171875,406.66668701171875,406.66668701171875,406.66668701171875,406.66668701171875,406.66668701171875,406.66668701171875,406.66668701171875,406.66668701171875,406.66668701171875,406.66668701171875,406.66668701171875,406.66668701171875,406.66668701171875,406.66668701171875,406.0000305175781,406.0000305175781,406.0000305175781,406.0000305175781,406.0000305175781,406.0000305175781,406.0000305175781,406.0000305175781,406.0000305175781,406.0000305175781,405.3333435058594,405.3333435058594,405.3333435058594,405.3333435058594,405.3333435058594,405.3333435058594,405.3333435058594,405.3333435058594,405.3333435058594,405.3333435058594,450,495.3333435058594,509.3333435058594,538,554,583.3333740234375,616,635.3333740234375,646,670,682,718],"ymouse":[842.6666870117188,842.6666870117188,842.6666870117188,842.6666870117188,842.6666870117188,842.6666870117188,842.6666870117188,842.6666870117188,842.6666870117188,844,844,844,844,844,844,844,844,844,844,844.6666870117188,844.6666870117188,844.6666870117188,844.6666870117188,844.6666870117188,844.6666870117188,844.6666870117188,844.6666870117188,844.6666870117188,844.6666870117188,844.6666870117188,844.6666870117188,844.6666870117188,844.6666870117188,844.6666870117188,844.6666870117188,844.6666870117188,844.6666870117188,844.6666870117188,844.6666870117188,712.6666870117188,620.6666870117188,591.3333740234375,530.6666870117188,496.66668701171875,426.66668701171875,326.66668701171875,266,237.33334350585938,178.6666717529297,151.33334350585938,75.33333587646484],"timestamp_mouse":[9,34,48,68,88,107,128,148,167,188,207,228,247,268,288,308,328,348,368,388,408,428,448,468,487,508,528,548,568,588,608,628,648,668,688,708,727,748,768,789,808,828,848,868,889,908,927,948,968,988,1008],"xSR":350,"ySR":768,"xT1":30,"yT1":0,"xT2":670,"yT2":0,"toosoon":0,"cond_shown":"randomdotsize","ratio_trial":500,"smaller_num":"3","larger_num":"6","correct_side":2,"subjID":"13wm","gender":"No_gender","age":"No_age","school":"No_school"},{"start_time":1549381945876,"click_time":1549381947073,"finger_time":1549381946733,"fix_duration":1321.7032984993577,"trial":4,"RT":857,"MT":340,"sideResp":1,"stimulus":"img/500/equaldotsize/L/7_Ratio_500_L_10_R_5.png","xmouse":[396.66668701171875,396.66668701171875,396.66668701171875,396.66668701171875,396.66668701171875,396.66668701171875,396.66668701171875,396.66668701171875,396.66668701171875,396.66668701171875,396.66668701171875,396,396,396,396,396,396,396,396,396,396,396,396,396,395.3333435058594,395.3333435058594,395.3333435058594,395.3333435058594,395.3333435058594,395.3333435058594,395.3333435058594,395.3333435058594,395.3333435058594,395.3333435058594,395.3333435058594,395.3333435058594,395.3333435058594,394.66668701171875,394,393.3333435058594,391.3333435058594,380.66668701171875,361.3333435058594,350,330,320,286.66668701171875,259.3333435058594,232.6666717529297,219.33334350585938,192.6666717529297,156,144,122,102,93.33333587646484,75.33333587646484,66,62,56.66667175292969],"ymouse":[807.3333740234375,807.3333740234375,807.3333740234375,807.3333740234375,807.3333740234375,807.3333740234375,807.3333740234375,807.3333740234375,807.3333740234375,807.3333740234375,807.3333740234375,807.3333740234375,807.3333740234375,807.3333740234375,807.3333740234375,807.3333740234375,807.3333740234375,807.3333740234375,807.3333740234375,807.3333740234375,807.3333740234375,807.3333740234375,807.3333740234375,807.3333740234375,807.3333740234375,807.3333740234375,807.3333740234375,807.3333740234375,807.3333740234375,807.3333740234375,807.3333740234375,807.3333740234375,807.3333740234375,807.3333740234375,807.3333740234375,807.3333740234375,807.3333740234375,807.3333740234375,806.6666870117188,806,803.3333740234375,788.6666870117188,759.3333740234375,744,720.6666870117188,708.6666870117188,653.3333740234375,603.3333740234375,548,518,458.66668701171875,365.3333435058594,332,269.3333435058594,216,194,142,116.66667175292969,106,92],"timestamp_mouse":[16,37,57,77,97,117,137,157,177,196,216,236,257,277,297,317,337,357,376,396,417,436,457,477,497,517,537,557,576,596,616,637,656,677,697,717,737,756,777,797,817,837,857,876,897,917,938,957,977,997,1017,1037,1057,1077,1096,1117,1138,1157,1177,1196],"xSR":350,"ySR":768,"xT1":30,"yT1":0,"xT2":670,"yT2":0,"toosoon":0,"cond_shown":"equaldotsize","ratio_trial":500,"smaller_num":"5","larger_num":"10","correct_side":1,"subjID":"13wm","gender":"No_gender","age":"No_age","school":"No_school"},{"start_time":1549381949573,"click_time":1549381950793,"finger_time":1549381950534,"fix_duration":719.7161812672151,"trial":5,"RT":961,"MT":259,"sideResp":2,"stimulus":"img/500/equaldotanddens/R/12_Ratio_500_L_1_R_2.png","xmouse":[413.3333435058594,413.3333435058594,413.3333435058594,413.3333435058594,413.3333435058594,413.3333435058594,413.3333435058594,413.3333435058594,414,414,414,414,414,414,414,414,414,414,414,414,414,414,414,414,414,414,414,414,414.6666564941406,414.6666564941406,414.6666564941406,414.6666564941406,414.6666564941406,414.6666564941406,414.6666564941406,414.6666564941406,414.6666564941406,414.6666564941406,414.6666564941406,414.6666564941406,414.6666564941406,414.6666564941406,414.6666564941406,414,414,414,414,414.6666564941406,435.3333435058594,446,468.6666564941406,492,504,542.6666870117188,568.6666870117188,580.0000610351562,605.3334350585938,626.0000610351562,648.0000610351562,655.3334350585938,670.0000610351562,676.6666870117188],"ymouse":[836.6666870117188,836.6666870117188,836.6666870117188,836.6666870117188,836.6666870117188,836.6666870117188,836.6666870117188,836.6666870117188,836.6666870117188,836.6666870117188,836.6666870117188,836.6666870117188,836.6666870117188,836.6666870117188,836.6666870117188,836.6666870117188,836.6666870117188,836.6666870117188,836.6666870117188,836.6666870117188,836.6666870117188,836.6666870117188,836.6666870117188,836.6666870117188,836.6666870117188,836.6666870117188,836.6666870117188,836.6666870117188,836.0000610351562,836.0000610351562,836.0000610351562,836.0000610351562,836.0000610351562,836.0000610351562,836.0000610351562,836.0000610351562,836.0000610351562,836.0000610351562,836.0000610351562,836.0000610351562,836.0000610351562,836.0000610351562,836.0000610351562,836.0000610351562,836.0000610351562,836.0000610351562,836.0000610351562,808.6666870117188,744,721.3333740234375,672.6666870117188,620,590,489.3333435058594,418,384.66668701171875,314,248.66668701171875,167.33334350585938,142.6666717529297,100,83.33333587646484],"timestamp_mouse":[2,26,40,60,80,100,120,140,160,180,199,220,240,260,280,300,320,340,363,379,400,420,440,459,480,500,520,540,560,580,600,619,640,660,680,700,720,740,760,780,800,820,840,861,880,900,920,940,961,981,1000,1020,1040,1061,1080,1100,1119,1140,1161,1180,1200,1220],"xSR":350,"ySR":768,"xT1":30,"yT1":0,"xT2":670,"yT2":0,"toosoon":0,"cond_shown":"equaldotanddens","ratio_trial":500,"smaller_num":"1","larger_num":"2","correct_side":2,"subjID":"13wm","gender":"No_gender","age":"No_age","school":"No_school"},{"start_time":1549381951984,"click_time":1549381953774,"finger_time":1549381953454,"fix_duration":409.7460275460857,"trial":6,"RT":1470,"MT":320,"sideResp":2,"stimulus":"img/250/randomdotsize/R/4_Ratio_250_L_3_R_12.png","xmouse":[406,406,406,406,400,400,400,400,400,400,400,400,400,400,404,404,404,404,404,404,404,404,404,404,404,404,404,404,404,404,404,404,404,404,405.3333435058594,405.3333435058594,405.3333435058594,405.3333435058594,405.3333435058594,405.3333435058594,405.3333435058594,405.3333435058594,405.3333435058594,405.3333435058594,406.6666564941406,406.6666564941406,406.6666564941406,406.6666564941406,406.6666564941406,406.6666564941406,406.6666564941406,406.6666564941406,406.6666564941406,406.6666564941406,406.6666564941406,406.6666564941406,407.3333435058594,407.3333435058594,408,408,408,408,408,408,408,408,407.3333435058594,407.3333435058594,407.3333435058594,407.3333435058594,407.3333435058594,407.3333435058594,407.3333435058594,436.6666564941406,461.3333435058594,473.3333435058594,496,506.0000305175781,526.6666870117188,560.6666870117188,584.0000610351562,596.0000610351562,622.0000610351562,652.6666870117188,660.0000610351562,675.3333740234375,690.6666870117188,698.6666870117188,716.0000610351562,734.6666870117188],"ymouse":[828.6666870117188,828.6666870117188,828.6666870117188,828.6666870117188,827.3333740234375,827.3333740234375,827.3333740234375,827.3333740234375,827.3333740234375,827.3333740234375,827.3333740234375,827.3333740234375,827.3333740234375,827.3333740234375,829.3333740234375,829.3333740234375,829.3333740234375,829.3333740234375,829.3333740234375,829.3333740234375,829.3333740234375,829.3333740234375,829.3333740234375,829.3333740234375,828.6666870117188,828.6666870117188,828.6666870117188,828.6666870117188,828.6666870117188,828.6666870117188,828.6666870117188,828.6666870117188,828.6666870117188,828.6666870117188,829.3333740234375,829.3333740234375,829.3333740234375,829.3333740234375,829.3333740234375,829.3333740234375,829.3333740234375,829.3333740234375,829.3333740234375,829.3333740234375,830,830,830,830,830.6666870117188,830.6666870117188,830.6666870117188,830.6666870117188,830.6666870117188,830.6666870117188,831.3333740234375,831.3333740234375,832,832,832,832,832,832,832.6666870117188,832.6666870117188,832.6666870117188,832.6666870117188,832,832,831.3333740234375,831.3333740234375,831.3333740234375,831.3333740234375,831.3333740234375,740.6666870117188,703.3333740234375,684.6666870117188,646.6666870117188,628,586.6666870117188,514,462,436,375.3333435058594,288,264,223.33334350585938,188.6666717529297,172,137.33334350585938,98],"timestamp_mouse":[9,31,49,68,88,109,129,148,169,189,209,229,249,269,289,309,329,349,369,389,409,429,449,469,489,508,529,549,568,589,609,629,648,669,689,709,729,748,769,788,808,828,849,869,889,909,929,949,969,989,1009,1029,1049,1069,1089,1109,1129,1148,1169,1189,1209,1230,1249,1268,1289,1309,1329,1349,1369,1389,1409,1428,1449,1470,1489,1508,1529,1549,1569,1588,1609,1629,1649,1671,1689,1709,1728,1748,1768,1789],"xSR":350,"ySR":768,"xT1":30,"yT1":0,"xT2":670,"yT2":0,"toosoon":0,"cond_shown":"randomdotsize","ratio_trial":250,"smaller_num":"3","larger_num":"12","correct_side":2,"subjID":"13wm","gender":"No_gender","age":"No_age","school":"No_school"},{"start_time":1549381955418,"click_time":1549381956593,"finger_time":1549381956375,"fix_duration":261.53381047465086,"trial":7,"RT":957,"MT":218,"sideResp":2,"stimulus":"img/900/randomdotsize/R/9_Ratio_900_L_18_R_20.png","xmouse":[413.3333435058594,413.3333435058594,413.3333435058594,413.3333435058594,413.3333435058594,413.3333435058594,413.3333435058594,413.3333435058594,413.3333435058594,413.3333435058594,413.3333435058594,413.3333435058594,413.3333435058594,413.3333435058594,413.3333435058594,414,413.3333435058594,413.3333435058594,413.3333435058594,413.3333435058594,413.3333435058594,413.3333435058594,413.3333435058594,413.3333435058594,413.3333435058594,413.3333435058594,413.3333435058594,413.3333435058594,413.3333435058594,413.3333435058594,413.3333435058594,413.3333435058594,413.3333435058594,413.3333435058594,413.3333435058594,413.3333435058594,413.3333435058594,413.3333435058594,413.3333435058594,413.3333435058594,413.3333435058594,413.3333435058594,413.3333435058594,413.3333435058594,413.3333435058594,413.3333435058594,422.6666564941406,447.3333435058594,470.6666564941406,482.6666564941406,510.6666564941406,536.0000610351562,570.0000610351562,580.6666870117188,597.3334350585938,604.6666870117188,621.3334350585938,652.6666870117188,672.0000610351562],"ymouse":[832,832,832.6666870117188,832.6666870117188,832.6666870117188,832.6666870117188,832.6666870117188,832.6666870117188,832.6666870117188,832.6666870117188,832.6666870117188,832.6666870117188,832.6666870117188,832.6666870117188,832.6666870117188,832.6666870117188,832.6666870117188,832.6666870117188,832.6666870117188,832.6666870117188,832.6666870117188,832.6666870117188,832.6666870117188,832.6666870117188,832.6666870117188,832.6666870117188,832.6666870117188,832.6666870117188,832.6666870117188,832.6666870117188,832.6666870117188,832.6666870117188,832.6666870117188,832.6666870117188,832.6666870117188,832.6666870117188,832.6666870117188,832,832,831.3333740234375,831.3333740234375,831.3333740234375,831.3333740234375,831.3333740234375,831.3333740234375,831.3333740234375,770,706.6666870117188,657.3333740234375,631.3333740234375,572,507.3333740234375,408,372,308.66668701171875,279.3333435058594,222,141.33334350585938,96.66667175292969],"timestamp_mouse":[15,34,55,74,94,115,135,155,175,195,214,235,255,274,295,315,335,354,375,395,415,435,455,475,495,515,534,555,575,595,615,635,655,675,695,715,734,757,774,794,815,835,855,874,895,915,935,957,975,995,1014,1034,1057,1075,1095,1115,1135,1157,1175],"xSR":350,"ySR":768,"xT1":30,"yT1":0,"xT2":670,"yT2":0,"toosoon":0,"cond_shown":"randomdotsize","ratio_trial":900,"smaller_num":"18","larger_num":"20","correct_side":2,"subjID":"13wm","gender":"No_gender","age":"No_age","school":"No_school"},{"start_time":1549381958829,"click_time":1549381960073,"finger_time":1549381959433,"fix_duration":1375.2525178524827,"trial":8,"RT":604,"MT":640,"sideResp":2,"stimulus":"img/900/equaldotanddens/L/1_Ratio_900_L_10_R_9.png","xmouse":[395.3333435058594,397.3333435058594,397.3333435058594,397.3333435058594,397.3333435058594,397.3333435058594,397.3333435058594,397.3333435058594,397.3333435058594,397.3333435058594,397.3333435058594,398,398,398,398,398,398,398,398,398,398,399.3333435058594,399.3333435058594,399.3333435058594,399.3333435058594,399.3333435058594,399.3333435058594,399.3333435058594,411.3333435058594,418,448,489.3333435058594,508.66668701171875,559.3333740234375,587.3333740234375,598.6666870117188,610,614,614.6666870117188,614.6666870117188,614.6666870117188,578.6666870117188,560,519.3333740234375,457.3333435058594,438,402.66668701171875,386,360,328,316,313.3333435058594,316,332.66668701171875,392,420.66668701171875,483.3333435058594,514,560.6666870117188,616.6666870117188,651.3333740234375,669.3333740234375,701.3333740234375],"ymouse":[797.3333129882812,794.6666870117188,794.6666870117188,794.6666870117188,794.6666870117188,794.6666870117188,794.6666870117188,794.6666870117188,794.6666870117188,794.6666870117188,794.6666870117188,794,794,794,794,794,794,794,794,794,794,792,792,792,792,792,792,792,776.6666870117188,771.3333740234375,745.3333740234375,712,697.3333740234375,663.3333740234375,642.6666870117188,634,623.3333740234375,616.6666870117188,614,614,614,592,582,562.6666870117188,526.6666870117188,512.6666870117188,483.3333435058594,470,444,406.66668701171875,382,369.3333435058594,343.3333435058594,312.66668701171875,258,236.6666717529297,190.6666717529297,169.33334350585938,132,84,54.66667175292969,42.66666793823242,21.333335876464844],"timestamp_mouse":[4,32,44,65,84,103,124,144,164,184,204,224,244,263,284,304,324,344,364,384,403,424,444,465,484,504,524,544,566,583,604,624,644,666,684,704,724,744,764,785,804,823,843,864,887,904,923,944,964,984,1004,1024,1044,1063,1086,1104,1124,1144,1164,1184,1204,1224,1243],"xSR":350,"ySR":768,"xT1":30,"yT1":0,"xT2":670,"yT2":0,"toosoon":0,"cond_shown":"equaldotanddens","ratio_trial":900,"smaller_num":"9","larger_num":"10","correct_side":1,"subjID":"13wm","gender":"No_gender","age":"No_age","school":"No_school"},{"start_time":1549381961676,"click_time":1549381963013,"finger_time":1549381962453,"fix_duration":422.14510830456607,"trial":9,"RT":777,"MT":560,"sideResp":2,"stimulus":"img/750/randomdotsizeEA/R/7_Ratio_750_L_3_R_4.png","xmouse":[397.3333435058594,397.3333435058594,397.3333435058594,397.3333435058594,397.3333435058594,397.3333435058594,397.3333435058594,397.3333435058594,397.3333435058594,397.3333435058594,397.3333435058594,397.3333435058594,397.3333435058594,397.3333435058594,397.3333435058594,398.0000305175781,398.0000305175781,398.0000305175781,398.0000305175781,398.0000305175781,398.0000305175781,398.0000305175781,398.0000305175781,398.0000305175781,398.0000305175781,398.0000305175781,398.0000305175781,398.0000305175781,398.0000305175781,398.0000305175781,398.0000305175781,398.0000305175781,398.0000305175781,406.0000305175781,408.0000305175781,411.3333435058594,423.3333435058594,438,480.66668701171875,505.3333435058594,552,589.3333740234375,630,638.6666870117188,648.6666870117188,653.3333740234375,653.3333740234375,653.3333740234375,638.6666870117188,615.3333740234375,602,572,525.3333740234375,509.3333740234375,483.3333435058594,471.3333435058594,458,458.66668701171875,481.3333435058594,481.3333435058594,518,533.3333740234375,568.6666870117188,621.3333740234375,652,666,692.6666870117188],"ymouse":[826,826,826,826,826,825.3333129882812,825.3333129882812,825.3333129882812,825.3333129882812,825.3333129882812,825.3333129882812,825.3333129882812,825.3333129882812,825.3333129882812,825.3333129882812,825.3333129882812,825.3333129882812,825.3333129882812,825.3333129882812,825.3333129882812,825.3333129882812,825.3333129882812,825.3333129882812,825.3333129882812,825.3333129882812,825.3333129882812,825.3333129882812,825.3333129882812,825.3333129882812,825.3333129882812,825.3333129882812,825.3333129882812,825.3333129882812,820,818,816,809.3333740234375,801.3333740234375,776,762,736.6666870117188,714.6666870117188,683.3333740234375,674.6666870117188,659.3333740234375,650,646.6666870117188,646.6666870117188,632.6666870117188,615.3333740234375,607.3333740234375,587.3333740234375,554,542,520,506,476,440.66668701171875,379.3333435058594,379.3333435058594,318.66668701171875,298,254,189.33334350585938,150,131.33334350585938,96.66667175292969],"timestamp_mouse":[17,37,57,77,97,117,137,157,177,197,217,237,257,276,297,317,337,356,377,397,417,438,456,477,497,517,537,557,577,597,617,636,657,677,696,717,738,757,777,797,817,837,857,877,897,916,937,958,977,997,1017,1038,1058,1077,1097,1117,1137,1159,1177,1197,1217,1237,1256,1276,1297,1317,1337],"xSR":350,"ySR":768,"xT1":30,"yT1":0,"xT2":670,"yT2":0,"toosoon":0,"cond_shown":"randomdotsizeEA","ratio_trial":750,"smaller_num":"3","larger_num":"4","correct_side":2,"subjID":"13wm","gender":"No_gender","age":"No_age","school":"No_school"},{"start_time":1549381964756,"click_time":1549381966254,"finger_time":1549381965593,"fix_duration":921.7710345516801,"trial":10,"RT":837,"MT":661,"sideResp":2,"stimulus":"img/500/equaldotanddens/R/9_Ratio_500_L_2_R_4.png","xmouse":[396,396,396,396,401.3333435058594,401.3333435058594,401.3333435058594,401.3333435058594,401.3333435058594,401.3333435058594,401.3333435058594,401.3333435058594,401.3333435058594,402,402,402,402,402,402,402,402,402,402,402,400,400,400,400,400,400,400,400,400,398,398,397.3333435058594,398,398,399.3333435058594,408,422.66668701171875,469.3333435058594,496.66668701171875,549.3333740234375,608.6666870117188,630.6666870117188,638,644,644.6666870117188,644,626,600,584,552.6666870117188,502.66668701171875,466.66668701171875,450,416,398.66668701171875,354.66668701171875,330,319.3333435058594,306,299.3333435058594,302,302,336,376,399.3333435058594,482,533.3333740234375,559.3333740234375,611.3333740234375,638.6666870117188,728.6666870117188],"ymouse":[832.0000610351562,832.0000610351562,832.0000610351562,832.0000610351562,831.3333740234375,831.3333740234375,831.3333740234375,831.3333740234375,831.3333740234375,831.3333740234375,831.3333740234375,831.3333740234375,831.3333740234375,832.0000610351562,832.0000610351562,832.0000610351562,832.0000610351562,832.0000610351562,832.0000610351562,832.0000610351562,832.0000610351562,832.0000610351562,832.0000610351562,832.0000610351562,830.6666870117188,830.6666870117188,830.6666870117188,830.6666870117188,830.6666870117188,830.6666870117188,830.6666870117188,830.6666870117188,830.6666870117188,828,828,828,827.3333740234375,826.6666870117188,825.3333740234375,820.6666870117188,812.6666870117188,785.3333740234375,769.3333740234375,738.6666870117188,706.6666870117188,692,686.6666870117188,678.6666870117188,676,671.3333740234375,652,633.3333740234375,626,608.6666870117188,575.3333740234375,547.3333740234375,536,511.3333740234375,499.3333740234375,470,454,444.66668701171875,432,420,396,396,352,310.66668701171875,289.3333435058594,214,165.33334350585938,142,97.33333587646484,76,14],"timestamp_mouse":[30,37,57,77,97,117,137,157,177,197,217,237,257,279,297,317,337,357,377,397,417,437,457,477,497,517,537,556,577,596,617,637,657,678,697,717,737,757,778,797,816,837,857,877,897,917,936,956,977,997,1017,1037,1057,1077,1097,1117,1137,1157,1177,1197,1217,1237,1257,1277,1299,1316,1337,1357,1377,1400,1417,1437,1457,1476,1498],"xSR":350,"ySR":768,"xT1":30,"yT1":0,"xT2":670,"yT2":0,"toosoon":0,"cond_shown":"equaldotanddens","ratio_trial":500,"smaller_num":"2","larger_num":"4","correct_side":2,"subjID":"13wm","gender":"No_gender","age":"No_age","school":"No_school"},{"start_time":1549381968213,"click_time":1549381969475,"finger_time":1549381969173,"fix_duration":1058.301040280325,"trial":11,"RT":960,"MT":302,"sideResp":1,"stimulus":"img/750/equaldotsize/L/9_Ratio_750_L_4_R_3.png","xmouse":[395.3333435058594,395.3333435058594,395.3333435058594,395.3333435058594,395.3333435058594,395.3333435058594,395.3333435058594,394,394,394,394,394,394,394,394,394,394,390.66668701171875,390.66668701171875,390.66668701171875,390.66668701171875,390.66668701171875,390.66668701171875,390.66668701171875,390.66668701171875,390.66668701171875,390.66668701171875,396,396,396,396,396,396,396,396,396,396,398.66668701171875,398.66668701171875,399.3333435058594,400,400,400.66668701171875,400.66668701171875,400,398.66668701171875,398,394.66668701171875,384.66668701171875,380,372,360,353.3333435058594,333.3333435058594,314.66668701171875,305.3333435058594,287.3333435058594,268,234.6666717529297,222.6666717529297,198,185.33334350585938,158.6666717529297,123.33334350585938],"ymouse":[809.3333740234375,809.3333740234375,809.3333740234375,809.3333740234375,809.3333740234375,809.3333740234375,809.3333740234375,816.6666870117188,816.6666870117188,816.6666870117188,816.6666870117188,816.6666870117188,816.6666870117188,816.6666870117188,816.6666870117188,816.6666870117188,816.6666870117188,816,816,816,816,816,816,816,816,816,816,813.3333740234375,813.3333740234375,813.3333740234375,813.3333740234375,813.3333740234375,813.3333740234375,813.3333740234375,813.3333740234375,813.3333740234375,813.3333740234375,808.6666870117188,808.6666870117188,807.3333740234375,807.3333740234375,806,806,804,802,799.3333740234375,797.3333740234375,793.3333740234375,760,742,703.3333740234375,658.6666870117188,631.3333740234375,536,473.3333435058594,442.66668701171875,387.3333435058594,332,252,226,180.6666717529297,158.6666717529297,120,72.66667175292969],"timestamp_mouse":[1,27,40,60,80,100,120,140,159,180,200,220,240,260,280,299,320,340,360,380,400,420,440,459,480,499,520,540,560,580,599,619,640,661,679,700,720,739,760,780,800,820,840,860,880,900,920,940,960,981,1000,1020,1040,1062,1080,1100,1120,1140,1162,1180,1200,1220,1240,1262],"xSR":350,"ySR":768,"xT1":30,"yT1":0,"xT2":670,"yT2":0,"toosoon":0,"cond_shown":"equaldotsize","ratio_trial":750,"smaller_num":"3","larger_num":"4","correct_side":1,"subjID":"13wm","gender":"No_gender","age":"No_age","school":"No_school"},{"start_time":1549381971683,"click_time":1549381972833,"finger_time":1549381972533,"fix_duration":1329.156123406952,"trial":12,"RT":850,"MT":300,"sideResp":1,"stimulus":"img/750/equaldotanddens/L/8_Ratio_750_L_4_R_3.png","xmouse":[425.3333435058594,425.3333435058594,425.3333435058594,425.3333435058594,425.3333435058594,424.0000305175781,424.0000305175781,424.0000305175781,424.0000305175781,424.0000305175781,424.0000305175781,424.0000305175781,424.0000305175781,424.0000305175781,424.0000305175781,424.0000305175781,424.0000305175781,424.0000305175781,424.0000305175781,424.0000305175781,424.0000305175781,424.0000305175781,424.0000305175781,424.0000305175781,424.0000305175781,424.0000305175781,424.0000305175781,424.0000305175781,424.0000305175781,424.0000305175781,424.0000305175781,424.0000305175781,424.0000305175781,424.0000305175781,424.0000305175781,424.0000305175781,424.0000305175781,424.0000305175781,424.0000305175781,424.0000305175781,424.0000305175781,424.0000305175781,396.0000305175781,386.66668701171875,367.3333435058594,336.6667175292969,316.0000305175781,305.3333435058594,282.0000305175781,270.0000305175781,233.3333282470703,210,188,178,156.6666717529297,124.00000762939453,113.33333587646484,94.66667175292969],"ymouse":[820.6666870117188,820.6666870117188,820.6666870117188,820.6666870117188,820.6666870117188,819.3333740234375,819.3333740234375,819.3333740234375,819.3333740234375,819.3333740234375,819.3333740234375,819.3333740234375,819.3333740234375,819.3333740234375,819.3333740234375,818.6666870117188,818.6666870117188,818.6666870117188,818.6666870117188,818.6666870117188,818.6666870117188,818.6666870117188,818.6666870117188,818.6666870117188,818.6666870117188,819.3333740234375,819.3333740234375,819.3333740234375,819.3333740234375,819.3333740234375,819.3333740234375,819.3333740234375,819.3333740234375,819.3333740234375,819.3333740234375,817.3333740234375,817.3333740234375,817.3333740234375,817.3333740234375,817.3333740234375,817.3333740234375,817.3333740234375,739.3333740234375,718,677.3333740234375,610,560,532,474.66668701171875,448.66668701171875,359.3333435058594,300.66668701171875,244.66668701171875,218.6666717529297,170,115.33334350585938,101.33333587646484,74.66667175292969],"timestamp_mouse":[29,29,50,69,90,110,130,150,170,190,210,230,250,270,290,310,330,350,369,389,410,430,450,470,490,510,530,550,570,590,610,629,650,670,690,710,730,750,770,790,810,830,850,869,889,911,930,950,969,990,1011,1030,1050,1069,1090,1110,1130,1149],"xSR":350,"ySR":768,"xT1":30,"yT1":0,"xT2":670,"yT2":0,"toosoon":0,"cond_shown":"equaldotanddens","ratio_trial":750,"smaller_num":"3","larger_num":"4","correct_side":1,"subjID":"13wm","gender":"No_gender","age":"No_age","school":"No_school"},{"start_time":1549381974288,"click_time":1549381975474,"finger_time":1549381975173,"fix_duration":614.5846089326617,"trial":13,"RT":885,"MT":301,"sideResp":2,"stimulus":"img/500/randomdotsize/R/1_Ratio_500_L_9_R_18.png","xmouse":[384.66668701171875,384.66668701171875,384.66668701171875,384.66668701171875,384.66668701171875,384.66668701171875,384.66668701171875,384.66668701171875,384.66668701171875,384.66668701171875,396.66668701171875,396.66668701171875,396.66668701171875,396.66668701171875,396.66668701171875,396.66668701171875,396.66668701171875,396.66668701171875,396.66668701171875,396.66668701171875,400.0000305175781,400.0000305175781,400.0000305175781,400.0000305175781,400.0000305175781,400.0000305175781,400.0000305175781,400.0000305175781,400.0000305175781,400.0000305175781,402.0000305175781,402.0000305175781,402.0000305175781,402.0000305175781,402.0000305175781,402.0000305175781,402.0000305175781,402.0000305175781,402.0000305175781,402.0000305175781,403.3333435058594,403.3333435058594,403.3333435058594,419.3333435058594,431.3333435058594,455.3333435058594,488.0000305175781,516.6666870117188,531.3333740234375,558,570,596.6666870117188,611.3333740234375,624.6666870117188,630.6666870117188,642.6666870117188,665.3333740234375,672.6666870117188,686.6666870117188,695.3333129882812],"ymouse":[826,826,826,826,826,826,826,826,826,826,823.3333740234375,823.3333740234375,823.3333740234375,823.3333740234375,823.3333740234375,823.3333740234375,823.3333740234375,823.3333740234375,823.3333740234375,823.3333740234375,822.6666870117188,822.6666870117188,822.6666870117188,822.6666870117188,822.6666870117188,822.6666870117188,822.6666870117188,822.6666870117188,822.6666870117188,822.6666870117188,820.6666870117188,820.6666870117188,820.6666870117188,820.6666870117188,820.6666870117188,820.6666870117188,820.6666870117188,820.6666870117188,820.6666870117188,820.6666870117188,816,816,816,770.6666870117188,748,701.3333740234375,629.3333740234375,570,539.3333740234375,480,450.66668701171875,376,326,278.66668701171875,257.3333435058594,212.6666717529297,151.33334350585938,133.33334350585938,103.33333587646484,78],"timestamp_mouse":[9,33,48,65,85,105,125,144,165,185,205,224,245,265,284,305,325,345,365,385,405,425,445,465,485,505,525,545,565,585,605,625,645,664,685,705,725,745,765,784,805,825,845,865,884,905,926,945,965,985,1005,1026,1045,1065,1085,1105,1125,1145,1165,1184],"xSR":350,"ySR":768,"xT1":30,"yT1":0,"xT2":670,"yT2":0,"toosoon":0,"cond_shown":"randomdotsize","ratio_trial":500,"smaller_num":"9","larger_num":"18","correct_side":2,"subjID":"13wm","gender":"No_gender","age":"No_age","school":"No_school"},{"start_time":1549381977514,"click_time":1549381978753,"finger_time":1549381978452,"fix_duration":1119.9430002071774,"trial":14,"RT":938,"MT":301,"sideResp":2,"stimulus":"img/500/randomdotsize/R/15_Ratio_500_L_1_R_2.png","xmouse":[410.66668701171875,410.66668701171875,413.3333435058594,413.3333435058594,413.3333435058594,413.3333435058594,413.3333435058594,413.3333435058594,413.3333435058594,413.3333435058594,413.3333435058594,413.3333435058594,414.0000305175781,414.0000305175781,414.0000305175781,414.0000305175781,414.0000305175781,414.0000305175781,414.0000305175781,414.0000305175781,414.0000305175781,414.0000305175781,414.66668701171875,414.66668701171875,414.66668701171875,414.66668701171875,414.66668701171875,414.66668701171875,414.66668701171875,414.66668701171875,414.66668701171875,414.66668701171875,416.0000305175781,416.0000305175781,416.0000305175781,416.66668701171875,417.3333435058594,417.3333435058594,417.3333435058594,416.66668701171875,416.66668701171875,416.0000305175781,416.0000305175781,414.66668701171875,413.3333435058594,412.66668701171875,412.66668701171875,418.66668701171875,424.0000305175781,437.3333435058594,454.66668701171875,464.66668701171875,498.0000305175781,521.3333740234375,546,556,578.6666870117188,609.3333740234375,618.6666870117188,636,644,663.3333740234375,688],"ymouse":[842,842,840.6666870117188,840.6666870117188,840.6666870117188,840.6666870117188,840.6666870117188,840.6666870117188,840.6666870117188,840.6666870117188,840.6666870117188,840.6666870117188,840.6666870117188,840.6666870117188,840.6666870117188,840.6666870117188,840.6666870117188,840.6666870117188,840.6666870117188,840.6666870117188,840.6666870117188,840.6666870117188,838,838,838,838,838,838,838,838,838,838,830,829.3333740234375,828,828,826,824,822.6666870117188,822,820.6666870117188,819.3333740234375,818,816,812.6666870117188,809.3333740234375,790.6666870117188,761.3333740234375,742,702.6666870117188,662,640,566.6666870117188,511.3333740234375,454,428.66668701171875,369.3333435058594,286,260,212,188.6666717529297,144.6666717529297,86],"timestamp_mouse":[1,31,39,58,79,99,119,139,158,179,199,219,239,259,279,299,318,338,359,379,398,420,439,459,479,498,520,539,559,579,599,619,639,659,679,699,720,739,759,779,799,819,839,858,879,899,921,938,959,979,999,1018,1040,1059,1079,1098,1119,1139,1159,1179,1199,1219,1239],"xSR":350,"ySR":768,"xT1":30,"yT1":0,"xT2":670,"yT2":0,"toosoon":0,"cond_shown":"randomdotsize","ratio_trial":500,"smaller_num":"1","larger_num":"2","correct_side":2,"subjID":"13wm","gender":"No_gender","age":"No_age","school":"No_school"},{"start_time":1549381981101,"click_time":1549381982213,"finger_time":1549381981955,"fix_duration":926.8954912704638,"trial":15,"RT":854,"MT":258,"sideResp":2,"stimulus":"img/250/randomdotsizeEA/R/12_Ratio_250_L_5_R_20.png","xmouse":[406.0000305175781,406.0000305175781,406.0000305175781,406.0000305175781,406.0000305175781,406.0000305175781,406.0000305175781,406.0000305175781,406.0000305175781,406.0000305175781,406.0000305175781,406.66668701171875,406.66668701171875,406.66668701171875,406.66668701171875,406.66668701171875,406.66668701171875,406.66668701171875,406.66668701171875,406.66668701171875,406.66668701171875,406.66668701171875,406.66668701171875,406.66668701171875,406.66668701171875,406.66668701171875,406.66668701171875,406.66668701171875,406.66668701171875,406.66668701171875,406.66668701171875,406.66668701171875,406.66668701171875,406.66668701171875,406.66668701171875,406.66668701171875,406.66668701171875,406.66668701171875,406.66668701171875,406.66668701171875,406.66668701171875,414.0000305175781,438.66668701171875,448.66668701171875,468.66668701171875,487.3333435058594,497.3333435058594,536.6666870117188,568,584.6666870117188,609.3333740234375,629.3333740234375,638,667.3333740234375,684.6666870117188,690],"ymouse":[821.3333129882812,820.6666870117188,820.6666870117188,820.6666870117188,820.6666870117188,820.6666870117188,820.6666870117188,820.6666870117188,820.6666870117188,820.6666870117188,820.6666870117188,820.6666870117188,820.6666870117188,820.6666870117188,820.6666870117188,820.6666870117188,820.6666870117188,820.6666870117188,820.6666870117188,820.6666870117188,820.6666870117188,820.6666870117188,820.6666870117188,820.6666870117188,820.6666870117188,820.6666870117188,820.6666870117188,820.6666870117188,820.6666870117188,820.6666870117188,820.6666870117188,821.3333740234375,821.3333740234375,821.3333740234375,821.3333740234375,821.3333740234375,821.3333740234375,820.0000610351562,820.0000610351562,820.0000610351562,820.0000610351562,773.3333740234375,695.3333740234375,667.3333740234375,610,550,520,426,364.66668701171875,331.3333435058594,273.3333435058594,220,194,129.33334350585938,100.66667175292969,92],"timestamp_mouse":[12,32,52,72,92,112,131,152,172,192,211,232,252,271,292,311,332,353,372,391,411,432,452,472,492,512,531,552,572,591,612,632,652,671,692,712,732,752,771,791,812,832,854,871,891,912,932,954,972,992,1011,1032,1052,1072,1092,1112],"xSR":350,"ySR":768,"xT1":30,"yT1":0,"xT2":670,"yT2":0,"toosoon":0,"cond_shown":"randomdotsizeEA","ratio_trial":250,"smaller_num":"5","larger_num":"20","correct_side":2,"subjID":"13wm","gender":"No_gender","age":"No_age","school":"No_school"},{"start_time":1549381984613,"click_time":1549381985893,"finger_time":1549381985613,"fix_duration":1439.0780622178736,"trial":16,"RT":1000,"MT":280,"sideResp":1,"stimulus":"img/900/randomdotsizeEA/L/2_Ratio_900_L_20_R_18.png","xmouse":[395.3333435058594,395.3333435058594,395.3333435058594,395.3333435058594,395.3333435058594,395.3333435058594,395.3333435058594,395.3333435058594,395.3333435058594,395.3333435058594,397.3333435058594,397.3333435058594,397.3333435058594,397.3333435058594,397.3333435058594,397.3333435058594,397.3333435058594,397.3333435058594,397.3333435058594,397.3333435058594,397.3333435058594,397.3333435058594,397.3333435058594,397.3333435058594,397.3333435058594,397.3333435058594,397.3333435058594,397.3333435058594,397.3333435058594,397.3333435058594,397.3333435058594,397.3333435058594,397.3333435058594,397.3333435058594,397.3333435058594,397.3333435058594,397.3333435058594,397.3333435058594,397.3333435058594,397.3333435058594,396,396,396,396,396,396,396,396,396,371.3333435058594,360.6666564941406,338.66668701171875,316,305.3333435058594,268.66668701171875,240.6666717529297,226.00001525878906,199.33334350585938,171.33334350585938,138.00001525878906,129.33335876464844,114,108.66666412353516,97.33333587646484,82.66667175292969],"ymouse":[823.3333129882812,823.3333129882812,823.3333129882812,823.3333129882812,823.3333129882812,823.3333129882812,823.3333129882812,823.3333129882812,823.3333129882812,823.3333129882812,827.3333129882812,827.3333129882812,827.3333129882812,827.3333129882812,827.3333129882812,827.3333129882812,827.3333129882812,827.3333129882812,827.3333129882812,827.3333129882812,828,828,828,828,828,828,828,828,828,828,829.3333129882812,829.3333129882812,829.3333129882812,829.3333129882812,829.3333129882812,829.3333129882812,829.3333129882812,829.3333129882812,829.3333129882812,829.3333129882812,829.3333129882812,829.3333129882812,829.3333129882812,829.3333129882812,829.3333129882812,830,830,830,830,776,756,717.3333740234375,671.3333740234375,646.6666870117188,562.6666870117188,503.3333740234375,473.3333435058594,415.3333435058594,356.66668701171875,269.3333435058594,241.33334350585938,188,162.6666717529297,121.33334350585938,83.33333587646484],"timestamp_mouse":[1,28,40,60,79,100,119,140,160,181,200,220,240,261,280,300,320,340,360,380,400,420,440,460,480,500,520,539,561,580,600,619,639,660,680,700,720,740,760,779,800,819,840,860,880,900,920,941,961,979,1000,1020,1040,1060,1080,1100,1120,1140,1160,1180,1200,1220,1240,1260,1280],"xSR":350,"ySR":768,"xT1":30,"yT1":0,"xT2":670,"yT2":0,"toosoon":0,"cond_shown":"randomdotsizeEA","ratio_trial":900,"smaller_num":"18","larger_num":"20","correct_side":1,"subjID":"13wm","gender":"No_gender","age":"No_age","school":"No_school"},{"start_time":1549381987953,"click_time":1549381988973,"finger_time":1549381988753,"fix_duration":737.5717318824077,"trial":17,"RT":800,"MT":220,"sideResp":2,"stimulus":"img/900/equaldotanddens/L/8_Ratio_900_L_20_R_18.png","xmouse":[404.66668701171875,404.66668701171875,404.66668701171875,404.66668701171875,404.66668701171875,404.66668701171875,404.66668701171875,404.66668701171875,404,404,404,404,404,404,404,398,398,398,398,398,398,398,398,398,398,398,398,398,398,398,403.3333435058594,403.3333435058594,403.3333435058594,403.3333435058594,403.3333435058594,403.3333435058594,401.3333435058594,402,402,402,435.3333435058594,447.3333435058594,472.66668701171875,512.6666870117188,544.6666870117188,562,648.6666870117188,673.3333740234375,684.6666870117188,704.6666870117188,713.3333740234375],"ymouse":[837.3333740234375,837.3333740234375,837.3333740234375,837.3333740234375,837.3333740234375,837.3333740234375,837.3333740234375,837.3333740234375,838,838,838,838,838,838,838,829.3333740234375,829.3333740234375,829.3333740234375,829.3333740234375,829.3333740234375,830.0000610351562,830.0000610351562,830.0000610351562,830.0000610351562,830.0000610351562,830.0000610351562,830.0000610351562,830.0000610351562,830.0000610351562,830.0000610351562,836.6666870117188,836.6666870117188,836.6666870117188,836.6666870117188,836.6666870117188,836.6666870117188,822.6666870117188,819.3333740234375,819.3333740234375,819.3333740234375,734,702,635.3333740234375,533.3333740234375,456,414.66668701171875,229.33334350585938,174.6666717529297,150.6666717529297,112,95.33333587646484],"timestamp_mouse":[3,28,40,61,80,100,120,140,162,180,199,220,239,260,280,300,320,340,360,380,399,420,441,462,480,500,520,540,561,580,600,620,640,662,680,700,720,740,760,780,800,820,840,860,880,939,944,962,981,1000,1020],"xSR":350,"ySR":768,"xT1":30,"yT1":0,"xT2":670,"yT2":0,"toosoon":0,"cond_shown":"equaldotanddens","ratio_trial":900,"smaller_num":"18","larger_num":"20","correct_side":1,"subjID":"13wm","gender":"No_gender","age":"No_age","school":"No_school"},{"start_time":1549381990794,"click_time":1549381992033,"finger_time":1549381991793,"fix_duration":320.95827074377513,"trial":18,"RT":999,"MT":240,"sideResp":2,"stimulus":"img/900/equaldotanddens/R/12_Ratio_900_L_18_R_20.png","xmouse":[405.3333435058594,404.66668701171875,404.66668701171875,404.66668701171875,404.66668701171875,404.66668701171875,404.66668701171875,412.66668701171875,414.66668701171875,415.3333435058594,417.3333435058594,420.66668701171875,422.66668701171875,423.3333435058594,424,423.3333435058594,422,422,422,422,422,422,412.66668701171875,412,409.3333435058594,408,402,400.66668701171875,397.3333435058594,396,392.66668701171875,388.66668701171875,388,386,385.3333435058594,384.66668701171875,384.66668701171875,384.66668701171875,384.66668701171875,384.66668701171875,385.3333435058594,385.3333435058594,385.3333435058594,385.3333435058594,385.3333435058594,385.3333435058594,385.3333435058594,385.3333435058594,385.3333435058594,424,438.66668701171875,466,478.66668701171875,508,523.3333740234375,554.6666870117188,600.6666870117188,632.6666870117188,646.6666870117188,672,683.3333740234375,711.3333740234375],"ymouse":[841.3333740234375,841.3333740234375,841.3333740234375,841.3333740234375,841.3333740234375,841.3333740234375,841.3333740234375,835.3333740234375,834.6666870117188,834.6666870117188,835.3333740234375,836.6666870117188,837.3333740234375,837.3333740234375,837.3333740234375,836.6666870117188,836,836,836,836,836,836,831.3333740234375,830.6666870117188,830,829.3333740234375,827.3333740234375,826.6666870117188,826,826,825.3333740234375,824.6666870117188,824.6666870117188,824.6666870117188,824.6666870117188,824.6666870117188,825.3333740234375,825.3333740234375,824.6666870117188,824.6666870117188,824,824,824,824,824,824,824,824,824,688,642.6666870117188,558.6666870117188,525.3333740234375,456,420.66668701171875,356.66668701171875,262.66668701171875,204.6666717529297,179.33334350585938,135.33334350585938,118,69.33333587646484],"timestamp_mouse":[19,43,59,79,99,119,139,159,179,199,219,239,259,279,299,319,340,359,379,399,420,439,458,479,499,519,539,558,578,599,619,639,659,679,699,719,738,759,778,799,818,839,859,879,899,919,941,959,978,998,1019,1038,1059,1079,1099,1119,1139,1159,1178,1199,1219,1239],"xSR":350,"ySR":768,"xT1":30,"yT1":0,"xT2":670,"yT2":0,"toosoon":0,"cond_shown":"equaldotanddens","ratio_trial":900,"smaller_num":"18","larger_num":"20","correct_side":2,"subjID":"13wm","gender":"No_gender","age":"No_age","school":"No_school"},{"start_time":1549381994302,"click_time":1549381995413,"finger_time":1549381995073,"fix_duration":1306.2476965962646,"trial":19,"RT":771,"MT":340,"sideResp":1,"stimulus":"img/250/equaldotsize/L/7_Ratio_250_L_8_R_2.png","xmouse":[427.3333435058594,423.3333435058594,423.3333435058594,423.3333435058594,423.3333435058594,423.3333435058594,418,414.66668701171875,414,414,411.3333435058594,410.66668701171875,409.3333435058594,409.3333435058594,409.3333435058594,409.3333435058594,409.3333435058594,409.3333435058594,409.3333435058594,409.3333435058594,409.3333435058594,410.0000305175781,410.0000305175781,410.0000305175781,410.0000305175781,409.3333435058594,408.66668701171875,408.66668701171875,408.66668701171875,408.66668701171875,408.66668701171875,408.66668701171875,408,408,408,408,408,408,378.66668701171875,368.66668701171875,348,338,281.3333435058594,265.3333435058594,232,216.6666717529297,187.33334350585938,149.33334350585938,137.33334350585938,114.66667175292969,96.66667175292969,88,70.66667175292969,62,58.66667175292969,54],"ymouse":[805.3333740234375,805.3333740234375,805.3333740234375,805.3333740234375,805.3333740234375,805.3333740234375,807.3333740234375,808,808,808,807.3333129882812,806,805.3333129882812,805.3333129882812,805.3333129882812,805.3333129882812,805.3333129882812,805.3333129882812,805.3333129882812,805.3333129882812,805.3333129882812,809.3333740234375,811.3333740234375,812,812,814,814.6666870117188,814.6666870117188,816,816,816,816,815.3333129882812,815.3333129882812,815.3333129882812,815.3333129882812,815.3333129882812,815.3333129882812,715.3333740234375,693.3333740234375,644,618.6666870117188,498,473.3333435058594,416.66668701171875,390.66668701171875,342,268.66668701171875,246.66668701171875,207.33334350585938,177.33334350585938,163.33334350585938,129.33334350585938,112.66667175292969,104.66667175292969,93.33333587646484],"timestamp_mouse":[11,39,55,70,91,111,131,151,171,191,211,230,253,271,291,311,331,351,370,391,410,431,451,471,491,511,531,551,571,591,611,631,651,671,690,711,731,751,771,791,811,831,853,871,890,911,930,951,971,991,1010,1031,1052,1071,1091,1111],"xSR":350,"ySR":768,"xT1":30,"yT1":0,"xT2":670,"yT2":0,"toosoon":0,"cond_shown":"equaldotsize","ratio_trial":250,"smaller_num":"2","larger_num":"8","correct_side":1,"subjID":"13wm","gender":"No_gender","age":"No_age","school":"No_school"},{"start_time":1549381997754,"click_time":1549381998873,"finger_time":1549381998613,"fix_duration":1039.6890072250865,"trial":20,"RT":859,"MT":260,"sideResp":2,"stimulus":"img/900/randomdotsizeEA/L/10_Ratio_900_L_20_R_18.png","xmouse":[384.66668701171875,384.66668701171875,384.0000305175781,384.0000305175781,384.0000305175781,384.0000305175781,384.0000305175781,384.0000305175781,384.0000305175781,384.0000305175781,384.0000305175781,384.0000305175781,384.0000305175781,384.0000305175781,384.0000305175781,384.0000305175781,384.0000305175781,384.0000305175781,384.0000305175781,384.0000305175781,384.0000305175781,384.66668701171875,384.66668701171875,384.66668701171875,384.66668701171875,384.66668701171875,384.66668701171875,384.66668701171875,384.66668701171875,384.66668701171875,384.66668701171875,383.3333435058594,383.3333435058594,383.3333435058594,382.66668701171875,382.0000305175781,381.3333435058594,380.66668701171875,380.66668701171875,380.0000305175781,379.3333435058594,382.0000305175781,388.0000305175781,404.0000305175781,412.66668701171875,447.3333435058594,458.66668701171875,486.66668701171875,502.66668701171875,530.6666870117188,558,600.6666870117188,613.3333740234375,637.3333740234375,649.3333740234375,673.3333740234375],"ymouse":[841.3333129882812,841.3333129882812,841.3333129882812,841.3333129882812,841.3333129882812,841.3333129882812,841.3333129882812,841.3333129882812,841.3333129882812,841.3333129882812,841.3333129882812,834.6666870117188,834.6666870117188,834.6666870117188,834.6666870117188,834.6666870117188,834.6666870117188,834.6666870117188,834.6666870117188,834.6666870117188,834.6666870117188,831.3333129882812,831.3333129882812,831.3333129882812,831.3333129882812,831.3333129882812,831.3333129882812,831.3333129882812,831.3333129882812,831.3333129882812,831.3333129882812,825.3333740234375,824.6666870117188,823.3333740234375,822,819.3333740234375,818.6666870117188,816,814,810,799.3333740234375,773.3333740234375,751.3333740234375,695.3333740234375,666.6666870117188,552.6666870117188,520,448.66668701171875,413.3333435058594,346,280,186.6666717529297,158,104,78.66667175292969,36.66666793823242],"timestamp_mouse":[37,39,59,79,99,120,139,158,179,199,219,240,258,279,299,319,339,358,379,399,419,439,458,479,499,519,539,559,579,599,619,641,658,679,699,720,739,758,779,799,820,839,859,879,899,921,939,960,979,999,1019,1039,1059,1078,1098,1119],"xSR":350,"ySR":768,"xT1":30,"yT1":0,"xT2":670,"yT2":0,"toosoon":0,"cond_shown":"randomdotsizeEA","ratio_trial":900,"smaller_num":"18","larger_num":"20","correct_side":1,"subjID":"13wm","gender":"No_gender","age":"No_age","school":"No_school"},{"start_time":1549382000956,"click_time":1549382002333,"finger_time":1549382002095,"fix_duration":1142.2916074002649,"trial":21,"RT":1139,"MT":238,"sideResp":2,"stimulus":"img/250/equaldotsize/R/8_Ratio_250_L_1_R_4.png","xmouse":[398,398.66668701171875,398.66668701171875,398.66668701171875,398.66668701171875,398.66668701171875,399.3333435058594,399.3333435058594,399.3333435058594,400,400,400,400,400.66668701171875,401.3333435058594,402.66668701171875,404.66668701171875,405.3333435058594,406.66668701171875,407.3333435058594,408.66668701171875,410.66668701171875,411.3333435058594,411.3333435058594,412,412.66668701171875,412.66668701171875,412.66668701171875,412.0000305175781,412.0000305175781,411.3333435058594,411.3333435058594,412,412,412.0000305175781,411.3333435058594,411.3333435058594,411.3333435058594,411.3333435058594,411.3333435058594,411.3333435058594,412.0000305175781,412.0000305175781,412.0000305175781,412.66668701171875,412.66668701171875,412.66668701171875,412.66668701171875,412.66668701171875,412.66668701171875,413.3333435058594,413.3333435058594,413.3333435058594,413.3333435058594,413.3333435058594,413.3333435058594,418,432,441.3333435058594,462.66668701171875,485.3333435058594,499.3333435058594,552,596,635.3333740234375,653.3333740234375,686.6666870117188,723.3333740234375,733.3333740234375],"ymouse":[806,804.6666870117188,802.6666870117188,802,802,802,802,802,802,802,801.3333740234375,800,798.6666870117188,798,797.3333740234375,796.6666870117188,795.3333740234375,794.6666870117188,794,793.3333740234375,792,791.3333740234375,790.6666870117188,790.6666870117188,790,790,788.6666870117188,788.6666870117188,788,787.3333740234375,786.6666870117188,786.6666870117188,784.6666870117188,784.6666870117188,783.3333740234375,782.6666870117188,782.6666870117188,781.3333740234375,780.6666870117188,780.6666870117188,780.6666870117188,780,779.3333740234375,779.3333740234375,779.3333740234375,779.3333740234375,779.3333740234375,779.3333740234375,778,778,777.3333740234375,776.6666870117188,776,776,775.3333740234375,774.6666870117188,756.6666870117188,710.6666870117188,685.3333740234375,636.6666870117188,582.6666870117188,552,440,354,276,244,180,108.66667175292969,92],"timestamp_mouse":[17,37,57,77,97,117,137,157,177,197,216,238,257,277,297,317,337,357,377,396,417,438,456,477,496,517,539,557,577,597,617,636,656,677,697,717,737,757,776,797,817,840,857,877,897,917,937,957,977,997,1017,1037,1057,1076,1097,1117,1139,1156,1177,1197,1217,1236,1257,1277,1296,1317,1337,1358,1377],"xSR":350,"ySR":768,"xT1":30,"yT1":0,"xT2":670,"yT2":0,"toosoon":0,"cond_shown":"equaldotsize","ratio_trial":250,"smaller_num":"1","larger_num":"4","correct_side":2,"subjID":"13wm","gender":"No_gender","age":"No_age","school":"No_school"},{"start_time":1549382003645,"click_time":1549382004915,"finger_time":1549382004592,"fix_duration":250,"trial":22,"RT":947,"MT":323,"sideResp":1,"stimulus":"img/500/equaldotanddens/L/13_Ratio_500_L_12_R_6.png","xmouse":[406.0000305175781,406.0000305175781,406.0000305175781,406.0000305175781,406.0000305175781,406.0000305175781,406.0000305175781,406.0000305175781,402.66668701171875,402.66668701171875,402.66668701171875,402.66668701171875,402.66668701171875,412.66668701171875,413.3333435058594,414.66668701171875,414,414,413.3333435058594,413.3333435058594,413.3333435058594,413.3333435058594,413.3333435058594,413.3333435058594,413.3333435058594,413.3333435058594,413.3333435058594,413.3333435058594,411.3333435058594,411.3333435058594,411.3333435058594,411.3333435058594,411.3333435058594,411.3333435058594,411.3333435058594,411.3333435058594,411.3333435058594,411.3333435058594,409.3333435058594,409.3333435058594,409.3333435058594,409.3333435058594,409.3333435058594,409.3333435058594,410.0000305175781,410.0000305175781,432,448.66668701171875,454,460,462,462.66668701171875,463.3333435058594,459.3333435058594,459.3333435058594,412.66668701171875,376,334,312.66668701171875,243.33334350585938,196.6666717529297,178,138.6666717529297,94],"ymouse":[833.3333740234375,833.3333740234375,833.3333740234375,833.3333740234375,833.3333740234375,833.3333740234375,833.3333740234375,833.3333740234375,833.3333740234375,833.3333740234375,833.3333740234375,833.3333740234375,833.3333740234375,843.3333740234375,844.6666870117188,847.3333740234375,849.3333740234375,849.3333740234375,850.6666870117188,850.6666870117188,850.6666870117188,850.6666870117188,850.6666870117188,850.6666870117188,850.6666870117188,850.6666870117188,850.6666870117188,850.6666870117188,844.6666870117188,844.6666870117188,844.6666870117188,844.6666870117188,844.6666870117188,844.6666870117188,844.6666870117188,844.6666870117188,844.6666870117188,844.6666870117188,828.6666870117188,828.6666870117188,828.6666870117188,828.6666870117188,828.6666870117188,828.6666870117188,808.6666870117188,808.6666870117188,781.3333740234375,753.3333740234375,743.3333740234375,729.3333740234375,721.3333740234375,717.3333740234375,707.3333740234375,687.3333740234375,687.3333740234375,593.3333740234375,530.6666870117188,467.3333435058594,432,317.3333435058594,247.33334350585938,220,164.6666717529297,92],"timestamp_mouse":[9,32,48,68,88,107,128,147,168,188,208,228,248,269,288,308,328,348,368,388,408,428,448,469,488,508,528,548,568,588,608,628,648,669,688,708,728,748,768,788,808,827,848,868,890,908,928,947,968,988,1008,1028,1048,1068,1088,1108,1128,1148,1169,1188,1208,1228,1248,1270],"xSR":350,"ySR":768,"xT1":30,"yT1":0,"xT2":670,"yT2":0,"toosoon":0,"cond_shown":"equaldotanddens","ratio_trial":500,"smaller_num":"6","larger_num":"12","correct_side":1,"subjID":"13wm","gender":"No_gender","age":"No_age","school":"No_school"},{"start_time":1549382006601,"click_time":1549382007952,"finger_time":1549382007454,"fix_duration":746.4118532450279,"trial":23,"RT":853,"MT":498,"sideResp":1,"stimulus":"img/250/equaldotanddens/L/5_Ratio_250_L_24_R_6.png","xmouse":[436.66668701171875,436.66668701171875,436.66668701171875,436.66668701171875,433.3333435058594,433.3333435058594,433.3333435058594,433.3333435058594,433.3333435058594,433.3333435058594,433.3333435058594,425.3333435058594,422.66668701171875,420.66668701171875,419.3333435058594,418,416.66668701171875,416.66668701171875,416,414.66668701171875,414.66668701171875,414.66668701171875,410,409.3333435058594,408.66668701171875,407.3333435058594,407.3333435058594,407.3333435058594,407.3333435058594,408.66668701171875,408.66668701171875,408.66668701171875,408.66668701171875,408.66668701171875,408.66668701171875,408.66668701171875,408.66668701171875,408.66668701171875,400.66668701171875,400,400,400.6666564941406,406,406,440,452,486.66668701171875,530,552.6666870117188,560.6666870117188,576,581.3333740234375,580.6666870117188,580.6666870117188,580.6666870117188,541.3333740234375,512.6666870117188,466,449.3333435058594,414,375.3333435058594,316,296,257.3333435058594,238,200.6666717529297,165.33334350585938,121.33334350585938],"ymouse":[855.3333740234375,855.3333740234375,855.3333740234375,855.3333740234375,838,838,838,838,838,838,838,837.3333740234375,835.3333740234375,834.6666870117188,834.6666870117188,836,838.6666870117188,838.6666870117188,838.6666870117188,834.6666870117188,834.6666870117188,834.6666870117188,812.6666870117188,809.3333740234375,805.3333740234375,804,804.6666870117188,804.6666870117188,804.6666870117188,814,814,814,814,814,814,814,814,814,800,798.6666870117188,794.6666870117188,790,764.6666870117188,764.6666870117188,664.6666870117188,634,562.6666870117188,464,412.66668701171875,394.66668701171875,361.3333435058594,327.3333435058594,320,320,320,286.66668701171875,274.66668701171875,260.66668701171875,257.3333435058594,246.66668701171875,227.33334350585938,190.6666717529297,177.33334350585938,152,138,112,86,49.333335876464844],"timestamp_mouse":[12,32,52,71,92,112,131,152,172,192,212,233,252,272,292,311,332,352,372,392,412,432,451,472,492,512,533,552,571,592,612,632,652,672,691,712,732,752,772,792,811,832,853,872,892,912,932,953,971,991,1012,1036,1055,1071,1092,1112,1132,1155,1172,1192,1212,1234,1252,1272,1292,1312,1332,1351],"xSR":350,"ySR":768,"xT1":30,"yT1":0,"xT2":670,"yT2":0,"toosoon":0,"cond_shown":"equaldotanddens","ratio_trial":250,"smaller_num":"6","larger_num":"24","correct_side":1,"subjID":"13wm","gender":"No_gender","age":"No_age","school":"No_school"},{"start_time":1549382009485,"click_time":1549382010773,"finger_time":1549382010633,"fix_duration":250,"trial":24,"RT":1148,"MT":140,"sideResp":2,"stimulus":"img/900/equaldotsize/R/5_Ratio_900_L_9_R_10.png","xmouse":[388.0000305175781,388.0000305175781,388.0000305175781,385.3333435058594,385.3333435058594,385.3333435058594,385.3333435058594,385.3333435058594,385.3333435058594,385.3333435058594,385.3333435058594,385.3333435058594,385.3333435058594,383.3333435058594,383.3333435058594,383.3333435058594,383.3333435058594,383.3333435058594,383.3333435058594,383.3333435058594,383.3333435058594,383.3333435058594,383.3333435058594,385.3333435058594,385.3333435058594,385.3333435058594,385.3333435058594,385.3333435058594,385.3333435058594,385.3333435058594,385.3333435058594,385.3333435058594,385.3333435058594,383.3333435058594,382.6666564941406,382.6666564941406,382.6666564941406,381.3333435058594,381.3333435058594,381.3333435058594,381.3333435058594,380.66668701171875,380.66668701171875,380.66668701171875,380.66668701171875,380.66668701171875,380.66668701171875,380.66668701171875,380.66668701171875,380.66668701171875,380.66668701171875,380.66668701171875,380.66668701171875,380.66668701171875,384,384,384,418.66668701171875,453.3333435058594,508.66668701171875,551.3333740234375,575.3333740234375,619.3333740234375,634.6666870117188,677.3333740234375],"ymouse":[809.3333740234375,809.3333740234375,809.3333740234375,806.6666870117188,806.6666870117188,806.6666870117188,806.6666870117188,806.6666870117188,806.6666870117188,806.6666870117188,806.6666870117188,806.6666870117188,806.6666870117188,808,808,808,808,808,808,808,808,808,808,808,808,808,808,808,808,808,808,808,808,809.3333740234375,809.3333740234375,809.3333740234375,809.3333740234375,812,812,812,812,813.3333740234375,812.6666870117188,812.6666870117188,812.0000610351562,812.0000610351562,812.0000610351562,812.0000610351562,812.0000610351562,812.0000610351562,812.0000610351562,812.0000610351562,812.0000610351562,812.0000610351562,791.3333740234375,791.3333740234375,791.3333740234375,685.3333740234375,602,472,376,327.3333435058594,238,204,86],"timestamp_mouse":[10,35,47,68,88,108,128,148,168,188,208,227,248,268,288,308,328,348,368,388,408,428,447,468,487,508,528,548,567,588,608,627,648,668,688,708,728,748,768,787,808,827,848,867,888,908,928,948,968,988,1008,1028,1048,1068,1090,1108,1128,1148,1168,1187,1207,1228,1248,1268,1288],"xSR":350,"ySR":768,"xT1":30,"yT1":0,"xT2":670,"yT2":0,"toosoon":0,"cond_shown":"equaldotsize","ratio_trial":900,"smaller_num":"9","larger_num":"10","correct_side":2,"subjID":"13wm","gender":"No_gender","age":"No_age","school":"No_school"},{"start_time":1549382012792,"click_time":1549382014373,"finger_time":1549382013952,"fix_duration":938.418889275504,"trial":25,"RT":1160,"MT":421,"sideResp":1,"stimulus":"img/250/randomdotsize/L/7_Ratio_250_L_8_R_2.png","xmouse":[371.3333435058594,371.3333435058594,371.3333435058594,371.3333435058594,362,362,362,362,362,361.3333435058594,361.3333435058594,361.3333435058594,361.3333435058594,361.3333435058594,360.66668701171875,360,360,360,360,359.3333435058594,359.3333435058594,359.3333435058594,359.3333435058594,359.3333435058594,360,360,360,360,360,360,360,358.66668701171875,358.66668701171875,358.66668701171875,359.3333435058594,359.3333435058594,359.3333435058594,359.3333435058594,359.3333435058594,359.3333435058594,359.3333435058594,359.3333435058594,359.3333435058594,359.3333435058594,357.3333435058594,357.3333435058594,357.3333435058594,357.3333435058594,357.3333435058594,356.66668701171875,355.3333435058594,355.3333435058594,354.66668701171875,354,354.6666564941406,357.3333435058594,357.3333435058594,357.3333435058594,453.3333435058594,484,568.6666870117188,614,650.6666870117188,664,675.3333740234375,676.0000610351562,676.0000610351562,676.0000610351562,676.0000610351562,676.0000610351562,676.0000610351562,546.6666870117188,512.6666870117188,451.3333435058594,394,301.3333435058594,266.66668701171875,204,174.6666717529297,121.33334350585938],"ymouse":[816,816,816,816,812,812,812,812.6666870117188,813.3333740234375,814.6666870117188,815.3333740234375,816,816,816,814.6666870117188,813.3333740234375,812.6666870117188,812.6666870117188,812.6666870117188,812,811.3333740234375,811.3333740234375,811.3333740234375,812,812,812.6666870117188,812.6666870117188,812.6666870117188,812.6666870117188,812.6666870117188,812.6666870117188,811.3333740234375,810.6666870117188,809.3333740234375,808.6666870117188,808,808,808,808,808,808,808,808,808,805.3333740234375,805.3333740234375,805.3333740234375,804.6666870117188,804.6666870117188,804,801.3333740234375,800.6666870117188,798.6666870117188,798,794.6666870117188,780.6666870117188,780.6666870117188,780.6666870117188,611.3333740234375,566.6666870117188,450,398,368.66668701171875,358.66668701171875,350.66668701171875,348,348,348,348,348,348,326.66668701171875,316.66668701171875,292.66668701171875,254.66668701171875,196,174,131.33334350585938,108.66667175292969,62.66667175292969],"timestamp_mouse":[2,31,41,61,83,101,121,141,161,182,201,221,241,271,282,301,321,341,361,382,400,421,441,461,481,501,521,541,561,581,601,621,641,661,681,701,720,741,760,780,801,821,841,861,892,901,921,941,961,981,1001,1021,1041,1061,1081,1102,1121,1141,1160,1181,1201,1221,1241,1261,1281,1304,1321,1341,1361,1381,1401,1421,1441,1461,1481,1500,1521,1541,1560,1581],"xSR":350,"ySR":768,"xT1":30,"yT1":0,"xT2":670,"yT2":0,"toosoon":0,"cond_shown":"randomdotsize","ratio_trial":250,"smaller_num":"2","larger_num":"8","correct_side":1,"subjID":"13wm","gender":"No_gender","age":"No_age","school":"No_school"},{"start_time":1549382016670,"click_time":1549382018193,"finger_time":1549382017716,"fix_duration":1175.3751897633347,"trial":26,"RT":1046,"MT":477,"sideResp":1,"stimulus":"img/250/randomdotsizeEA/L/15_Ratio_250_L_12_R_3.png","xmouse":[425.3333435058594,425.3333435058594,425.3333435058594,425.3333435058594,422.66668701171875,422.66668701171875,422,421.3333435058594,420.66668701171875,420.66668701171875,420.66668701171875,420.66668701171875,420.66668701171875,420.66668701171875,420.66668701171875,420.66668701171875,420.66668701171875,421.3333435058594,421.3333435058594,421.3333435058594,421.3333435058594,421.3333435058594,423.3333435058594,423.3333435058594,422.66668701171875,422.66668701171875,422.66668701171875,422.66668701171875,419.3333435058594,419.3333435058594,418.66668701171875,418,416.66668701171875,416,416,416,416,416,415.3333435058594,414.66668701171875,414.66668701171875,414.66668701171875,413.3333435058594,412,412,412,412,412,412,412,411.3333435058594,411.3333435058594,412,412,411.3333435058594,411.3333435058594,411.3333435058594,411.3333435058594,411.3333435058594,411.3333435058594,411.3333435058594,382.66668701171875,344.66668701171875,334.66668701171875,314.66668701171875,304,283.3333435058594,241.33334350585938,211.33334350585938,198,168,155.33334350585938,119.33333587646484,101.33333587646484,92.66667175292969,78.66667175292969,68],"ymouse":[843.3333740234375,843.3333740234375,843.3333740234375,843.3333740234375,846.6666870117188,847.3333740234375,848,849.3333740234375,850,850,850.6666870117188,851.3333740234375,852,852,852,852,851.3333740234375,851.3333129882812,851.3333129882812,851.3333129882812,851.3333129882812,851.3333129882812,856.6666870117188,856.6666870117188,858,858,858,858,860,860.6666870117188,860.6666870117188,860.6666870117188,860.6666870117188,860.6666870117188,860.6666870117188,861.3333740234375,862,862,862.6666870117188,862,862,862,860.6666870117188,860.6666870117188,860.6666870117188,860.6666870117188,861.3333740234375,861.3333740234375,864,865.3333740234375,866.6666870117188,867.3333740234375,868.6666870117188,868.6666870117188,868,868,868,868,868,868,868,821.3333740234375,741.3333740234375,714.6666870117188,657.3333740234375,627.3333740234375,568,475.3333435058594,413.3333435058594,384.66668701171875,326.66668701171875,298,224.6666717529297,180,159.33334350585938,124,93.33333587646484],"timestamp_mouse":[3,28,44,63,83,102,122,143,163,183,203,223,243,262,282,303,323,346,363,383,403,423,444,463,483,503,523,543,564,583,603,623,643,662,683,703,722,742,763,783,802,823,843,862,882,903,923,943,963,983,1003,1022,1046,1063,1082,1103,1123,1143,1163,1183,1203,1223,1245,1263,1283,1303,1323,1344,1363,1382,1403,1423,1445,1463,1483,1502,1523],"xSR":350,"ySR":768,"xT1":30,"yT1":0,"xT2":670,"yT2":0,"toosoon":0,"cond_shown":"randomdotsizeEA","ratio_trial":250,"smaller_num":"3","larger_num":"12","correct_side":1,"subjID":"13wm","gender":"No_gender","age":"No_age","school":"No_school"},{"start_time":1549382020095,"click_time":1549382021393,"finger_time":1549382021134,"fix_duration":841.0286134291537,"trial":27,"RT":1039,"MT":259,"sideResp":1,"stimulus":"img/900/randomdotsizeEA/L/2_Ratio_900_L_20_R_18.png","xmouse":[414,414,414,414,414,412.66668701171875,412,412,411.3333435058594,411.3333435058594,411.3333435058594,411.3333435058594,411.3333435058594,411.3333435058594,411.3333435058594,411.3333435058594,411.3333435058594,411.3333435058594,410.66668701171875,410.66668701171875,410.66668701171875,410.66668701171875,410.66668701171875,409.3333435058594,409.3333435058594,409.3333435058594,409.3333435058594,409.3333435058594,409.3333435058594,409.3333435058594,408.66668701171875,408.66668701171875,408.66668701171875,408.66668701171875,408,408,408,408,408,407.3333435058594,407.3333435058594,407.3333435058594,406.66668701171875,406.66668701171875,406.66668701171875,406.66668701171875,406.66668701171875,406.66668701171875,406.66668701171875,406.66668701171875,406.66668701171875,350,338,316,303.3333435058594,277.3333435058594,233.33334350585938,205.33334350585938,190,164,138,126,94.66667175292969,78.66667175292969,71.33333587646484],"ymouse":[826.6666870117188,826.6666870117188,826.6666870117188,826.6666870117188,826.6666870117188,828.6666870117188,828,828,828,828,828,828,828,828,828,828,828,828,828,828,828,828,828,829.3333740234375,829.3333740234375,829.3333740234375,829.3333740234375,829.3333740234375,829.3333740234375,829.3333740234375,829.3333740234375,829.3333740234375,829.3333740234375,829.3333740234375,829.3333740234375,830,830,830,830,830,829.3333129882812,829.3333129882812,829.3333129882812,829.3333129882812,829.3333129882812,829.3333129882812,829.3333129882812,829.3333129882812,829.3333129882812,829.3333129882812,829.3333129882812,722,702.6666870117188,662,638.6666870117188,586,497.3333740234375,436.66668701171875,402,338,276,245.33334350585938,158,107.33333587646484,82.66667175292969],"timestamp_mouse":[18,37,58,78,98,118,140,158,177,198,218,238,258,278,297,318,337,357,378,397,418,438,458,478,498,518,538,558,578,598,618,637,658,678,698,718,738,758,778,797,818,838,858,878,898,918,937,958,978,998,1017,1039,1058,1077,1098,1118,1140,1158,1177,1198,1218,1238,1258,1278,1298],"xSR":350,"ySR":768,"xT1":30,"yT1":0,"xT2":670,"yT2":0,"toosoon":0,"cond_shown":"randomdotsizeEA","ratio_trial":900,"smaller_num":"18","larger_num":"20","correct_side":1,"subjID":"13wm","gender":"No_gender","age":"No_age","school":"No_school"},{"start_time":1549382023450,"click_time":1549382024633,"finger_time":1549382024393,"fix_duration":1016.4536682942673,"trial":28,"RT":943,"MT":240,"sideResp":2,"stimulus":"img/900/equaldotsize/L/8_Ratio_900_L_20_R_18.png","xmouse":[409.3333435058594,409.3333435058594,409.3333435058594,409.3333435058594,409.3333435058594,409.3333435058594,409.3333435058594,409.3333435058594,409.3333435058594,409.3333435058594,408.66668701171875,408.66668701171875,408.66668701171875,408.66668701171875,408.66668701171875,408.66668701171875,408.66668701171875,408.66668701171875,408.66668701171875,408.66668701171875,405.3333435058594,405.3333435058594,405.3333435058594,405.3333435058594,405.3333435058594,405.3333435058594,405.3333435058594,405.3333435058594,405.3333435058594,405.3333435058594,405.3333435058594,405.3333435058594,405.3333435058594,405.3333435058594,405.3333435058594,405.3333435058594,405.3333435058594,405.3333435058594,405.3333435058594,405.3333435058594,402,402,402,402,402,402,398.66668701171875,408.66668701171875,416.66668701171875,436.66668701171875,462.66668701171875,523.3333740234375,544.6666870117188,587.3333740234375,607.3333740234375,651.3333740234375,698.6666870117188,714.6666870117188,720.6666870117188,728],"ymouse":[835.3333740234375,835.3333740234375,835.3333740234375,835.3333740234375,835.3333740234375,835.3333740234375,835.3333740234375,835.3333740234375,835.3333740234375,835.3333740234375,834.6666870117188,834.6666870117188,834.6666870117188,834.6666870117188,834.6666870117188,834.6666870117188,834.6666870117188,834.6666870117188,834.6666870117188,834.6666870117188,834.6666870117188,834.6666870117188,834.6666870117188,834.6666870117188,834.6666870117188,834.6666870117188,834.6666870117188,834.6666870117188,834.6666870117188,834.6666870117188,838.0000610351562,838.0000610351562,838.0000610351562,838.0000610351562,838.0000610351562,838.0000610351562,838.0000610351562,838.0000610351562,838.0000610351562,838.0000610351562,834.6666870117188,834.6666870117188,834.6666870117188,834.6666870117188,834.6666870117188,834.6666870117188,787.3333740234375,726,694.6666870117188,637.3333740234375,572,452.66668701171875,414.66668701171875,341.3333435058594,310,242.66668701171875,160,123.33334350585938,109.33333587646484,86.66667175292969],"timestamp_mouse":[18,33,48,63,82,102,123,143,162,183,203,223,243,263,283,303,323,342,363,383,404,423,443,462,482,502,522,543,563,583,603,623,642,663,683,703,722,743,763,783,802,823,843,863,883,903,923,943,963,982,1003,1023,1043,1063,1083,1103,1124,1143,1163,1182],"xSR":350,"ySR":768,"xT1":30,"yT1":0,"xT2":670,"yT2":0,"toosoon":0,"cond_shown":"equaldotsize","ratio_trial":900,"smaller_num":"18","larger_num":"20","correct_side":1,"subjID":"13wm","gender":"No_gender","age":"No_age","school":"No_school"},{"start_time":1549382027472,"click_time":1549382028513,"finger_time":1549382028253,"fix_duration":1378.1627633843902,"trial":29,"RT":781,"MT":260,"sideResp":1,"stimulus":"img/500/equaldotsize/L/11_Ratio_500_L_12_R_6.png","xmouse":[400,400,400,400,400,400,400,400,400,400,400,400,400,400,402,402,402,402,402,402,402,402,402,402,402,402,402,402,402,402,402,402,402,402,402,402,402,402,402,376,357.3333435058594,327.3333435058594,317.3333435058594,294.66668701171875,272,260.66668701171875,227.33334350585938,206,194.6666717529297,171.33334350585938,157.33334350585938,121.33333587646484,100.66667175292969],"ymouse":[803.3333740234375,803.3333740234375,804.0000610351562,804.0000610351562,804.6666870117188,804.6666870117188,804.6666870117188,804.6666870117188,804.6666870117188,804.6666870117188,804.6666870117188,804.6666870117188,804.6666870117188,804.6666870117188,809.3333740234375,809.3333740234375,809.3333740234375,809.3333740234375,809.3333740234375,809.3333740234375,809.3333740234375,809.3333740234375,809.3333740234375,809.3333740234375,808.6666870117188,808.6666870117188,808.6666870117188,808.6666870117188,808.6666870117188,808.6666870117188,808.6666870117188,808.6666870117188,808.6666870117188,808.6666870117188,808.6666870117188,808.6666870117188,808.6666870117188,808.6666870117188,808.6666870117188,765.3333740234375,720,646,618.6666870117188,558.6666870117188,486.66668701171875,450,348.66668701171875,288,258.66668701171875,201.33334350585938,176,106,64],"timestamp_mouse":[7,32,41,61,81,101,121,141,161,181,201,221,241,261,280,301,320,341,361,381,401,421,441,461,481,501,520,541,561,581,601,620,641,661,681,701,721,741,761,781,801,821,841,861,881,901,922,941,961,980,1001,1022,1041],"xSR":350,"ySR":768,"xT1":30,"yT1":0,"xT2":670,"yT2":0,"toosoon":0,"cond_shown":"equaldotsize","ratio_trial":500,"smaller_num":"6","larger_num":"12","correct_side":1,"subjID":"13wm","gender":"No_gender","age":"No_age","school":"No_school"},{"start_time":1549382030641,"click_time":1549382031833,"finger_time":1549382031623,"fix_duration":1267.9189356239217,"trial":30,"RT":982,"MT":210,"sideResp":2,"stimulus":"img/500/equaldotanddens/R/12_Ratio_500_L_1_R_2.png","xmouse":[396.66668701171875,396.66668701171875,396.66668701171875,396.66668701171875,396.66668701171875,396.66668701171875,396.66668701171875,396.66668701171875,396.66668701171875,396.66668701171875,399.3333435058594,399.3333435058594,399.3333435058594,399.3333435058594,399.3333435058594,399.3333435058594,399.3333435058594,399.3333435058594,399.3333435058594,399.3333435058594,400,400,400,400,400,402.66668701171875,403.3333435058594,403.3333435058594,403.3333435058594,403.3333435058594,402.66668701171875,402.66668701171875,402.66668701171875,402.66668701171875,402.66668701171875,402.66668701171875,402.66668701171875,402.66668701171875,402.66668701171875,402.66668701171875,402.66668701171875,402.66668701171875,402.66668701171875,402.66668701171875,402.66668701171875,402.66668701171875,407.3333435058594,410,416.66668701171875,430.66668701171875,445.3333435058594,456,480.66668701171875,526,560,578,618,638,690,715.3333740234375],"ymouse":[818,818,818,818,818,818,818,818,818,818,814.6666870117188,814.6666870117188,814.6666870117188,814.6666870117188,814.6666870117188,814.6666870117188,814.6666870117188,814.6666870117188,814.6666870117188,814.6666870117188,814.6666870117188,814.6666870117188,814.6666870117188,814.6666870117188,814.6666870117188,814.6666870117188,814.6666870117188,815.3333740234375,815.3333740234375,815.3333740234375,815.3333129882812,815.3333129882812,815.3333129882812,815.3333129882812,815.3333129882812,815.3333129882812,815.3333129882812,815.3333129882812,815.3333129882812,815.3333129882812,812.6666870117188,812.6666870117188,812.6666870117188,812.6666870117188,812.6666870117188,812.6666870117188,795.3333740234375,778,730,664,613.3333740234375,586,530.6666870117188,442,378,346,274,237.33334350585938,137.33334350585938,80],"timestamp_mouse":[12,34,52,71,92,112,132,151,172,192,212,232,252,272,292,312,332,352,372,392,412,432,452,472,491,512,532,552,572,591,612,632,652,672,691,712,732,752,771,792,812,832,852,872,892,912,932,952,982,992,1012,1032,1052,1073,1092,1112,1132,1152,1173,1192],"xSR":350,"ySR":768,"xT1":30,"yT1":0,"xT2":670,"yT2":0,"toosoon":0,"cond_shown":"equaldotanddens","ratio_trial":500,"smaller_num":"1","larger_num":"2","correct_side":2,"subjID":"13wm","gender":"No_gender","age":"No_age","school":"No_school"},{"start_time":1549382033170,"click_time":1549382034154,"finger_time":1549382033973,"fix_duration":475.2016754021533,"trial":31,"RT":803,"MT":181,"sideResp":2,"stimulus":"img/250/equaldotsize/R/13_Ratio_250_L_2_R_8.png","xmouse":[416.66668701171875,416.66668701171875,416.66668701171875,410.66668701171875,409.3333435058594,409.3333435058594,409.3333435058594,409.3333435058594,409.3333435058594,409.3333435058594,409.3333435058594,409.3333435058594,409.3333435058594,409.3333435058594,409.3333435058594,409.3333435058594,409.3333435058594,416.0000305175781,416.0000305175781,416.0000305175781,416.0000305175781,416.0000305175781,416.0000305175781,416.0000305175781,416.0000305175781,401.3333435058594,400,397.3333435058594,396.66668701171875,397.3333435058594,397.3333435058594,397.3333435058594,397.3333435058594,397.3333435058594,397.3333435058594,397.3333435058594,397.3333435058594,397.3333435058594,397.3333435058594,397.3333435058594,436.66668701171875,472,489.3333435058594,540,575.3333740234375,614.6666870117188,631.3333740234375,664,704,720],"ymouse":[802.6666870117188,802.6666870117188,802.6666870117188,808.6666870117188,810,811.3333740234375,811.3333740234375,814.6666870117188,814.6666870117188,814.6666870117188,814.6666870117188,814.6666870117188,814.6666870117188,814.6666870117188,814.6666870117188,814.6666870117188,814.6666870117188,828,828,828,828,828,828,828,828,815.3333740234375,814.6666870117188,813.3333740234375,814.6666870117188,816,816.6666870117188,816.6666870117188,816.6666870117188,816.6666870117188,816.6666870117188,816.6666870117188,816.6666870117188,816.6666870117188,816.6666870117188,816.6666870117188,714,640.6666870117188,603.3333740234375,485.3333435058594,402.66668701171875,315.3333435058594,273.3333435058594,196,115.33334350585938,94.66667175292969],"timestamp_mouse":[3,29,43,63,83,102,123,143,163,183,203,223,243,263,283,303,323,344,364,382,402,423,443,464,483,503,522,542,562,583,603,622,643,663,683,703,723,743,764,783,803,823,843,863,883,903,923,943,963,983],"xSR":350,"ySR":768,"xT1":30,"yT1":0,"xT2":670,"yT2":0,"toosoon":0,"cond_shown":"equaldotsize","ratio_trial":250,"smaller_num":"2","larger_num":"8","correct_side":2,"subjID":"13wm","gender":"No_gender","age":"No_age","school":"No_school"},{"start_time":1549382036023,"click_time":1549382037233,"finger_time":1549382036954,"fix_duration":1009.0862177009444,"trial":32,"RT":931,"MT":279,"sideResp":1,"stimulus":"img/250/equaldotanddens/L/14_Ratio_250_L_12_R_3.png","xmouse":[374.0000305175781,373.3333435058594,373.3333435058594,373.3333435058594,373.3333435058594,373.3333435058594,373.3333435058594,373.3333435058594,373.3333435058594,373.3333435058594,373.3333435058594,375.3333435058594,375.3333435058594,375.3333435058594,375.3333435058594,375.3333435058594,375.3333435058594,375.3333435058594,375.3333435058594,375.3333435058594,379.3333435058594,378,378,378,378,378,378,378,378,378,378,371.3333435058594,371.3333435058594,371.3333435058594,371.3333435058594,371.3333435058594,371.3333435058594,371.3333435058594,371.3333435058594,371.3333435058594,371.3333435058594,365.3333435058594,365.3333435058594,365.3333435058594,363.3333435058594,360,342,327.3333435058594,314.66668701171875,306,286.66668701171875,246.6666717529297,230.6666717529297,202.6666717529297,190,159.33334350585938,114,86.66667175292969,74.66667175292969,50.66666793823242,39.333335876464844],"ymouse":[844.6666870117188,847.3333740234375,847.3333740234375,847.3333740234375,847.3333740234375,847.3333740234375,847.3333740234375,847.3333740234375,847.3333740234375,847.3333740234375,847.3333740234375,833.3333740234375,833.3333740234375,833.3333740234375,833.3333740234375,833.3333740234375,820.6666870117188,820.6666870117188,820.6666870117188,820.6666870117188,812.6666870117188,810.6666870117188,810.6666870117188,810.6666870117188,810.6666870117188,810.6666870117188,810.6666870117188,810.6666870117188,810.6666870117188,810.6666870117188,810.6666870117188,814.0000610351562,814.0000610351562,814.0000610351562,814.0000610351562,814.0000610351562,814.0000610351562,814.0000610351562,814.0000610351562,814.0000610351562,814.0000610351562,812.0000610351562,812.0000610351562,812.0000610351562,802,792.6666870117188,743.3333740234375,714,690,676.6666870117188,643.3333740234375,580.6666870117188,553.3333740234375,492,457.3333435058594,378.66668701171875,266,198,166.6666717529297,108,82],"timestamp_mouse":[13,31,50,70,90,110,131,150,170,190,210,231,250,270,290,310,330,350,370,390,410,432,450,470,490,510,531,550,570,590,610,630,649,670,689,710,729,750,772,790,809,833,850,869,890,910,931,950,970,990,1010,1031,1050,1070,1089,1110,1130,1150,1170,1190,1210],"xSR":350,"ySR":768,"xT1":30,"yT1":0,"xT2":670,"yT2":0,"toosoon":0,"cond_shown":"equaldotanddens","ratio_trial":250,"smaller_num":"3","larger_num":"12","correct_side":1,"subjID":"13wm","gender":"No_gender","age":"No_age","school":"No_school"},{"start_time":1549382039272,"click_time":1549382040475,"finger_time":1549382040333,"fix_duration":1057.6832213033067,"trial":33,"RT":1061,"MT":142,"sideResp":2,"stimulus":"img/500/randomdotsizeEA/L/7_Ratio_500_L_10_R_5.png","xmouse":[425.3333435058594,420.66668701171875,420.66668701171875,418.66668701171875,418.66668701171875,419.3333435058594,419.3333435058594,419.3333435058594,419.3333435058594,419.3333435058594,420.0000305175781,420.0000305175781,420.0000305175781,420.0000305175781,420.0000305175781,420.0000305175781,420.0000305175781,420.0000305175781,420.0000305175781,420.0000305175781,418.66668701171875,417.3333435058594,417.3333435058594,416.66668701171875,417.3333435058594,417.3333435058594,417.3333435058594,417.3333435058594,417.3333435058594,417.3333435058594,422.0000305175781,422.0000305175781,422.0000305175781,422.0000305175781,422.0000305175781,422.0000305175781,422.0000305175781,415.3333435058594,414.66668701171875,414,412.66668701171875,412.66668701171875,412.66668701171875,412.66668701171875,412,412,411.3333435058594,411.3333435058594,412,412,412,412,412,458,490.66668701171875,543.3333740234375,562,599.3333740234375,633.3333740234375,650.6666870117188,691.3333740234375],"ymouse":[815.3333740234375,811.3333740234375,811.3333740234375,809.3333740234375,808.6666870117188,808.6666870117188,808.6666870117188,808.6666870117188,808.6666870117188,808.6666870117188,808.6666870117188,808.6666870117188,808.6666870117188,808.6666870117188,808.6666870117188,808.6666870117188,808.6666870117188,808.6666870117188,808.6666870117188,808.6666870117188,810.6666870117188,808.6666870117188,808,806.6666870117188,806.6666870117188,806.6666870117188,806.6666870117188,806.6666870117188,806.6666870117188,806.6666870117188,806.6666870117188,806.6666870117188,806.6666870117188,806.6666870117188,806.6666870117188,806.6666870117188,806.6666870117188,812,812,812.6666870117188,812.6666870117188,813.3333740234375,814,814,814,814,812.6666870117188,812,809.3333740234375,809.3333740234375,809.3333740234375,809.3333740234375,809.3333740234375,633.3333740234375,564.6666870117188