[{"start_time":1549381324404,"click_time":1549381325731,"finger_time":1549381324409,"fix_duration":250,"trial":0,"RT":5,"MT":1322,"sideResp":2,"stimulus":[],"xmouse":[408,408,408,408,408,408,408,407.3333435058594,407.3333435058594,407.3333435058594,407.3333435058594,407.3333435058594,407.3333435058594,407.3333435058594,407.3333435058594,407.3333435058594,407.3333435058594,408.6666564941406,408.6666564941406,408.6666564941406,408.6666564941406,408.6666564941406,408.6666564941406,408.6666564941406,408.6666564941406,408.6666564941406,408.6666564941406,408.6666564941406,408.6666564941406,408.6666564941406,408.6666564941406,408.6666564941406,408.6666564941406,408.6666564941406,408.6666564941406,408.6666564941406,408.6666564941406,407.3333435058594,407.3333435058594,407.3333435058594,407.3333435058594,407.3333435058594,407.3333435058594,407.3333435058594,407.3333435058594,407.3333435058594,407.3333435058594,414.66668701171875,414.66668701171875,416,416,416,416,416,416,416,416,482.66668701171875,498.66668701171875,532.6666870117188,565.3333740234375,609.3333740234375,621.3333740234375,642.6666870117188,652.6666870117188,672,699.3333740234375],"ymouse":[743.3333740234375,743.3333740234375,743.3333740234375,743.3333740234375,743.3333740234375,743.3333740234375,743.3333740234375,742.6666870117188,742.6666870117188,742.6666870117188,742.6666870117188,742.6666870117188,742.6666870117188,742.6666870117188,742.6666870117188,742.6666870117188,742.6666870117188,743.3333740234375,743.3333740234375,743.3333740234375,743.3333740234375,743.3333740234375,743.3333740234375,743.3333740234375,743.3333740234375,743.3333740234375,743.3333740234375,744,744,744,744,744,744,744,744,744,744,743.3333740234375,743.3333740234375,743.3333740234375,743.3333740234375,743.3333740234375,743.3333740234375,743.3333740234375,743.3333740234375,743.3333740234375,743.3333740234375,740.6666870117188,740.6666870117188,742,741.3333740234375,741.3333740234375,738.6666870117188,738.6666870117188,738.6666870117188,738.6666870117188,738.6666870117188,562.6666870117188,525.3333740234375,449.3333435058594,370.66668701171875,267.3333435058594,240,190.6666717529297,169.33334350585938,132,86],"timestamp_mouse":[5,24,44,64,84,104,124,144,165,184,204,224,244,264,284,304,324,344,364,384,405,424,444,464,485,505,524,545,564,585,604,625,644,664,684,704,724,744,764,784,804,824,844,864,884,904,924,947,965,984,1004,1024,1045,1064,1084,1104,1126,1144,1164,1184,1204,1225,1245,1264,1284,1304,1325],"xSR":350,"ySR":696,"xT1":30,"yT1":0,"xT2":670,"yT2":0,"toosoon":0,"cond_shown":"Incongruent","ratio_trial":300,"L_num":13,"L_den":26,"R_num":12,"R_den":15,"correct_side":2,"subjID":"413wm","gender":"No_gender","age":"No_age","school":"No_school","test":{"fix_dur":[250,1500],"timestim":900,"targets_dim":[100,100],"targets_relative_coord":[0.1,0.9],"size_stim":[880,420],"start_dim":[100,100],"size_start":[300,300],"size_fix":60,"samplingrate":20,"img_types":["Congruent","Incongruent"],"ratios":[100,200,300,500],"rep_conds":15,"nTrials":128,"trials_to_rest":500,"Trials_order":[45,89,18,34,114,75,32,98,83,127,107,58,42,48,50,33,57,119,78,14,19,116,29,63,16,61,101,59,37,80,30,126,49,69,2,9,97,56,68,43,24,39,95,118,86,112,71,25,53,0,20,23,113,79,94,66,44,84,10,60,117,74,28,36,52,8,91,17,67,65,87,4,46,81,22,13,104,120,55,103,31,102,99,47,85,35,72,115,3,82,111,15,124,21,108,64,93,5,88,121,7,123,62,26,41,110,76,125,54,1,38,106,51,109,92,105,70,90,11,40,12,73,77,100,96,6,122,27],"cond_shown":["Incongruent","Incongruent","Congruent","Congruent","Congruent","Incongruent","Congruent","Congruent","Incongruent","Incongruent","Incongruent","Congruent","Congruent","Congruent","Congruent","Incongruent","Incongruent","Incongruent","Congruent","Congruent","Incongruent","Congruent","Incongruent","Incongruent","Congruent","Incongruent","Incongruent","Incongruent","Incongruent","Congruent","Congruent","Congruent","Incongruent","Incongruent","Congruent","Incongruent","Incongruent","Congruent","Congruent","Incongruent","Congruent","Incongruent","Incongruent","Congruent","Congruent","Congruent","Incongruent","Incongruent","Incongruent","Congruent","Congruent","Incongruent","Incongruent","Incongruent","Congruent","Congruent","Congruent","Congruent","Congruent","Congruent","Incongruent","Congruent","Congruent","Congruent","Congruent","Congruent","Incongruent","Incongruent","Incongruent","Incongruent","Incongruent","Congruent","Congruent","Incongruent","Congruent","Incongruent","Congruent","Congruent","Incongruent","Incongruent","Incongruent","Congruent","Incongruent","Incongruent","Incongruent","Incongruent","Congruent","Incongruent","Incongruent","Congruent","Incongruent","Incongruent","Congruent","Incongruent","Congruent","Congruent","Incongruent","Incongruent","Congruent","Incongruent","Incongruent","Incongruent","Congruent","Congruent","Incongruent","Congruent","Congruent","Incongruent","Congruent","Incongruent","Congruent","Congruent","Incongruent","Incongruent","Congruent","Incongruent","Congruent","Congruent","Incongruent","Congruent","Congruent","Incongruent","Incongruent","Congruent","Congruent","Congruent","Congruent","Incongruent"],"ratio_trial":[300,100,200,200,200,200,100,200,200,500,200,200,200,100,200,100,100,500,500,500,200,300,300,500,100,300,300,200,300,100,500,500,100,300,200,100,100,100,300,200,100,500,500,500,500,100,500,100,300,100,300,500,100,500,500,200,300,300,200,300,300,200,300,300,300,100,200,100,200,100,500,300,500,100,500,300,100,100,500,500,500,500,200,500,300,200,100,200,200,200,500,500,300,300,300,100,300,300,100,100,500,200,500,200,100,500,300,300,500,100,500,200,200,300,300,100,500,200,200,100,300,100,300,300,100,500,200,200],"left_num":[13,6,6,3,21,3,2,4,4,5,7,16,3,7,14,1,12,7,6,7,1,1,3,7,4,13,7,1,8,9,22,7,9,13,5,9,2,11,8,3,15,7,2,3,1,8,7,8,1,7,4,7,6,7,15,6,20,4,9,5,4,3,20,18,11,8,7,3,7,8,7,1,20,10,25,8,9,11,7,7,7,6,4,2,2,1,15,7,3,12,2,7,5,8,7,6,4,7,3,6,7,1,15,3,12,4,18,8,1,6,10,3,14,1,3,2,4,7,7,4,3,13,13,20,11,7,3,4],"right_num":[12,7,7,14,2,11,6,3,14,6,6,9,14,15,6,8,2,5,1,9,2,11,4,5,6,12,8,2,9,8,2,1,6,12,14,6,8,4,1,11,13,5,4,6,12,2,5,6,2,9,1,5,7,5,5,3,14,2,4,6,2,14,13,9,4,2,4,8,6,1,5,11,3,8,9,9,8,4,5,9,5,1,6,4,6,2,13,8,11,6,4,5,6,14,20,5,8,8,2,13,9,2,1,7,9,15,9,9,11,7,22,14,12,3,2,6,1,18,12,15,2,12,12,5,4,9,14,6],"left_den":[26,10,12,10,30,4,5,8,6,6,15,30,6,14,28,2,30,21,9,28,3,5,6,21,8,26,10,3,10,15,28,10,18,26,10,18,4,22,16,4,25,21,3,30,4,16,21,16,2,14,10,21,10,21,18,15,25,5,20,25,20,6,25,20,22,16,15,5,15,20,21,5,28,25,30,10,15,22,21,8,21,9,5,3,4,3,25,10,4,20,3,21,25,10,14,20,5,10,6,10,8,3,20,10,24,16,20,10,9,10,24,6,30,2,6,4,6,15,10,10,6,26,26,25,22,28,6,5],"right_den":[15,14,10,28,4,20,12,10,30,18,9,27,20,25,20,20,4,6,6,12,15,22,20,6,10,15,20,15,18,16,7,5,10,15,20,10,20,10,5,20,26,6,24,10,16,5,6,10,10,15,10,6,14,6,15,15,28,4,16,12,4,20,26,15,20,5,6,16,9,2,6,22,14,16,27,18,16,10,6,24,6,6,10,24,30,15,26,16,20,15,24,6,12,28,25,25,16,20,5,26,24,15,4,14,15,20,15,18,18,14,24,20,18,15,10,15,6,27,24,30,10,20,15,10,10,12,20,10],"correct_side":[2,1,2,2,1,1,2,1,1,1,2,1,2,2,1,1,2,2,1,2,1,2,1,2,2,2,1,1,1,1,1,1,2,2,2,2,1,1,1,1,1,2,1,2,2,1,2,2,1,2,1,2,1,2,1,1,1,1,1,2,2,2,1,1,1,1,2,1,2,2,2,2,1,2,1,1,1,1,2,1,2,1,1,1,1,1,1,1,1,1,1,2,2,1,2,1,1,1,1,1,1,1,1,2,2,2,1,1,2,1,2,2,2,1,1,1,1,2,1,2,1,2,2,1,1,2,2,1],"img_shown":["img2/300/Incongruent/R/I_Dist_300_LN_13_LD_26_RN_12_RD_15_1.png","img2/100/Incongruent/L/I_Dist_100_LN_6_LD_10_RN_7_RD_14_0.png","img2/200/Congruent/R/C_Dist_200_LN_6_LD_12_RN_7_RD_10_1.png","img2/200/Congruent/R/C_Dist_200_LN_3_LD_10_RN_14_RD_28_1.png","img2/200/Congruent/L/C_Dist_200_LN_21_LD_30_RN_2_RD_4_0.png","img2/200/Incongruent/L/I_Dist_200_LN_3_LD_4_RN_11_RD_20_0.png","img2/100/Congruent/R/C_Dist_100_LN_2_LD_5_RN_6_RD_12_1.png","img2/200/Congruent/L/C_Dist_200_LN_4_LD_8_RN_3_RD_10_0.png","img2/200/Incongruent/L/I_Dist_200_LN_4_LD_6_RN_14_RD_30_0.png","img2/500/Incongruent/L/I_Dist_500_LN_5_LD_6_RN_6_RD_18_0.png","img2/200/Incongruent/R/I_Dist_200_LN_7_LD_15_RN_6_RD_9_1.png","img2/200/Congruent/L/C_Dist_200_LN_16_LD_30_RN_9_RD_27_0.png","img2/200/Congruent/R/C_Dist_200_LN_3_LD_6_RN_14_RD_20_1.png","img2/100/Congruent/R/C_Dist_100_LN_7_LD_14_RN_15_RD_25_1.png","img2/200/Congruent/L/C_Dist_200_LN_14_LD_28_RN_6_RD_20_0.png","img2/100/Incongruent/L/I_Dist_100_LN_1_LD_2_RN_8_RD_20_0.png","img2/100/Incongruent/R/I_Dist_100_LN_12_LD_30_RN_2_RD_4_1.png","img2/500/Incongruent/R/I_Dist_500_LN_7_LD_21_RN_5_RD_6_1.png","img2/500/Congruent/L/C_Dist_500_LN_6_LD_9_RN_1_RD_6_0.png","img2/500/Congruent/R/C_Dist_500_LN_7_LD_28_RN_9_RD_12_1.png","img2/200/Incongruent/L/I_Dist_200_LN_1_LD_3_RN_2_RD_15_0.png","img2/300/Congruent/R/C_Dist_300_LN_1_LD_5_RN_11_RD_22_1.png","img2/300/Incongruent/L/I_Dist_300_LN_3_LD_6_RN_4_RD_20_0.png","img2/500/Incongruent/R/I_Dist_500_LN_7_LD_21_RN_5_RD_6_1.png","img2/100/Congruent/R/C_Dist_100_LN_4_LD_8_RN_6_RD_10_1.png","img2/300/Incongruent/R/I_Dist_300_LN_13_LD_26_RN_12_RD_15_1.png","img2/300/Incongruent/L/I_Dist_300_LN_7_LD_10_RN_8_RD_20_0.png","img2/200/Incongruent/L/I_Dist_200_LN_1_LD_3_RN_2_RD_15_0.png","img2/300/Incongruent/L/I_Dist_300_LN_8_LD_10_RN_9_RD_18_0.png","img2/100/Congruent/L/C_Dist_100_LN_9_LD_15_RN_8_RD_16_0.png","img2/500/Congruent/L/C_Dist_500_LN_22_LD_28_RN_2_RD_7_0.png","img2/500/Congruent/L/C_Dist_500_LN_7_LD_10_RN_1_RD_5_0.png","img2/100/Incongruent/R/I_Dist_100_LN_9_LD_18_RN_6_RD_10_1.png","img2/300/Incongruent/R/I_Dist_300_LN_13_LD_26_RN_12_RD_15_1.png","img2/200/Congruent/R/C_Dist_200_LN_5_LD_10_RN_14_RD_20_1.png","img2/100/Incongruent/R/I_Dist_100_LN_9_LD_18_RN_6_RD_10_1.png","img2/100/Incongruent/L/I_Dist_100_LN_2_LD_4_RN_8_RD_20_0.png","img2/100/Congruent/L/C_Dist_100_LN_11_LD_22_RN_4_RD_10_0.png","img2/300/Congruent/L/C_Dist_300_LN_8_LD_16_RN_1_RD_5_0.png","img2/200/Incongruent/L/I_Dist_200_LN_3_LD_4_RN_11_RD_20_0.png","img2/100/Congruent/L/C_Dist_100_LN_15_LD_25_RN_13_RD_26_0.png","img2/500/Incongruent/R/I_Dist_500_LN_7_LD_21_RN_5_RD_6_1.png","img2/500/Incongruent/L/I_Dist_500_LN_2_LD_3_RN_4_RD_24_0.png","img2/500/Congruent/R/C_Dist_500_LN_3_LD_30_RN_6_RD_10_1.png","img2/500/Congruent/R/C_Dist_500_LN_1_LD_4_RN_12_RD_16_1.png","img2/100/Congruent/L/C_Dist_100_LN_8_LD_16_RN_2_RD_5_0.png","img2/500/Incongruent/R/I_Dist_500_LN_7_LD_21_RN_5_RD_6_1.png","img2/100/Incongruent/R/I_Dist_100_LN_8_LD_16_RN_6_RD_10_1.png","img2/300/Incongruent/L/I_Dist_300_LN_1_LD_2_RN_2_RD_10_0.png","img2/100/Congruent/R/C_Dist_100_LN_7_LD_14_RN_9_RD_15_1.png","img2/300/Congruent/L/C_Dist_300_LN_4_LD_10_RN_1_RD_10_0.png","img2/500/Incongruent/R/I_Dist_500_LN_7_LD_21_RN_5_RD_6_1.png","img2/100/Incongruent/L/I_Dist_100_LN_6_LD_10_RN_7_RD_14_0.png","img2/500/Incongruent/R/I_Dist_500_LN_7_LD_21_RN_5_RD_6_1.png","img2/500/Congruent/L/C_Dist_500_LN_15_LD_18_RN_5_RD_15_0.png","img2/200/Congruent/L/C_Dist_200_LN_6_LD_15_RN_3_RD_15_0.png","img2/300/Congruent/L/C_Dist_300_LN_20_LD_25_RN_14_RD_28_0.png","img2/300/Congruent/L/C_Dist_300_LN_4_LD_5_RN_2_RD_4_0.png","img2/200/Congruent/L/C_Dist_200_LN_9_LD_20_RN_4_RD_16_0.png","img2/300/Congruent/R/C_Dist_300_LN_5_LD_25_RN_6_RD_12_1.png","img2/300/Incongruent/R/I_Dist_300_LN_4_LD_20_RN_2_RD_4_1.png","img2/200/Congruent/R/C_Dist_200_LN_3_LD_6_RN_14_RD_20_1.png","img2/300/Congruent/L/C_Dist_300_LN_20_LD_25_RN_13_RD_26_0.png","img2/300/Congruent/L/C_Dist_300_LN_18_LD_20_RN_9_RD_15_0.png","img2/300/Congruent/L/C_Dist_300_LN_11_LD_22_RN_4_RD_20_0.png","img2/100/Congruent/L/C_Dist_100_LN_8_LD_16_RN_2_RD_5_0.png","img2/200/Incongruent/R/I_Dist_200_LN_7_LD_15_RN_4_RD_6_1.png","img2/100/Incongruent/L/I_Dist_100_LN_3_LD_5_RN_8_RD_16_0.png","img2/200/Incongruent/R/I_Dist_200_LN_7_LD_15_RN_6_RD_9_1.png","img2/100/Incongruent/R/I_Dist_100_LN_8_LD_20_RN_1_RD_2_1.png","img2/500/Incongruent/R/I_Dist_500_LN_7_LD_21_RN_5_RD_6_1.png","img2/300/Congruent/R/C_Dist_300_LN_1_LD_5_RN_11_RD_22_1.png","img2/500/Congruent/L/C_Dist_500_LN_20_LD_28_RN_3_RD_14_0.png","img2/100/Incongruent/R/I_Dist_100_LN_10_LD_25_RN_8_RD_16_1.png","img2/500/Congruent/L/C_Dist_500_LN_25_LD_30_RN_9_RD_27_0.png","img2/300/Incongruent/L/I_Dist_300_LN_8_LD_10_RN_9_RD_18_0.png","img2/100/Congruent/L/C_Dist_100_LN_9_LD_15_RN_8_RD_16_0.png","img2/100/Congruent/L/C_Dist_100_LN_11_LD_22_RN_4_RD_10_0.png","img2/500/Incongruent/R/I_Dist_500_LN_7_LD_21_RN_5_RD_6_1.png","img2/500/Incongruent/L/I_Dist_500_LN_7_LD_8_RN_9_RD_24_0.png","img2/500/Incongruent/R/I_Dist_500_LN_7_LD_21_RN_5_RD_6_1.png","img2/500/Congruent/L/C_Dist_500_LN_6_LD_9_RN_1_RD_6_0.png","img2/200/Incongruent/L/I_Dist_200_LN_4_LD_5_RN_6_RD_10_0.png","img2/500/Incongruent/L/I_Dist_500_LN_2_LD_3_RN_4_RD_24_0.png","img2/300/Incongruent/L/I_Dist_300_LN_2_LD_4_RN_6_RD_30_0.png","img2/200/Incongruent/L/I_Dist_200_LN_1_LD_3_RN_2_RD_15_0.png","img2/100/Congruent/L/C_Dist_100_LN_15_LD_25_RN_13_RD_26_0.png","img2/200/Incongruent/L/I_Dist_200_LN_7_LD_10_RN_8_RD_16_0.png","img2/200/Incongruent/L/I_Dist_200_LN_3_LD_4_RN_11_RD_20_0.png","img2/200/Congruent/L/C_Dist_200_LN_12_LD_20_RN_6_RD_15_0.png","img2/500/Incongruent/L/I_Dist_500_LN_2_LD_3_RN_4_RD_24_0.png","img2/500/Incongruent/R/I_Dist_500_LN_7_LD_21_RN_5_RD_6_1.png","img2/300/Congruent/R/C_Dist_300_LN_5_LD_25_RN_6_RD_12_1.png","img2/300/Incongruent/L/I_Dist_300_LN_8_LD_10_RN_14_RD_28_0.png","img2/300/Congruent/R/C_Dist_300_LN_7_LD_14_RN_20_RD_25_1.png","img2/100/Congruent/L/C_Dist_100_LN_6_LD_20_RN_5_RD_25_0.png","img2/300/Incongruent/L/I_Dist_300_LN_4_LD_5_RN_8_RD_16_0.png","img2/300/Incongruent/L/I_Dist_300_LN_7_LD_10_RN_8_RD_20_0.png","img2/100/Congruent/L/C_Dist_100_LN_3_LD_6_RN_2_RD_5_0.png","img2/100/Incongruent/L/I_Dist_100_LN_6_LD_10_RN_13_RD_26_0.png","img2/500/Incongruent/L/I_Dist_500_LN_7_LD_8_RN_9_RD_24_0.png","img2/200/Incongruent/L/I_Dist_200_LN_1_LD_3_RN_2_RD_15_0.png","img2/500/Congruent/L/C_Dist_500_LN_15_LD_20_RN_1_RD_4_0.png","img2/200/Congruent/R/C_Dist_200_LN_3_LD_10_RN_7_RD_14_1.png","img2/100/Incongruent/R/I_Dist_100_LN_12_LD_24_RN_9_RD_15_1.png","img2/500/Congruent/R/C_Dist_500_LN_4_LD_16_RN_15_RD_20_1.png","img2/300/Congruent/L/C_Dist_300_LN_18_LD_20_RN_9_RD_15_0.png","img2/300/Incongruent/L/I_Dist_300_LN_8_LD_10_RN_9_RD_18_0.png","img2/500/Congruent/R/C_Dist_500_LN_1_LD_9_RN_11_RD_18_1.png","img2/100/Incongruent/L/I_Dist_100_LN_6_LD_10_RN_7_RD_14_0.png","img2/500/Congruent/R/C_Dist_500_LN_10_LD_24_RN_22_RD_24_1.png","img2/200/Congruent/R/C_Dist_200_LN_3_LD_6_RN_14_RD_20_1.png","img2/200/Incongruent/R/I_Dist_200_LN_14_LD_30_RN_12_RD_18_1.png","img2/300/Incongruent/L/I_Dist_300_LN_1_LD_2_RN_3_RD_15_0.png","img2/300/Congruent/L/C_Dist_300_LN_3_LD_6_RN_2_RD_10_0.png","img2/100/Incongruent/L/I_Dist_100_LN_2_LD_4_RN_6_RD_15_0.png","img2/500/Congruent/L/C_Dist_500_LN_4_LD_6_RN_1_RD_6_0.png","img2/200/Congruent/R/C_Dist_200_LN_7_LD_15_RN_18_RD_27_1.png","img2/200/Incongruent/L/I_Dist_200_LN_7_LD_10_RN_12_RD_24_0.png","img2/100/Congruent/R/C_Dist_100_LN_4_LD_10_RN_15_RD_30_1.png","img2/300/Congruent/L/C_Dist_300_LN_3_LD_6_RN_2_RD_10_0.png","img2/100/Incongruent/R/I_Dist_100_LN_13_LD_26_RN_12_RD_20_1.png","img2/300/Incongruent/R/I_Dist_300_LN_13_LD_26_RN_12_RD_15_1.png","img2/300/Congruent/L/C_Dist_300_LN_20_LD_25_RN_5_RD_10_0.png","img2/100/Congruent/L/C_Dist_100_LN_11_LD_22_RN_4_RD_10_0.png","img2/500/Congruent/R/C_Dist_500_LN_7_LD_28_RN_9_RD_12_1.png","img2/200/Congruent/R/C_Dist_200_LN_3_LD_6_RN_14_RD_20_1.png","img2/200/Incongruent/L/I_Dist_200_LN_4_LD_5_RN_6_RD_10_0.png"],"dist100_C":[["C_Dist_100_LN_10_LD_25_RN_3_RD_10_0.png","C_Dist_100_LN_11_LD_22_RN_4_RD_10_0.png","C_Dist_100_LN_11_LD_22_RN_6_RD_15_0.png","C_Dist_100_LN_15_LD_25_RN_13_RD_26_0.png","C_Dist_100_LN_3_LD_6_RN_2_RD_5_0.png","C_Dist_100_LN_6_LD_20_RN_5_RD_25_0.png","C_Dist_100_LN_8_LD_16_RN_2_RD_5_0.png","C_Dist_100_LN_9_LD_15_RN_8_RD_16_0.png"],["C_Dist_100_LN_1_LD_2_RN_18_RD_30_1.png","C_Dist_100_LN_1_LD_2_RN_3_RD_5_1.png","C_Dist_100_LN_12_LD_30_RN_13_RD_26_1.png","C_Dist_100_LN_2_LD_5_RN_11_RD_22_1.png","C_Dist_100_LN_2_LD_5_RN_6_RD_12_1.png","C_Dist_100_LN_3_LD_20_RN_4_RD_16_1.png","C_Dist_100_LN_4_LD_10_RN_15_RD_30_1.png","C_Dist_100_LN_4_LD_8_RN_6_RD_10_1.png","C_Dist_100_LN_6_LD_12_RN_15_RD_25_1.png","C_Dist_100_LN_7_LD_14_RN_15_RD_25_1.png","C_Dist_100_LN_7_LD_14_RN_9_RD_15_1.png"]],"dist100_I":[["I_Dist_100_LN_1_LD_2_RN_8_RD_20_0.png","I_Dist_100_LN_2_LD_4_RN_6_RD_15_0.png","I_Dist_100_LN_2_LD_4_RN_8_RD_20_0.png","I_Dist_100_LN_3_LD_5_RN_11_RD_22_0.png","I_Dist_100_LN_3_LD_5_RN_8_RD_16_0.png","I_Dist_100_LN_3_LD_6_RN_4_RD_10_0.png","I_Dist_100_LN_3_LD_9_RN_7_RD_30_0.png","I_Dist_100_LN_4_LD_8_RN_8_RD_20_0.png","I_Dist_100_LN_6_LD_10_RN_11_RD_22_0.png","I_Dist_100_LN_6_LD_10_RN_13_RD_26_0.png","I_Dist_100_LN_6_LD_10_RN_7_RD_14_0.png","I_Dist_100_LN_9_LD_10_RN_20_RD_25_0.png","I_Dist_100_LN_9_LD_15_RN_13_RD_26_0.png","I_Dist_100_LN_9_LD_15_RN_14_RD_28_0.png"],["I_Dist_100_LN_10_LD_25_RN_8_RD_16_1.png","I_Dist_100_LN_10_LD_25_RN_9_RD_18_1.png","I_Dist_100_LN_11_LD_22_RN_9_RD_15_1.png","I_Dist_100_LN_12_LD_24_RN_9_RD_15_1.png","I_Dist_100_LN_12_LD_30_RN_2_RD_4_1.png","I_Dist_100_LN_13_LD_26_RN_12_RD_20_1.png","I_Dist_100_LN_13_LD_26_RN_6_RD_10_1.png","I_Dist_100_LN_17_LD_30_RN_10_RD_15_1.png","I_Dist_100_LN_6_LD_12_RN_3_RD_5_1.png","I_Dist_100_LN_8_LD_16_RN_6_RD_10_1.png","I_Dist_100_LN_8_LD_20_RN_1_RD_2_1.png","I_Dist_100_LN_9_LD_18_RN_6_RD_10_1.png"]],"dist100_S":[["E_Dist_100_LN_2_LD_12_RN_2_RD_30_0.png","E_Dist_100_LN_6_LD_10_RN_6_RD_12_0.png"],["E_Dist_100_LN_6_LD_12_RN_6_RD_10_1.png"]],"dist200_C":[["C_Dist_200_LN_11_LD_22_RN_3_RD_10_0.png","C_Dist_200_LN_12_LD_15_RN_6_RD_10_0.png","C_Dist_200_LN_12_LD_20_RN_6_RD_15_0.png","C_Dist_200_LN_14_LD_28_RN_6_RD_20_0.png","C_Dist_200_LN_15_LD_25_RN_4_RD_10_0.png","C_Dist_200_LN_16_LD_20_RN_12_RD_20_0.png","C_Dist_200_LN_16_LD_30_RN_9_RD_27_0.png","C_Dist_200_LN_20_LD_25_RN_9_RD_15_0.png","C_Dist_200_LN_21_LD_30_RN_2_RD_4_0.png","C_Dist_200_LN_4_LD_10_RN_3_RD_15_0.png","C_Dist_200_LN_4_LD_8_RN_3_RD_10_0.png","C_Dist_200_LN_6_LD_15_RN_3_RD_15_0.png","C_Dist_200_LN_7_LD_21_RN_2_RD_15_0.png","C_Dist_200_LN_8_LD_15_RN_2_RD_6_0.png","C_Dist_200_LN_8_LD_15_RN_3_RD_9_0.png","C_Dist_200_LN_8_LD_15_RN_7_RD_21_0.png","C_Dist_200_LN_9_LD_20_RN_4_RD_16_0.png"],["C_Dist_200_LN_1_LD_2_RN_21_RD_30_1.png","C_Dist_200_LN_13_LD_26_RN_14_RD_20_1.png","C_Dist_200_LN_3_LD_10_RN_11_RD_22_1.png","C_Dist_200_LN_3_LD_10_RN_14_RD_28_1.png","C_Dist_200_LN_3_LD_10_RN_7_RD_14_1.png","C_Dist_200_LN_3_LD_12_RN_9_RD_20_1.png","C_Dist_200_LN_3_LD_6_RN_14_RD_20_1.png","C_Dist_200_LN_5_LD_10_RN_14_RD_20_1.png","C_Dist_200_LN_6_LD_12_RN_7_RD_10_1.png","C_Dist_200_LN_6_LD_20_RN_11_RD_22_1.png","C_Dist_200_LN_7_LD_15_RN_18_RD_27_1.png","C_Dist_200_LN_9_LD_30_RN_13_RD_26_1.png"]],"dist200_I":[["I_Dist_200_LN_1_LD_2_RN_3_RD_10_0.png","I_Dist_200_LN_1_LD_3_RN_2_RD_15_0.png","I_Dist_200_LN_3_LD_4_RN_11_RD_20_0.png","I_Dist_200_LN_4_LD_5_RN_6_RD_10_0.png","I_Dist_200_LN_4_LD_6_RN_14_RD_30_0.png","I_Dist_200_LN_7_LD_10_RN_12_RD_24_0.png","I_Dist_200_LN_7_LD_10_RN_14_RD_28_0.png","I_Dist_200_LN_7_LD_10_RN_8_RD_16_0.png"],["I_Dist_200_LN_11_LD_20_RN_3_RD_4_1.png","I_Dist_200_LN_14_LD_30_RN_12_RD_18_1.png","I_Dist_200_LN_14_LD_30_RN_6_RD_9_1.png","I_Dist_200_LN_3_LD_10_RN_1_RD_2_1.png","I_Dist_200_LN_4_LD_30_RN_1_RD_3_1.png","I_Dist_200_LN_6_LD_20_RN_3_RD_6_1.png","I_Dist_200_LN_7_LD_15_RN_4_RD_6_1.png","I_Dist_200_LN_7_LD_15_RN_6_RD_9_1.png","I_Dist_200_LN_9_LD_15_RN_8_RD_10_1.png"]],"dist200_S":[["E_Dist_200_LN_3_LD_6_RN_3_RD_10_0.png"],["E_Dist_200_LN_3_LD_10_RN_3_RD_6_1.png"]],"dist300_C":[["C_Dist_300_LN_11_LD_22_RN_1_RD_5_0.png","C_Dist_300_LN_11_LD_22_RN_2_RD_10_0.png","C_Dist_300_LN_11_LD_22_RN_4_RD_20_0.png","C_Dist_300_LN_12_LD_24_RN_2_RD_10_0.png","C_Dist_300_LN_18_LD_20_RN_9_RD_15_0.png","C_Dist_300_LN_20_LD_25_RN_13_RD_26_0.png","C_Dist_300_LN_20_LD_25_RN_14_RD_28_0.png","C_Dist_300_LN_20_LD_25_RN_5_RD_10_0.png","C_Dist_300_LN_20_LD_25_RN_8_RD_16_0.png","C_Dist_300_LN_20_LD_25_RN_9_RD_18_0.png","C_Dist_300_LN_24_LD_30_RN_2_RD_4_0.png","C_Dist_300_LN_24_LD_30_RN_8_RD_16_0.png","C_Dist_300_LN_3_LD_6_RN_2_RD_10_0.png","C_Dist_300_LN_4_LD_10_RN_1_RD_10_0.png","C_Dist_300_LN_4_LD_5_RN_2_RD_4_0.png","C_Dist_300_LN_8_LD_16_RN_1_RD_5_0.png","C_Dist_300_LN_9_LD_10_RN_3_RD_5_0.png"],["C_Dist_300_LN_1_LD_20_RN_7_RD_20_1.png","C_Dist_300_LN_1_LD_3_RN_19_RD_30_1.png","C_Dist_300_LN_1_LD_30_RN_8_RD_24_1.png","C_Dist_300_LN_1_LD_5_RN_11_RD_22_1.png","C_Dist_300_LN_1_LD_5_RN_3_RD_6_1.png","C_Dist_300_LN_1_LD_5_RN_6_RD_12_1.png","C_Dist_300_LN_2_LD_10_RN_12_RD_24_1.png","C_Dist_300_LN_2_LD_20_RN_10_RD_25_1.png","C_Dist_300_LN_3_LD_12_RN_11_RD_20_1.png","C_Dist_300_LN_3_LD_6_RN_4_RD_5_1.png","C_Dist_300_LN_4_LD_20_RN_13_RD_26_1.png","C_Dist_300_LN_5_LD_25_RN_6_RD_12_1.png","C_Dist_300_LN_5_LD_25_RN_7_RD_14_1.png","C_Dist_300_LN_7_LD_14_RN_20_RD_25_1.png","C_Dist_300_LN_8_LD_15_RN_10_RD_12_1.png"]],"dist300_I":[["I_Dist_300_LN_1_LD_2_RN_2_RD_10_0.png","I_Dist_300_LN_1_LD_2_RN_3_RD_15_0.png","I_Dist_300_LN_2_LD_4_RN_6_RD_30_0.png","I_Dist_300_LN_3_LD_6_RN_4_RD_20_0.png","I_Dist_300_LN_4_LD_5_RN_6_RD_12_0.png","I_Dist_300_LN_4_LD_5_RN_8_RD_16_0.png","I_Dist_300_LN_7_LD_10_RN_8_RD_20_0.png","I_Dist_300_LN_8_LD_10_RN_14_RD_28_0.png","I_Dist_300_LN_8_LD_10_RN_9_RD_18_0.png"],["I_Dist_300_LN_13_LD_26_RN_12_RD_15_1.png","I_Dist_300_LN_4_LD_20_RN_2_RD_4_1.png"]],"dist300_S":[["E_Dist_300_LN_9_LD_12_RN_9_RD_20_0.png"],["E_Dist_300_LN_18_LD_30_RN_18_RD_20_1.png","E_Dist_300_LN_3_LD_10_RN_3_RD_5_1.png","E_Dist_300_LN_9_LD_20_RN_9_RD_12_1.png"]],"dist500_C":[["C_Dist_500_LN_10_LD_13_RN_7_RD_26_0.png","C_Dist_500_LN_10_LD_15_RN_4_RD_24_0.png","C_Dist_500_LN_12_LD_16_RN_3_RD_12_0.png","C_Dist_500_LN_12_LD_18_RN_4_RD_24_0.png","C_Dist_500_LN_15_LD_18_RN_5_RD_15_0.png","C_Dist_500_LN_15_LD_20_RN_1_RD_4_0.png","C_Dist_500_LN_18_LD_27_RN_1_RD_6_0.png","C_Dist_500_LN_20_LD_24_RN_1_RD_3_0.png","C_Dist_500_LN_20_LD_24_RN_3_RD_9_0.png","C_Dist_500_LN_20_LD_24_RN_7_RD_21_0.png","C_Dist_500_LN_20_LD_28_RN_3_RD_14_0.png","C_Dist_500_LN_21_LD_28_RN_6_RD_24_0.png","C_Dist_500_LN_22_LD_28_RN_2_RD_7_0.png","C_Dist_500_LN_25_LD_30_RN_9_RD_27_0.png","C_Dist_500_LN_4_LD_6_RN_1_RD_6_0.png","C_Dist_500_LN_5_LD_6_RN_2_RD_6_0.png","C_Dist_500_LN_6_LD_9_RN_1_RD_6_0.png","C_Dist_500_LN_7_LD_10_RN_1_RD_5_0.png","C_Dist_500_LN_8_LD_12_RN_1_RD_6_0.png","C_Dist_500_LN_8_LD_12_RN_4_RD_24_0.png"],["C_Dist_500_LN_1_LD_4_RN_12_RD_16_1.png","C_Dist_500_LN_1_LD_4_RN_9_RD_12_1.png","C_Dist_500_LN_1_LD_9_RN_11_RD_18_1.png","C_Dist_500_LN_10_LD_24_RN_22_RD_24_1.png","C_Dist_500_LN_2_LD_12_RN_10_RD_15_1.png","C_Dist_500_LN_2_LD_12_RN_12_RD_18_1.png","C_Dist_500_LN_2_LD_12_RN_4_RD_6_1.png","C_Dist_500_LN_2_LD_24_RN_7_RD_12_1.png","C_Dist_500_LN_2_LD_5_RN_18_RD_20_1.png","C_Dist_500_LN_2_LD_5_RN_9_RD_10_1.png","C_Dist_500_LN_2_LD_8_RN_12_RD_16_1.png","C_Dist_500_LN_2_LD_8_RN_21_RD_28_1.png","C_Dist_500_LN_3_LD_10_RN_4_RD_5_1.png","C_Dist_500_LN_3_LD_12_RN_15_RD_20_1.png","C_Dist_500_LN_3_LD_30_RN_6_RD_10_1.png","C_Dist_500_LN_3_LD_8_RN_14_RD_16_1.png","C_Dist_500_LN_4_LD_16_RN_15_RD_20_1.png","C_Dist_500_LN_4_LD_24_RN_12_RD_18_1.png","C_Dist_500_LN_5_LD_14_RN_6_RD_7_1.png","C_Dist_500_LN_7_LD_21_RN_20_RD_24_1.png","C_Dist_500_LN_7_LD_28_RN_12_RD_16_1.png","C_Dist_500_LN_7_LD_28_RN_9_RD_12_1.png","C_Dist_500_LN_9_LD_27_RN_20_RD_24_1.png"]],"dist500_I":[["I_Dist_500_LN_2_LD_3_RN_4_RD_24_0.png","I_Dist_500_LN_5_LD_6_RN_6_RD_18_0.png","I_Dist_500_LN_7_LD_8_RN_9_RD_24_0.png"],["I_Dist_500_LN_7_LD_21_RN_5_RD_6_1.png"]],"dist500_S":[["E_Dist_500_LN_6_LD_8_RN_6_RD_24_0.png"],["E_Dist_500_LN_2_LD_12_RN_2_RD_3_1.png","E_Dist_500_LN_6_LD_24_RN_6_RD_8_1.png"]]}},{"start_time":1549381329105,"click_time":1549381331109,"finger_time":1549381330869,"fix_duration":515.8474556804491,"trial":1,"RT":1764,"MT":240,"sideResp":2,"stimulus":[],"xmouse":[393.3333435058594,393.3333435058594,393.3333435058594,393.3333435058594,393.3333435058594,393.3333435058594,393.3333435058594,393.3333435058594,393.3333435058594,394.66668701171875,394.66668701171875,394.66668701171875,394.66668701171875,394.66668701171875,394.66668701171875,394.66668701171875,394.66668701171875,394.66668701171875,394.66668701171875,394.66668701171875,394.66668701171875,394.66668701171875,394.66668701171875,394.66668701171875,394.66668701171875,394.66668701171875,394.66668701171875,394.66668701171875,394.66668701171875,394.66668701171875,394.66668701171875,394.66668701171875,394.66668701171875,394.66668701171875,394.66668701171875,394.66668701171875,394.66668701171875,394.66668701171875,394.66668701171875,394.66668701171875,394.66668701171875,394.66668701171875,395.3333435058594,395.3333435058594,395.3333435058594,395.3333435058594,395.3333435058594,395.3333435058594,395.3333435058594,395.3333435058594,395.3333435058594,395.3333435058594,394.66668701171875,394.66668701171875,394.66668701171875,394.66668701171875,394.66668701171875,394.66668701171875,394.66668701171875,394.66668701171875,394.66668701171875,394.66668701171875,395.3333435058594,395.3333435058594,395.3333435058594,395.3333435058594,395.3333435058594,395.3333435058594,395.3333435058594,395.3333435058594,395.3333435058594,395.3333435058594,394.66668701171875,394.66668701171875,394.66668701171875,394.66668701171875,394.66668701171875,394.66668701171875,394.66668701171875,394.66668701171875,394.66668701171875,394.66668701171875,394.66668701171875,394.66668701171875,394.66668701171875,394.66668701171875,394.66668701171875,400,426,449.3333435058594,459.3333435058594,483.3333435058594,500,568.6666870117188,604.6666870117188,630.6666870117188,637.3333740234375,652,678,687.3333740234375,704.6666870117188],"ymouse":[813.3333129882812,813.3333129882812,813.3333129882812,813.3333129882812,813.3333129882812,813.3333129882812,813.3333129882812,813.3333129882812,813.3333129882812,811.3333740234375,811.3333740234375,811.3333740234375,811.3333740234375,811.3333740234375,811.3333740234375,811.3333740234375,811.3333740234375,811.3333740234375,811.3333740234375,812.0000610351562,812.0000610351562,812.0000610351562,812.0000610351562,812.0000610351562,812.0000610351562,812.0000610351562,812.0000610351562,812.0000610351562,812.0000610351562,812.0000610351562,812.0000610351562,812.0000610351562,812.6666870117188,812.6666870117188,812.6666870117188,812.6666870117188,812.6666870117188,812.6666870117188,812.6666870117188,812.6666870117188,812.6666870117188,812.6666870117188,813.3333740234375,813.3333740234375,813.3333740234375,813.3333740234375,813.3333740234375,813.3333740234375,813.3333740234375,813.3333740234375,813.3333740234375,813.3333740234375,813.3333740234375,813.3333740234375,813.3333740234375,813.3333740234375,813.3333740234375,813.3333740234375,813.3333740234375,813.3333740234375,813.3333740234375,813.3333740234375,814.0000610351562,814.0000610351562,814.0000610351562,814.0000610351562,814.0000610351562,814.0000610351562,814.0000610351562,814.0000610351562,814.0000610351562,814.0000610351562,814.6666870117188,814.6666870117188,814.6666870117188,814.6666870117188,814.6666870117188,814.6666870117188,814.6666870117188,814.6666870117188,814.6666870117188,814.6666870117188,815.3333740234375,815.3333740234375,815.3333740234375,815.3333740234375,815.3333740234375,797.3333740234375,736,683.3333740234375,658,604,572,448.66668701171875,364.66668701171875,290.66668701171875,261.3333435058594,200.6666717529297,120.66667175292969,100,62.66667175292969],"timestamp_mouse":[3,42,43,64,83,103,123,143,163,183,203,223,243,263,283,303,323,343,363,383,404,423,443,463,483,503,523,543,563,583,603,624,644,663,683,703,723,743,763,784,803,823,843,863,883,903,923,944,963,983,1003,1023,1044,1063,1083,1103,1123,1143,1163,1183,1203,1223,1243,1263,1283,1303,1324,1344,1363,1383,1403,1424,1443,1463,1483,1503,1523,1543,1563,1583,1603,1624,1643,1663,1683,1703,1723,1743,1764,1783,1804,1823,1843,1865,1884,1903,1924,1943,1964,1983,2003],"xSR":350,"ySR":768,"xT1":30,"yT1":0,"xT2":670,"yT2":0,"toosoon":0,"cond_shown":"Incongruent","ratio_trial":100,"L_num":6,"L_den":10,"R_num":7,"R_den":14,"correct_side":1,"subjID":"413wm","gender":"No_gender","school":"No_school","age":"No_age"},{"start_time":1549381333940,"click_time":1549381336429,"finger_time":1549381336088,"fix_duration":250,"trial":2,"RT":2148,"MT":341,"sideResp":2,"stimulus":[],"xmouse":[424.6666564941406,424.6666564941406,424.6666564941406,424.6666564941406,424.6666564941406,424.6666564941406,424.6666564941406,424.6666564941406,424.6666564941406,423.3333435058594,423.3333435058594,423.3333435058594,423.3333435058594,423.3333435058594,423.3333435058594,423.3333435058594,423.3333435058594,423.3333435058594,423.3333435058594,422.6666564941406,422.6666564941406,422.6666564941406,422.6666564941406,422.6666564941406,422.6666564941406,422.6666564941406,422.6666564941406,422.6666564941406,422.6666564941406,422.6666564941406,422.6666564941406,422.6666564941406,422.6666564941406,422.6666564941406,422.6666564941406,422.6666564941406,422.6666564941406,422.6666564941406,422.6666564941406,422,422,422,422,422,422,422,422,422,422,422.6666564941406,422.6666564941406,422.6666564941406,422.6666564941406,422.6666564941406,422.6666564941406,422.6666564941406,422.6666564941406,422.6666564941406,422.6666564941406,422.6666564941406,422.6666564941406,422.6666564941406,422.6666564941406,422.6666564941406,422.6666564941406,422.6666564941406,422.6666564941406,422.6666564941406,422.6666564941406,422.6666564941406,422.6666564941406,422.6666564941406,422.6666564941406,422.6666564941406,422.6666564941406,422.6666564941406,422.6666564941406,422.6666564941406,422.6666564941406,422.6666564941406,422.6666564941406,422.6666564941406,422.6666564941406,422.6666564941406,422.6666564941406,422.6666564941406,422.6666564941406,422.6666564941406,424,424,424,424,424,424,424,424,424,424,424,424,424,424,403.3333435058594,404,414.66668701171875,419.3333435058594,426,439.3333435058594,462.66668701171875,478.66668701171875,487.3333435058594,506,514.6666870117188,548,556,573.3333740234375,582,602.6666870117188,630,645.3333740234375,652.6666870117188,664.6666870117188,669.3333740234375,680.6666870117188,690],"ymouse":[834,834,834,834,834,834,834,834,834,835.3333129882812,835.3333129882812,835.3333129882812,835.3333129882812,835.3333129882812,835.3333129882812,835.3333129882812,835.3333129882812,835.3333129882812,835.3333129882812,836,836,836,836,836,836,836,836,836,836,835.3333129882812,835.3333129882812,835.3333129882812,835.3333129882812,835.3333129882812,835.3333129882812,835.3333129882812,835.3333129882812,835.3333129882812,835.3333129882812,836,836,836,836,836,836,836,836,836,836,836.6666870117188,836.6666870117188,836.6666870117188,836.6666870117188,836.6666870117188,836.6666870117188,836.6666870117188,836.6666870117188,836.6666870117188,836.6666870117188,836.6666870117188,836.6666870117188,836.6666870117188,836.6666870117188,836.6666870117188,836.6666870117188,836.6666870117188,836.6666870117188,836.6666870117188,836.6666870117188,835.3333129882812,835.3333129882812,835.3333129882812,835.3333129882812,835.3333129882812,835.3333129882812,835.3333129882812,835.3333129882812,835.3333129882812,835.3333129882812,835.3333129882812,835.3333129882812,835.3333129882812,835.3333129882812,835.3333129882812,835.3333129882812,835.3333129882812,834.6666870117188,834.6666870117188,834,834,834,834,834,834,834,834,834,834,834,834,834,834,838.6666870117188,836.6666870117188,814,803.3333740234375,789.3333740234375,755.3333740234375,706,674,654.6666870117188,613.3333740234375,592,498.66668701171875,476,425.3333435058594,400,346.66668701171875,268,221.33334350585938,200,161.33334350585938,146,119.33334350585938,91.33333587646484],"timestamp_mouse":[12,29,48,68,88,108,128,148,168,188,208,228,248,268,289,309,328,348,368,388,409,428,448,468,488,508,528,549,568,588,608,629,648,668,688,708,728,748,768,789,808,828,848,868,888,908,928,948,968,988,1008,1028,1049,1068,1088,1108,1128,1148,1168,1188,1208,1229,1248,1268,1288,1308,1328,1348,1368,1389,1408,1428,1448,1468,1488,1508,1528,1548,1568,1588,1608,1629,1648,1668,1688,1708,1728,1748,1769,1788,1808,1828,1848,1868,1888,1908,1928,1948,1968,1988,2008,2028,2048,2069,2088,2108,2128,2148,2170,2188,2208,2229,2248,2270,2289,2309,2328,2348,2369,2388,2409,2428,2448,2468,2488],"xSR":350,"ySR":768,"xT1":30,"yT1":0,"xT2":670,"yT2":0,"toosoon":0,"cond_shown":"Congruent","ratio_trial":200,"L_num":6,"L_den":12,"R_num":7,"R_den":10,"correct_side":2,"subjID":"413wm","gender":"No_gender","school":"No_school","age":"No_age"},{"start_time":1549381339480,"click_time":1549381341269,"finger_time":1549381340788,"fix_duration":1409.7702640741888,"trial":3,"RT":1308,"MT":481,"sideResp":2,"stimulus":[],"xmouse":[403.3333435058594,403.3333435058594,403.3333435058594,403.3333435058594,403.3333435058594,403.3333435058594,403.3333435058594,403.3333435058594,403.3333435058594,403.3333435058594,402.66668701171875,402.66668701171875,402.66668701171875,402.66668701171875,402.66668701171875,402.66668701171875,402.66668701171875,402.66668701171875,402.66668701171875,402.66668701171875,402.66668701171875,402.66668701171875,402.66668701171875,402.66668701171875,402.66668701171875,402.66668701171875,402.66668701171875,402.66668701171875,402.66668701171875,402.66668701171875,402.66668701171875,402.66668701171875,402.66668701171875,402.66668701171875,402.66668701171875,402.66668701171875,402.66668701171875,402.66668701171875,402.66668701171875,402.66668701171875,402.66668701171875,402.66668701171875,402.66668701171875,402.66668701171875,402.66668701171875,402.66668701171875,402.66668701171875,403.3333435058594,403.3333435058594,403.3333435058594,403.3333435058594,403.3333435058594,403.3333435058594,403.3333435058594,403.3333435058594,403.3333435058594,403.3333435058594,404,404,404,404,402,402.66668701171875,404.66668701171875,406.66668701171875,410.66668701171875,413.3333435058594,418.66668701171875,425.3333435058594,428.66668701171875,430,432,432.66668701171875,448,455.3333435058594,472.66668701171875,481.3333435058594,498.66668701171875,528.6666870117188,539.3333740234375,558.6666870117188,577.3333740234375,585.3333740234375,616,623.3333740234375,638,644.6666870117188,656.6666870117188,669.3333740234375,674],"ymouse":[812.0000610351562,812.0000610351562,812.0000610351562,812.0000610351562,812.0000610351562,812.0000610351562,812.0000610351562,812.0000610351562,812.0000610351562,812.0000610351562,812.6666870117188,812.6666870117188,812.6666870117188,812.6666870117188,812.6666870117188,812.6666870117188,812.6666870117188,812.6666870117188,812.6666870117188,812.6666870117188,812.6666870117188,812.6666870117188,812.6666870117188,812.6666870117188,812.6666870117188,812.6666870117188,812.6666870117188,812.6666870117188,812.6666870117188,812.6666870117188,812.6666870117188,812.6666870117188,812.6666870117188,812.6666870117188,812.6666870117188,812.6666870117188,812.6666870117188,812.0000610351562,812.0000610351562,812.0000610351562,812.0000610351562,812.0000610351562,812.0000610351562,812.0000610351562,812.0000610351562,812.0000610351562,812.0000610351562,810.6666870117188,810.6666870117188,810.6666870117188,810.6666870117188,810.6666870117188,810.6666870117188,810.6666870117188,810.6666870117188,810.6666870117188,810.6666870117188,806.6666870117188,806.6666870117188,806.6666870117188,806.6666870117188,796,791.3333740234375,782,776.6666870117188,766,760,748,733.3333740234375,727.3333740234375,724,718.6666870117188,716,670.6666870117188,650.6666870117188,612,591.3333740234375,545.3333740234375,467.3333435058594,440,384,330.66668701171875,306.66668701171875,215.33334350585938,195.33334350585938,160.6666717529297,146,122,98,90.66667175292969],"timestamp_mouse":[12,32,49,69,88,108,128,149,168,189,209,228,248,268,288,308,328,349,368,389,408,428,448,468,488,508,528,549,568,588,608,628,648,668,689,708,728,749,769,788,808,828,848,868,888,909,928,948,968,988,1008,1028,1049,1068,1089,1108,1128,1148,1169,1188,1208,1228,1248,1268,1289,1308,1328,1348,1368,1389,1408,1428,1450,1468,1488,1508,1528,1548,1572,1588,1608,1628,1648,1671,1688,1708,1728,1749,1770,1789],"xSR":350,"ySR":768,"xT1":30,"yT1":0,"xT2":670,"yT2":0,"toosoon":0,"cond_shown":"Congruent","ratio_trial":200,"L_num":3,"L_den":10,"R_num":14,"R_den":28,"correct_side":2,"subjID":"413wm","gender":"No_gender","school":"No_school","age":"No_age"},{"start_time":1549381343280,"click_time":1549381345248,"finger_time":1549381344268,"fix_duration":250,"trial":4,"RT":988,"MT":980,"sideResp":1,"stimulus":[],"xmouse":[396,396,396,396,396,396,396,396,396,396,396,396,396,396,396,396,396,396,396,396,396,396,396,396,396,396,396,396,396,396,396,396,396,396,396,396,397.3333435058594,397.3333435058594,397.3333435058594,397.3333435058594,397.3333435058594,397.3333435058594,397.3333435058594,397.3333435058594,397.3333435058594,397.3333435058594,400,400.66668701171875,402.66668701171875,404,404.66668701171875,405.3333435058594,405.3333435058594,405.3333435058594,405.3333435058594,404.66668701171875,404.66668701171875,404,403.3333435058594,400.66668701171875,400,398,397.3333435058594,396.66668701171875,395.3333435058594,394.66668701171875,394.66668701171875,393.3333435058594,393.3333435058594,392.66668701171875,392,392,392.66668701171875,392.66668701171875,392.66668701171875,392.66668701171875,392,392,390.66668701171875,387.3333435058594,382,378,365.3333435058594,358,329.3333435058594,321.3333435058594,304.66668701171875,296,278.66668701171875,252,233.33334350585938,224.6666717529297,206.6666717529297,198,171.33334350585938,154,138,130.6666717529297,117.33333587646484],"ymouse":[824,824,824,824,824,824,824,824,824,824,824,824,824,824,824,824,824,824,824,824,824,824,824,824,824,824,824,824,824,824,824,824,824,824,824,824,816,816,814,814,814,814,814,814,814,814,787.3333740234375,784,776,766.6666870117188,764,760.6666870117188,758.6666870117188,758,756.6666870117188,755.3333740234375,755.3333740234375,754.6666870117188,754,753.3333740234375,752.6666870117188,752,752,751.3333740234375,750,748.6666870117188,747.3333740234375,746,745.3333740234375,744.6666870117188,743.3333740234375,743.3333740234375,743.3333740234375,743.3333740234375,743.3333740234375,743.3333740234375,743.3333740234375,743.3333740234375,741.3333740234375,737.3333740234375,728.6666870117188,721.3333740234375,692.6666870117188,674,603.3333740234375,584.6666870117188,546.6666870117188,527.3333740234375,488,435.3333435058594,396.66668701171875,374.66668701171875,330.66668701171875,308,239.33334350585938,192,148,128.6666717529297,94],"timestamp_mouse":[9,34,48,68,88,108,128,148,168,188,208,228,248,269,288,309,328,348,368,388,408,429,448,468,489,508,529,548,568,588,608,629,648,668,689,708,730,748,768,788,808,828,848,868,888,908,928,948,969,988,1011,1028,1048,1068,1088,1108,1128,1148,1168,1188,1208,1228,1248,1268,1291,1308,1329,1348,1369,1388,1408,1429,1448,1469,1488,1508,1528,1548,1568,1591,1608,1628,1648,1668,1689,1709,1728,1748,1768,1789,1809,1828,1849,1868,1890,1909,1929,1948,1968],"xSR":350,"ySR":768,"xT1":30,"yT1":0,"xT2":670,"yT2":0,"toosoon":0,"cond_shown":"Congruent","ratio_trial":200,"L_num":21,"L_den":30,"R_num":2,"R_den":4,"correct_side":1,"subjID":"413wm","gender":"No_gender","school":"No_school","age":"No_age"},{"start_time":1549381347000,"click_time":1549381348211,"finger_time":1549381347848,"fix_duration":250,"trial":5,"RT":848,"MT":363,"sideResp":2,"stimulus":[],"xmouse":[403.3333435058594,403.3333435058594,403.3333435058594,403.3333435058594,403.3333435058594,403.3333435058594,403.3333435058594,403.3333435058594,403.3333435058594,404,404,404,404,404,404,404,404,404,404,404,404,404,404,404,404,404,404,404,404,404,404,404,404,404,404,404,404,405.3333435058594,406,406.66668701171875,409.3333435058594,414.66668701171875,434.66668701171875,446,478,498,518,527.3333740234375,547.3333740234375,574.6666870117188,582,598,612,619.3333740234375,631.3333740234375,648,653.3333740234375,663.3333740234375,676.6666870117188,683.3333740234375,700.6666870117188],"ymouse":[822.6666870117188,822.6666870117188,822.6666870117188,822.6666870117188,822.6666870117188,822.6666870117188,822.6666870117188,822.6666870117188,822.6666870117188,822.6666870117188,822.6666870117188,822.6666870117188,822.6666870117188,822.6666870117188,822.6666870117188,822.6666870117188,822.6666870117188,822.6666870117188,822.6666870117188,822.0000610351562,822.0000610351562,822.0000610351562,822.0000610351562,822.0000610351562,822.0000610351562,822.0000610351562,822.0000610351562,822.0000610351562,822.0000610351562,820.6666870117188,820.6666870117188,820.6666870117188,820.6666870117188,820.6666870117188,820.6666870117188,820.6666870117188,820.6666870117188,818,816,812,804.6666870117188,795.3333740234375,761.3333740234375,740.6666870117188,683.3333740234375,646.6666870117188,608,590,546.6666870117188,478.66668701171875,458,412,363.3333435058594,340,296,231.33334350585938,210.6666717529297,171.33334350585938,136,119.33334350585938,76.66667175292969],"timestamp_mouse":[9,35,53,68,88,108,128,149,169,188,208,228,248,268,288,308,328,349,368,388,408,428,448,468,488,509,529,548,568,589,609,628,648,668,689,709,728,748,768,789,808,828,848,868,890,908,928,948,968,989,1008,1029,1048,1069,1089,1109,1128,1148,1168,1188,1210],"xSR":350,"ySR":768,"xT1":30,"yT1":0,"xT2":670,"yT2":0,"toosoon":0,"cond_shown":"Incongruent","ratio_trial":200,"L_num":3,"L_den":4,"R_num":11,"R_den":20,"correct_side":1,"subjID":"413wm","gender":"No_gender","school":"No_school","age":"No_age"},{"start_time":1549381350792,"click_time":1549381352389,"finger_time":1549381351768,"fix_duration":821.8464942080586,"trial":6,"RT":976,"MT":621,"sideResp":1,"stimulus":[],"xmouse":[406,406,406,410,409.3333435058594,409.3333435058594,409.3333435058594,409.3333435058594,409.3333435058594,410,410,410,410,410,410,410,410,410,410,410,410,410,410,410.66668701171875,410.66668701171875,410.66668701171875,410.66668701171875,410.66668701171875,410.66668701171875,410.66668701171875,410.66668701171875,410,410,410,410,410,410,410,409.3333435058594,408,408,407.3333435058594,407.3333435058594,404,401.3333435058594,398.66668701171875,394,391.3333435058594,387.3333435058594,384,379.3333435058594,362.66668701171875,346,338,320.66668701171875,313.3333435058594,284,276.66668701171875,263.3333435058594,256.66668701171875,244,226.6666717529297,222,214,206.6666717529297,204,198.6666717529297,196,194.6666717529297,192.6666717529297,190.6666717529297,188,186,181.33334350585938,176.6666717529297,164,144,131.33334350585938,124.66667175292969,110.66667175292969],"ymouse":[826,826,826,823.3333129882812,823.3333129882812,822.6666870117188,822.6666870117188,822.6666870117188,822,822,822,822,822,822.6666870117188,822.6666870117188,822.6666870117188,823.3333129882812,823.3333129882812,823.3333129882812,823.3333129882812,823.3333129882812,823.3333129882812,823.3333129882812,822.6666870117188,822.6666870117188,822.6666870117188,822.6666870117188,822,822,822,821.3333129882812,821.3333129882812,821.3333129882812,821.3333129882812,821.3333129882812,820.6666870117188,820.6666870117188,820.6666870117188,820,818,818,817.3333740234375,817.3333740234375,812.6666870117188,810,804,788.6666870117188,780.6666870117188,764.6666870117188,755.3333740234375,736,689.3333740234375,652,633.3333740234375,594.6666870117188,574,492.66668701171875,475.3333435058594,442.66668701171875,425.3333435058594,396.66668701171875,358,346,326,309.3333435058594,302.66668701171875,291.3333435058594,284,280.66668701171875,275.3333435058594,270.66668701171875,263.3333435058594,259.3333435058594,247.33334350585938,236,206,163.33334350585938,136,123.33334350585938,96],"timestamp_mouse":[31,36,56,76,96,117,136,156,177,196,216,236,256,276,296,316,336,356,376,396,417,436,457,476,496,516,536,556,576,596,617,636,656,676,696,718,736,756,776,796,816,836,856,876,896,916,936,957,976,996,1016,1036,1056,1076,1096,1116,1136,1156,1176,1196,1216,1239,1256,1276,1296,1316,1339,1356,1376,1396,1416,1438,1456,1476,1496,1516,1536,1556,1576,1596],"xSR":350,"ySR":768,"xT1":30,"yT1":0,"xT2":670,"yT2":0,"toosoon":0,"cond_shown":"Congruent","ratio_trial":100,"L_num":2,"L_den":5,"R_num":6,"R_den":12,"correct_side":2,"subjID":"413wm","gender":"No_gender","school":"No_school","age":"No_age"},{"start_time":1549381353900,"click_time":1549381355269,"finger_time":1549381354808,"fix_duration":250,"trial":7,"RT":908,"MT":461,"sideResp":1,"stimulus":[],"xmouse":[400,400,400,400,400,400,400,401.3333435058594,401.3333435058594,401.3333435058594,401.3333435058594,401.3333435058594,401.3333435058594,401.3333435058594,401.3333435058594,401.3333435058594,401.3333435058594,401.3333435058594,401.3333435058594,401.3333435058594,401.3333435058594,401.3333435058594,401.3333435058594,401.3333435058594,400.66668701171875,400.66668701171875,400,400,400,400,400,400,400,400,400,399.3333435058594,398.66668701171875,396.66668701171875,396,393.3333435058594,392,386.66668701171875,379.3333435058594,376,371.3333435058594,364.66668701171875,362,354,343.3333435058594,336.66668701171875,323.3333435058594,310,284.66668701171875,276,257.3333435058594,238.6666717529297,232,208.6666717529297,193.33334350585938,185.33334350585938,170.6666717529297,163.33334350585938,132.6666717529297,132.6666717529297,122,117.33333587646484,107.33333587646484,95.33333587646484,92.66667175292969],"ymouse":[818.6666870117188,818.6666870117188,818.6666870117188,818.6666870117188,818.6666870117188,818.6666870117188,818.6666870117188,819.3333129882812,819.3333129882812,819.3333129882812,819.3333129882812,819.3333129882812,819.3333129882812,819.3333129882812,819.3333129882812,819.3333129882812,819.3333129882812,818,818,818,818,818,818,818,814,812.6666870117188,811.3333740234375,810,809.3333740234375,809.3333740234375,809.3333740234375,808.6666870117188,808.6666870117188,808.6666870117188,808,807.3333740234375,806,804.6666870117188,804,801.3333740234375,800,796,786,780,768.6666870117188,752,742.6666870117188,714.6666870117188,684.6666870117188,666.6666870117188,630.6666870117188,591.3333740234375,527.3333740234375,506,463.3333435058594,422.66668701171875,406,351.3333435058594,317.3333435058594,300.66668701171875,269.3333435058594,256,190.6666717529297,190.6666717529297,165.33334350585938,153.33334350585938,132,106.66667175292969,98.66667175292969],"timestamp_mouse":[11,28,48,68,89,108,128,148,168,188,208,228,248,268,288,308,329,348,368,389,408,429,448,468,488,508,531,548,568,588,608,628,649,668,688,708,728,749,768,788,808,828,849,868,888,908,929,949,968,988,1008,1028,1050,1068,1088,1108,1128,1149,1168,1188,1208,1228,1261,1268,1288,1308,1328,1348,1368],"xSR":350,"ySR":768,"xT1":30,"yT1":0,"xT2":670,"yT2":0,"toosoon":0,"cond_shown":"Congruent","ratio_trial":200,"L_num":4,"L_den":8,"R_num":3,"R_den":10,"correct_side":1,"subjID":"413wm","gender":"No_gender","school":"No_school","age":"No_age"},{"start_time":1549381357042,"click_time":1549381358969,"finger_time":1549381358228,"fix_duration":590.454156962732,"trial":8,"RT":1186,"MT":741,"sideResp":1,"stimulus":[],"xmouse":[397.3333435058594,397.3333435058594,397.3333435058594,397.3333435058594,397.3333435058594,397.3333435058594,397.3333435058594,397.3333435058594,397.3333435058594,397.3333435058594,398,398,398,398,398,398,398,398,398,397.3333435058594,397.3333435058594,397.3333435058594,397.3333435058594,397.3333435058594,397.3333435058594,397.3333435058594,397.3333435058594,397.3333435058594,397.3333435058594,397.3333435058594,397.3333435058594,397.3333435058594,397.3333435058594,397.3333435058594,398,398,397.3333435058594,397.3333435058594,397.3333435058594,397.3333435058594,396.66668701171875,395.3333435058594,394.66668701171875,394,392.66668701171875,392,390.66668701171875,390.66668701171875,390.66668701171875,390.66668701171875,390.66668701171875,390.66668701171875,390.66668701171875,390,390,389.3333435058594,389.3333435058594,388.66668701171875,388.66668701171875,388.66668701171875,388.66668701171875,388.66668701171875,389.3333435058594,389.3333435058594,389.3333435058594,390,390.66668701171875,390.66668701171875,391.3333435058594,391.3333435058594,392,392.66668701171875,393.3333435058594,393.3333435058594,393.3333435058594,392.66668701171875,387.3333435058594,384,372.66668701171875,366,351.3333435058594,322,300.66668701171875,288.66668701171875,264.66668701171875,252.66668701171875,222,200,181.33334350585938,172.6666717529297,156,134,128,120.66667175292969,114,109.33333587646484,102.66667175292969],"ymouse":[796.6666870117188,796.6666870117188,796.6666870117188,796.6666870117188,796.6666870117188,796.6666870117188,796.6666870117188,796.6666870117188,796.6666870117188,796.6666870117188,796.6666870117188,796.6666870117188,796.6666870117188,796.6666870117188,796.6666870117188,796.6666870117188,796.6666870117188,796.6666870117188,796.6666870117188,794.6666870117188,793.3333740234375,792.6666870117188,792.6666870117188,792,791.3333740234375,791.3333740234375,790,790,789.3333740234375,789.3333740234375,789.3333740234375,788.6666870117188,788,788,787.3333740234375,787.3333740234375,787.3333740234375,787.3333740234375,786.6666870117188,786.6666870117188,786,784.6666870117188,782.6666870117188,782,780.6666870117188,780,777.3333740234375,776.6666870117188,775.3333740234375,774.6666870117188,774,772.6666870117188,772,771.3333740234375,770.6666870117188,770.6666870117188,769.3333740234375,768.6666870117188,768,767.3333740234375,767.3333740234375,766,766,766,766,765.3333740234375,765.3333740234375,764.6666870117188,764,763.3333740234375,762,759.3333740234375,756.6666870117188,754.6666870117188,751.3333740234375,748.6666870117188,722,710,676,659.3333740234375,627.3333740234375,577.3333740234375,544,526.6666870117188,492.66668701171875,474.66668701171875,424,385.3333435058594,348.66668701171875,330.66668701171875,293.3333435058594,240,222,164.6666717529297,151.33334350585938,116.66667175292969,85.33333587646484],"timestamp_mouse":[12,38,46,66,86,106,126,147,166,187,208,226,246,266,286,306,326,346,366,386,408,427,446,466,486,506,526,546,566,586,606,626,646,666,687,706,726,746,766,786,806,826,846,866,886,906,929,946,966,986,1006,1027,1046,1067,1086,1106,1126,1146,1166,1186,1206,1227,1246,1266,1286,1306,1326,1346,1366,1387,1406,1426,1446,1466,1487,1506,1527,1547,1566,1587,1606,1626,1646,1667,1686,1707,1727,1746,1766,1786,1806,1827,1847,1866,1886,1906,1927],"xSR":350,"ySR":768,"xT1":30,"yT1":0,"xT2":670,"yT2":0,"toosoon":0,"cond_shown":"Incongruent","ratio_trial":200,"L_num":4,"L_den":6,"R_num":14,"R_den":30,"correct_side":1,"subjID":"413wm","gender":"No_gender","school":"No_school","age":"No_age"},{"start_time":1549381361681,"click_time":1549381362828,"finger_time":1549381362488,"fix_duration":1309.644460374415,"trial":9,"RT":807,"MT":340,"sideResp":1,"stimulus":[],"xmouse":[398,398,398,398,398,398.66668701171875,398.66668701171875,398.66668701171875,398.66668701171875,398.66668701171875,398.66668701171875,398.66668701171875,398.66668701171875,398.66668701171875,398.66668701171875,400,400,400,400,400,400,400,400,400,400,401.3333435058594,401.3333435058594,401.3333435058594,401.3333435058594,401.3333435058594,401.3333435058594,401.3333435058594,401.3333435058594,401.3333435058594,401.3333435058594,394.66668701171875,391.3333435058594,388.66668701171875,382.66668701171875,378,367.3333435058594,348,328.66668701171875,318.66668701171875,298,287.3333435058594,242,230,207.33334350585938,196.6666717529297,175.33334350585938,143.33334350585938,122,111.33333587646484,92,83.33333587646484,59.333335876464844,45.333335876464844],"ymouse":[797.3333740234375,798.0000610351562,798.0000610351562,798.0000610351562,798.0000610351562,798.0000610351562,798.0000610351562,798.0000610351562,798.0000610351562,798.0000610351562,798.0000610351562,798.0000610351562,798.0000610351562,798.0000610351562,798.0000610351562,800.0000610351562,800.0000610351562,800.0000610351562,800.0000610351562,800.0000610351562,800.0000610351562,800.0000610351562,800.0000610351562,800.0000610351562,800.0000610351562,798.6666870117188,798.6666870117188,798.6666870117188,798.6666870117188,798.6666870117188,798.6666870117188,798.6666870117188,798.6666870117188,798.6666870117188,798.6666870117188,794.6666870117188,792.6666870117188,790.6666870117188,783.3333740234375,778,764.6666870117188,737.3333740234375,706.6666870117188,688.6666870117188,652,632.6666870117188,547.3333740234375,522.6666870117188,471.3333435058594,443.3333435058594,394,322.66668701171875,274.66668701171875,252,208.6666717529297,188,128.6666717529297,94],"timestamp_mouse":[12,40,47,67,87,107,127,147,167,188,207,227,248,268,287,307,328,347,367,388,408,427,447,467,487,507,527,548,567,588,608,627,648,667,687,709,727,747,767,788,807,827,847,867,888,907,927,947,967,987,1007,1027,1047,1067,1087,1107,1129,1147],"xSR":350,"ySR":768,"xT1":30,"yT1":0,"xT2":670,"yT2":0,"toosoon":0,"cond_shown":"Incongruent","ratio_trial":500,"L_num":5,"L_den":6,"R_num":6,"R_den":18,"correct_side":1,"subjID":"413wm","gender":"No_gender","school":"No_school","age":"No_age"},{"start_time":1549381365347,"click_time":1549381366429,"finger_time":1549381366048,"fix_duration":997.7032660983311,"trial":10,"RT":701,"MT":381,"sideResp":2,"stimulus":[],"xmouse":[398.66668701171875,398.66668701171875,398.66668701171875,398.66668701171875,398.66668701171875,398.66668701171875,398.66668701171875,398.66668701171875,398.66668701171875,399.3333435058594,399.3333435058594,399.3333435058594,399.3333435058594,399.3333435058594,399.3333435058594,400,400,400,400,400,400,400,400,400,400,400,400,400,400,400,400,400,400,400,412,432,443.3333435058594,460.66668701171875,472.66668701171875,491.3333435058594,498,512,519.3333740234375,535.3333740234375,560.6666870117188,574.6666870117188,581.3333740234375,596,602,628.6666870117188,635.3333740234375,650,655.3333740234375,665.3333740234375,680],"ymouse":[824.6666870117188,824.6666870117188,824.6666870117188,824,824,824,824,824,824,824,824,824,824,824,824,823.3333740234375,823.3333740234375,823.3333740234375,823.3333740234375,823.3333740234375,823.3333740234375,823.3333740234375,822.6666870117188,822.6666870117188,822.6666870117188,822.6666870117188,822.6666870117188,822,821.3333740234375,820.6666870117188,819.3333740234375,818,814.6666870117188,813.3333740234375,787.3333740234375,748.6666870117188,728.6666870117188,694.6666870117188,668,621.3333740234375,602,560.6666870117188,539.3333740234375,494.66668701171875,421.3333435058594,372.66668701171875,349.3333435058594,303.3333435058594,282,206.6666717529297,188.6666717529297,153.33334350585938,136.6666717529297,108,70.66667175292969],"timestamp_mouse":[2,27,41,61,81,101,121,142,161,181,201,221,242,261,281,301,321,341,361,381,401,421,441,461,481,501,521,541,561,581,601,621,641,661,681,701,721,742,761,781,801,822,841,861,881,901,921,941,961,981,1001,1021,1041,1062,1082],"xSR":350,"ySR":768,"xT1":30,"yT1":0,"xT2":670,"yT2":0,"toosoon":0,"cond_shown":"Incongruent","ratio_trial":200,"L_num":7,"L_den":15,"R_num":6,"R_den":9,"correct_side":2,"subjID":"413wm","gender":"No_gender","school":"No_school","age":"No_age"},{"start_time":1549381368765,"click_time":1549381370151,"finger_time":1549381369748,"fix_duration":714.6958794243079,"trial":11,"RT":983,"MT":403,"sideResp":1,"stimulus":[],"xmouse":[399.3333435058594,399.3333435058594,399.3333435058594,399.3333435058594,399.3333435058594,399.3333435058594,399.3333435058594,399.3333435058594,399.3333435058594,398.66668701171875,398.66668701171875,398.66668701171875,398.66668701171875,398.66668701171875,398.66668701171875,398.66668701171875,398.66668701171875,398.66668701171875,398.66668701171875,399.3333435058594,399.3333435058594,399.3333435058594,399.3333435058594,399.3333435058594,399.3333435058594,399.3333435058594,399.3333435058594,399.3333435058594,399.3333435058594,399.3333435058594,399.3333435058594,399.3333435058594,399.3333435058594,399.3333435058594,399.3333435058594,399.3333435058594,399.3333435058594,399.3333435058594,399.3333435058594,397.3333435058594,397.3333435058594,397.3333435058594,396.66668701171875,396.66668701171875,395.3333435058594,394,393.3333435058594,391.3333435058594,389.3333435058594,382.66668701171875,376.66668701171875,366,359.3333435058594,342,333.3333435058594,303.3333435058594,281.3333435058594,260.66668701171875,251.33334350585938,226,210,201.33334350585938,182.6666717529297,164.6666717529297,156,134,120.66667175292969,116,106.66667175292969,93.33333587646484],"ymouse":[806.6666870117188,806.6666870117188,806.6666870117188,806.6666870117188,806.6666870117188,806.6666870117188,806.6666870117188,806.6666870117188,806.6666870117188,804,804,804,804,804,804,804,804,804,804,804.6666870117188,804.6666870117188,804.6666870117188,804.6666870117188,804.6666870117188,804.6666870117188,804.6666870117188,804.6666870117188,804.6666870117188,804.6666870117188,802.6666870117188,802.6666870117188,802.6666870117188,802.6666870117188,802.6666870117188,802.6666870117188,802.6666870117188,802.6666870117188,802.6666870117188,802.6666870117188,797.3333740234375,796.6666870117188,796,795.3333740234375,794,790.6666870117188,787.3333740234375,784.6666870117188,777.3333740234375,769.3333740234375,740,719.3333740234375,688.6666870117188,669.3333740234375,629.3333740234375,608.6666870117188,538.6666870117188,489.3333435058594,442,418,352.66668701171875,316.66668701171875,300.66668701171875,270,238.6666717529297,223.33334350585938,174.6666717529297,146,132,107.33333587646484,75.33333587646484],"timestamp_mouse":[3,34,43,63,83,103,123,143,164,183,203,223,243,263,283,303,323,343,364,383,404,423,443,463,484,503,523,543,563,583,603,623,643,663,684,703,723,744,763,784,805,824,843,863,883,903,923,943,963,983,1004,1023,1043,1063,1083,1103,1123,1143,1163,1187,1203,1223,1243,1263,1283,1303,1323,1343,1363,1385],"xSR":350,"ySR":768,"xT1":30,"yT1":0,"xT2":670,"yT2":0,"toosoon":0,"cond_shown":"Congruent","ratio_trial":200,"L_num":16,"L_den":30,"R_num":9,"R_den":27,"correct_side":1,"subjID":"413wm","gender":"No_gender","school":"No_school","age":"No_age"},{"start_time":1549381372758,"click_time":1549381373929,"finger_time":1549381373548,"fix_duration":1028.6242041264763,"trial":12,"RT":790,"MT":381,"sideResp":2,"stimulus":[],"xmouse":[405,405,405,405,405,405,405,405,405,405,405,405,405,405,405,405,405,405,405,405,405,405,405,405,405,405,406.66668701171875,406.66668701171875,406.66668701171875,406.66668701171875,406.66668701171875,407.3333435058594,407.3333435058594,406.66668701171875,406.66668701171875,406,406,408,410,415.3333435058594,428,442,449.3333435058594,463.3333435058594,471.3333435058594,488.66668701171875,516,537.3333740234375,549.3333740234375,570.6666870117188,580.6666870117188,610,626,640,646.6666870117188,661.3333740234375,682,687.3333740234375,699.3333740234375],"ymouse":[818,818,818,818,818,818,818,818,818,818,818,818,818,818,818,818,818,818,818,818,818,818,818,818,818,818,810.6666870117188,810,810,810,808.6666870117188,807.3333740234375,806,804.6666870117188,803.3333740234375,798.6666870117188,796,788,782,766,734,699.3333740234375,682,648.6666870117188,630,589.3333740234375,523.3333740234375,474,447.3333435058594,396.66668701171875,371.3333435058594,296.66668701171875,250,213.33334350585938,195.33334350585938,164.6666717529297,120.66667175292969,105.33333587646484,78],"timestamp_mouse":[10,30,51,70,90,110,131,150,170,190,210,230,250,270,290,310,330,350,370,390,410,430,450,470,490,510,531,550,570,590,611,630,650,670,690,712,730,750,770,790,811,831,850,870,890,910,930,950,970,990,1010,1031,1050,1070,1090,1110,1130,1150,1170],"xSR":350,"ySR":768,"xT1":30,"yT1":0,"xT2":670,"yT2":0,"toosoon":0,"cond_shown":"Congruent","ratio_trial":200,"L_num":3,"L_den":6,"R_num":14,"R_den":20,"correct_side":2,"subjID":"413wm","gender":"No_gender","school":"No_school","age":"No_age"},{"start_time":1549381375679,"click_time":1549381376969,"finger_time":1549381376428,"fix_duration":250,"trial":13,"RT":749,"MT":541,"sideResp":2,"stimulus":[],"xmouse":[416,416,416,416,416,416,416,416,416,416,416,416,416,416,416,416,416,416,415.3333435058594,415.3333435058594,415.3333435058594,415.3333435058594,415.3333435058594,415.3333435058594,415.3333435058594,415.3333435058594,415.3333435058594,415.3333435058594,416.66668701171875,416.66668701171875,416.66668701171875,416.66668701171875,417.3333435058594,418,418,419.3333435058594,422,431.3333435058594,438.66668701171875,456.66668701171875,479.3333435058594,486.66668701171875,499.3333435058594,512,518.6666870117188,538,550,556.6666870117188,571.3333740234375,585.3333740234375,592,610,622.6666870117188,628.6666870117188,641.3333740234375,654,670,674,684,692,698.6666870117188,708,714,716.6666870117188,723.3333740234375],"ymouse":[808.6666870117188,808.6666870117188,808.6666870117188,808.6666870117188,808.6666870117188,808.6666870117188,808.6666870117188,808.6666870117188,809.3333129882812,809.3333129882812,809.3333129882812,809.3333129882812,809.3333129882812,809.3333129882812,809.3333129882812,809.3333129882812,809.3333129882812,809.3333129882812,809.3333129882812,809.3333129882812,809.3333129882812,809.3333129882812,809.3333129882812,809.3333129882812,809.3333129882812,809.3333129882812,809.3333129882812,809.3333129882812,801.3333129882812,801.3333129882812,801.3333129882812,801.3333129882812,798,796,795.3333740234375,790.6666870117188,784.6666870117188,764.6666870117188,749.3333740234375,713.3333740234375,664,648,616,583.3333740234375,567.3333740234375,516,480,461.3333435058594,424,389.3333435058594,372,324,294.66668701171875,281.3333435058594,254.66668701171875,230,196.6666717529297,187.33334350585938,168.6666717529297,150,138,118,106.66667175292969,102,90],"timestamp_mouse":[12,41,49,69,90,109,129,149,169,190,210,229,249,270,290,309,329,349,369,389,410,429,449,469,490,509,531,549,569,589,609,629,650,669,689,711,729,749,769,789,811,829,849,869,890,913,929,949,969,989,1009,1030,1049,1069,1089,1109,1131,1149,1169,1189,1209,1230,1249,1269,1289],"xSR":350,"ySR":768,"xT1":30,"yT1":0,"xT2":670,"yT2":0,"toosoon":0,"cond_shown":"Congruent","ratio_trial":100,"L_num":7,"L_den":14,"R_num":15,"R_den":25,"correct_side":2,"subjID":"413wm","gender":"No_gender","school":"No_school","age":"No_age"},{"start_time":1549381379035,"click_time":1549381380229,"finger_time":1549381379868,"fix_duration":624.9893703677517,"trial":14,"RT":833,"MT":361,"sideResp":1,"stimulus":[],"xmouse":[400,400,400,400,400,400.66668701171875,400.66668701171875,401.3333435058594,401.3333435058594,402,402,402.66668701171875,402.66668701171875,402.66668701171875,403.3333435058594,404,404,404.66668701171875,404.66668701171875,405.3333435058594,405.3333435058594,405.3333435058594,406,406,406,406,406,406.66668701171875,406.66668701171875,406.66668701171875,407.3333435058594,407.3333435058594,408,408,408,408,408,408,408.66668701171875,409.3333435058594,410,411.3333435058594,413.3333435058594,414.66668701171875,414.66668701171875,412,405.3333435058594,400.66668701171875,388,377.3333435058594,341.3333435058594,311.3333435058594,284,267.3333435058594,220.6666717529297,190.6666717529297,178,152.6666717529297,130.6666717529297,102.66667175292969],"ymouse":[806,804.6666870117188,804.6666870117188,803.3333740234375,802.6666870117188,802,801.3333740234375,800.6666870117188,800,799.3333740234375,798.6666870117188,798,798,797.3333740234375,796.6666870117188,796.6666870117188,796,796,795.3333740234375,795.3333740234375,794.6666870117188,794.6666870117188,794.6666870117188,794,794,794,794,794,793.3333740234375,793.3333740234375,792.6666870117188,792,791.3333740234375,790.6666870117188,790,789.3333740234375,788,786.6666870117188,784,778.6666870117188,771.3333740234375,764.6666870117188,746.6666870117188,716.6666870117188,702.6666870117188,666.6666870117188,629.3333740234375,610,568.6666870117188,544.6666870117188,470.66668701171875,420,374,348.66668701171875,274.66668701171875,227.33334350585938,206.6666717529297,167.33334350585938,130.6666717529297,83.33333587646484],"timestamp_mouse":[14,41,53,75,93,113,133,153,174,193,213,233,254,273,294,313,334,353,373,394,413,434,453,473,493,513,533,554,573,593,613,633,654,674,693,713,733,753,776,793,813,833,853,874,894,913,933,953,974,993,1017,1033,1053,1073,1093,1113,1133,1153,1173,1193],"xSR":350,"ySR":768,"xT1":30,"yT1":0,"xT2":670,"yT2":0,"toosoon":0,"cond_shown":"Congruent","ratio_trial":200,"L_num":14,"L_den":28,"R_num":6,"R_den":20,"correct_side":1,"subjID":"413wm","gender":"No_gender","school":"No_school","age":"No_age"},{"start_time":1549381382342,"click_time":1549381383468,"finger_time":1549381383108,"fix_duration":992.4098068416383,"trial":15,"RT":766,"MT":360,"sideResp":1,"stimulus":[],"xmouse":[405.3333435058594,405.3333435058594,405.3333435058594,405.3333435058594,405.3333435058594,405.3333435058594,405.3333435058594,405.3333435058594,406,406,406,406,406,406,406,406,406,406,406,406,406,406,406,406,406,406,406,406,405.3333435058594,404.6666564941406,403.3333435058594,403.3333435058594,402,400.6666564941406,400,394.6666564941406,387.3333435058594,382.6666564941406,374,368.6666564941406,344,337.3333435058594,319.3333435058594,310.66668701171875,292,263.3333435058594,245.33334350585938,233.33334350585938,211.33334350585938,199.33334350585938,164.00001525878906,140.00001525878906,118.66666412353516,109.33333587646484,92,72.66667175292969,66.66667175292969],"ymouse":[808,808,808,808,808,808,808,808,808,808.6666870117188,808.6666870117188,808.6666870117188,808.6666870117188,808.6666870117188,808.6666870117188,808.6666870117188,808.6666870117188,808.6666870117188,808.6666870117188,808.6666870117188,808,808,808,808,808,808,808,808,806.6666870117188,806.6666870117188,805.3333740234375,804.6666870117188,803.3333740234375,801.3333740234375,800,790.6666870117188,777.3333740234375,768.6666870117188,752.6666870117188,740.6666870117188,673.3333740234375,654.6666870117188,614,592,542.6666870117188,467.3333435058594,420,394,347.3333435058594,326.66668701171875,263.3333435058594,226.6666717529297,192,175.33334350585938,142.6666717529297,100,88],"timestamp_mouse":[9,34,46,66,86,107,126,147,166,186,206,227,246,266,286,306,326,346,366,386,406,426,446,466,486,506,526,546,566,586,606,626,646,667,686,706,727,746,766,786,808,826,846,867,887,911,926,946,967,987,1008,1027,1046,1066,1087,1106,1126],"xSR":350,"ySR":768,"xT1":30,"yT1":0,"xT2":670,"yT2":0,"toosoon":0,"cond_shown":"Incongruent","ratio_trial":100,"L_num":1,"L_den":2,"R_num":8,"R_den":20,"correct_side":1,"subjID":"413wm","gender":"No_gender","school":"No_school","age":"No_age"},{"start_time":1549381386468,"click_time":1549381387629,"finger_time":1549381387288,"fix_duration":1335.2422938323116,"trial":16,"RT":820,"MT":341,"sideResp":2,"stimulus":[],"xmouse":[417.3333435058594,417.3333435058594,417.3333435058594,417.3333435058594,417.3333435058594,417.3333435058594,417.3333435058594,417.3333435058594,417.3333435058594,417.3333435058594,417.3333435058594,416.66668701171875,416.66668701171875,416.66668701171875,416.66668701171875,416.66668701171875,416.66668701171875,416.66668701171875,416.66668701171875,416.66668701171875,416.66668701171875,417.3333435058594,417.3333435058594,417.3333435058594,417.3333435058594,417.3333435058594,417.3333435058594,417.3333435058594,417.3333435058594,417.3333435058594,417.3333435058594,417.3333435058594,417.3333435058594,417.3333435058594,417.3333435058594,417.3333435058594,417.3333435058594,412.66668701171875,412,412,412,413.3333435058594,413.3333435058594,413.3333435058594,413.3333435058594,436.66668701171875,458,476,486,508,542,552,574.6666870117188,599.3333740234375,612,649.3333740234375,674.6666870117188,687.3333740234375,711.3333740234375],"ymouse":[816,815.3333740234375,815.3333740234375,815.3333740234375,815.3333740234375,815.3333740234375,815.3333740234375,815.3333740234375,815.3333740234375,815.3333740234375,815.3333740234375,813.3333740234375,813.3333740234375,813.3333740234375,813.3333740234375,813.3333740234375,813.3333740234375,813.3333740234375,813.3333740234375,813.3333740234375,813.3333740234375,811.3333740234375,811.3333740234375,811.3333740234375,811.3333740234375,811.3333740234375,811.3333740234375,811.3333740234375,811.3333740234375,811.3333740234375,811.3333740234375,805.3333740234375,805.3333740234375,805.3333740234375,805.3333740234375,805.3333740234375,805.3333740234375,796,792.6666870117188,792.6666870117188,792.6666870117188,766.6666870117188,766.6666870117188,766.6666870117188,766.6666870117188,680,614.6666870117188,569.3333740234375,545.3333740234375,496,419.3333435058594,395.3333435058594,340.66668701171875,286,258.66668701171875,181.33334350585938,133.33334350585938,111.33333587646484,70],"timestamp_mouse":[3,33,40,60,80,100,120,140,160,180,201,220,240,260,280,300,320,340,360,380,400,420,440,461,480,501,520,540,560,580,601,621,640,660,680,700,720,740,760,780,800,820,841,860,880,901,921,941,960,980,1001,1020,1040,1060,1080,1102,1120,1140,1160],"xSR":350,"ySR":768,"xT1":30,"yT1":0,"xT2":670,"yT2":0,"toosoon":0,"cond_shown":"Incongruent","ratio_trial":100,"L_num":12,"L_den":30,"R_num":2,"R_den":4,"correct_side":2,"subjID":"413wm","gender":"No_gender","school":"No_school","age":"No_age"},{"start_time":1549381390059,"click_time":1549381390968,"finger_time":1549381390648,"fix_duration":989.2671497669648,"trial":17,"RT":589,"MT":320,"sideResp":2,"stimulus":[],"xmouse":[408.66668701171875,408.66668701171875,408.66668701171875,409.3333435058594,409.3333435058594,409.3333435058594,409.3333435058594,409.3333435058594,409.3333435058594,409.3333435058594,410,410,410,410,410,410.66668701171875,410.66668701171875,410.66668701171875,410.66668701171875,410.66668701171875,410.66668701171875,410.66668701171875,410.66668701171875,410.66668701171875,410.66668701171875,410.66668701171875,411.3333435058594,414,419.3333435058594,432,439.3333435058594,455.3333435058594,481.3333435058594,502,514.6666870117188,538.6666870117188,570.6666870117188,591.3333740234375,602,624.6666870117188,633.3333740234375,654.6666870117188,684.6666870117188,702.6666870117188,709.3333740234375,718.6666870117188],"ymouse":[816,816,816,815.3333740234375,815.3333740234375,815.3333740234375,815.3333740234375,815.3333740234375,815.3333740234375,815.3333740234375,814,814,814,814,814,814,814,814,813.3333740234375,813.3333740234375,813.3333740234375,813.3333740234375,813.3333740234375,812.6666870117188,812.6666870117188,812,809.3333740234375,799.3333740234375,782,732.6666870117188,709.3333740234375,668,602.6666870117188,553.3333740234375,527.3333740234375,476,409.3333435058594,362.66668701171875,339.3333435058594,293.3333435058594,270,222.6666717529297,160,126.66667175292969,112,92.66667175292969],"timestamp_mouse":[11,29,49,69,89,109,129,149,169,189,209,229,249,270,289,309,329,350,369,390,409,429,449,470,489,509,530,549,569,589,609,630,649,670,689,709,731,749,769,789,809,829,849,869,889,909],"xSR":350,"ySR":768,"xT1":30,"yT1":0,"xT2":670,"yT2":0,"toosoon":0,"cond_shown":"Incongruent","ratio_trial":500,"L_num":7,"L_den":21,"R_num":5,"R_den":6,"correct_side":2,"subjID":"413wm","gender":"No_gender","school":"No_school","age":"No_age"},{"start_time":1549381392823,"click_time":1549381393948,"finger_time":1549381393568,"fix_duration":453.29547376133183,"trial":18,"RT":745,"MT":380,"sideResp":1,"stimulus":[],"xmouse":[412.0000305175781,412.0000305175781,412.0000305175781,412.0000305175781,412.0000305175781,412.0000305175781,412.0000305175781,412.0000305175781,412.0000305175781,412.0000305175781,410.66668701171875,410.66668701171875,410.66668701171875,410.66668701171875,410.66668701171875,410.66668701171875,410.66668701171875,410.66668701171875,408,406.66668701171875,406,406,405.3333435058594,405.3333435058594,404.66668701171875,404,404,403.3333435058594,403.3333435058594,402.66668701171875,402,402,402,401.3333435058594,400.66668701171875,400.66668701171875,389.3333435058594,372,344,324,312.66668701171875,288,273.3333435058594,242,192,161.33334350585938,146.6666717529297,120,89.33333587646484,75.33333587646484,70.66667175292969,60,57.333335876464844,52.66666793823242,48.66666793823242,47.333335876464844],"ymouse":[824.6666870117188,824.6666870117188,824.6666870117188,824.6666870117188,824.6666870117188,824.6666870117188,824.6666870117188,824.6666870117188,824.6666870117188,824.6666870117188,824.6666870117188,824.6666870117188,824.6666870117188,824.6666870117188,824.6666870117188,824.6666870117188,824.6666870117188,824.6666870117188,821.3333740234375,820,818.6666870117188,818,817.3333740234375,816,814.6666870117188,814,813.3333740234375,812.6666870117188,812,810.6666870117188,809.3333740234375,809.3333740234375,808,806,798.6666870117188,798.6666870117188,764.6666870117188,730,662,606,576,514.6666870117188,484.66668701171875,428.66668701171875,357.3333435058594,315.3333435058594,296.66668701171875,258,202,169.33334350585938,154.6666717529297,131.33334350585938,123.33334350585938,112,100,96.66667175292969],"timestamp_mouse":[10,31,45,65,85,105,125,145,165,186,205,226,245,265,285,305,325,345,365,386,405,425,445,466,486,505,525,545,566,587,605,625,645,665,725,726,745,765,786,805,825,845,865,885,906,925,945,965,987,1006,1025,1045,1065,1086,1105,1125],"xSR":350,"ySR":768,"xT1":30,"yT1":0,"xT2":670,"yT2":0,"toosoon":0,"cond_shown":"Congruent","ratio_trial":500,"L_num":6,"L_den":9,"R_num":1,"R_den":6,"correct_side":1,"subjID":"413wm","gender":"No_gender","school":"No_school","age":"No_age"},{"start_time":1549381396484,"click_time":1549381397528,"finger_time":1549381397208,"fix_duration":895.7715314441886,"trial":19,"RT":724,"MT":320,"sideResp":2,"stimulus":[],"xmouse":[398,398,398,398,398,398,398,398,398,398.66668701171875,398.66668701171875,398.66668701171875,398.66668701171875,398.66668701171875,398.66668701171875,398.66668701171875,398.66668701171875,398.66668701171875,398.66668701171875,398.66668701171875,398.66668701171875,398.66668701171875,398.66668701171875,398.66668701171875,398.66668701171875,398.66668701171875,400.66668701171875,400.66668701171875,400.66668701171875,401.3333435058594,401.3333435058594,402,402,402.66668701171875,405.3333435058594,409.3333435058594,420.66668701171875,427.3333435058594,447.3333435058594,464,484.66668701171875,496,521.3333740234375,558.6666870117188,571.3333740234375,590.6666870117188,606,612.6666870117188,633.3333740234375,646.6666870117188,653.3333740234375,663.3333740234375,675.3333740234375],"ymouse":[818.6666870117188,818.6666870117188,818.6666870117188,818.6666870117188,818.6666870117188,818.6666870117188,818.6666870117188,818.6666870117188,818.6666870117188,815.3333740234375,815.3333740234375,815.3333740234375,815.3333740234375,815.3333740234375,815.3333740234375,815.3333740234375,815.3333740234375,815.3333740234375,815.3333740234375,814,814,814,814,814,814,814,808,807.3333740234375,807.3333740234375,806.6666870117188,805.3333740234375,804.6666870117188,803.3333740234375,800.6666870117188,792,780,747.3333740234375,730,670.6666870117188,626,573.3333740234375,545.3333740234375,487.3333435058594,404.66668701171875,376.66668701171875,328,284,264.66668701171875,209.33334350585938,173.33334350585938,157.33334350585938,126,99.33333587646484],"timestamp_mouse":[10,29,44,64,84,104,124,145,164,184,204,224,244,264,284,304,324,344,364,384,404,424,444,464,484,504,524,545,564,584,604,625,644,664,684,704,724,744,765,784,805,824,844,864,885,904,924,945,964,984,1004,1024,1044],"xSR":350,"ySR":768,"xT1":30,"yT1":0,"xT2":670,"yT2":0,"toosoon":0,"cond_shown":"Congruent","ratio_trial":500,"L_num":7,"L_den":28,"R_num":9,"R_den":12,"correct_side":2,"subjID":"413wm","gender":"No_gender","school":"No_school","age":"No_age"},{"start_time":1549381399519,"click_time":1549381400671,"finger_time":1549381400348,"fix_duration":488.4521711229546,"trial":20,"RT":829,"MT":323,"sideResp":1,"stimulus":[],"xmouse":[386.66668701171875,386.66668701171875,386.66668701171875,386.66668701171875,386.66668701171875,386.66668701171875,387.3333435058594,387.3333435058594,387.3333435058594,387.3333435058594,387.3333435058594,387.3333435058594,387.3333435058594,387.3333435058594,387.3333435058594,387.3333435058594,388.66668701171875,388.66668701171875,388.66668701171875,388.66668701171875,388.66668701171875,388.66668701171875,388.66668701171875,388.66668701171875,388.66668701171875,388.66668701171875,389.3333435058594,389.3333435058594,389.3333435058594,389.3333435058594,389.3333435058594,389.3333435058594,389.3333435058594,389.3333435058594,389.3333435058594,389.3333435058594,388.0000305175781,388.0000305175781,388.0000305175781,388.0000305175781,388.0000305175781,360.0000305175781,330.6667175292969,314.0000305175781,306.0000305175781,288.0000305175781,278.0000305175781,243.3333282470703,217.3333282470703,193.3333282470703,182.6666717529297,162,133.33334350585938,126.00000762939453,111.33333587646484,100.66667175292969,95.33333587646484,84.66667175292969],"ymouse":[805.3333129882812,805.3333129882812,805.3333129882812,805.3333129882812,805.3333129882812,805.3333129882812,803.3333129882812,803.3333129882812,803.3333129882812,803.3333129882812,803.3333129882812,803.3333129882812,803.3333129882812,803.3333129882812,803.3333129882812,803.3333129882812,804,804,804,804,804,804,804,804,804,804,804,804,804,804,804,804,804,804,804,804,803.3333129882812,803.3333129882812,803.3333129882812,803.3333129882812,803.3333129882812,767.3333740234375,717.3333740234375,678.6666870117188,658,610.6666870117188,585.3333740234375,508.66668701171875,455.3333435058594,404,381.3333435058594,330.66668701171875,253.33334350585938,228,182.6666717529297,138.6666717529297,118.66667175292969,60.66667175292969],"timestamp_mouse":[10,31,49,69,89,109,129,149,169,189,209,229,249,269,289,309,329,349,369,389,409,429,449,469,489,510,529,549,569,589,609,630,649,669,689,709,729,751,769,789,809,829,850,869,889,909,929,949,969,989,1010,1029,1049,1070,1089,1109,1129,1152],"xSR":350,"ySR":768,"xT1":30,"yT1":0,"xT2":670,"yT2":0,"toosoon":0,"cond_shown":"Incongruent","ratio_trial":200,"L_num":1,"L_den":3,"R_num":2,"R_den":15,"correct_side":1,"subjID":"413wm","gender":"No_gender","school":"No_school","age":"No_age"},{"start_time":1549381403329,"click_time":1549381404328,"finger_time":1549381404089,"fix_duration":1179.9842139250625,"trial":21,"RT":760,"MT":239,"sideResp":2,"stimulus":[],"xmouse":[396.66668701171875,396.66668701171875,396.66668701171875,396.66668701171875,396.66668701171875,396.66668701171875,396.66668701171875,396.66668701171875,396.66668701171875,396.66668701171875,396.66668701171875,396.66668701171875,396.66668701171875,396.66668701171875,396.66668701171875,396.66668701171875,396.66668701171875,396.66668701171875,397.3333435058594,397.3333435058594,397.3333435058594,397.3333435058594,397.3333435058594,397.3333435058594,397.3333435058594,397.3333435058594,397.3333435058594,397.3333435058594,397.3333435058594,397.3333435058594,397.3333435058594,397.3333435058594,397.3333435058594,397.3333435058594,399.3333435058594,399.3333435058594,408.0000305175781,408.0000305175781,471.3333435058594,482.66668701171875,507.3333435058594,519.3333740234375,544,582,608,620,645.3333740234375,657.3333740234375,703.3333129882812,714.6666870117188,734.6666870117188],"ymouse":[824.6666870117188,824.6666870117188,824.6666870117188,824.6666870117188,824.6666870117188,824.6666870117188,824.6666870117188,824.6666870117188,824.6666870117188,824.6666870117188,824.6666870117188,824.6666870117188,824.6666870117188,824.6666870117188,825.3333740234375,825.3333740234375,825.3333740234375,825.3333740234375,825.3333740234375,825.3333740234375,825.3333740234375,825.3333740234375,824.6666870117188,824.6666870117188,824.6666870117188,824.6666870117188,824.6666870117188,824.6666870117188,824.6666870117188,824.6666870117188,824,824,824,824,814.6666870117188,814.6666870117188,787.3333129882812,787.3333129882812,656,632,580,555.3333740234375,504,419.3333435058594,362,334,276.66668701171875,248,136.6666717529297,110.66667175292969,67.33333587646484],"timestamp_mouse":[4,29,39,59,79,99,119,139,159,179,199,219,239,259,279,299,319,339,359,379,399,419,439,459,479,499,519,539,559,579,599,619,639,659,679,699,719,739,759,779,799,819,839,860,879,899,919,939,961,979,999],"xSR":350,"ySR":768,"xT1":30,"yT1":0,"xT2":670,"yT2":0,"toosoon":0,"cond_shown":"Congruent","ratio_trial":300,"L_num":1,"L_den":5,"R_num":11,"R_den":22,"correct_side":2,"subjID":"413wm","gender":"No_gender","school":"No_school","age":"No_age"},{"start_time":1549381406565,"click_time":1549381407568,"finger_time":1549381407310,"fix_duration":735.1176566163663,"trial":22,"RT":745,"MT":258,"sideResp":1,"stimulus":[],"xmouse":[416.66668701171875,416.66668701171875,417.3333435058594,417.3333435058594,417.3333435058594,417.3333435058594,417.3333435058594,417.3333435058594,417.3333435058594,417.3333435058594,417.3333435058594,417.3333435058594,417.3333435058594,416.66668701171875,416.66668701171875,416.66668701171875,416.66668701171875,416.66668701171875,416.66668701171875,416.66668701171875,416.66668701171875,416.66668701171875,416.66668701171875,416.66668701171875,416.66668701171875,416.66668701171875,416.66668701171875,416.66668701171875,416.66668701171875,416.66668701171875,416.66668701171875,416.66668701171875,411.3333435058594,411.3333435058594,406,403.3333435058594,403.3333435058594,380.66668701171875,368.66668701171875,362,342.66668701171875,330.66668701171875,272,256,220.6666717529297,204,168.6666717529297,118,88.66667175292969,76,50],"ymouse":[826,826,826.6666870117188,826.6666870117188,826.6666870117188,826.6666870117188,826.6666870117188,826.6666870117188,826.6666870117188,826.6666870117188,826.6666870117188,826.6666870117188,826.6666870117188,826,826,826,826,826,826,826,826,826,826,826,826,826,826,826,826,826,826,826,818.6666870117188,818.6666870117188,802,794.6666870117188,794.6666870117188,715.3333740234375,678,658,611.3333740234375,585.3333740234375,458,425.3333435058594,361.3333435058594,331.3333435058594,269.3333435058594,182.6666717529297,130,105.33333587646484,60],"timestamp_mouse":[3,26,43,63,83,103,123,143,163,183,203,223,243,263,283,303,323,343,363,383,403,423,444,463,483,503,523,543,563,583,603,624,647,663,683,703,723,745,764,783,803,823,845,863,883,903,923,945,963,984,1003],"xSR":350,"ySR":768,"xT1":30,"yT1":0,"xT2":670,"yT2":0,"toosoon":0,"cond_shown":"Incongruent","ratio_trial":300,"L_num":3,"L_den":6,"R_num":4,"R_den":20,"correct_side":1,"subjID":"413wm","gender":"No_gender","school":"No_school","age":"No_age"},{"start_time":1549381409447,"click_time":1549381410429,"finger_time":1549381410188,"fix_duration":357.545888800986,"trial":23,"RT":741,"MT":241,"sideResp":2,"stimulus":[],"xmouse":[400,400,400,400,400,400,400,400,400,400,400,400,400,400,400,400,400,400,400,400,401.3333435058594,401.3333435058594,401.3333435058594,401.3333435058594,401.3333435058594,401.3333435058594,401.3333435058594,401.3333435058594,401.3333435058594,402,402.66668701171875,402.66668701171875,402.66668701171875,403.3333435058594,404.66668701171875,410,414,424,439.3333435058594,470.66668701171875,482,507.3333740234375,522,550.6666870117188,577.3333740234375,615.3333740234375,627.3333740234375,650,672,683.3333740234375],"ymouse":[832.0000610351562,832.0000610351562,832.0000610351562,832.0000610351562,832.0000610351562,832.0000610351562,832.0000610351562,832.0000610351562,832.0000610351562,831.3333740234375,831.3333740234375,831.3333740234375,830.6666870117188,830.6666870117188,830.6666870117188,831.3333740234375,831.3333740234375,831.3333740234375,831.3333740234375,831.3333740234375,832,832,832,832,832,832,832,832,832,829.3333740234375,828.6666870117188,828,827.3333740234375,826,820.6666870117188,800.6666870117188,783.3333740234375,740,692,605.3333740234375,574.6666870117188,507.3333740234375,472.66668701171875,402.66668701171875,334,239.33334350585938,212,162,118.66667175292969,99.33333587646484],"timestamp_mouse":[2,33,41,61,81,101,122,141,161,182,201,221,241,261,281,301,321,341,361,381,401,421,441,462,481,501,522,541,562,582,601,622,641,661,683,701,721,741,761,783,801,821,841,861,882,902,921,941,961,981],"xSR":350,"ySR":768,"xT1":30,"yT1":0,"xT2":670,"yT2":0,"toosoon":0,"cond_shown":"Incongruent","ratio_trial":500,"L_num":7,"L_den":21,"R_num":5,"R_den":6,"correct_side":2,"subjID":"413wm","gender":"No_gender","school":"No_school","age":"No_age"},{"start_time":1549381412379,"click_time":1549381414149,"finger_time":1549381413450,"fix_duration":569.6162813867004,"trial":24,"RT":1071,"MT":699,"sideResp":2,"stimulus":[],"xmouse":[392,392,392,392,392,392,392,392,392,392,392,392,392,392,392,392,392,392,392,392,392,392,392,392,392,392,392,392,392,392,392,392,392,392,392,392,392,392,392,392,392,392,392,392,392.66668701171875,393.3333435058594,393.3333435058594,393.3333435058594,393.3333435058594,393.3333435058594,397.3333435058594,398,398,398,398,398,398,398,398,398,398,398,398,398,398.66668701171875,398.66668701171875,399.3333435058594,400,400,400.66668701171875,402,403.3333435058594,410.66668701171875,425.3333435058594,452.66668701171875,463.3333435058594,482.66668701171875,492,510,538.6666870117188,555.3333740234375,566,584,603.3333740234375,630,638,654,661.3333740234375,671.3333740234375],"ymouse":[800,800,800,800,800,800,800,800,800,800,800,800,800,800,800,800,800,800,800,800,800,800,800,800,800,800,800,800,800,800,800,800,800,800,800,800,800,800,800,800,800,800,800,800,790.6666870117188,789.3333129882812,789.3333129882812,789.3333129882812,789.3333129882812,789.3333129882812,772.6666870117188,770,768.6666870117188,765.3333740234375,762.6666870117188,761.3333740234375,759.3333740234375,757.3333740234375,754.6666870117188,754,752.6666870117188,752,750.6666870117188,749.3333740234375,748,747.3333740234375,746,744.6666870117188,744,742,739.3333740234375,736,714,674,600,574.6666870117188,526.6666870117188,505.3333740234375,460,390.66668701171875,344,320,274,226.6666717529297,166,147.33334350585938,114.66667175292969,100.66667175292969,79.33333587646484],"timestamp_mouse":[9,31,49,69,89,110,130,149,169,189,209,229,249,269,289,309,329,349,369,389,409,429,449,469,489,509,529,549,570,590,609,629,650,669,689,709,730,749,769,789,809,829,849,869,889,909,929,949,969,989,1009,1029,1049,1071,1089,1109,1129,1149,1171,1189,1209,1229,1249,1271,1289,1309,1329,1349,1369,1390,1409,1429,1449,1469,1490,1509,1529,1549,1569,1590,1609,1629,1649,1669,1691,1709,1729,1749,1769],"xSR":350,"ySR":768,"xT1":30,"yT1":0,"xT2":670,"yT2":0,"toosoon":0,"cond_shown":"Congruent","ratio_trial":100,"L_num":4,"L_den":8,"R_num":6,"R_den":10,"correct_side":2,"subjID":"413wm","gender":"No_gender","school":"No_school","age":"No_age"},{"start_time":1549381416011,"click_time":1549381416828,"finger_time":1549381416488,"fix_duration":402.62551828345795,"trial":25,"RT":477,"MT":340,"sideResp":1,"stimulus":[],"xmouse":[396,396,396,396,396,400,400,400,400,400,400,400,400.66668701171875,400.66668701171875,400.66668701171875,400.66668701171875,400.66668701171875,400.66668701171875,400.66668701171875,400.66668701171875,400.66668701171875,400.66668701171875,394,382.66668701171875,376,361.3333435058594,340,327.3333435058594,286.66668701171875,259.3333435058594,247.33334350585938,221.33334350585938,198.6666717529297,168.6666717529297,160,143.33334350585938,136,122,106.66667175292969,98,93.33333587646484],"ymouse":[807,807,807,807,807,800,800,800,799.3333740234375,799.3333740234375,799.3333740234375,799.3333740234375,798.6666870117188,798.6666870117188,798.6666870117188,798.6666870117188,798.6666870117188,798.6666870117188,798.6666870117188,798.6666870117188,798.6666870117188,798.6666870117188,778,742,721.3333740234375,677.3333740234375,631.3333740234375,606,528.6666870117188,476.66668701171875,456,409.3333435058594,365.3333435058594,302.66668701171875,282,240,221.33334350585938,184,132.6666717529297,102,88],"timestamp_mouse":[17,40,57,77,98,117,137,157,178,197,217,238,258,277,297,317,337,358,377,397,418,437,459,477,497,517,537,557,577,597,617,637,657,677,697,717,737,757,778,797,817],"xSR":350,"ySR":768,"xT1":30,"yT1":0,"xT2":670,"yT2":0,"toosoon":0,"cond_shown":"Incongruent","ratio_trial":300,"L_num":13,"L_den":26,"R_num":12,"R_den":15,"correct_side":2,"subjID":"413wm","gender":"No_gender","school":"No_school","age":"No_age"},{"start_time":1549381419229,"click_time":1549381420388,"finger_time":1549381420108,"fix_duration":598.114597316497,"trial":26,"RT":879,"MT":280,"sideResp":1,"stimulus":[],"xmouse":[405.3333435058594,405.3333435058594,405.3333435058594,406,406,406,406,406,406,406,406,406,406,406,406,406,406,406,406,406,406,406,406,406,406,406,406,406,406,406,406,406,406,405.3333435058594,405.3333435058594,405.3333435058594,405.3333435058594,405.3333435058594,405.3333435058594,400.66668701171875,398,396,388.66668701171875,384.66668701171875,366,344.66668701171875,333.3333435058594,312.66668701171875,287.3333435058594,240,223.33334350585938,190.6666717529297,175.33334350585938,148.6666717529297,114,95.33333587646484,87.33333587646484,73.33333587646484,68.66667175292969],"ymouse":[827.3333129882812,827.3333129882812,827.3333129882812,826,826,826,826,826,826,826,826,826,826,825.3333129882812,825.3333129882812,825.3333129882812,825.3333129882812,825.3333129882812,825.3333129882812,825.3333129882812,825.3333129882812,825.3333129882812,825.3333129882812,823.3333129882812,823.3333129882812,823.3333129882812,823.3333129882812,823.3333129882812,823.3333129882812,823.3333129882812,823.3333129882812,823.3333129882812,823.3333129882812,822,822,822,822,822,822,820.6666870117188,816.6666870117188,814,801.3333129882812,794.6666870117188,765.3333740234375,730.6666870117188,711.3333740234375,669.3333740234375,620,538,508.66668701171875,446.66668701171875,414,349.3333435058594,253.33334350585938,190,159.33334350585938,106,84],"timestamp_mouse":[2,28,39,59,79,99,119,140,159,180,199,219,239,259,279,299,319,339,359,379,400,419,439,459,479,499,519,539,559,579,599,619,639,659,679,699,719,739,759,779,799,819,839,859,879,900,919,939,959,979,999,1019,1039,1059,1080,1099,1119,1139,1159],"xSR":350,"ySR":768,"xT1":30,"yT1":0,"xT2":670,"yT2":0,"toosoon":0,"cond_shown":"Incongruent","ratio_trial":300,"L_num":7,"L_den":10,"R_num":8,"R_den":20,"correct_side":1,"subjID":"413wm","gender":"No_gender","school":"No_school","age":"No_age"},{"start_time":1549381423152,"click_time":1549381424189,"finger_time":1549381423929,"fix_duration":1202.9689438107112,"trial":27,"RT":777,"MT":260,"sideResp":1,"stimulus":[],"xmouse":[400,400,400,400,400,400,400,400,400,400,400,400,400,400,400,400,400,400,400,400,400,400,400,400,400,400,400,400,400,400,400,400,400,400,400,400,400,394,378,360.66668701171875,338,325.3333435058594,301.3333435058594,256.66668701171875,240.6666717529297,208,180,166,136,116,108.66667175292969,93.33333587646484],"ymouse":[804,804,804,804,804,804,804,804,804,804,804,804,804,804,804,804,804,804,804,804,804,804,804,804,804,804,804,804,804,804,804,804,804,804,804,804,804,788,759.3333740234375,731.3333740234375,691.3333740234375,665.3333740234375,605.3333740234375,508,474.66668701171875,408,340.66668701171875,308.66668701171875,219.33334350585938,164,138,92],"timestamp_mouse":[27,36,56,77,96,116,136,156,176,196,216,236,256,276,296,316,336,356,376,396,416,436,456,476,497,517,536,556,576,596,616,637,656,676,696,716,737,756,776,796,817,836,856,878,897,916,936,956,978,996,1016,1037],"xSR":350,"ySR":768,"xT1":30,"yT1":0,"xT2":670,"yT2":0,"toosoon":0,"cond_shown":"Incongruent","ratio_trial":200,"L_num":1,"L_den":3,"R_num":2,"R_den":15,"correct_side":1,"subjID":"413wm","gender":"No_gender","school":"No_school","age":"No_age"},{"start_time":1549381425926,"click_time":1549381427029,"finger_time":1549381426749,"fix_duration":274.78650613728684,"trial":28,"RT":823,"MT":280,"sideResp":1,"stimulus":[],"xmouse":[392,392,392,392,392,392,392,392,392,392,392,392,392,392,392,392,392,392,392,392,392,392,392,392,392,392,392,392,392,392,392,392,392,392,392,392,392,388.66668701171875,385.3333435058594,381.3333435058594,381.3333435058594,348.66668701171875,333.3333435058594,324.66668701171875,307.3333435058594,297.3333435058594,252.6666717529297,240.6666717529297,214.6666717529297,202,176.6666717529297,140.6666717529297,118.66667175292969,108.66667175292969,90,82],"ymouse":[808,808,808,808,808,808,808,808,808,808,808,808,808,808,808,808,808,808,808,808,808,808,808,808,808,808,808,808,808,808,808,808,808,808,808,808,808,797.3333740234375,792,784.6666870117188,784.6666870117188,716.6666870117188,682,662.6666870117188,616.6666870117188,592,484.66668701171875,456.66668701171875,402,376.66668701171875,322.66668701171875,245.33334350585938,194.6666717529297,169.33334350585938,120.66667175292969,96.66667175292969],"timestamp_mouse":[2,34,42,62,82,102,122,142,162,182,202,222,242,262,282,302,322,342,362,382,403,422,442,463,482,502,523,542,563,582,602,622,642,662,682,702,722,743,762,782,802,823,842,862,882,902,923,942,962,982,1002,1023,1042,1062,1082,1102],"xSR":350,"ySR":768,"xT1":30,"yT1":0,"xT2":670,"yT2":0,"toosoon":0,"cond_shown":"Incongruent","ratio_trial":300,"L_num":8,"L_den":10,"R_num":9,"R_den":18,"correct_side":1,"subjID":"413wm","gender":"No_gender","school":"No_school","age":"No_age"},{"start_time":1549381429177,"click_time":1549381430269,"finger_time":1549381430028,"fix_duration":687.8011087785452,"trial":29,"RT":851,"MT":241,"sideResp":2,"stimulus":[],"xmouse":[398,398,398,398,398,398,398,398,398,398,398,398,398,398,398,398,398,398,398,398,398,398,398,398,398,398,398,398,398,398,398,398,398,398,398,398,398,398,398,403.3333435058594,414.66668701171875,414.66668701171875,432.66668701171875,446.66668701171875,471.3333435058594,481.3333435058594,503.3333435058594,514.6666870117188,536.6666870117188,568,590,600.6666870117188,624.6666870117188,636,683.3333740234375],"ymouse":[819,819,819,819,819,819,819,819,819,819,819,819,819,819,819,819,819,819,819,819,819,819,819,819,819,819,819,819,819,819,819,819,819,819,819,819,819,819,819,806,774.6666870117188,774.6666870117188,722,684.6666870117188,617.3333740234375,592,536,507.3333740234375,452,364.66668701171875,299.3333435058594,266.66668701171875,200.6666717529297,169.33334350585938,62],"timestamp_mouse":[11,38,51,71,92,111,131,151,171,191,211,232,251,271,291,312,331,351,372,392,411,431,451,471,492,511,531,551,571,591,611,632,651,672,691,711,731,751,771,792,811,831,851,871,892,911,931,951,971,992,1011,1031,1051,1071,1092],"xSR":350,"ySR":768,"xT1":30,"yT1":0,"xT2":670,"yT2":0,"toosoon":0,"cond_shown":"Congruent","ratio_trial":100,"L_num":9,"L_den":15,"R_num":8,"R_den":16,"correct_side":1,"subjID":"413wm","gender":"No_gender","school":"No_school","age":"No_age"},{"start_time":1549381432838,"click_time":1549381434108,"finger_time":1549381433748,"fix_duration":808.8603291301234,"trial":30,"RT":910,"MT":360,"sideResp":1,"stimulus":[],"xmouse":[399,399,399,399,399,399,399,399,399,399,399,399,399,399,399,399,399,399,399,399,399,399,399,399,399,399,399,399,399,399,399,399,399,399,399,399,399,399,399,399,399,395.3333435058594,387.3333435058594,384,374,368,354.66668701171875,342.66668701171875,321.3333435058594,312.66668701171875,296,287.3333435058594,268.66668701171875,238,216,205.33334350585938,184.6666717529297,175.33334350585938,150,134.6666717529297,121.33333587646484,115.33333587646484,105.33333587646484,90],"ymouse":[830,830,830,830,830,830,830,830,830,830,830,830,830,830,830,830,830,830,830,830,830,830,830,830,830,830,830,830,830,830,830,830,830,830,830,830,830,830,830,830,830,822,804.6666870117188,797.3333740234375,772,754,714.6666870117188,675.3333740234375,614.6666870117188,592,544,519.3333740234375,470.66668701171875,403.3333435058594,360.66668701171875,340,298.66668701171875,278.66668701171875,220,182.6666717529297,146,129.33334350585938,100.66667175292969,61.333335876464844],"timestamp_mouse":[12,33,50,71,91,110,130,151,170,190,210,230,250,270,290,310,330,350,370,390,410,430,450,470,490,510,530,550,571,590,610,630,650,670,691,710,730,750,771,790,810,830,851,870,890,910,930,950,970,990,1010,1031,1050,1070,1090,1110,1130,1150,1171,1189,1211,1230,1250,1270],"xSR":350,"ySR":768,"xT1":30,"yT1":0,"xT2":670,"yT2":0,"toosoon":0,"cond_shown":"Congruent","ratio_trial":500,"L_num":22,"L_den":28,"R_num":2,"R_den":7,"correct_side":1,"subjID":"413wm","gender":"No_gender","school":"No_school","age":"No_age"},{"start_time":1549381435920,"click_time":1549381437629,"finger_time":1549381436888,"fix_duration":250,"trial":31,"RT":968,"MT":741,"sideResp":1,"stimulus":[],"xmouse":[427,427,427,427,427,427,427,427,427,427,427,427,427,427,427,427,427,427,427,427,427,427,427,427,427,427,427,427,427,427,427,427,427,426,425.3333435058594,425.3333435058594,425.3333435058594,422.66668701171875,422,422,420.66668701171875,420.66668701171875,420.66668701171875,421.3333435058594,422,423.3333435058594,425.3333435058594,426.66668701171875,430,431.3333435058594,435.3333435058594,438,440,440,440.66668701171875,440,439.3333435058594,437.3333435058594,436,435.3333435058594,433.3333435058594,432.66668701171875,432,430.66668701171875,428.66668701171875,424,421.3333435058594,416,412.66668701171875,402,376.66668701171875,357.3333435058594,348,328.66668701171875,318.66668701171875,288.66668701171875,268,246,232.6666717529297,209.33334350585938,174,162.6666717529297,138.6666717529297,114.66667175292969,102.66667175292969,68],"ymouse":[822,822,822,822,822,822,822,822,822,822,822,822,822,822,822,822,822,822,822,822,822,822,822,822,822,822,822,822,822,822,822,822,822,814.0000610351562,812.6666870117188,812.6666870117188,812.6666870117188,806.6666870117188,805.3333740234375,804.6666870117188,802.6666870117188,802,800,799.3333740234375,796,786,775.3333740234375,770,759.3333740234375,754,739.3333740234375,728.6666870117188,718,712.6666870117188,704,696,694.6666870117188,692,690,690,688,686.6666870117188,686,684,681.3333740234375,673.3333740234375,669.3333740234375,661.3333740234375,654.6666870117188,638.6666870117188,598.6666870117188,569.3333740234375,554,522.6666870117188,506.66668701171875,456,419.3333435058594,386.66668701171875,368.66668701171875,332.66668701171875,272,251.33334350585938,211.33334350585938,170,148,82.66667175292969],"timestamp_mouse":[10,36,48,68,88,108,129,148,168,188,208,228,249,268,288,308,328,348,368,388,408,428,448,468,488,508,528,548,568,589,608,628,648,668,688,708,728,748,768,788,808,828,848,868,888,908,928,948,968,988,1008,1028,1049,1068,1088,1109,1128,1149,1168,1188,1210,1228,1248,1268,1288,1310,1328,1348,1368,1388,1409,1428,1448,1468,1488,1509,1528,1548,1568,1588,1608,1629,1648,1668,1688,1709],"xSR":350,"ySR":768,"xT1":30,"yT1":0,"xT2":670,"yT2":0,"toosoon":0,"cond_shown":"Congruent","ratio_trial":500,"L_num":7,"L_den":10,"R_num":1,"R_den":5,"correct_side":1,"subjID":"413wm","gender":"No_gender","school":"No_school","age":"No_age"},{"start_time":1549381439539,"click_time":1549381440588,"finger_time":1549381440328,"fix_duration":250,"trial":32,"RT":789,"MT":260,"sideResp":2,"stimulus":[],"xmouse":[402,402,402,402,402,402,402,402,402,402,402,402,402,402,402,402,402,402,402,402,402,402,402,402,402,402,402,402,402,402,402.66668701171875,402.66668701171875,402.66668701171875,402.66668701171875,402.66668701171875,402.66668701171875,402.66668701171875,402.66668701171875,402.66668701171875,422.66668701171875,460.66668701171875,470,490,500.66668701171875,521.3333740234375,554,576.6666870117188,588.6666870117188,609.3333740234375,620.6666870117188,652.6666870117188,673.3333740234375,693.3333740234375],"ymouse":[810.6666870117188,810.6666870117188,810.6666870117188,810.6666870117188,810.6666870117188,810.6666870117188,810.6666870117188,810.6666870117188,810.6666870117188,810.6666870117188,810.6666870117188,810.6666870117188,810.6666870117188,810.6666870117188,810.6666870117188,810.6666870117188,810.6666870117188,810.6666870117188,810.6666870117188,810.6666870117188,810.6666870117188,811.3333740234375,811.3333740234375,811.3333740234375,811.3333740234375,811.3333740234375,811.3333740234375,811.3333740234375,811.3333740234375,811.3333740234375,810.6666870117188,810.6666870117188,810.6666870117188,810.6666870117188,810.6666870117188,810.6666870117188,810.6666870117188,810.6666870117188,810.6666870117188,738.6666870117188,644.6666870117188,622.6666870117188,573.3333740234375,547.3333740234375,496,413.3333435058594,356,329.3333435058594,274,246,166.6666717529297,116.66667175292969,73.33333587646484],"timestamp_mouse":[13,41,49,70,89,109,129,149,169,189,209,229,249,269,290,310,329,349,369,390,409,429,450,469,490,509,529,549,569,589,610,629,649,669,689,712,729,749,769,789,810,829,849,869,889,911,929,949,969,989,1011,1029,1049],"xSR":350,"ySR":768,"xT1":30,"yT1":