[{"start_time":1549381269090,"click_time":1549381270374,"finger_time":1549381269103,"fix_duration":1453.7255189342075,"trial":0,"RT":13,"MT":1271,"sideResp":2,"stimulus":[],"xmouse":[394,394,394,394,394,394,394,394,394,394,394,394,394,394,394,394,394,394,394,394,394,394,394,394,394,394,394,394,394,394,394,394,394,394,394,394,394,394,394,394,394,394,394,394,394,394,394,394,394,394,394,394,394,394,394,394,394,394,394,394,394,394,394,394,696.6666870117188],"ymouse":[751,751,751,751,751,751,751,751,751,751,751,751,751,751,751,751,751,751,751,751,751,751,751,751,751,751,751,751,751,751,751,751,751,751,751,751,751,751,751,751,751,751,751,751,751,751,751,751,751,751,751,751,751,751,751,751,751,751,751,751,751,751,751,751,74],"timestamp_mouse":[12,19,38,58,78,98,118,138,159,178,198,218,239,258,279,298,319,338,359,378,398,419,438,458,479,498,519,538,558,578,598,618,639,658,678,699,719,738,758,779,799,818,839,858,878,898,919,938,959,978,998,1018,1038,1059,1078,1098,1118,1138,1158,1178,1198,1219,1239,1259,1283],"xSR":350,"ySR":696,"xT1":30,"yT1":0,"xT2":670,"yT2":0,"toosoon":0,"cond_shown":"Congruent","ratio_trial":200,"L_num":8,"L_den":15,"R_num":2,"R_den":6,"correct_side":1,"subjID":"41wm","gender":"No_gender","age":"No_age","school":"No_school","test":{"fix_dur":[250,1500],"timestim":900,"targets_dim":[100,100],"targets_relative_coord":[0.1,0.9],"size_stim":[880,420],"start_dim":[100,100],"size_start":[300,300],"size_fix":60,"samplingrate":20,"img_types":["Congruent","Incongruent"],"ratios":[100,200,300,500],"rep_conds":15,"nTrials":128,"trials_to_rest":500,"Trials_order":[74,97,11,76,95,55,31,68,40,109,112,124,100,18,29,69,91,73,59,111,71,33,116,65,64,96,57,90,92,30,38,108,1,48,82,120,27,67,42,77,45,84,13,50,16,37,17,70,62,36,14,113,5,105,117,54,4,107,46,66,32,19,83,53,28,93,44,6,104,49,41,63,119,23,56,115,123,101,0,125,102,15,21,81,87,52,9,20,106,35,26,122,98,114,86,80,118,121,78,12,110,79,22,7,8,89,103,85,43,94,10,99,47,126,2,127,3,34,39,61,51,24,25,88,60,58,72,75],"cond_shown":["Congruent","Incongruent","Incongruent","Congruent","Incongruent","Incongruent","Incongruent","Congruent","Congruent","Incongruent","Congruent","Congruent","Congruent","Congruent","Incongruent","Incongruent","Incongruent","Incongruent","Incongruent","Incongruent","Incongruent","Incongruent","Congruent","Incongruent","Congruent","Congruent","Incongruent","Congruent","Congruent","Congruent","Congruent","Congruent","Incongruent","Congruent","Congruent","Congruent","Incongruent","Incongruent","Congruent","Incongruent","Incongruent","Congruent","Incongruent","Congruent","Congruent","Incongruent","Incongruent","Congruent","Congruent","Congruent","Congruent","Incongruent","Incongruent","Incongruent","Incongruent","Congruent","Congruent","Incongruent","Congruent","Congruent","Congruent","Incongruent","Incongruent","Incongruent","Congruent","Incongruent","Congruent","Congruent","Congruent","Incongruent","Incongruent","Incongruent","Incongruent","Incongruent","Congruent","Incongruent","Incongruent","Incongruent","Congruent","Incongruent","Congruent","Incongruent","Incongruent","Incongruent","Incongruent","Congruent","Incongruent","Congruent","Congruent","Incongruent","Congruent","Congruent","Congruent","Congruent","Congruent","Congruent","Congruent","Incongruent","Congruent","Congruent","Congruent","Incongruent","Congruent","Incongruent","Congruent","Incongruent","Incongruent","Incongruent","Incongruent","Congruent","Congruent","Incongruent","Incongruent","Congruent","Congruent","Incongruent","Incongruent","Congruent","Incongruent","Incongruent","Incongruent","Congruent","Incongruent","Congruent","Congruent","Congruent","Congruent","Incongruent"],"ratio_trial":[200,100,200,300,500,500,500,300,100,300,100,300,300,200,300,300,200,100,200,500,500,100,300,100,100,100,100,200,300,500,500,300,100,100,200,100,200,200,200,300,300,300,300,200,100,300,100,500,500,300,500,100,300,100,300,500,300,200,500,200,100,200,200,300,300,300,300,500,100,100,100,500,500,500,100,200,200,300,100,300,500,500,300,100,500,300,100,300,200,200,200,200,200,200,500,100,500,100,500,300,500,500,500,500,100,100,500,300,200,500,200,200,500,500,200,500,200,200,500,300,200,100,100,100,300,200,100,200],"left_num":[8,10,4,1,7,2,7,1,7,13,11,1,4,5,13,13,7,6,3,7,2,3,3,6,4,3,9,16,18,10,22,3,3,2,7,12,9,6,15,4,1,12,13,7,3,13,12,7,1,12,1,4,4,13,1,20,3,4,5,3,1,7,7,8,18,2,1,7,9,4,9,7,7,7,4,14,14,1,4,13,3,7,13,10,7,7,4,11,9,7,5,3,13,8,7,10,2,2,5,20,12,7,22,2,1,13,5,7,3,4,3,4,7,7,7,7,3,6,7,4,4,4,3,11,2,8,1,4],"right_num":[2,8,14,19,5,4,9,11,15,12,6,19,13,14,12,12,14,13,1,9,4,8,2,13,15,4,6,9,9,22,2,11,11,6,18,13,8,3,4,2,2,2,12,2,2,12,9,12,9,2,11,8,2,12,2,7,2,1,6,9,3,12,14,14,9,6,6,1,8,8,20,9,5,5,6,12,12,2,15,12,6,9,12,8,5,20,8,2,13,14,14,7,14,2,9,3,21,8,6,5,4,9,2,4,18,12,6,8,11,15,14,6,5,12,18,5,11,11,5,2,1,15,7,6,12,2,3,1],"left_den":[15,25,6,3,21,3,8,5,14,26,22,3,20,10,26,26,10,10,10,8,3,5,6,10,10,20,18,30,20,24,28,12,5,5,15,30,15,20,25,20,2,24,26,21,6,26,24,28,4,24,9,8,20,26,2,24,6,30,14,12,2,10,10,10,20,4,5,10,15,8,10,8,21,21,8,30,30,2,10,26,30,8,26,25,21,14,8,22,30,10,10,10,26,15,28,25,8,4,14,25,18,8,28,3,2,26,6,10,4,16,6,5,21,28,15,21,4,20,21,20,30,10,9,22,10,15,2,30],"right_den":[6,16,30,30,6,24,24,22,25,15,15,30,26,20,15,15,28,26,2,24,24,16,10,26,30,16,10,27,15,24,7,20,22,12,27,26,10,6,10,4,10,10,15,15,5,15,15,16,12,10,18,20,4,20,10,21,10,3,7,20,5,24,28,28,15,30,12,5,16,20,25,24,6,6,10,18,18,10,30,15,10,24,15,16,6,25,20,10,26,28,20,14,20,6,12,10,28,20,7,10,24,24,7,24,30,20,18,20,20,20,20,10,6,16,27,6,20,22,6,4,3,30,30,15,24,6,5,3],"correct_side":[1,2,1,2,2,1,1,2,2,2,1,2,2,2,2,2,1,1,2,1,1,1,1,1,2,2,2,1,1,2,1,2,1,2,2,2,2,2,1,2,1,1,2,1,1,2,2,2,2,1,2,1,2,2,1,1,1,2,2,2,2,1,1,1,1,1,2,1,1,1,1,1,2,2,2,2,2,1,2,2,2,1,2,2,2,2,1,1,2,1,2,2,2,1,2,1,2,1,2,1,1,1,1,1,2,2,1,1,1,2,2,1,2,2,2,2,1,2,2,2,2,2,1,1,2,1,2,2],"img_shown":["img2/200/Congruent/L/C_Dist_200_LN_8_LD_15_RN_2_RD_6_0.png","img2/100/Incongruent/R/I_Dist_100_LN_10_LD_25_RN_8_RD_16_1.png","img2/200/Incongruent/L/I_Dist_200_LN_4_LD_6_RN_14_RD_30_0.png","img2/300/Congruent/R/C_Dist_300_LN_1_LD_3_RN_19_RD_30_1.png","img2/500/Incongruent/R/I_Dist_500_LN_7_LD_21_RN_5_RD_6_1.png","img2/500/Incongruent/L/I_Dist_500_LN_2_LD_3_RN_4_RD_24_0.png","img2/500/Incongruent/L/I_Dist_500_LN_7_LD_8_RN_9_RD_24_0.png","img2/300/Congruent/R/C_Dist_300_LN_1_LD_5_RN_11_RD_22_1.png","img2/100/Congruent/R/C_Dist_100_LN_7_LD_14_RN_15_RD_25_1.png","img2/300/Incongruent/R/I_Dist_300_LN_13_LD_26_RN_12_RD_15_1.png","img2/100/Congruent/L/C_Dist_100_LN_11_LD_22_RN_6_RD_15_0.png","img2/300/Congruent/R/C_Dist_300_LN_1_LD_3_RN_19_RD_30_1.png","img2/300/Congruent/R/C_Dist_300_LN_4_LD_20_RN_13_RD_26_1.png","img2/200/Congruent/R/C_Dist_200_LN_5_LD_10_RN_14_RD_20_1.png","img2/300/Incongruent/R/I_Dist_300_LN_13_LD_26_RN_12_RD_15_1.png","img2/300/Incongruent/R/I_Dist_300_LN_13_LD_26_RN_12_RD_15_1.png","img2/200/Incongruent/L/I_Dist_200_LN_7_LD_10_RN_14_RD_28_0.png","img2/100/Incongruent/L/I_Dist_100_LN_6_LD_10_RN_13_RD_26_0.png","img2/200/Incongruent/R/I_Dist_200_LN_3_LD_10_RN_1_RD_2_1.png","img2/500/Incongruent/L/I_Dist_500_LN_7_LD_8_RN_9_RD_24_0.png","img2/500/Incongruent/L/I_Dist_500_LN_2_LD_3_RN_4_RD_24_0.png","img2/100/Incongruent/L/I_Dist_100_LN_3_LD_5_RN_8_RD_16_0.png","img2/300/Congruent/L/C_Dist_300_LN_3_LD_6_RN_2_RD_10_0.png","img2/100/Incongruent/L/I_Dist_100_LN_6_LD_10_RN_13_RD_26_0.png","img2/100/Congruent/R/C_Dist_100_LN_4_LD_10_RN_15_RD_30_1.png","img2/100/Congruent/R/C_Dist_100_LN_3_LD_20_RN_4_RD_16_1.png","img2/100/Incongruent/R/I_Dist_100_LN_9_LD_18_RN_6_RD_10_1.png","img2/200/Congruent/L/C_Dist_200_LN_16_LD_30_RN_9_RD_27_0.png","img2/300/Congruent/L/C_Dist_300_LN_18_LD_20_RN_9_RD_15_0.png","img2/500/Congruent/R/C_Dist_500_LN_10_LD_24_RN_22_RD_24_1.png","img2/500/Congruent/L/C_Dist_500_LN_22_LD_28_RN_2_RD_7_0.png","img2/300/Congruent/R/C_Dist_300_LN_3_LD_12_RN_11_RD_20_1.png","img2/100/Incongruent/L/I_Dist_100_LN_3_LD_5_RN_11_RD_22_0.png","img2/100/Congruent/R/C_Dist_100_LN_2_LD_5_RN_6_RD_12_1.png","img2/200/Congruent/R/C_Dist_200_LN_7_LD_15_RN_18_RD_27_1.png","img2/100/Congruent/R/C_Dist_100_LN_12_LD_30_RN_13_RD_26_1.png","img2/200/Incongruent/R/I_Dist_200_LN_9_LD_15_RN_8_RD_10_1.png","img2/200/Incongruent/R/I_Dist_200_LN_6_LD_20_RN_3_RD_6_1.png","img2/200/Congruent/L/C_Dist_200_LN_15_LD_25_RN_4_RD_10_0.png","img2/300/Incongruent/R/I_Dist_300_LN_4_LD_20_RN_2_RD_4_1.png","img2/300/Incongruent/L/I_Dist_300_LN_1_LD_2_RN_2_RD_10_0.png","img2/300/Congruent/L/C_Dist_300_LN_12_LD_24_RN_2_RD_10_0.png","img2/300/Incongruent/R/I_Dist_300_LN_13_LD_26_RN_12_RD_15_1.png","img2/200/Congruent/L/C_Dist_200_LN_7_LD_21_RN_2_RD_15_0.png","img2/100/Congruent/L/C_Dist_100_LN_3_LD_6_RN_2_RD_5_0.png","img2/300/Incongruent/R/I_Dist_300_LN_13_LD_26_RN_12_RD_15_1.png","img2/100/Incongruent/R/I_Dist_100_LN_12_LD_24_RN_9_RD_15_1.png","img2/500/Congruent/R/C_Dist_500_LN_7_LD_28_RN_12_RD_16_1.png","img2/500/Congruent/R/C_Dist_500_LN_1_LD_4_RN_9_RD_12_1.png","img2/300/Congruent/L/C_Dist_300_LN_12_LD_24_RN_2_RD_10_0.png","img2/500/Congruent/R/C_Dist_500_LN_1_LD_9_RN_11_RD_18_1.png","img2/100/Incongruent/L/I_Dist_100_LN_4_LD_8_RN_8_RD_20_0.png","img2/300/Incongruent/R/I_Dist_300_LN_4_LD_20_RN_2_RD_4_1.png","img2/100/Incongruent/R/I_Dist_100_LN_13_LD_26_RN_12_RD_20_1.png","img2/300/Incongruent/L/I_Dist_300_LN_1_LD_2_RN_2_RD_10_0.png","img2/500/Congruent/L/C_Dist_500_LN_20_LD_24_RN_7_RD_21_0.png","img2/300/Congruent/L/C_Dist_300_LN_3_LD_6_RN_2_RD_10_0.png","img2/200/Incongruent/R/I_Dist_200_LN_4_LD_30_RN_1_RD_3_1.png","img2/500/Congruent/R/C_Dist_500_LN_5_LD_14_RN_6_RD_7_1.png","img2/200/Congruent/R/C_Dist_200_LN_3_LD_12_RN_9_RD_20_1.png","img2/100/Congruent/R/C_Dist_100_LN_1_LD_2_RN_3_RD_5_1.png","img2/200/Incongruent/L/I_Dist_200_LN_7_LD_10_RN_12_RD_24_0.png","img2/200/Incongruent/L/I_Dist_200_LN_7_LD_10_RN_14_RD_28_0.png","img2/300/Incongruent/L/I_Dist_300_LN_8_LD_10_RN_14_RD_28_0.png","img2/300/Congruent/L/C_Dist_300_LN_18_LD_20_RN_9_RD_15_0.png","img2/300/Incongruent/L/I_Dist_300_LN_2_LD_4_RN_6_RD_30_0.png","img2/300/Congruent/R/C_Dist_300_LN_1_LD_5_RN_6_RD_12_1.png","img2/500/Congruent/L/C_Dist_500_LN_7_LD_10_RN_1_RD_5_0.png","img2/100/Congruent/L/C_Dist_100_LN_9_LD_15_RN_8_RD_16_0.png","img2/100/Incongruent/L/I_Dist_100_LN_4_LD_8_RN_8_RD_20_0.png","img2/100/Incongruent/L/I_Dist_100_LN_9_LD_10_RN_20_RD_25_0.png","img2/500/Incongruent/L/I_Dist_500_LN_7_LD_8_RN_9_RD_24_0.png","img2/500/Incongruent/R/I_Dist_500_LN_7_LD_21_RN_5_RD_6_1.png","img2/500/Incongruent/R/I_Dist_500_LN_7_LD_21_RN_5_RD_6_1.png","img2/100/Congruent/R/C_Dist_100_LN_4_LD_8_RN_6_RD_10_1.png","img2/200/Incongruent/R/I_Dist_200_LN_14_LD_30_RN_12_RD_18_1.png","img2/200/Incongruent/R/I_Dist_200_LN_14_LD_30_RN_12_RD_18_1.png","img2/300/Incongruent/L/I_Dist_300_LN_1_LD_2_RN_2_RD_10_0.png","img2/100/Congruent/R/C_Dist_100_LN_4_LD_10_RN_15_RD_30_1.png","img2/300/Incongruent/R/I_Dist_300_LN_13_LD_26_RN_12_RD_15_1.png","img2/500/Congruent/R/C_Dist_500_LN_3_LD_30_RN_6_RD_10_1.png","img2/500/Incongruent/L/I_Dist_500_LN_7_LD_8_RN_9_RD_24_0.png","img2/300/Incongruent/R/I_Dist_300_LN_13_LD_26_RN_12_RD_15_1.png","img2/100/Incongruent/R/I_Dist_100_LN_10_LD_25_RN_8_RD_16_1.png","img2/500/Incongruent/R/I_Dist_500_LN_7_LD_21_RN_5_RD_6_1.png","img2/300/Congruent/R/C_Dist_300_LN_7_LD_14_RN_20_RD_25_1.png","img2/100/Incongruent/L/I_Dist_100_LN_4_LD_8_RN_8_RD_20_0.png","img2/300/Congruent/L/C_Dist_300_LN_11_LD_22_RN_2_RD_10_0.png","img2/200/Congruent/R/C_Dist_200_LN_9_LD_30_RN_13_RD_26_1.png","img2/200/Incongruent/L/I_Dist_200_LN_7_LD_10_RN_14_RD_28_0.png","img2/200/Congruent/R/C_Dist_200_LN_5_LD_10_RN_14_RD_20_1.png","img2/200/Congruent/R/C_Dist_200_LN_3_LD_10_RN_7_RD_14_1.png","img2/200/Congruent/R/C_Dist_200_LN_13_LD_26_RN_14_RD_20_1.png","img2/200/Congruent/L/C_Dist_200_LN_8_LD_15_RN_2_RD_6_0.png","img2/500/Congruent/R/C_Dist_500_LN_7_LD_28_RN_9_RD_12_1.png","img2/100/Congruent/L/C_Dist_100_LN_10_LD_25_RN_3_RD_10_0.png","img2/500/Congruent/R/C_Dist_500_LN_2_LD_8_RN_21_RD_28_1.png","img2/100/Incongruent/L/I_Dist_100_LN_2_LD_4_RN_8_RD_20_0.png","img2/500/Congruent/R/C_Dist_500_LN_5_LD_14_RN_6_RD_7_1.png","img2/300/Congruent/L/C_Dist_300_LN_20_LD_25_RN_5_RD_10_0.png","img2/500/Congruent/L/C_Dist_500_LN_12_LD_18_RN_4_RD_24_0.png","img2/500/Incongruent/L/I_Dist_500_LN_7_LD_8_RN_9_RD_24_0.png","img2/500/Congruent/L/C_Dist_500_LN_22_LD_28_RN_2_RD_7_0.png","img2/500/Incongruent/L/I_Dist_500_LN_2_LD_3_RN_4_RD_24_0.png","img2/100/Congruent/R/C_Dist_100_LN_1_LD_2_RN_18_RD_30_1.png","img2/100/Incongruent/R/I_Dist_100_LN_13_LD_26_RN_12_RD_20_1.png","img2/500/Incongruent/L/I_Dist_500_LN_5_LD_6_RN_6_RD_18_0.png","img2/300/Incongruent/L/I_Dist_300_LN_7_LD_10_RN_8_RD_20_0.png","img2/200/Incongruent/L/I_Dist_200_LN_3_LD_4_RN_11_RD_20_0.png","img2/500/Congruent/R/C_Dist_500_LN_4_LD_16_RN_15_RD_20_1.png","img2/200/Congruent/R/C_Dist_200_LN_3_LD_6_RN_14_RD_20_1.png","img2/200/Incongruent/L/I_Dist_200_LN_4_LD_5_RN_6_RD_10_0.png","img2/500/Incongruent/R/I_Dist_500_LN_7_LD_21_RN_5_RD_6_1.png","img2/500/Congruent/R/C_Dist_500_LN_7_LD_28_RN_12_RD_16_1.png","img2/200/Congruent/R/C_Dist_200_LN_7_LD_15_RN_18_RD_27_1.png","img2/500/Incongruent/R/I_Dist_500_LN_7_LD_21_RN_5_RD_6_1.png","img2/200/Incongruent/L/I_Dist_200_LN_3_LD_4_RN_11_RD_20_0.png","img2/200/Congruent/R/C_Dist_200_LN_6_LD_20_RN_11_RD_22_1.png","img2/500/Incongruent/R/I_Dist_500_LN_7_LD_21_RN_5_RD_6_1.png","img2/300/Incongruent/R/I_Dist_300_LN_4_LD_20_RN_2_RD_4_1.png","img2/200/Incongruent/R/I_Dist_200_LN_4_LD_30_RN_1_RD_3_1.png","img2/100/Congruent/R/C_Dist_100_LN_4_LD_10_RN_15_RD_30_1.png","img2/100/Incongruent/L/I_Dist_100_LN_3_LD_9_RN_7_RD_30_0.png","img2/100/Congruent/L/C_Dist_100_LN_11_LD_22_RN_6_RD_15_0.png","img2/300/Congruent/R/C_Dist_300_LN_2_LD_10_RN_12_RD_24_1.png","img2/200/Congruent/L/C_Dist_200_LN_8_LD_15_RN_2_RD_6_0.png","img2/100/Congruent/R/C_Dist_100_LN_1_LD_2_RN_3_RD_5_1.png","img2/200/Incongruent/R/I_Dist_200_LN_4_LD_30_RN_1_RD_3_1.png"],"dist100_C":[["C_Dist_100_LN_10_LD_25_RN_3_RD_10_0.png","C_Dist_100_LN_11_LD_22_RN_4_RD_10_0.png","C_Dist_100_LN_11_LD_22_RN_6_RD_15_0.png","C_Dist_100_LN_15_LD_25_RN_13_RD_26_0.png","C_Dist_100_LN_3_LD_6_RN_2_RD_5_0.png","C_Dist_100_LN_6_LD_20_RN_5_RD_25_0.png","C_Dist_100_LN_8_LD_16_RN_2_RD_5_0.png","C_Dist_100_LN_9_LD_15_RN_8_RD_16_0.png"],["C_Dist_100_LN_1_LD_2_RN_18_RD_30_1.png","C_Dist_100_LN_1_LD_2_RN_3_RD_5_1.png","C_Dist_100_LN_12_LD_30_RN_13_RD_26_1.png","C_Dist_100_LN_2_LD_5_RN_11_RD_22_1.png","C_Dist_100_LN_2_LD_5_RN_6_RD_12_1.png","C_Dist_100_LN_3_LD_20_RN_4_RD_16_1.png","C_Dist_100_LN_4_LD_10_RN_15_RD_30_1.png","C_Dist_100_LN_4_LD_8_RN_6_RD_10_1.png","C_Dist_100_LN_6_LD_12_RN_15_RD_25_1.png","C_Dist_100_LN_7_LD_14_RN_15_RD_25_1.png","C_Dist_100_LN_7_LD_14_RN_9_RD_15_1.png"]],"dist100_I":[["I_Dist_100_LN_1_LD_2_RN_8_RD_20_0.png","I_Dist_100_LN_2_LD_4_RN_6_RD_15_0.png","I_Dist_100_LN_2_LD_4_RN_8_RD_20_0.png","I_Dist_100_LN_3_LD_5_RN_11_RD_22_0.png","I_Dist_100_LN_3_LD_5_RN_8_RD_16_0.png","I_Dist_100_LN_3_LD_6_RN_4_RD_10_0.png","I_Dist_100_LN_3_LD_9_RN_7_RD_30_0.png","I_Dist_100_LN_4_LD_8_RN_8_RD_20_0.png","I_Dist_100_LN_6_LD_10_RN_11_RD_22_0.png","I_Dist_100_LN_6_LD_10_RN_13_RD_26_0.png","I_Dist_100_LN_6_LD_10_RN_7_RD_14_0.png","I_Dist_100_LN_9_LD_10_RN_20_RD_25_0.png","I_Dist_100_LN_9_LD_15_RN_13_RD_26_0.png","I_Dist_100_LN_9_LD_15_RN_14_RD_28_0.png"],["I_Dist_100_LN_10_LD_25_RN_8_RD_16_1.png","I_Dist_100_LN_10_LD_25_RN_9_RD_18_1.png","I_Dist_100_LN_11_LD_22_RN_9_RD_15_1.png","I_Dist_100_LN_12_LD_24_RN_9_RD_15_1.png","I_Dist_100_LN_12_LD_30_RN_2_RD_4_1.png","I_Dist_100_LN_13_LD_26_RN_12_RD_20_1.png","I_Dist_100_LN_13_LD_26_RN_6_RD_10_1.png","I_Dist_100_LN_17_LD_30_RN_10_RD_15_1.png","I_Dist_100_LN_6_LD_12_RN_3_RD_5_1.png","I_Dist_100_LN_8_LD_16_RN_6_RD_10_1.png","I_Dist_100_LN_8_LD_20_RN_1_RD_2_1.png","I_Dist_100_LN_9_LD_18_RN_6_RD_10_1.png"]],"dist100_S":[["E_Dist_100_LN_2_LD_12_RN_2_RD_30_0.png","E_Dist_100_LN_6_LD_10_RN_6_RD_12_0.png"],["E_Dist_100_LN_6_LD_12_RN_6_RD_10_1.png"]],"dist200_C":[["C_Dist_200_LN_11_LD_22_RN_3_RD_10_0.png","C_Dist_200_LN_12_LD_15_RN_6_RD_10_0.png","C_Dist_200_LN_12_LD_20_RN_6_RD_15_0.png","C_Dist_200_LN_14_LD_28_RN_6_RD_20_0.png","C_Dist_200_LN_15_LD_25_RN_4_RD_10_0.png","C_Dist_200_LN_16_LD_20_RN_12_RD_20_0.png","C_Dist_200_LN_16_LD_30_RN_9_RD_27_0.png","C_Dist_200_LN_20_LD_25_RN_9_RD_15_0.png","C_Dist_200_LN_21_LD_30_RN_2_RD_4_0.png","C_Dist_200_LN_4_LD_10_RN_3_RD_15_0.png","C_Dist_200_LN_4_LD_8_RN_3_RD_10_0.png","C_Dist_200_LN_6_LD_15_RN_3_RD_15_0.png","C_Dist_200_LN_7_LD_21_RN_2_RD_15_0.png","C_Dist_200_LN_8_LD_15_RN_2_RD_6_0.png","C_Dist_200_LN_8_LD_15_RN_3_RD_9_0.png","C_Dist_200_LN_8_LD_15_RN_7_RD_21_0.png","C_Dist_200_LN_9_LD_20_RN_4_RD_16_0.png"],["C_Dist_200_LN_1_LD_2_RN_21_RD_30_1.png","C_Dist_200_LN_13_LD_26_RN_14_RD_20_1.png","C_Dist_200_LN_3_LD_10_RN_11_RD_22_1.png","C_Dist_200_LN_3_LD_10_RN_14_RD_28_1.png","C_Dist_200_LN_3_LD_10_RN_7_RD_14_1.png","C_Dist_200_LN_3_LD_12_RN_9_RD_20_1.png","C_Dist_200_LN_3_LD_6_RN_14_RD_20_1.png","C_Dist_200_LN_5_LD_10_RN_14_RD_20_1.png","C_Dist_200_LN_6_LD_12_RN_7_RD_10_1.png","C_Dist_200_LN_6_LD_20_RN_11_RD_22_1.png","C_Dist_200_LN_7_LD_15_RN_18_RD_27_1.png","C_Dist_200_LN_9_LD_30_RN_13_RD_26_1.png"]],"dist200_I":[["I_Dist_200_LN_1_LD_2_RN_3_RD_10_0.png","I_Dist_200_LN_1_LD_3_RN_2_RD_15_0.png","I_Dist_200_LN_3_LD_4_RN_11_RD_20_0.png","I_Dist_200_LN_4_LD_5_RN_6_RD_10_0.png","I_Dist_200_LN_4_LD_6_RN_14_RD_30_0.png","I_Dist_200_LN_7_LD_10_RN_12_RD_24_0.png","I_Dist_200_LN_7_LD_10_RN_14_RD_28_0.png","I_Dist_200_LN_7_LD_10_RN_8_RD_16_0.png"],["I_Dist_200_LN_11_LD_20_RN_3_RD_4_1.png","I_Dist_200_LN_14_LD_30_RN_12_RD_18_1.png","I_Dist_200_LN_14_LD_30_RN_6_RD_9_1.png","I_Dist_200_LN_3_LD_10_RN_1_RD_2_1.png","I_Dist_200_LN_4_LD_30_RN_1_RD_3_1.png","I_Dist_200_LN_6_LD_20_RN_3_RD_6_1.png","I_Dist_200_LN_7_LD_15_RN_4_RD_6_1.png","I_Dist_200_LN_7_LD_15_RN_6_RD_9_1.png","I_Dist_200_LN_9_LD_15_RN_8_RD_10_1.png"]],"dist200_S":[["E_Dist_200_LN_3_LD_6_RN_3_RD_10_0.png"],["E_Dist_200_LN_3_LD_10_RN_3_RD_6_1.png"]],"dist300_C":[["C_Dist_300_LN_11_LD_22_RN_1_RD_5_0.png","C_Dist_300_LN_11_LD_22_RN_2_RD_10_0.png","C_Dist_300_LN_11_LD_22_RN_4_RD_20_0.png","C_Dist_300_LN_12_LD_24_RN_2_RD_10_0.png","C_Dist_300_LN_18_LD_20_RN_9_RD_15_0.png","C_Dist_300_LN_20_LD_25_RN_13_RD_26_0.png","C_Dist_300_LN_20_LD_25_RN_14_RD_28_0.png","C_Dist_300_LN_20_LD_25_RN_5_RD_10_0.png","C_Dist_300_LN_20_LD_25_RN_8_RD_16_0.png","C_Dist_300_LN_20_LD_25_RN_9_RD_18_0.png","C_Dist_300_LN_24_LD_30_RN_2_RD_4_0.png","C_Dist_300_LN_24_LD_30_RN_8_RD_16_0.png","C_Dist_300_LN_3_LD_6_RN_2_RD_10_0.png","C_Dist_300_LN_4_LD_10_RN_1_RD_10_0.png","C_Dist_300_LN_4_LD_5_RN_2_RD_4_0.png","C_Dist_300_LN_8_LD_16_RN_1_RD_5_0.png","C_Dist_300_LN_9_LD_10_RN_3_RD_5_0.png"],["C_Dist_300_LN_1_LD_20_RN_7_RD_20_1.png","C_Dist_300_LN_1_LD_3_RN_19_RD_30_1.png","C_Dist_300_LN_1_LD_30_RN_8_RD_24_1.png","C_Dist_300_LN_1_LD_5_RN_11_RD_22_1.png","C_Dist_300_LN_1_LD_5_RN_3_RD_6_1.png","C_Dist_300_LN_1_LD_5_RN_6_RD_12_1.png","C_Dist_300_LN_2_LD_10_RN_12_RD_24_1.png","C_Dist_300_LN_2_LD_20_RN_10_RD_25_1.png","C_Dist_300_LN_3_LD_12_RN_11_RD_20_1.png","C_Dist_300_LN_3_LD_6_RN_4_RD_5_1.png","C_Dist_300_LN_4_LD_20_RN_13_RD_26_1.png","C_Dist_300_LN_5_LD_25_RN_6_RD_12_1.png","C_Dist_300_LN_5_LD_25_RN_7_RD_14_1.png","C_Dist_300_LN_7_LD_14_RN_20_RD_25_1.png","C_Dist_300_LN_8_LD_15_RN_10_RD_12_1.png"]],"dist300_I":[["I_Dist_300_LN_1_LD_2_RN_2_RD_10_0.png","I_Dist_300_LN_1_LD_2_RN_3_RD_15_0.png","I_Dist_300_LN_2_LD_4_RN_6_RD_30_0.png","I_Dist_300_LN_3_LD_6_RN_4_RD_20_0.png","I_Dist_300_LN_4_LD_5_RN_6_RD_12_0.png","I_Dist_300_LN_4_LD_5_RN_8_RD_16_0.png","I_Dist_300_LN_7_LD_10_RN_8_RD_20_0.png","I_Dist_300_LN_8_LD_10_RN_14_RD_28_0.png","I_Dist_300_LN_8_LD_10_RN_9_RD_18_0.png"],["I_Dist_300_LN_13_LD_26_RN_12_RD_15_1.png","I_Dist_300_LN_4_LD_20_RN_2_RD_4_1.png"]],"dist300_S":[["E_Dist_300_LN_9_LD_12_RN_9_RD_20_0.png"],["E_Dist_300_LN_18_LD_30_RN_18_RD_20_1.png","E_Dist_300_LN_3_LD_10_RN_3_RD_5_1.png","E_Dist_300_LN_9_LD_20_RN_9_RD_12_1.png"]],"dist500_C":[["C_Dist_500_LN_10_LD_13_RN_7_RD_26_0.png","C_Dist_500_LN_10_LD_15_RN_4_RD_24_0.png","C_Dist_500_LN_12_LD_16_RN_3_RD_12_0.png","C_Dist_500_LN_12_LD_18_RN_4_RD_24_0.png","C_Dist_500_LN_15_LD_18_RN_5_RD_15_0.png","C_Dist_500_LN_15_LD_20_RN_1_RD_4_0.png","C_Dist_500_LN_18_LD_27_RN_1_RD_6_0.png","C_Dist_500_LN_20_LD_24_RN_1_RD_3_0.png","C_Dist_500_LN_20_LD_24_RN_3_RD_9_0.png","C_Dist_500_LN_20_LD_24_RN_7_RD_21_0.png","C_Dist_500_LN_20_LD_28_RN_3_RD_14_0.png","C_Dist_500_LN_21_LD_28_RN_6_RD_24_0.png","C_Dist_500_LN_22_LD_28_RN_2_RD_7_0.png","C_Dist_500_LN_25_LD_30_RN_9_RD_27_0.png","C_Dist_500_LN_4_LD_6_RN_1_RD_6_0.png","C_Dist_500_LN_5_LD_6_RN_2_RD_6_0.png","C_Dist_500_LN_6_LD_9_RN_1_RD_6_0.png","C_Dist_500_LN_7_LD_10_RN_1_RD_5_0.png","C_Dist_500_LN_8_LD_12_RN_1_RD_6_0.png","C_Dist_500_LN_8_LD_12_RN_4_RD_24_0.png"],["C_Dist_500_LN_1_LD_4_RN_12_RD_16_1.png","C_Dist_500_LN_1_LD_4_RN_9_RD_12_1.png","C_Dist_500_LN_1_LD_9_RN_11_RD_18_1.png","C_Dist_500_LN_10_LD_24_RN_22_RD_24_1.png","C_Dist_500_LN_2_LD_12_RN_10_RD_15_1.png","C_Dist_500_LN_2_LD_12_RN_12_RD_18_1.png","C_Dist_500_LN_2_LD_12_RN_4_RD_6_1.png","C_Dist_500_LN_2_LD_24_RN_7_RD_12_1.png","C_Dist_500_LN_2_LD_5_RN_18_RD_20_1.png","C_Dist_500_LN_2_LD_5_RN_9_RD_10_1.png","C_Dist_500_LN_2_LD_8_RN_12_RD_16_1.png","C_Dist_500_LN_2_LD_8_RN_21_RD_28_1.png","C_Dist_500_LN_3_LD_10_RN_4_RD_5_1.png","C_Dist_500_LN_3_LD_12_RN_15_RD_20_1.png","C_Dist_500_LN_3_LD_30_RN_6_RD_10_1.png","C_Dist_500_LN_3_LD_8_RN_14_RD_16_1.png","C_Dist_500_LN_4_LD_16_RN_15_RD_20_1.png","C_Dist_500_LN_4_LD_24_RN_12_RD_18_1.png","C_Dist_500_LN_5_LD_14_RN_6_RD_7_1.png","C_Dist_500_LN_7_LD_21_RN_20_RD_24_1.png","C_Dist_500_LN_7_LD_28_RN_12_RD_16_1.png","C_Dist_500_LN_7_LD_28_RN_9_RD_12_1.png","C_Dist_500_LN_9_LD_27_RN_20_RD_24_1.png"]],"dist500_I":[["I_Dist_500_LN_2_LD_3_RN_4_RD_24_0.png","I_Dist_500_LN_5_LD_6_RN_6_RD_18_0.png","I_Dist_500_LN_7_LD_8_RN_9_RD_24_0.png"],["I_Dist_500_LN_7_LD_21_RN_5_RD_6_1.png"]],"dist500_S":[["E_Dist_500_LN_6_LD_8_RN_6_RD_24_0.png"],["E_Dist_500_LN_2_LD_12_RN_2_RD_3_1.png","E_Dist_500_LN_6_LD_24_RN_6_RD_8_1.png"]]}},{"start_time":1549381275902,"click_time":1549381283330,"finger_time":1549381281711,"fix_duration":1071.9796342750337,"trial":1,"RT":5809,"MT":1619,"sideResp":2,"stimulus":[],"xmouse":[402.66668701171875,402.66668701171875,402.66668701171875,402.66668701171875,402.66668701171875,402.66668701171875,402.66668701171875,402.66668701171875,402.66668701171875,402.66668701171875,402.66668701171875,402.66668701171875,402.66668701171875,402.66668701171875,402.66668701171875,402.66668701171875,402.66668701171875,402.66668701171875,402.66668701171875,402.66668701171875,402.66668701171875,402.66668701171875,402.66668701171875,402.66668701171875,402.66668701171875,402.66668701171875,402.66668701171875,402.66668701171875,402.66668701171875,402.66668701171875,402.66668701171875,402.66668701171875,402.66668701171875,402.66668701171875,402,402,402,402,402,402,402,402,402,402,402,402,402,402,402,402,402,402,401.3333435058594,401.3333435058594,401.3333435058594,401.3333435058594,401.3333435058594,401.3333435058594,401.3333435058594,401.3333435058594,401.3333435058594,401.3333435058594,401.3333435058594,401.3333435058594,401.3333435058594,401.3333435058594,401.3333435058594,401.3333435058594,401.3333435058594,401.3333435058594,401.3333435058594,401.3333435058594,401.3333435058594,401.3333435058594,401.3333435058594,401.3333435058594,401.3333435058594,401.3333435058594,401.3333435058594,401.3333435058594,401.3333435058594,401.3333435058594,401.3333435058594,400.66668701171875,400.66668701171875,400.66668701171875,400.66668701171875,400.66668701171875,400,400,400,400,400,399.3333435058594,398.66668701171875,398.66668701171875,398.66668701171875,398,398,398,398,397.3333435058594,397.3333435058594,397.3333435058594,397.3333435058594,396.66668701171875,396.66668701171875,396,396,396,395.3333435058594,395.3333435058594,394.66668701171875,394.66668701171875,394.66668701171875,394.66668701171875,394.66668701171875,394.66668701171875,394.66668701171875,394.66668701171875,394.66668701171875,394.66668701171875,394.66668701171875,394.66668701171875,394.66668701171875,394.66668701171875,395.3333435058594,395.3333435058594,394.66668701171875,394.66668701171875,394.66668701171875,394.66668701171875,394.66668701171875,394.66668701171875,394.66668701171875,394.66668701171875,394.66668701171875,394.66668701171875,394.66668701171875,394.66668701171875,394.66668701171875,394.66668701171875,394.66668701171875,394.66668701171875,394.66668701171875,394.66668701171875,394.66668701171875,394.66668701171875,395.3333435058594,395.3333435058594,395.3333435058594,395.3333435058594,395.3333435058594,395.3333435058594,395.3333435058594,395.3333435058594,395.3333435058594,395.3333435058594,396.66668701171875,396.66668701171875,396.66668701171875,396.66668701171875,396.66668701171875,396.66668701171875,396.66668701171875,396.66668701171875,396.66668701171875,396.66668701171875,396.66668701171875,396.66668701171875,396.66668701171875,396.66668701171875,396.66668701171875,396.66668701171875,396.66668701171875,396.66668701171875,396.66668701171875,396.66668701171875,395.3333435058594,395.3333435058594,395.3333435058594,395.3333435058594,395.3333435058594,395.3333435058594,395.3333435058594,395.3333435058594,395.3333435058594,395.3333435058594,396,396,396,396,396,396,396,396,396,396,397.3333435058594,397.3333435058594,397.3333435058594,397.3333435058594,397.3333435058594,397.3333435058594,397.3333435058594,397.3333435058594,397.3333435058594,397.3333435058594,398,398,398,398,398,398,398,398,398,398,400,400,400,400,400,400,400,400,400,400,400.66668701171875,400.66668701171875,400.66668701171875,400.66668701171875,400.66668701171875,400.66668701171875,400.66668701171875,400.66668701171875,400.66668701171875,400.66668701171875,401.3333435058594,401.3333435058594,401.3333435058594,401.3333435058594,401.3333435058594,401.3333435058594,401.3333435058594,401.3333435058594,401.3333435058594,401.3333435058594,404.66668701171875,404.66668701171875,404.66668701171875,404.66668701171875,404.66668701171875,404.66668701171875,404.66668701171875,404.66668701171875,404.66668701171875,404.66668701171875,406.66668701171875,406.66668701171875,406.66668701171875,406.66668701171875,407.3333435058594,407.3333435058594,407.3333435058594,407.3333435058594,407.3333435058594,407.3333435058594,407.3333435058594,407.3333435058594,406.66668701171875,406.66668701171875,406.66668701171875,406.66668701171875,406,406,406,405.3333435058594,405.3333435058594,405.3333435058594,405.3333435058594,402.66668701171875,402.66668701171875,402.66668701171875,402.66668701171875,402.66668701171875,398,396.66668701171875,396.66668701171875,395.3333435058594,394.66668701171875,394,393.3333435058594,392,390,388.66668701171875,388,386.66668701171875,386,383.3333435058594,383.3333435058594,382.66668701171875,383.3333435058594,384,384,384,384,394.66668701171875,398.66668701171875,400,405.3333435058594,410,414.66668701171875,416.66668701171875,424,428.66668701171875,432,434,437.3333435058594,442,444.66668701171875,446,448.66668701171875,451.3333435058594,452,456,458,460.66668701171875,462,464,468.66668701171875,470,473.3333435058594,478,480,490,497.3333435058594,505.3333435058594,509.3333435058594,516.6666870117188,526,530.6666870117188,533.3333740234375,538.6666870117188,542.6666870117188,561.3333740234375,565.3333740234375,572,574.6666870117188,588.6666870117188,594,603.3333740234375,607.3333740234375,612.6666870117188,620.6666870117188,626.6666870117188,632,648.6666870117188,664.6666870117188,675.3333740234375,678,682.6666870117188,686,686.6666870117188,690.6666870117188,695.3333740234375,699.3333740234375,701.3333740234375,706,708,714],"ymouse":[829.3333740234375,829.3333740234375,829.3333740234375,829.3333740234375,829.3333740234375,829.3333740234375,829.3333740234375,829.3333740234375,829.3333740234375,829.3333740234375,829.3333740234375,829.3333740234375,829.3333740234375,829.3333740234375,829.3333740234375,829.3333740234375,829.3333740234375,829.3333740234375,829.3333740234375,829.3333740234375,829.3333740234375,829.3333740234375,829.3333740234375,830,830,830,830,830,830,830,830,830,830,830,830,830,830,830,830,830,830,830,830,830,830,830,830,830,830,830,830,830,830,830,830,830,830,830,830,830,830,830,830,830,830,830,830,830,830,830,830,830,830,830,830,830,830,830,830,830,830,830,829.3333740234375,829.3333740234375,829.3333740234375,829.3333740234375,829.3333740234375,829.3333740234375,829.3333740234375,828.6666870117188,828.6666870117188,828,828,827.3333740234375,827.3333740234375,827.3333740234375,826.6666870117188,826,826,826,825.3333740234375,824.6666870117188,824.6666870117188,824.6666870117188,824.6666870117188,824,824,823.3333740234375,823.3333740234375,823.3333740234375,822.6666870117188,822.6666870117188,822.6666870117188,822.6666870117188,822,822,822,822,821.3333740234375,821.3333740234375,820.6666870117188,820.6666870117188,820.6666870117188,820,820,820,820,820,820,820,820,820,820,820,820,820,820,820,818.6666870117188,818.6666870117188,818.6666870117188,818.6666870117188,818.6666870117188,818.6666870117188,818.6666870117188,818.6666870117188,818.6666870117188,818.6666870117188,816.6666870117188,816.6666870117188,816.6666870117188,816.6666870117188,816.6666870117188,816.6666870117188,816.6666870117188,816.6666870117188,816.6666870117188,816.6666870117188,817.3333740234375,817.3333740234375,817.3333740234375,817.3333740234375,817.3333740234375,817.3333740234375,817.3333740234375,817.3333740234375,817.3333740234375,817.3333740234375,817.3333740234375,817.3333740234375,817.3333740234375,817.3333740234375,817.3333740234375,817.3333740234375,817.3333740234375,817.3333740234375,817.3333740234375,817.3333740234375,816,816,816,816,816,816,816,816,816,816,814.6666870117188,814.6666870117188,814.6666870117188,814.6666870117188,814.6666870117188,814.6666870117188,814.6666870117188,814.6666870117188,814.6666870117188,814.6666870117188,815.3333740234375,815.3333740234375,815.3333740234375,815.3333740234375,815.3333740234375,815.3333740234375,815.3333740234375,815.3333740234375,815.3333740234375,815.3333740234375,816,816,816,816,816,816,816,816,816,816,817.3333740234375,817.3333740234375,817.3333740234375,817.3333740234375,817.3333740234375,817.3333740234375,817.3333740234375,817.3333740234375,817.3333740234375,817.3333740234375,813.3333740234375,813.3333740234375,813.3333740234375,813.3333740234375,813.3333740234375,813.3333740234375,813.3333740234375,813.3333740234375,813.3333740234375,813.3333740234375,806,806,806,806,806,806,806,806,806,806,800.6666870117188,800.6666870117188,800.6666870117188,800.6666870117188,800.6666870117188,800.6666870117188,800.6666870117188,800.6666870117188,800.6666870117188,800.6666870117188,797.3333740234375,796.6666870117188,796.6666870117188,796.6666870117188,796,796,796,796,794,794,792.6666870117188,791.3333740234375,790,790,788.6666870117188,788,787.3333740234375,787.3333740234375,785.3333740234375,784.6666870117188,784.6666870117188,784.6666870117188,784.6666870117188,778.6666870117188,777.3333740234375,777.3333740234375,777.3333740234375,777.3333740234375,770.6666870117188,769.3333740234375,768,764.6666870117188,762.6666870117188,760,758.6666870117188,756,751.3333740234375,748,746,742.6666870117188,741.3333740234375,734.6666870117188,733.3333740234375,730.6666870117188,728,726.6666870117188,726.6666870117188,726.6666870117188,726.6666870117188,720.6666870117188,718.6666870117188,717.3333740234375,712.6666870117188,708,703.3333740234375,700.6666870117188,693.3333740234375,688.6666870117188,684.6666870117188,682.6666870117188,678.6666870117188,672,667.3333740234375,665.3333740234375,661.3333740234375,656.6666870117188,654.6666870117188,648,643.3333740234375,638,635.3333740234375,629.3333740234375,620,616,609.3333740234375,602,597.3333740234375,582.6666870117188,572.6666870117188,562,556.6666870117188,546.6666870117188,533.3333740234375,525.3333740234375,521.3333740234375,511.3333740234375,504,471.3333435058594,462.66668701171875,449.3333435058594,443.3333435058594,410,401.3333435058594,385.3333435058594,377.3333435058594,364,341.3333435058594,322,308.66668701171875,273.3333435058594,238.6666717529297,205.33334350585938,198,186,177.33334350585938,173.33334350585938,161.33334350585938,141.33334350585938,128.6666717529297,122,107.33333587646484,100,78],"timestamp_mouse":[11,56,67,87,106,126,147,166,187,206,227,247,267,287,307,326,346,366,386,407,427,446,466,486,507,526,546,566,587,607,626,646,667,686,706,727,747,766,786,806,826,846,866,886,907,927,946,966,986,1006,1027,1046,1066,1087,1106,1126,1147,1166,1187,1206,1226,1247,1267,1286,1306,1326,1347,1366,1386,1407,1426,1446,1466,1487,1506,1526,1547,1567,1586,1606,1626,1647,1666,1686,1706,1726,1746,1767,1787,1807,1827,1847,1867,1887,1907,1927,1947,1970,1986,2006,2027,2046,2067,2086,2107,2126,2146,2167,2186,2206,2226,2247,2267,2287,2306,2326,2346,2366,2387,2406,2426,2448,2466,2486,2507,2526,2547,2567,2586,2620,2626,2646,2666,2686,2706,2726,2746,2767,2786,2806,2826,2846,2866,2887,2906,2926,2946,2967,2986,3007,3026,3046,3067,3086,3106,3126,3146,3167,3186,3207,3228,3246,3266,3286,3307,3326,3346,3366,3386,3406,3427,3447,3466,3486,3506,3527,3546,3566,3586,3607,3626,3646,3667,3686,3706,3726,3746,3767,3786,3807,3826,3846,3866,3887,3906,3926,3946,3966,3986,4006,4026,4047,4066,4086,4107,4127,4146,4166,4186,4206,4226,4246,4267,4287,4306,4326,4346,4366,4387,4406,4426,4446,4466,4487,4506,4526,4546,4566,4587,4606,4627,4647,4666,4688,4706,4726,4746,4767,4786,4807,4826,4847,4867,4887,4907,4926,4946,4966,4986,5007,5027,5046,5067,5086,5106,5127,5147,5166,5187,5206,5227,5246,5267,5287,5307,5327,5346,5367,5386,5407,5426,5446,5466,5487,5508,5526,5547,5567,5587,5606,5627,5646,5666,5687,5708,5726,5746,5766,5787,5809,5827,5847,5866,5886,5907,5926,5946,5966,5986,6009,6027,6047,6067,6087,6106,6126,6146,6167,6186,6206,6227,6246,6266,6287,6308,6326,6346,6366,6387,6407,6426,6446,6466,6486,6506,6528,6546,6566,6586,6606,6628,6646,6666,6686,6706,6727,6747,6766,6786,6807,6827,6847,6867,6886,6906,6926,6946,6966,6986,7008,7026,7047,7066,7086,7110,7127,7146,7166,7187,7209,7228,7247,7266,7287,7307,7327,7347,7366,7386,7406,7427],"xSR":350,"ySR":768,"xT1":30,"yT1":0,"xT2":670,"yT2":0,"toosoon":0,"cond_shown":"Incongruent","ratio_trial":100,"L_num":10,"L_den":25,"R_num":8,"R_den":16,"correct_side":2,"subjID":"41wm","gender":"No_gender","school":"No_school","age":"No_age"},{"start_time":1549381288112,"click_time":1549381290831,"finger_time":1549381289872,"fix_duration":1481.5476973317795,"trial":2,"RT":1760,"MT":959,"sideResp":2,"stimulus":[],"xmouse":[394.66668701171875,394.66668701171875,394.66668701171875,394.66668701171875,394.66668701171875,394.66668701171875,394.66668701171875,394.66668701171875,394.66668701171875,394.66668701171875,394.66668701171875,394,394,394,394,394,394,394,394,394,394,394,394,394,394,394,394,394,394,394,394,394,394,394,394,394,394,394,394,394,394,394,394,394,394.66668701171875,394.66668701171875,394.66668701171875,394.66668701171875,394.66668701171875,394.66668701171875,394.66668701171875,394.66668701171875,394.66668701171875,394.66668701171875,394.66668701171875,394.66668701171875,394.66668701171875,394.66668701171875,394.66668701171875,394.66668701171875,394.66668701171875,394.66668701171875,394.66668701171875,394.66668701171875,395.3333435058594,395.3333435058594,395.3333435058594,395.3333435058594,395.3333435058594,395.3333435058594,395.3333435058594,395.3333435058594,395.3333435058594,395.3333435058594,396.66668701171875,397.3333435058594,399.3333435058594,402.66668701171875,404,405.3333435058594,407.3333435058594,409.3333435058594,414.66668701171875,416.66668701171875,420.66668701171875,425.3333435058594,426.66668701171875,431.3333435058594,433.3333435058594,434.66668701171875,436.66668701171875,439.3333435058594,442.66668701171875,445.3333435058594,447.3333435058594,450,452,461.3333435058594,464,470,473.3333435058594,480,490,495.3333435058594,498,502.66668701171875,508,514.6666870117188,516.6666870117188,520.6666870117188,524.6666870117188,526.6666870117188,536.6666870117188,542.6666870117188,549.3333740234375,552.6666870117188,560,570.6666870117188,578.6666870117188,583.3333740234375,593.3333740234375,597.3333740234375,608.6666870117188,613.3333740234375,625.3333740234375,630.6666870117188,642.6666870117188,654,659.3333740234375,660.6666870117188,664,667.3333740234375,673.3333740234375,676,679.3333740234375,682.6666870117188],"ymouse":[820.6666870117188,820.6666870117188,820.6666870117188,820.6666870117188,820.6666870117188,820.6666870117188,820.6666870117188,820,820,820,820,820,819.3333740234375,819.3333740234375,819.3333740234375,819.3333740234375,819.3333740234375,819.3333740234375,819.3333740234375,819.3333740234375,818.6666870117188,818.6666870117188,818.6666870117188,818.6666870117188,818.6666870117188,818.6666870117188,818.6666870117188,818.6666870117188,818.6666870117188,818.6666870117188,818.6666870117188,818.6666870117188,818.6666870117188,818.6666870117188,818.6666870117188,818.6666870117188,818.6666870117188,818.6666870117188,818,818,818,818,818,818,818,818,818,818,818,818,817.3333740234375,817.3333740234375,817.3333740234375,817.3333740234375,817.3333740234375,817.3333740234375,817.3333740234375,817.3333740234375,817.3333740234375,817.3333740234375,817.3333740234375,817.3333740234375,817.3333740234375,817.3333740234375,817.3333740234375,817.3333740234375,817.3333740234375,817.3333740234375,817.3333740234375,817.3333740234375,817.3333740234375,816.6666870117188,816.6666870117188,816,814,813.3333740234375,810,805.3333740234375,802.6666870117188,801.3333740234375,798,794.6666870117188,786.6666870117188,784,777.3333740234375,771.3333740234375,768,760.6666870117188,755.3333740234375,752.6666870117188,747.3333740234375,742.6666870117188,734,728.6666870117188,724.6666870117188,717.3333740234375,712.6666870117188,692.6666870117188,687.3333740234375,676,670.6666870117188,659.3333740234375,641.3333740234375,629.3333740234375,623.3333740234375,612,601.3333740234375,586.6666870117188,582,573.3333740234375,564,558.6666870117188,540.6666870117188,528,514,505.3333740234375,488,460.66668701171875,437.3333435058594,422,389.3333435058594,374.66668701171875,322,308,277.3333435058594,258.66668701171875,225.33334350585938,182,158,150,135.33334350585938,126,112,108,100,95.33333587646484],"timestamp_mouse":[16,41,56,77,96,117,136,156,176,197,216,236,258,276,296,316,336,356,376,397,416,437,456,476,496,517,536,556,577,596,616,636,656,677,697,716,737,757,776,796,816,836,856,876,897,916,936,956,976,997,1016,1036,1057,1077,1097,1117,1136,1156,1176,1197,1216,1236,1256,1276,1297,1317,1337,1356,1376,1397,1417,1437,1457,1477,1497,1517,1536,1559,1579,1596,1616,1637,1659,1676,1696,1716,1736,1760,1777,1796,1816,1836,1857,1876,1896,1916,1936,1956,1977,1996,2017,2036,2057,2077,2096,2116,2136,2157,2178,2196,2216,2236,2258,2277,2296,2316,2336,2358,2376,2396,2416,2436,2459,2476,2497,2516,2537,2559,2576,2597,2617,2637,2659,2678,2697,2718],"xSR":350,"ySR":768,"xT1":30,"yT1":0,"xT2":670,"yT2":0,"toosoon":0,"cond_shown":"Incongruent","ratio_trial":200,"L_num":4,"L_den":6,"R_num":14,"R_den":30,"correct_side":1,"subjID":"41wm","gender":"No_gender","school":"No_school","age":"No_age"},{"start_time":1549381299907,"click_time":1549381302869,"finger_time":1549381302052,"fix_duration":1236.926334104992,"trial":3,"RT":2145,"MT":817,"sideResp":2,"stimulus":[],"xmouse":[398.66668701171875,398.66668701171875,398.66668701171875,398.66668701171875,398.66668701171875,398.66668701171875,398.66668701171875,398.66668701171875,398.66668701171875,398,398,398,398,398,398,398,398,398,398,398,398,398,398,398,398,398,398,398,398,398,398,398,398,398,398.66668701171875,398.66668701171875,398.66668701171875,398.66668701171875,398.66668701171875,398.66668701171875,398.66668701171875,398.66668701171875,398.66668701171875,398.66668701171875,399.3333435058594,399.3333435058594,399.3333435058594,399.3333435058594,399.3333435058594,399.3333435058594,399.3333435058594,399.3333435058594,399.3333435058594,399.3333435058594,400,400,400,400,400,400,400,400,400,400,397.3333435058594,397.3333435058594,397.3333435058594,397.3333435058594,397.3333435058594,397.3333435058594,397.3333435058594,397.3333435058594,397.3333435058594,397.3333435058594,398,398,398,398,398,398,398,398,398,398,398.66668701171875,398.66668701171875,398.66668701171875,398.66668701171875,398.66668701171875,398.66668701171875,398.66668701171875,404.66668701171875,405.3333435058594,406.66668701171875,407.3333435058594,408,409.3333435058594,410,410.66668701171875,411.3333435058594,412,414,417.3333435058594,422,425.3333435058594,434,448,454.66668701171875,468,480,502.66668701171875,510,522.6666870117188,525.3333740234375,535.3333740234375,542.6666870117188,558,574.6666870117188,587.3333740234375,593.3333740234375,602,606.6666870117188,623.3333740234375,626,630.6666870117188,632.6666870117188,640,653.3333740234375,661.3333740234375,666,677.3333740234375,690.6666870117188,698,702.6666870117188,704,705.3333740234375,706.6666870117188,714.6666870117188,716.6666870117188,720,721.3333740234375,723.3333740234375,726.6666870117188,728.6666870117188,729.3333740234375,731.3333740234375,732.6666870117188,735.3333740234375],"ymouse":[825.3333740234375,825.3333740234375,825.3333740234375,825.3333740234375,825.3333740234375,825.3333740234375,825.3333740234375,825.3333740234375,825.3333740234375,826,826,826,826,826,826,826,826,826,826,826.6666870117188,826.6666870117188,826.6666870117188,826.6666870117188,826.6666870117188,826.6666870117188,826.6666870117188,826.6666870117188,826.6666870117188,826.6666870117188,826.6666870117188,826.6666870117188,826.6666870117188,826.6666870117188,826.6666870117188,826.6666870117188,826.6666870117188,826.6666870117188,826.6666870117188,826.6666870117188,826.6666870117188,826.6666870117188,826.6666870117188,826.6666870117188,826.6666870117188,826.6666870117188,826.6666870117188,826.6666870117188,826.6666870117188,826.6666870117188,826.6666870117188,826.6666870117188,826.6666870117188,826.6666870117188,826.6666870117188,827.3333740234375,827.3333740234375,827.3333740234375,827.3333740234375,827.3333740234375,827.3333740234375,827.3333740234375,827.3333740234375,827.3333740234375,827.3333740234375,824.6666870117188,824.6666870117188,824.6666870117188,824.6666870117188,824.6666870117188,824.6666870117188,824.6666870117188,824.6666870117188,824.6666870117188,824.6666870117188,824.6666870117188,824.6666870117188,824.6666870117188,824.6666870117188,824.6666870117188,824.6666870117188,824.6666870117188,824.6666870117188,824.6666870117188,824.6666870117188,822,822,822,822,822,822,822,813.3333740234375,812,810.6666870117188,810,808.6666870117188,806.6666870117188,804.6666870117188,804,800.6666870117188,799.3333740234375,796,790.6666870117188,785.3333740234375,780.6666870117188,770.6666870117188,752.6666870117188,742,720,703.3333740234375,668.6666870117188,654.6666870117188,627.3333740234375,622,604.6666870117188,591.3333740234375,564,525.3333740234375,499.3333740234375,486.66668701171875,462,450.66668701171875,413.3333435058594,404.66668701171875,388.66668701171875,380.66668701171875,361.3333435058594,330,307.3333435058594,295.3333435058594,271.3333435058594,236.6666717529297,218,203.33334350585938,198,189.33334350585938,184.6666717529297,158,153.33334350585938,142.6666717529297,137.33334350585938,130,120,114.66667175292969,112,106.66667175292969,101.33333587646484,94.66667175292969],"timestamp_mouse":[2,48,62,81,101,121,141,162,181,202,222,241,261,282,301,322,341,361,381,402,422,441,462,481,502,521,541,561,581,601,622,641,662,682,702,721,741,761,782,801,821,841,861,882,901,921,944,961,981,1002,1022,1041,1061,1082,1101,1121,1141,1161,1181,1201,1221,1242,1262,1282,1302,1321,1341,1361,1382,1401,1421,1441,1462,1481,1502,1522,1542,1561,1581,1601,1622,1644,1661,1681,1702,1722,1742,1761,1781,1801,1821,1844,1861,1882,1901,1921,1943,1961,1981,2001,2022,2042,2062,2082,2102,2121,2145,2162,2184,2201,2221,2241,2263,2281,2301,2321,2342,2365,2381,2401,2421,2441,2462,2481,2502,2521,2542,2561,2581,2601,2622,2645,2662,2682,2701,2721,2741,2762,2781,2801,2821,2841,2862,2882,2901,2921,2942,2961],"xSR":350,"ySR":768,"xT1":30,"yT1":0,"xT2":670,"yT2":0,"toosoon":0,"cond_shown":"Congruent","ratio_trial":300,"L_num":1,"L_den":3,"R_num":19,"R_den":30,"correct_side":2,"subjID":"41wm","gender":"No_gender","school":"No_school","age":"No_age"},{"start_time":1549381306087,"click_time":1549381314650,"finger_time":1549381311768,"fix_duration":1176.9480272393994,"trial":4,"RT":5681,"MT":2882,"sideResp":2,"stimulus":[],"xmouse":[407.3333435058594,407.3333435058594,408.66668701171875,408.66668701171875,408.66668701171875,408.66668701171875,408.66668701171875,408.66668701171875,408.66668701171875,408.66668701171875,408.66668701171875,408.66668701171875,412,412,412,412,412,412,412,412,412,412,413.3333435058594,413.3333435058594,413.3333435058594,413.3333435058594,413.3333435058594,413.3333435058594,413.3333435058594,413.3333435058594,413.3333435058594,413.3333435058594,414,414,414,414,414,414,414,414,414,414,414.66668701171875,414.66668701171875,414.66668701171875,414.66668701171875,414.66668701171875,414.66668701171875,414.66668701171875,414.66668701171875,414.66668701171875,414.66668701171875,415.3333435058594,415.3333435058594,415.3333435058594,415.3333435058594,415.3333435058594,415.3333435058594,415.3333435058594,415.3333435058594,415.3333435058594,415.3333435058594,415.3333435058594,415.3333435058594,415.3333435058594,416,416,416,416,416,416,416,416,416,416,416,416,416,416,416,416,416,416,416,416,416,416,416,416,416,416,416,416,416,416,416,416,416,416,416,416,416,416,416,416,416,416,416,416,416,416,416,416,416,416,416,416,416,416,416,416.66668701171875,416.66668701171875,416.66668701171875,416.66668701171875,416.66668701171875,416.66668701171875,416.66668701171875,416.66668701171875,416.66668701171875,416.66668701171875,416.66668701171875,416.66668701171875,416.66668701171875,416.66668701171875,416.66668701171875,416.66668701171875,416,416,416,416,416,416,416,416,416,414,414,414,414,414,414,414,414,414,414,412.66668701171875,412.66668701171875,412.66668701171875,412.66668701171875,412.66668701171875,412.66668701171875,412.66668701171875,412.66668701171875,412.66668701171875,412.66668701171875,411.3333435058594,411.3333435058594,411.3333435058594,411.3333435058594,411.3333435058594,411.3333435058594,411.3333435058594,411.3333435058594,411.3333435058594,411.3333435058594,406,406,406,406,406,406,406,406,406,406,406,408.66668701171875,408.66668701171875,408.66668701171875,408.66668701171875,408.66668701171875,408.66668701171875,408.66668701171875,408.66668701171875,408.66668701171875,408.66668701171875,411.3333435058594,411.3333435058594,411.3333435058594,411.3333435058594,411.3333435058594,411.3333435058594,411.3333435058594,411.3333435058594,411.3333435058594,411.3333435058594,406.66668701171875,406.66668701171875,406.66668701171875,406.66668701171875,406.66668701171875,406.66668701171875,406.66668701171875,405.3333435058594,405.3333435058594,405.3333435058594,404,404,403.3333435058594,403.3333435058594,402.66668701171875,402,400.66668701171875,400,399.3333435058594,396.66668701171875,395.3333435058594,394,392.66668701171875,392,390.66668701171875,390.66668701171875,390.66668701171875,390,390,390,390,389.3333435058594,389.3333435058594,388.66668701171875,388,388,388,388,388,388,388,388,388,388,388.66668701171875,388.66668701171875,388.66668701171875,389.3333435058594,389.3333435058594,389.3333435058594,389.3333435058594,389.3333435058594,389.3333435058594,389.3333435058594,389.3333435058594,402,402.66668701171875,403.3333435058594,404.66668701171875,404.66668701171875,404.66668701171875,404.66668701171875,404.66668701171875,408,409.3333435058594,410.66668701171875,412,412.66668701171875,414.66668701171875,416,417.3333435058594,418,418.66668701171875,419.3333435058594,420,420.66668701171875,420.66668701171875,422,422,423.3333435058594,424.66668701171875,424.66668701171875,425.3333435058594,426,426.66668701171875,428.66668701171875,429.3333435058594,430.66668701171875,432,432.66668701171875,435.3333435058594,437.3333435058594,440.66668701171875,442,446.66668701171875,454.66668701171875,459.3333435058594,462,466.66668701171875,468.66668701171875,476,477.3333435058594,479.3333435058594,480.66668701171875,482.66668701171875,485.3333435058594,486.66668701171875,487.3333435058594,489.3333435058594,492,503.3333435058594,507.3333435058594,512.6666870117188,516.6666870117188,518.6666870117188,522.6666870117188,525.3333740234375,528,529.3333740234375,531.3333740234375,535.3333740234375,537.3333740234375,538,540.6666870117188,541.3333740234375,546,548.6666870117188,553.3333740234375,555.3333740234375,560.6666870117188,566.6666870117188,570,570.6666870117188,572.6666870117188,573.3333740234375,573.3333740234375,573.3333740234375,573.3333740234375,573.3333740234375,573.3333740234375,572.6666870117188,572.6666870117188,572,572,572,572,570.6666870117188,570.6666870117188,570.6666870117188,570.6666870117188,570.6666870117188,570.6666870117188,563.3333740234375,563.3333740234375,562.6666870117188,562,561.3333740234375,560.6666870117188,560,560,559.3333740234375,559.3333740234375,558.6666870117188,558.6666870117188,558.6666870117188,558.6666870117188,558.6666870117188,558.6666870117188,558.6666870117188,559.3333740234375,559.3333740234375,560.6666870117188,561.3333740234375,561.3333740234375,561.3333740234375,561.3333740234375,561.3333740234375,561.3333740234375,561.3333740234375,561.3333740234375,567.3333740234375,569.3333740234375,570.6666870117188,571.3333740234375,572.6666870117188,574.6666870117188,575.3333740234375,576,577.3333740234375,578.6666870117188,579.3333740234375,582,583.3333740234375,585.3333740234375,586.6666870117188,588.6666870117188,592.6666870117188,595.3333740234375,597.3333740234375,602,602,608,612.6666870117188,621.3333740234375,621.3333740234375,632,639.3333740234375,642.6666870117188,643.3333740234375,644.6666870117188,644.6666870117188,645.3333740234375,645.3333740234375,647.3333740234375,648.6666870117188,651.3333740234375,658.6666870117188,663.3333740234375,665.3333740234375,668.6666870117188,672,675.3333740234375],"ymouse":[829.3333740234375,829.3333740234375,828,828,828,828,828,828,828,828,828,828,826.6666870117188,826.6666870117188,826.6666870117188,826.6666870117188,826.6666870117188,826.6666870117188,826.6666870117188,826.6666870117188,826.6666870117188,826.6666870117188,826,826,826,826,826,826,826,826,826,826,826.6666870117188,826.6666870117188,826.6666870117188,826.6666870117188,826.6666870117188,826.6666870117188,826.6666870117188,826.6666870117188,826.6666870117188,826.6666870117188,826,826,826,826,826,826,826,826,826,826,826,826,826,826,826,826,826,826,826,826,826,826,826,826,826,826,826,826,826,826,826,826,826,825.3333740234375,825.3333740234375,825.3333740234375,825.3333740234375,825.3333740234375,825.3333740234375,825.3333740234375,825.3333740234375,825.3333740234375,825.3333740234375,825.3333740234375,825.3333740234375,824.6666870117188,824.6666870117188,824.6666870117188,824.6666870117188,824.6666870117188,824.6666870117188,824.6666870117188,824.6666870117188,824.6666870117188,824.6666870117188,824.6666870117188,824.6666870117188,824.6666870117188,824.6666870117188,824.6666870117188,824.6666870117188,824.6666870117188,824.6666870117188,824.6666870117188,824.6666870117188,824.6666870117188,824.6666870117188,824.6666870117188,824.6666870117188,824.6666870117188,824.6666870117188,824.6666870117188,824.6666870117188,824.6666870117188,824.6666870117188,824.6666870117188,824.6666870117188,824.6666870117188,824.6666870117188,824.6666870117188,824.6666870117188,824.6666870117188,824.6666870117188,824.6666870117188,824.6666870117188,824.6666870117188,824.6666870117188,824.6666870117188,824.6666870117188,824.6666870117188,824.6666870117188,824.6666870117188,824.6666870117188,824,824,824,824,824,824,824,824,824,824,824.6666870117188,824.6666870117188,824.6666870117188,824.6666870117188,824.6666870117188,824.6666870117188,824.6666870117188,824.6666870117188,824.6666870117188,824.6666870117188,825.3333740234375,825.3333740234375,825.3333740234375,825.3333740234375,825.3333740234375,825.3333740234375,825.3333740234375,825.3333740234375,825.3333740234375,825.3333740234375,825.3333740234375,825.3333740234375,825.3333740234375,825.3333740234375,825.3333740234375,825.3333740234375,825.3333740234375,825.3333740234375,825.3333740234375,825.3333740234375,823.3333740234375,823.3333740234375,823.3333740234375,823.3333740234375,823.3333740234375,823.3333740234375,823.3333740234375,823.3333740234375,823.3333740234375,823.3333740234375,823.3333740234375,818,818,818,818,818,818,818,818,818,818,821.3333740234375,821.3333740234375,821.3333740234375,821.3333740234375,821.3333740234375,821.3333740234375,821.3333740234375,821.3333740234375,821.3333740234375,821.3333740234375,820,820,820,820,820,820,820,812.6666870117188,811.3333740234375,810.6666870117188,810,810,809.3333740234375,809.3333740234375,808,807.3333740234375,806.6666870117188,806.6666870117188,806,805.3333740234375,804.6666870117188,804,802.6666870117188,802,800.6666870117188,800.6666870117188,800.6666870117188,800.6666870117188,800.6666870117188,800,800,800,800,799.3333740234375,799.3333740234375,799.3333740234375,799.3333740234375,798.6666870117188,798.6666870117188,798.6666870117188,798.6666870117188,798.6666870117188,798.6666870117188,798.6666870117188,798.6666870117188,798,798,798,798,798,798,798,798,798,798,800,800,800,799.3333740234375,799.3333740234375,799.3333740234375,799.3333740234375,799.3333740234375,794.6666870117188,792,788.6666870117188,786,784.6666870117188,782,780,777.3333740234375,776.6666870117188,775.3333740234375,773.3333740234375,772.6666870117188,770.6666870117188,768.6666870117188,767.3333740234375,766,764.6666870117188,763.3333740234375,762.6666870117188,760,758,756.6666870117188,754,753.3333740234375,750.6666870117188,747.3333740234375,746,739.3333740234375,734.6666870117188,728.6666870117188,724.6666870117188,716.6666870117188,702.6666870117188,693.3333740234375,689.3333740234375,681.3333740234375,677.3333740234375,666,664,658.6666870117188,656.6666870117188,652,645.3333740234375,640.6666870117188,638.6666870117188,633.3333740234375,625.3333740234375,605.3333740234375,599.3333740234375,588.6666870117188,580,576,566,560,554,551.3333740234375,546.6666870117188,538.6666870117188,533.3333740234375,531.3333740234375,526.6666870117188,524,510.66668701171875,504.66668701171875,495.3333435058594,490,479.3333435058594,467.3333435058594,462.66668701171875,460,456.66668701171875,454,450,447.3333435058594,446.66668701171875,441.3333435058594,441.3333435058594,440.66668701171875,437.3333435058594,435.3333435058594,434,431.3333435058594,431.3333435058594,427.3333435058594,427.3333435058594,427.3333435058594,427.3333435058594,427.3333435058594,427.3333435058594,412,409.3333435058594,408,404.66668701171875,402,400,398.66668701171875,396.66668701171875,393.3333435058594,391.3333435058594,390.66668701171875,388.66668701171875,388,387.3333435058594,385.3333435058594,384,382.66668701171875,382,380.66668701171875,378.66668701171875,376.66668701171875,376.66668701171875,376.66668701171875,376.66668701171875,376.66668701171875,376.66668701171875,376.66668701171875,376.66668701171875,358.66668701171875,354,350.66668701171875,349.3333435058594,344.66668701171875,338,333.3333435058594,330.66668701171875,326.66668701171875,322,320,312,306.66668701171875,301.3333435058594,298.66668701171875,293.3333435058594,284.66668701171875,278,274,260,260,245.33334350585938,236,222.6666717529297,222.6666717529297,206,194,188.6666717529297,186,182.6666717529297,180,174.6666717529297,172,166.6666717529297,162,153.33334350585938,137.33334350585938,126.66667175292969,121.33334350585938,112.66667175292969,105.33333587646484,97.33333587646484],"timestamp_mouse":[3,43,62,82,101,121,142,161,182,201,222,241,261,281,301,321,342,361,382,401,422,442,461,481,501,522,541,561,581,602,622,642,661,682,701,721,741,761,781,801,821,842,861,881,902,921,941,961,981,1002,1021,1041,1062,1081,1102,1121,1141,1162,1182,1201,1221,1241,1262,1281,1301,1321,1341,1361,1381,1401,1422,1441,1461,1481,1502,1521,1541,1562,1581,1601,1621,1641,1661,1681,1701,1722,1742,1761,1781,1801,1822,1842,1861,1881,1901,1922,1941,1962,1981,2001,2023,2042,2061,2081,2101,2121,2142,2162,2182,2202,2223,2242,2261,2282,2301,2321,2341,2362,2382,2402,2422,2442,2462,2481,2502,2522,2541,2561,2582,2601,2621,2642,2661,2682,2702,2721,2742,2761,2781,2802,2821,2841,2861,2881,2901,2925,2941,2962,2981,3002,3021,3041,3061,3081,3102,3122,3142,3161,3181,3201,3221,3242,3261,3282,3303,3322,3341,3361,3381,3402,3424,3442,3462,3482,3502,3523,3541,3561,3581,3601,3622,3641,3661,3681,3701,3722,3741,3761,3781,3802,3822,3843,3861,3881,3901,3922,3941,3961,3982,4001,4021,4041,4062,4081,4101,4122,4142,4162,4181,4201,4222,4241,4262,4282,4301,4321,4342,4361,4381,4401,4421,4442,4461,4481,4501,4523,4541,4561,4581,4601,4623,4641,4661,4682,4702,4725,4741,4761,4781,4801,4825,4847,4861,4881,4902,4921,4942,4961,4982,5001,5021,5041,5062,5081,5101,5121,5142,5161,5181,5201,5221,5244,5261,5281,5302,5322,5341,5362,5382,5401,5421,5444,5461,5482,5502,5521,5542,5562,5581,5601,5621,5642,5662,5681,5702,5721,5742,5762,5781,5801,5821,5844,5862,5881,5901,5921,5944,5961,5982,6001,6021,6044,6061,6081,6101,6121,6142,6161,6184,6201,6221,6242,6261,6282,6301,6321,6342,6361,6381,6401,6421,6445,6461,6481,6501,6521,6542,6561,6581,6602,6621,6642,6661,6681,6701,6721,6743,6762,6781,6802,6821,6846,6865,6896,6915,6922,6941,6964,6981,7002,7021,7043,7062,7081,7101,7121,7142,7161,7182,7201,7221,7243,7262,7281,7301,7321,7342,7361,7381,7401,7421,7442,7461,7481,7501,7521,7542,7565,7584,7601,7622,7641,7661,7681,7701,7721,7742,7764,7782,7802,7822,7845,7863,7881,7902,7921,7941,7961,7981,8001,8021,8041,8063,8081,8105,8138,8142,8162,8181,8201,8221,8241,8264,8281,8301,8321,8341,8363,8381,8401,8421,8442,8461,8482,8501,8521,8543,8562],"xSR":350,"ySR":768,"xT1":30,"yT1":0,"xT2":670,"yT2":0,"toosoon":0,"cond_shown":"Incongruent","ratio_trial":500,"L_num":7,"L_den":21,"R_num":5,"R_den":6,"correct_side":2,"subjID":"41wm","gender":"No_gender","school":"No_school","age":"No_age"},{"start_time":1549381317558,"click_time":1549381323569,"finger_time":1549381322849,"fix_duration":348.8029146490673,"trial":5,"RT":5291,"MT":720,"sideResp":2,"stimulus":[],"xmouse":[402.66668701171875,402.66668701171875,402.66668701171875,402.66668701171875,402.66668701171875,402.66668701171875,402.66668701171875,402.66668701171875,402.66668701171875,402.66668701171875,402.66668701171875,402.66668701171875,402.66668701171875,404.66668701171875,404.66668701171875,404.66668701171875,404.66668701171875,404.66668701171875,404.66668701171875,404.66668701171875,404.66668701171875,404.66668701171875,404.66668701171875,404.66668701171875,404.66668701171875,404.66668701171875,404.66668701171875,404.66668701171875,404.66668701171875,404.66668701171875,404.66668701171875,404.66668701171875,404.66668701171875,404.66668701171875,404.66668701171875,404.66668701171875,404.66668701171875,404.66668701171875,404.66668701171875,404.66668701171875,404.66668701171875,404.66668701171875,404.66668701171875,405.3333435058594,405.3333435058594,405.3333435058594,405.3333435058594,405.3333435058594,405.3333435058594,405.3333435058594,405.3333435058594,405.3333435058594,405.3333435058594,405.3333435058594,405.3333435058594,405.3333435058594,405.3333435058594,405.3333435058594,405.3333435058594,405.3333435058594,405.3333435058594,405.3333435058594,405.3333435058594,406,406,406,406,406,406,406,406,406,406,406,406,406,406,406,406,406,406,406,406,406,406,406,406,406,406,406,406,406,406,406,406,406,406,406,406,406,406,405.3333435058594,405.3333435058594,405.3333435058594,405.3333435058594,405.3333435058594,405.3333435058594,405.3333435058594,405.3333435058594,405.3333435058594,405.3333435058594,405.3333435058594,405.3333435058594,405.3333435058594,405.3333435058594,405.3333435058594,405.3333435058594,405.3333435058594,405.3333435058594,405.3333435058594,405.3333435058594,405.3333435058594,405.3333435058594,405.3333435058594,405.3333435058594,405.3333435058594,405.3333435058594,405.3333435058594,405.3333435058594,405.3333435058594,405.3333435058594,404.66668701171875,404.66668701171875,404.66668701171875,404.66668701171875,404.66668701171875,404.66668701171875,404.66668701171875,404.66668701171875,404.66668701171875,404.66668701171875,404.66668701171875,404.66668701171875,405.3333435058594,405.3333435058594,405.3333435058594,405.3333435058594,405.3333435058594,405.3333435058594,405.3333435058594,405.3333435058594,405.3333435058594,405.3333435058594,405.3333435058594,405.3333435058594,405.3333435058594,405.3333435058594,405.3333435058594,405.3333435058594,405.3333435058594,405.3333435058594,405.3333435058594,405.3333435058594,405.3333435058594,406,406,406,406,406,406,406,406,406,406,406.66668701171875,406.66668701171875,406.66668701171875,406.66668701171875,406.66668701171875,406.66668701171875,406.66668701171875,407.3333435058594,407.3333435058594,407.3333435058594,407.3333435058594,407.3333435058594,407.3333435058594,408,408,408,408,408,408,408,408,408,408,408,408,408,408,408,408,408,408,408,408,408,408,408,408,408,408.66668701171875,408.66668701171875,408.66668701171875,408.66668701171875,408.66668701171875,408.66668701171875,408.66668701171875,408,408,407.3333435058594,407.3333435058594,407.3333435058594,407.3333435058594,407.3333435058594,407.3333435058594,410,410,410,410,410,410,410,410,410,410,410,410,410,410,410,412.66668701171875,414.66668701171875,417.3333435058594,418.66668701171875,422.66668701171875,425.3333435058594,426.66668701171875,427.3333435058594,429.3333435058594,430.66668701171875,432,432.66668701171875,433.3333435058594,434,435.3333435058594,437.3333435058594,438.66668701171875,439.3333435058594,440.66668701171875,443.3333435058594,446.66668701171875,448.66668701171875,454,465.3333435058594,472.66668701171875,496.66668701171875,508,518.6666870117188,522,530,542,549.3333740234375,553.3333740234375,562.6666870117188,566.6666870117188,584,586.6666870117188,594.6666870117188,598.6666870117188,604,615.3333740234375,624,628.6666870117188,638,647.3333740234375,662.6666870117188,666,674.6666870117188,680,682,687.3333740234375,690.6666870117188,694,695.3333740234375,698.6666870117188,703.3333740234375,706,708,712],"ymouse":[817.3333740234375,817.3333740234375,817.3333740234375,816,816,816,816,816,816,816,816,816,816,814.6666870117188,814.6666870117188,814.6666870117188,814.6666870117188,814.6666870117188,814.6666870117188,814.6666870117188,814.6666870117188,814.6666870117188,814.6666870117188,814,814,814,814,814,814,814,814,814,814,814,814,814,814,814,814,814,814,814,814,814,814,814,814,814,814,814,814,814,814,814,814,814,814,814,814,814,814,814,814,814,814,814,814,814,814,814,814,814,814,813.3333740234375,813.3333740234375,813.3333740234375,813.3333740234375,813.3333740234375,813.3333740234375,813.3333740234375,813.3333740234375,813.3333740234375,813.3333740234375,813.3333740234375,813.3333740234375,813.3333740234375,813.3333740234375,813.3333740234375,813.3333740234375,813.3333740234375,813.3333740234375,813.3333740234375,813.3333740234375,813.3333740234375,813.3333740234375,813.3333740234375,813.3333740234375,813.3333740234375,813.3333740234375,813.3333740234375,813.3333740234375,813.3333740234375,813.3333740234375,813.3333740234375,813.3333740234375,813.3333740234375,813.3333740234375,813.3333740234375,813.3333740234375,813.3333740234375,813.3333740234375,813.3333740234375,813.3333740234375,813.3333740234375,813.3333740234375,813.3333740234375,813.3333740234375,813.3333740234375,813.3333740234375,813.3333740234375,813.3333740234375,813.3333740234375,813.3333740234375,813.3333740234375,813.3333740234375,813.3333740234375,813.3333740234375,813.3333740234375,813.3333740234375,813.3333740234375,813.3333740234375,813.3333740234375,813.3333740234375,813.3333740234375,813.3333740234375,813.3333740234375,813.3333740234375,813.3333740234375,813.3333740234375,813.3333740234375,813.3333740234375,813.3333740234375,813.3333740234375,813.3333740234375,813.3333740234375,813.3333740234375,813.3333740234375,813.3333740234375,813.3333740234375,813.3333740234375,813.3333740234375,813.3333740234375,813.3333740234375,813.3333740234375,812.6666870117188,812.6666870117188,812.6666870117188,812.6666870117188,812.6666870117188,812.6666870117188,812.6666870117188,812.6666870117188,812.6666870117188,812.6666870117188,810.6666870117188,810.6666870117188,810.6666870117188,810.6666870117188,810.6666870117188,810.6666870117188,810.6666870117188,810.6666870117188,810.6666870117188,810.6666870117188,810,810,810,810,810,810,810,808.6666870117188,808.6666870117188,808.6666870117188,808,808,808,807.3333740234375,807.3333740234375,807.3333740234375,807.3333740234375,807.3333740234375,807.3333740234375,807.3333740234375,807.3333740234375,807.3333740234375,807.3333740234375,807.3333740234375,807.3333740234375,807.3333740234375,807.3333740234375,807.3333740234375,807.3333740234375,807.3333740234375,807.3333740234375,807.3333740234375,807.3333740234375,807.3333740234375,806.6666870117188,806.6666870117188,806.6666870117188,806.6666870117188,806.6666870117188,806.6666870117188,806.6666870117188,806.6666870117188,806.6666870117188,806.6666870117188,806.6666870117188,806,806,806,806,806,806,806,806,802,801.3333740234375,800.6666870117188,800.6666870117188,800,800,799.3333740234375,798.6666870117188,798.6666870117188,798,797.3333740234375,797.3333740234375,797.3333740234375,797.3333740234375,797.3333740234375,798,798,797.3333740234375,797.3333740234375,796.6666870117188,796.6666870117188,796.6666870117188,796.6666870117188,796.6666870117188,796,796,796,795.3333740234375,795.3333740234375,794.6666870117188,793.3333740234375,792,791.3333740234375,790,787.3333740234375,784,781.3333740234375,774,756,742.6666870117188,700.6666870117188,676.6666870117188,654,643.3333740234375,622.6666870117188,589.3333740234375,564,551.3333740234375,525.3333740234375,512,456,444,420.66668701171875,408,382.66668701171875,346.66668701171875,322,310,284.66668701171875,257.3333435058594,220.6666717529297,211.33334350585938,190.6666717529297,181.33334350585938,177.33334350585938,160.6666717529297,151.33334350585938,142,137.33334350585938,128,116.66667175292969,108,103.33333587646484,94],"timestamp_mouse":[15,50,50,71,90,111,131,150,170,190,210,231,250,271,290,311,330,350,370,391,411,430,450,471,491,510,530,550,570,591,611,630,650,671,691,711,730,751,770,790,810,830,850,870,891,911,931,950,971,990,1010,1031,1050,1071,1090,1110,1130,1150,1170,1190,1210,1231,1250,1270,1291,1311,1331,1350,1371,1390,1411,1430,1450,1470,1491,1510,1531,1550,1570,1591,1610,1631,1650,1670,1691,1710,1730,1751,1770,1791,1811,1831,1851,1871,1890,1910,1930,1950,1971,1990,2010,2031,2051,2070,2091,2110,2131,2150,2170,2190,2210,2230,2250,2271,2291,2311,2331,2350,2370,2390,2410,2432,2451,2471,2490,2510,2531,2550,2571,2590,2611,2631,2651,2670,2690,2710,2730,2750,2770,2790,2810,2831,2850,2870,2890,2910,2931,2951,2970,2991,3010,3030,3050,3070,3090,3110,3130,3150,3170,3190,3210,3231,3250,3271,3290,3310,3330,3350,3370,3390,3410,3430,3450,3470,3490,3510,3530,3550,3570,3590,3610,3630,3651,3670,3691,3710,3730,3750,3770,3791,3811,3830,3850,3870,3890,3910,3930,3950,3970,3990,4010,4030,4051,4070,4090,4110,4130,4151,4171,4191,4210,4231,4252,4270,4290,4310,4330,4351,4370,4390,4411,4434,4451,4470,4490,4511,4531,4551,4570,4591,4610,4630,4650,4670,4690,4711,4738,4751,4770,4790,4810,4830,4852,4873,4890,4910,4935,4950,4970,4990,5010,5033,5055,5071,5090,5111,5130,5150,5170,5191,5210,5234,5250,5270,5291,5311,5330,5352,5371,5391,5411,5430,5450,5471,5490,5510,5530,5550,5570,5590,5610,5630,5653,5670,5691,5710,5730,5753,5770,5790,5810,5830,5852,5870,5894,5910,5930,5953,5970,5990,6010],"xSR":350,"ySR":768,"xT1":30,"yT1":0,"xT2":670,"yT2":0,"toosoon":0,"cond_shown":"Incongruent","ratio_trial":500,"L_num":2,"L_den":3,"R_num":4,"R_den":24,"correct_side":1,"subjID":"41wm","gender":"No_gender","school":"No_school","age":"No_age"},{"start_time":1549381329687,"click_time":1549381339308,"finger_time":1549381333889,"fix_duration":554.3331971785766,"trial":6,"RT":4202,"MT":5419,"sideResp":2,"stimulus":[],"xmouse":[403.3333435058594,404,404,404,404,404,404,404,404,404,404,404,404,404,404,404,404,404.66668701171875,404.66668701171875,404.66668701171875,404.66668701171875,405.3333435058594,405.3333435058594,405.3333435058594,405.3333435058594,405.3333435058594,405.3333435058594,405.3333435058594,405.3333435058594,405.3333435058594,405.3333435058594,405.3333435058594,405.3333435058594,405.3333435058594,405.3333435058594,405.3333435058594,405.3333435058594,405.3333435058594,405.3333435058594,405.3333435058594,406,406,406,406,406,406,406,406,406,406,406,406,406,406.66668701171875,406.66668701171875,406.66668701171875,406.66668701171875,406.66668701171875,406.66668701171875,406.66668701171875,406.66668701171875,406.66668701171875,406.66668701171875,406.66668701171875,406.66668701171875,406.66668701171875,407.3333435058594,407.3333435058594,407.3333435058594,407.3333435058594,407.3333435058594,407.3333435058594,407.3333435058594,407.3333435058594,407.3333435058594,407.3333435058594,407.3333435058594,407.3333435058594,407.3333435058594,407.3333435058594,407.3333435058594,408,408,408,408,408,408,408,408,408,408.66668701171875,408.66668701171875,408.66668701171875,408.66668701171875,408.66668701171875,408.66668701171875,408.66668701171875,408.66668701171875,408.66668701171875,409.3333435058594,409.3333435058594,409.3333435058594,409.3333435058594,409.3333435058594,409.3333435058594,409.3333435058594,409.3333435058594,409.3333435058594,409.3333435058594,409.3333435058594,410,410,410,410,410,410,410,410,410,410,410,410,410,410,410,410,410.66668701171875,410.66668701171875,410.66668701171875,410.66668701171875,410.66668701171875,410.66668701171875,410.66668701171875,410.66668701171875,411.3333435058594,411.3333435058594,411.3333435058594,411.3333435058594,411.3333435058594,411.3333435058594,411.3333435058594,412,412,412,412,412,412,412,412,412,412,412.66668701171875,412.66668701171875,412.66668701171875,412.66668701171875,412.66668701171875,412.66668701171875,412.66668701171875,412.66668701171875,412.66668701171875,412.66668701171875,413.3333435058594,413.3333435058594,413.3333435058594,414,414,414,414,414,414.66668701171875,414.66668701171875,414.66668701171875,414.66668701171875,414.66668701171875,415.3333435058594,415.3333435058594,415.3333435058594,415.3333435058594,415.3333435058594,414.66668701171875,414.66668701171875,414.66668701171875,414.66668701171875,414.66668701171875,417.3333435058594,418,419.3333435058594,420,421.3333435058594,422,423.3333435058594,425.3333435058594,426.66668701171875,426.66668701171875,427.3333435058594,427.3333435058594,428,428.66668701171875,429.3333435058594,430.66668701171875,431.3333435058594,434,435.3333435058594,436,436.66668701171875,438,438,439.3333435058594,440,440.66668701171875,440.66668701171875,440.66668701171875,441.3333435058594,441.3333435058594,441.3333435058594,442,442.66668701171875,443.3333435058594,443.3333435058594,444,444.66668701171875,444.66668701171875,445.3333435058594,446,446,446,446.66668701171875,447.3333435058594,447.3333435058594,447.3333435058594,448,448,448.66668701171875,449.3333435058594,449.3333435058594,450,450,450.66668701171875,450.66668701171875,451.3333435058594,451.3333435058594,451.3333435058594,452,452,452,452.66668701171875,452.66668701171875,453.3333435058594,453.3333435058594,453.3333435058594,453.3333435058594,454,454,454.66668701171875,454.66668701171875,455.3333435058594,455.3333435058594,456,456,456.66668701171875,456.66668701171875,456.66668701171875,456.66668701171875,456.66668701171875,456,456,456,456,456,456,456,456,440.66668701171875,437.3333435058594,435.3333435058594,434.66668701171875,432.66668701171875,429.3333435058594,426.66668701171875,425.3333435058594,422,418,411.3333435058594,409.3333435058594,406,402,401.3333435058594,398,396,394.66668701171875,394,392.66668701171875,390.66668701171875,390,389.3333435058594,388,387.3333435058594,386.66668701171875,385.3333435058594,385.3333435058594,385.3333435058594,385.3333435058594,385.3333435058594,385.3333435058594,385.3333435058594,385.3333435058594,385.3333435058594,388.66668701171875,388.66668701171875,388.66668701171875,388.66668701171875,388.66668701171875,388.66668701171875,388,388,388,388,388,388,387.3333435058594,387.3333435058594,387.3333435058594,387.3333435058594,387.3333435058594,386.66668701171875,386.66668701171875,386,386,385.3333435058594,385.3333435058594,385.3333435058594,381.3333435058594,378,375.3333435058594,373.3333435058594,368.66668701171875,367.3333435058594,363.3333435058594,360.66668701171875,360,360,360,360,360,360,360.66668701171875,360.66668701171875,360.66668701171875,360.66668701171875,360.66668701171875,360.66668701171875,360.66668701171875,360.66668701171875,360.66668701171875,360.66668701171875,360.66668701171875,370.66668701171875,370.66668701171875,370.66668701171875,370.66668701171875,382,386.66668701171875,389.3333435058594,397.3333435058594,402.66668701171875,408,411.3333435058594,418,421.3333435058594,432.66668701171875,432.66668701171875,432.66668701171875,432.66668701171875,432.66668701171875,432.66668701171875,474,476,477.3333435058594,478.66668701171875,478.66668701171875,478.66668701171875,478.66668701171875,478.66668701171875,478.66668701171875,478.66668701171875,478.66668701171875,478.66668701171875,478.66668701171875,458.66668701171875,449.3333435058594,442.66668701171875,438.66668701171875,432,422.66668701171875,418,415.3333435058594,412,412,412,412,398,395.3333435058594,389.3333435058594,382,380,378.66668701171875,378.66668701171875,380,380,380,380,380,380,380,380,380,393.3333435058594,396,400.66668701171875,404,406.66668701171875,411.3333435058594,414,419.3333435058594,424,424,424,424,439.3333435058594,446.66668701171875,449.3333435058594,454,458.66668701171875,463.3333435058594,464.66668701171875,465.3333435058594,465.3333435058594,465.3333435058594,465.3333435058594,466,466,466.66668701171875,467.3333435058594,468.66668701171875,471.3333435058594,472,476,481.3333435058594,484.66668701171875,499.3333435058594,506.66668701171875,513.3333740234375,516,520.6666870117188,526,530.6666870117188,535.3333740234375,543.3333740234375,547.3333740234375,566,570,578.6666870117188,584.6666870117188,597.3333740234375,612.6666870117188,624.6666870117188,630,642,659.3333740234375,666,668.6666870117188,678,682.6666870117188,689.3333740234375,691.3333740234375,696.6666870117188,701.3333740234375,704,707.3333740234375],"ymouse":[814.6666870117188,814.6666870117188,814.6666870117188,814.6666870117188,814.6666870117188,814.6666870117188,814.6666870117188,814.6666870117188,814.6666870117188,814.6666870117188,814.6666870117188,814.6666870117188,814.6666870117188,814.6666870117188,814.6666870117188,814.6666870117188,814.6666870117188,814.6666870117188,814.6666870117188,815.3333740234375,815.3333740234375,815.3333740234375,815.3333740234375,814.6666870117188,814.6666870117188,814.6666870117188,815.3333740234375,815.3333740234375,815.3333740234375,815.3333740234375,815.3333740234375,815.3333740234375,815.3333740234375,815.3333740234375,815.3333740234375,815.3333740234375,815.3333740234375,815.3333740234375,815.3333740234375,815.3333740234375,815.3333740234375,816,816,816,816,815.3333740234375,816,816,815.3333740234375,815.3333740234375,816,816,816,816,816,816,816,816,815.3333740234375,815.3333740234375,815.3333740234375,816,816,816,816,816,816,815.3333740234375,815.3333740234375,815.3333740234375,815.3333740234375,815.3333740234375,816,815.3333740234375,815.3333740234375,815.3333740234375,815.3333740234375,815.3333740234375,815.3333740234375,815.3333740234375,815.3333740234375,815.3333740234375,815.3333740234375,815.3333740234375,815.3333740234375,814.6666870117188,814.6666870117188,814.6666870117188,814.6666870117188,814.6666870117188,814.6666870117188,814.6666870117188,814.6666870117188,814.6666870117188,814.6666870117188,814.6666870117188,814.6666870117188,814.6666870117188,814.6666870117188,814.6666870117188,814.6666870117188,814.6666870117188,814.6666870117188,814.6666870117188,814.6666870117188,814.6666870117188,814.6666870117188,814.6666870117188,814.6666870117188,814.6666870117188,814.6666870117188,814.6666870117188,814.6666870117188,814.6666870117188,814.6666870117188,814.6666870117188,814.6666870117188,814.6666870117188,814.6666870117188,814.6666870117188,814.6666870117188,814.6666870117188,814.6666870117188,814.6666870117188,814.6666870117188,814.6666870117188,814.6666870117188,814.6666870117188,814.6666870117188,814.6666870117188,814.6666870117188,814.6666870117188,814.6666870117188,814.6666870117188,814.6666870117188,814.6666870117188,814.6666870117188,814.6666870117188,814.6666870117188,814.6666870117188,814.6666870117188,814.6666870117188,814.6666870117188,814.6666870117188,814.6666870117188,814.6666870117188,814.6666870117188,814.6666870117188,814.6666870117188,814.6666870117188,814.6666870117188,814.6666870117188,814.6666870117188,814.6666870117188,814.6666870117188,814.6666870117188,814.6666870117188,814.6666870117188,814.6666870117188,814,814,814,814,813.3333740234375,813.3333740234375,813.3333740234375,813.3333740234375,812.6666870117188,812.6666870117188,812.6666870117188,812.6666870117188,812,812,811.3333740234375,810.6666870117188,810.6666870117188,809.3333740234375,808,808,806.6666870117188,806.6666870117188,806.6666870117188,806.6666870117188,806.6666870117188,803.3333740234375,803.3333740234375,803.3333740234375,802.6666870117188,802.6666870117188,802,801.3333740234375,799.3333740234375,798,797.3333740234375,795.3333740234375,794.6666870117188,788.6666870117188,787.3333740234375,784,780.6666870117188,779.3333740234375,775.3333740234375,773.3333740234375,770.6666870117188,770,769.3333740234375,768.6666870117188,766.6666870117188,766,765.3333740234375,764,763.3333740234375,762,761.3333740234375,760.6666870117188,760,759.3333740234375,758.6666870117188,758.6666870117188,758,757.3333740234375,757.3333740234375,756,756,755.3333740234375,754.6666870117188,754.6666870117188,754,753.3333740234375,752.6666870117188,752.6666870117188,752,751.3333740234375,750.6666870117188,750.6666870117188,750,750,749.3333740234375,748.6666870117188,748.6666870117188,748,747.3333740234375,747.3333740234375,746.6666870117188,746.6666870117188,746,746,745.3333740234375,745.3333740234375,744.6666870117188,744.6666870117188,744,743.3333740234375,743.3333740234375,743.3333740234375,742.6666870117188,742,741.3333740234375,740.6666870117188,740.6666870117188,740.6666870117188,740.6666870117188,740,740,739.3333740234375,740,740,740,740,740,740,740,763.3333740234375,769.3333740234375,773.3333740234375,775.3333740234375,779.3333740234375,787.3333740234375,792.6666870117188,795.3333740234375,800,804.6666870117188,812.6666870117188,815.3333740234375,820,824.6666870117188,826,830,831.3333740234375,832.6666870117188,832.6666870117188,834,834.6666870117188,834.6666870117188,834.6666870117188,834.6666870117188,834,832.6666870117188,830.6666870117188,830.6666870117188,830.6666870117188,830.6666870117188,830.6666870117188,830.6666870117188,830.6666870117188,830.6666870117188,830.6666870117188,811.3333740234375,810.6666870117188,810,810,809.3333740234375,809.3333740234375,808.6666870117188,808.6666870117188,808,808,808,807.3333740234375,807.3333740234375,807.3333740234375,807.3333740234375,807.3333740234375,807.3333740234375,806,806,806,806,804.6666870117188,804.6666870117188,804.6666870117188,801.3333740234375,797.3333740234375,791.3333740234375,788,780,776,768.6666870117188,759.3333740234375,755.3333740234375,753.3333740234375,751.3333740234375,749.3333740234375,748,747.3333740234375,747.3333740234375,746.6666870117188,746.6666870117188,746,746,746,746,746,746,746,746,754.6666870117188,754.6666870117188,754.6666870117188,754.6666870117188,764,766,766.6666870117188,769.3333740234375,770.6666870117188,771.3333740234375,772,772.6666870117188,772.6666870117188,772.6666870117188,772.6666870117188,772.6666870117188,772.6666870117188,772.6666870117188,772.6666870117188,741.3333740234375,738.6666870117188,734,730,728.6666870117188,728,728.6666870117188,730,730,730,730,730,730,771.3333740234375,787.3333740234375,796.6666870117188,801.3333740234375,810,817.3333740234375,817.3333740234375,816.6666870117188,812.6666870117188,812.6666870117188,812.6666870117188,812.6666870117188,789.3333740234375,784.6666870117188,773.3333740234375,757.3333740234375,748.6666870117188,744.6666870117188,739.3333740234375,736,736,736,736,736,736,736,736,736,758.6666870117188,764.6666870117188,773.3333740234375,778.6666870117188,781.3333740234375,785.3333740234375,786.6666870117188,786.6666870117188,783.3333740234375,783.3333740234375,783.3333740234375,783.3333740234375,743.3333740234375,728.6666870117188,723.3333740234375,713.3333740234375,705.3333740234375,698.6666870117188,696,695.3333740234375,694.6666870117188,694,693.3333740234375,692,690.6666870117188,689.3333740234375,688,686,680,677.3333740234375,668.6666870117188,655.3333740234375,646.6666870117188,613.3333740234375,598,584.6666870117188,579.3333740234375,569.3333740234375,556.6666870117188,546.6666870117188,537.3333740234375,518.6666870117188,508.66668701171875,468.66668701171875,460,438.66668701171875,424.66668701171875,390.66668701171875,340.66668701171875,308,292,259.3333435058594,215.33334350585938,194,186,166.6666717529297,152,129.33334350585938,124.66667175292969,116.66667175292969,106,101.33333587646484,94.66667175292969],"timestamp_mouse":[8,43,61,81,102,121,142,163,181,201,222,241,265,282,301,321,341,363,381,402,422,441,462,482,502,521,541,561,581,602,621,641,661,681,702,722,742,762,840,841,862,881,901,921,941,961,981,1001,1021,1041,1064,1081,1102,1121,1142,1162,1181,1202,1221,1242,1262,1282,1302,1322,1341,1362,1382,1402,1422,1441,1461,1481,1502,1521,1541,1561,1581,1601,1621,1642,1662,1682,1701,1721,1741,1762,1781,1801,1822,1842,1863,1881,1901,1921,1942,1962,1981,2001,2021,2041,2061,2081,2102,2121,2142,2162,2181,2201,2221,2242,2265,2281,2301,2321,2342,2361,2382,2402,2421,2442,2464,2484,2501,2522,2541,2562,2582,2602,2622,2641,2661,2681,2702,2721,2741,2762,2782,2801,2821,2841,2862,2881,2901,2921,2942,2961,2982,3002,3022,3041,3062,3081,3102,3121,3142,3161,3182,3201,3221,3242,3262,3281,3302,3321,3341,3362,3382,3402,3421,3445,3461,3481,3502,3521,3542,3561,3582,3601,3622,3641,3662,3684,3701,3721,3742,3762,3784,3801,3821,3841,3861,3884,3902,3921,3941,3961,3984,4002,4021,4041,4061,4085,4103,4121,4141,4162,4181,4202,4223,4242,4261,4281,4303,4322,4341,4361,4382,4401,4421,4441,4462,4481,4503,4521,4541,4563,4582,4602,4621,4641,4661,4681,4701,4721,4741,4761,4781,4801,4824,4846,4861,4881,4902,4921,4941,4961,4982,5004,5021,5041,5062,5082,5103,5121,5141,5161,5182,5201,5221,5241,5261,5281,5301,5321,5342,5361,5381,5402,5421,5441,5461,5481,5502,5521,5541,5561,5582,5603,5621,5641,5662,5681,5702,5722,5741,5762,5782,5804,5822,5841,5861,5881,5904,5921,5942,5961,5981,6001,6023,6041,6061,6081,6103,6121,6141,6161,6181,6205,6222,6243,6261,6281,6301,6325,6342,6361,6382,6401,6422,6441,6462,6481,6501,6521,6541,6562,6581,6601,6623,6641,6662,6681,6704,6722,6741,6761,6781,6802,6821,6841,6861,6882,6901,6921,6941,6962,6981,7001,7021,7041,7062,7081,7102,7125,7142,7161,7181,7202,7221,7241,7261,7281,7301,7324,7341,7361,7381,7401,7421,7442,7461,7481,7502,7521,7541,7561,7581,7602,7623,7642,7662,7682,7701,7721,7741,7761,7781,7802,7823,7841,7862,7882,7901,7922,7941,7962,7981,8001,8021,8041,8062,8081,8102,8122,8142,8161,8181,8201,8221,8242,8261,8281,8301,8322,8341,8362,8381,8402,8425,8441,8461,8481,8501,8521,8542,8561,8581,8601,8624,8642,8661,8681,8701,8724,8744,8761,8781,8801,8821,8841,8861,8882,8901,8922,8942,8961,8981,9001,9021,9042,9061,9081,9101,9121,9142,9161,9181,9201,9222,9244,9262,9281,9301,9322,9342,9361,9381,9401,9424,9441,9461,9482,9501,9524,9542,9562,9582,9601,9621],"xSR":350,"ySR":768,"xT1":30,"yT1":0,"xT2":670,"yT2":0,"toosoon":0,"cond_shown":"Incongruent","ratio_trial":500,"L_num":7,"L_den":8,"R_num":9,"R_den":24,"correct_side":1,"subjID":"41wm","gender":"No_gender","school":"No_school","age":"No_age"},{"start_time":1549381343160,"click_time":1549381345569,"finger_time":1549381344951,"fix_duration":250,"trial":7,"RT":1791,"MT":618,"sideResp":2,"stimulus":[],"xmouse":[396,396,396,396,396,396,396,396,396,396,396.66668701171875,396.66668701171875,396.66668701171875,396.66668701171875,396.66668701171875,396.66668701171875,396.66668701171875,396.66668701171875,396.66668701171875,396.66668701171875,396.66668701171875,396.66668701171875,396.66668701171875,396.66668701171875,396.66668701171875,396.66668701171875,396.66668701171875,396.66668701171875,396.66668701171875,396.66668701171875,396.66668701171875,396.66668701171875,396.66668701171875,396.66668701171875,396.66668701171875,396.66668701171875,396.66668701171875,396.66668701171875,396.66668701171875,396.66668701171875,396.66668701171875,396.66668701171875,396.66668701171875,396.66668701171875,396.66668701171875,396.66668701171875,396.66668701171875,396.66668701171875,396.66668701171875,396.66668701171875,397.3333435058594,397.3333435058594,397.3333435058594,397.3333435058594,397.3333435058594,397.3333435058594,397.3333435058594,397.3333435058594,397.3333435058594,397.3333435058594,398.66668701171875,398.66668701171875,398.66668701171875,398.66668701171875,398.66668701171875,398.66668701171875,398.66668701171875,398.66668701171875,398.66668701171875,398.66668701171875,400.66668701171875,400.66668701171875,400.66668701171875,401.3333435058594,402,402.66668701171875,403.3333435058594,403.3333435058594,404,404.66668701171875,404.66668701171875,405.3333435058594,405.3333435058594,406,407.3333435058594,408.66668701171875,410,410.66668701171875,412.66668701171875,418.66668701171875,429.3333435058594,434.66668701171875,444,448,454.66668701171875,464.66668701171875,476.66668701171875,494,503.3333435058594,522.6666870117188,550,558,574,590,599.3333740234375,628,632.6666870117188,643.3333740234375,649.3333740234375,658,666.6666870117188,672.6666870117188,675.3333740234375,679.3333740234375,685.3333740234375,686,687.3333740234375,689.3333740234375,690,692,694],"ymouse":[814,814,814,814,814,814,814,814,814,814,811.3333740234375,811.3333740234375,811.3333740234375,811.3333740234375,811.3333740234375,811.3333740234375,811.3333740234375,811.3333740234375,811.3333740234375,811.3333740234375,808.6666870117188,808.6666870117188,808.6666870117188,808.6666870117188,808.6666870117188,808.6666870117188,808.6666870117188,808.6666870117188,808.6666870117188,808.6666870117188,807.3333740234375,807.3333740234375,807.3333740234375,807.3333740234375,807.3333740234375,807.3333740234375,807.3333740234375,807.3333740234375,807.3333740234375,807.3333740234375,806,806,806,806,806,806,806,806,806,806,806,806,806,806,806,806,806,806,806,806,806,806,806,806,806,806,806,806,806,806,803.3333740234375,803.3333740234375,803.3333740234375,801.3333740234375,800,799.3333740234375,798.6666870117188,798,798,796.6666870117188,796,794.6666870117188,794,792,788.6666870117188,786.6666870117188,784,783.3333740234375,780,767.3333740234375,748,737.3333740234375,720.6666870117188,714,704,687.3333740234375,669.3333740234375,640,624,590,540,523.3333740234375,490.66668701171875,454.66668701171875,437.3333435058594,369.3333435058594,354.66668701171875,322.66668701171875,308.66668701171875,280.66668701171875,242,219.33334350585938,210,190,162,151.33334350585938,144,128.6666717529297,124,115.33334350585938,99.33333587646484],"timestamp_mouse":[17,47,48,69,88,108,136,148,168,188,208,229,248,268,289,309,328,349,368,388,408,429,448,468,488,508,528,548,568,588,608,629,648,669,688,708,729,749,768,788,809,828,848,868,888,908,929,948,968,988,1008,1028,1048,1068,1089,1108,1128,1148,1168,1188,1208,1229,1249,1269,1288,1308,1328,1349,1368,1388,1412,1428,1448,1468,1491,1508,1528,1549,1568,1591,1608,1628,1649,1668,1691,1708,1728,1748,1769,1791,1813,1834,1849,1868,1888,1913,1928,1949,1968,1988,2010,2028,2048,2068,2088,2112,2128,2149,2168,2189,2208,2228,2248,2268,2291,2310,2328,2348,2369,2388,2409],"xSR":350,"ySR":768,"xT1":30,"yT1":0,"xT2":670,"yT2":0,"toosoon":0,"cond_shown":"Congruent","ratio_trial":300,"L_num":1,"L_den":5,"R_num":11,"R_den":22,"correct_side":2,"subjID":"41wm","gender":"No_gender","school":"No_school","age":"No_age"},{"start_time":1549381347636,"click_time":1549381349848,"finger_time":1549381349268,"fix_duration":626.2520953208348,"trial":8,"RT":1632,"MT":580,"sideResp":2,"stimulus":[],"xmouse":[400,400,400,400,400,400,400,400,400,400,400,400,400,400,400,400,400,400,400,399.3333435058594,399.3333435058594,399.3333435058594,399.3333435058594,399.3333435058594,399.3333435058594,399.3333435058594,399.3333435058594,399.3333435058594,399.3333435058594,399.3333435058594,399.3333435058594,399.3333435058594,399.3333435058594,399.3333435058594,399.3333435058594,399.3333435058594,399.3333435058594,399.3333435058594,399.3333435058594,399.3333435058594,399.3333435058594,399.3333435058594,399.3333435058594,399.3333435058594,399.3333435058594,399.3333435058594,399.3333435058594,399.3333435058594,399.3333435058594,399.3333435058594,399.3333435058594,399.3333435058594,399.3333435058594,399.3333435058594,399.3333435058594,399.3333435058594,399.3333435058594,399.3333435058594,399.3333435058594,399.3333435058594,399.3333435058594,399.3333435058594,399.3333435058594,399.3333435058594,399.3333435058594,399.3333435058594,400,400,400,400,400,400,400,400,400,400,400,400,400,400,420,442,476.66668701171875,486,502,518,524.6666870117188,542.6666870117188,554,568,575.3333740234375,588.6666870117188,607.3333740234375,618,622.6666870117188,630.6666870117188,634.6666870117188,643.3333740234375,655.3333740234375,662.6666870117188,670,674.6666870117188,684.6666870117188,688,692.6666870117188,694.6666870117188,699.3333740234375,701.3333740234375,708.6666870117188,710,712],"ymouse":[819.3333740234375,819.3333740234375,820,820,820.6666870117188,820.6666870117188,820.6666870117188,820.6666870117188,821.3333740234375,821.3333740234375,821.3333740234375,821.3333740234375,822,822,822,822,822,822.6666870117188,822.6666870117188,822.6666870117188,822.6666870117188,822.6666870117188,823.3333740234375,823.3333740234375,823.3333740234375,823.3333740234375,823.3333740234375,824,824,824,824,824,824.6666870117188,824.6666870117188,824.6666870117188,824.6666870117188,824.6666870117188,824.6666870117188,824.6666870117188,824.6666870117188,825.3333740234375,825.3333740234375,825.3333740234375,826,826,826,826,826,826,826,826,826,826.6666870117188,826.6666870117188,826.6666870117188,826.6666870117188,826.6666870117188,826.6666870117188,827.3333740234375,827.3333740234375,827.3333740234375,827.3333740234375,827.3333740234375,828,828,828,828,827.3333740234375,827.3333740234375,827.3333740234375,827.3333740234375,826.6666870117188,826.6666870117188,826.6666870117188,826.6666870117188,826.6666870117188,826.6666870117188,826.6666870117188,826.6666870117188,826.6666870117188,797.3333740234375,766.6666870117188,718.6666870117188,705.3333740234375,677.3333740234375,648.6666870117188,634,591.3333740234375,560.6666870117188,528,510.66668701171875,476.66668701171875,425.3333435058594,392.66668701171875,375.3333435058594,344.66668701171875,329.3333435058594,298.66668701171875,254,227.33334350585938,202,190.6666717529297,162,151.33334350585938,138,133.33334350585938,124.66667175292969,121.33334350585938,104.66667175292969,101.33333587646484,96.66667175292969],"timestamp_mouse":[16,40,52,72,93,112,132,152,175,193,212,232,252,273,292,312,332,352,372,392,413,432,452,472,492,512,533,553,573,593,613,632,653,673,693,712,732,752,772,792,812,832,852,873,893,912,932,952,972,993,1013,1032,1052,1072,1092,1113,1132,1153,1172,1192,1212,1232,1252,1274,1293,1313,1332,1353,1372,1392,1413,1432,1454,1474,1492,1512,1533,1553,1573,1592,1612,1632,1653,1672,1692,1712,1732,1755,1772,1793,1812,1833,1853,1872,1892,1912,1932,1952,1975,1993,2013,2032,2057,2072,2092,2112,2132,2153,2174,2192,2212],"xSR":350,"ySR":768,"xT1":30,"yT1":0,"xT2":670,"yT2":0,"toosoon":0,"cond_shown":"Congruent","ratio_trial":100,"L_num":7,"L_den":14,"R_num":15,"R_den":25,"correct_side":2,"subjID":"41wm","gender":"No_gender","school":"No_school","age":"No_age"},{"start_time":1549381352035,"click_time":1549381356048,"finger_time":1549381354808,"fix_duration":1022.7589091942526,"trial":9,"RT":2773,"MT":1240,"sideResp":2,"stimulus":[],"xmouse":[386.66668701171875,387.3333435058594,387.3333435058594,387.3333435058594,387.3333435058594,387.3333435058594,387.3333435058594,387.3333435058594,387.3333435058594,387.3333435058594,387.3333435058594,387.3333435058594,387.3333435058594,387.3333435058594,387.3333435058594,387.3333435058594,387.3333435058594,387.3333435058594,387.3333435058594,387.3333435058594,387.3333435058594,387.3333435058594,387.3333435058594,387.3333435058594,387.3333435058594,387.3333435058594,387.3333435058594,387.3333435058594,387.3333435058594,387.3333435058594,387.3333435058594,387.3333435058594,387.3333435058594,387.3333435058594,387.3333435058594,387.3333435058594,387.3333435058594,387.3333435058594,387.3333435058594,387.3333435058594,387.3333435058594,388,388,388,388,388,388,388,388,388,388,388,388,388,388,388,388,388,388.66668701171875,388.66668701171875,388.66668701171875,388.66668701171875,388.66668701171875,388.66668701171875,388.66668701171875,388.66668701171875,388.66668701171875,388.66668701171875,388,388,388,388,388,388,388,388,388,388,388,386,386,386,386,386,386,386,386,386,386,388,388,388,388,388,388,388,388,388,388,390.66668701171875,390.66668701171875,390.66668701171875,390.66668701171875,390.66668701171875,390.66668701171875,390.66668701171875,390.66668701171875,390.66668701171875,390.66668701171875,395.3333435058594,395.3333435058594,395.3333435058594,395.3333435058594,395.3333435058594,395.3333435058594,395.3333435058594,395.3333435058594,395.3333435058594,395.3333435058594,396,396,396,396,396,396,396,396,396,396,397.3333435058594,397.3333435058594,397.3333435058594,397.3333435058594,397.3333435058594,397.3333435058594,397.3333435058594,409.3333435058594,416,433.3333435058594,450.66668701171875,476.66668701171875,485.3333435058594,502,519.3333740234375,542.6666870117188,550,564.6666870117188,579.3333740234375,586,602.6666870117188,614,623.3333740234375,626.6666870117188,633.3333740234375,638.6666870117188,647.3333740234375,649.3333740234375,655.3333740234375,658.6666870117188,660.6666870117188,665.3333740234375,668.6666870117188,672,673.3333740234375,676.6666870117188,681.3333740234375,682.6666870117188,684.6666870117188,686,687.3333740234375,687.3333740234375,688,688.6666870117188,689.3333740234375,690,691.3333740234375,692,692.6666870117188,692.6666870117188,694,694.6666870117188,694.6666870117188,696,696.6666870117188,698,698.6666870117188,699.3333740234375,700,700.6666870117188,701.3333740234375,701.3333740234375,702,702.6666870117188,703.3333740234375,704.6666870117188,706,706,706.6666870117188,706.6666870117188,708,710],"ymouse":[805.3333740234375,805.3333740234375,805.3333740234375,805.3333740234375,805.3333740234375,805.3333740234375,805.3333740234375,805.3333740234375,805.3333740234375,805.3333740234375,805.3333740234375,805.3333740234375,805.3333740234375,805.3333740234375,805.3333740234375,805.3333740234375,805.3333740234375,805.3333740234375,805.3333740234375,805.3333740234375,805.3333740234375,805.3333740234375,805.3333740234375,805.3333740234375,805.3333740234375,805.3333740234375,805.3333740234375,805.3333740234375,805.3333740234375,805.3333740234375,805.3333740234375,805.3333740234375,805.3333740234375,805.3333740234375,805.3333740234375,805.3333740234375,805.3333740234375,805.3333740234375,805.3333740234375,805.3333740234375,805.3333740234375,805.3333740234375,805.3333740234375,805.3333740234375,805.3333740234375,805.3333740234375,805.3333740234375,805.3333740234375,805.3333740234375,805.3333740234375,805.3333740234375,805.3333740234375,805.3333740234375,805.3333740234375,805.3333740234375,805.3333740234375,805.3333740234375,805.3333740234375,805.3333740234375,805.3333740234375,805.3333740234375,805.3333740234375,805.3333740234375,805.3333740234375,805.3333740234375,805.3333740234375,805.3333740234375,805.3333740234375,805.3333740234375,805.3333740234375,805.3333740234375,805.3333740234375,805.3333740234375,805.3333740234375,805.3333740234375,805.3333740234375,805.3333740234375,805.3333740234375,805.3333740234375,804,804,804,804,804,804,804,804,804,804,804,804,804,804,804,804,804,804,804,804,802.6666870117188,802.6666870117188,802.6666870117188,802.6666870117188,802.6666870117188,802.6666870117188,802.6666870117188,802.6666870117188,802.6666870117188,802.6666870117188,800.6666870117188,800.6666870117188,800.6666870117188,800.6666870117188,800.6666870117188,800.6666870117188,800.6666870117188,800.6666870117188,800.6666870117188,800.6666870117188,800,800,800,800,800,800,800,800,800,800,800,800,800,800,800,800,800,781.3333740234375,770,742,712,670.6666870117188,656.6666870117188,627.3333740234375,597.3333740234375,553.3333740234375,540,509.3333740234375,478.66668701171875,464.66668701171875,423.3333435058594,398.66668701171875,374,362.66668701171875,343.3333435058594,325.3333435058594,300.66668701171875,295.3333435058594,278.66668701171875,268,262,246.66668701171875,237.33334350585938,228.6666717529297,224.6666717529297,216.6666717529297,204,200,192.6666717529297,186.6666717529297,181.33334350585938,179.33334350585938,176.6666717529297,174,172.6666717529297,170,164.6666717529297,160.6666717529297,159.33334350585938,156.6666717529297,153.33334350585938,151.33334350585938,150,148,145.33334350585938,142,140.6666717529297,138,135.33334350585938,134,130.6666717529297,128.6666717529297,126.66667175292969,126,124.66667175292969,121.33334350585938,118.66667175292969,116.66667175292969,112.66667175292969,110.66667175292969,105.33333587646484,96.66667175292969],"timestamp_mouse":[15,49,53,73,93,113,133,153,173,193,213,234,253,273,293,313,333,353,373,393,413,434,453,473,493,513,533,553,574,593,614,634,653,673,694,713,733,753,774,794,814,833,853,873,893,913,934,954,973,993,1013,1033,1053,1074,1093,1113,1133,1154,1174,1193,1213,1233,1253,1274,1294,1313,1333,1353,1377,1394,1413,1433,1454,1474,1493,1513,1534,1554,1573,1593,1613,1634,1653,1674,1693,1713,1734,1754,1774,1793,1814,1834,1854,1873,1893,1913,1933,1953,1973,1993,2013,2033,2054,2073,2093,2113,2133,2153,2173,2194,2213,2233,2253,2273,2293,2313,2333,2353,2373,2393,2414,2434,2454,2474,2493,2514,2533,2554,2574,2594,2613,2633,2654,2673,2693,2714,2733,2754,2773,2794,2813,2833,2853,2873,2893,2913,2933,2953,2973,2995,3014,3034,3054,3074,3093,3113,3133,3154,3173,3193,3216,3233,3253,3274,3294,3314,3333,3353,3373,3395,3414,3433,3453,3473,3494,3514,3534,3553,3573,3596,3613,3633,3653,3673,3696,3713,3734,3753,3773,3796,3813,3833,3853,3873,3896,3915,3933,3953,3973,3993,4013],"xSR":350,"ySR":768,"xT1":30,"yT1":0,"xT2":670,"yT2":0,"toosoon":0,"cond_shown":"Incongruent","ratio_trial":300,"L_num":13,"L_den":26,"R_num":12,"R_den":15,"correct_side":2,"subjID":"41wm","gender":"No_gender","school":"No_school","age":"No_age"},{"start_time":1549381358110,"click_time":1549381360768,"finger_time":1549381360108,"fix_duration":250,"trial":10,"RT":1998,"MT":660,"sideResp":1,"stimulus":[],"xmouse":[390,390,390,390,390,390,390,392.66668701171875,392.66668701171875,392.66668701171875,392.66668701171875,392.66668701171875,392.66668701171875,392.66668701171875,392.66668701171875,392.66668701171875,392.66668701171875,394,394,394,394,394,394,394,394,394,394,394.66668701171875,394.66668701171875,394.66668701171875,394.66668701171875,394.66668701171875,394.66668701171875,394.66668701171875,394.66668701171875,394.66668701171875,394.66668701171875,394.66668701171875,394.66668701171875,394.66668701171875,394.66668701171875,394.66668701171875,394.66668701171875,394.66668701171875,394.66668701171875,394.66668701171875,394.66668701171875,395.3333435058594,395.3333435058594,395.33334