[{"start_time":1549382229714,"click_time":1549382230506,"finger_time":1549382229716,"fix_duration":1239.8150381671032,"trial":0,"RT":2,"MT":790,"sideResp":2,"stimulus":"img/750/randomdotsizeEA/R/11_Ratio_750_L_12_R_16.png","xmouse":[408.66668701171875,408,408,408,408,408,408,408,408,408,408,408,408,408,408,408,408,420,428,434,454.66668701171875,466,480.66668701171875,487.3333435058594,502.66668701171875,528,545.3333740234375,553.3333740234375,571.3333740234375,579.3333740234375,613.3333740234375,622.6666870117188,637.3333740234375,653.3333740234375,659.3333740234375,669.3333740234375,684.6666870117188,687.3333740234375,694.6666870117188],"ymouse":[762.6666870117188,762.6666870117188,762,762,762,762,762,762,762,762,761.3333740234375,761.3333740234375,761.3333740234375,761.3333740234375,761.3333740234375,761.3333740234375,761.3333740234375,734,714,698.6666870117188,642.6666870117188,604.6666870117188,564.6666870117188,544,504.66668701171875,446,409.3333435058594,393.3333435058594,357.3333435058594,340.66668701171875,273.3333435058594,257.3333435058594,227.33334350585938,196.6666717529297,183.33334350585938,158,122.66667175292969,112.66667175292969,93.33333587646484],"timestamp_mouse":[2,66,73,91,111,131,151,171,191,212,232,252,271,291,311,331,351,372,391,411,433,451,471,491,511,531,551,571,592,611,632,651,671,691,711,731,752,771,791],"xSR":350,"ySR":696,"xT1":30,"yT1":0,"xT2":670,"yT2":0,"toosoon":0,"cond_shown":"randomdotsizeEA","ratio_trial":750,"smaller_num":"12","larger_num":"16","correct_side":2,"subjID":"41wm","gender":"No_gender","age":"No_age","school":"No_school","test":{"fix_dur":[250,1500],"timestim":400,"targets_dim":[100,100],"targets_relative_coord":[0.1,0.9],"size_stim":[880,420],"start_dim":[100,100],"size_start":[300,300],"size_fix":60,"samplingrate":20,"img_types":["equaldotsize","equaldotanddens","randomdotsize","randomdotsizeEA"],"ratios":[250,500,750,900],"rep_conds":7,"nTrials":128,"trials_to_rest":500,"Trials_order":[123,11,85,59,109,9,113,8,111,41,69,74,60,96,105,28,79,125,92,48,95,51,49,42,81,99,98,25,88,33,108,38,36,44,45,101,24,126,43,76,40,110,13,6,70,80,3,27,34,19,4,116,117,78,10,62,94,67,65,39,77,30,66,57,119,17,21,103,58,23,47,20,26,106,82,120,52,112,102,107,18,118,127,83,1,7,115,32,84,31,68,73,122,86,61,54,35,124,50,114,0,71,15,64,87,89,55,12,104,56,100,63,5,91,93,97,53,75,29,14,16,46,121,90,37,72,2,22],"cond_shown":["randomdotsizeEA","randomdotsizeEA","equaldotanddens","randomdotsizeEA","equaldotanddens","equaldotanddens","equaldotanddens","equaldotsize","randomdotsizeEA","equaldotanddens","equaldotanddens","randomdotsize","equaldotsize","equaldotsize","equaldotanddens","equaldotsize","randomdotsizeEA","equaldotanddens","equaldotsize","equaldotsize","randomdotsizeEA","randomdotsizeEA","equaldotanddens","randomdotsize","equaldotanddens","randomdotsizeEA","randomdotsize","equaldotanddens","equaldotsize","equaldotanddens","equaldotsize","randomdotsize","equaldotsize","equaldotsize","equaldotanddens","equaldotanddens","equaldotsize","randomdotsize","randomdotsizeEA","equaldotsize","equaldotsize","randomdotsize","equaldotanddens","randomdotsize","randomdotsize","equaldotsize","randomdotsizeEA","randomdotsizeEA","randomdotsize","randomdotsizeEA","equaldotsize","equaldotsize","equaldotanddens","randomdotsize","randomdotsize","randomdotsize","randomdotsize","randomdotsizeEA","equaldotanddens","randomdotsizeEA","equaldotanddens","randomdotsize","randomdotsize","equaldotanddens","randomdotsizeEA","equaldotanddens","equaldotanddens","randomdotsizeEA","randomdotsize","randomdotsizeEA","randomdotsizeEA","equaldotsize","randomdotsize","randomdotsize","randomdotsize","equaldotsize","equaldotsize","equaldotsize","randomdotsize","randomdotsizeEA","randomdotsize","randomdotsize","randomdotsizeEA","randomdotsizeEA","equaldotanddens","randomdotsizeEA","randomdotsizeEA","equaldotsize","equaldotsize","randomdotsizeEA","equaldotsize","equaldotanddens","randomdotsize","randomdotsize","equaldotanddens","randomdotsize","randomdotsizeEA","equaldotsize","randomdotsize","randomdotsize","equaldotsize","randomdotsizeEA","randomdotsizeEA","equaldotsize","randomdotsizeEA","equaldotanddens","randomdotsizeEA","equaldotsize","equaldotsize","equaldotsize","equaldotsize","randomdotsizeEA","equaldotanddens","randomdotsizeEA","equaldotanddens","equaldotanddens","equaldotanddens","randomdotsizeEA","equaldotanddens","randomdotsize","equaldotsize","randomdotsize","equaldotanddens","randomdotsize","equaldotanddens","equaldotsize","randomdotsize","randomdotsize"],"ratio_trial":[750,750,500,750,900,750,250,750,900,750,500,750,900,250,750,900,900,900,900,250,900,250,250,750,250,250,250,750,750,250,900,500,500,900,900,500,750,900,750,900,750,900,900,500,500,250,250,750,250,250,500,500,500,900,750,900,900,250,250,500,900,900,250,750,500,250,500,500,750,500,900,500,750,750,250,750,500,250,500,750,250,500,900,250,250,500,250,250,500,900,500,750,750,500,900,500,250,900,250,250,250,500,900,250,500,750,500,900,750,750,500,900,500,750,900,250,500,750,900,900,250,900,750,750,500,750,250,500],"smaller_num":["12","15","1","6","18","15","2","12","18","15","2","3","9","3","3","18","18","18","18","4","18","6","3","15","3","1","6","15","12","4","18","9","1","18","18","10","3","9","15","9","15","9","18","3","10","6","3","12","1","2","9","2","9","18","15","18","18","6","5","6","9","9","2","6","2","5","9","5","15","5","18","9","3","6","2","3","1","2","2","3","3","6","9","3","1","2","2","6","9","9","4","3","3","3","18","9","2","9","2","4","4","3","9","4","4","3","9","18","3","9","9","18","3","18","18","6","1","15","18","18","3","18","9","6","6","3","2","1"],"larger_num":["16","20","2","8","20","20","8","16","20","20","4","4","10","12","4","20","20","20","20","16","20","24","12","20","12","4","24","20","16","16","20","18","2","20","20","20","4","10","20","10","20","10","20","6","20","24","12","16","4","8","18","4","18","20","20","20","20","24","20","12","10","10","8","8","4","20","18","10","20","10","20","18","4","8","8","4","2","8","4","4","12","12","10","12","4","4","8","24","18","10","8","4","4","6","20","18","8","10","8","16","16","6","10","16","8","4","18","20","4","12","18","20","6","24","20","24","2","20","20","20","12","20","12","8","12","4","8","2"],"correct_side":[2,2,2,1,1,2,1,2,1,2,2,1,2,2,1,1,1,1,2,2,1,2,1,1,2,2,1,2,2,1,2,2,2,2,2,2,1,1,2,2,2,2,1,2,2,2,2,2,2,2,2,1,1,1,1,1,1,2,2,1,2,2,1,2,1,2,2,1,2,1,1,2,1,2,1,2,2,2,1,1,1,1,2,2,2,2,2,1,1,2,1,2,2,2,2,2,2,2,2,1,2,2,2,1,1,2,1,2,1,2,2,1,2,1,2,2,2,2,1,1,1,2,2,1,1,1,1,2],"img_shown":["img/750/randomdotsizeEA/R/11_Ratio_750_L_12_R_16.png","img/750/randomdotsizeEA/R/5_Ratio_750_L_15_R_20.png","img/500/equaldotanddens/R/12_Ratio_500_L_1_R_2.png","img/750/randomdotsizeEA/L/14_Ratio_750_L_8_R_6.png","img/900/equaldotanddens/L/2_Ratio_900_L_20_R_18.png","img/750/equaldotanddens/R/4_Ratio_750_L_15_R_20.png","img/250/equaldotanddens/L/1_Ratio_250_L_8_R_2.png","img/750/equaldotsize/R/11_Ratio_750_L_12_R_16.png","img/900/randomdotsizeEA/L/8_Ratio_900_L_20_R_18.png","img/750/equaldotanddens/R/5_Ratio_750_L_15_R_20.png","img/500/equaldotanddens/R/9_Ratio_500_L_2_R_4.png","img/750/randomdotsize/L/10_Ratio_750_L_4_R_3.png","img/900/equaldotsize/R/5_Ratio_900_L_9_R_10.png","img/250/equaldotsize/R/11_Ratio_250_L_3_R_12.png","img/750/equaldotanddens/L/8_Ratio_750_L_4_R_3.png","img/900/equaldotsize/L/4_Ratio_900_L_20_R_18.png","img/900/randomdotsizeEA/L/10_Ratio_900_L_20_R_18.png","img/900/equaldotanddens/L/8_Ratio_900_L_20_R_18.png","img/900/equaldotsize/R/13_Ratio_900_L_18_R_20.png","img/250/equaldotsize/R/10_Ratio_250_L_4_R_16.png","img/900/randomdotsizeEA/L/4_Ratio_900_L_20_R_18.png","img/250/randomdotsizeEA/R/6_Ratio_250_L_6_R_24.png","img/250/equaldotanddens/L/15_Ratio_250_L_12_R_3.png","img/750/randomdotsize/L/1_Ratio_750_L_20_R_15.png","img/250/equaldotanddens/R/4_Ratio_250_L_3_R_12.png","img/250/randomdotsizeEA/R/8_Ratio_250_L_1_R_4.png","img/250/randomdotsize/L/5_Ratio_250_L_24_R_6.png","img/750/equaldotanddens/R/4_Ratio_750_L_15_R_20.png","img/750/equaldotsize/R/11_Ratio_750_L_12_R_16.png","img/250/equaldotanddens/L/2_Ratio_250_L_16_R_4.png","img/900/equaldotsize/R/13_Ratio_900_L_18_R_20.png","img/500/randomdotsize/R/1_Ratio_500_L_9_R_18.png","img/500/equaldotsize/R/12_Ratio_500_L_1_R_2.png","img/900/equaldotsize/R/13_Ratio_900_L_18_R_20.png","img/900/equaldotanddens/R/12_Ratio_900_L_18_R_20.png","img/500/equaldotanddens/R/3_Ratio_500_L_10_R_20.png","img/750/equaldotsize/L/10_Ratio_750_L_4_R_3.png","img/900/randomdotsize/L/1_Ratio_900_L_10_R_9.png","img/750/randomdotsizeEA/R/5_Ratio_750_L_15_R_20.png","img/900/equaldotsize/R/6_Ratio_900_L_9_R_10.png","img/750/equaldotsize/R/5_Ratio_750_L_15_R_20.png","img/900/randomdotsize/R/7_Ratio_900_L_9_R_10.png","img/900/equaldotanddens/L/4_Ratio_900_L_20_R_18.png","img/500/randomdotsize/R/2_Ratio_500_L_3_R_6.png","img/500/randomdotsize/R/3_Ratio_500_L_10_R_20.png","img/250/equaldotsize/R/6_Ratio_250_L_6_R_24.png","img/250/randomdotsizeEA/R/4_Ratio_250_L_3_R_12.png","img/750/randomdotsizeEA/R/11_Ratio_750_L_12_R_16.png","img/250/randomdotsize/R/8_Ratio_250_L_1_R_4.png","img/250/randomdotsizeEA/R/13_Ratio_250_L_2_R_8.png","img/500/equaldotsize/R/1_Ratio_500_L_9_R_18.png","img/500/equaldotsize/L/10_Ratio_500_L_4_R_2.png","img/500/equaldotanddens/L/4_Ratio_500_L_18_R_9.png","img/900/randomdotsize/L/4_Ratio_900_L_20_R_18.png","img/750/randomdotsize/L/1_Ratio_750_L_20_R_15.png","img/900/randomdotsize/L/2_Ratio_900_L_20_R_18.png","img/900/randomdotsize/L/2_Ratio_900_L_20_R_18.png","img/250/randomdotsizeEA/R/6_Ratio_250_L_6_R_24.png","img/250/equaldotanddens/R/12_Ratio_250_L_5_R_20.png","img/500/randomdotsizeEA/L/11_Ratio_500_L_12_R_6.png","img/900/equaldotanddens/R/5_Ratio_900_L_9_R_10.png","img/900/randomdotsize/R/5_Ratio_900_L_9_R_10.png","img/250/randomdotsize/L/3_Ratio_250_L_8_R_2.png","img/750/equaldotanddens/R/2_Ratio_750_L_6_R_8.png","img/500/randomdotsizeEA/L/5_Ratio_500_L_4_R_2.png","img/250/equaldotanddens/R/12_Ratio_250_L_5_R_20.png","img/500/equaldotanddens/R/1_Ratio_500_L_9_R_18.png","img/500/randomdotsizeEA/L/7_Ratio_500_L_10_R_5.png","img/750/randomdotsize/R/5_Ratio_750_L_15_R_20.png","img/500/randomdotsizeEA/L/7_Ratio_500_L_10_R_5.png","img/900/randomdotsizeEA/L/8_Ratio_900_L_20_R_18.png","img/500/equaldotsize/R/6_Ratio_500_L_9_R_18.png","img/750/randomdotsize/L/8_Ratio_750_L_4_R_3.png","img/750/randomdotsize/R/2_Ratio_750_L_6_R_8.png","img/250/randomdotsize/L/1_Ratio_250_L_8_R_2.png","img/750/equaldotsize/R/12_Ratio_750_L_3_R_4.png","img/500/equaldotsize/R/15_Ratio_500_L_1_R_2.png","img/250/equaldotsize/R/13_Ratio_250_L_2_R_8.png","img/500/randomdotsize/L/10_Ratio_500_L_4_R_2.png","img/750/randomdotsizeEA/L/9_Ratio_750_L_4_R_3.png","img/250/randomdotsize/L/15_Ratio_250_L_12_R_3.png","img/500/randomdotsize/L/13_Ratio_500_L_12_R_6.png","img/900/randomdotsizeEA/R/15_Ratio_900_L_9_R_10.png","img/250/randomdotsizeEA/R/4_Ratio_250_L_3_R_12.png","img/250/equaldotanddens/R/8_Ratio_250_L_1_R_4.png","img/500/randomdotsizeEA/R/9_Ratio_500_L_2_R_4.png","img/250/randomdotsizeEA/R/13_Ratio_250_L_2_R_8.png","img/250/equaldotsize/L/5_Ratio_250_L_24_R_6.png","img/500/equaldotsize/L/4_Ratio_500_L_18_R_9.png","img/900/randomdotsizeEA/R/5_Ratio_900_L_9_R_10.png","img/500/equaldotsize/L/8_Ratio_500_L_8_R_4.png","img/750/equaldotanddens/R/7_Ratio_750_L_3_R_4.png","img/750/randomdotsize/R/7_Ratio_750_L_3_R_4.png","img/500/randomdotsize/R/2_Ratio_500_L_3_R_6.png","img/900/equaldotanddens/R/14_Ratio_900_L_18_R_20.png","img/500/randomdotsize/R/6_Ratio_500_L_9_R_18.png","img/250/randomdotsizeEA/R/13_Ratio_250_L_2_R_8.png","img/900/equaldotsize/R/7_Ratio_900_L_9_R_10.png","img/250/randomdotsize/R/13_Ratio_250_L_2_R_8.png","img/250/randomdotsize/L/2_Ratio_250_L_16_R_4.png","img/250/equaldotsize/R/10_Ratio_250_L_4_R_16.png","img/500/randomdotsizeEA/R/2_Ratio_500_L_3_R_6.png","img/900/randomdotsizeEA/R/5_Ratio_900_L_9_R_10.png","img/250/equaldotsize/L/2_Ratio_250_L_16_R_4.png","img/500/randomdotsizeEA/L/8_Ratio_500_L_8_R_4.png","img/750/equaldotanddens/R/12_Ratio_750_L_3_R_4.png","img/500/randomdotsizeEA/L/4_Ratio_500_L_18_R_9.png","img/900/equaldotsize/R/14_Ratio_900_L_18_R_20.png","img/750/equaldotsize/L/10_Ratio_750_L_4_R_3.png","img/750/equaldotsize/R/15_Ratio_750_L_9_R_12.png","img/500/equaldotsize/R/1_Ratio_500_L_9_R_18.png","img/900/randomdotsizeEA/L/2_Ratio_900_L_20_R_18.png","img/500/equaldotanddens/R/2_Ratio_500_L_3_R_6.png","img/750/randomdotsizeEA/L/6_Ratio_750_L_24_R_18.png","img/900/equaldotanddens/R/12_Ratio_900_L_18_R_20.png","img/250/equaldotanddens/R/6_Ratio_250_L_6_R_24.png","img/500/equaldotanddens/R/12_Ratio_500_L_1_R_2.png","img/750/randomdotsizeEA/R/5_Ratio_750_L_15_R_20.png","img/900/equaldotanddens/L/4_Ratio_900_L_20_R_18.png","img/900/randomdotsize/L/8_Ratio_900_L_20_R_18.png","img/250/equaldotsize/L/14_Ratio_250_L_12_R_3.png","img/900/randomdotsize/R/12_Ratio_900_L_18_R_20.png","img/750/equaldotanddens/R/15_Ratio_750_L_9_R_12.png","img/750/randomdotsize/L/14_Ratio_750_L_8_R_6.png","img/500/equaldotanddens/L/13_Ratio_500_L_12_R_6.png","img/750/equaldotsize/L/8_Ratio_750_L_4_R_3.png","img/250/randomdotsize/L/3_Ratio_250_L_8_R_2.png","img/500/randomdotsize/R/15_Ratio_500_L_1_R_2.png"],"Rat0":[["12_Ratio_0_L_9_R_0.png","13_Ratio_0_L_6_R_0.png","5_Ratio_0_L_2_R_0.png","6_Ratio_0_L_4_R_0.png","8_Ratio_0_L_6_R_0.png"],["1_Ratio_0_L_0_R_17.png","10_Ratio_0_L_0_R_22.png","11_Ratio_0_L_0_R_1.png","14_Ratio_0_L_0_R_24.png","15_Ratio_0_L_0_R_4.png","2_Ratio_0_L_0_R_5.png","3_Ratio_0_L_0_R_17.png","4_Ratio_0_L_0_R_7.png","7_Ratio_0_L_0_R_19.png","9_Ratio_0_L_0_R_15.png"]],"Rat250":[["1_Ratio_250_L_8_R_2.png","14_Ratio_250_L_12_R_3.png","15_Ratio_250_L_12_R_3.png","2_Ratio_250_L_16_R_4.png","3_Ratio_250_L_8_R_2.png","5_Ratio_250_L_24_R_6.png","7_Ratio_250_L_8_R_2.png"],["10_Ratio_250_L_4_R_16.png","11_Ratio_250_L_3_R_12.png","12_Ratio_250_L_5_R_20.png","13_Ratio_250_L_2_R_8.png","4_Ratio_250_L_3_R_12.png","6_Ratio_250_L_6_R_24.png","8_Ratio_250_L_1_R_4.png","9_Ratio_250_L_3_R_12.png"]],"Rat500":[["10_Ratio_500_L_4_R_2.png","11_Ratio_500_L_12_R_6.png","13_Ratio_500_L_12_R_6.png","4_Ratio_500_L_18_R_9.png","5_Ratio_500_L_4_R_2.png","7_Ratio_500_L_10_R_5.png","8_Ratio_500_L_8_R_4.png"],["1_Ratio_500_L_9_R_18.png","12_Ratio_500_L_1_R_2.png","14_Ratio_500_L_5_R_10.png","15_Ratio_500_L_1_R_2.png","2_Ratio_500_L_3_R_6.png","3_Ratio_500_L_10_R_20.png","6_Ratio_500_L_9_R_18.png","9_Ratio_500_L_2_R_4.png"]],"Rat750":[["1_Ratio_750_L_20_R_15.png","10_Ratio_750_L_4_R_3.png","13_Ratio_750_L_8_R_6.png","14_Ratio_750_L_8_R_6.png","6_Ratio_750_L_24_R_18.png","8_Ratio_750_L_4_R_3.png","9_Ratio_750_L_4_R_3.png"],["11_Ratio_750_L_12_R_16.png","12_Ratio_750_L_3_R_4.png","15_Ratio_750_L_9_R_12.png","2_Ratio_750_L_6_R_8.png","3_Ratio_750_L_15_R_20.png","4_Ratio_750_L_15_R_20.png","5_Ratio_750_L_15_R_20.png","7_Ratio_750_L_3_R_4.png"]],"Rat900":[["1_Ratio_900_L_10_R_9.png","10_Ratio_900_L_20_R_18.png","2_Ratio_900_L_20_R_18.png","4_Ratio_900_L_20_R_18.png","8_Ratio_900_L_20_R_18.png"],["11_Ratio_900_L_18_R_20.png","12_Ratio_900_L_18_R_20.png","13_Ratio_900_L_18_R_20.png","14_Ratio_900_L_18_R_20.png","15_Ratio_900_L_9_R_10.png","3_Ratio_900_L_9_R_10.png","5_Ratio_900_L_9_R_10.png","6_Ratio_900_L_9_R_10.png","7_Ratio_900_L_9_R_10.png","9_Ratio_900_L_18_R_20.png"]],"Rat1000":[["10_Ratio_1000_L_16_R_16.png","11_Ratio_1000_L_6_R_6.png","12_Ratio_1000_L_14_R_14.png","13_Ratio_1000_L_20_R_20.png","15_Ratio_1000_L_15_R_15.png","2_Ratio_1000_L_17_R_17.png","4_Ratio_1000_L_9_R_9.png","5_Ratio_1000_L_6_R_6.png","6_Ratio_1000_L_19_R_19.png","8_Ratio_1000_L_14_R_14.png","9_Ratio_1000_L_25_R_25.png"],["1_Ratio_1000_L_1_R_1.png","14_Ratio_1000_L_17_R_17.png","3_Ratio_1000_L_17_R_17.png","7_Ratio_1000_L_6_R_6.png"]]}},{"start_time":1549382234003,"click_time":1549382235589,"finger_time":1549382235305,"fix_duration":1014.6843668684119,"trial":1,"RT":1302,"MT":284,"sideResp":2,"stimulus":"img/750/randomdotsizeEA/R/5_Ratio_750_L_15_R_20.png","xmouse":[420,420,420,420,420,420,420,420,420,420,420,420,420,420,420,420,420,420.66668701171875,420.66668701171875,420.66668701171875,420.66668701171875,420.66668701171875,420.66668701171875,420.66668701171875,420.66668701171875,420.66668701171875,420.66668701171875,422.66668701171875,422.66668701171875,422.66668701171875,422.66668701171875,422.66668701171875,422.66668701171875,422.66668701171875,422.66668701171875,422.66668701171875,422.66668701171875,422.66668701171875,422.66668701171875,422.66668701171875,422.66668701171875,422.66668701171875,422.66668701171875,422.66668701171875,422.66668701171875,422.66668701171875,422.66668701171875,423.3333435058594,423.3333435058594,423.3333435058594,423.3333435058594,423.3333435058594,423.3333435058594,423.3333435058594,423.3333435058594,423.3333435058594,423.3333435058594,425.3333435058594,425.3333435058594,425.3333435058594,426,426,426,426.66668701171875,432.66668701171875,457.3333435058594,476,519.3333740234375,563.3333740234375,622.6666870117188,656,668,687.3333740234375,694,704,712.6666870117188,717.3333740234375,721.3333740234375,730,742.6666870117188],"ymouse":[800,800,800,800,800,800,800,798,798,798,798,798,798,798,798,798,798,798,798,798,798,798,798,798,798,798,798,798,798,798,798,798,798,798,798,798,798,798,798,798,798,798,798,798,798,798,798,797.3333740234375,797.3333740234375,797.3333740234375,797.3333740234375,797.3333740234375,797.3333740234375,797.3333740234375,797.3333740234375,797.3333740234375,797.3333740234375,790.6666870117188,790.6666870117188,790.6666870117188,788,787.3333740234375,786,784,768.6666870117188,732,702.6666870117188,630,550.6666870117188,440.66668701171875,381.3333435058594,355.3333435058594,310.66668701171875,290.66668701171875,254.66668701171875,203.33334350585938,169.33334350585938,152.6666717529297,120.66667175292969,82],"timestamp_mouse":[2,42,42,62,82,103,122,142,162,182,202,223,243,262,282,302,322,343,363,382,402,423,442,462,482,502,522,542,562,582,602,622,642,662,682,702,723,742,762,782,802,823,842,864,882,902,922,943,962,982,1002,1022,1042,1065,1082,1103,1122,1142,1162,1183,1203,1222,1242,1262,1284,1302,1323,1342,1362,1383,1403,1423,1442,1462,1482,1506,1522,1542,1563,1585],"xSR":350,"ySR":768,"xT1":30,"yT1":0,"xT2":670,"yT2":0,"toosoon":0,"cond_shown":"randomdotsizeEA","ratio_trial":750,"smaller_num":"15","larger_num":"20","correct_side":2,"subjID":"41wm","gender":"No_gender","age":"No_age","school":"No_school"},{"start_time":1549382237428,"click_time":1549382239286,"finger_time":1549382238865,"fix_duration":605.7078011044027,"trial":2,"RT":1437,"MT":421,"sideResp":2,"stimulus":"img/500/equaldotanddens/R/12_Ratio_500_L_1_R_2.png","xmouse":[430.66668701171875,430.66668701171875,430.66668701171875,430.66668701171875,430.66668701171875,430.66668701171875,430.66668701171875,430.66668701171875,430.66668701171875,430.66668701171875,430,430,430,430,430,430,430,430,430,430,430.66668701171875,430.66668701171875,430.66668701171875,430.66668701171875,430.66668701171875,430.66668701171875,430.66668701171875,430.66668701171875,430.66668701171875,430.66668701171875,432,432,432,432,432,432,432,432,432,432,432,432,432,432,432,432,432,432,432,410.66668701171875,406.66668701171875,404.66668701171875,404.66668701171875,404,404.66668701171875,404.66668701171875,405.3333435058594,405.3333435058594,405.3333435058594,405.3333435058594,405.3333435058594,405.3333435058594,405.3333435058594,405.3333435058594,405.3333435058594,405.3333435058594,411.3333435058594,411.3333435058594,411.3333435058594,415.3333435058594,418.66668701171875,422.66668701171875,442.66668701171875,480.66668701171875,554.6666870117188,580,623.3333740234375,659.3333740234375,675.3333740234375,711.3333740234375,730,746.6666870117188,753.3333740234375,764.6666870117188,772,774,774,773.3333740234375,772.6666870117188,772.6666870117188,772.6666870117188,772.6666870117188,772.6666870117188,764.6666870117188],"ymouse":[833.3333740234375,833.3333740234375,833.3333740234375,833.3333740234375,833.3333740234375,833.3333740234375,833.3333740234375,833.3333740234375,833.3333740234375,833.3333740234375,833.3333740234375,833.3333740234375,833.3333740234375,833.3333740234375,833.3333740234375,833.3333740234375,833.3333740234375,833.3333740234375,833.3333740234375,833.3333740234375,834,834,834,834,834,834,834,834,834,834,832.6666870117188,832,832,832,832,832,832,832,832,832,831.3333740234375,831.3333740234375,831.3333740234375,831.3333740234375,831.3333740234375,831.3333740234375,831.3333740234375,831.3333740234375,831.3333740234375,814.6666870117188,808.6666870117188,806.6666870117188,806,805.3333740234375,806,806,806,806,806,806,806,806,806,806,806,806,805.3333740234375,805.3333740234375,805.3333740234375,803.3333740234375,798.6666870117188,790.6666870117188,750.6666870117188,678,546,506.66668701171875,434,374.66668701171875,349.3333435058594,279.3333435058594,235.33334350585938,190,169.33334350585938,132.6666717529297,102.66667175292969,75.33333587646484,69.33333587646484,62,55.333335876464844,55.333335876464844,55.333335876464844,55.333335876464844,55.333335876464844,45.333335876464844],"timestamp_mouse":[5,22,37,58,77,97,117,137,158,177,197,218,238,257,277,297,317,337,357,377,398,417,438,457,478,497,517,537,557,578,597,617,637,657,677,698,717,737,757,777,798,818,837,857,878,899,917,938,957,977,997,1017,1037,1058,1078,1097,1118,1137,1158,1177,1198,1217,1237,1257,1280,1299,1317,1337,1357,1379,1397,1417,1437,1458,1479,1500,1517,1537,1557,1580,1599,1617,1638,1657,1677,1698,1717,1738,1757,1777,1800,1818,1837,1857],"xSR":350,"ySR":768,"xT1":30,"yT1":0,"xT2":670,"yT2":0,"toosoon":0,"cond_shown":"equaldotanddens","ratio_trial":500,"smaller_num":"1","larger_num":"2","correct_side":2,"subjID":"41wm","gender":"No_gender","age":"No_age","school":"No_school"},{"start_time":1549382240643,"click_time":1549382242966,"finger_time":1549382242229,"fix_duration":412.990012810164,"trial":3,"RT":1586,"MT":737,"sideResp":1,"stimulus":"img/750/randomdotsizeEA/L/14_Ratio_750_L_8_R_6.png","xmouse":[413.3333435058594,413.3333435058594,413.3333435058594,413.3333435058594,413.3333435058594,413.3333435058594,413.3333435058594,413.3333435058594,413.3333435058594,413.3333435058594,413.3333435058594,413.3333435058594,413.3333435058594,413.3333435058594,413.3333435058594,413.3333435058594,413.3333435058594,413.3333435058594,413.3333435058594,412.66668701171875,412.66668701171875,412.66668701171875,412.66668701171875,412.66668701171875,412.66668701171875,412.66668701171875,412.66668701171875,412.66668701171875,412.66668701171875,412.66668701171875,412.66668701171875,412.66668701171875,412.66668701171875,412.66668701171875,412.66668701171875,412.66668701171875,412.66668701171875,412.66668701171875,412.66668701171875,412.66668701171875,412.66668701171875,412.66668701171875,412.66668701171875,412.66668701171875,412.66668701171875,412.66668701171875,412.66668701171875,412.66668701171875,412.66668701171875,412,412,412,412,412,412,412,412,402,400.66668701171875,400,400,400,400,400,399.3333435058594,399.3333435058594,398.66668701171875,398.66668701171875,398,396,394,393.3333435058594,391.3333435058594,390.66668701171875,386.66668701171875,385.3333435058594,383.3333435058594,382.66668701171875,382,381.3333435058594,381.3333435058594,381.3333435058594,381.3333435058594,381.3333435058594,382,382,382,382,382,381.3333435058594,381.3333435058594,381.3333435058594,381.3333435058594,380.66668701171875,380,379.3333435058594,379.3333435058594,379.3333435058594,379.3333435058594,377.3333435058594,375.3333435058594,368.66668701171875,356,349.3333435058594,334.66668701171875,306,282.66668701171875,270.66668701171875,248.66668701171875,228,202.6666717529297,194,178,162,153.33334350585938,122,116.66667175292969],"ymouse":[835.3333740234375,835.3333740234375,835.3333740234375,835.3333740234375,835.3333740234375,835.3333740234375,835.3333740234375,835.3333740234375,835.3333740234375,837.3333740234375,837.3333740234375,837.3333740234375,837.3333740234375,837.3333740234375,837.3333740234375,837.3333740234375,837.3333740234375,837.3333740234375,837.3333740234375,837.3333740234375,837.3333740234375,837.3333740234375,837.3333740234375,837.3333740234375,837.3333740234375,837.3333740234375,837.3333740234375,837.3333740234375,837.3333740234375,837.3333740234375,837.3333740234375,837.3333740234375,837.3333740234375,837.3333740234375,837.3333740234375,837.3333740234375,837.3333740234375,837.3333740234375,837.3333740234375,836.6666870117188,836.6666870117188,836.6666870117188,836.6666870117188,836.6666870117188,836.6666870117188,836.6666870117188,836.6666870117188,836.6666870117188,836.6666870117188,835.3333740234375,835.3333740234375,835.3333740234375,835.3333740234375,835.3333740234375,835.3333740234375,835.3333740234375,835.3333740234375,820.6666870117188,820,819.3333740234375,819.3333740234375,818.6666870117188,818.6666870117188,818.6666870117188,818,817.3333740234375,816.6666870117188,816,814,809.3333740234375,806,804.6666870117188,800,798,786,782.6666870117188,776.6666870117188,772,770,766,764.6666870117188,764,763.3333740234375,763.3333740234375,762.6666870117188,762,762,762,762,761.3333740234375,761.3333740234375,761.3333740234375,761.3333740234375,760.6666870117188,760,759.3333740234375,759.3333740234375,758.6666870117188,758,752,745.3333740234375,720,680.6666870117188,658.6666870117188,608,523.3333740234375,474,449.3333435058594,401.3333435058594,354,283.3333435058594,260.66668701171875,218,177.33334350585938,160,107.33333587646484,99.33333587646484],"timestamp_mouse":[11,32,42,63,82,103,123,142,162,183,203,223,243,263,282,302,323,342,362,383,403,423,442,462,482,502,523,542,562,582,602,622,642,662,682,702,722,742,763,782,802,822,842,862,883,902,922,943,962,982,1002,1023,1043,1062,1082,1103,1122,1142,1162,1183,1202,1222,1242,1263,1285,1302,1322,1342,1362,1385,1402,1423,1442,1462,1485,1503,1522,1542,1562,1586,1605,1628,1642,1662,1682,1702,1722,1742,1762,1782,1803,1822,1843,1863,1882,1902,1923,1942,1962,1984,2005,2024,2042,2062,2082,2105,2123,2142,2162,2182,2204,2222,2242,2262,2282,2306,2323],"xSR":350,"ySR":768,"xT1":30,"yT1":0,"xT2":670,"yT2":0,"toosoon":0,"cond_shown":"randomdotsizeEA","ratio_trial":750,"smaller_num":"6","larger_num":"8","correct_side":1,"subjID":"41wm","gender":"No_gender","age":"No_age","school":"No_school"},{"start_time":1549382245183,"click_time":1549382248867,"finger_time":1549382248505,"fix_duration":1095.6691732031484,"trial":4,"RT":3322,"MT":362,"sideResp":1,"stimulus":"img/900/equaldotanddens/L/2_Ratio_900_L_20_R_18.png","xmouse":[426,426,426,426,426,426,426,426,426,425.3333435058594,425.3333435058594,425.3333435058594,425.3333435058594,425.3333435058594,425.3333435058594,425.3333435058594,425.3333435058594,425.3333435058594,425.3333435058594,425.3333435058594,425.3333435058594,425.3333435058594,425.3333435058594,425.3333435058594,425.3333435058594,425.3333435058594,425.3333435058594,425.3333435058594,425.3333435058594,425.3333435058594,425.3333435058594,425.3333435058594,425.3333435058594,425.3333435058594,425.3333435058594,425.3333435058594,425.3333435058594,425.3333435058594,425.3333435058594,425.3333435058594,425.3333435058594,425.3333435058594,425.3333435058594,426,426,426,426,426,426,426,426,426,426,426,426,426,426,425.3333435058594,425.3333435058594,425.3333435058594,425.3333435058594,424,424,424,424,423.3333435058594,423.3333435058594,423.3333435058594,423.3333435058594,423.3333435058594,423.3333435058594,423.3333435058594,423.3333435058594,420.66668701171875,420,420,420,418.66668701171875,418.66668701171875,418.66668701171875,418.66668701171875,418.66668701171875,418.66668701171875,418.66668701171875,418.66668701171875,418.66668701171875,418.66668701171875,423.3333435058594,423.3333435058594,423.3333435058594,423.3333435058594,423.3333435058594,423.3333435058594,423.3333435058594,423.3333435058594,423.3333435058594,423.3333435058594,423.3333435058594,423.3333435058594,423.3333435058594,422,422,422.66668701171875,422.66668701171875,422.66668701171875,422.66668701171875,422.66668701171875,424.66668701171875,424.66668701171875,424.66668701171875,424.66668701171875,424.66668701171875,424.66668701171875,424.66668701171875,424.66668701171875,424.66668701171875,421.3333435058594,420.66668701171875,420.66668701171875,420.66668701171875,420.66668701171875,420.66668701171875,420.66668701171875,420.66668701171875,420.66668701171875,420.66668701171875,420.66668701171875,424.66668701171875,424.66668701171875,424.66668701171875,424.66668701171875,424.66668701171875,424.66668701171875,424.66668701171875,424.66668701171875,424.66668701171875,424.66668701171875,408,406.66668701171875,404.66668701171875,404,404,404,404.66668701171875,404.66668701171875,404.66668701171875,404.66668701171875,405.3333435058594,406,406,406,406,406,406,406,406,406,406,406,410.66668701171875,410.66668701171875,410.66668701171875,409.3333435058594,409.3333435058594,409.3333435058594,393.3333435058594,382.66668701171875,377.3333435058594,364,341.3333435058594,323.3333435058594,315.3333435058594,297.3333435058594,290,250,240,220.6666717529297,210,176,168.6666717529297,153.33334350585938,148.6666717529297,136.6666717529297,128],"ymouse":[830,830,830,830,830,830,830,830,830,830,830,830,830,830,830,830,830,830,830,830,830,830,830,830,830,830,830,830,830,830,830,830,830,829.3333740234375,829.3333740234375,829.3333740234375,829.3333740234375,829.3333740234375,829.3333740234375,829.3333740234375,829.3333740234375,829.3333740234375,829.3333740234375,829.3333740234375,829.3333740234375,829.3333740234375,829.3333740234375,829.3333740234375,829.3333740234375,829.3333740234375,829.3333740234375,829.3333740234375,829.3333740234375,829.3333740234375,829.3333740234375,829.3333740234375,829.3333740234375,829.3333740234375,829.3333740234375,829.3333740234375,829.3333740234375,830,830,830,830,829.3333740234375,829.3333740234375,830,830,830,830,830,830,829.3333740234375,828.6666870117188,828.6666870117188,828.6666870117188,826.6666870117188,826.6666870117188,826.6666870117188,826.6666870117188,826.6666870117188,826.6666870117188,826.6666870117188,826.6666870117188,826.6666870117188,826.6666870117188,824.6666870117188,824.6666870117188,824.6666870117188,824.6666870117188,824.6666870117188,824.6666870117188,824.6666870117188,824.6666870117188,824.6666870117188,824.6666870117188,824,824,824,822,822,821.3333740234375,821.3333740234375,821.3333740234375,821.3333740234375,821.3333740234375,822,822,822,822,822,822,822,822,822,820.6666870117188,820.6666870117188,820.6666870117188,820.6666870117188,820.6666870117188,820.6666870117188,820.6666870117188,820.6666870117188,820.6666870117188,820.6666870117188,820.6666870117188,829.3333740234375,829.3333740234375,829.3333740234375,829.3333740234375,829.3333740234375,829.3333740234375,829.3333740234375,829.3333740234375,829.3333740234375,829.3333740234375,820,818,816,815.3333740234375,815.3333740234375,815.3333740234375,815.3333740234375,815.3333740234375,815.3333740234375,815.3333740234375,814,813.3333740234375,813.3333740234375,813.3333740234375,813.3333740234375,813.3333740234375,813.3333740234375,813.3333740234375,813.3333740234375,813.3333740234375,813.3333740234375,813.3333740234375,803.3333740234375,801.3333740234375,801.3333740234375,790,790,790,709.3333740234375,680.6666870117188,667.3333740234375,634.6666870117188,576.6666870117188,531.3333740234375,506,456.66668701171875,433.3333435058594,334.66668701171875,312,269.3333435058594,248,168.6666717529297,150,116,100,72,48],"timestamp_mouse":[10,40,42,62,82,102,122,142,163,182,202,222,242,262,283,302,323,342,367,408,423,442,462,482,502,522,542,562,582,602,622,642,662,682,702,723,743,762,783,802,823,842,862,882,903,922,942,962,982,1002,1031,1042,1062,1082,1102,1122,1142,1162,1182,1202,1222,1242,1263,1282,1302,1322,1342,1362,1383,1403,1422,1443,1463,1483,1504,1522,1543,1563,1582,1602,1622,1642,1662,1682,1702,1722,1742,1763,1782,1802,1822,1842,1862,1883,1904,1922,1942,1962,1982,2002,2022,2042,2062,2084,2104,2123,2142,2162,2182,2202,2222,2242,2262,2282,2302,2323,2342,2362,2382,2402,2422,2442,2462,2482,2504,2522,2542,2562,2583,2602,2622,2642,2662,2682,2702,2722,2742,2762,2782,2802,2822,2842,2862,2885,2902,2922,2943,2962,2988,3002,3022,3043,3062,3083,3103,3123,3143,3162,3182,3203,3222,3242,3263,3282,3305,3322,3342,3362,3382,3402,3422,3442,3462,3482,3503,3523,3542,3563,3585,3605,3622,3643,3662,3683],"xSR":350,"ySR":768,"xT1":30,"yT1":0,"xT2":670,"yT2":0,"toosoon":0,"cond_shown":"equaldotanddens","ratio_trial":900,"smaller_num":"18","larger_num":"20","correct_side":1,"subjID":"41wm","gender":"No_gender","age":"No_age","school":"No_school"},{"start_time":1549382253840,"click_time":1549382255366,"finger_time":1549382255105,"fix_duration":1293.7854431830383,"trial":5,"RT":1265,"MT":261,"sideResp":2,"stimulus":"img/750/equaldotanddens/R/4_Ratio_750_L_15_R_20.png","xmouse":[407.3333435058594,407.3333435058594,407.3333435058594,407.3333435058594,407.3333435058594,406.66668701171875,406.66668701171875,406.66668701171875,406.66668701171875,406.66668701171875,406.66668701171875,406.66668701171875,406.66668701171875,406.66668701171875,406.66668701171875,406,406,406,406,406,406,406,406,406,406,406,406,406,406,406,406,406,406,406,406,406,406,406,406,406,406,406,406,406,406,406,406,406,406,406,406,406,406,406.66668701171875,406.66668701171875,406.66668701171875,406.66668701171875,406.66668701171875,406.66668701171875,414.66668701171875,415.3333435058594,418,421.3333435058594,440,488,521.3333740234375,536,562.6666870117188,588.6666870117188,624,634,652.6666870117188,664,667.3333740234375,675.3333740234375,681.3333740234375,691.3333740234375],"ymouse":[799.3333740234375,799.3333740234375,799.3333740234375,799.3333740234375,799.3333740234375,798.6666870117188,798.6666870117188,798.6666870117188,798.6666870117188,798.6666870117188,798.6666870117188,798.6666870117188,798.6666870117188,798.6666870117188,798.6666870117188,798.6666870117188,798.6666870117188,798.6666870117188,798.6666870117188,798.6666870117188,798.6666870117188,798.6666870117188,798.6666870117188,798.6666870117188,798.6666870117188,798,798,798,798,798,798,798,798,798,798,798,798,798,798,798,798,798,798,798,798,798,798,798,798,798,798,798,798,797.3333740234375,797.3333740234375,797.3333740234375,797.3333740234375,797.3333740234375,797.3333740234375,792.6666870117188,792,789.3333740234375,785.3333740234375,763.3333740234375,680.6666870117188,610,574.6666870117188,504.66668701171875,431.3333435058594,322.66668701171875,292,232,184,164.6666717529297,124.66667175292969,101.33333587646484,76.66667175292969],"timestamp_mouse":[13,33,45,65,85,105,125,145,165,185,205,225,245,265,285,305,325,345,365,385,405,426,445,465,485,505,525,545,565,586,605,625,645,665,686,705,725,745,765,786,805,825,845,865,885,905,925,945,965,985,1005,1025,1045,1065,1086,1107,1125,1145,1165,1188,1205,1225,1245,1265,1287,1305,1325,1345,1365,1386,1406,1426,1445,1465,1486,1505,1525],"xSR":350,"ySR":768,"xT1":30,"yT1":0,"xT2":670,"yT2":0,"toosoon":0,"cond_shown":"equaldotanddens","ratio_trial":750,"smaller_num":"15","larger_num":"20","correct_side":2,"subjID":"41wm","gender":"No_gender","age":"No_age","school":"No_school"},{"start_time":1549382257862,"click_time":1549382259168,"finger_time":1549382258805,"fix_duration":1334.2072875405254,"trial":6,"RT":943,"MT":363,"sideResp":1,"stimulus":"img/250/equaldotanddens/L/1_Ratio_250_L_8_R_2.png","xmouse":[411.3333435058594,411.3333435058594,411.3333435058594,411.3333435058594,411.3333435058594,411.3333435058594,411.3333435058594,411.3333435058594,411.3333435058594,411.3333435058594,411.3333435058594,411.3333435058594,411.3333435058594,411.3333435058594,412,412,412,412,412,412,412,412,412,412,412,412,412,412,412,412,412,412,412,412,412,412,412,412,412,411.3333435058594,411.3333435058594,411.3333435058594,411.3333435058594,411.3333435058594,411.3333435058594,411.3333435058594,400.66668701171875,400,399.3333435058594,392,377.3333435058594,360,351.3333435058594,332,298,274.66668701171875,262,238.6666717529297,227.33334350585938,180.6666717529297,170,151.33334350585938,134.6666717529297,126.66667175292969,112,96],"ymouse":[778,778,778,778,778,778,778,778,778,778,778,778,778,778,778,778,778,778,778,778,778,778,778,778,778,778,778,778,778,778,778,778,778,778,778,778,778,778,778,778,777.3333740234375,777.3333740234375,777.3333740234375,777.3333740234375,777.3333740234375,777.3333740234375,769.3333740234375,766,763.3333740234375,733.3333740234375,680.6666870117188,622,594.6666870117188,540.6666870117188,462,413.3333435058594,388.66668701171875,344.66668701171875,324.66668701171875,243.33334350585938,226,194.6666717529297,170,157.33334350585938,130.6666717529297,94],"timestamp_mouse":[14,38,43,63,83,103,123,144,163,183,204,223,243,264,284,303,323,343,363,384,403,423,443,464,483,503,523,543,563,583,604,623,643,663,684,703,723,743,763,785,807,823,843,864,883,903,923,943,963,986,1004,1023,1043,1063,1084,1103,1123,1144,1163,1186,1205,1224,1245,1263,1283,1305],"xSR":350,"ySR":768,"xT1":30,"yT1":0,"xT2":670,"yT2":0,"toosoon":0,"cond_shown":"equaldotanddens","ratio_trial":250,"smaller_num":"2","larger_num":"8","correct_side":1,"subjID":"41wm","gender":"No_gender","age":"No_age","school":"No_school"},{"start_time":1549382260587,"click_time":1549382261867,"finger_time":1549382261625,"fix_duration":518.4876018509527,"trial":7,"RT":1038,"MT":242,"sideResp":2,"stimulus":"img/750/equaldotsize/R/11_Ratio_750_L_12_R_16.png","xmouse":[394,394,394,394,394,393.3333435058594,393.3333435058594,393.3333435058594,393.3333435058594,393.3333435058594,393.3333435058594,393.3333435058594,393.3333435058594,393.3333435058594,393.3333435058594,393.3333435058594,393.3333435058594,393.3333435058594,393.3333435058594,393.3333435058594,393.3333435058594,393.3333435058594,393.3333435058594,393.3333435058594,393.3333435058594,393.3333435058594,394,394,394,394,394,394,394,394,394,394,394,394,394.66668701171875,394,394,394,394,394,394,394,394,394,396,396,415.3333435058594,450.66668701171875,470.66668701171875,522.6666870117188,548,570.6666870117188,582,603.3333740234375,636,661.3333740234375,674.6666870117188,693.3333740234375,707.3333740234375,716.6666870117188],"ymouse":[834.6666870117188,834.6666870117188,834.6666870117188,834,834,834,834,834,834,834,834,834,834,834,834,834,834,834,834,834,834,834,834,834,834,834,834,834,834,834,834,834,834,834,834,834,834,834,834,834,834,834,834,834,834,834,834,834,832,832,798,734.6666870117188,697.3333740234375,598,541.3333740234375,481.3333435058594,449.3333435058594,388,294.66668701171875,228,198,153.33334350585938,121.33334350585938,92.66667175292969],"timestamp_mouse":[19,51,59,78,98,118,138,158,178,198,218,238,258,279,298,318,338,358,378,398,418,438,458,478,498,518,538,558,579,599,618,638,658,678,698,718,738,759,778,798,819,838,858,878,898,918,938,959,979,999,1018,1038,1058,1081,1100,1119,1138,1158,1181,1198,1218,1238,1258,1280],"xSR":350,"ySR":768,"xT1":30,"yT1":0,"xT2":670,"yT2":0,"toosoon":0,"cond_shown":"equaldotsize","ratio_trial":750,"smaller_num":"12","larger_num":"16","correct_side":2,"subjID":"41wm","gender":"No_gender","age":"No_age","school":"No_school"},{"start_time":1549382263136,"click_time":1549382265186,"finger_time":1549382264905,"fix_duration":347.74096501970774,"trial":8,"RT":1769,"MT":281,"sideResp":2,"stimulus":"img/900/randomdotsizeEA/L/8_Ratio_900_L_20_R_18.png","xmouse":[410,412,412,412,412,412,412,412,412,412,412,412,412,412,412,412,412,412,412,412,412,412,412,412,412,412,412,412,412,412,412.66668701171875,412.66668701171875,412.66668701171875,412.66668701171875,412.66668701171875,412.66668701171875,412.66668701171875,412.66668701171875,412.66668701171875,412.66668701171875,413.3333435058594,413.3333435058594,413.3333435058594,413.3333435058594,413.3333435058594,413.3333435058594,413.3333435058594,413.3333435058594,413.3333435058594,413.3333435058594,413.3333435058594,413.3333435058594,413.3333435058594,413.3333435058594,413.3333435058594,413.3333435058594,413.3333435058594,413.3333435058594,413.3333435058594,413.3333435058594,412.66668701171875,412.66668701171875,412.66668701171875,412.66668701171875,412.66668701171875,412.66668701171875,412.66668701171875,412.66668701171875,412.66668701171875,412.66668701171875,412.66668701171875,412.66668701171875,412.66668701171875,412.66668701171875,412.66668701171875,412.66668701171875,412.66668701171875,412.66668701171875,412.66668701171875,412.66668701171875,413.3333435058594,413.3333435058594,413.3333435058594,413.3333435058594,413.3333435058594,413.3333435058594,413.3333435058594,439.3333435058594,462.66668701171875,474.66668701171875,496,529.3333740234375,557.3333740234375,572.6666870117188,600,615.3333740234375,640,669.3333740234375,686,692,705.3333740234375,713.3333740234375],"ymouse":[818.6666870117188,816,816,816,816,816,816,816,816,816,814.6666870117188,814.6666870117188,814.6666870117188,814.6666870117188,814.6666870117188,814.6666870117188,814.6666870117188,814.6666870117188,814.6666870117188,814.6666870117188,812.6666870117188,812.6666870117188,812.6666870117188,812.6666870117188,812.6666870117188,812.6666870117188,812.6666870117188,812.6666870117188,812.6666870117188,812.6666870117188,811.3333740234375,811.3333740234375,811.3333740234375,811.3333740234375,811.3333740234375,811.3333740234375,811.3333740234375,811.3333740234375,811.3333740234375,811.3333740234375,810.6666870117188,810.6666870117188,810.6666870117188,810.6666870117188,810.6666870117188,810.6666870117188,810.6666870117188,810.6666870117188,810.6666870117188,810.6666870117188,810,810,810,810,810,810,810,810,810,810,808,808,808,808,808,808,808,808,808,808,807.3333740234375,807.3333740234375,807.3333740234375,807.3333740234375,807.3333740234375,807.3333740234375,807.3333740234375,807.3333740234375,807.3333740234375,807.3333740234375,806,806,806,806,806,806,806,756,701.3333740234375,672.6666870117188,620.6666870117188,538,469.3333435058594,433.3333435058594,366.66668701171875,330.66668701171875,270,191.33334350585938,152,134,104,78.66667175292969],"timestamp_mouse":[11,51,69,89,109,129,149,169,189,209,229,249,270,289,309,330,350,370,390,409,430,449,469,489,509,530,549,569,589,610,629,649,669,689,709,729,749,769,789,810,829,849,869,890,909,929,949,969,989,1009,1029,1049,1069,1090,1109,1130,1149,1169,1189,1210,1230,1249,1269,1289,1310,1329,1349,1369,1389,1410,1429,1450,1470,1489,1509,1530,1549,1569,1589,1610,1629,1651,1669,1689,1709,1729,1749,1769,1790,1809,1829,1852,1871,1890,1909,1930,1949,1969,1995,2009,2030,2050],"xSR":350,"ySR":768,"xT1":30,"yT1":0,"xT2":670,"yT2":0,"toosoon":0,"cond_shown":"randomdotsizeEA","ratio_trial":900,"smaller_num":"18","larger_num":"20","correct_side":1,"subjID":"41wm","gender":"No_gender","age":"No_age","school":"No_school"},{"start_time":1549382267554,"click_time":1549382269448,"finger_time":1549382269045,"fix_duration":967.974681580208,"trial":9,"RT":1491,"MT":403,"sideResp":2,"stimulus":"img/750/equaldotanddens/R/5_Ratio_750_L_15_R_20.png","xmouse":[396,396,396,396.66668701171875,396.66668701171875,396.66668701171875,396.66668701171875,396.66668701171875,396.66668701171875,396.66668701171875,396.66668701171875,396.66668701171875,396.66668701171875,398.66668701171875,398.66668701171875,398.66668701171875,398.66668701171875,398.66668701171875,398.66668701171875,398.66668701171875,398.66668701171875,398.66668701171875,399.3333435058594,399.3333435058594,399.3333435058594,399.3333435058594,399.3333435058594,400,400,400,400,400,400,400,400,400,400,400,400,400,400,400,400,400,400,400,400,400,400,400.66668701171875,400.66668701171875,401.3333435058594,401.3333435058594,401.3333435058594,401.3333435058594,401.3333435058594,401.3333435058594,401.3333435058594,401.3333435058594,401.3333435058594,402,402,402,402,402,402,402,402,402.66668701171875,402.66668701171875,402.66668701171875,402.66668701171875,402.66668701171875,402.66668701171875,419.3333435058594,444,459.3333435058594,491.3333435058594,538.6666870117188,566.6666870117188,579.3333740234375,603.3333740234375,626.6666870117188,661.3333740234375,688.6666870117188,700.6666870117188,718,720,722,722,722,722,722,722,718],"ymouse":[800.6666870117188,800.6666870117188,800.6666870117188,800,800,800,800,800,800,800,800,800,800,800,800,800,800,800,800,800,800,800,799.3333740234375,799.3333740234375,799.3333740234375,799.3333740234375,799.3333740234375,799.3333740234375,799.3333740234375,799.3333740234375,798.6666870117188,798.6666870117188,798.6666870117188,798.6666870117188,798.6666870117188,798.6666870117188,798.6666870117188,798.6666870117188,798.6666870117188,798,798,798,798,798,798,798,798,798,798,798,798,798,797.3333740234375,797.3333740234375,797.3333740234375,797.3333740234375,797.3333740234375,797.3333740234375,797.3333740234375,797.3333740234375,797.3333740234375,797.3333740234375,797.3333740234375,797.3333740234375,797.3333740234375,797.3333740234375,797.3333740234375,797.3333740234375,797.3333740234375,797.3333740234375,796.6666870117188,796,796,796,758.6666870117188,704.6666870117188,674,610,516,457.3333435058594,429.3333435058594,376,329.3333435058594,260,212,188.6666717529297,154.6666717529297,144,120,115.33334350585938,115.33334350585938,115.33334350585938,115.33334350585938,115.33334350585938,68],"timestamp_mouse":[14,35,52,71,91,111,131,152,171,191,212,231,251,273,291,311,331,351,371,391,411,445,451,471,491,511,531,554,571,592,612,632,651,671,691,711,731,751,771,792,811,831,851,871,891,911,931,952,971,991,1011,1031,1052,1072,1092,1112,1131,1152,1171,1191,1211,1232,1251,1271,1291,1312,1331,1351,1371,1391,1411,1432,1452,1471,1491,1512,1531,1552,1573,1592,1611,1631,1651,1671,1691,1711,1731,1751,1774,1791,1811,1831,1851,1871,1894],"xSR":350,"ySR":768,"xT1":30,"yT1":0,"xT2":670,"yT2":0,"toosoon":0,"cond_shown":"equaldotanddens","ratio_trial":750,"smaller_num":"15","larger_num":"20","correct_side":2,"subjID":"41wm","gender":"No_gender","age":"No_age","school":"No_school"},{"start_time":1549382270880,"click_time":1549382272225,"finger_time":1549382271905,"fix_duration":531.6931874551495,"trial":10,"RT":1025,"MT":320,"sideResp":2,"stimulus":"img/500/equaldotanddens/R/9_Ratio_500_L_2_R_4.png","xmouse":[400,400,400,400,400,400,400,400,400,400,400,400,400,400,400,400,400,400,400,400,400,400,400,400,400,400,400,400,400,400,400,400,400,400,400,400,400,400,400,400.66668701171875,400.66668701171875,400.66668701171875,400.66668701171875,400.66668701171875,400.66668701171875,400.66668701171875,400.66668701171875,400.66668701171875,400.66668701171875,408,408,429.3333435058594,439.3333435058594,489.3333435058594,504,533.3333740234375,547.3333740234375,575.3333740234375,610.6666870117188,630.6666870117188,646,653.3333740234375,666,684.6666870117188,696.6666870117188,703.3333740234375,715.3333740234375,719.3333740234375],"ymouse":[802,802,802,802,802,802,802,802,802,801.3333740234375,801.3333740234375,801.3333740234375,801.3333740234375,801.3333740234375,801.3333740234375,801.3333740234375,801.3333740234375,801.3333740234375,801.3333740234375,802,802,802,802,802,802,802,802,802,802,802.6666870117188,802.6666870117188,802.6666870117188,802.6666870117188,802.6666870117188,802.6666870117188,802.6666870117188,802.6666870117188,802.6666870117188,802.6666870117188,803.3333740234375,803.3333740234375,803.3333740234375,803.3333740234375,803.3333740234375,803.3333740234375,803.3333740234375,803.3333740234375,803.3333740234375,803.3333740234375,791.3333740234375,791.3333740234375,748,724.6666870117188,611.3333740234375,581.3333740234375,525.3333740234375,498,446,373.3333435058594,332,291.3333435058594,274,239.33334350585938,191.33334350585938,160,142,109.33333587646484,95.33333587646484],"timestamp_mouse":[5,44,45,66,85,106,125,146,165,185,205,225,245,265,285,305,325,345,365,386,405,425,445,465,485,506,525,546,566,585,606,625,645,666,685,705,725,745,765,785,805,825,845,865,885,905,926,946,965,991,1005,1025,1045,1066,1086,1105,1125,1145,1167,1185,1205,1225,1245,1265,1285,1307,1325,1345],"xSR":350,"ySR":768,"xT1":30,"yT1":0,"xT2":670,"yT2":0,"toosoon":0,"cond_shown":"equaldotanddens","ratio_trial":500,"smaller_num":"2","larger_num":"4","correct_side":2,"subjID":"41wm","gender":"No_gender","age":"No_age","school":"No_school"},{"start_time":1549382274000,"click_time":1549382276325,"finger_time":1549382276045,"fix_duration":793.0474075485524,"trial":11,"RT":2045,"MT":280,"sideResp":1,"stimulus":"img/750/randomdotsize/L/10_Ratio_750_L_4_R_3.png","xmouse":[398,398,398,398,398,398,398,398,398,398,398,398,398,398,398,398,398,398,398,398,398,398,398,398,398,398,398,398,398,398,398,398,398,398,398,398,398,398,398.66668701171875,398.66668701171875,398.66668701171875,398.66668701171875,398.66668701171875,398.66668701171875,398.66668701171875,398.66668701171875,398.66668701171875,398.66668701171875,398.66668701171875,398.66668701171875,398.66668701171875,398.66668701171875,398.66668701171875,398.66668701171875,399.3333435058594,399.3333435058594,399.3333435058594,399.3333435058594,399.3333435058594,399.3333435058594,399.3333435058594,399.3333435058594,399.3333435058594,399.3333435058594,399.3333435058594,399.3333435058594,399.3333435058594,399.3333435058594,399.3333435058594,399.3333435058594,399.3333435058594,399.3333435058594,399.3333435058594,399.3333435058594,399.3333435058594,399.3333435058594,399.3333435058594,399.3333435058594,399.3333435058594,399.3333435058594,399.3333435058594,399.3333435058594,399.3333435058594,400,400,400,400,400,400,400,400,400,400,400,400,400,400,400,400,400,400,386.66668701171875,371.3333435058594,362.66668701171875,341.3333435058594,328.66668701171875,313.3333435058594,304,278,257.3333435058594,234.6666717529297,223.33334350585938,199.33334350585938,165.33334350585938,145.33334350585938,134.6666717529297,118.66667175292969],"ymouse":[812,812,812,812,812,812,812,812,813.3333740234375,813.3333740234375,813.3333740234375,813.3333740234375,813.3333740234375,813.3333740234375,813.3333740234375,813.3333740234375,813.3333740234375,813.3333740234375,814.6666870117188,814.6666870117188,814.6666870117188,814.6666870117188,814.6666870117188,814.6666870117188,814.6666870117188,814.6666870117188,814.6666870117188,814.6666870117188,814.6666870117188,814.6666870117188,814.6666870117188,814.6666870117188,814.6666870117188,814.6666870117188,814.6666870117188,814.6666870117188,814.6666870117188,814.6666870117188,815.3333740234375,815.3333740234375,815.3333740234375,815.3333740234375,815.3333740234375,815.3333740234375,815.3333740234375,815.3333740234375,815.3333740234375,815.3333740234375,815.3333740234375,815.3333740234375,815.3333740234375,815.3333740234375,815.3333740234375,815.3333740234375,815.3333740234375,815.3333740234375,815.3333740234375,815.3333740234375,815.3333740234375,815.3333740234375,815.3333740234375,815.3333740234375,815.3333740234375,815.3333740234375,815.3333740234375,815.3333740234375,815.3333740234375,815.3333740234375,815.3333740234375,815.3333740234375,815.3333740234375,815.3333740234375,815.3333740234375,815.3333740234375,815.3333740234375,815.3333740234375,815.3333740234375,815.3333740234375,815.3333740234375,815.3333740234375,815.3333740234375,815.3333740234375,815.3333740234375,814.6666870117188,814.6666870117188,814.6666870117188,814.6666870117188,814.6666870117188,814.6666870117188,814.6666870117188,814.6666870117188,814.6666870117188,814.6666870117188,814,814,814,814,814,814,814,814,778.6666870117188,742,721.3333740234375,659.3333740234375,615.3333740234375,562.6666870117188,533.3333740234375,451.3333435058594,396,340.66668701171875,312,256.66668701171875,184.6666717529297,139.33334350585938,120,83.33333587646484],"timestamp_mouse":[6,43,45,65,85,105,125,145,165,185,205,225,245,265,285,305,325,345,367,385,405,425,446,465,485,505,525,546,567,585,605,625,645,666,685,705,725,745,766,786,805,825,846,865,886,905,925,945,965,985,1005,1026,1046,1065,1085,1105,1125,1145,1165,1185,1205,1226,1245,1267,1285,1305,1325,1345,1365,1385,1405,1425,1445,1469,1486,1505,1525,1545,1565,1585,1605,1625,1646,1668,1686,1705,1725,1745,1765,1785,1805,1825,1845,1868,1885,1905,1925,1945,1965,1986,2005,2025,2045,2066,2086,2106,2125,2145,2168,2186,2205,2225,2245,2268,2287,2305,2325],"xSR":350,"ySR":768,"xT1":30,"yT1":0,"xT2":670,"yT2":0,"toosoon":0,"cond_shown":"randomdotsize","ratio_trial":750,"smaller_num":"3","larger_num":"4","correct_side":1,"subjID":"41wm","gender":"No_gender","age":"No_age","school":"No_school"},{"start_time":1549382278713,"click_time":1549382281025,"finger_time":1549382280725,"fix_duration":1309.7609802523193,"trial":12,"RT":2012,"MT":300,"sideResp":1,"stimulus":"img/900/equaldotsize/R/5_Ratio_900_L_9_R_10.png","xmouse":[418,418,418,418,418,418,418,417.3333435058594,417.3333435058594,417.3333435058594,417.3333435058594,417.3333435058594,417.3333435058594,417.3333435058594,417.3333435058594,417.3333435058594,417.3333435058594,418,418,418,418,418,418,418,418,418,418,418,418,418,418,418,418,418,418,418,418,418,418.66668701171875,418.66668701171875,418.66668701171875,418.66668701171875,418.66668701171875,418.66668701171875,418.66668701171875,418.66668701171875,418.66668701171875,418.66668701171875,418.66668701171875,418.66668701171875,419.3333435058594,419.3333435058594,419.3333435058594,419.3333435058594,419.3333435058594,419.3333435058594,419.3333435058594,419.3333435058594,419.3333435058594,419.3333435058594,419.3333435058594,419.3333435058594,419.3333435058594,419.3333435058594,420,420,420,420,420,420,420,420,420,420,420,420,420,420,420,420,420,420,419.3333435058594,419.3333435058594,419.3333435058594,419.3333435058594,419.3333435058594,419.3333435058594,419.3333435058594,419.3333435058594,419.3333435058594,419.3333435058594,418,417.3333435058594,417.3333435058594,417.3333435058594,417.3333435058594,417.3333435058594,408.66668701171875,402.66668701171875,398,387.3333435058594,378,372.66668701171875,338,326.66668701171875,302,288.66668701171875,262,220.6666717529297,194,179.33334350585938,152.6666717529297,127.33334350585938,115.33333587646484,90.66667175292969],"ymouse":[809.3333740234375,809.3333740234375,809.3333740234375,809.3333740234375,809.3333740234375,809.3333740234375,809.3333740234375,809.3333740234375,809.3333740234375,809.3333740234375,809.3333740234375,809.3333740234375,809.3333740234375,809.3333740234375,809.3333740234375,809.3333740234375,809.3333740234375,809.3333740234375,809.3333740234375,809.3333740234375,809.3333740234375,809.3333740234375,809.3333740234375,809.3333740234375,809.3333740234375,809.3333740234375,809.3333740234375,809.3333740234375,809.3333740234375,809.3333740234375,809.3333740234375,809.3333740234375,809.3333740234375,809.3333740234375,809.3333740234375,809.3333740234375,809.3333740234375,809.3333740234375,809.3333740234375,809.3333740234375,809.3333740234375,809.3333740234375,809.3333740234375,809.3333740234375,809.3333740234375,809.3333740234375,809.3333740234375,809.3333740234375,809.3333740234375,809.3333740234375,809.3333740234375,809.3333740234375,809.3333740234375,809.3333740234375,809.3333740234375,809.3333740234375,809.3333740234375,809.3333740234375,809.3333740234375,809.3333740234375,808.6666870117188,808.6666870117188,808.6666870117188,808.6666870117188,808.6666870117188,808.6666870117188,808.6666870117188,808.6666870117188,808.6666870117188,808.6666870117188,808.6666870117188,808.6666870117188,808.6666870117188,808.6666870117188,808.6666870117188,808.6666870117188,808.6666870117188,808.6666870117188,808.6666870117188,808.6666870117188,808.6666870117188,808.6666870117188,808,808,808,808,808,808,808,808,808,808,790,787.3333740234375,787.3333740234375,787.3333740234375,787.3333740234375,787.3333740234375,780.6666870117188,769.3333740234375,756,725.3333740234375,694,678,592,566,507.3333740234375,477.3333435058594,416.66668701171875,330.66668701171875,277.3333435058594,253.33334350585938,206,162,142.6666717529297,97.33333587646484],"timestamp_mouse":[9,33,53,72,92,112,132,153,173,192,212,232,252,272,292,313,332,353,373,392,412,432,452,472,492,512,532,552,572,592,612,632,652,672,692,712,732,752,772,792,813,832,853,872,893,912,932,953,972,992,1013,1032,1052,1072,1093,1113,1132,1153,1172,1193,1213,1232,1253,1272,1296,1312,1332,1352,1373,1392,1412,1433,1452,1472,1492,1512,1532,1552,1572,1592,1612,1632,1653,1672,1692,1712,1732,1753,1772,1792,1812,1832,1853,1873,1893,1913,1932,1952,1973,1994,2012,2032,2053,2072,2096,2112,2134,2152,2172,2193,2213,2232,2252,2272,2292,2312],"xSR":350,"ySR":768,"xT1":30,"yT1":0,"xT2":670,"yT2":0,"toosoon":0,"cond_shown":"equaldotsize","ratio_trial":900,"smaller_num":"9","larger_num":"10","correct_side":2,"subjID":"41wm","gender":"No_gender","age":"No_age","school":"No_school"},{"start_time":1549382284930,"click_time":1549382286226,"finger_time":1549382285926,"fix_duration":1335.5281315123075,"trial":13,"RT":996,"MT":300,"sideResp":2,"stimulus":"img/250/equaldotsize/R/11_Ratio_250_L_3_R_12.png","xmouse":[392,392,392,392,392,392,392,392,392,392,392,392,392.66668701171875,392.66668701171875,392.66668701171875,392.66668701171875,392.66668701171875,392.66668701171875,392.66668701171875,392.66668701171875,392.66668701171875,392.66668701171875,392.66668701171875,392.66668701171875,392.66668701171875,392.66668701171875,392.66668701171875,392.66668701171875,393.3333435058594,393.3333435058594,393.3333435058594,393.3333435058594,393.3333435058594,393.3333435058594,393.3333435058594,393.3333435058594,393.3333435058594,393.3333435058594,393.3333435058594,393.3333435058594,393.3333435058594,393.3333435058594,394,394,394,394,394.66668701171875,395.3333435058594,398,402.66668701171875,423.3333435058594,462,485.3333435058594,496.66668701171875,518,526.6666870117188,556,562,574.6666870117188,589.3333740234375,596.6666870117188,623.3333740234375,642,661.3333740234375,669.3333740234375,684.6666870117188],"ymouse":[827.3333740234375,827.3333740234375,827.3333740234375,826.6666870117188,826.6666870117188,826.6666870117188,826.6666870117188,826.6666870117188,826.6666870117188,826.6666870117188,826,826,826,826,826,826,825.3333740234375,825.3333740234375,825.3333740234375,825.3333740234375,825.3333740234375,825.3333740234375,824.6666870117188,824.6666870117188,824.6666870117188,824.6666870117188,824.6666870117188,824.6666870117188,824.6666870117188,824,824,824,823.3333740234375,823.3333740234375,823.3333740234375,823.3333740234375,823.3333740234375,823.3333740234375,823.3333740234375,823.3333740234375,823.3333740234375,823.3333740234375,822.6666870117188,822.6666870117188,822.6666870117188,822.6666870117188,822,821.3333740234375,818,811.3333740234375,767.3333740234375,676,622,593.3333740234375,537.3333740234375,510,408,382,332.66668701171875,285.3333435058594,262.66668701171875,195.33334350585938,156,119.33334350585938,102.66667175292969,75.33333587646484],"timestamp_mouse":[6,28,35,55,75,95,116,135,155,176,196,215,235,256,276,295,315,335,355,376,395,416,436,455,476,495,515,535,555,575,595,615,638,656,675,696,715,736,756,775,796,816,837,855,875,895,916,936,955,976,996,1018,1035,1055,1076,1095,1116,1136,1155,1175,1195,1216,1238,1255,1275,1295],"xSR":350,"ySR":768,"xT1":30,"yT1":0,"xT2":670,"yT2":0,"toosoon":0,"cond_shown":"equaldotsize","ratio_trial":250,"smaller_num":"3","larger_num":"12","correct_side":2,"subjID":"41wm","gender":"No_gender","age":"No_age","school":"No_school"},{"start_time":1549382288373,"click_time":1549382290968,"finger_time":1549382290246,"fix_duration":1320.083888192767,"trial":14,"RT":1873,"MT":722,"sideResp":2,"stimulus":"img/750/equaldotanddens/L/8_Ratio_750_L_4_R_3.png","xmouse":[386.66668701171875,386.66668701171875,386.66668701171875,386.66668701171875,386.66668701171875,386.66668701171875,386.66668701171875,386.66668701171875,386.66668701171875,386.66668701171875,387.3333435058594,387.3333435058594,387.3333435058594,388,388.66668701171875,389.3333435058594,389.3333435058594,389.3333435058594,390,390,390,390,390,390,390,390,390,390,390.66668701171875,390.66668701171875,390.66668701171875,390.66668701171875,390.66668701171875,390.66668701171875,390.66668701171875,390.66668701171875,390.66668701171875,390.66668701171875,390.66668701171875,390.66668701171875,390.66668701171875,391.3333435058594,391.3333435058594,391.3333435058594,391.3333435058594,391.3333435058594,391.3333435058594,391.3333435058594,391.3333435058594,391.3333435058594,391.3333435058594,391.3333435058594,391.3333435058594,391.3333435058594,391.3333435058594,391.3333435058594,391.3333435058594,392,392,392,392,392,392,392,392,392,392,392,392,392,392,392.66668701171875,392.66668701171875,392.66668701171875,392.66668701171875,392.66668701171875,392.66668701171875,392.66668701171875,392.66668701171875,392.66668701171875,392.66668701171875,392.66668701171875,392.66668701171875,392.66668701171875,392.66668701171875,392.66668701171875,392.66668701171875,392.66668701171875,392.66668701171875,392.66668701171875,392.66668701171875,392.66668701171875,392.66668701171875,392.66668701171875,393.3333435058594,393.3333435058594,393.3333435058594,393.3333435058594,393.3333435058594,393.3333435058594,393.3333435058594,393.3333435058594,394,394,394.66668701171875,394.66668701171875,394.66668701171875,395.3333435058594,395.3333435058594,396,396.66668701171875,398,398.66668701171875,403.3333435058594,430,452,463.3333435058594,487.3333435058594,512.6666870117188,526,562,582,601.3333740234375,609.3333740234375,635.3333740234375,652,667.3333740234375,676,692.6666870117188,716],"ymouse":[780.6666870117188,780.6666870117188,780.6666870117188,780.6666870117188,780.6666870117188,780.6666870117188,780.6666870117188,780.6666870117188,780.6666870117188,780.6666870117188,780,780,780,779.3333740234375,778.6666870117188,778.6666870117188,778.6666870117188,778,778,778,777.3333740234375,777.3333740234375,776.6666870117188,776.6666870117188,776,775.3333740234375,775.3333740234375,775.3333740234375,774.6666870117188,774.6666870117188,774.6666870117188,774.6666870117188,774,774,774,774,773.3333740234375,773.3333740234375,773.3333740234375,773.3333740234375,773.3333740234375,772.6666870117188,772.6666870117188,772.6666870117188,772.6666870117188,772.6666870117188,772,772,772,772,772,772,772,771.3333740234375,771.3333740234375,771.3333740234375,771.3333740234375,771.3333740234375,771.3333740234375,770.6666870117188,770.6666870117188,770.6666870117188,770.6666870117188,770.6666870117188,770,770,770,770,770,769.3333740234375,769.3333740234375,769.3333740234375,769.3333740234375,769.3333740234375,769.3333740234375,769.3333740234375,768.6666870117188,768.6666870117188,768.6666870117188,768.6666870117188,768.6666870117188,768.6666870117188,768,768,768,768,768,768,768,768,768,768,768,767.3333740234375,767.3333740234375,767.3333740234375,767.3333740234375,767.3333740234375,766.6666870117188,766.6666870117188,766.6666870117188,766.6666870117188,766.6666870117188,766,766,766,766,765.3333740234375,765.3333740234375,764.6666870117188,763.3333740234375,761.3333740234375,760,748.6666870117188,688.6666870117188,643.3333740234375,621.3333740234375,574,522,496.66668701171875,422,378.66668701171875,334.66668701171875,314,252.66668701171875,216,178,159.33334350585938,124,77.33333587646484],"timestamp_mouse":[18,46,52,72,92,112,132,152,172,193,212,232,252,272,295,314,332,353,372,392,413,433,453,472,493,513,532,552,573,593,613,632,652,672,692,713,732,752,772,792,812,832,852,873,892,913,932,952,972,993,1012,1032,1052,1072,1092,1112,1133,1152,1172,1192,1213,1232,1253,1272,1293,1312,1332,1353,1372,1393,1412,1432,1452,1472,1492,1512,1533,1552,1572,1593,1612,1632,1653,1673,1692,1712,1732,1752,1772,1793,1812,1833,1852,1873,1893,1912,1932,1952,1972,1992,2012,2032,2052,2072,2094,2112,2132,2153,2172,2192,2214,2232,2252,2272,2294,2312,2333,2352,2372,2392,2412,2432,2452,2472,2495,2513,2532,2552,2572,2594],"xSR":350,"ySR":768,"xT1":30,"yT1":0,"xT2":670,"yT2":0,"toosoon":0,"cond_shown":"equaldotanddens","ratio_trial":750,"smaller_num":"3","larger_num":"4","correct_side":1,"subjID":"41wm","gender":"No_gender","age":"No_age","school":"No_school"},{"start_time":1549382292935,"click_time":1549382294305,"finger_time":1549382293986,"fix_duration":867.323683567745,"trial":15,"RT":1051,"MT":319,"sideResp":1,"stimulus":"img/900/equaldotsize/L/4_Ratio_900_L_20_R_18.png","xmouse":[402.66668701171875,402.66668701171875,402.66668701171875,402.66668701171875,402.66668701171875,402.66668701171875,400.66668701171875,400.66668701171875,400.66668701171875,400.66668701171875,400.66668701171875,400.66668701171875,400.66668701171875,400,400,400,400,400,400,400,400,400,400,400,400,400,400,400,400,400,400,400,400,400,400,400,400,399.3333435058594,399.3333435058594,399.3333435058594,399.3333435058594,399.3333435058594,399.3333435058594,399.3333435058594,399.3333435058594,400,399.3333435058594,399.3333435058594,397.3333435058594,396.66668701171875,394.66668701171875,392.66668701171875,383.3333435058594,366.66668701171875,358.66668701171875,352,348.66668701171875,332.66668701171875,318,300,291.3333435058594,270.66668701171875,260,212.6666717529297,200.6666717529297,178,168,148.6666717529297,126.66667175292969],"ymouse":[812,812,812,812,812,812,807.3333740234375,807.3333740234375,807.3333740234375,807.3333740234375,807.3333740234375,807.3333740234375,804.6666870117188,804,804,804,803.3333740234375,803.3333740234375,802,801.3333740234375,800.6666870117188,799.3333740234375,798,797.3333740234375,797.3333740234375,796.6666870117188,796.6666870117188,796.6666870117188,796,796,796,796,795.3333740234375,795.3333740234375,795.3333740234375,794.6666870117188,794.6666870117188,794.6666870117188,794.6666870117188,794,794,794,794,793.3333740234375,793.3333740234375,793.3333740234375,792.6666870117188,792.6666870117188,792,791.3333740234375,789.3333740234375,786.6666870117188,766.6666870117188,714.6666870117188,675.3333740234375,638.6666870117188,621.3333740234375,560.6666870117188,511.3333740234375,462.66668701171875,440.66668701171875,390,364,272,248.66668701171875,206,186,148,99.33333587646484],"timestamp_mouse":[14,42,51,70,90,110,130,150,170,190,210,231,250,270,291,310,330,350,370,390,410,430,453,471,490,511,530,550,570,590,610,630,650,670,690,711,730,750,770,790,810,831,851,870,891,910,930,950,971,990,1010,1030,1051,1073,1090,1110,1130,1154,1171,1190,1210,1230,1250,1270,1290,1310,1330,1350,1370],"xSR":350,"ySR":768,"xT1":30,"yT1":0,"xT2":670,"yT2":0,"toosoon":0,"cond_shown":"equaldotsize","ratio_trial":900,"smaller_num":"18","larger_num":"20","correct_side":1,"subjID":"41wm","gender":"No_gender","age":"No_age","school":"No_school"},{"start_time":1549382296191,"click_time":1549382298828,"finger_time":1549382298630,"fix_duration":863.7421805915374,"trial":16,"RT":2439,"MT":198,"sideResp":2,"stimulus":"img/900/randomdotsizeEA/L/10_Ratio_900_L_20_R_18.png","xmouse":[423.3333435058594,423.3333435058594,423.3333435058594,423.3333435058594,423.3333435058594,423.3333435058594,423.3333435058594,423.3333435058594,423.3333435058594,423.3333435058594,423.3333435058594,423.3333435058594,423.3333435058594,423.3333435058594,423.3333435058594,423.3333435058594,423.3333435058594,423.3333435058594,423.3333435058594,423.3333435058594,424,424,424,424,424,424,424,424,424,424,424,424,424,424,424,424,424,424,424,424,424.66668701171875,424.66668701171875,424.66668701171875,424.66668701171875,424.66668701171875,424.66668701171875,424.66668701171875,424.66668701171875,424.66668701171875,424.66668701171875,424.66668701171875,424.66668701171875,424.66668701171875,424.66668701171875,424.66668701171875,424.66668701171875,424.66668701171875,424.66668701171875,424.66668701171875,424.66668701171875,424.66668701171875,424.66668701171875,424.66668701171875,424.66668701171875,424.66668701171875,424.66668701171875,424.66668701171875,424.66668701171875,424.66668701171875,424.66668701171875,424.66668701171875,425.3333435058594,425.3333435058594,425.3333435058594,425.3333435058594,425.3333435058594,425.3333435058594,425.3333435058594,425.3333435058594,425.3333435058594,425.3333435058594,425.3333435058594,425.3333435058594,425.3333435058594,425.3333435058594,425.3333435058594,425.3333435058594,425.3333435058594,425.3333435058594,425.3333435058594,425.3333435058594,425.3333435058594,425.3333435058594,425.3333435058594,426,426,426,426,426,426,426,426,426,426,426,426,426.66668701171875,426.66668701171875,426.66668701171875,426.66668701171875,426.66668701171875,427.3333435058594,427.3333435058594,427.3333435058594,428,428,429.3333435058594,430,430,433.3333435058594,456.66668701171875,488,507.3333435058594,548,584.6666870117188,633.3333740234375,646.6666870117188,674,702,714.6666870117188,748.6666870117188],"ymouse":[825.3333740234375,825.3333740234375,825.3333740234375,825.3333740234375,824.6666870117188,824.6666870117188,824.6666870117188,824.6666870117188,824.6666870117188,824.6666870117188,824.6666870117188,824.6666870117188,824.6666870117188,824.6666870117188,824.6666870117188,824.6666870117188,824.6666870117188,824.6666870117188,824.6666870117188,824.6666870117188,824.6666870117188,824.6666870117188,824.6666870117188,824.6666870117188,824.6666870117188,824.6666870117188,824.6666870117188,824.6666870117188,824.6666870117188,824.6666870117188,824.6666870117188,824.6666870117188,824.6666870117188,824.6666870117188,824.6666870117188,824.6666870117188,824.6666870117188,824,823.3333740234375,823.3333740234375,822.6666870117188,822.6666870117188,822.6666870117188,822.6666870117188,822.6666870117188,822.6666870117188,822.6666870117188,822.6666870117188,822.6666870117188,822.6666870117188,822,822,822,821.3333740234375,821.3333740234375,821.3333740234375,820.6666870117188,820.6666870117188,820.6666870117188,820.6666870117188,820.6666870117188,820.6666870117188,820.6666870117188,820.6666870117188,820,820,820,820,820,820,819.3333740234375,819.3333740234375,819.3333740234375,819.3333740234375,819.3333740234375,818.6666870117188,818.6666870117188,818.6666870117188,818.6666870117188,818.6666870117188,818.6666870117188,818,818,818,818,817.3333740234375,817.3333740234375,817.3333740234375,817.3333740234375,817.3333740234375,816.6666870117188,816.6666870117188,816.6666870117188,816.6666870117188,816.6666870117188,816,816,816,816,816,815.3333740234375,815.3333740234375,815.3333740234375,815.3333740234375,814.6666870117188,814.6666870117188,814.6666870117188,814,814,814,813.3333740234375,812.6666870117188,812.6666870117188,812,812,810.6666870117188,809.3333740234375,808,806.6666870117188,795.3333740234375,720.6666870117188,644.6666870117188,603.3333740234375,517.3333740234375,436,326.66668701171875,290.66668701171875,222.6666717529297,158,130,54],"timestamp_mouse":[43,54,74,94,115,134,155,174,194,214,235,255,274,294,314,334,354,374,394,414,434,454,475,494,515,534,554,574,594,614,634,654,674,695,714,735,755,774,795,814,834,854,875,894,915,934,954,974,994,1015,1035,1054,1074,1094,1115,1134,1154,1175,1195,1214,1234,1254,1274,1294,1315,1334,1354,1375,1395,1415,1437,1456,1474,1494,1514,1537,1554,1574,1594,1614,1634,1655,1674,1694,1714,1734,1755,1774,1795,1814,1835,1854,1874,1895,1914,1934,1955,1974,1994,2014,2035,2055,2074,2095,2115,2135,2154,2174,2194,2214,2237,2256,2274,2295,2314,2334,2354,2380,2394,2414,2439,2457,2477,2494,2514,2535,2555,2574,2594,2614,2636],"xSR":350,"ySR":768,"xT1":30,"yT1":0,"xT2":670,"yT2":0,"toosoon":0,"cond_shown":"randomdotsizeEA","ratio_trial":900,"smaller_num":"18","larger_num":"20","correct_side":1,"subjID":"41wm","gender":"No_gender","age":"No_age","school":"No_school"},{"start_time":1549382300798,"click_time":1549382302126,"finger_time":1549382301949,"fix_duration":731.652350980052,"trial":17,"RT":1151,"MT":177,"sideResp":1,"stimulus":"img/900/equaldotanddens/L/8_Ratio_900_L_20_R_18.png","xmouse":[424,424,424,424,422,422,420.66668701171875,420,420,419.3333435058594,419.3333435058594,418.66668701171875,418,417.3333435058594,417.3333435058594,416.66668701171875,416.66668701171875,416,416,415.3333435058594,415.3333435058594,415.3333435058594,414.66668701171875,414.66668701171875,414.66668701171875,414,414,413.3333435058594,413.3333435058594,413.3333435058594,413.3333435058594,413.3333435058594,412.66668701171875,412.66668701171875,412,412,412,411.3333435058594,411.3333435058594,411.3333435058594,411.3333435058594,411.3333435058594,411.3333435058594,410.66668701171875,410.66668701171875,410.66668701171875,410.66668701171875,410,410,410,410,409.3333435058594,408.66668701171875,406,404.66668701171875,397.3333435058594,383.3333435058594,360,354.66668701171875,342.66668701171875,322,309.3333435058594,260.66668701171875,217.33334350585938,174.6666717529297,154,111.33333587646484],"ymouse":[840.6666870117188,840.6666870117188,840.6666870117188,840.6666870117188,838,838,837.3333740234375,836,834.6666870117188,834,834,833.3333740234375,832.6666870117188,832.6666870117188,832.6666870117188,832,831.3333740234375,831.3333740234375,831.3333740234375,830.6666870117188,830.6666870117188,830.6666870117188,830,830,830,829.3333740234375,829.3333740234375,829.3333740234375,829.3333740234375,829.3333740234375,829.3333740234375,829.3333740234375,828.6666870117188,828.6666870117188,828.6666870117188,828,828,827.3333740234375,827.3333740234375,827.3333740234375,827.3333740234375,826.6666870117188,826.6666870117188,826.6666870117188,826.6666870117188,826,826,826,825.3333740234375,825.3333740234375,825.3333740234375,824.6666870117188,824.6666870117188,823.3333740234375,822,814,795.3333740234375,747.3333740234375,726,670,600.6666870117188,561.3333740234375,416,302,196.6666717529297,151.33334350585938,72],"timestamp_mouse":[9,40,47,68,87,107,127,148,167,188,208,228,247,267,287,308,328,349,367,387,407,428,448,468,487,507,527,548,567,587,607,627,647,668,687,707,728,750,767,787,807,828,847,868,887,908,928,947,969,988,1008,1027,1047,1067,1087,1108,1127,1151,1170,1191,1207,1228,1249,1269,1287,1307,1327],"xSR":350,"ySR":768,"xT1":30,"yT1":0,"xT2":670,"yT2":0,"toosoon":0,"cond_shown":"equaldotanddens","ratio_trial":900,"smaller_num":"18","larger_num":"20","correct_side":1,"subjID":"41wm","gender":"No_gender","age":"No_age","school":"No_school"},{"start_time":1549382303347,"click_time":1549382305225,"finger_time":1549382305106,"fix_duration":459.41222937659643,"trial":18,"RT":1759,"MT":119,"sideResp":2,"stimulus":"img/900/equaldotsize/R/13_Ratio_900_L_18_R_20.png","xmouse":[392.66668701171875,392,392,392,392,392,392.66668701171875,392.66668701171875,392.66668701171875,392.66668701171875,392.66668701171875,392.66668701171875,392.66668701171875,392.66668701171875,393.3333435058594,393.3333435058594,393.3333435058594,393.3333435058594,393.3333435058594,393.3333435058594,394,394,394,394,394,394,394,394,394,394,394,394,394,394,394,394,394,394,394,394,394.66668701171875,394.66668701171875,394.66668701171875,394.66668701171875,394,394,394,394,394,394,394,394.66668701171875,394.66668701171875,394.66668701171875,394.66668701171875,394.66668701171875,394.66668701171875,394.66668701171875,394.66668701171875,394.66668701171875,394.66668701171875,394.66668701171875,394.66668701171875,394.66668701171875,394.66668701171875,394.66668701171875,394.66668701171875,394.66668701171875,394.66668701171875,394.66668701171875,394.66668701171875,394.66668701171875,394.66668701171875,394.66668701171875,394.66668701171875,394.66668701171875,394.66668701171875,394.66668701171875,394.66668701171875,394.66668701171875,394.66668701171875,394.66668701171875,394.66668701171875,394.66668701171875,394.66668701171875,394.66668701171875,394.66668701171875,442.66668701171875,474,490.66668701171875,532,610.6666870117188,666,691.3333740234375],"ymouse":[825.3333740234375,825.3333740234375,825.3333740234375,825.3333740234375,825.3333740234375,825.3333740234375,827.3333740234375,827.3333740234375,827.3333740234375,827.3333740234375,827.3333740234375,827.3333740234375,827.3333740234375,827.3333740234375,828.6666870117188,828.6666870117188,828.6666870117188,828.6666870117188,828.6666870117188,828.6666870117188,828.6666870117188,828.6666870117188,829.3333740234375,829.3333740234375,829.3333740234375,829.3333740234375,829.3333740234375,829.3333740234375,829.3333740234375,829.3333740234375,829.3333740234375,829.3333740234375,829.3333740234375,829.3333740234375,829.3333740234375,829.3333740234375,829.3333740234375,829.3333740234375,829.3333740234375,829.3333740234375,829.3333740234375,829.3333740234375,829.3333740234375,829.3333740234375,829.3333740234375,829.3333740234375,829.3333740234375,829.3333740234375,829.3333740234375,829.3333740234375,829.3333740234375,829.3333740234375,829.3333740234375,829.3333740234375,829.3333740234375,829.3333740234375,829.3333740234375,829.3333740234375,829.3333740234375,829.3333740234375,829.3333740234375,828.6666870117188,828.6666870117188,828.6666870117188,828.6666870117188,828.6666870117188,828.6666870117188,828.6666870117188,828.6666870117188,828.6666870117188,828.6666870117188,828.6666870117188,828.6666870117188,828.6666870117188,828.6666870117188,828.6666870117188,828.6666870117188,828.6666870117188,828.6666870117188,828.6666870117188,828.6666870117188,828,828,828,828,828,828,704,610,556,441.3333435058594,262,143.33334350585938,92.66667175292969],"timestamp_mouse":[9,42,58,78,98,118,138,158,178,198,218,238,259,278,299,318,338,358,378,398,421,438,458,479,498,518,538,558,578,598,624,638,658,678,699,718,738,758,779,799,820,838,858,879,898,918,938,958,978,998,1018,1038,1058,1078,1098,1118,1138,1158,1178,1198,1218,1238,1259,1278,1298,1319,1338,1358,1378,1399,1421,1438,1458,1478,1499,1518,1538,1558,1578,1598,1618,1640,1658,1678,1698,1718,1738,1758,1778,1798,1818,1838,1858,1878],"xSR":350,"ySR":768,"xT1":30,"yT1":0,"xT2":670,"yT2":0,"toosoon":0,"cond_shown":"equaldotsize","ratio_trial":900,"smaller_num":"18","larger_num":"20","correct_side":2,"subjID":"41wm","gender":"No_gender","age":"No_age","school":"No_school"},{"start_time":1549382306353,"click_time":1549382308425,"finger_time":1549382308245,"fix_duration":483.27621892773897,"trial":19,"RT":1892,"MT":180,"sideResp":2,"stimulus":"img/250/equaldotsize/R/10_Ratio_250_L_4_R_16.png","xmouse":[429.3333435058594,429.3333435058594,429.3333435058594,429.3333435058594,429.3333435058594,429.3333435058594,429.3333435058594,429.3333435058594,429.3333435058594,429.3333435058594,429.3333435058594,429.3333435058594,429.3333435058594,429.3333435058594,429.3333435058594,429.3333435058594,429.3333435058594,429.3333435058594,429.3333435058594,429.3333435058594,429.3333435058594,429.3333435058594,429.3333435058594,429.3333435058594,429.3333435058594,429.3333435058594,429.3333435058594,429.3333435058594,429.3333435058594,429.3333435058594,429.3333435058594,429.3333435058594,429.3333435058594,429.3333435058594,429.3333435058594,429.3333435058594,429.3333435058594,429.3333435058594,429.3333435058594,429.3333435058594,429.3333435058594,429.3333435058594,429.3333435058594,429.3333435058594,429.3333435058594,429.3333435058594,429.3333435058594,429.3333435058594,429.3333435058594,429.3333435058594,429.3333435058594,429.3333435058594,429.3333435058594,429.3333435058594,429.3333435058594,429.3333435058594,430,430,430,430,430,430,430,430,430,430,431.3333435058594,431.3333435058594,431.3333435058594,431.3333435058594,431.3333435058594,431.3333435058594,431.3333435058594,431.3333435058594,431.3333435058594,431.3333435058594,431.3333435058594,432,432,432,432,432,432,432,432,432,432,432.66668701171875,432.66668701171875,432.66668701171875,432.66668701171875,432.66668701171875,433.3333435058594,437.3333435058594,458.66668701171875,475.3333435058594,516.6666870117188,575.3333740234375,610,626.6666870117188,660,697.3333740234375,717.3333740234375,768],"ymouse":[816.6666870117188,816.6666870117188,816.6666870117188,816.6666870117188,816.6666870117188,816.6666870117188,814,814,814,814,814,814,814,814,814,814,813.3333740234375,813.3333740234375,813.3333740234375,813.3333740234375,813.3333740234375,813.3333740234375,813.3333740234375,813.3333740234375,813.3333740234375,813.3333740234375,812.6666870117188,812.6666870117188,812.6666870117188,812.6666870117188,812.6666870117188,812.6666870117188,812.6666870117188,812.6666870117188,812.6666870117188,812.6666870117188,812,812,812,812,812,812,812,812,812,812,810.6666870117188,810.6666870117188,810.6666870117188,810.6666870117188,810.6666870117188,810.6666870117188,810.6666870117188,810.6666870117188,810.6666870117188,810.6666870117188,808.6666870117188,808.6666870117188,808.6666870117188,808.6666870117188,808.6666870117188,808.6666870117188,808.6666870117188,808.6666870117188,808.6666870117188,808.6666870117188,806.6666870117188,806.6666870117188,806.6666870117188,806.6666870117188,806.6666870117188,806.6666870117188,806.6666870117188,806.6666870117188,806.6666870117188,806.6666870117188,806,805.3333740234375,805.3333740234375,804.6666870117188,804.6666870117188,804.6666870117188,804,804,804,804,803.3333740234375,803.3333740234375,803.3333740234375,803.3333740234375,802.6666870117188,802.6666870117188,802,793.3333740234375,749.3333740234375,710,612.6666870117188,478.66668701171875,396,355.3333435058594,274.66668701171875,204,167.33334350585938,95.33333587646484],"timestamp_mouse":[14,36,52,72,93,112,132,152,173,192,212,232,252,272,293,313,332,352,372,392,413,432,452,472,492,512,533,552,572,593,612,633,661,672,692,712,732,752,772,792,812,833,852,872,892,912,933,952,973,993,1013,1032,1052,1073,1093,1112,1132,1152,1172,1192,1212,1232,1252,1273,1296,1312,1332,1352,1372,1393,1412,1432,1453,1472,1492,1513,1532,1554,1572,1592,1612,1632,1653,1672,1693,1713,1733,1752,1772,1792,1812,1832,1854,1873,1892,1914,1933,1952,1972,1992,2012,2032,2052,2072],"xSR":350,"ySR":768,"xT1":30,"yT1":0,"xT2":670,"yT2":0,"toosoon":0,"cond_shown":"equaldotsize","ratio_trial":250,"smaller_num":"4","larger_num":"16","correct_side":2,"subjID":"41wm","gender":"No_gender","age":"No_age","school":"No_school"},{"start_time":1549382310490,"click_time":1549382315225,"finger_time":1549382311685,"fix_duration":1181.1785585346397,"trial":20,"RT":1195,"MT":3540,"sideResp":2,"stimulus":"img/900/randomdotsizeEA/L/4_Ratio_900_L_20_R_18.png","xmouse":[425.3333435058594,425.3333435058594,424.66668701171875,424.66668701171875,424.66668701171875,424.66668701171875,424.66668701171875,424.66668701171875,424.66668701171875,424.66668701171875,424.66668701171875,424.66668701171875,424.66668701171875,424.66668701171875,424.66668701171875,424.66668701171875,424.66668701171875,424.66668701171875,424.66668701171875,424.66668701171875,424.66668701171875,424.66668701171875,425.3333435058594,425.3333435058594,425.3333435058594,425.3333435058594,425.3333435058594,425.3333435058594,425.3333435058594,425.3333435058594,425.3333435058594,425.3333435058594,425.3333435058594,425.3333435058594,425.3333435058594,425.3333435058594,425.3333435058594,425.3333435058594,425.3333435058594,425.3333435058594,425.3333435058594,425.3333435058594,425.3333435058594,425.3333435058594,425.3333435058594,425.3333435058594,425.3333435058594,425.3333435058594,425.3333435058594,425.3333435058594,425.3333435058594,425.3333435058594,425.3333435058594,426,426,426,426,426,432,432.66668701171875,434.66668701171875,436.66668701171875,437.3333435058594,438.66668701171875,438.66668701171875,439.3333435058594,440,440.66668701171875,440.66668701171875,441.3333435058594,441.3333435058594,442,442,442.66668701171875,443.3333435058594,443.3333435058594,443.3333435058594,444,444,444,444,444,444,444.66668701171875,444.66668701171875,444.66668701171875,444.66668701171875,444.66668701171875,444.66668701171875,444.66668701171875,444.66668701171875,444.66668701171875,444.66668701171875,444.66668701171875,444.66668701171875,444.66668701171875,444.66668701171875,444.66668701171875,444.66668701171875,444.66668701171875,444.66668701171875,444.66668701171875,444.66668701171875,444.66668701171875,442.66668701171875,442.66668701171875,442.66668701171875,442.66668701171875,442.66668701171875,442.66668701171875,442.66668701171875,442,442.66668701171875,442.66668701171875,442.66668701171875,442.66668701171875,442.66668701171875,442.66668701171875,442.66668701171875,442.66668701171875,442.66668701171875,442.66668701171875,442.66668701171875,442.66668701171875,442.66668701171875,442.66668701171875,442.66668701171875,442.66668701171875,442.66668701171875,442.66668701171875,442.66668701171875,442.66668701171875,442.66668701171875,442.66668701171875,443.3333435058594,443.3333435058594,443.3333435058594,443.3333435058594,443.3333435058594,443.3333435058594,443.3333435058594,443.3333435058594,443.3333435058594,444,444,444,444,444,444,444,444,444,444,444,444,444,444,444,444,444.66668701171875,444.66668701171875,444.66668701171875,444.66668701171875,444.66668701171875,444.66668701171875,444.66668701171875,444.66668701171875,444.66668701171875,444.66668701171875,444.66668701171875,444.66668701171875,444.66668701171875,445.3333435058594,445.3333435058594,445.3333435058594,445.3333435058594,445.3333435058594,445.3333435058594,445.3333435058594,445.3333435058594,445.3333435058594,445.3333435058594,445.3333435058594,445.3333435058594,445.3333435058594,445.3333435058594,445.3333435058594,445.3333435058594,445.3333435058594,444.66668701171875,444.66668701171875,445.3333435058594,445.3333435058594,445.3333435058594,445.3333435058594,445.3333435058594,445.3333435058594,445.3333435058594,445.3333435058594,445.3333435058594,446,446.66668701171875,446.66668701171875,448,448,448.66668701171875,448.66668701171875,450,450.66668701171875,452,454,456,473.3333435058594,481.3333435058594,499.3333435058594,509.3333435058594,530.6666870117188,562.6666870117188,584,603.3333740234375,612.6666870117188,631.3333740234375,656.6666870117188,662,672.6666870117188,680.6666870117188,684.6666870117188,688,695.3333740234375,699.3333740234375,701.3333740234375,705.3333740234375,708,711.3333740234375,712,713.3333740234375,714.6666870117188],"ymouse":[787.3333740234375,787.3333740234375,785.3333740234375,785.3333740234375,785.3333740234375,785.3333740234375,785.3333740234375,785.3333740234375,785.3333740234375,785.3333740234375,785.3333740234375,785.3333740234375,784.6666870117188,784.6666870117188,784.6666870117188,784.6666870117188,784.6666870117188,784.6666870117188,784.6666870117188,784.6666870117188,784.6666870117188,784.6666870117188,784,784,784,784,784,784,784,784,784,784,782.6666870117188,782.6666870117188,782.6666870117188,782.6666870117188,782.6666870117188,782.6666870117188,782.6666870117188,782.6666870117188,782.6666870117188,782.6666870117188,781.3333740234375,781.3333740234375,781.3333740234375,781.3333740234375,781.3333740234375,781.3333740234375,781.3333740234375,781.3333740234375,781.3333740234375,781.3333740234375,781.3333740234375,780,780,780,780,780,768,766,761.3333740234375,756,754,751.3333740234375,750.6666870117188,749.3333740234375,748,746.6666870117188,746,745.3333740234375,744.6666870117188,743.3333740234375,742.6666870117188,742,741.3333740234375,741.3333740234375,740.6666870117188,740.6666870117188,740.6666870117188,740,740,740,740,739.3333740234375,739.3333740234375,738.6666870117188,738.6666870117188,738.6666870117188,738.6666870117188,738.6666870117188,738.6666870117188,738.6666870117188,738.6666870117188,739.3333740234375,739.3333740234375,739.3333740234375,739.3333740234375,738.6666870117188,738.6666870117188,738.6666870117188,738.6666870117188,738.6666870117188,738.6666870117188,738.6666870117188,737.3333740234375,737.3333740234375,737.3333740234375,737.3333740234375,737.3333740234375,737.3333740234375,737.3333740234375,736.6666870117188,736.6666870117188,736.6666870117188,736.6666870117188,736.6666870117188,736.6666870117188,736.6666870117188,736.6666870117188,736.6666870117188,736.6666870117188,736,735.3333740234375,735.3333740234375,735.3333740234375,734.6666870117188,734.6666870117188,734.6666870117188,734.6666870117188,734.6666870117188,734.6666870117188,734.6666870117188,734.6666870117188,734.6666870117188,734.6666870117188,734.6666870117188,734.6666870117188,734,734,734,733.3333740234375,733.3333740234375,733.3333740234375,733.3333740234375,733.3333740234375,733.3333740234375,733.3333740234375,732.6666870117188,732.6666870117188,732.6666870117188,732,732,732,732,731.3333740234375,731.3333740234375,731.3333740234375,731.3333740234375,731.3333740234375,730.6666870117188,730.6666870117188,730.6666870117188,730,730,730,730,730,729.3333740234375,729.3333740234375,729.3333740234375,729.3333740234375,729.3333740234375,728.6666870117188,728.6666870117188,728.6666870117188,728.6666870117188,728.6666870117188,728,728,728,728,727.3333740234375,727.3333740234375,727.3333740234375,727.3333740234375,726.6666870117188,726.6666870117188,726.6666870117188,726.6666870117188,726.6666870117188,726.6666870117188,726.6666870117188,726.6666870117188,726.6666870117188,726.6666870117188,726.6666870117188,726.6666870117188,726.6666870117188,726.6666870117188,726.6666870117188,726.6666870117188,726.6666870117188,726.6666870117188,726,725.3333740234375,724,722,718,715.3333740234375,710.6666870117188,704,696,642.6666870117188,622,578.6666870117188,554.6666870117188,506.66668701171875,433.3333435058594,384.66668701171875,340,318,281.3333435058594,234,222,198,179.33334350585938,171.33334350585938,155.33334350585938,139.33334350585938,130.6666717529297,126.66667175292969,120,113.33334350585938,106,104,100,96.66667175292969],"timestamp_mouse":[15,40,55,75,95,116,135,155,175,196,215,235,257,276,295,316,335,355,375,396,415,435,455,475,495,516,535,555,575,595,616,635,656,675,695,715,735,755,776,795,815,836,856,875,895,916,935,955,975,995,1016,1065,1065,1075,1095,1116,1136,1156,1174,1195,1215,1237,1257,1275,1295,1315,1335,1355,1375,1395,1415,1438,1455,1475,1495,1515,1537,1555,1575,1595,1615,1636,1655,1675,1695,1715,1736,1756,1775,1796,1816,1835,1855,1875,1895,1915,1935,1956,1975,1995,2015,2035,2055,2075,2095,2115,2137,2157,2175,2195,2215,2235,2261,2275,2295,2315,2335,2355,2375,2395,2415,2435,2456,2474,2495,2515,2535,2555,2575,2596,2615,2635,2655,2675,2695,2715,2735,2756,2775,2796,2815,2835,2855,2875,2895,2915,2935,2955,2975,2995,3015,3035,3055,3075,3095,3116,3136,3155,3175,3195,3215,3235,3258,3276,3295,3315,3336,3356,3375,3396,3415,3435,3458,3476,3495,3515,3536,3556,3575,3595,3615,3635,3656,3675,3695,3716,3736,3755,3775,3797,3815,3835,3855,3875,3895,3915,3936,3955,3977,3995,4015,4035,4055,4075,4095,4115,4135,4156,4176,4195,4215,4235,4258,4276,4296,4315,4335,4357,4375,4395,4415,4435,4457,4475,4495,4515,4535,4555,4576,4595,4615,4635,4655,4675,4695,4715,4735],"xSR":350,"ySR":768,"xT1":30,"yT1":0,"xT2":670,"yT2":0,"toosoon":0,"cond_shown":"randomdotsizeEA","ratio_trial":900,"smaller_num":"18","larger_num":"20","correct_side":1,"subjID":"41wm","gender":"No_gender","age":"No_age","school":"No_school"},{"start_time":1549382316799,"click_time":1549382318365,"finger_time":1549382318005,"fix_duration":250,"trial":21,"RT":1206,"MT":360,"sideResp":2,"stimulus":"img/250/randomdotsizeEA/R/6_Ratio_250_L_6_R_24.png","xmouse":[383.3333435058594,383.3333435058594,383.3333435058594,383.3333435058594,381.3333435058594,381.3333435058594,381.3333435058594,381.3333435058594,381.3333435058594,381.3333435058594,381.3333435058594,381.3333435058594,381.3333435058594,381.3333435058594,383.3333435058594,383.3333435058594,383.3333435058594,383.3333435058594,383.3333435058594,383.3333435058594,383.3333435058594,383.3333435058594,383.3333435058594,383.3333435058594,383.3333435058594,383.3333435058594,383.3333435058594,383.3333435058594,383.3333435058594,383.3333435058594,383.3333435058594,383.3333435058594,383.3333435058594,383.3333435058594,383.3333435058594,383.3333435058594,383.3333435058594,383.3333435058594,383.3333435058594,383.3333435058594,383.3333435058594,383.3333435058594,383.3333435058594,383.3333435058594,384,384,384,384,384,384,384,384,384,384,384.66668701171875,384.66668701171875,384.66668701171875,384.66668701171875,384.66668701171875,395.3333435058594,406.66668701171875,413.3333435058594,431.3333435058594,463.3333435058594,490,504,531.3333740234375,555.3333740234375,587.3333740234375,598,612,626,631.3333740234375,644,658.6666870117188,668,674.6666870117188,686.6666870117188,690.6666870117188],"ymouse":[820,820,820,820,816,816,816,816,816,816,816,816,816,816,816,816,816,816,816,816,816,816,816,816,814.6666870117188,814.6666870117188,814.6666870117188,814.6666870117188,814.6666870117188,814.6666870117188,814.6666870117188,814.6666870117188,814.6666870117188,814.6666870117188,813.3333740234375,813.3333740234375,813.3333740234375,813.3333740234375,813.3333740234375,813.3333740234375,813.3333740234375,813.3333740234375,813.3333740234375,813.3333740234375,811.3333740234375,811.3333740234375,811.3333740234375,811.3333740234375,811.3333740234375,811.3333740234375,811.3333740234375,811.3333740234375,811.3333740234375,811.3333740234375,808.6666870117188,808.6666870117188,808.6666870117188,808.6666870117188,808.6666870117188,780,742.6666870117188,722.6666870117188,678.6666870117188,602,540,508.66668701171875,448.66668701171875,396,320,297.3333435058594,259.3333435058594,229.33334350585938,214,184,152.6666717529297,132.6666717529297,122,104.66667175292969,97.33333587646484],"timestamp_mouse":[14,39,46,66,86,107,126,146,166,186,206,226,247,266,287,306,326,346,366,386,406,426,446,466,486,506,526,546,566,586,607,626,647,666,686,706,726,746,766,786,807,826,846,866,887,906,926,946,966,986,1006,1026,1046,1066,1088,1107,1126,1146,1167,1188,1206,1226,1246,1269,1287,1306,1326,1346,1368,1387,1406,1426,1446,1466,1486,1506,1526,1546,1566],"xSR":350,"ySR":768,"xT1":30,"yT1":0,"xT2":670,"yT2":0,"toosoon":0,"cond_shown":"randomdotsizeEA","ratio_trial":250,"smaller_num":"6","larger_num":"24","correct_side":2,"subjID":"41wm","gender":"No_gender","age":"No_age","school":"No_school"},{"start_time":1549382320431,"click_time":1549382321785,"finger_time":1549382321405,"fix_duration":1047.6133856086733,"trial":22,"RT":974,"MT":380,"sideResp":1,"stimulus":"img/250/equaldotanddens/L/15_Ratio_250_L_12_R_3.png","xmouse":[422,422,422,422,421.3333435058594,421.3333435058594,421.3333435058594,421.3333435058594,421.3333435058594,421.3333435058594,421.3333435058594,421.3333435058594,421.3333435058594,421.3333435058594,420.66668701171875,420.66668701171875,420.66668701171875,420.66668701171875,420.66668701171875,420.66668701171875,420.66668701171875,420.66668701171875,420.66668701171875,420.66668701171875,420,420,420,420,420,420,420,420,420,420,420,420,420,420,420,420,420,420,420,420,413.3333435058594,410,409.3333435058594,405.3333435058594,398,390.66668701171875,386,375.3333435058594,347.3333435058594,324,312,289.3333435058594,266.66668701171875,235.33334350585938,226.6666717529297,208.6666717529297,197.33334350585938,192,176.6666717529297,159.33334350585938,147.33334350585938,137.33334350585938,135.33334350585938,126.66667175292969],"ymouse":[800,800,800,800,800.6666870117188,800.6666870117188,800.6666870117188,800.6666870117188,800.6666870117188,800.6666870117188,800.6666870117188,800.6666870117188,800.6666870117188,800.6666870117188,800.6666870117188,800.6666870117188,800.6666870117188,800.6666870117188,800.6666870117188,800.6666870117188,800.6666870117188,800.6666870117188,800.6666870117188,800.6666870117188,800.6666870117188,800.6666870117188,800.6666870117188,800.6666870117188,800.6666870117188,800.6666870117188,800.6666870117188,800.6666870117188,800.6666870117188,800.6666870117188,800,800,800,800,800,800,800,800,800,800,792,790,788,776,709.3333740234375,655.3333740234375,634,591.3333740234375,520,465.3333435058594,438,386,337.3333435058594,272,250,212,181.33334350585938,167.33334350585938,139.33334350585938,103.33333587646484,80,58.66667175292969,52.66667175292969,38],"timestamp_mouse":[4,34,54,75,94,114,134,154,175,194,214,235,256,274,294,314,334,355,374,394,414,434,454,475,494,514,534,554,575,594,614,634,654,674,694,714,734,755,774,794,814,834,854,875,897,914,935,954,974,994,1014,1034,1056,1076,1094,1114,1134,1157,1176,1194,1214,1235,1255,1276,1294,1314,1334,1354],"xSR":350,"ySR":768,"xT1":30,"yT1":0,"xT2":670,"yT2":0,"toosoon":0,"cond_shown":"equaldotanddens","ratio_trial":250,"smaller_num":"3","larger_num":"12","correct_side":1,"subjID":"41wm","gender":"No_gender","age":"No_age","school":"No_school"},{"start_time":1549382323768,"click_time":1549382325406,"finger_time":1549382324508,"fix_duration":960.437528760109,"trial":23,"RT":740,"MT":898,"sideResp":1,"stimulus":"img/750/randomdotsize/L/1_Ratio_750_L_20_R_15.png","xmouse":[408.66668701171875,408.66668701171875,408.66668701171875,408.66668701171875,408.66668701171875,408.66668701171875,408.66668701171875,408.66668701171875,408.66668701171875,409.3333435058594,409.3333435058594,409.3333435058594,409.3333435058594,409.3333435058594,409.3333435058594,409.3333435058594,409.3333435058594,409.3333435058594,409.3333435058594,409.3333435058594,409.3333435058594,409.3333435058594,409.3333435058594,409.3333435058594,409.3333435058594,409.3333435058594,409.3333435058594,409.3333435058594,409.3333435058594,409.3333435058594,409.3333435058594,409.3333435058594,409.3333435058594,409.3333435058594,417.3333435058594,421.3333435058594,427.3333435058594,429.3333435058594,430.66668701171875,432,432.66668701171875,432.66668701171875,432.66668701171875,432.66668701171875,432.66668701171875,432.66668701171875,432.66668701171875,432.66668701171875,432.66668701171875,432.66668701171875,432.66668701171875,432.66668701171875,432.66668701171875,432.66668701171875,432.66668701171875,432,432,432,432,432,432,432,432,432,432,426,426,395.3333435058594,379.3333435058594,368,362,348,319.3333435058594,296,282.66668701171875,254.66668701171875,240,181.33334350585938,166,143.33334350585938,134.6666717529297,119.33333587646484],"ymouse":[808.6666870117188,808.6666870117188,808.6666870117188,808.6666870117188,808.6666870117188,808.6666870117188,808.6666870117188,808.6666870117188,808.6666870117188,808.6666870117188,808.6666870117188,808.6666870117188,808.6666870117188,808.6666870117188,808.6666870117188,808.6666870117188,808.6666870117188,808.6666870117188,808.6666870117188,808.6666870117188,808.6666870117188,808.6666870117188,808.6666870117188,808.6666870117188,808.6666870117188,808.6666870117188,808.6666870117188,808.6666870117188,808.6666870117188,807.3333740234375,807.3333740234375,807.3333740234375,807.3333740234375,807.3333740234375,785.3333740234375,774.6666870117188,760,752.6666870117188,750,746,745.3333740234375,744,744.6666870117188,744.6666870117188,744.6666870117188,745.3333740234375,745.3333740234375,745.3333740234375,745.3333740234375,745.3333740234375,745.3333740234375,745.3333740234375,745.3333740234375,745.3333740234375,745.3333740234375,747.3333740234375,747.3333740234375,747.3333740234375,747.3333740234375,747.3333740234375,747.3333740234375,747.3333740234375,747.3333740234375,747.3333740234375,747.3333740234375,746.6666870117188,746.6666870117188,695.3333740234375,652,598.6666870117188,566,492.66668701171875,376,304.66668701171875,266.66668701171875,204,178,91.33333587646484,72.66667175292969,41.333335876464844,29.333335876464844,14],"timestamp_mouse":[17,43,57,77,97,117,137,157,178,197,217,237,258,277,297,317,338,357,377,397,417,437,457,477,497,518,537,558,577,597,618,637,660,677,697,717,740,760,779,797,817,837,860,878,897,917,937,958,977,997,1017,1037,1057,1077,1098,1117,1138,1161,1177,1197,1217,1237,1257,1277,1297,1317,1338,1360,1379,1398,1417,1437,1457,1477,1497,1517,1537,1558,1578,1597,1617,1638],"xSR":350,"ySR":768,"xT1":30,"yT1":0,"xT2":670,"yT2":0,"toosoon":0,"cond_shown":"randomdotsize","ratio_trial":750,"smaller_num":"15","larger_num":"20","correct_side":1,"subjID":"41wm","gender":"No_gender","age":"No_age","school":"No_school"},{"start_time":1549382327471,"click_time":1549382328685,"finger_time":1549382328346,"fix_duration":1024.4897059404852,"trial":24,"RT":875,"MT":339,"sideResp":2,"stimulus":"img/250/equaldotanddens/R/4_Ratio_250_L_3_R_12.png","xmouse":[414.66668701171875,414.66668701171875,414.66668701171875,414.66668701171875,414.66668701171875,414.66668701171875,414.66668701171875,414.66668701171875,414.66668701171875,414.66668701171875,414.66668701171875,414.66668701171875,414.66668701171875,414.66668701171875,414.66668701171875,414.66668701171875,414.66668701171875,414.66668701171875,414.66668701171875,414.66668701171875,414.66668701171875,414.66668701171875,414.66668701171875,414.66668701171875,414.66668701171875,414.66668701171875,414.66668701171875,414.66668701171875,4