[{"start_time":1549381423896,"click_time":1549381425090,"finger_time":1549381423910,"fix_duration":798.5476962052217,"trial":0,"RT":14,"MT":1180,"sideResp":2,"stimulus":[],"xmouse":[403,403,403,403,403,403,403,403,403,403,403,403,403,403,403,403,403,403,403,403,403,403,403,403,403,403,403,403,403,403,403,403,403,403,403,403,403,403,403,403,403,403,403,403,403,403,403,403,403,403,403,403,403,403,403,403,403,403,403,727],"ymouse":[748,748,748,748,748,748,748,748,748,748,748,748,748,748,748,748,748,748,748,748,748,748,748,748,748,748,748,748,748,748,748,748,748,748,748,748,748,748,748,748,748,748,748,748,748,748,748,748,748,748,748,748,748,748,748,748,748,748,748,57],"timestamp_mouse":[13,32,52,72,92,112,132,152,172,192,212,232,252,272,292,312,332,352,372,392,412,432,452,472,492,512,532,552,572,592,612,632,652,672,692,712,732,752,771,792,812,832,852,872,894,912,932,952,972,991,1012,1032,1052,1072,1092,1111,1133,1152,1172,1192],"xSR":350,"ySR":696,"xT1":30,"yT1":0,"xT2":670,"yT2":0,"toosoon":0,"cond_shown":"Congruent","ratio_trial":100,"L_num":3,"L_den":6,"R_num":2,"R_den":5,"correct_side":1,"subjID":"42wm","gender":"No_gender","age":"No_age","school":"No_school","test":{"fix_dur":[250,1500],"timestim":900,"targets_dim":[100,100],"targets_relative_coord":[0.1,0.9],"size_stim":[880,420],"start_dim":[100,100],"size_start":[300,300],"size_fix":60,"samplingrate":20,"img_types":["Congruent","Incongruent"],"ratios":[100,200,300,500],"rep_conds":15,"nTrials":128,"trials_to_rest":500,"Trials_order":[120,82,29,89,124,73,68,83,21,42,9,20,121,37,17,69,100,50,75,14,76,53,110,80,62,31,94,122,111,25,63,118,67,27,43,47,48,35,24,85,3,125,87,95,12,78,8,26,46,38,108,104,115,96,44,113,28,57,58,39,126,5,18,71,36,74,6,64,91,40,41,11,98,13,93,49,114,81,66,10,107,127,0,22,97,77,60,15,105,2,59,112,52,7,84,117,86,123,54,32,99,101,61,72,65,16,116,102,79,90,109,56,34,106,70,45,51,119,92,103,23,55,4,88,30,1,19,33],"cond_shown":["Congruent","Congruent","Incongruent","Incongruent","Congruent","Incongruent","Congruent","Incongruent","Incongruent","Congruent","Incongruent","Congruent","Incongruent","Incongruent","Incongruent","Incongruent","Congruent","Congruent","Incongruent","Congruent","Congruent","Incongruent","Congruent","Congruent","Congruent","Incongruent","Congruent","Congruent","Incongruent","Incongruent","Incongruent","Congruent","Incongruent","Incongruent","Incongruent","Incongruent","Congruent","Incongruent","Congruent","Incongruent","Incongruent","Incongruent","Incongruent","Incongruent","Congruent","Congruent","Congruent","Congruent","Congruent","Congruent","Congruent","Congruent","Incongruent","Congruent","Congruent","Incongruent","Congruent","Incongruent","Congruent","Incongruent","Congruent","Incongruent","Congruent","Incongruent","Congruent","Congruent","Congruent","Congruent","Incongruent","Congruent","Incongruent","Incongruent","Congruent","Incongruent","Incongruent","Incongruent","Congruent","Incongruent","Congruent","Congruent","Incongruent","Incongruent","Congruent","Congruent","Incongruent","Incongruent","Congruent","Incongruent","Incongruent","Congruent","Incongruent","Congruent","Congruent","Incongruent","Congruent","Incongruent","Congruent","Incongruent","Congruent","Congruent","Incongruent","Incongruent","Incongruent","Congruent","Incongruent","Congruent","Congruent","Congruent","Incongruent","Congruent","Incongruent","Congruent","Congruent","Congruent","Congruent","Incongruent","Incongruent","Incongruent","Congruent","Incongruent","Incongruent","Incongruent","Congruent","Congruent","Congruent","Incongruent","Incongruent","Incongruent"],"ratio_trial":[100,200,300,100,300,100,300,200,300,200,100,300,100,300,100,300,300,200,200,500,300,300,500,100,500,500,500,200,500,100,500,500,200,200,200,500,100,200,100,300,200,300,500,500,300,500,100,200,500,500,300,100,200,100,300,100,300,100,200,500,500,300,200,500,300,200,500,100,200,100,100,200,200,300,300,100,200,100,200,200,200,500,100,500,100,300,300,500,100,200,200,100,300,500,300,300,500,200,500,100,200,300,300,100,100,100,300,500,500,200,300,100,200,200,500,300,200,500,300,500,500,500,300,100,500,100,200,100],"left_num":[3,14,13,17,11,2,5,7,4,15,9,20,12,7,3,4,5,16,9,15,4,13,25,3,6,7,8,15,2,10,7,2,14,7,7,7,9,7,3,1,14,4,7,7,12,18,8,8,10,12,12,11,3,2,24,9,8,6,8,2,3,4,3,5,18,3,21,11,9,1,11,4,3,13,4,8,21,6,11,14,7,7,8,2,9,4,8,2,3,1,7,3,1,7,8,4,18,7,2,4,11,4,4,10,11,3,20,4,7,20,7,2,15,13,2,4,7,7,8,5,5,7,20,8,1,13,4,12],"right_num":[2,6,12,10,1,6,7,14,2,4,20,13,2,8,8,2,7,9,8,5,13,12,9,4,1,5,4,4,4,9,5,7,6,4,4,5,8,8,2,3,6,6,9,9,2,1,2,7,7,4,2,6,1,11,8,6,1,11,3,4,15,8,7,6,9,14,6,6,8,3,9,6,14,12,2,6,2,7,3,6,8,9,2,12,20,2,10,4,4,21,8,4,8,5,1,2,1,14,7,15,3,2,2,3,9,4,13,12,5,9,8,6,4,14,4,2,6,5,1,6,6,5,13,2,12,12,14,2],"left_den":[6,28,26,30,22,4,25,10,20,25,10,25,30,10,5,20,25,30,15,18,20,26,30,20,9,21,12,25,3,25,21,24,30,15,15,21,15,10,6,2,30,5,8,8,24,27,16,15,13,18,24,22,10,5,30,18,16,10,15,3,12,5,10,6,20,10,28,22,15,2,22,5,6,26,20,16,30,10,22,28,10,8,16,8,10,20,15,3,6,2,10,20,30,21,16,20,27,10,24,10,20,20,20,25,22,20,25,24,21,25,10,5,25,26,12,20,15,21,16,6,6,21,25,16,4,26,6,30],"right_den":[5,20,15,15,5,15,14,28,4,10,25,26,4,20,16,4,14,27,10,15,26,15,27,16,6,6,24,10,24,18,6,12,9,6,6,6,16,16,5,15,9,12,24,24,10,6,5,21,26,24,10,15,2,22,16,10,5,22,9,24,20,16,14,18,15,28,24,15,10,5,15,10,20,15,4,10,4,14,10,20,16,24,5,16,25,4,12,24,10,30,16,16,24,6,5,4,6,28,12,30,4,4,4,10,15,16,26,18,6,15,20,12,10,20,6,4,9,6,5,18,18,6,26,5,16,20,30,4],"correct_side":[1,1,2,2,1,1,2,1,2,1,1,1,2,1,1,2,2,1,2,1,2,2,1,2,1,2,1,1,1,2,2,2,2,2,2,2,1,1,1,1,2,1,1,1,1,1,1,1,1,1,1,1,2,2,1,2,1,1,1,1,2,1,2,1,1,2,1,1,2,2,2,1,2,2,2,2,1,1,1,1,1,1,1,2,1,2,2,1,1,2,1,2,2,2,1,2,1,1,2,2,2,2,2,1,2,2,1,2,2,1,1,2,1,2,2,2,2,2,1,1,1,2,1,1,2,2,1,2],"img_shown":["img2/100/Congruent/L/C_Dist_100_LN_3_LD_6_RN_2_RD_5_0.png","img2/200/Congruent/L/C_Dist_200_LN_14_LD_28_RN_6_RD_20_0.png","img2/300/Incongruent/R/I_Dist_300_LN_13_LD_26_RN_12_RD_15_1.png","img2/100/Incongruent/R/I_Dist_100_LN_17_LD_30_RN_10_RD_15_1.png","img2/300/Congruent/L/C_Dist_300_LN_11_LD_22_RN_1_RD_5_0.png","img2/100/Incongruent/L/I_Dist_100_LN_2_LD_4_RN_6_RD_15_0.png","img2/300/Congruent/R/C_Dist_300_LN_5_LD_25_RN_7_RD_14_1.png","img2/200/Incongruent/L/I_Dist_200_LN_7_LD_10_RN_14_RD_28_0.png","img2/300/Incongruent/R/I_Dist_300_LN_4_LD_20_RN_2_RD_4_1.png","img2/200/Congruent/L/C_Dist_200_LN_15_LD_25_RN_4_RD_10_0.png","img2/100/Incongruent/L/I_Dist_100_LN_9_LD_10_RN_20_RD_25_0.png","img2/300/Congruent/L/C_Dist_300_LN_20_LD_25_RN_13_RD_26_0.png","img2/100/Incongruent/R/I_Dist_100_LN_12_LD_30_RN_2_RD_4_1.png","img2/300/Incongruent/L/I_Dist_300_LN_7_LD_10_RN_8_RD_20_0.png","img2/100/Incongruent/L/I_Dist_100_LN_3_LD_5_RN_8_RD_16_0.png","img2/300/Incongruent/R/I_Dist_300_LN_4_LD_20_RN_2_RD_4_1.png","img2/300/Congruent/R/C_Dist_300_LN_5_LD_25_RN_7_RD_14_1.png","img2/200/Congruent/L/C_Dist_200_LN_16_LD_30_RN_9_RD_27_0.png","img2/200/Incongruent/R/I_Dist_200_LN_9_LD_15_RN_8_RD_10_1.png","img2/500/Congruent/L/C_Dist_500_LN_15_LD_18_RN_5_RD_15_0.png","img2/300/Congruent/R/C_Dist_300_LN_4_LD_20_RN_13_RD_26_1.png","img2/300/Incongruent/R/I_Dist_300_LN_13_LD_26_RN_12_RD_15_1.png","img2/500/Congruent/L/C_Dist_500_LN_25_LD_30_RN_9_RD_27_0.png","img2/100/Congruent/R/C_Dist_100_LN_3_LD_20_RN_4_RD_16_1.png","img2/500/Congruent/L/C_Dist_500_LN_6_LD_9_RN_1_RD_6_0.png","img2/500/Incongruent/R/I_Dist_500_LN_7_LD_21_RN_5_RD_6_1.png","img2/500/Congruent/L/C_Dist_500_LN_8_LD_12_RN_4_RD_24_0.png","img2/200/Congruent/L/C_Dist_200_LN_15_LD_25_RN_4_RD_10_0.png","img2/500/Incongruent/L/I_Dist_500_LN_2_LD_3_RN_4_RD_24_0.png","img2/100/Incongruent/R/I_Dist_100_LN_10_LD_25_RN_9_RD_18_1.png","img2/500/Incongruent/R/I_Dist_500_LN_7_LD_21_RN_5_RD_6_1.png","img2/500/Congruent/R/C_Dist_500_LN_2_LD_24_RN_7_RD_12_1.png","img2/200/Incongruent/R/I_Dist_200_LN_14_LD_30_RN_6_RD_9_1.png","img2/200/Incongruent/R/I_Dist_200_LN_7_LD_15_RN_4_RD_6_1.png","img2/200/Incongruent/R/I_Dist_200_LN_7_LD_15_RN_4_RD_6_1.png","img2/500/Incongruent/R/I_Dist_500_LN_7_LD_21_RN_5_RD_6_1.png","img2/100/Congruent/L/C_Dist_100_LN_9_LD_15_RN_8_RD_16_0.png","img2/200/Incongruent/L/I_Dist_200_LN_7_LD_10_RN_8_RD_16_0.png","img2/100/Congruent/L/C_Dist_100_LN_3_LD_6_RN_2_RD_5_0.png","img2/300/Incongruent/L/I_Dist_300_LN_1_LD_2_RN_3_RD_15_0.png","img2/200/Incongruent/R/I_Dist_200_LN_14_LD_30_RN_6_RD_9_1.png","img2/300/Incongruent/L/I_Dist_300_LN_4_LD_5_RN_6_RD_12_0.png","img2/500/Incongruent/L/I_Dist_500_LN_7_LD_8_RN_9_RD_24_0.png","img2/500/Incongruent/L/I_Dist_500_LN_7_LD_8_RN_9_RD_24_0.png","img2/300/Congruent/L/C_Dist_300_LN_12_LD_24_RN_2_RD_10_0.png","img2/500/Congruent/L/C_Dist_500_LN_18_LD_27_RN_1_RD_6_0.png","img2/100/Congruent/L/C_Dist_100_LN_8_LD_16_RN_2_RD_5_0.png","img2/200/Congruent/L/C_Dist_200_LN_8_LD_15_RN_7_RD_21_0.png","img2/500/Congruent/L/C_Dist_500_LN_10_LD_13_RN_7_RD_26_0.png","img2/500/Congruent/L/C_Dist_500_LN_12_LD_18_RN_4_RD_24_0.png","img2/300/Congruent/L/C_Dist_300_LN_12_LD_24_RN_2_RD_10_0.png","img2/100/Congruent/L/C_Dist_100_LN_11_LD_22_RN_6_RD_15_0.png","img2/200/Incongruent/R/I_Dist_200_LN_3_LD_10_RN_1_RD_2_1.png","img2/100/Congruent/R/C_Dist_100_LN_2_LD_5_RN_11_RD_22_1.png","img2/300/Congruent/L/C_Dist_300_LN_24_LD_30_RN_8_RD_16_0.png","img2/100/Incongruent/R/I_Dist_100_LN_9_LD_18_RN_6_RD_10_1.png","img2/300/Congruent/L/C_Dist_300_LN_8_LD_16_RN_1_RD_5_0.png","img2/100/Incongruent/L/I_Dist_100_LN_6_LD_10_RN_11_RD_22_0.png","img2/200/Congruent/L/C_Dist_200_LN_8_LD_15_RN_3_RD_9_0.png","img2/500/Incongruent/L/I_Dist_500_LN_2_LD_3_RN_4_RD_24_0.png","img2/500/Congruent/R/C_Dist_500_LN_3_LD_12_RN_15_RD_20_1.png","img2/300/Incongruent/L/I_Dist_300_LN_4_LD_5_RN_8_RD_16_0.png","img2/200/Congruent/R/C_Dist_200_LN_3_LD_10_RN_7_RD_14_1.png","img2/500/Incongruent/L/I_Dist_500_LN_5_LD_6_RN_6_RD_18_0.png","img2/300/Congruent/L/C_Dist_300_LN_18_LD_20_RN_9_RD_15_0.png","img2/200/Congruent/R/C_Dist_200_LN_3_LD_10_RN_14_RD_28_1.png","img2/500/Congruent/L/C_Dist_500_LN_21_LD_28_RN_6_RD_24_0.png","img2/100/Congruent/L/C_Dist_100_LN_11_LD_22_RN_6_RD_15_0.png","img2/200/Incongruent/R/I_Dist_200_LN_9_LD_15_RN_8_RD_10_1.png","img2/100/Congruent/R/C_Dist_100_LN_1_LD_2_RN_3_RD_5_1.png","img2/100/Incongruent/R/I_Dist_100_LN_11_LD_22_RN_9_RD_15_1.png","img2/200/Incongruent/L/I_Dist_200_LN_4_LD_5_RN_6_RD_10_0.png","img2/200/Congruent/R/C_Dist_200_LN_3_LD_6_RN_14_RD_20_1.png","img2/300/Incongruent/R/I_Dist_300_LN_13_LD_26_RN_12_RD_15_1.png","img2/300/Incongruent/R/I_Dist_300_LN_4_LD_20_RN_2_RD_4_1.png","img2/100/Incongruent/R/I_Dist_100_LN_8_LD_16_RN_6_RD_10_1.png","img2/200/Congruent/L/C_Dist_200_LN_21_LD_30_RN_2_RD_4_0.png","img2/100/Incongruent/L/I_Dist_100_LN_6_LD_10_RN_7_RD_14_0.png","img2/200/Congruent/L/C_Dist_200_LN_11_LD_22_RN_3_RD_10_0.png","img2/200/Congruent/L/C_Dist_200_LN_14_LD_28_RN_6_RD_20_0.png","img2/200/Incongruent/L/I_Dist_200_LN_7_LD_10_RN_8_RD_16_0.png","img2/500/Incongruent/L/I_Dist_500_LN_7_LD_8_RN_9_RD_24_0.png","img2/100/Congruent/L/C_Dist_100_LN_8_LD_16_RN_2_RD_5_0.png","img2/500/Congruent/R/C_Dist_500_LN_2_LD_8_RN_12_RD_16_1.png","img2/100/Incongruent/L/I_Dist_100_LN_9_LD_10_RN_20_RD_25_0.png","img2/300/Incongruent/R/I_Dist_300_LN_4_LD_20_RN_2_RD_4_1.png","img2/300/Congruent/R/C_Dist_300_LN_8_LD_15_RN_10_RD_12_1.png","img2/500/Incongruent/L/I_Dist_500_LN_2_LD_3_RN_4_RD_24_0.png","img2/100/Incongruent/L/I_Dist_100_LN_3_LD_6_RN_4_RD_10_0.png","img2/200/Congruent/R/C_Dist_200_LN_1_LD_2_RN_21_RD_30_1.png","img2/200/Incongruent/L/I_Dist_200_LN_7_LD_10_RN_8_RD_16_0.png","img2/100/Congruent/R/C_Dist_100_LN_3_LD_20_RN_4_RD_16_1.png","img2/300/Congruent/R/C_Dist_300_LN_1_LD_30_RN_8_RD_24_1.png","img2/500/Incongruent/R/I_Dist_500_LN_7_LD_21_RN_5_RD_6_1.png","img2/300/Congruent/L/C_Dist_300_LN_8_LD_16_RN_1_RD_5_0.png","img2/300/Incongruent/R/I_Dist_300_LN_4_LD_20_RN_2_RD_4_1.png","img2/500/Congruent/L/C_Dist_500_LN_18_LD_27_RN_1_RD_6_0.png","img2/200/Incongruent/L/I_Dist_200_LN_7_LD_10_RN_14_RD_28_0.png","img2/500/Congruent/R/C_Dist_500_LN_2_LD_24_RN_7_RD_12_1.png","img2/100/Congruent/R/C_Dist_100_LN_4_LD_10_RN_15_RD_30_1.png","img2/200/Incongruent/R/I_Dist_200_LN_11_LD_20_RN_3_RD_4_1.png","img2/300/Incongruent/R/I_Dist_300_LN_4_LD_20_RN_2_RD_4_1.png","img2/300/Incongruent/R/I_Dist_300_LN_4_LD_20_RN_2_RD_4_1.png","img2/100/Congruent/L/C_Dist_100_LN_10_LD_25_RN_3_RD_10_0.png","img2/100/Incongruent/R/I_Dist_100_LN_11_LD_22_RN_9_RD_15_1.png","img2/100/Congruent/R/C_Dist_100_LN_3_LD_20_RN_4_RD_16_1.png","img2/300/Congruent/L/C_Dist_300_LN_20_LD_25_RN_13_RD_26_0.png","img2/500/Congruent/R/C_Dist_500_LN_4_LD_24_RN_12_RD_18_1.png","img2/500/Incongruent/R/I_Dist_500_LN_7_LD_21_RN_5_RD_6_1.png","img2/200/Congruent/L/C_Dist_200_LN_20_LD_25_RN_9_RD_15_0.png","img2/300/Incongruent/L/I_Dist_300_LN_7_LD_10_RN_8_RD_20_0.png","img2/100/Congruent/R/C_Dist_100_LN_2_LD_5_RN_6_RD_12_1.png","img2/200/Congruent/L/C_Dist_200_LN_15_LD_25_RN_4_RD_10_0.png","img2/200/Congruent/R/C_Dist_200_LN_13_LD_26_RN_14_RD_20_1.png","img2/500/Congruent/R/C_Dist_500_LN_2_LD_12_RN_4_RD_6_1.png","img2/300/Incongruent/R/I_Dist_300_LN_4_LD_20_RN_2_RD_4_1.png","img2/200/Incongruent/R/I_Dist_200_LN_7_LD_15_RN_6_RD_9_1.png","img2/500/Incongruent/R/I_Dist_500_LN_7_LD_21_RN_5_RD_6_1.png","img2/300/Congruent/L/C_Dist_300_LN_8_LD_16_RN_1_RD_5_0.png","img2/500/Incongruent/L/I_Dist_500_LN_5_LD_6_RN_6_RD_18_0.png","img2/500/Incongruent/L/I_Dist_500_LN_5_LD_6_RN_6_RD_18_0.png","img2/500/Incongruent/R/I_Dist_500_LN_7_LD_21_RN_5_RD_6_1.png","img2/300/Congruent/L/C_Dist_300_LN_20_LD_25_RN_13_RD_26_0.png","img2/100/Congruent/L/C_Dist_100_LN_8_LD_16_RN_2_RD_5_0.png","img2/500/Congruent/R/C_Dist_500_LN_1_LD_4_RN_12_RD_16_1.png","img2/100/Incongruent/R/I_Dist_100_LN_13_LD_26_RN_12_RD_20_1.png","img2/200/Incongruent/L/I_Dist_200_LN_4_LD_6_RN_14_RD_30_0.png","img2/100/Incongruent/R/I_Dist_100_LN_12_LD_30_RN_2_RD_4_1.png"],"dist100_C":[["C_Dist_100_LN_10_LD_25_RN_3_RD_10_0.png","C_Dist_100_LN_11_LD_22_RN_4_RD_10_0.png","C_Dist_100_LN_11_LD_22_RN_6_RD_15_0.png","C_Dist_100_LN_15_LD_25_RN_13_RD_26_0.png","C_Dist_100_LN_3_LD_6_RN_2_RD_5_0.png","C_Dist_100_LN_6_LD_20_RN_5_RD_25_0.png","C_Dist_100_LN_8_LD_16_RN_2_RD_5_0.png","C_Dist_100_LN_9_LD_15_RN_8_RD_16_0.png"],["C_Dist_100_LN_1_LD_2_RN_18_RD_30_1.png","C_Dist_100_LN_1_LD_2_RN_3_RD_5_1.png","C_Dist_100_LN_12_LD_30_RN_13_RD_26_1.png","C_Dist_100_LN_2_LD_5_RN_11_RD_22_1.png","C_Dist_100_LN_2_LD_5_RN_6_RD_12_1.png","C_Dist_100_LN_3_LD_20_RN_4_RD_16_1.png","C_Dist_100_LN_4_LD_10_RN_15_RD_30_1.png","C_Dist_100_LN_4_LD_8_RN_6_RD_10_1.png","C_Dist_100_LN_6_LD_12_RN_15_RD_25_1.png","C_Dist_100_LN_7_LD_14_RN_15_RD_25_1.png","C_Dist_100_LN_7_LD_14_RN_9_RD_15_1.png"]],"dist100_I":[["I_Dist_100_LN_1_LD_2_RN_8_RD_20_0.png","I_Dist_100_LN_2_LD_4_RN_6_RD_15_0.png","I_Dist_100_LN_2_LD_4_RN_8_RD_20_0.png","I_Dist_100_LN_3_LD_5_RN_11_RD_22_0.png","I_Dist_100_LN_3_LD_5_RN_8_RD_16_0.png","I_Dist_100_LN_3_LD_6_RN_4_RD_10_0.png","I_Dist_100_LN_3_LD_9_RN_7_RD_30_0.png","I_Dist_100_LN_4_LD_8_RN_8_RD_20_0.png","I_Dist_100_LN_6_LD_10_RN_11_RD_22_0.png","I_Dist_100_LN_6_LD_10_RN_13_RD_26_0.png","I_Dist_100_LN_6_LD_10_RN_7_RD_14_0.png","I_Dist_100_LN_9_LD_10_RN_20_RD_25_0.png","I_Dist_100_LN_9_LD_15_RN_13_RD_26_0.png","I_Dist_100_LN_9_LD_15_RN_14_RD_28_0.png"],["I_Dist_100_LN_10_LD_25_RN_8_RD_16_1.png","I_Dist_100_LN_10_LD_25_RN_9_RD_18_1.png","I_Dist_100_LN_11_LD_22_RN_9_RD_15_1.png","I_Dist_100_LN_12_LD_24_RN_9_RD_15_1.png","I_Dist_100_LN_12_LD_30_RN_2_RD_4_1.png","I_Dist_100_LN_13_LD_26_RN_12_RD_20_1.png","I_Dist_100_LN_13_LD_26_RN_6_RD_10_1.png","I_Dist_100_LN_17_LD_30_RN_10_RD_15_1.png","I_Dist_100_LN_6_LD_12_RN_3_RD_5_1.png","I_Dist_100_LN_8_LD_16_RN_6_RD_10_1.png","I_Dist_100_LN_8_LD_20_RN_1_RD_2_1.png","I_Dist_100_LN_9_LD_18_RN_6_RD_10_1.png"]],"dist100_S":[["E_Dist_100_LN_2_LD_12_RN_2_RD_30_0.png","E_Dist_100_LN_6_LD_10_RN_6_RD_12_0.png"],["E_Dist_100_LN_6_LD_12_RN_6_RD_10_1.png"]],"dist200_C":[["C_Dist_200_LN_11_LD_22_RN_3_RD_10_0.png","C_Dist_200_LN_12_LD_15_RN_6_RD_10_0.png","C_Dist_200_LN_12_LD_20_RN_6_RD_15_0.png","C_Dist_200_LN_14_LD_28_RN_6_RD_20_0.png","C_Dist_200_LN_15_LD_25_RN_4_RD_10_0.png","C_Dist_200_LN_16_LD_20_RN_12_RD_20_0.png","C_Dist_200_LN_16_LD_30_RN_9_RD_27_0.png","C_Dist_200_LN_20_LD_25_RN_9_RD_15_0.png","C_Dist_200_LN_21_LD_30_RN_2_RD_4_0.png","C_Dist_200_LN_4_LD_10_RN_3_RD_15_0.png","C_Dist_200_LN_4_LD_8_RN_3_RD_10_0.png","C_Dist_200_LN_6_LD_15_RN_3_RD_15_0.png","C_Dist_200_LN_7_LD_21_RN_2_RD_15_0.png","C_Dist_200_LN_8_LD_15_RN_2_RD_6_0.png","C_Dist_200_LN_8_LD_15_RN_3_RD_9_0.png","C_Dist_200_LN_8_LD_15_RN_7_RD_21_0.png","C_Dist_200_LN_9_LD_20_RN_4_RD_16_0.png"],["C_Dist_200_LN_1_LD_2_RN_21_RD_30_1.png","C_Dist_200_LN_13_LD_26_RN_14_RD_20_1.png","C_Dist_200_LN_3_LD_10_RN_11_RD_22_1.png","C_Dist_200_LN_3_LD_10_RN_14_RD_28_1.png","C_Dist_200_LN_3_LD_10_RN_7_RD_14_1.png","C_Dist_200_LN_3_LD_12_RN_9_RD_20_1.png","C_Dist_200_LN_3_LD_6_RN_14_RD_20_1.png","C_Dist_200_LN_5_LD_10_RN_14_RD_20_1.png","C_Dist_200_LN_6_LD_12_RN_7_RD_10_1.png","C_Dist_200_LN_6_LD_20_RN_11_RD_22_1.png","C_Dist_200_LN_7_LD_15_RN_18_RD_27_1.png","C_Dist_200_LN_9_LD_30_RN_13_RD_26_1.png"]],"dist200_I":[["I_Dist_200_LN_1_LD_2_RN_3_RD_10_0.png","I_Dist_200_LN_1_LD_3_RN_2_RD_15_0.png","I_Dist_200_LN_3_LD_4_RN_11_RD_20_0.png","I_Dist_200_LN_4_LD_5_RN_6_RD_10_0.png","I_Dist_200_LN_4_LD_6_RN_14_RD_30_0.png","I_Dist_200_LN_7_LD_10_RN_12_RD_24_0.png","I_Dist_200_LN_7_LD_10_RN_14_RD_28_0.png","I_Dist_200_LN_7_LD_10_RN_8_RD_16_0.png"],["I_Dist_200_LN_11_LD_20_RN_3_RD_4_1.png","I_Dist_200_LN_14_LD_30_RN_12_RD_18_1.png","I_Dist_200_LN_14_LD_30_RN_6_RD_9_1.png","I_Dist_200_LN_3_LD_10_RN_1_RD_2_1.png","I_Dist_200_LN_4_LD_30_RN_1_RD_3_1.png","I_Dist_200_LN_6_LD_20_RN_3_RD_6_1.png","I_Dist_200_LN_7_LD_15_RN_4_RD_6_1.png","I_Dist_200_LN_7_LD_15_RN_6_RD_9_1.png","I_Dist_200_LN_9_LD_15_RN_8_RD_10_1.png"]],"dist200_S":[["E_Dist_200_LN_3_LD_6_RN_3_RD_10_0.png"],["E_Dist_200_LN_3_LD_10_RN_3_RD_6_1.png"]],"dist300_C":[["C_Dist_300_LN_11_LD_22_RN_1_RD_5_0.png","C_Dist_300_LN_11_LD_22_RN_2_RD_10_0.png","C_Dist_300_LN_11_LD_22_RN_4_RD_20_0.png","C_Dist_300_LN_12_LD_24_RN_2_RD_10_0.png","C_Dist_300_LN_18_LD_20_RN_9_RD_15_0.png","C_Dist_300_LN_20_LD_25_RN_13_RD_26_0.png","C_Dist_300_LN_20_LD_25_RN_14_RD_28_0.png","C_Dist_300_LN_20_LD_25_RN_5_RD_10_0.png","C_Dist_300_LN_20_LD_25_RN_8_RD_16_0.png","C_Dist_300_LN_20_LD_25_RN_9_RD_18_0.png","C_Dist_300_LN_24_LD_30_RN_2_RD_4_0.png","C_Dist_300_LN_24_LD_30_RN_8_RD_16_0.png","C_Dist_300_LN_3_LD_6_RN_2_RD_10_0.png","C_Dist_300_LN_4_LD_10_RN_1_RD_10_0.png","C_Dist_300_LN_4_LD_5_RN_2_RD_4_0.png","C_Dist_300_LN_8_LD_16_RN_1_RD_5_0.png","C_Dist_300_LN_9_LD_10_RN_3_RD_5_0.png"],["C_Dist_300_LN_1_LD_20_RN_7_RD_20_1.png","C_Dist_300_LN_1_LD_3_RN_19_RD_30_1.png","C_Dist_300_LN_1_LD_30_RN_8_RD_24_1.png","C_Dist_300_LN_1_LD_5_RN_11_RD_22_1.png","C_Dist_300_LN_1_LD_5_RN_3_RD_6_1.png","C_Dist_300_LN_1_LD_5_RN_6_RD_12_1.png","C_Dist_300_LN_2_LD_10_RN_12_RD_24_1.png","C_Dist_300_LN_2_LD_20_RN_10_RD_25_1.png","C_Dist_300_LN_3_LD_12_RN_11_RD_20_1.png","C_Dist_300_LN_3_LD_6_RN_4_RD_5_1.png","C_Dist_300_LN_4_LD_20_RN_13_RD_26_1.png","C_Dist_300_LN_5_LD_25_RN_6_RD_12_1.png","C_Dist_300_LN_5_LD_25_RN_7_RD_14_1.png","C_Dist_300_LN_7_LD_14_RN_20_RD_25_1.png","C_Dist_300_LN_8_LD_15_RN_10_RD_12_1.png"]],"dist300_I":[["I_Dist_300_LN_1_LD_2_RN_2_RD_10_0.png","I_Dist_300_LN_1_LD_2_RN_3_RD_15_0.png","I_Dist_300_LN_2_LD_4_RN_6_RD_30_0.png","I_Dist_300_LN_3_LD_6_RN_4_RD_20_0.png","I_Dist_300_LN_4_LD_5_RN_6_RD_12_0.png","I_Dist_300_LN_4_LD_5_RN_8_RD_16_0.png","I_Dist_300_LN_7_LD_10_RN_8_RD_20_0.png","I_Dist_300_LN_8_LD_10_RN_14_RD_28_0.png","I_Dist_300_LN_8_LD_10_RN_9_RD_18_0.png"],["I_Dist_300_LN_13_LD_26_RN_12_RD_15_1.png","I_Dist_300_LN_4_LD_20_RN_2_RD_4_1.png"]],"dist300_S":[["E_Dist_300_LN_9_LD_12_RN_9_RD_20_0.png"],["E_Dist_300_LN_18_LD_30_RN_18_RD_20_1.png","E_Dist_300_LN_3_LD_10_RN_3_RD_5_1.png","E_Dist_300_LN_9_LD_20_RN_9_RD_12_1.png"]],"dist500_C":[["C_Dist_500_LN_10_LD_13_RN_7_RD_26_0.png","C_Dist_500_LN_10_LD_15_RN_4_RD_24_0.png","C_Dist_500_LN_12_LD_16_RN_3_RD_12_0.png","C_Dist_500_LN_12_LD_18_RN_4_RD_24_0.png","C_Dist_500_LN_15_LD_18_RN_5_RD_15_0.png","C_Dist_500_LN_15_LD_20_RN_1_RD_4_0.png","C_Dist_500_LN_18_LD_27_RN_1_RD_6_0.png","C_Dist_500_LN_20_LD_24_RN_1_RD_3_0.png","C_Dist_500_LN_20_LD_24_RN_3_RD_9_0.png","C_Dist_500_LN_20_LD_24_RN_7_RD_21_0.png","C_Dist_500_LN_20_LD_28_RN_3_RD_14_0.png","C_Dist_500_LN_21_LD_28_RN_6_RD_24_0.png","C_Dist_500_LN_22_LD_28_RN_2_RD_7_0.png","C_Dist_500_LN_25_LD_30_RN_9_RD_27_0.png","C_Dist_500_LN_4_LD_6_RN_1_RD_6_0.png","C_Dist_500_LN_5_LD_6_RN_2_RD_6_0.png","C_Dist_500_LN_6_LD_9_RN_1_RD_6_0.png","C_Dist_500_LN_7_LD_10_RN_1_RD_5_0.png","C_Dist_500_LN_8_LD_12_RN_1_RD_6_0.png","C_Dist_500_LN_8_LD_12_RN_4_RD_24_0.png"],["C_Dist_500_LN_1_LD_4_RN_12_RD_16_1.png","C_Dist_500_LN_1_LD_4_RN_9_RD_12_1.png","C_Dist_500_LN_1_LD_9_RN_11_RD_18_1.png","C_Dist_500_LN_10_LD_24_RN_22_RD_24_1.png","C_Dist_500_LN_2_LD_12_RN_10_RD_15_1.png","C_Dist_500_LN_2_LD_12_RN_12_RD_18_1.png","C_Dist_500_LN_2_LD_12_RN_4_RD_6_1.png","C_Dist_500_LN_2_LD_24_RN_7_RD_12_1.png","C_Dist_500_LN_2_LD_5_RN_18_RD_20_1.png","C_Dist_500_LN_2_LD_5_RN_9_RD_10_1.png","C_Dist_500_LN_2_LD_8_RN_12_RD_16_1.png","C_Dist_500_LN_2_LD_8_RN_21_RD_28_1.png","C_Dist_500_LN_3_LD_10_RN_4_RD_5_1.png","C_Dist_500_LN_3_LD_12_RN_15_RD_20_1.png","C_Dist_500_LN_3_LD_30_RN_6_RD_10_1.png","C_Dist_500_LN_3_LD_8_RN_14_RD_16_1.png","C_Dist_500_LN_4_LD_16_RN_15_RD_20_1.png","C_Dist_500_LN_4_LD_24_RN_12_RD_18_1.png","C_Dist_500_LN_5_LD_14_RN_6_RD_7_1.png","C_Dist_500_LN_7_LD_21_RN_20_RD_24_1.png","C_Dist_500_LN_7_LD_28_RN_12_RD_16_1.png","C_Dist_500_LN_7_LD_28_RN_9_RD_12_1.png","C_Dist_500_LN_9_LD_27_RN_20_RD_24_1.png"]],"dist500_I":[["I_Dist_500_LN_2_LD_3_RN_4_RD_24_0.png","I_Dist_500_LN_5_LD_6_RN_6_RD_18_0.png","I_Dist_500_LN_7_LD_8_RN_9_RD_24_0.png"],["I_Dist_500_LN_7_LD_21_RN_5_RD_6_1.png"]],"dist500_S":[["E_Dist_500_LN_6_LD_8_RN_6_RD_24_0.png"],["E_Dist_500_LN_2_LD_12_RN_2_RD_3_1.png","E_Dist_500_LN_6_LD_24_RN_6_RD_8_1.png"]]}},{"start_time":1549381429621,"click_time":1549381432989,"finger_time":1549381432408,"fix_duration":250,"trial":1,"RT":2787,"MT":581,"sideResp":1,"stimulus":[],"xmouse":[423.3333435058594,423.3333435058594,423.3333435058594,423.3333435058594,423.3333435058594,423.3333435058594,423.3333435058594,424,424,424,424,424,424,424,426.66668701171875,426.66668701171875,427.3333435058594,428,428.66668701171875,429.3333435058594,429.3333435058594,430,430,430.66668701171875,430.66668701171875,431.3333435058594,431.3333435058594,430.66668701171875,430.66668701171875,430.66668701171875,430,430,430,430,430,430,430,430,430,430,429.3333435058594,429.3333435058594,429.3333435058594,429.3333435058594,429.3333435058594,429.3333435058594,429.3333435058594,429.3333435058594,429.3333435058594,429.3333435058594,429.3333435058594,429.3333435058594,428.66668701171875,428.66668701171875,428.66668701171875,428.66668701171875,428.66668701171875,428.66668701171875,428.66668701171875,428.66668701171875,428.66668701171875,428.66668701171875,428.66668701171875,428.66668701171875,428.66668701171875,428.66668701171875,428.66668701171875,428.66668701171875,428.66668701171875,428.66668701171875,428.66668701171875,428.66668701171875,428.66668701171875,428.66668701171875,428.66668701171875,428.66668701171875,428.66668701171875,428.66668701171875,428.66668701171875,428.66668701171875,428.66668701171875,428.66668701171875,428.66668701171875,428.66668701171875,428.66668701171875,428.66668701171875,428.66668701171875,428.66668701171875,428.66668701171875,428.66668701171875,428.66668701171875,428.66668701171875,428.66668701171875,428.66668701171875,428.66668701171875,428.66668701171875,428.66668701171875,428.66668701171875,428.66668701171875,428.66668701171875,428.66668701171875,428.66668701171875,428,428,428,428,428,428,428,428,428,428,428,428,428,428,428,428,428,428,428,428,426.66668701171875,426.66668701171875,426.66668701171875,426.66668701171875,426.66668701171875,426.66668701171875,426.66668701171875,426.66668701171875,426.66668701171875,426.66668701171875,423.3333435058594,423.3333435058594,423.3333435058594,423.3333435058594,423.3333435058594,423.3333435058594,410.66668701171875,405.3333435058594,396,376,367.3333435058594,363.3333435058594,350,336,320.66668701171875,317.3333435058594,305.3333435058594,298.66668701171875,282,267.3333435058594,258,254,246,238,212,204.6666717529297,196.6666717529297,190.6666717529297,178,168,157.33334350585938,150.6666717529297,143.33334350585938,141.33334350585938,130.6666717529297,127.33334350585938],"ymouse":[808.6666870117188,808.6666870117188,808.6666870117188,808.6666870117188,808.6666870117188,808.6666870117188,808.6666870117188,808.6666870117188,808.6666870117188,808.6666870117188,808.6666870117188,808.6666870117188,808.6666870117188,808.6666870117188,808.6666870117188,808.6666870117188,808.6666870117188,808.6666870117188,808.6666870117188,808.6666870117188,808.6666870117188,808.6666870117188,808.6666870117188,808.6666870117188,808.6666870117188,808.6666870117188,808.6666870117188,808.6666870117188,808.6666870117188,808.6666870117188,808.6666870117188,808.6666870117188,808.6666870117188,808.6666870117188,808.6666870117188,808.6666870117188,808.6666870117188,808.6666870117188,808.6666870117188,808.6666870117188,808.6666870117188,808.6666870117188,808.6666870117188,808.6666870117188,808.6666870117188,808.6666870117188,808.6666870117188,808.6666870117188,808.6666870117188,808.6666870117188,808.6666870117188,808.6666870117188,808.6666870117188,808.6666870117188,808.6666870117188,808.6666870117188,808.6666870117188,808.6666870117188,808.6666870117188,808.6666870117188,808.6666870117188,808.6666870117188,808.6666870117188,808.6666870117188,808.6666870117188,808.6666870117188,808.6666870117188,808.6666870117188,808.6666870117188,808.6666870117188,808.6666870117188,808.6666870117188,808,808,808,808,808,808,808,808,808,808,808.6666870117188,808.6666870117188,808.6666870117188,808.6666870117188,808.6666870117188,808.6666870117188,808.6666870117188,808.6666870117188,808.6666870117188,808.6666870117188,808.6666870117188,808.6666870117188,808.6666870117188,808.6666870117188,808.6666870117188,808.6666870117188,808.6666870117188,808.6666870117188,808.6666870117188,808.6666870117188,809.3333740234375,809.3333740234375,809.3333740234375,809.3333740234375,809.3333740234375,809.3333740234375,809.3333740234375,809.3333740234375,809.3333740234375,809.3333740234375,809.3333740234375,809.3333740234375,809.3333740234375,809.3333740234375,809.3333740234375,809.3333740234375,809.3333740234375,809.3333740234375,809.3333740234375,809.3333740234375,808.6666870117188,808.6666870117188,808.6666870117188,808.6666870117188,808.6666870117188,808.6666870117188,808.6666870117188,808.6666870117188,808.6666870117188,808.6666870117188,802,802,802,802,802,802,747.3333740234375,738,714.6666870117188,664.6666870117188,638.6666870117188,627.3333740234375,602.6666870117188,562.6666870117188,536.6666870117188,524.6666870117188,497.3333740234375,482,444,416,387.3333435058594,374,344.66668701171875,327.3333435058594,262,244.66668701171875,222.6666717529297,206,184,158,138,127.33334350585938,114,111.33333587646484,94,90],"timestamp_mouse":[15,64,67,87,107,127,147,167,186,207,226,247,267,287,307,327,347,367,387,408,427,448,467,487,506,528,547,567,587,607,628,647,667,687,707,727,747,767,787,806,827,847,867,886,906,927,947,967,987,1007,1027,1047,1067,1087,1107,1126,1147,1167,1187,1208,1227,1247,1267,1287,1308,1327,1347,1367,1387,1407,1427,1447,1468,1487,1507,1527,1547,1567,1587,1607,1627,1647,1667,1687,1707,1727,1747,1767,1787,1807,1827,1847,1867,1887,1908,1927,1947,1967,1987,2007,2027,2047,2066,2087,2107,2127,2147,2167,2187,2207,2227,2247,2267,2287,2307,2327,2347,2367,2387,2407,2427,2447,2467,2488,2507,2527,2547,2567,2587,2607,2626,2647,2667,2687,2707,2727,2749,2767,2787,2807,2826,2848,2867,2887,2907,2927,2947,2967,2986,3007,3029,3047,3066,3086,3107,3127,3150,3167,3186,3207,3227,3248,3267,3287,3307,3326,3350,3367],"xSR":350,"ySR":768,"xT1":30,"yT1":0,"xT2":670,"yT2":0,"toosoon":0,"cond_shown":"Congruent","ratio_trial":200,"L_num":14,"L_den":28,"R_num":6,"R_den":20,"correct_side":1,"subjID":"42wm","gender":"No_gender","school":"No_school","age":"No_age"},{"start_time":1549381436865,"click_time":1549381438928,"finger_time":1549381438411,"fix_duration":1145.9560223406,"trial":2,"RT":1546,"MT":517,"sideResp":2,"stimulus":[],"xmouse":[413,413,413,413,413,413,413,413,413,413,413,413,413,413,413,413,413,413,413,413,413,413,413,413,413,413,413,413,413,413,413,413,413,413,413,413,413,413,413,413,413,413,413,413,413,413,413,413,413,413,413,413,413,413,413,413,413,413,413,413,413,413,413,413,413,413,413,413,413,413,413,413,420.66668701171875,423.3333435058594,428,441.3333435058594,455.3333435058594,462.66668701171875,482,500,538.6666870117188,550.6666870117188,574.6666870117188,597.3333740234375,604,625.3333740234375,629.3333740234375,632,633.3333740234375,636,646.6666870117188,650,654.6666870117188,660,660.6666870117188,664.6666870117188,678,682,684.6666870117188,686.6666870117188,688.6666870117188,692.6666870117188,700.6666870117188],"ymouse":[816,816,816,816,816,816,816,816,816,816,816,816,816,816,816,816,816,816,816,816,816,816,816,816,816,816,816,816,816,816,816,816,816,816,816,816,816,816,816,816,816,816,816,816,816,816,816,816,816,816,816,816,816,816,816,816,816,816,816,816,816,816,816,816,816,816,816,816,816,816,816,816,818.6666870117188,817.3333740234375,814,796,764,743.3333740234375,701.3333740234375,652,561.3333740234375,531.3333740234375,482,434.66668701171875,410,358,338.66668701171875,326.66668701171875,313.3333435058594,297.3333435058594,262.66668701171875,254.66668701171875,233.33334350585938,212,202,179.33334350585938,148,136,128.6666717529297,118.66667175292969,114.66667175292969,105.33333587646484,94],"timestamp_mouse":[2,45,63,83,103,123,143,163,183,203,223,243,263,283,303,323,343,363,383,403,423,443,464,483,503,523,544,563,583,603,623,643,663,684,703,723,743,763,783,803,823,843,863,883,903,923,943,963,982,1003,1023,1043,1063,1083,1103,1123,1143,1163,1183,1204,1223,1243,1263,1283,1303,1323,1343,1363,1384,1403,1423,1443,1463,1483,1504,1526,1546,1563,1583,1603,1623,1643,1662,1683,1703,1726,1743,1763,1783,1803,1825,1845,1864,1883,1902,1923,1947,1963,1983,2003,2023,2042,2063],"xSR":350,"ySR":768,"xT1":30,"yT1":0,"xT2":670,"yT2":0,"toosoon":0,"cond_shown":"Incongruent","ratio_trial":300,"L_num":13,"L_den":26,"R_num":12,"R_den":15,"correct_side":2,"subjID":"42wm","gender":"No_gender","school":"No_school","age":"No_age"},{"start_time":1549381441851,"click_time":1549381444030,"finger_time":1549381443329,"fix_duration":1201.1210572411023,"trial":3,"RT":1478,"MT":701,"sideResp":2,"stimulus":[],"xmouse":[396,396,396,395.3333435058594,395.3333435058594,395.3333435058594,395.3333435058594,395.3333435058594,395.3333435058594,395.3333435058594,395.3333435058594,395.3333435058594,394.66668701171875,394.66668701171875,394.66668701171875,394.66668701171875,394.66668701171875,394.66668701171875,394.66668701171875,394.66668701171875,394.66668701171875,394.66668701171875,394.66668701171875,394.66668701171875,394.66668701171875,394.66668701171875,394.66668701171875,394.66668701171875,394.66668701171875,394.66668701171875,394.66668701171875,394.66668701171875,394.66668701171875,394.66668701171875,394.66668701171875,394.66668701171875,394.66668701171875,394.66668701171875,394.66668701171875,394.66668701171875,394.66668701171875,394.66668701171875,394.66668701171875,394.66668701171875,394.66668701171875,394.66668701171875,394.66668701171875,394.66668701171875,394,394,394,394,394,394,394,394,394,394,394,394,394,394,394,394,394,394,394,394,402,402,402,402,402,445.3333435058594,450,456,459.3333435058594,464.66668701171875,470,471.3333435058594,471.3333435058594,470.66668701171875,470,470,470,470,470,470,470,469.3333435058594,470,470,479.3333435058594,484.66668701171875,508,526,538,556,588.6666870117188,612,626,648.6666870117188,668.6666870117188,693.3333740234375,701.3333740234375,712.6666870117188,716,718.6666870117188,721.3333740234375],"ymouse":[819.3333740234375,819.3333740234375,819.3333740234375,819.3333740234375,819.3333740234375,819.3333740234375,819.3333740234375,819.3333740234375,819.3333740234375,819.3333740234375,819.3333740234375,819.3333740234375,819.3333740234375,819.3333740234375,819.3333740234375,819.3333740234375,819.3333740234375,819.3333740234375,819.3333740234375,819.3333740234375,819.3333740234375,819.3333740234375,819.3333740234375,819.3333740234375,819.3333740234375,819.3333740234375,819.3333740234375,819.3333740234375,819.3333740234375,819.3333740234375,819.3333740234375,819.3333740234375,819.3333740234375,819.3333740234375,819.3333740234375,819.3333740234375,819.3333740234375,819.3333740234375,819.3333740234375,819.3333740234375,819.3333740234375,819.3333740234375,819.3333740234375,819.3333740234375,819.3333740234375,819.3333740234375,819.3333740234375,819.3333740234375,819.3333740234375,819.3333740234375,819.3333740234375,819.3333740234375,819.3333740234375,819.3333740234375,819.3333740234375,819.3333740234375,819.3333740234375,819.3333740234375,818.6666870117188,818.6666870117188,818.6666870117188,818.6666870117188,818.6666870117188,818.6666870117188,818.6666870117188,818.6666870117188,818.6666870117188,818.6666870117188,810.6666870117188,810.6666870117188,810.6666870117188,810.6666870117188,810.6666870117188,757.3333740234375,750,739.3333740234375,734,724,713.3333740234375,710,708.6666870117188,708,707.3333740234375,707.3333740234375,707.3333740234375,707.3333740234375,707.3333740234375,707.3333740234375,707.3333740234375,704.6666870117188,703.3333740234375,703.3333740234375,680.6666870117188,664.6666870117188,602,558,535.3333740234375,486,411.3333435058594,354.66668701171875,328.66668701171875,278,234.6666717529297,177.33334350585938,160,132,119.33334350585938,106.66667175292969,98],"timestamp_mouse":[17,51,57,77,97,117,136,157,177,197,217,237,260,277,297,316,337,357,376,397,417,437,457,477,497,517,537,557,577,596,617,637,657,677,697,717,737,758,777,797,818,837,857,877,897,917,938,957,977,996,1017,1037,1057,1077,1097,1117,1137,1157,1177,1196,1218,1237,1257,1276,1297,1316,1337,1357,1377,1397,1417,1437,1457,1478,1497,1517,1537,1557,1578,1597,1617,1637,1657,1678,1697,1716,1737,1757,1777,1797,1817,1837,1857,1877,1897,1917,1937,1957,1978,1997,2016,2037,2057,2077,2097,2117,2137,2157,2178],"xSR":350,"ySR":768,"xT1":30,"yT1":0,"xT2":670,"yT2":0,"toosoon":0,"cond_shown":"Incongruent","ratio_trial":100,"L_num":17,"L_den":30,"R_num":10,"R_den":15,"correct_side":2,"subjID":"42wm","gender":"No_gender","school":"No_school","age":"No_age"},{"start_time":1549381445860,"click_time":1549381448029,"finger_time":1549381447571,"fix_duration":250,"trial":4,"RT":1711,"MT":458,"sideResp":1,"stimulus":[],"xmouse":[396,396,396,396,396,396,396,396,396,396.66668701171875,396.66668701171875,396.66668701171875,396.66668701171875,396.66668701171875,396.66668701171875,396.66668701171875,396.66668701171875,396.66668701171875,396.66668701171875,396.66668701171875,398,398,398,398,398,393.3333435058594,392.66668701171875,392.66668701171875,392.66668701171875,392.66668701171875,392.66668701171875,392.66668701171875,393.3333435058594,393.3333435058594,393.3333435058594,393.3333435058594,393.3333435058594,393.3333435058594,393.3333435058594,393.3333435058594,394,394,394,394,394,394,394,394,394,394,396.66668701171875,396.66668701171875,396.66668701171875,396.66668701171875,396.66668701171875,396.66668701171875,396.66668701171875,396.66668701171875,396.66668701171875,396.66668701171875,397.3333435058594,397.3333435058594,397.3333435058594,397.3333435058594,397.3333435058594,397.3333435058594,397.3333435058594,397.3333435058594,397.3333435058594,397.3333435058594,394,394,394,394,394,394,394,394,394,394,394,389.3333435058594,388,384.66668701171875,377.3333435058594,373.3333435058594,373.3333435058594,373.3333435058594,373.3333435058594,373.3333435058594,378,378,378,361.3333435058594,348.66668701171875,330.66668701171875,322.66668701171875,303.3333435058594,289.3333435058594,266.66668701171875,224.6666717529297,199.33334350585938,184.6666717529297,158.6666717529297,128.6666717529297,112.66667175292969,108.66667175292969,99.33333587646484,95.33333587646484],"ymouse":[808,808,808,808.6666870117188,808.6666870117188,808.6666870117188,808.6666870117188,808.6666870117188,809.3333740234375,809.3333740234375,810,810,810,810,810,810,810,810,810,810,811.3333740234375,811.3333740234375,811.3333740234375,811.3333740234375,811.3333740234375,810.6666870117188,810.6666870117188,811.3333740234375,811.3333740234375,812,812,812,812,812,812,812,812,812,812,812,812,812,812,812,812,812,812,812,812,812,813.3333740234375,813.3333740234375,813.3333740234375,813.3333740234375,813.3333740234375,813.3333740234375,813.3333740234375,813.3333740234375,813.3333740234375,813.3333740234375,814,814,814,814,814,814,814,814,814,814,812,812,812,812,812,812,812,812,812,812,812,798.6666870117188,797.3333740234375,792,772,740.6666870117188,740.6666870117188,740.6666870117188,740.6666870117188,740.6666870117188,677.3333740234375,677.3333740234375,677.3333740234375,630.6666870117188,597.3333740234375,556,541.3333740234375,501.3333740234375,475.3333435058594,421.3333435058594,330.66668701171875,282,252,210,164.6666717529297,140.6666717529297,133.33334350585938,110.66667175292969,98.66667175292969],"timestamp_mouse":[15,42,48,68,88,108,128,148,168,188,208,227,247,268,288,308,328,348,367,388,408,428,448,468,487,508,527,548,568,588,608,628,648,668,688,708,728,748,768,788,808,828,848,869,891,908,928,948,968,990,1011,1028,1048,1068,1091,1108,1127,1148,1168,1188,1208,1228,1248,1268,1288,1309,1328,1348,1368,1388,1408,1428,1448,1468,1488,1508,1528,1548,1568,1587,1607,1628,1648,1667,1692,1711,1728,1748,1768,1788,1812,1828,1848,1868,1888,1909,1928,1948,1968,1987,2008,2028,2048,2068,2090,2109,2129,2148,2168],"xSR":350,"ySR":768,"xT1":30,"yT1":0,"xT2":670,"yT2":0,"toosoon":0,"cond_shown":"Congruent","ratio_trial":300,"L_num":11,"L_den":22,"R_num":1,"R_den":5,"correct_side":1,"subjID":"42wm","gender":"No_gender","school":"No_school","age":"No_age"},{"start_time":1549381450237,"click_time":1549381452029,"finger_time":1549381451628,"fix_duration":787.2642541075089,"trial":5,"RT":1391,"MT":401,"sideResp":2,"stimulus":[],"xmouse":[413.3333435058594,413.3333435058594,419.3333435058594,420.66668701171875,420.66668701171875,420.66668701171875,420,419.3333435058594,418.66668701171875,418.66668701171875,418.66668701171875,418.66668701171875,418,418,418,418,418,418,418,418,418,418,418,418,418,418,418,418,420.66668701171875,420.66668701171875,420.66668701171875,420.66668701171875,420.66668701171875,420.66668701171875,420.66668701171875,420.66668701171875,420.66668701171875,420.66668701171875,420,420,420,420,420,420,420,420,420,420,420,420,420,420,420,419.3333435058594,419.3333435058594,419.3333435058594,419.3333435058594,419.3333435058594,419.3333435058594,419.3333435058594,419.3333435058594,419.3333435058594,419.3333435058594,418,418,418,418,424,428.66668701171875,442.66668701171875,452,471.3333435058594,502.66668701171875,520.6666870117188,528.6666870117188,543.3333740234375,546,560,566.6666870117188,574.6666870117188,584.6666870117188,605.3333740234375,630.6666870117188,637.3333740234375,650,657.3333740234375,662.6666870117188,680,696.6666870117188,711.3333740234375],"ymouse":[818,818,824,824.6666870117188,825.3333740234375,826,826.6666870117188,827.3333740234375,827.3333740234375,828,828,828,828.6666870117188,828.6666870117188,828.6666870117188,828,828,828,827.3333740234375,827.3333740234375,827.3333740234375,827.3333740234375,827.3333740234375,827.3333740234375,827.3333740234375,827.3333740234375,827.3333740234375,827.3333740234375,828.6666870117188,828.6666870117188,828.6666870117188,828.6666870117188,828.6666870117188,828.6666870117188,828.6666870117188,828.6666870117188,828.6666870117188,828.6666870117188,828.6666870117188,828.6666870117188,828.6666870117188,828.6666870117188,828.6666870117188,828.6666870117188,828.6666870117188,828.6666870117188,828.6666870117188,828.6666870117188,828.6666870117188,828.6666870117188,828.6666870117188,828.6666870117188,828.6666870117188,828,828,828,828,828,828,828,828,828,828,821.3333740234375,821.3333740234375,821.3333740234375,821.3333740234375,798,784,752.6666870117188,732,686,617.3333740234375,576,558.6666870117188,524.6666870117188,508.66668701171875,466,438.66668701171875,402,372.66668701171875,316.66668701171875,259.3333435058594,244.66668701171875,224,203.33334350585938,188,150,115.33334350585938,88],"timestamp_mouse":[14,37,51,71,91,111,132,152,173,191,211,231,251,271,291,311,330,351,372,391,411,431,451,471,491,511,530,553,572,591,611,631,650,671,691,711,731,751,771,791,811,831,851,871,891,911,931,951,970,991,1011,1031,1051,1073,1091,1111,1131,1151,1171,1191,1211,1231,1252,1275,1291,1310,1331,1352,1371,1391,1411,1430,1452,1472,1490,1510,1531,1555,1571,1593,1611,1631,1653,1671,1690,1711,1730,1750,1772,1791],"xSR":350,"ySR":768,"xT1":30,"yT1":0,"xT2":670,"yT2":0,"toosoon":0,"cond_shown":"Incongruent","ratio_trial":100,"L_num":2,"L_den":4,"R_num":6,"R_den":15,"correct_side":1,"subjID":"42wm","gender":"No_gender","school":"No_school","age":"No_age"},{"start_time":1549381454827,"click_time":1549381456508,"finger_time":1549381456168,"fix_duration":1377.3301777562697,"trial":6,"RT":1341,"MT":340,"sideResp":2,"stimulus":[],"xmouse":[394.66668701171875,394.66668701171875,394.66668701171875,394,394,394,394,394,394,394,394,394,394,392.66668701171875,392.66668701171875,392.66668701171875,392.66668701171875,392.66668701171875,392.66668701171875,392.66668701171875,392.66668701171875,392.66668701171875,392.66668701171875,392.66668701171875,392.66668701171875,392.66668701171875,392.66668701171875,392.66668701171875,392.66668701171875,392.66668701171875,392.66668701171875,392.66668701171875,392.66668701171875,392.66668701171875,392.66668701171875,392.66668701171875,392.66668701171875,392.66668701171875,392.66668701171875,392.66668701171875,392.66668701171875,392.66668701171875,392.66668701171875,393.3333435058594,393.3333435058594,393.3333435058594,393.3333435058594,393.3333435058594,393.3333435058594,393.3333435058594,393.3333435058594,393.3333435058594,393.3333435058594,394.66668701171875,394.66668701171875,394.66668701171875,394.66668701171875,394.66668701171875,394.66668701171875,394.66668701171875,394.66668701171875,394.66668701171875,394.66668701171875,403.3333435058594,403.3333435058594,403.3333435058594,463.3333435058594,492,530,556,568.6666870117188,591.3333740234375,603.3333740234375,629.3333740234375,669.3333740234375,688.6666870117188,692,699.3333740234375,702.6666870117188,702.6666870117188,702,702,705.3333740234375,711.3333740234375],"ymouse":[834,834,834,834,834,834,834,834,834,834,834,834,834,834,834,834,834,834,834,834,834,834,834,834,834,834,834,834,834,834,834,834,834,834.6666870117188,834.6666870117188,834.6666870117188,834.6666870117188,834.6666870117188,834.6666870117188,834.6666870117188,834.6666870117188,834.6666870117188,834.6666870117188,834,834,834,834,834,834,834,834,834,834,834.6666870117188,834.6666870117188,834.6666870117188,834.6666870117188,834.6666870117188,834.6666870117188,834.6666870117188,834.6666870117188,834.6666870117188,834.6666870117188,803.3333740234375,803.3333740234375,803.3333740234375,671.3333740234375,608.6666870117188,518,456,427.3333435058594,375.3333435058594,352,299.3333435058594,224.6666717529297,190.6666717529297,180.6666717529297,170.6666717529297,161.33334350585938,156.6666717529297,146,146,118.66667175292969,84],"timestamp_mouse":[3,45,61,80,101,121,141,161,181,201,221,241,261,281,301,321,341,361,381,401,421,441,461,481,501,521,541,560,581,601,621,641,660,681,701,721,741,761,780,800,821,841,861,881,901,921,941,961,981,1001,1020,1041,1061,1081,1101,1121,1141,1161,1183,1201,1221,1241,1261,1286,1301,1321,1341,1361,1382,1402,1421,1441,1461,1481,1501,1521,1541,1561,1582,1601,1621,1641,1661,1681],"xSR":350,"ySR":768,"xT1":30,"yT1":0,"xT2":670,"yT2":0,"toosoon":0,"cond_shown":"Congruent","ratio_trial":300,"L_num":5,"L_den":25,"R_num":7,"R_den":14,"correct_side":2,"subjID":"42wm","gender":"No_gender","school":"No_school","age":"No_age"},{"start_time":1549381458349,"click_time":1549381460208,"finger_time":1549381459788,"fix_duration":419.6128038102711,"trial":7,"RT":1439,"MT":420,"sideResp":1,"stimulus":[],"xmouse":[401.3333435058594,401.3333435058594,401.3333435058594,401.3333435058594,401.3333435058594,401.3333435058594,401.3333435058594,401.3333435058594,401.3333435058594,401.3333435058594,401.3333435058594,401.3333435058594,403.3333435058594,403.3333435058594,403.3333435058594,403.3333435058594,403.3333435058594,403.3333435058594,403.3333435058594,403.3333435058594,403.3333435058594,403.3333435058594,403.3333435058594,403.3333435058594,403.3333435058594,403.3333435058594,403.3333435058594,403.3333435058594,402,402,402,402,402,401.3333435058594,401.3333435058594,401.3333435058594,401.3333435058594,400.66668701171875,400.66668701171875,400.66668701171875,400,400,400,400,400,400,400,400,400,400,400,400,400,400,399.3333435058594,399.3333435058594,399.3333435058594,399.3333435058594,399.3333435058594,399.3333435058594,399.3333435058594,399.3333435058594,399.3333435058594,399.3333435058594,399.3333435058594,399.3333435058594,399.3333435058594,399.3333435058594,399.3333435058594,398.66668701171875,394.66668701171875,383.3333435058594,378,370,358,352.66668701171875,341.3333435058594,327.3333435058594,318.66668701171875,296.66668701171875,282,274,259.3333435058594,242.6666717529297,234,200.6666717529297,194,172,163.33334350585938,127.33334350585938,106.66667175292969,94,80],"ymouse":[818.6666870117188,818.6666870117188,819.3333740234375,819.3333740234375,819.3333740234375,819.3333740234375,819.3333740234375,819.3333740234375,819.3333740234375,819.3333740234375,819.3333740234375,819.3333740234375,819.3333740234375,819.3333740234375,819.3333740234375,819.3333740234375,819.3333740234375,819.3333740234375,819.3333740234375,819.3333740234375,819.3333740234375,819.3333740234375,820,820,820,820,820,820,822.6666870117188,822.6666870117188,822.6666870117188,822.6666870117188,823.3333740234375,823.3333740234375,823.3333740234375,823.3333740234375,823.3333740234375,823.3333740234375,823.3333740234375,823.3333740234375,823.3333740234375,823.3333740234375,823.3333740234375,823.3333740234375,823.3333740234375,823.3333740234375,823.3333740234375,823.3333740234375,823.3333740234375,823.3333740234375,823.3333740234375,822.6666870117188,822.6666870117188,822.6666870117188,822.6666870117188,822.6666870117188,822.6666870117188,822.6666870117188,822.6666870117188,822.6666870117188,822.6666870117188,822.6666870117188,822.6666870117188,822.6666870117188,819.3333740234375,819.3333740234375,819.3333740234375,819.3333740234375,819.3333740234375,793.3333740234375,778.6666870117188,747.3333740234375,726,688.6666870117188,652,640,614,583.3333740234375,567.3333740234375,522.6666870117188,489.3333435058594,476.66668701171875,447.3333435058594,413.3333435058594,397.3333435058594,322,306.66668701171875,262.66668701171875,242,182,145.33334350585938,124,92.66667175292969],"timestamp_mouse":[3,40,59,79,99,120,139,159,179,199,218,239,259,279,301,320,339,359,379,398,419,439,459,479,499,519,539,559,581,599,619,638,659,679,699,720,739,759,779,799,819,839,859,879,899,919,939,959,979,999,1019,1039,1059,1079,1098,1119,1139,1159,1179,1198,1219,1239,1259,1280,1299,1319,1339,1359,1379,1400,1419,1439,1459,1479,1500,1519,1539,1559,1578,1600,1619,1639,1659,1679,1699,1719,1739,1758,1779,1802,1818,1839,1859],"xSR":350,"ySR":768,"xT1":30,"yT1":0,"xT2":670,"yT2":0,"toosoon":0,"cond_shown":"Incongruent","ratio_trial":200,"L_num":7,"L_den":10,"R_num":14,"R_den":28,"correct_side":1,"subjID":"42wm","gender":"No_gender","school":"No_school","age":"No_age"},{"start_time":1549381462459,"click_time":1549381464071,"finger_time":1549381463808,"fix_duration":609.366242231786,"trial":8,"RT":1349,"MT":263,"sideResp":2,"stimulus":[],"xmouse":[410.66668701171875,410.66668701171875,410.66668701171875,410.66668701171875,410.66668701171875,410.66668701171875,410.66668701171875,410.66668701171875,410.66668701171875,410.66668701171875,410.66668701171875,410.66668701171875,410.66668701171875,410.66668701171875,410.66668701171875,410.66668701171875,410.66668701171875,410.66668701171875,410.66668701171875,410.66668701171875,410.66668701171875,410.66668701171875,410.66668701171875,410.66668701171875,410.66668701171875,411.3333435058594,411.3333435058594,411.3333435058594,411.3333435058594,411.3333435058594,411.3333435058594,411.3333435058594,411.3333435058594,411.3333435058594,411.3333435058594,411.3333435058594,412,412,412,412,412,412,412,412,412,412,412,412,412,412,412,412,412,412,412,412,412,412.66668701171875,412.66668701171875,412.66668701171875,412.66668701171875,412.66668701171875,412.66668701171875,412.66668701171875,412.66668701171875,412.66668701171875,412.66668701171875,438.66668701171875,447.3333435058594,465.3333435058594,497.3333435058594,520.6666870117188,532.6666870117188,558,573.3333740234375,603.3333740234375,648,674.6666870117188,687.3333740234375,710.6666870117188,740],"ymouse":[855.3333740234375,855.3333740234375,855.3333740234375,855.3333740234375,855.3333740234375,854.6666870117188,854.6666870117188,854.6666870117188,854.6666870117188,854.6666870117188,854.6666870117188,854.6666870117188,854.6666870117188,854.6666870117188,854.6666870117188,855.3333740234375,855.3333740234375,855.3333740234375,855.3333740234375,855.3333740234375,855.3333740234375,855.3333740234375,855.3333740234375,855.3333740234375,855.3333740234375,855.3333740234375,855.3333740234375,855.3333740234375,855.3333740234375,855.3333740234375,855.3333740234375,855.3333740234375,855.3333740234375,855.3333740234375,855.3333740234375,855.3333740234375,855.3333740234375,855.3333740234375,855.3333740234375,855.3333740234375,855.3333740234375,855.3333740234375,855.3333740234375,855.3333740234375,855.3333740234375,856,856,856,856,856,856,856,856,856,856,856,856,856,856,856,856,856,856,856,856,856,856,713.3333740234375,686,626,538,486,455.3333435058594,396.66668701171875,367.3333435058594,301.3333435058594,220.6666717529297,176,156.6666717529297,123.33334350585938,81.33333587646484],"timestamp_mouse":[14,47,48,69,89,109,128,149,168,188,209,228,249,269,289,309,329,349,369,389,410,429,449,469,489,509,529,548,569,589,610,629,649,669,689,711,729,749,769,790,809,829,849,869,889,913,929,949,969,989,1009,1029,1049,1069,1089,1109,1129,1150,1169,1189,1209,1229,1249,1269,1289,1309,1329,1349,1369,1389,1411,1430,1449,1469,1489,1509,1529,1549,1568,1589,1610],"xSR":350,"ySR":768,"xT1":30,"yT1":0,"xT2":670,"yT2":0,"toosoon":0,"cond_shown":"Incongruent","ratio_trial":300,"L_num":4,"L_den":20,"R_num":2,"R_den":4,"correct_side":2,"subjID":"42wm","gender":"No_gender","school":"No_school","age":"No_age"},{"start_time":1549381466076,"click_time":1549381467911,"finger_time":1549381467509,"fix_duration":823.5148638143722,"trial":9,"RT":1433,"MT":402,"sideResp":1,"stimulus":[],"xmouse":[400.66668701171875,400.66668701171875,400.66668701171875,400.66668701171875,400,400,400,400,400,400,400,400,400,400,400,400,400,400,400,400,400,400,400,400,400,400,400,400,400,400,400,400,400,400,400,400,400,400,400,400,400,400,400,400,400,400,400,400,400,400,400,400,400.66668701171875,400.66668701171875,400.66668701171875,400.66668701171875,400.66668701171875,400.66668701171875,400.66668701171875,400.66668701171875,400.66668701171875,400.66668701171875,399.3333435058594,398,396.66668701171875,392.66668701171875,388,385.3333435058594,380.66668701171875,375.3333435058594,375.3333435058594,346,324,312,288.66668701171875,253.33334350585938,228,216,197.33334350585938,191.33334350585938,171.33334350585938,150.6666717529297,141.33334350585938,136,126.66667175292969,119.33333587646484,106.66667175292969,105.33333587646484,99.33333587646484,97.33333587646484,91.33333587646484,87.33333587646484],"ymouse":[842,842,842,842,842,842,842,842,842,842,842,841.3333740234375,841.3333740234375,841.3333740234375,842,841.3333740234375,841.3333740234375,841.3333740234375,841.3333740234375,841.3333740234375,841.3333740234375,841.3333740234375,841.3333740234375,841.3333740234375,841.3333740234375,841.3333740234375,841.3333740234375,841.3333740234375,840.6666870117188,840.6666870117188,840.6666870117188,840.6666870117188,840.6666870117188,840.6666870117188,840.6666870117188,840.6666870117188,840.6666870117188,840.6666870117188,840.6666870117188,840.6666870117188,840.6666870117188,840.6666870117188,840.6666870117188,840.6666870117188,840.6666870117188,840.6666870117188,840.6666870117188,840.6666870117188,840.6666870117188,840.6666870117188,840.6666870117188,840.6666870117188,840.6666870117188,840.6666870117188,840.6666870117188,840.6666870117188,840.6666870117188,840.6666870117188,840.6666870117188,840.6666870117188,840.6666870117188,840.6666870117188,840.6666870117188,840.6666870117188,840,837.3333740234375,833.3333740234375,831.3333740234375,822.6666870117188,797.3333740234375,797.3333740234375,741.3333740234375,712,694.6666870117188,650.6666870117188,588,548,522,478.66668701171875,461.3333435058594,411.3333435058594,349.3333435058594,310.66668701171875,293.3333435058594,256,234.6666717529297,171.33334350585938,160,140,128.6666717529297,112.66667175292969,94],"timestamp_mouse":[17,45,51,72,92,112,132,153,172,192,213,232,252,272,292,311,332,352,372,392,412,432,452,472,492,512,533,552,572,592,612,632,652,672,692,712,732,752,772,792,812,832,852,872,892,912,932,952,972,992,1011,1032,1052,1072,1092,1112,1131,1152,1172,1192,1212,1231,1252,1272,1292,1315,1332,1352,1372,1392,1413,1433,1452,1472,1492,1514,1532,1552,1572,1592,1612,1632,1652,1672,1692,1712,1737,1752,1772,1792,1812,1834],"xSR":350,"ySR":768,"xT1":30,"yT1":0,"xT2":670,"yT2":0,"toosoon":0,"cond_shown":"Congruent","ratio_trial":200,"L_num":15,"L_den":25,"R_num":4,"R_den":10,"correct_side":1,"subjID":"42wm","gender":"No_gender","school":"No_school","age":"No_age"},{"start_time":1549381470539,"click_time":1549381472488,"finger_time":1549381472088,"fix_duration":1467.0415705966107,"trial":10,"RT":1549,"MT":400,"sideResp":2,"stimulus":[],"xmouse":[413.3333435058594,413.3333435058594,413.3333435058594,413.3333435058594,413.3333435058594,413.3333435058594,413.3333435058594,413.3333435058594,412,412,412,412,412,412,412,412,412,412,404,405.3333435058594,405.3333435058594,406.66668701171875,406.66668701171875,406.66668701171875,406.66668701171875,406.66668701171875,406.66668701171875,406.66668701171875,410,410.66668701171875,411.3333435058594,411.3333435058594,412,412,413.3333435058594,413.3333435058594,414,414,414,414.66668701171875,414.66668701171875,414.66668701171875,414.66668701171875,414.66668701171875,415.3333435058594,415.3333435058594,415.3333435058594,415.3333435058594,415.3333435058594,415.3333435058594,414.66668701171875,414.66668701171875,414.66668701171875,414.66668701171875,414.66668701171875,414.66668701171875,414.66668701171875,414.66668701171875,414.66668701171875,414.66668701171875,415.3333435058594,415.3333435058594,415.3333435058594,415.3333435058594,415.3333435058594,415.3333435058594,416.66668701171875,416.66668701171875,416.66668701171875,417.3333435058594,417.3333435058594,417.3333435058594,416.66668701171875,416.66668701171875,416,416,416,422,425.3333435058594,444,457.3333435058594,465.3333435058594,481.3333435058594,496,524.6666870117188,534.6666870117188,550.6666870117188,566.6666870117188,574.6666870117188,600,614.6666870117188,623.3333740234375,637.3333740234375,651.3333740234375,660,692.6666870117188,704,722.6666870117188],"ymouse":[802.6666870117188,802.6666870117188,802.6666870117188,802.6666870117188,802.6666870117188,802.6666870117188,802.6666870117188,802.6666870117188,797.3333740234375,797.3333740234375,797.3333740234375,797.3333740234375,797.3333740234375,797.3333740234375,797.3333740234375,797.3333740234375,797.3333740234375,797.3333740234375,790.6666870117188,790,790,789.3333740234375,789.3333740234375,789.3333740234375,789.3333740234375,789.3333740234375,789.3333740234375,789.3333740234375,788.6666870117188,788,788,788,787.3333740234375,787.3333740234375,786.6666870117188,786.6666870117188,786,786,786,786,786,786,786,785.3333740234375,785.3333740234375,785.3333740234375,785.3333740234375,785.3333740234375,785.3333740234375,786,786,786,786,786,786,786,786,786,786,786,787.3333740234375,787.3333740234375,787.3333740234375,787.3333740234375,787.3333740234375,787.3333740234375,783.3333740234375,781.3333740234375,780,777.3333740234375,776.6666870117188,775.3333740234375,775.3333740234375,775.3333740234375,774.6666870117188,774.6666870117188,774.6666870117188,762.6666870117188,752,698.6666870117188,654.6666870117188,632,586.6666870117188,542,482,462.66668701171875,426.66668701171875,390,373.3333435058594,322.66668701171875,289.3333435058594,273.3333435058594,242,210.6666717529297,194.6666717529297,136,122.66667175292969,89.33333587646484],"timestamp_mouse":[16,41,49,70,88,109,129,149,169,189,209,229,249,270,290,309,330,349,368,390,409,428,449,469,489,510,530,549,568,592,609,629,649,669,689,709,729,749,769,790,809,829,848,869,889,909,929,949,969,989,1011,1029,1049,1069,1090,1108,1129,1149,1169,1190,1209,1229,1249,1269,1290,1310,1328,1349,1369,1391,1409,1429,1449,1469,1489,1509,1529,1549,1569,1591,1612,1629,1649,1668,1691,1709,1729,1750,1769,1792,1811,1829,1849,1868,1888,1913,1929,1949],"xSR":350,"ySR":768,"xT1":30,"yT1":0,"xT2":670,"yT2":0,"toosoon":0,"cond_shown":"Incongruent","ratio_trial":100,"L_num":9,"L_den":10,"R_num":20,"R_den":25,"correct_side":1,"subjID":"42wm","gender":"No_gender","school":"No_school","age":"No_age"},{"start_time":1549381474671,"click_time":1549381476269,"finger_time":1549381475928,"fix_duration":961.9601054556385,"trial":11,"RT":1257,"MT":341,"sideResp":1,"stimulus":[],"xmouse":[393.3333435058594,393.3333435058594,393.3333435058594,393.3333435058594,393.3333435058594,393.3333435058594,393.3333435058594,393.3333435058594,393.3333435058594,393.3333435058594,393.3333435058594,393.3333435058594,393.3333435058594,393.3333435058594,393.3333435058594,393.3333435058594,393.3333435058594,393.3333435058594,393.3333435058594,393.3333435058594,393.3333435058594,393.3333435058594,392.66668701171875,393.3333435058594,393.3333435058594,393.3333435058594,393.3333435058594,393.3333435058594,393.3333435058594,393.3333435058594,393.3333435058594,393.3333435058594,393.3333435058594,393.3333435058594,393.3333435058594,393.3333435058594,393.3333435058594,393.3333435058594,394,393.3333435058594,393.3333435058594,393.3333435058594,393.3333435058594,393.3333435058594,393.3333435058594,393.3333435058594,393.3333435058594,393.3333435058594,393.3333435058594,393.3333435058594,393.3333435058594,393.3333435058594,393.3333435058594,393.3333435058594,383.3333435058594,383.3333435058594,383.3333435058594,383.3333435058594,383.3333435058594,383.3333435058594,383.3333435058594,383.3333435058594,376,374.66668701171875,368.66668701171875,362.66668701171875,357.3333435058594,342.66668701171875,334,304.66668701171875,278.66668701171875,246.6666717529297,234.6666717529297,188.6666717529297,157.33334350585938,140.6666717529297,115.33333587646484,96,88.66667175292969,78.66667175292969],"ymouse":[780.6666870117188,780.6666870117188,780.6666870117188,781.3333740234375,781.3333740234375,781.3333740234375,781.3333740234375,781.3333740234375,781.3333740234375,781.3333740234375,781.3333740234375,781.3333740234375,781.3333740234375,781.3333740234375,782,782,782,782,782,782,782,782,782,782,782,782,782,782,782,782,782,782,782.6666870117188,782.6666870117188,782.6666870117188,782.6666870117188,782.6666870117188,782.6666870117188,782.6666870117188,782.6666870117188,783.3333740234375,783.3333740234375,782.6666870117188,782.6666870117188,783.3333740234375,783.3333740234375,783.3333740234375,783.3333740234375,783.3333740234375,783.3333740234375,783.3333740234375,783.3333740234375,783.3333740234375,783.3333740234375,782,782,782,782,782,782,782,782,732.6666870117188,702,665.3333740234375,644,630,596.6666870117188,576.6666870117188,513.3333740234375,456,389.3333435058594,361.3333435058594,282,235.33334350585938,215.33334350585938,182.6666717529297,162,156.6666717529297,95.33333587646484],"timestamp_mouse":[17,48,57,77,97,117,137,157,177,197,217,237,257,277,298,317,337,357,377,397,417,437,457,478,497,517,537,557,577,598,617,637,657,677,697,717,737,757,778,797,817,837,857,877,900,919,937,957,977,996,1017,1037,1057,1077,1102,1117,1137,1157,1177,1197,1217,1237,1257,1277,1298,1317,1337,1357,1384,1413,1418,1436,1456,1478,1496,1517,1537,1557,1577,1597],"xSR":350,"ySR":768,"xT1":30,"yT1":0,"xT2":670,"yT2":0,"toosoon":0,"cond_shown":"Congruent","ratio_trial":300,"L_num":20,"L_den":25,"R_num":13,"R_den":26,"correct_side":1,"subjID":"42wm","gender":"No_gender","school":"No_school","age":"No_age"},{"start_time":1549381478090,"click_time":1549381480148,"finger_time":1549381479808,"fix_duration":639.1004504838305,"trial":12,"RT":1718,"MT":340,"sideResp":2,"stimulus":[],"xmouse":[406.66668701171875,406.66668701171875,406.66668701171875,406.66668701171875,406.66668701171875,416,416,416,420.66668701171875,420.66668701171875,420,420,420,420,419.3333435058594,419.3333435058594,419.3333435058594,419.3333435058594,419.3333435058594,419.3333435058594,419.3333435058594,419.3333435058594,419.3333435058594,419.3333435058594,419.3333435058594,418.66668701171875,418.66668701171875,418.66668701171875,422,423.3333435058594,424,424,424,424,424,424,424,424,424,424,424.66668701171875,425.3333435058594,425.3333435058594,426,426,426,427.3333435058594,427.3333435058594,427.3333435058594,427.3333435058594,429.3333435058594,430,430.66668701171875,431.3333435058594,432,432.66668701171875,432.66668701171875,432.66668701171875,432.66668701171875,432.66668701171875,433.3333435058594,433.3333435058594,432.66668701171875,432.66668701171875,432.66668701171875,432.66668701171875,432.66668701171875,432.66668701171875,432.66668701171875,432.66668701171875,428.66668701171875,428.66668701171875,428.66668701171875,428.66668701171875,428.66668701171875,428.66668701171875,428.66668701171875,428.66668701171875,428.66668701171875,428.66668701171875,427.3333435058594,426.66668701171875,426.66668701171875,426,426,426,446.66668701171875,452,466.66668701171875,484.66668701171875,517.3333740234375,526.6666870117188,545.3333740234375,566,572.6666870117188,599.3333740234375,616.6666870117188,626.6666870117188,638,650,660.6666870117188,664,672.6666870117188,679.3333740234375],"ymouse":[815.3333740234375,815.3333740234375,815.3333740234375,815.3333740234375,815.3333740234375,808,808,808,806.6666870117188,806.6666870117188,806.6666870117188,806.6666870117188,806.6666870117188,806.6666870117188,806.6666870117188,806.6666870117188,806.6666870117188,806.6666870117188,806.6666870117188,806.6666870117188,806.6666870117188,806.6666870117188,806.6666870117188,806.6666870117188,806.6666870117188,806.6666870117188,806.6666870117188,806.6666870117188,806.6666870117188,806.6666870117188,806.6666870117188,806.6666870117188,806.6666870117188,806.6666870117188,806.6666870117188,806.6666870117188,806.6666870117188,806.6666870117188,806.6666870117188,806.6666870117188,806,806,806,806,805.3333740234375,805.3333740234375,804.6666870117188,804.6666870117188,804.6666870117188,804.6666870117188,801.3333740234375,801.3333740234375,800.6666870117188,800.6666870117188,800.6666870117188,801.3333740234375,801.3333740234375,801.3333740234375,801.3333740234375,801.3333740234375,801.3333740234375,801.3333740234375,801.3333740234375,801.3333740234375,801.3333740234375,801.3333740234375,801.3333740234375,801.3333740234375,801.3333740234375,801.3333740234375,802.6666870117188,802.6666870117188,802.6666870117188,802.6666870117188,802.6666870117188,802.6666870117188,802.6666870117188,802.6666870117188,802.6666870117188,802.6666870117188,799.3333740234375,798.6666870117188,798.6666870117188,794.6666870117188,794.6666870117188,794.6666870117188,712.6666870117188,687.3333740234375,631.3333740234375,568.6666870117188,474,444,395.3333435058594,348,324.66668701171875,260,221.33334350585938,204.6666717529297,178.6666717529297,154.6666717529297,129.33334350585938,122,110,97.33333587646484],"timestamp_mouse":[3,19,48,58,78,98,117,138,158,178,198,218,238,257,280,297,318,338,357,378,398,418,438,458,478,499,519,538,558,582,599,618,638,658,678,698,718,738,758,778,799,817,838,858,877,898,920,937,957,979,998,1018,1038,1058,1078,1098,1118,1139,1158,1179,1201,1218,1239,1258,1278,1299,1319,1338,1358,1378,1398,1418,1438,1458,1478,1498,1518,1538,1558,1578,1600,1617,1638,1658,1678,1699,1718,1738,1758,1778,1799,1819,1837,1858,1878,1900,1918,1938,1958,1978,1998,2018,2038,2058],"xSR":350,"ySR":768,"xT1":30,"yT1":0,"xT2":670,"yT2":0,"toosoon":0,"cond_shown":"Incongruent","ratio_trial":100,"L_num":12,"L_den":30,"R_num":2,"R_den":4,"correct_side":2,"subjID":"42wm","gender":"No_gender","school":"No_school","age":"No_age"},{"start_time":1549381481644,"click_time":1549381483708,"finger_time":1549381483328,"fix_duration":250,"trial":13,"RT":1684,"MT":380,"sideResp":1,"stimulus":[],"xmouse":[414.66668701171875,414.66668701171875,414.66668701171875,414.66668701171875,414,414,414,414,414,414,414,414,414,414,414,414,414,412.66668701171875,412.66668701171875,412.66668701171875,412.66668701171875,412.66668701171875,412.66668701171875,412.66668701171875,412.66668701171875,412.66668701171875,412.66668701171875,412.66668701171875,412.66668701171875,412.66668701171875,412.66668701171875,412.66668701171875,412.66668701171875,412.66668701171875,412.66668701171875,412.66668701171875,412.66668701171875,414,414,414,414,414,414,414,414,416.66668701171875,416.66668701171875,416,416,416,416,416,416,416,416,416,416,416,414,414,414,414,414,414,414,414,407.3333435058594,407.3333435058594,407.3333435058594,408,408,408,408,408,408,408,408,408,408,404,404,404,404,389.3333435058594,388,388,388,388,381.3333435058594,361.3333435058594,334.66668701171875,320,291.3333435058594,256.66668701171875,245.33334350585938,222,198.6666717529297,186.6666717529297,157.33334350585938,144,139.33334350585938,131.33334350585938,127.33334350585938,120],"ymouse":[797.3333740234375,797.3333740234375,797.3333740234375,797.3333740234375,797.3333740234375,797.3333740234375,797.3333740234375,797.3333740234375,797.3333740234375,797.3333740234375,797.3333740234375,797.3333740234375,797.3333740234375,797.3333740234375,797.3333740234375,797.3333740234375,797.3333740234375,800,800,800,800,800,800,800,800,800,800,800.6666870117188,800.6666870117188,800.6666870117188,800.6666870117188,800.6666870117188,800.6666870117188,800.6666870117188,800.6666870117188,800.6666870117188,800.6666870117188,805.3333740234375,805.3333740234375,805.3333740234375,805.3333740234375,805.3333740234375,805.3333740234375,805.3333740234375,805.3333740234375,815.3333740234375,815.3333740234375,816,816,816,816,816,816,816,816,816,816,816,816,816,816,816,816,816,816,816,814,813.3333740234375,813.3333740234375,812.6666870117188,812.6666870117188,812.6666870117188,812.6666870117188,812.6666870117188,812.6666870117188,812.6666870117188,812.6666870117188,812.6666870117188,812.6666870117188,808,808,808,808,769.3333740234375,699.3333740234375,699.3333740234375,699.3333740234375,699.3333740234375,611.3333740234375,580,538.6666870117188,512.6666870117188,460.66668701171875,396.66668701171875,378.66668701171875,342.66668701171875,300.66668701171875,280.66668701171875,211.33334350585938,171.33334350585938,153.33334350585938,121.33334350585938,107.33333587646484,82],"timestamp_mouse":[4,43,44,64,84,104,124,144,164,184,204,224,244,263,284,304,324,346,364,384,403,425,444,463,484,504,523,545,564,585,603,625,644,664,684,704,724,744,764,784,804,824,844,864,884,904,924,944,965,984,1004,1024,1045,1064,1084,1103,1124,1144,1165,1184,1204,1224,1244,1264,1284,1304,1324,1344,1364,1383,1404,1424,1444,1463,1484,1504,1523,1544,1564,1585,1605,1624,1644,1665,1684,1704,1724,1744,1763,1786,1804,1824,1844,1865,1885,1905,1924,1944,1966,1984,2004,2024,2044,2064],"xSR":350,"ySR":768,"xT1":30,"yT1":0,"xT2":670,"yT2":0,"toosoon":0,"cond_shown":"Incongruent","ratio_trial":300,"L_num":7,"L_den":10,"R_num":8,"R_den":20,"correct_side":1,"subjID":"42wm","gender":"No_gender","school":"No_school","age":"No_age"},{"start_time":1549381485462,"click_time":1549381487349,"finger_time":1549381486888,"fix_duration":531.3580685892472,"trial":14,"RT":1426,"MT":461,"sideResp":1,"stimulus":[],"xmouse":[410,410,410,410,410,410,410,412,411.3333435058594,411.3333435058594,411.3333435058594,411.3333435058594,411.3333435058594,411.3333435058594,411.3333435058594,411.3333435058594,411.3333435058594,410.66668701171875,410.66668701171875,410.66668701171875,410.66668701171875,410.66668701171875,410.66668701171875,410.66668701171875,410.66668701171875,410.66668701171875,410.66668701171875,411.3333435058594,411.3333435058594,411.3333435058594,411.3333435058594,411.3333435058594,411.3333435058594,411.3333435058594,411.3333435058594,411.3333435058594,411.3333435058594,410,410,410,410,410,410,410,410,410,410,407.3333435058594,407.3333435058594,407.3333435058594,407.3333435058594,407.3333435058594,407.3333435058594,407.3333435058594,407.3333435058594,407.3333435058594,407.3333435058594,405.3333435058594,405.3333435058594,405.3333435058594,405.3333435058594,400.66668701171875,398,396,391.3333435058594,391.3333435058594,391.3333435058594,382.66668701171875,384.66668701171875,384.66668701171875,384.66668701171875,402,402,402,402,402,362,353.3333435058594,334,305.3333435058594,294.66668701171875,271.3333435058594,260,237.33334350585938,204,184.6666717529297,176,162,155.33334350585938,137.33334350585938,114.66667175292969,114.66667175292969,112.66667175292969,106.66667175292969],"ymouse":[830,830,830,830,830,830,830,829.3333740234375,829.3333740234375,829.3333740234375,829.3333740234375,829.3333740234375,829.3333740234375,829.3333740234375,829.3333740234375,829.3333740234375,829.3333740234375,828,828,828,828,828,828,828,828,828,828,828,828,828,828,828,828,828,828,828,828,826.6666870117188,826.6666870117188,826.6666870117188,826.6666870117188,826.6666870117188,826.6666870117188,826.6666870117188,826.6666870117188,826.6666870117188,826.6666870117188,825.3333740234375,825.3333740234375,825.3333740234375,825.3333740234375,825.3333740234375,825.3333740234375,825.3333740234375,825.3333740234375,825.3333740234375,825.3333740234375,824.6666870117188,824.6666870117188,824.6666870117188,824.6666870117188,824,824,823.3333740234375,822.6666870117188,822.6666870117188,822.6666870117188,812.6666870117188,795.3333740234375,795.3333740234375,795.3333740234375,723.3333740234375,704.6666870117188,704.6666870117188,704.6666870117188,704.6666870117188,601.3333740234375,576,524.6666870117188,458,440.66668701171875,406.66668701171875,391.3333435058594,357.3333435058594,296.66668701171875,253.33334350585938,232.6666717529297,196,180.6666717529297,146.6666717529297,110.66667175292969,110.66667175292969,107.33333587646484,99.33333587646484],"timestamp_mouse":[12,33,46,66,86,106,126,146,166,186,206,226,246,266,286,306,326,346,366,386,406,426,446,466,486,506,526,546,565,586,606,626,646,666,685,706,726,746,766,785,806,826,846,868,885,906,926,946,966,986,1005,1026,1046,1068,1086,1106,1126,1145,1167,1185,1206,1226,1246,1266,1286,1306,1326,1346,1371,1385,1406,1426,1445,1466,1489,1505,1526,1546,1566,1587,1606,1626,1646,1666,1685,1706,1726,1746,1766,1841,1846,1846,1866,1887],"xSR":350,"ySR":768,"xT1":30,"yT1":0,"xT2":670,"yT2":0,"toosoon":0,"cond_shown":"Incongruent","ratio_trial":100,"L_num":3,"L_den":5,"R_num":8,"R_den":16,"correct_side":1,"subjID":"42wm","gender":"No_gender","school":"No_school","age":"No_age"},{"start_time":1549381489366,"click_time":1549381490789,"finger_time":1549381490469,"fix_duration":814.4266093328214,"trial":15,"RT":1103,"MT":320,"sideResp":2,"stimulus":[],"xmouse":[400,400,400,400,399.3333435058594,399.3333435058594,399.3333435058594,399.3333435058594,399.3333435058594,399.3333435058594,399.3333435058594,399.3333435058594,399.3333435058594,399.3333435058594,399.3333435058594,399.3333435058594,399.3333435058594,399.3333435058594,399.3333435058594,399.3333435058594,398.66668701171875,398.66668701171875,398.66668701171875,398.66668701171875,398.66668701171875,398.66668701171875,398.66668701171875,398.66668701171875,398.66668701171875,398.66668701171875,398.66668701171875,398.66668701171875,398.66668701171875,398.66668701171875,398.66668701171875,398.66668701171875,398.66668701171875,398.66668701171875,398.66668701171875,398.66668701171875,398.66668701171875,398.66668701171875,398.66668701171875,399.3333435058594,399.3333435058594,399.3333435058594,399.3333435058594,399.3333435058594,399.3333435058594,399.3333435058594,400.66668701171875,400,400,404,404,430.66668701171875,450,460,480.66668701171875,499.3333435058594,526.6666870117188,533.3333740234375,547.3333740234375,566.6666870117188,574,604,626.6666870117188,634.6666870117188,658.6666870117188,673.3333740234375,701.3333740234375,709.3333740234375],"ymouse":[832,832,832,832,831.3333740234375,831.3333740234375,831.3333740234375,831.3333740234375,831.3333740234375,831.3333740234375,831.3333740234375,831.3333740234375,831.3333740234375,831.3333740234375,831.3333740234375,831.3333740234375,831.3333740234375,831.3333740234375,831.3333740234375,831.3333740234375,831.3333740234375,831.3333740234375,831.3333740234375,831.3333740234375,831.3333740234375,831.3333740234375,831.3333740234375,831.3333740234375,831.3333740234375,831.3333740234375,831.3333740234375,831.3333740234375,831.3333740234375,831.3333740234375,831.3333740234375,831.3333740234375,831.3333740234375,831.3333740234375,831.3333740234375,831.3333740234375,831.3333740234375,831.3333740234375,831.3333740234375,831.3333740234375,831.3333740234375,831.3333740234375,831.3333740234375,831.3333740234375,831.3333740234375,831.3333740234375,824,822,822,796.6666870117188,796.6666870117188,706.6666870117188,649.3333740234375,618.6666870117188,557.3333740234375,503.3333740234375,442,425.3333435058594,385.3333435058594,347.3333435058594,324.66668701171875,266.66668701171875,230.6666717529297,210,177.33334350585938,145.33334350585938,104,90.66667175292969],"timestamp_mouse":[2,39,41,62,82,102,121,142,162,182,202,222,242,262,282,302,322,342,362,382,403,421,442,462,482,502,522,542,562,582,602,622,642,662,682,702,722,741,762,782,802,822,842,862,881,902,922,944,961,982,1003,1022,1042,1062,1083,1103,1123,1142,1162,1182,1203,1222,1241,1261,1282,1302,1321,1343,1362,1381,1407,1422],"xSR":350,"ySR":768,"xT1":30,"yT1":0,"xT2":670,"yT2":0,"toosoon":0,"cond_shown":"Incongruent","ratio_trial":300,"L_num":4,"L_den":20,"R_num":2,"R_den":4,"correct_side":2,"subjID":"42wm","gender":"No_gender","school":"No_school","age":"No_age"},{"start_time":1549381492358,"click_time":1549381494170,"finger_time":1549381493790,"fix_duration":286.6596534287534,"trial":16,"RT":1432,"MT":380,"sideResp":2,"stimulus":[],"xmouse":[426,425.3333435058594,425.3333435058594,425.3333435058594,425.3333435058594,425.3333435058594,425.3333435058594,425.3333435058594,425.3333435058594,425.3333435058594,425.3333435058594,425.3333435058594,421.3333435058594,421.3333435058594,421.3333435058594,421.3333435058594,421.3333435058594,421.3333435058594,421.3333435058594,421.3333435058594,421.3333435058594,421.3333435058594,420,420,420,420,420,420,420,420,420,420,418.66668701171875,418.66668701171875,418.66668701171875,418.66668701171875,418.66668701171875,418.66668701171875,418.66668701171875,418.66668701171875,418.66668701171875,418.66668701171875,419.3333435058594,419.3333435058594,419.3333435058594,419.3333435058594,419.3333435058594,419.3333435058594,419.3333435058594,419.3333435058594,419.3333435058594,419.3333435058594,419.3333435058594,419.3333435058594,419.3333435058594,419.3333435058594,419.3333435058594,419.3333435058594,419.3333435058594,419.3333435058594,419.3333435058594,419.3333435058594,418,418,418,418,418,418,418.66668701171875,418.66668701171875,418.66668701171875,460.66668701171875,480,488,510,532.6666870117188,570.6666870117188,578.6666870117188,601.3333740234375,622.6666870117188,632,658,666.6666870117188,668,672,676.6666870117188,678.6666870117188,678.6666870117188,681.3333740234375,682.6666870117188,686],"ymouse":[806.6666870117188,806.6666870117188,806,806,806,806,806,806,806,806,806,806,804.6666870117188,804.6666870117188,804.6666870117188,804.6666870117188,804.6666870117188,804.6666870117188,804.6666870117188,804.6666870117188,804.6666870117188,804.6666870117188,804.6666870117188,804.6666870117188,804.6666870117188,804.6666870117188,804.6666870117188,804.6666870117188,804.6666870117188,804.6666870117188,804.6666870117188,804.6666870117188,802.6666870117188,802.6666870117188,802.6666870117188,802.6666870117188,802.6666870117188,802.6666870117188,802.6666870117188,802.6666870117188,802.6666870117188,802.6666870117188,803.3333740234375,803.3333740234375,803.3333740234375,803.3333740234375,803.3333740234375,803.3333740234375,803.3333740234375,803.3333740234375,803.3333740234375,803.3333740234375,804,804,804,804,804,804,804,804,804,804,802.6666870117188,802.6666870117188,802.6666870117188,802.6666870117188,802.6666870117188,802.6666870117188,783.3333740234375,783.3333740234375,783.3333740234375,662.6666870117188,602.6666870117188,573.3333740234375,508.66668701171875,442.66668701171875,346.66668701171875,322,272.66668701171875,228,204.6666717529297,156.6666717529297,141.33334350585938,137.33334350585938,131.33334350585938,123.33334350585938,114,111.33333587646484,104.66667175292969,100,91.33333587646484],"timestamp_mouse":[11,33,50,69,90,111,130,150,170,190,211,229,249,270,290,310,330,350,370,390,410,430,450,470,490,510,531,550,570,590,610,630,650,670,690,710,730,750,770,790,810,830,850,870,890,910,930,950,969,990,1010,1030,1050,1070,1090,1110,1130,1149,1170,1189,1210,1230,1251,1270,1290,1309,1330,1350,1370,1390,1410,1432,1449,1470,1490,1510,1531,1550,1570,1591,1610,1631,1650,1670,1689,1710,1733,1750,1770,1790,1809],"xSR":350,"ySR":768,"xT1":30,"yT1":0,"xT2":670,"yT2":0,"toosoon":0,"cond_shown":"Congruent","ratio_trial":300,"L_num":5,"L_den":25,"R_num":7,"R_den":14,"correct_side":2,"subjID":"42wm","gender":"No_gender","school":"No_school","age":"No_age"},{"start_time":1549381496803,"click_time":1549381498868,"finger_time":1549381498348,"fix_duration":1409.7563259500866,"trial":17,"RT":1545,"MT":520,"sideResp":1,"stimulus":[],"xmouse":[407.3333435058594,407.3333435058594,407.3333435058594,407.3333435058594,407.3333435058594,407.3333435058594,407.3333435058594,407.3333435058594,407.3333435058594,407.3333435058594,407.3333435058594,407.3333435058594,407.3333435058594,407.3333435058594,406.66668701171875,406.66668701171875,406.66668701171875,406.66668701171875,406.66668701171875,406.66668701171875,406.66668701171875,406.66668701171875,406.66668701171875,406.66668701171875,406.66668701171875,406.66668701171875,406.66668701171875,406.66668701171875,406.66668701171875,406.66668701171875,406.66668701171875,406.66668701171875,406.66668701171875,406.66668701171875,406,406,406,406,406,406,406,406,406,406,405.3333435058594,405.3333435058594,405.3333435058594,405.3333435058594,405.3333435058594,405.3333435058594,405.3333435058594,405.3333435058594,405.3333435058594,405.3333435058594,406,406,406,406,406,406,406,406,406,406,404.66668701171875,404.66668701171875,404.66668701171875,404.66668701171875,404.66668701171875,404.66668701171875,401.3333435058594,400.66668701171875,400,400,398.66668701171875,398.66668701171875,397.3333435058594,395.3333435058594,392.66668701171875,390,390,390,390.66668701171875,390.66668701171875,390.66668701171875,364.66668701171875,354,350,342.66668701171875,320.66668701171875,302,292.66668701171875,274,264.66668701171875,245.33334350585938,218.6666717529297,202.6666717529297,194,178,170,142,135.33334350585938,123.33334350585938],"ymouse":[784.6666870117188,784.6666870117188,784.6666870117188,784.6666870117188,785.3333740234375,785.3333740234375,785.3333740234375,785.3333740234375,785.3333740234375,785.3333740234375,785.3333740234375,785.3333740234375,785.3333740234375,785.3333740234375,785.3333740234375,785.3333740234375,785.3333740234375,785.3333740234375,785.3333740234375,785.3333740234375,785.3333740234375,785.3333740234375,785.3333740234375,785.3333740234375,784.6666870117188,784.6666870117188,784.6666870117188,784.6666870117188,784.6666870117188,784.6666870117188,784.6666870117188,784.6666870117188,784.6666870117188,784.6666870117188,785.3333740234375,785.3333740234375,785.3333740234375,785.3333740234375,785.3333740234375,785.3333740234375,785.3333740234375,785.3333740234375,785.3333740234375,785.3333740234375,786.6666870117188,786.6666870117188,786.6666870117188,786.6666870117188,786.6666870117188,786.6666870117188,786.6666870117188,786.6666870117188,786.6666870117188,786.6666870117188,784.6666870117188,784.6666870117188,784.6666870117188,784.6666870117188,784.6666870117188,784.6666870117188,784.6666870117188,784.6666870117188,784.6666870117188,784.6666870117188,784.6666870117188,784.6666870117188,784.6666870117188,784.6666870117188,784.6666870117188,784.6666870117188,782.6666870117188,781.3333740234375,780.6666870117188,777.3333740234375,771.3333740234375,769.3333740234375,762,750.6666870117188,736.6666870117188,701.3333740234375,670.6666870117188,654,646.6666870117188,646.6666870117188,646.6666870117188,566.6666870117188,540.6666870117188,531.3333740234375,517.3333740234375,485.3333435058594,456.66668701171875,443.3333435058594,412.66668701171875,396.66668701171875,361.3333435058594,306.66668701171875,269.3333435058594,249.33334350585938,206.6666717529297,187.33334350585938,126.66667175292969,114,94],"timestamp_mouse":[14,46,64,85,105,125,145,165,185,205,224,245,265,286,305,325,345,365,385,405,425,445,465,485,505,525,545,565,585,605,625,645,665,685,705,724,745,765,785,804,824,846,865,885,905,924,944,965,985,1005,1025,1045,1064,1085,1105,1125,1144,1165,1185,1205,1225,1245,1265,1285,1305,1324,1345,1365,1385,1405,1424,1445,1465,1485,1507,1526,1545,1565,1585,1605,1628,1646,1665,1685,1705,1727,1745,1765,1784,1807,1826,1845,1864,1885,1905,1925,1945,1965,1985,2005,2029,2045,2064],"xSR":350,"ySR":768,"xT1":30,"yT1":0,"xT2":670,"yT2":0,"toosoon":0,"cond_shown":"Congruent","ratio_trial":200,"L_num":16,"L_den":30,"R_num":9,"R_den":27,"correct_side":1,"subjID":"42wm","gender":"No_gender","school":"No_school","age":"No_age"},{"start_time":1549381501104,"click_time":1549381502912,"finger_time":1549381502508,"fix_duration":1154.7197626308646,"trial":18,"RT":1404,"MT":404,"sideResp":2,"stimulus":[],"xmouse":[400,400,400,400,400,400,399.3333435058594,399.3333435058594,399.3333435058594,399.3333435058594,399.3333435058594,399.3333435058594,399.3333435058594,399.3333435058594,399.3333435058594,399.3333435058594,397.3333435058594,396.66668701171875,396.66668701171875,396,395.3333435058594,395.3333435058594,395.3333435058594,394.66668701171875,394.66668701171875,394.66668701171875,394.66668701171875,394.66668701171875,395.3333435058594,395.3333435058594,396,396,396,396,396,396,396,396,396,396,400.66668701171875,400.66668701171875,400.66668701171875,400.66668701171875,400.66668701171875,400.66668701171875,400.66668701171875,400.66668701171875,400.66668701171875,400.66668701171875,400,400,400,400,400,400,400,400,400,400,400,400,400,400,400,400,400,400,400,400,412.66668701171875,430.66668701171875,458,473.3333435058594,482,499.3333435058594,509.3333435058594,538.6666870117188,560,582,593.3333740234375,616,638.6666870117188,645.3333740234375,646.6666870117188,650.6666870117188,655.3333740234375,659.3333740234375,672,684.6666870117188,690],"ymouse":[810,810,810,810,810,810,810.6666870117188,810.6666870117188,810.6666870117188,810.6666870117188,810.6666870117188,810.6666870117188,810.6666870117188,810.6666870117188,810.6666870117188,810.6666870117188,812,812,812,812,812,812,812,812,812,812,812,812,812,812,812,812,812,812,812,812,812,812,812,812,814,814,814,814,814,814,814,814,814,814,815.3333740234375,815.3333740234375,815.3333740234375,815.3333740234375,815.3333740234375,815.3333740234375,815.3333740234375,815.3333740234375,815.3333740234375,815.3333740234375,814.6666870117188,814.6666870117188,814.6666870117188,814.6666870117188,814.6666870117188,814.6666870117188,814.6666870117188,814.6666870117188,814.6666870117188,814.6666870117188,735.3333740234375,668,586,538.6666870117188,514.6666870117188,466.66668701171875,443.3333435058594,374.66668701171875,330,284,260.66668701171875,222.6666717529297,186.6666717529297,176,173.33334350585938,166,156.6666717529297,150,123.33334350585938,103.33333587646484,96],"timestamp_mouse":[4,42,44,63,83,104,124,144,163,184,204,224,244,264,284,304,324,343,364,384,404,424,443,464,484,504,523,544,564,584,604,624,644,664,684,704,725,744,764,783,804,824,845,864,884,903,924,943,964,984,1004,1024,1044,1064,1084,1104,1124,1144,1163,1184,1205,1224,1243,1264,1284,1303,1324,1343,1364,1384,1404,1424,1445,1465,1483,1504,1524,1546,1564,1584,1604,1624,1645,1664,1684,1704,1723,1743,1764,1784,1806],"xSR":350,"ySR":768,"xT1":30,"yT1":0,"xT2":670,"yT2":0,"toosoon":0,"cond_shown":"Incongruent","ratio_trial":200,"L_num":9,"L_den":15,"R_num":8,"R_den":10,"correct_side":2,"subjID":"42wm","gender":"No_gender","school":"No_school","age":"No_age"},{"start_time":1549381504862,"click_time":1549381506590,"finger_time":1549381506188,"fix_duration":932.8579258054727,"trial":19,"RT":1326,"MT":402,"sideResp":2,"stimulus":[],"xmouse":[387.3333435058594,387.3333435058594,387.3333435058594,387.3333435058594,387.3333435058594,387.3333435058594,387.3333435058594,387.3333435058594,387.3333435058594,387.3333435058594,387.3333435058594,387.3333435058594,387.3333435058594,387.3333435058594,387.3333435058594,387.3333435058594,387.3333435058594,387.3333435058594,387.3333435058594,387.3333435058594,387.3333435058594,387.3333435058594,387.3333435058594,387.3333435058594,387.3333435058594,388.66668701171875,388.66668701171875,388.66668701171875,388.66668701171875,388.66668701171875,388.66668701171875,388.66668701171875,388.66668701171875,388.66668701171875,388.66668701171875,389.3333435058594,389.3333435058594,389.3333435058594,389.3333435058594,389.3333435058594,389.3333435058594,389.3333435058594,389.3333435058594,389.3333435058594,389.3333435058594,394,394,394,395.3333435058594,395.3333435058594,395.3333435058594,395.3333435058594,395.3333435058594,396,396,396.66668701171875,396.66668701171875,396.66668701171875,396.66668701171875,397.3333435058594,397.3333435058594,398,398,398.66668701171875,400,404,412.66668701171875,417.3333435058594,427.3333435058594,432.66668701171875,441.3333435058594,458,471.3333435058594,479.3333435058594,497.3333435058594,506.66668701171875,548.6666870117188,560,583.3333740234375,596,618,657.3333740234375,678,684,698.6666870117188,706,713.3333740234375],"ymouse":[797.3333740234375,797.3333740234375,797.3333740234375,797.3333740234375,797.3333740234375,797.3333740234375,797.3333740234375,797.3333740234375,797.3333740234375,797.3333740234375,797.3333740234375,797.3333740234375,797.3333740234375,797.3333740234375,797.3333740234375,797.3333740234375,797.3333740234375,797.3333740234375,797.3333740234375,797.3333740234375,797.3333740234375,797.3333740234375,797.3333740234375,797.3333740234375,797.3333740234375,796.6666870117188,796.6666870117188,796.6666870117188,796.6666870117188,796.6666870117188,796.6666870117188,796.6666870117188,796.6666870117188,796.6666870117188,796.6666870117188,796,796,796,796,796,796,796,796,796,796,790,790,790,788.6666870117188,788.6666870117188,788.6666870117188,788.6666870117188,788.6666870117188,788,788,788,788,788,787.3333740234375,786.6666870117188,786.6666870117188,786.6666870117188,786,785.3333740234375,782.6666870117188,773.3333740234375,755.3333740234375,744,716,700.6666870117188,670,618.6666870117188,582,562,516.6666870117188,494,398,374.66668701171875,326,300.66668701171875,256.66668701171875,190,160.6666717529297,148,127.33334350585938,106.66667175292969,99.33333587646484],"timestamp_mouse":[20,45,45,66,86,106,126,146,166,186,206,226,246,266,286,306,326,346,366,386,406,426,446,466,486,506,526,546,566,586,606,626,646,666,685,706,726,746,766,786,806,825,845,866,885,907,926,946,966,986,1006,1026,1046,1066,1086,1108,1126,1145,1165,1188,1206,1226,1246,1266,1286,1309,1326,1346,1366,1386,1405,1428,1445,1466,1486,1506,1528,1546,1566,1586,1606,1627,1646,1666,1686,1708,1727],"xSR":350,"ySR":768,"xT1":30,"yT1":0,"xT2":670,"yT2":0,"toosoon":0,"cond_shown":"Congruent","ratio_trial":500,"L_num":15,"L_den":18,"R_num":5,"R_den":15,"correct_side":1,"subjID":"42wm","gender":"No_gender","school":"No_school","age":"No_age"},{"start_time":1549381509893,"click_time":1549381511308,"finger_time":1549381510928,"fix_duration":760.8880839681912,"trial":20,"RT":1035,"MT":380,"sideResp":2,"stimulus":[],"xmouse":[402.66668701171875,403.3333435058594,403.3333435058594,405.3333435058594,405.3333435058594,405.3333435058594,405.3333435058594,412,412,412,412,412,412.66668701171875,412.66668701171875,412.66668701171875,412.66668701171875,412.66668701171875,412.66668701171875,412.66668701171875,412.66668701171875,412.66668701171875,412.66668701171875,412.66668701171875,408.66668701171875,408.66668701171875,408.66668701171875,408.66668701171875,408.66668701171875,408.66668701171875,408.66668701171875,408.66668701171875,408.66668701171875,408.66668701171875,412.66668701171875,412.66668701171875,413.3333435058594,414.66668701171875,414.66668701171875,414.66668701171875,416,416,416,416,419.3333435058594,419.3333435058594,419.3333435058594,419.3333435058594,424.66668701171875,425.3333435058594,425.3333435058594,428.66668701171875,436,444,448.66668701171875,461.3333435058594,478.66668701171875,485.3333435058594,502.66668701171875,517.3333740234375,524.6666870117188,547.3333740234375,569.3333740234375,589.3333740234375,601.3333740234375,622,649.3333740234375,656,666.6666870117188,682,684.6666870117188,689.3333740234375],"ymouse":[840,838.6666870117188,838.6666870117188,838.6666870117188,838.6666870117188,838.6666870117188,838.6666870117188,840,840,840,840,840,839.3333740234375,839.3333740234375,839.3333740234375,839.3333740234375,839.3333740234375,839.3333740234375,839.3333740234375,839.3333740234375,839.3333740234375,839.3333740234375,839.3333740234375,838,838,838,838,838,838,838,838,838,838,834.6666870117188,834.6666870117188,834,833.3333740234375,833.3333740234375,833.3333740234375,833.3333740234375,832.6666870117188,832.6666870117188,832.6666870117188,829.3333740234375,829.3333740234375,829.3333740234375,829.3333740234375,818,813.3333740234375,810,772.6666870117188,732.6666870117188,696.6666870117188,678.6666870117188,642,582.6666870117188,564.6666870117188,522,483.3333435058594,465.3333435058594,397.3333435058594,344,290.66668701171875,265.3333435058594,220,170,156,136.6666717529297,116.66667175292969,110,96],"timestamp_mouse":[15,44,55,75,95,116,135,154,175,195,214,235,255,275,295,315,335,355,375,395,415,435,455,475,495,515,538,555,574,595,615,635,655,676,695,714,735,754,775,795,815,835,855,875,895,915,935,954,975,995,1017,1035,1055,1075,1095,1116,1136,1155,1175,1194,1216,1235,1255,1275,1295,1319,1335,1356,1375,1394,1415],"xSR":350,"ySR":768,"xT1":30,"yT1":0,"xT2":670,"yT2":0,"toosoon":0,"cond_shown":"Congruent","ratio_trial":300,"L_num":4,"L_den":20,"R_num":13,"R_den":26,"correct_side":2,"subjID":"42wm","gender":"No_gender","school":"No_school","age":"No_age"},{"start_time":1549381513545,"click_time":1549381515768,"finger_time":1549381515155,"fix_duration":794.4594648334511,"trial":21,"RT":1610,"MT":613,"sideResp":1,"stimulus":[],"xmouse":[411.3333435058594,411.3333435058594,411.3333435058594,411.3333435058594,408,408,408,408,407.3333435058594,407.3333435058594,407.3333435058594,407.3333435058594,407.3333435058594,407.3333435058594,406,406,406,406,406.66668701171875,406.66668701171875,406.66668701171875,407.3333435058594,407.3333435058594,407.3333435058594,407.3333435058594,407.3333435058594,408.66668701171875,408.66668701171875,408.66668701171875,408.66668701171875,408.66668701171875,408.66668701171875,408.66668701171875,408.66668701171875,408.66668701171875,408.66668701171875,409.3333435058594,409.3333435058594,409.3333435058594,409.3333435058594,409.3333435058594,409.3333435058594,409.3333435058594,409.3333435058594,409.3333435058594,409.3333435058594,409.3333435058594,409.3333435058594,408.66668701171875,408.66668701171875,408.66668701171875,408.66668701171875,408.66668701171875,408.66668701171875,408.66668701171875,408.66668701171875,408.66668701171875,408.66668701171875,409.3333435058594,409.3333435058594,409.3333435058594,409.3333435058594,409.3333435058594,409.3333435058594,409.3333435058594,409.3333435058594,409.3333435058594,409.3333435058594,409.3333435058594,406.66668701171875,406.66668701171875,406.66668701171875,406.66668701171875,406.66668701171875,418,419.3333435058594,422.66668701171875,424.66668701171875,425.3333435058594,418.66668701171875,418.66668701171875,418.66668701171875,388,374.66668701171875,355.3333435058594,348.66668701171875,332.66668701171875,314.66668701171875,291.3333435058594,283.3333435058594,268.66668701171875,259.3333435058594,238,223.33334350585938,210,202.6666717529297,187.33334350585938,177.33334350585938,166,144,134.6666717529297,128,120,116,112,108,102.66667175292969,100.66667175292969,101.33333587646484,100.66667175292969,96.66667175292969],"ymouse":[832,832,832,832,827.3333740234375,827.3333740234375,826.6666870117188,826.6666870117188,826.6666870117188,826.6666870117188,826.6666870117188,826.6666870117188,826.6666870117188,826.6666870117188,826,826,825.3333740234375,824.6666870117188,824.6666870117188,824.6666870117188,823.3333740234375,823.3333740234375,823.3333740234375,823.3333740234375,823.3333740234375,823.3333740234375,824,824,824,824,824,824,824,824,824,824,824,824,824,824,822,822,821.3333740234375,821.3333740234375,820.6666870117188,820,820,820,818.6666870117188,818,818,817.3333740234375,818,818,818,818,818,818,818.6666870117188,818.6666870117188,818.6666870117188,818.6666870117188,818.6666870117188,818.6666870117188,818.6666870117188,818.6666870117188,818.6666870117188,818.6666870117188,818.6666870117188,818.6666870117188,818.6666870117188,818.6666870117188,818.6666870117188,818.6666870117188,806,802.6666870117188,796,789.3333740234375,774,754,754,754,679.3333740234375,638,588.6666870117188,574.6666870117188,546,519.3333740234375,480.66668701171875,466.66668701171875,437.3333435058594,421.3333435058594,372.66668701171875,344,314.66668701171875,301.3333435058594,274.66668701171875,262.66668701171875,238,204,184,175.33334350585938,154,148.6666717529297,136,128,119.33334350585938,114.66667175292969,108.66667175292969,106,96],"timestamp_mouse":[3,43,63,83,102,123,143,163,183,203,223,243,263,283,302,323,343,363,383,403,423,446,463,483,502,523,543,563,583,603,623,643,663,683,702,723,742,763,783,803,822,843,863,883,904,923,943,962,986,1005,1023,1042,1064,1083,1103,1123,1143,1163,1185,1208,1243,1243,1263,1282,1303,1323,1343,1362,1383,1403,1423,1443,1463,1483,1503,1523,1543,1563,1589,1610,1623,1643,1663,1683,1703,1723,1743,1762,1785,1804,1823,1846,1871,1886,1903,1922,1943,1963,1983,2004,2023,2042,2063,2083,2104,2123,2143,2163,2183,2203,2223],"xSR":350,"ySR":768,"xT1":30,"yT1":0,"xT2":670,"yT2":0,"toosoon":0,"cond_shown":"Incongruent","ratio_trial":300,"L_num":13,"L_den":26,"R_num":12,"R_den":15,"correct_side":2,"subjID":"42wm","gender":"No_gender","school":"No_school","age":"No_age"},{"start_time":1549381518159,"click_time":1549381519728,"finger_time":1549381519168,"fix_duration":949.8514642860916,"trial":22,"RT":1009,"MT":560,"sideResp":1,"stimulus":[],"xmouse":[397.3333435058594,397.3333435058594,397.3333435058594,397.3333435058594,397.3333435058594,397.3333435058594,397.3333435058594,397.3333435058594,403.3333435058594,403.3333435058594,403.3333435058594,403.3333435058594,403.3333435058594,403.3333435058594,404.66668701171875,404.66668701171875,404.66668701171875,406.66668701171875,407.3333435058594,408.66668701171875,408.66668701171875,408.66668701171875,408.66668701171875,408.66668701171875,408.66668701171875,408.66668701171875,408.66668701171875,408.66668701171875,408.66668701171875,408.66668701171875,408.66668701171875,408.66668701171875,408.66668701171875,408.66668701171875,408.66668701171875,408.66668701171875,408.66668701171875,408.66668701171875,408.66668701171875,408,408,411.3333435058594,412,412,412,412,414,414,414,408.66668701171875,408.66668701171875,373.3333435058594,365.3333435058594,350.66668701171875,326.66668701171875,311.3333435058594,304.66668701171875,292,284.66668701171875,253.33334350585938,246,231.33334350585938,223.33334350585938,208.6666717529297,190.6666717529297,184.6666717529297,175.33334350585938,166,160.6666717529297,151.33334350585938,145.33334350585938,141.33334350585938,134,128.6666717529297,124.66667175292969,123.33334350585938,122,120.66667175292969],"ymouse":[816,816,816,816,816,816,816,816,816,816,816,816,816,816,817.3333740234375,817.3333740234375,817.3333740234375,816.6666870117188,816,816,816,816,816,816,816,815.3333740234375,815.3333740234375,815.3333740234375,815.3333740234375,814,814,814,814,814,814,814,814,814,814,811.3333740234375,811.3333740234375,810.6666870117188,810,810,810,810,788.6666870117188,788.6666870117188,788.6666870117188,764,764,696.6666870117188,682.6666870117188,652,594,560,543.3333740234375,514,501.3333740234375,438,422,385.3333435058594,364.66668701171875,320,244.66668701171875,222,182,151.33334350585938,140,121.33334350585938,116,114.66667175292969,111.33333587646484,109.33333587646484,106.66667175292969,105.33333587646484,102.66667175292969,99.33333587646484],"timestamp_mouse":[10,51,68,89,108,128,148,169,189,209,229,249,269,289,310,329,349,369,388,410,429,448,469,489,509,529,549,569,589,609,629,649,669,689,709,729,749,769,789,809,829,849,869,889,909,929,949,969,988,1009,1029,1050,1069,1090,1110,1129,1149,1169,1189,1210,1229,1249,1268,1289,1310,1329,1349,1369,1389,1410,1428,1449,1469,1488,1511,1530,1549,1569],"xSR":350,"ySR":768,"xT1":30,"yT1":0,"xT2":670,"yT2":0,"toosoon":0,"cond_shown":"Congruent","ratio_trial":500,"L_num":25,"L_den":30,"R_num":9,"R_den":27,"correct_side":1,"subjID":"42wm","gender":"No_gender","school":"No_school","age":"No_age"},{"start_time":1549381521633,"click_time":1549381524412,"finger_time":1549381523010,"fix_duration":723.373601853818,"trial":23,"RT":1377,"MT":1402,"sideResp":2,"stimulus":[],"xmouse":[422,422,422,422,422,418,418,418,418,418,418,418,418,418,418,420.66668701171875,420.66668701171875,420.66668701171875,420.66668701171875,420.66668701171875,420.66668701171875,420.66668701171875,420.66668701171875,420.66668701171875,420.66668701171875,424.66668701171875,425.3333435058594,424.66668701171875,424.66668701171875,424,424,424,424,424,424,418.66668701171875,418.66668701171875,418.66668701171875,416,416,416.66668701171875,417.3333435058594,416,413.3333435058594,411.3333435058594,410,410,408.66668701171875,408.66668701171875,408.66668701171875,408.66668701171875,410.66668701171875,410.66668701171875,410.66668701171875,410.66668701171875,410.66668701171875,410.66668701171875,410.66668701171875,410.66668701171875,410.66668701171875,410.66668701171875,416,416,416,416,416,416,416,425.3333435058594,434.66668701171875,446,451.3333435058594,471.3333435058594,485.3333435058594,494,506.66668701171875,520,539.3333740234375,544.6666870117188,555.3333740234375,567.3333740234375,570.6666870117188,578.6666870117188,581.3333740234375,583.3333740234375,584,584,584,584,584,584,584,584,584.6666870117188,584.6666870117188,584.6666870117188,584.6666870117188,584.6666870117188,584.6666870117188,584.6666870117188,584.6666870117188,584.6666870117188,584.6666870117188,584,584,584,584,584,584,584,584,584,583.3333740234375,583.3333740234375,583.3333740234375,583.3333740234375,583.3333740234375,583.3333740234375,582.6666870117188,582.6666870117188,582.6666870117188,594.6666870117188,604,618.6666870117188,624,634.6666870117188,646.6666870117188,652,667.3333740234375,678.6666870117188,685.3333740234375,697.3333740234375,70