[{"start_time":1549381970860,"click_time":1549381972421,"finger_time":1549381970871,"fix_duration":628.4725017969558,"trial":0,"RT":11,"MT":1550,"sideResp":2,"stimulus":"img/250/equaldotanddens/L/7_Ratio_250_L_8_R_2.png","xmouse":[392,392,392,392,392,390.66668701171875,390.66668701171875,390.66668701171875,390.66668701171875,390.66668701171875,390.66668701171875,390.66668701171875,390.66668701171875,390.66668701171875,390.66668701171875,390.66668701171875,390.66668701171875,390.66668701171875,390.66668701171875,390.66668701171875,390.66668701171875,390.66668701171875,390.66668701171875,390.66668701171875,390.66668701171875,392,392,392,392,392,392,392,392,392,392,392,392,392,392,392,392,392,392,392,392,392,392,392,392,392,370.66668701171875,370.66668701171875,370.66668701171875,387.3333435058594,391.3333435058594,400,407.3333435058594,424.66668701171875,431.3333435058594,444,455.3333435058594,459.3333435058594,472,488,501.3333435058594,510,521.3333740234375,530.6666870117188,558.6666870117188,568,582,592,602.6666870117188,625.3333740234375,634,640.6666870117188,654,658,676],"ymouse":[738.6666870117188,738.6666870117188,738.6666870117188,738.6666870117188,738.6666870117188,742.6666870117188,742.6666870117188,742.6666870117188,742.6666870117188,742.6666870117188,742.6666870117188,742.6666870117188,742.6666870117188,742.6666870117188,742.6666870117188,740.6666870117188,740.6666870117188,740.6666870117188,740.6666870117188,740.6666870117188,740.6666870117188,740.6666870117188,740.6666870117188,740.6666870117188,740.6666870117188,740,740,740,740,740,740,740,740,742,742,742,742,742,742,742,742,742,742,742,742,742,742,742,742,742,812.6666870117188,812.6666870117188,812.6666870117188,784.6666870117188,778.6666870117188,762,743.3333740234375,698.6666870117188,679.3333740234375,642.6666870117188,607.3333740234375,590.6666870117188,555.3333740234375,500,462.66668701171875,441.3333435058594,408.66668701171875,386,315.3333435058594,294.66668701171875,263.3333435058594,244,214,167.33334350585938,141.33334350585938,130,107.33333587646484,95.33333587646484,62],"timestamp_mouse":[11,20,40,63,80,100,120,140,160,181,200,220,240,260,280,300,320,341,362,383,401,420,440,460,480,501,520,540,560,581,600,620,640,660,680,700,720,740,760,780,800,820,840,861,880,901,920,940,961,981,1000,1021,1040,1062,1080,1100,1120,1143,1163,1181,1200,1220,1240,1260,1280,1300,1320,1340,1363,1380,1401,1420,1441,1463,1480,1501,1520,1540,1561],"xSR":350,"ySR":696,"xT1":30,"yT1":0,"xT2":670,"yT2":0,"toosoon":0,"cond_shown":"equaldotanddens","ratio_trial":250,"smaller_num":"2","larger_num":"8","correct_side":1,"subjID":"42wm","gender":"No_gender","age":"No_age","school":"No_school","test":{"fix_dur":[250,1500],"timestim":400,"targets_dim":[100,100],"targets_relative_coord":[0.1,0.9],"size_stim":[880,420],"start_dim":[100,100],"size_start":[300,300],"size_fix":60,"samplingrate":20,"img_types":["equaldotsize","equaldotanddens","randomdotsize","randomdotsizeEA"],"ratios":[250,500,750,900],"rep_conds":7,"nTrials":128,"trials_to_rest":500,"Trials_order":[33,16,26,15,6,25,77,91,40,85,64,60,39,30,121,10,62,18,29,13,21,80,7,43,102,58,88,123,97,71,90,44,28,99,12,9,73,0,81,22,78,122,24,75,124,94,93,8,4,87,2,1,55,48,57,17,66,125,61,34,52,110,86,49,37,112,47,53,14,89,115,27,38,113,23,83,20,120,117,69,65,46,70,96,92,106,59,19,100,95,54,103,50,67,104,11,101,98,63,31,45,56,72,68,119,107,111,76,116,108,114,42,51,32,118,35,41,3,82,79,84,74,127,5,105,126,109,36],"cond_shown":["equaldotanddens","equaldotsize","randomdotsize","randomdotsizeEA","randomdotsize","equaldotanddens","equaldotanddens","randomdotsizeEA","equaldotsize","equaldotanddens","equaldotsize","equaldotsize","randomdotsizeEA","randomdotsize","equaldotanddens","randomdotsize","randomdotsize","randomdotsize","equaldotanddens","equaldotanddens","equaldotanddens","equaldotsize","randomdotsizeEA","randomdotsizeEA","randomdotsize","randomdotsize","equaldotsize","randomdotsizeEA","equaldotanddens","randomdotsizeEA","randomdotsize","equaldotsize","equaldotsize","randomdotsizeEA","equaldotsize","equaldotanddens","equaldotanddens","equaldotsize","equaldotanddens","randomdotsize","randomdotsize","randomdotsize","equaldotsize","randomdotsizeEA","equaldotsize","randomdotsize","equaldotanddens","equaldotsize","equaldotsize","randomdotsizeEA","randomdotsize","equaldotanddens","randomdotsizeEA","equaldotsize","equaldotanddens","equaldotanddens","randomdotsize","equaldotanddens","equaldotanddens","randomdotsize","equaldotsize","randomdotsize","randomdotsize","equaldotanddens","equaldotanddens","equaldotsize","randomdotsizeEA","equaldotanddens","randomdotsize","equaldotanddens","randomdotsizeEA","randomdotsizeEA","randomdotsize","equaldotanddens","randomdotsizeEA","randomdotsizeEA","equaldotsize","equaldotsize","equaldotanddens","equaldotanddens","equaldotanddens","randomdotsize","randomdotsize","equaldotsize","equaldotsize","randomdotsize","randomdotsizeEA","randomdotsizeEA","equaldotsize","randomdotsizeEA","randomdotsize","randomdotsizeEA","randomdotsize","randomdotsizeEA","equaldotsize","randomdotsizeEA","equaldotanddens","randomdotsize","randomdotsizeEA","randomdotsizeEA","equaldotanddens","equaldotsize","equaldotsize","equaldotsize","randomdotsizeEA","randomdotsizeEA","randomdotsizeEA","equaldotsize","equaldotsize","equaldotsize","randomdotsize","randomdotsize","randomdotsizeEA","equaldotsize","randomdotsize","randomdotsizeEA","equaldotanddens","randomdotsizeEA","randomdotsize","randomdotsizeEA","equaldotsize","randomdotsize","randomdotsizeEA","equaldotanddens","equaldotanddens","randomdotsize","equaldotanddens","equaldotsize"],"ratio_trial":[250,250,750,900,500,750,900,750,750,500,250,900,500,900,750,750,900,250,900,900,500,250,500,750,500,750,750,750,250,500,750,900,900,250,900,750,750,250,250,500,900,750,750,750,900,900,900,750,500,500,250,250,500,250,750,250,250,900,900,250,500,900,500,250,500,250,900,500,900,750,250,750,500,250,500,250,500,750,500,500,250,900,500,250,900,750,750,250,500,900,500,500,250,250,750,750,500,250,900,900,900,750,750,500,500,750,900,900,500,900,250,750,250,250,500,250,750,250,250,900,500,750,900,500,750,900,900,500],"smaller_num":["2","3","15","18","2","3","9","6","15","9","5","9","2","18","6","18","18","5","9","18","1","4","9","15","9","3","3","3","3","9","6","18","18","3","9","3","12","2","4","2","18","3","3","3","18","9","18","15","2","9","2","3","5","2","9","2","3","18","18","2","9","18","2","4","1","3","9","6","18","6","5","3","6","1","6","3","2","15","5","10","1","9","9","1","9","15","18","6","9","18","5","5","4","5","3","6","6","3","18","18","18","18","12","6","3","15","18","18","5","18","2","18","6","4","2","3","15","3","3","18","2","3","9","5","9","9","18","5"],"larger_num":["8","12","20","20","4","4","10","8","20","18","20","10","4","20","8","24","20","20","10","20","2","16","18","20","18","4","4","4","12","18","8","20","20","12","10","4","16","8","16","4","20","4","4","4","20","10","20","20","4","18","8","12","10","8","12","8","12","20","20","8","18","20","4","16","2","12","10","12","20","8","20","4","12","4","12","12","4","20","10","20","4","10","18","4","10","20","24","24","18","20","10","10","16","20","4","8","12","12","20","20","20","24","16","12","6","20","20","20","10","20","8","24","24","16","4","12","20","12","12","20","4","4","10","10","12","10","20","10"],"correct_side":[1,1,1,2,1,1,2,2,2,2,2,2,1,1,1,1,1,2,2,1,2,1,2,2,2,1,1,1,1,2,2,1,1,1,1,1,2,1,2,1,2,1,1,1,1,2,2,2,1,2,1,1,2,1,2,1,1,2,1,2,2,2,1,2,2,1,1,1,2,2,2,2,1,2,1,1,1,2,1,2,2,1,1,2,1,2,1,1,1,1,2,2,2,2,2,2,1,2,2,1,1,1,2,1,2,2,2,2,1,1,1,1,1,1,1,1,2,1,2,2,1,1,1,2,2,1,2,2],"img_shown":["img/250/equaldotanddens/L/7_Ratio_250_L_8_R_2.png","img/250/equaldotsize/L/15_Ratio_250_L_12_R_3.png","img/750/randomdotsize/L/1_Ratio_750_L_20_R_15.png","img/900/randomdotsizeEA/R/12_Ratio_900_L_18_R_20.png","img/500/randomdotsize/L/5_Ratio_500_L_4_R_2.png","img/750/equaldotanddens/L/8_Ratio_750_L_4_R_3.png","img/900/equaldotanddens/R/15_Ratio_900_L_9_R_10.png","img/750/randomdotsizeEA/R/2_Ratio_750_L_6_R_8.png","img/750/equaldotsize/R/3_Ratio_750_L_15_R_20.png","img/500/equaldotanddens/R/1_Ratio_500_L_9_R_18.png","img/250/equaldotsize/R/12_Ratio_250_L_5_R_20.png","img/900/equaldotsize/R/6_Ratio_900_L_9_R_10.png","img/500/randomdotsizeEA/L/10_Ratio_500_L_4_R_2.png","img/900/randomdotsize/L/10_Ratio_900_L_20_R_18.png","img/750/equaldotanddens/L/13_Ratio_750_L_8_R_6.png","img/750/randomdotsize/L/6_Ratio_750_L_24_R_18.png","img/900/randomdotsize/L/4_Ratio_900_L_20_R_18.png","img/250/randomdotsize/R/12_Ratio_250_L_5_R_20.png","img/900/equaldotanddens/R/15_Ratio_900_L_9_R_10.png","img/900/equaldotanddens/L/10_Ratio_900_L_20_R_18.png","img/500/equaldotanddens/R/15_Ratio_500_L_1_R_2.png","img/250/equaldotsize/L/2_Ratio_250_L_16_R_4.png","img/500/randomdotsizeEA/R/6_Ratio_500_L_9_R_18.png","img/750/randomdotsizeEA/R/4_Ratio_750_L_15_R_20.png","img/500/randomdotsize/R/1_Ratio_500_L_9_R_18.png","img/750/randomdotsize/L/9_Ratio_750_L_4_R_3.png","img/750/equaldotsize/L/10_Ratio_750_L_4_R_3.png","img/750/randomdotsizeEA/L/8_Ratio_750_L_4_R_3.png","img/250/equaldotanddens/L/15_Ratio_250_L_12_R_3.png","img/500/randomdotsizeEA/R/6_Ratio_500_L_9_R_18.png","img/750/randomdotsize/R/2_Ratio_750_L_6_R_8.png","img/900/equaldotsize/L/10_Ratio_900_L_20_R_18.png","img/900/equaldotsize/L/8_Ratio_900_L_20_R_18.png","img/250/randomdotsizeEA/L/14_Ratio_250_L_12_R_3.png","img/900/equaldotsize/L/1_Ratio_900_L_10_R_9.png","img/750/equaldotanddens/L/9_Ratio_750_L_4_R_3.png","img/750/equaldotanddens/R/11_Ratio_750_L_12_R_16.png","img/250/equaldotsize/L/1_Ratio_250_L_8_R_2.png","img/250/equaldotanddens/R/10_Ratio_250_L_4_R_16.png","img/500/randomdotsize/L/5_Ratio_500_L_4_R_2.png","img/900/randomdotsize/R/14_Ratio_900_L_18_R_20.png","img/750/randomdotsize/L/8_Ratio_750_L_4_R_3.png","img/750/equaldotsize/L/8_Ratio_750_L_4_R_3.png","img/750/randomdotsizeEA/L/10_Ratio_750_L_4_R_3.png","img/900/equaldotsize/L/8_Ratio_900_L_20_R_18.png","img/900/randomdotsize/R/6_Ratio_900_L_9_R_10.png","img/900/equaldotanddens/R/9_Ratio_900_L_18_R_20.png","img/750/equaldotsize/R/3_Ratio_750_L_15_R_20.png","img/500/equaldotsize/L/5_Ratio_500_L_4_R_2.png","img/500/randomdotsizeEA/R/6_Ratio_500_L_9_R_18.png","img/250/randomdotsize/L/1_Ratio_250_L_8_R_2.png","img/250/equaldotanddens/L/15_Ratio_250_L_12_R_3.png","img/500/randomdotsizeEA/R/14_Ratio_500_L_5_R_10.png","img/250/equaldotsize/L/1_Ratio_250_L_8_R_2.png","img/750/equaldotanddens/R/15_Ratio_750_L_9_R_12.png","img/250/equaldotanddens/L/3_Ratio_250_L_8_R_2.png","img/250/randomdotsize/L/14_Ratio_250_L_12_R_3.png","img/900/equaldotanddens/R/9_Ratio_900_L_18_R_20.png","img/900/equaldotanddens/L/4_Ratio_900_L_20_R_18.png","img/250/randomdotsize/R/13_Ratio_250_L_2_R_8.png","img/500/equaldotsize/R/1_Ratio_500_L_9_R_18.png","img/900/randomdotsize/R/11_Ratio_900_L_18_R_20.png","img/500/randomdotsize/L/5_Ratio_500_L_4_R_2.png","img/250/equaldotanddens/R/10_Ratio_250_L_4_R_16.png","img/500/equaldotanddens/R/15_Ratio_500_L_1_R_2.png","img/250/equaldotsize/L/14_Ratio_250_L_12_R_3.png","img/900/randomdotsizeEA/L/1_Ratio_900_L_10_R_9.png","img/500/equaldotanddens/L/13_Ratio_500_L_12_R_6.png","img/900/randomdotsize/R/12_Ratio_900_L_18_R_20.png","img/750/equaldotanddens/R/2_Ratio_750_L_6_R_8.png","img/250/randomdotsizeEA/R/12_Ratio_250_L_5_R_20.png","img/750/randomdotsizeEA/R/7_Ratio_750_L_3_R_4.png","img/500/randomdotsize/L/11_Ratio_500_L_12_R_6.png","img/250/equaldotanddens/R/8_Ratio_250_L_1_R_4.png","img/500/randomdotsizeEA/L/11_Ratio_500_L_12_R_6.png","img/250/randomdotsizeEA/L/14_Ratio_250_L_12_R_3.png","img/500/equaldotsize/L/5_Ratio_500_L_4_R_2.png","img/750/equaldotsize/R/4_Ratio_750_L_15_R_20.png","img/500/equaldotanddens/L/7_Ratio_500_L_10_R_5.png","img/500/equaldotanddens/R/3_Ratio_500_L_10_R_20.png","img/250/equaldotanddens/R/8_Ratio_250_L_1_R_4.png","img/900/randomdotsize/L/1_Ratio_900_L_10_R_9.png","img/500/randomdotsize/L/4_Ratio_500_L_18_R_9.png","img/250/equaldotsize/R/8_Ratio_250_L_1_R_4.png","img/900/equaldotsize/L/1_Ratio_900_L_10_R_9.png","img/750/randomdotsize/R/3_Ratio_750_L_15_R_20.png","img/750/randomdotsizeEA/L/6_Ratio_750_L_24_R_18.png","img/250/randomdotsizeEA/L/5_Ratio_250_L_24_R_6.png","img/500/equaldotsize/L/4_Ratio_500_L_18_R_9.png","img/900/randomdotsizeEA/L/10_Ratio_900_L_20_R_18.png","img/500/randomdotsize/R/14_Ratio_500_L_5_R_10.png","img/500/randomdotsizeEA/R/14_Ratio_500_L_5_R_10.png","img/250/randomdotsize/R/10_Ratio_250_L_4_R_16.png","img/250/randomdotsizeEA/R/12_Ratio_250_L_5_R_20.png","img/750/equaldotsize/R/7_Ratio_750_L_3_R_4.png","img/750/randomdotsizeEA/R/2_Ratio_750_L_6_R_8.png","img/500/equaldotanddens/L/11_Ratio_500_L_12_R_6.png","img/250/randomdotsize/R/11_Ratio_250_L_3_R_12.png","img/900/randomdotsizeEA/R/12_Ratio_900_L_18_R_20.png","img/900/randomdotsizeEA/L/2_Ratio_900_L_20_R_18.png","img/900/equaldotanddens/L/8_Ratio_900_L_20_R_18.png","img/750/equaldotsize/L/6_Ratio_750_L_24_R_18.png","img/750/equaldotsize/R/11_Ratio_750_L_12_R_16.png","img/500/equaldotsize/L/13_Ratio_500_L_12_R_6.png","img/500/randomdotsizeEA/R/2_Ratio_500_L_3_R_6.png","img/750/randomdotsizeEA/R/4_Ratio_750_L_15_R_20.png","img/900/randomdotsizeEA/R/14_Ratio_900_L_18_R_20.png","img/900/equaldotsize/R/12_Ratio_900_L_18_R_20.png","img/500/equaldotsize/L/7_Ratio_500_L_10_R_5.png","img/900/equaldotsize/L/10_Ratio_900_L_20_R_18.png","img/250/randomdotsize/L/7_Ratio_250_L_8_R_2.png","img/750/randomdotsize/L/6_Ratio_750_L_24_R_18.png","img/250/randomdotsizeEA/L/5_Ratio_250_L_24_R_6.png","img/250/equaldotsize/L/2_Ratio_250_L_16_R_4.png","img/500/randomdotsize/L/5_Ratio_500_L_4_R_2.png","img/250/randomdotsizeEA/L/14_Ratio_250_L_12_R_3.png","img/750/equaldotanddens/R/4_Ratio_750_L_15_R_20.png","img/250/randomdotsizeEA/L/15_Ratio_250_L_12_R_3.png","img/250/randomdotsize/R/4_Ratio_250_L_3_R_12.png","img/900/randomdotsizeEA/R/13_Ratio_900_L_18_R_20.png","img/500/equaldotsize/L/5_Ratio_500_L_4_R_2.png","img/750/randomdotsize/L/10_Ratio_750_L_4_R_3.png","img/900/randomdotsizeEA/L/1_Ratio_900_L_10_R_9.png","img/500/equaldotanddens/R/14_Ratio_500_L_5_R_10.png","img/750/equaldotanddens/R/15_Ratio_750_L_9_R_12.png","img/900/randomdotsize/L/1_Ratio_900_L_10_R_9.png","img/900/equaldotanddens/R/9_Ratio_900_L_18_R_20.png","img/500/equaldotsize/R/14_Ratio_500_L_5_R_10.png"],"Rat0":[["12_Ratio_0_L_9_R_0.png","13_Ratio_0_L_6_R_0.png","5_Ratio_0_L_2_R_0.png","6_Ratio_0_L_4_R_0.png","8_Ratio_0_L_6_R_0.png"],["1_Ratio_0_L_0_R_17.png","10_Ratio_0_L_0_R_22.png","11_Ratio_0_L_0_R_1.png","14_Ratio_0_L_0_R_24.png","15_Ratio_0_L_0_R_4.png","2_Ratio_0_L_0_R_5.png","3_Ratio_0_L_0_R_17.png","4_Ratio_0_L_0_R_7.png","7_Ratio_0_L_0_R_19.png","9_Ratio_0_L_0_R_15.png"]],"Rat250":[["1_Ratio_250_L_8_R_2.png","14_Ratio_250_L_12_R_3.png","15_Ratio_250_L_12_R_3.png","2_Ratio_250_L_16_R_4.png","3_Ratio_250_L_8_R_2.png","5_Ratio_250_L_24_R_6.png","7_Ratio_250_L_8_R_2.png"],["10_Ratio_250_L_4_R_16.png","11_Ratio_250_L_3_R_12.png","12_Ratio_250_L_5_R_20.png","13_Ratio_250_L_2_R_8.png","4_Ratio_250_L_3_R_12.png","6_Ratio_250_L_6_R_24.png","8_Ratio_250_L_1_R_4.png","9_Ratio_250_L_3_R_12.png"]],"Rat500":[["10_Ratio_500_L_4_R_2.png","11_Ratio_500_L_12_R_6.png","13_Ratio_500_L_12_R_6.png","4_Ratio_500_L_18_R_9.png","5_Ratio_500_L_4_R_2.png","7_Ratio_500_L_10_R_5.png","8_Ratio_500_L_8_R_4.png"],["1_Ratio_500_L_9_R_18.png","12_Ratio_500_L_1_R_2.png","14_Ratio_500_L_5_R_10.png","15_Ratio_500_L_1_R_2.png","2_Ratio_500_L_3_R_6.png","3_Ratio_500_L_10_R_20.png","6_Ratio_500_L_9_R_18.png","9_Ratio_500_L_2_R_4.png"]],"Rat750":[["1_Ratio_750_L_20_R_15.png","10_Ratio_750_L_4_R_3.png","13_Ratio_750_L_8_R_6.png","14_Ratio_750_L_8_R_6.png","6_Ratio_750_L_24_R_18.png","8_Ratio_750_L_4_R_3.png","9_Ratio_750_L_4_R_3.png"],["11_Ratio_750_L_12_R_16.png","12_Ratio_750_L_3_R_4.png","15_Ratio_750_L_9_R_12.png","2_Ratio_750_L_6_R_8.png","3_Ratio_750_L_15_R_20.png","4_Ratio_750_L_15_R_20.png","5_Ratio_750_L_15_R_20.png","7_Ratio_750_L_3_R_4.png"]],"Rat900":[["1_Ratio_900_L_10_R_9.png","10_Ratio_900_L_20_R_18.png","2_Ratio_900_L_20_R_18.png","4_Ratio_900_L_20_R_18.png","8_Ratio_900_L_20_R_18.png"],["11_Ratio_900_L_18_R_20.png","12_Ratio_900_L_18_R_20.png","13_Ratio_900_L_18_R_20.png","14_Ratio_900_L_18_R_20.png","15_Ratio_900_L_9_R_10.png","3_Ratio_900_L_9_R_10.png","5_Ratio_900_L_9_R_10.png","6_Ratio_900_L_9_R_10.png","7_Ratio_900_L_9_R_10.png","9_Ratio_900_L_18_R_20.png"]],"Rat1000":[["10_Ratio_1000_L_16_R_16.png","11_Ratio_1000_L_6_R_6.png","12_Ratio_1000_L_14_R_14.png","13_Ratio_1000_L_20_R_20.png","15_Ratio_1000_L_15_R_15.png","2_Ratio_1000_L_17_R_17.png","4_Ratio_1000_L_9_R_9.png","5_Ratio_1000_L_6_R_6.png","6_Ratio_1000_L_19_R_19.png","8_Ratio_1000_L_14_R_14.png","9_Ratio_1000_L_25_R_25.png"],["1_Ratio_1000_L_1_R_1.png","14_Ratio_1000_L_17_R_17.png","3_Ratio_1000_L_17_R_17.png","7_Ratio_1000_L_6_R_6.png"]]}},{"start_time":1549381976387,"click_time":1549381977963,"finger_time":1549381977680,"fix_duration":1383.8567737783073,"trial":1,"RT":1293,"MT":283,"sideResp":1,"stimulus":"img/250/equaldotsize/L/15_Ratio_250_L_12_R_3.png","xmouse":[397.3333435058594,398,398,398,398,398,398,398,398,398,398.66668701171875,398.66668701171875,398.66668701171875,398.66668701171875,398.66668701171875,398.66668701171875,398.66668701171875,398.66668701171875,398.66668701171875,398.66668701171875,398.66668701171875,398.66668701171875,398.66668701171875,398.66668701171875,398.66668701171875,398.66668701171875,398.66668701171875,398.66668701171875,398.66668701171875,398.66668701171875,398.66668701171875,398.66668701171875,398.66668701171875,398.66668701171875,398.66668701171875,398.66668701171875,398.66668701171875,398.66668701171875,398.66668701171875,398.66668701171875,399.3333435058594,399.3333435058594,399.3333435058594,399.3333435058594,399.3333435058594,399.3333435058594,399.3333435058594,399.3333435058594,399.3333435058594,399.3333435058594,403.3333435058594,403.3333435058594,403.3333435058594,403.3333435058594,403.3333435058594,403.3333435058594,403.3333435058594,403.3333435058594,403.3333435058594,403.3333435058594,397.3333435058594,397.3333435058594,402,382.66668701171875,367.3333435058594,334,320,320,218.6666717529297,179.33334350585938,162.6666717529297,135.33334350585938,96.66667175292969,78.66667175292969,76.66667175292969,65.33333587646484,61.333335876464844,54.66666793823242],"ymouse":[829.3333740234375,829.3333740234375,829.3333740234375,829.3333740234375,829.3333740234375,829.3333740234375,829.3333740234375,829.3333740234375,829.3333740234375,829.3333740234375,829.3333740234375,829.3333740234375,829.3333740234375,829.3333740234375,829.3333740234375,829.3333740234375,829.3333740234375,829.3333740234375,829.3333740234375,829.3333740234375,830,830,830,830,830,830,830,830,830,830,830.6666870117188,830.6666870117188,830.6666870117188,830.6666870117188,830.6666870117188,830.6666870117188,830.6666870117188,830.6666870117188,830.6666870117188,830.6666870117188,830.6666870117188,830.6666870117188,830.6666870117188,830.6666870117188,830.6666870117188,830.6666870117188,830.6666870117188,830.6666870117188,830.6666870117188,830.6666870117188,831.3333740234375,831.3333740234375,831.3333740234375,831.3333740234375,831.3333740234375,831.3333740234375,831.3333740234375,831.3333740234375,831.3333740234375,831.3333740234375,826,826,768,664.6666870117188,613.3333740234375,536.6666870117188,503.3333740234375,503.3333740234375,366.66668701171875,322,302.66668701171875,258.66668701171875,197.33334350585938,158,140.6666717529297,111.33333587646484,100,88],"timestamp_mouse":[13,64,74,93,114,134,154,173,193,213,233,253,273,293,313,333,354,373,393,413,433,454,473,494,513,533,553,573,593,613,633,653,673,693,713,733,753,773,793,813,833,853,873,893,913,933,953,973,993,1013,1033,1053,1073,1093,1114,1133,1153,1173,1193,1213,1233,1254,1276,1293,1314,1333,1353,1373,1393,1413,1433,1453,1473,1493,1513,1533,1553,1576],"xSR":350,"ySR":768,"xT1":30,"yT1":0,"xT2":670,"yT2":0,"toosoon":0,"cond_shown":"equaldotsize","ratio_trial":250,"smaller_num":"3","larger_num":"12","correct_side":1,"subjID":"42wm","gender":"No_gender","age":"No_age","school":"No_school"},{"start_time":1549381980202,"click_time":1549381982001,"finger_time":1549381981760,"fix_duration":973.6659457051909,"trial":2,"RT":1558,"MT":241,"sideResp":2,"stimulus":"img/750/randomdotsize/L/1_Ratio_750_L_20_R_15.png","xmouse":[405.3333435058594,405.3333435058594,405.3333435058594,405.3333435058594,405.3333435058594,405.3333435058594,404,404,404,404,404,404,404,404,404,404,404,404,404,404,404,404,404,404,403.3333435058594,403.3333435058594,403.3333435058594,403.3333435058594,403.3333435058594,403.3333435058594,403.3333435058594,403.3333435058594,403.3333435058594,403.3333435058594,403.3333435058594,403.3333435058594,403.3333435058594,403.3333435058594,403.3333435058594,403.3333435058594,403.3333435058594,403.3333435058594,403.3333435058594,403.3333435058594,403.3333435058594,403.3333435058594,403.3333435058594,403.3333435058594,402,402,402,402,402,402,402,402,402,402,402,402,402,402,402,406.66668701171875,406.66668701171875,406.66668701171875,406.66668701171875,406.66668701171875,406.66668701171875,406.66668701171875,406.66668701171875,406.66668701171875,406.66668701171875,408.66668701171875,408.66668701171875,413.3333435058594,415.3333435058594,423.3333435058594,430.66668701171875,471.3333435058594,512,530.6666870117188,568,597.3333740234375,630,637.3333740234375,654.6666870117188,667.3333740234375,676,688.6666870117188,697.3333740234375],"ymouse":[837.3333740234375,837.3333740234375,837.3333740234375,837.3333740234375,837.3333740234375,837.3333740234375,837.3333740234375,837.3333740234375,837.3333740234375,837.3333740234375,837.3333740234375,837.3333740234375,837.3333740234375,837.3333740234375,838,838,838,838,838,838,838,838,838,838,838.6666870117188,838.6666870117188,838.6666870117188,838.6666870117188,838.6666870117188,838.6666870117188,838.6666870117188,838.6666870117188,839.3333740234375,839.3333740234375,839.3333740234375,839.3333740234375,839.3333740234375,839.3333740234375,839.3333740234375,840,840,840,840,840,840,840,840,840,840.6666870117188,840.6666870117188,840.6666870117188,840.6666870117188,840.6666870117188,840,840,840,840,840,840,840,840,840,840,831.3333740234375,831.3333740234375,831.3333740234375,831.3333740234375,831.3333740234375,831.3333740234375,831.3333740234375,831.3333740234375,831.3333740234375,831.3333740234375,828,828,816,808.6666870117188,776.6666870117188,751.3333740234375,629.3333740234375,538.6666870117188,498.66668701171875,417.3333435058594,352,265.3333435058594,239.33334350585938,199.33334350585938,158,142,104.66667175292969,85.33333587646484],"timestamp_mouse":[1,18,40,58,79,98,118,138,158,179,198,219,239,258,281,298,318,338,359,378,398,418,439,458,479,498,518,538,558,578,598,618,638,659,679,698,719,738,759,778,798,819,838,858,878,899,918,938,959,978,998,1019,1038,1060,1078,1099,1118,1139,1158,1179,1199,1218,1238,1258,1280,1298,1318,1338,1359,1380,1398,1419,1438,1458,1479,1500,1518,1538,1558,1580,1598,1618,1638,1658,1678,1698,1718,1739,1758,1779,1798],"xSR":350,"ySR":768,"xT1":30,"yT1":0,"xT2":670,"yT2":0,"toosoon":0,"cond_shown":"randomdotsize","ratio_trial":750,"smaller_num":"15","larger_num":"20","correct_side":1,"subjID":"42wm","gender":"No_gender","age":"No_age","school":"No_school"},{"start_time":1549381983692,"click_time":1549381986022,"finger_time":1549381985840,"fix_duration":250,"trial":3,"RT":2148,"MT":182,"sideResp":2,"stimulus":"img/900/randomdotsizeEA/R/12_Ratio_900_L_18_R_20.png","xmouse":[412,413.3333435058594,413.3333435058594,413.3333435058594,413.3333435058594,413.3333435058594,413.3333435058594,413.3333435058594,413.3333435058594,413.3333435058594,412.66668701171875,412.66668701171875,412.66668701171875,412.66668701171875,412.66668701171875,412.66668701171875,412.66668701171875,412.66668701171875,412.66668701171875,412.66668701171875,410.66668701171875,410.66668701171875,410.66668701171875,410.66668701171875,410.66668701171875,410.66668701171875,410.66668701171875,410.66668701171875,409.3333435058594,409.3333435058594,410,410,410,410,410,410,410,410,410,410,410,410,410,410,410,410,410,410,410,410,410,410,410,410,410,410,410,410,410,410,409.3333435058594,409.3333435058594,409.3333435058594,409.3333435058594,409.3333435058594,409.3333435058594,409.3333435058594,409.3333435058594,409.3333435058594,408.66668701171875,408.66668701171875,408.66668701171875,408.66668701171875,408.66668701171875,408.66668701171875,408.66668701171875,408.66668701171875,408.66668701171875,408.66668701171875,408.66668701171875,410,410,410,410,410,410,415.3333435058594,416,416,416,417.3333435058594,417.3333435058594,418,418,418,417.3333435058594,416.66668701171875,416.66668701171875,416.66668701171875,416.66668701171875,416.66668701171875,416.66668701171875,416.66668701171875,416.66668701171875,416.66668701171875,416.66668701171875,499.3333435058594,542,562,600.6666870117188,645.3333740234375,670,680,693.3333740234375,714,718.6666870117188],"ymouse":[836,835.3333740234375,835.3333740234375,835.3333740234375,835.3333740234375,835.3333740234375,835.3333740234375,835.3333740234375,835.3333740234375,835.3333740234375,832.6666870117188,832.6666870117188,832.6666870117188,832.6666870117188,832.6666870117188,832.6666870117188,832.6666870117188,832.6666870117188,832.6666870117188,832.6666870117188,829.3333740234375,829.3333740234375,829.3333740234375,829.3333740234375,829.3333740234375,829.3333740234375,829.3333740234375,829.3333740234375,830,830,830,830,830,830,830,830,830,830,830,830,832,832,832,832,832,832,832,832,832,832,832.6666870117188,832.6666870117188,832.6666870117188,832.6666870117188,832.6666870117188,832.6666870117188,832.6666870117188,832.6666870117188,832.6666870117188,832.6666870117188,832.6666870117188,832.6666870117188,832.6666870117188,832.6666870117188,832.6666870117188,832.6666870117188,832.6666870117188,832.6666870117188,832.6666870117188,830.6666870117188,830.6666870117188,830.6666870117188,830.6666870117188,830.6666870117188,830.6666870117188,830.6666870117188,830.6666870117188,830.6666870117188,830.6666870117188,830.6666870117188,832.6666870117188,832.6666870117188,832.6666870117188,832.6666870117188,832.6666870117188,832.6666870117188,834,834,834.6666870117188,834.6666870117188,834.6666870117188,834.6666870117188,834.6666870117188,834.6666870117188,834.6666870117188,834.6666870117188,834,834,834,834,834,834,834,834,834,834,648,534,481.3333435058594,392.66668701171875,283.3333435058594,222.6666717529297,200,155.33334350585938,108.66667175292969,87.33333587646484],"timestamp_mouse":[17,50,68,88,108,128,148,168,189,208,229,249,269,290,309,328,349,368,388,410,428,448,468,489,508,528,548,569,588,608,628,649,668,689,708,728,748,769,789,809,828,848,868,889,908,928,948,969,988,1008,1028,1048,1069,1088,1108,1128,1148,1168,1189,1209,1228,1249,1269,1288,1308,1328,1348,1368,1388,1412,1429,1448,1468,1488,1508,1528,1548,1568,1589,1608,1635,1648,1668,1688,1708,1728,1748,1768,1788,1809,1829,1848,1869,1888,1908,1928,1948,1968,1989,2009,2028,2048,2068,2088,2108,2129,2148,2168,2188,2209,2228,2248,2268,2288,2310,2329],"xSR":350,"ySR":768,"xT1":30,"yT1":0,"xT2":670,"yT2":0,"toosoon":0,"cond_shown":"randomdotsizeEA","ratio_trial":900,"smaller_num":"18","larger_num":"20","correct_side":2,"subjID":"42wm","gender":"No_gender","age":"No_age","school":"No_school"},{"start_time":1549381987192,"click_time":1549381989042,"finger_time":1549381988600,"fix_duration":250,"trial":4,"RT":1408,"MT":442,"sideResp":1,"stimulus":"img/500/randomdotsize/L/5_Ratio_500_L_4_R_2.png","xmouse":[434,434,434,433.3333435058594,432.66668701171875,432.66668701171875,432.66668701171875,432.66668701171875,432.66668701171875,432.66668701171875,432.66668701171875,432.66668701171875,432.66668701171875,432.66668701171875,421.3333435058594,421.3333435058594,421.3333435058594,421.3333435058594,419.3333435058594,419.3333435058594,419.3333435058594,419.3333435058594,419.3333435058594,417.3333435058594,417.3333435058594,416.66668701171875,416.66668701171875,416.66668701171875,416.66668701171875,416.66668701171875,416.66668701171875,416.66668701171875,416.66668701171875,416.66668701171875,416.66668701171875,416.66668701171875,416.66668701171875,416,416,416,416,416,415.3333435058594,415.3333435058594,415.3333435058594,415.3333435058594,415.3333435058594,415.3333435058594,415.3333435058594,415.3333435058594,415.3333435058594,414.66668701171875,415.3333435058594,415.3333435058594,415.3333435058594,415.3333435058594,415.3333435058594,415.3333435058594,415.3333435058594,415.3333435058594,415.3333435058594,415.3333435058594,415.3333435058594,412.66668701171875,412.66668701171875,412.66668701171875,412.66668701171875,401.3333435058594,398,394,372.66668701171875,358,307.3333435058594,266.66668701171875,224,206.6666717529297,154,123.33334350585938,97.33333587646484,85.33333587646484,70.66667175292969,65.33333587646484,59.333335876464844,59.333335876464844,61.333335876464844,61.333335876464844,61.333335876464844,76,78.66667175292969,79.33333587646484,80.66667175292969,81.33333587646484,80],"ymouse":[844.6666870117188,844.6666870117188,844.6666870117188,844.6666870117188,844,844,844,844,844,844,844,844,844,844,838,838,838,838,837.3333740234375,837.3333740234375,837.3333740234375,837.3333740234375,837.3333740234375,836.6666870117188,836.6666870117188,836.6666870117188,836,836.6666870117188,836.6666870117188,836.6666870117188,836.6666870117188,836.6666870117188,836.6666870117188,836.6666870117188,836.6666870117188,836.6666870117188,836.6666870117188,836.6666870117188,836.6666870117188,836,836,836,836.6666870117188,836.6666870117188,836.6666870117188,836.6666870117188,836.6666870117188,836.6666870117188,836.6666870117188,836.6666870117188,836.6666870117188,836.6666870117188,836.6666870117188,836.6666870117188,836.6666870117188,836.6666870117188,836.6666870117188,836.6666870117188,836.6666870117188,836.6666870117188,836.6666870117188,836.6666870117188,836.6666870117188,836,836,836,836,822,805.3333740234375,784,711.3333740234375,667.3333740234375,550.6666870117188,469.3333435058594,386.66668701171875,347.3333435058594,241.33334350585938,188,151.33334350585938,137.33334350585938,123.33334350585938,118.66667175292969,112,109.33333587646484,108.66667175292969,108.66667175292969,108.66667175292969,103.33333587646484,102.66667175292969,102,100.66667175292969,100,96.66667175292969],"timestamp_mouse":[17,43,48,69,89,108,129,149,169,189,208,228,249,268,288,309,328,348,368,388,408,428,449,468,488,508,528,550,568,589,608,628,648,668,689,708,728,748,768,788,808,828,850,868,888,908,929,948,969,989,1009,1031,1051,1068,1088,1108,1129,1160,1168,1188,1209,1231,1248,1268,1288,1308,1329,1350,1368,1388,1408,1428,1450,1468,1488,1509,1531,1548,1568,1588,1608,1629,1648,1668,1691,1708,1728,1748,1770,1788,1808,1829,1850],"xSR":350,"ySR":768,"xT1":30,"yT1":0,"xT2":670,"yT2":0,"toosoon":0,"cond_shown":"randomdotsize","ratio_trial":500,"smaller_num":"2","larger_num":"4","correct_side":1,"subjID":"42wm","gender":"No_gender","age":"No_age","school":"No_school"},{"start_time":1549381991126,"click_time":1549381992280,"finger_time":1549381992041,"fix_duration":1144.8240600777715,"trial":5,"RT":915,"MT":239,"sideResp":1,"stimulus":"img/750/equaldotanddens/L/8_Ratio_750_L_4_R_3.png","xmouse":[421.3333435058594,421.3333435058594,421.3333435058594,421.3333435058594,421.3333435058594,421.3333435058594,421.3333435058594,421.3333435058594,421.3333435058594,421.3333435058594,421.3333435058594,421.3333435058594,421.3333435058594,421.3333435058594,421.3333435058594,421.3333435058594,421.3333435058594,421.3333435058594,420.66668701171875,420.66668701171875,420.66668701171875,420.66668701171875,420.66668701171875,420.66668701171875,420.66668701171875,420.66668701171875,420.66668701171875,420.66668701171875,419.3333435058594,419.3333435058594,419.3333435058594,419.3333435058594,419.3333435058594,419.3333435058594,419.3333435058594,419.3333435058594,419.3333435058594,419.3333435058594,420,420,420,420,420,420,420,354.66668701171875,314,298.66668701171875,286,261.3333435058594,246.6666717529297,198.6666717529297,166.6666717529297,138.6666717529297,127.33334350585938,102,90,86],"ymouse":[828,828,828,828,828,828,828,828,830.6666870117188,830.6666870117188,830.6666870117188,830.6666870117188,830.6666870117188,830.6666870117188,830.6666870117188,830.6666870117188,830.6666870117188,830.6666870117188,832,832,832,832,832,832,832,832,832,832,831.3333740234375,831.3333740234375,831.3333740234375,831.3333740234375,831.3333740234375,831.3333740234375,831.3333740234375,831.3333740234375,831.3333740234375,831.3333740234375,832.6666870117188,832.6666870117188,832.6666870117188,832.6666870117188,832.6666870117188,832.6666870117188,832.6666870117188,752,636.6666870117188,589.3333740234375,566,520.6666870117188,492.66668701171875,402.66668701171875,340.66668701171875,273.3333435058594,244.66668701171875,160.6666717529297,116.66667175292969,96.66667175292969],"timestamp_mouse":[16,38,54,74,94,114,135,154,174,194,214,236,254,274,294,314,335,354,374,394,414,434,454,474,495,516,535,555,574,594,615,634,654,674,694,714,737,755,774,794,815,837,854,875,894,915,934,954,975,994,1014,1035,1055,1074,1094,1118,1136,1154],"xSR":350,"ySR":768,"xT1":30,"yT1":0,"xT2":670,"yT2":0,"toosoon":0,"cond_shown":"equaldotanddens","ratio_trial":750,"smaller_num":"3","larger_num":"4","correct_side":1,"subjID":"42wm","gender":"No_gender","age":"No_age","school":"No_school"},{"start_time":1549381993906,"click_time":1549381994960,"finger_time":1549381994720,"fix_duration":822.9634510090316,"trial":6,"RT":814,"MT":240,"sideResp":2,"stimulus":"img/900/equaldotanddens/R/15_Ratio_900_L_9_R_10.png","xmouse":[430,429.3333435058594,429.3333435058594,429.3333435058594,429.3333435058594,429.3333435058594,429.3333435058594,429.3333435058594,429.3333435058594,429.3333435058594,429.3333435058594,429.3333435058594,429.3333435058594,429.3333435058594,428.66668701171875,428.66668701171875,428.66668701171875,428.66668701171875,428.66668701171875,428.66668701171875,428.66668701171875,428.66668701171875,428.66668701171875,428.66668701171875,429.3333435058594,429.3333435058594,429.3333435058594,429.3333435058594,429.3333435058594,429.3333435058594,429.3333435058594,429.3333435058594,429.3333435058594,429.3333435058594,429.3333435058594,429.3333435058594,429.3333435058594,429.3333435058594,429.3333435058594,429.3333435058594,462.66668701171875,480.66668701171875,487.3333435058594,512,533.3333740234375,556,570,594,635.3333740234375,650,683.3333740234375,710.6666870117188,717.3333740234375],"ymouse":[827.3333740234375,828,828,828,827.3333740234375,827.3333740234375,827.3333740234375,827.3333740234375,827.3333740234375,827.3333740234375,827.3333740234375,827.3333740234375,827.3333740234375,827.3333740234375,826,826,826,826,826,826,826,826,826,826,826,826,826,826,826,826,826,826,826,826,822.6666870117188,822.6666870117188,822.6666870117188,822.6666870117188,822.6666870117188,822.6666870117188,636,594,576,518.6666870117188,464.66668701171875,408.66668701171875,381.3333435058594,320.66668701171875,232,202,148.6666717529297,108.66667175292969,96.66667175292969],"timestamp_mouse":[15,46,54,74,94,115,134,154,174,194,214,235,254,274,294,314,334,354,374,394,414,434,455,475,494,514,534,554,574,594,614,634,655,675,697,714,735,755,776,794,814,835,854,875,895,914,935,955,975,994,1014,1034,1054],"xSR":350,"ySR":768,"xT1":30,"yT1":0,"xT2":670,"yT2":0,"toosoon":0,"cond_shown":"equaldotanddens","ratio_trial":900,"smaller_num":"9","larger_num":"10","correct_side":2,"subjID":"42wm","gender":"No_gender","age":"No_age","school":"No_school"},{"start_time":1549381997074,"click_time":1549381998102,"finger_time":1549381997901,"fix_duration":1259.2665695452533,"trial":7,"RT":827,"MT":201,"sideResp":1,"stimulus":"img/750/randomdotsizeEA/R/2_Ratio_750_L_6_R_8.png","xmouse":[420.66668701171875,420.66668701171875,420.66668701171875,421.3333435058594,421.3333435058594,421.3333435058594,421.3333435058594,421.3333435058594,421.3333435058594,421.3333435058594,421.3333435058594,421.3333435058594,421.3333435058594,421.3333435058594,421.3333435058594,421.3333435058594,421.3333435058594,421.3333435058594,421.3333435058594,421.3333435058594,421.3333435058594,421.3333435058594,421.3333435058594,421.3333435058594,421.3333435058594,421.3333435058594,421.3333435058594,421.3333435058594,421.3333435058594,421.3333435058594,421.3333435058594,421.3333435058594,421.3333435058594,421.3333435058594,421.3333435058594,421.3333435058594,421.3333435058594,421.3333435058594,421.3333435058594,421.3333435058594,410.66668701171875,392,368.66668701171875,358,328,312,282.66668701171875,250,224,208,178.6666717529297,162.6666717529297,108],"ymouse":[842.6666870117188,842.6666870117188,842.6666870117188,842,841.3333740234375,840.6666870117188,840.6666870117188,840,840,840,840,840.6666870117188,840.6666870117188,840.6666870117188,840.6666870117188,840.6666870117188,840.6666870117188,840.6666870117188,840.6666870117188,840.6666870117188,840.6666870117188,840.6666870117188,841.3333740234375,841.3333740234375,841.3333740234375,841.3333740234375,841.3333740234375,841.3333740234375,841.3333740234375,841.3333740234375,841.3333740234375,841.3333740234375,843.3333740234375,843.3333740234375,843.3333740234375,843.3333740234375,843.3333740234375,843.3333740234375,843.3333740234375,843.3333740234375,828,799.3333740234375,732,698.6666870117188,608,554.6666870117188,442,242.66668701171875,198,171.33334350585938,122,114,79.33333587646484],"timestamp_mouse":[6,12,32,52,67,86,106,126,146,166,186,209,226,246,266,287,306,326,346,366,386,407,426,446,466,486,506,526,546,566,586,606,628,647,666,686,706,726,747,766,786,807,827,846,866,887,907,927,946,966,986,1006,1028],"xSR":350,"ySR":768,"xT1":30,"yT1":0,"xT2":670,"yT2":0,"toosoon":0,"cond_shown":"randomdotsizeEA","ratio_trial":750,"smaller_num":"6","larger_num":"8","correct_side":2,"subjID":"42wm","gender":"No_gender","age":"No_age","school":"No_school"},{"start_time":1549382005441,"click_time":1549382008083,"finger_time":1549382007367,"fix_duration":398.9337753016322,"trial":8,"RT":1926,"MT":716,"sideResp":2,"stimulus":"img/750/equaldotsize/R/3_Ratio_750_L_15_R_20.png","xmouse":[400,400,400,400,400,400,400,400,400,400,400,400,400,400,400,400,400,400,400,400,400,400,400,400,400,400,400,403.3333435058594,404,405.3333435058594,405.3333435058594,405.3333435058594,405.3333435058594,405.3333435058594,405.3333435058594,405.3333435058594,405.3333435058594,405.3333435058594,405.3333435058594,413.3333435058594,413.3333435058594,413.3333435058594,411.3333435058594,409.3333435058594,406.66668701171875,406,405.3333435058594,405.3333435058594,405.3333435058594,404,404,404,404,404,397.3333435058594,397.3333435058594,397.3333435058594,397.3333435058594,397.3333435058594,397.3333435058594,397.3333435058594,397.3333435058594,397.3333435058594,397.3333435058594,397.3333435058594,397.3333435058594,397.3333435058594,397.3333435058594,397.3333435058594,383.3333435058594,382.66668701171875,382,382,382,382,382,382,382,382,382.66668701171875,382.66668701171875,382.66668701171875,382.66668701171875,382.66668701171875,382.66668701171875,382.66668701171875,382.66668701171875,401.3333435058594,402.66668701171875,408.66668701171875,410.66668701171875,414.66668701171875,416,418,419.3333435058594,419.3333435058594,419.3333435058594,420.66668701171875,420.66668701171875,420.66668701171875,429.3333435058594,433.3333435058594,435.3333435058594,440,448,455.3333435058594,458.66668701171875,464.66668701171875,468.66668701171875,483.3333435058594,487.3333435058594,497.3333435058594,502.66668701171875,510,518,528,534.6666870117188,549.3333740234375,564,570.6666870117188,594,608.6666870117188,625.3333740234375,632.6666870117188,648.6666870117188,674,683.3333740234375,700.6666870117188,710,730.6666870117188,761.3333740234375],"ymouse":[825,825,825,825,825,825,825,825,825,825,825,825,825,825,825,825,825,825,825,825,825,825,825,825,825,825,825,817.3333740234375,816.6666870117188,816,816,816,816,816,816,816,816,816,816,816.6666870117188,816.6666870117188,816.6666870117188,820.6666870117188,821.3333740234375,822,822,822,821.3333740234375,821.3333740234375,820.6666870117188,820.6666870117188,820.6666870117188,820.6666870117188,820.6666870117188,824.6666870117188,825.3333740234375,824.6666870117188,824.6666870117188,824.6666870117188,822.6666870117188,822.6666870117188,822.6666870117188,822.6666870117188,822.6666870117188,822.6666870117188,822.6666870117188,822.6666870117188,822.6666870117188,822.6666870117188,821.3333740234375,821.3333740234375,822,822,822,822,822,822,822,822,827.3333740234375,827.3333740234375,827.3333740234375,827.3333740234375,827.3333740234375,827.3333740234375,827.3333740234375,827.3333740234375,804,800.6666870117188,789.3333740234375,785.3333740234375,778.6666870117188,776,770.6666870117188,764.6666870117188,764.6666870117188,764.6666870117188,755.3333740234375,755.3333740234375,755.3333740234375,732,722.6666870117188,717.3333740234375,706,686.6666870117188,669.3333740234375,660.6666870117188,644.6666870117188,634,594.6666870117188,584,560.6666870117188,549.3333740234375,528,500.66668701171875,475.3333435058594,460,431.3333435058594,407.3333435058594,394,354.66668701171875,329.3333435058594,302,290,263.3333435058594,218.6666717529297,202.6666717529297,164,144.6666717529297,110,73.33333587646484],"timestamp_mouse":[13,60,79,99,120,139,159,179,199,219,240,260,279,300,320,339,359,380,399,433,439,459,479,500,519,539,559,579,599,620,640,659,680,699,719,739,759,779,800,819,840,860,879,899,919,939,959,980,1000,1019,1039,1059,1079,1099,1120,1139,1159,1179,1199,1219,1239,1259,1279,1299,1320,1339,1359,1379,1399,1419,1442,1459,1479,1500,1520,1539,1560,1579,1599,1621,1639,1659,1679,1699,1719,1740,1760,1788,1799,1821,1839,1859,1880,1900,1926,1940,1959,1979,1999,2019,2040,2060,2080,2100,2121,2139,2160,2179,2199,2221,2240,2259,2281,2299,2322,2341,2360,2380,2399,2419,2439,2459,2480,2499,2519,2540,2559,2579,2599,2620,2642],"xSR":350,"ySR":768,"xT1":30,"yT1":0,"xT2":670,"yT2":0,"toosoon":0,"cond_shown":"equaldotsize","ratio_trial":750,"smaller_num":"15","larger_num":"20","correct_side":2,"subjID":"42wm","gender":"No_gender","age":"No_age","school":"No_school"},{"start_time":1549382010934,"click_time":1549382011960,"finger_time":1549382011740,"fix_duration":948.8261705442178,"trial":9,"RT":806,"MT":220,"sideResp":2,"stimulus":"img/500/equaldotanddens/R/1_Ratio_500_L_9_R_18.png","xmouse":[407.3333435058594,407.3333435058594,407.3333435058594,409.3333435058594,409.3333435058594,409.3333435058594,409.3333435058594,409.3333435058594,409.3333435058594,409.3333435058594,409.3333435058594,409.3333435058594,409.3333435058594,410,410,410,410,410,410,410,410,410,410,409.3333435058594,409.3333435058594,409.3333435058594,409.3333435058594,409.3333435058594,409.3333435058594,409.3333435058594,420,420.66668701171875,422.66668701171875,424,424.66668701171875,425.3333435058594,425.3333435058594,427.3333435058594,429.3333435058594,440,454.66668701171875,463.3333435058594,481.3333435058594,514,542,558,594.6666870117188,610.6666870117188,667.3333740234375,679.3333740234375,700.6666870117188,707.3333740234375],"ymouse":[821.3333740234375,821.3333740234375,821.3333740234375,824.6666870117188,824.6666870117188,824.6666870117188,824.6666870117188,824.6666870117188,824.6666870117188,824.6666870117188,824.6666870117188,824.6666870117188,824.6666870117188,822.6666870117188,822.6666870117188,822.6666870117188,822.6666870117188,822.6666870117188,822.6666870117188,822.6666870117188,822.6666870117188,822.6666870117188,822.6666870117188,820.6666870117188,820.6666870117188,820.6666870117188,820.6666870117188,820.6666870117188,820.6666870117188,820.6666870117188,821.3333740234375,820,818.6666870117188,816,815.3333740234375,814.6666870117188,813.3333740234375,808,802.6666870117188,774.6666870117188,722.6666870117188,691.3333740234375,620.6666870117188,504,422,382,299.3333435058594,267.3333435058594,157.33334350585938,136,106,95.33333587646484],"timestamp_mouse":[6,43,47,68,87,106,126,146,167,187,206,226,246,266,287,306,326,346,366,386,406,427,448,466,486,506,526,546,566,587,606,627,647,666,686,706,726,749,767,787,806,826,847,866,886,907,926,946,970,987,1006,1026],"xSR":350,"ySR":768,"xT1":30,"yT1":0,"xT2":670,"yT2":0,"toosoon":0,"cond_shown":"equaldotanddens","ratio_trial":500,"smaller_num":"9","larger_num":"18","correct_side":2,"subjID":"42wm","gender":"No_gender","age":"No_age","school":"No_school"},{"start_time":1549382013116,"click_time":1549382014080,"finger_time":1549382013903,"fix_duration":472.9998434218031,"trial":10,"RT":787,"MT":177,"sideResp":2,"stimulus":"img/250/equaldotsize/R/12_Ratio_250_L_5_R_20.png","xmouse":[418.66668701171875,418.66668701171875,418.66668701171875,418.66668701171875,420.66668701171875,421.3333435058594,421.3333435058594,421.3333435058594,421.3333435058594,421.3333435058594,421.3333435058594,421.3333435058594,421.3333435058594,421.3333435058594,421.3333435058594,423.3333435058594,423.3333435058594,423.3333435058594,423.3333435058594,423.3333435058594,423.3333435058594,423.3333435058594,423.3333435058594,423.3333435058594,423.3333435058594,427.3333435058594,428,429.3333435058594,430,430,429.3333435058594,429.3333435058594,428.66668701171875,428.66668701171875,428.66668701171875,428.66668701171875,428.66668701171875,428.66668701171875,428.66668701171875,484.66668701171875,498.66668701171875,528.6666870117188,554.6666870117188,568.6666870117188,598,639.3333740234375,654,680.6666870117188,698.6666870117188],"ymouse":[830,830,830,830,827.3333740234375,827.3333740234375,827.3333740234375,827.3333740234375,827.3333740234375,827.3333740234375,827.3333740234375,827.3333740234375,827.3333740234375,827.3333740234375,827.3333740234375,828.6666870117188,828.6666870117188,828.6666870117188,828.6666870117188,828.6666870117188,828.6666870117188,828.6666870117188,828.6666870117188,828.6666870117188,828.6666870117188,829.3333740234375,829.3333740234375,829.3333740234375,829.3333740234375,829.3333740234375,829.3333740234375,829.3333740234375,829.3333740234375,829.3333740234375,829.3333740234375,829.3333740234375,829.3333740234375,829.3333740234375,829.3333740234375,600.6666870117188,558,476.66668701171875,400,362,292.66668701171875,194.6666717529297,163.33334350585938,114.66667175292969,84],"timestamp_mouse":[10,43,45,65,84,104,124,144,164,184,204,224,244,265,284,304,324,344,364,384,404,424,445,464,484,508,524,544,564,584,606,624,644,664,684,708,724,744,764,787,806,826,844,864,884,904,924,945,964],"xSR":350,"ySR":768,"xT1":30,"yT1":0,"xT2":670,"yT2":0,"toosoon":0,"cond_shown":"equaldotsize","ratio_trial":250,"smaller_num":"5","larger_num":"20","correct_side":2,"subjID":"42wm","gender":"No_gender","age":"No_age","school":"No_school"},{"start_time":1549382015964,"click_time":1549382017241,"finger_time":1549382017062,"fix_duration":1115.5461625758535,"trial":11,"RT":1098,"MT":179,"sideResp":2,"stimulus":"img/900/equaldotsize/R/6_Ratio_900_L_9_R_10.png","xmouse":[424.66668701171875,424.66668701171875,424.66668701171875,424.66668701171875,422.66668701171875,422.66668701171875,422.66668701171875,422.66668701171875,422.66668701171875,422.66668701171875,422.66668701171875,422.66668701171875,422.66668701171875,422.66668701171875,420,420,420,420,420,420,420,420,420,420,420,420,420,420,420,420,420,420,420,418.66668701171875,418.66668701171875,418.66668701171875,418.66668701171875,418.66668701171875,418.66668701171875,418.66668701171875,418.66668701171875,418.66668701171875,418.66668701171875,418.66668701171875,419.3333435058594,419.3333435058594,419.3333435058594,418.66668701171875,418,418,414.66668701171875,412.66668701171875,412,412,412,434.66668701171875,455.3333435058594,467.3333435058594,499.3333435058594,560.6666870117188,606,624.6666870117188,666,685.3333740234375,735.3333740234375],"ymouse":[824,824,824,824,824,824,824,824,824,824,824,824,824,824,822.6666870117188,822.6666870117188,822.6666870117188,822.6666870117188,822.6666870117188,822.6666870117188,822.6666870117188,822.6666870117188,822.6666870117188,823.3333740234375,823.3333740234375,823.3333740234375,823.3333740234375,823.3333740234375,823.3333740234375,823.3333740234375,823.3333740234375,823.3333740234375,823.3333740234375,823.3333740234375,823.3333740234375,823.3333740234375,823.3333740234375,823.3333740234375,823.3333740234375,823.3333740234375,823.3333740234375,823.3333740234375,823.3333740234375,823.3333740234375,810,805.3333740234375,799.3333740234375,797.3333740234375,792.6666870117188,792.6666870117188,787.3333740234375,784.6666870117188,781.3333740234375,776.6666870117188,776.6666870117188,679.3333740234375,616.6666870117188,580,498,365.3333435058594,282,249.33334350585938,186.6666717529297,159.33334350585938,93.33333587646484],"timestamp_mouse":[4,33,51,56,76,96,117,137,156,177,196,216,236,257,276,297,316,337,356,376,396,416,436,458,476,496,517,536,556,576,596,616,636,658,677,697,716,737,756,776,796,817,836,857,876,897,916,937,956,976,996,1016,1036,1059,1079,1098,1116,1137,1157,1176,1196,1216,1236,1256,1277],"xSR":350,"ySR":768,"xT1":30,"yT1":0,"xT2":670,"yT2":0,"toosoon":0,"cond_shown":"equaldotsize","ratio_trial":900,"smaller_num":"9","larger_num":"10","correct_side":2,"subjID":"42wm","gender":"No_gender","age":"No_age","school":"No_school"},{"start_time":1549382019186,"click_time":1549382020521,"finger_time":1549382020220,"fix_duration":1164.0988474643182,"trial":12,"RT":1034,"MT":301,"sideResp":1,"stimulus":"img/500/randomdotsizeEA/L/10_Ratio_500_L_4_R_2.png","xmouse":[406,406,406.66668701171875,406.66668701171875,406.66668701171875,406.66668701171875,406.66668701171875,406.66668701171875,406.66668701171875,406.66668701171875,406.66668701171875,406.66668701171875,406.66668701171875,406.66668701171875,406.66668701171875,406.66668701171875,406.66668701171875,406.66668701171875,406.66668701171875,406.66668701171875,406.66668701171875,406.66668701171875,406.66668701171875,406.66668701171875,406.66668701171875,406.66668701171875,406.66668701171875,406.66668701171875,405.3333435058594,405.3333435058594,405.3333435058594,405.3333435058594,405.3333435058594,405.3333435058594,405.3333435058594,405.3333435058594,405.3333435058594,405.3333435058594,402.66668701171875,402.66668701171875,404,404.66668701171875,406,406,406,405.3333435058594,404,400.66668701171875,397.3333435058594,395.3333435058594,390.66668701171875,386.66668701171875,376.66668701171875,356,334.66668701171875,322,291.3333435058594,279.3333435058594,220,208.6666717529297,186,173.33334350585938,147.33334350585938,118,102,96.66667175292969,88],"ymouse":[810,810,810,810,810,810,810,810,810,810,810,810.6666870117188,810.6666870117188,810.6666870117188,810.6666870117188,810.6666870117188,810.6666870117188,810.6666870117188,810.6666870117188,811.3333740234375,811.3333740234375,811.3333740234375,811.3333740234375,811.3333740234375,811.3333740234375,811.3333740234375,811.3333740234375,811.3333740234375,812,812,812,812,812,812,812,812,812,812,810,810,808,807.3333740234375,805.3333740234375,804,803.3333740234375,802.6666870117188,802,799.3333740234375,796,793.3333740234375,778,760.6666870117188,710.6666870117188,641.3333740234375,599.3333740234375,577.3333740234375,528,498.66668701171875,381.3333435058594,354.66668701171875,304.66668701171875,282.66668701171875,238.6666717529297,169.33334350585938,126.66667175292969,107.33333587646484,77.33333587646484],"timestamp_mouse":[15,46,56,74,94,114,134,154,174,195,215,234,254,275,294,314,334,354,374,394,414,434,454,474,494,514,534,554,574,595,614,634,655,675,694,714,734,754,778,794,814,834,855,874,894,914,934,957,975,994,1014,1034,1054,1076,1095,1114,1134,1154,1178,1194,1214,1234,1254,1277,1294,1315,1335],"xSR":350,"ySR":768,"xT1":30,"yT1":0,"xT2":670,"yT2":0,"toosoon":0,"cond_shown":"randomdotsizeEA","ratio_trial":500,"smaller_num":"2","larger_num":"4","correct_side":1,"subjID":"42wm","gender":"No_gender","age":"No_age","school":"No_school"},{"start_time":1549382022140,"click_time":1549382023180,"finger_time":1549382023021,"fix_duration":917.4046372240359,"trial":13,"RT":881,"MT":159,"sideResp":2,"stimulus":"img/900/randomdotsize/L/10_Ratio_900_L_20_R_18.png","xmouse":[396,396,396,396,396,396,396,396,396,395.3333435058594,395.3333435058594,395.3333435058594,395.3333435058594,395.3333435058594,395.3333435058594,395.3333435058594,395.3333435058594,395.3333435058594,395.3333435058594,394.66668701171875,394.66668701171875,394.66668701171875,394.66668701171875,394.66668701171875,394.66668701171875,394.66668701171875,394.66668701171875,394.66668701171875,394.66668701171875,395.3333435058594,395.3333435058594,395.3333435058594,394.66668701171875,394.66668701171875,394.66668701171875,394.66668701171875,394.66668701171875,394.66668701171875,394.66668701171875,394.66668701171875,395.3333435058594,395.3333435058594,395.3333435058594,429.3333435058594,455.3333435058594,468.66668701171875,529.3333740234375,550.6666870117188,606.6666870117188,636.6666870117188,684,719.3333740234375],"ymouse":[821.3333740234375,821.3333740234375,821.3333740234375,821.3333740234375,821.3333740234375,821.3333740234375,821.3333740234375,821.3333740234375,821.3333740234375,821.3333740234375,821.3333740234375,821.3333740234375,821.3333740234375,821.3333740234375,821.3333740234375,821.3333740234375,821.3333740234375,821.3333740234375,821.3333740234375,822.6666870117188,822.6666870117188,822.6666870117188,823.3333740234375,823.3333740234375,823.3333740234375,824,824.6666870117188,824.6666870117188,825.3333740234375,825.3333740234375,826,826,825.3333740234375,825.3333740234375,825.3333740234375,825.3333740234375,825.3333740234375,825.3333740234375,825.3333740234375,825.3333740234375,820,820,820,701.3333740234375,609.3333740234375,566,395.3333435058594,348,246,199.33334350585938,136,95.33333587646484],"timestamp_mouse":[4,41,60,80,100,120,140,160,181,200,220,240,260,280,300,321,340,361,381,400,420,440,460,481,500,520,542,560,580,601,621,640,660,680,700,720,740,760,780,800,820,842,860,880,901,921,941,960,980,1000,1021,1040],"xSR":350,"ySR":768,"xT1":30,"yT1":0,"xT2":670,"yT2":0,"toosoon":0,"cond_shown":"randomdotsize","ratio_trial":900,"smaller_num":"18","larger_num":"20","correct_side":1,"subjID":"42wm","gender":"No_gender","age":"No_age","school":"No_school"},{"start_time":1549382024478,"click_time":1549382025060,"finger_time":1549382024782,"fix_duration":494.5783333602958,"trial":14,"RT":304,"MT":278,"sideResp":1,"stimulus":"img/750/equaldotanddens/L/13_Ratio_750_L_8_R_6.png","xmouse":[387.3333435058594,387.3333435058594,387.3333435058594,387.3333435058594,387.3333435058594,387.3333435058594,387.3333435058594,387.3333435058594,385.3333435058594,385.3333435058594,385.3333435058594,385.3333435058594,385.3333435058594,385.3333435058594,382,372,366,350.66668701171875,332,320.66668701171875,276,238.6666717529297,220,183.33334350585938,152,114.66667175292969,106.66667175292969,92,87.33333587646484,78.66667175292969],"ymouse":[839.3333740234375,839.3333740234375,839.3333740234375,839.3333740234375,839.3333740234375,839.3333740234375,839.3333740234375,839.3333740234375,834,834,834,834,834,834,816,758.6666870117188,732.6666870117188,680,632,610.6666870117188,539.3333740234375,480,448.66668701171875,384,317.3333435058594,228,202,160,138,96],"timestamp_mouse":[4,39,43,62,82,102,123,142,162,182,202,222,242,264,282,304,323,343,362,382,406,422,442,462,482,504,522,542,562,582],"xSR":350,"ySR":768,"xT1":30,"yT1":0,"xT2":670,"yT2":0,"toosoon":0,"cond_shown":"equaldotanddens","ratio_trial":750,"smaller_num":"6","larger_num":"8","correct_side":1,"subjID":"42wm","gender":"No_gender","age":"No_age","school":"No_school"},{"start_time":1549382026945,"click_time":1549382028200,"finger_time":1549382027880,"fix_duration":1203.8645201096951,"trial":15,"RT":935,"MT":320,"sideResp":1,"stimulus":"img/750/randomdotsize/L/6_Ratio_750_L_24_R_18.png","xmouse":[412.66668701171875,412.66668701171875,412.66668701171875,412.66668701171875,412.66668701171875,412.66668701171875,412.66668701171875,412.66668701171875,412.66668701171875,412.66668701171875,412.66668701171875,412.66668701171875,412.66668701171875,412.66668701171875,413.3333435058594,413.3333435058594,413.3333435058594,413.3333435058594,413.3333435058594,413.3333435058594,413.3333435058594,413.3333435058594,413.3333435058594,413.3333435058594,418.66668701171875,418,418,418,418,418,418,417.3333435058594,417.3333435058594,417.3333435058594,416.66668701171875,416.66668701171875,416.66668701171875,416.66668701171875,416.66668701171875,416.66668701171875,416.66668701171875,416.66668701171875,416.66668701171875,416.66668701171875,409.3333435058594,407.3333435058594,405.3333435058594,399.3333435058594,378.66668701171875,362,350,329.3333435058594,290,259.3333435058594,243.33334350585938,218,206.6666717529297,189.33334350585938,164.6666717529297,148.6666717529297,142,130.6666717529297,118.66667175292969],"ymouse":[780,780,780,780,781.3333740234375,781.3333740234375,781.3333740234375,781.3333740234375,781.3333740234375,781.3333740234375,781.3333740234375,781.3333740234375,781.3333740234375,781.3333740234375,782.6666870117188,782.6666870117188,782.6666870117188,782.6666870117188,782.6666870117188,782.6666870117188,782.6666870117188,782.6666870117188,782.6666870117188,782.6666870117188,772.6666870117188,772.6666870117188,772.6666870117188,772.6666870117188,772.6666870117188,772.6666870117188,772.6666870117188,772,772,772,772.6666870117188,772.6666870117188,772.6666870117188,772.6666870117188,772.6666870117188,772.6666870117188,772.6666870117188,772.6666870117188,772.6666870117188,772.6666870117188,769.3333740234375,768,767.3333740234375,760.6666870117188,716,677.3333740234375,658.6666870117188,618.6666870117188,547.3333740234375,482,447.3333435058594,382,351.3333435058594,286.66668701171875,198.6666717529297,146.6666717529297,126,90,59.333335876464844],"timestamp_mouse":[17,43,55,75,95,115,135,156,175,195,215,235,255,276,297,315,335,355,376,396,415,435,455,475,496,517,535,555,576,595,615,635,655,676,695,716,735,755,775,796,815,836,855,877,895,915,935,956,976,995,1016,1035,1058,1076,1096,1115,1135,1155,1176,1195,1216,1236,1255],"xSR":350,"ySR":768,"xT1":30,"yT1":0,"xT2":670,"yT2":0,"toosoon":0,"cond_shown":"randomdotsize","ratio_trial":750,"smaller_num":"18","larger_num":"24","correct_side":1,"subjID":"42wm","gender":"No_gender","age":"No_age","school":"No_school"},{"start_time":1549382029578,"click_time":1549382030241,"finger_time":1549382030022,"fix_duration":631.6899440780353,"trial":16,"RT":444,"MT":219,"sideResp":2,"stimulus":"img/900/randomdotsize/L/4_Ratio_900_L_20_R_18.png","xmouse":[412.66668701171875,412.66668701171875,412.66668701171875,412.66668701171875,412.66668701171875,412.66668701171875,412.66668701171875,412.66668701171875,412.66668701171875,412.66668701171875,412,412,412,412,412,412,412,412,412,412,416,416,431.3333435058594,450,460.66668701171875,484,514.6666870117188,568.6666870117188,588,626.6666870117188,658,668.6666870117188,687.3333740234375,689.3333740234375],"ymouse":[812.6666870117188,812.6666870117188,812.6666870117188,812.6666870117188,812.6666870117188,812.6666870117188,812.6666870117188,812.6666870117188,812.6666870117188,812.6666870117188,809.3333740234375,809.3333740234375,809.3333740234375,809.3333740234375,809.3333740234375,809.3333740234375,809.3333740234375,809.3333740234375,809.3333740234375,809.3333740234375,800.6666870117188,800.6666870117188,761.3333740234375,702,664,584,499.3333740234375,368.66668701171875,323.3333435058594,244,182,159.33334350585938,109.33333587646484,92.66667175292969],"timestamp_mouse":[2,41,42,62,82,102,122,142,162,182,202,222,243,262,282,302,322,344,362,382,402,422,444,463,483,502,522,545,564,582,605,622,646,663],"xSR":350,"ySR":768,"xT1":30,"yT1":0,"xT2":670,"yT2":0,"toosoon":0,"cond_shown":"randomdotsize","ratio_trial":900,"smaller_num":"18","larger_num":"20","correct_side":1,"subjID":"42wm","gender":"No_gender","age":"No_age","school":"No_school"},{"start_time":1549382039158,"click_time":1549382040160,"finger_time":1549382039980,"fix_duration":636.2771566466989,"trial":17,"RT":822,"MT":180,"sideResp":2,"stimulus":"img/250/randomdotsize/R/12_Ratio_250_L_5_R_20.png","xmouse":[446,446,446,446,444.66668701171875,444.66668701171875,444.66668701171875,444.66668701171875,444.66668701171875,444.66668701171875,444.66668701171875,444.66668701171875,444.66668701171875,444.66668701171875,441.3333435058594,441.3333435058594,441.3333435058594,441.3333435058594,441.3333435058594,441.3333435058594,441.3333435058594,441.3333435058594,441.3333435058594,441.3333435058594,439.3333435058594,439.3333435058594,439.3333435058594,439.3333435058594,439.3333435058594,436,434.66668701171875,434,431.3333435058594,430.66668701171875,430,430,430.66668701171875,430.66668701171875,433.3333435058594,433.3333435058594,433.3333435058594,471.3333435058594,506.66668701171875,517.3333740234375,538,568.6666870117188,568.6666870117188,637.3333740234375,694.6666870117188,710.6666870117188,730.6666870117188],"ymouse":[798,798,798,798,803.3333740234375,803.3333740234375,803.3333740234375,803.3333740234375,803.3333740234375,803.3333740234375,803.3333740234375,803.3333740234375,803.3333740234375,803.3333740234375,804.6666870117188,804.6666870117188,804.6666870117188,804.6666870117188,804.6666870117188,804.6666870117188,804.6666870117188,804.6666870117188,804.6666870117188,804.6666870117188,805.3333740234375,805.3333740234375,805.3333740234375,805.3333740234375,805.3333740234375,806.6666870117188,807.3333740234375,808,808.6666870117188,808.6666870117188,807.3333740234375,806.6666870117188,804,804,794,794,794,669.3333740234375,567.3333740234375,536,472,384,384,236.6666717529297,134.6666717529297,103.33333587646484,61.333335876464844],"timestamp_mouse":[4,23,46,63,82,131,132,143,162,182,202,223,242,262,283,303,323,342,362,382,402,423,442,463,482,502,522,542,562,582,602,622,644,662,682,712,723,746,762,783,802,822,843,880,886,910,922,946,965,982,1002],"xSR":350,"ySR":768,"xT1":30,"yT1":0,"xT2":670,"yT2":0,"toosoon":0,"cond_shown":"randomdotsize","ratio_trial":250,"smaller_num":"5","larger_num":"20","correct_side":2,"subjID":"42wm","gender":"No_gender","age":"No_age","school":"No_school"},{"start_time":1549382042125,"click_time":1549382043842,"finger_time":1549382043080,"fix_duration":1220.691171704383,"trial":18,"RT":955,"MT":762,"sideResp":2,"stimulus":"img/900/equaldotanddens/R/15_Ratio_900_L_9_R_10.png","xmouse":[400.66668701171875,400.66668701171875,400.66668701171875,400.66668701171875,400.66668701171875,400.66668701171875,400.66668701171875,400.66668701171875,400.66668701171875,400.66668701171875,400.66668701171875,400.66668701171875,400.66668701171875,400.66668701171875,400.66668701171875,400.66668701171875,400.66668701171875,400.66668701171875,400.66668701171875,400,400,400,400,400,400,400,400,400,400,400,400,400,400,400,400,400,400,400,400,397.3333435058594,397.3333435058594,397.3333435058594,397.3333435058594,397.3333435058594,388,387.3333435058594,385.3333435058594,380.66668701171875,378,371.3333435058594,361.3333435058594,350.66668701171875,342.66668701171875,329.3333435058594,311.3333435058594,308.66668701171875,305.3333435058594,304.66668701171875,305.3333435058594,308,308,308,308,308,371.3333435058594,380.66668701171875,396,411.3333435058594,416.66668701171875,432.66668701171875,438.66668701171875,440,440.66668701171875,440.66668701171875,440.66668701171875,490,502,526,538,574,600,634,654,697.3333740234375,750.6666870117188,766],"ymouse":[817.3333740234375,817.3333740234375,817.3333740234375,817.3333740234375,817.3333740234375,817.3333740234375,817.3333740234375,817.3333740234375,817.3333740234375,817.3333740234375,818,818,818,818,818,818,818,818,818,817.3333740234375,817.3333740234375,817.3333740234375,817.3333740234375,817.3333740234375,817.3333740234375,817.3333740234375,817.3333740234375,817.3333740234375,817.3333740234375,817.3333740234375,817.3333740234375,817.3333740234375,817.3333740234375,817.3333740234375,817.3333740234375,817.3333740234375,817.3333740234375,817.3333740234375,817.3333740234375,816.6666870117188,816.6666870117188,816.6666870117188,816.6666870117188,816.6666870117188,796.6666870117188,791.3333740234375,772,732.6666870117188,710,654.6666870117188,625.3333740234375,598,585.3333740234375,556.6666870117188,521.3333740234375,514.6666870117188,504,498,496,494.66668701171875,494.66668701171875,494.66668701171875,494.66668701171875,494.66668701171875,607.3333740234375,637.3333740234375,682,711.3333740234375,719.3333740234375,740.6666870117188,745.3333740234375,744.6666870117188,742,742,742,626.6666870117188,597.3333740234375,538,510,430.66668701171875,378.66668701171875,315.3333435058594,278,206.6666717529297,125.33334350585938,93.33333587646484],"timestamp_mouse":[15,46,55,75,96,115,136,156,175,196,215,235,255,275,295,315,335,356,376,398,416,435,455,476,495,515,535,556,576,596,615,635,656,676,695,715,736,755,775,799,815,836,855,878,899,915,935,955,975,997,1015,1035,1055,1076,1096,1115,1135,1156,1176,1197,1216,1235,1255,1275,1298,1315,1336,1355,1375,1396,1415,1435,1456,1476,1495,1516,1535,1555,1575,1598,1617,1636,1655,1675,1696,1717],"xSR":350,"ySR":768,"xT1":30,"yT1":0,"xT2":670,"yT2":0,"toosoon":0,"cond_shown":"equaldotanddens","ratio_trial":900,"smaller_num":"9","larger_num":"10","correct_side":2,"subjID":"42wm","gender":"No_gender","age":"No_age","school":"No_school"},{"start_time":1549382045928,"click_time":1549382047340,"finger_time":1549382047020,"fix_duration":1246.309596058399,"trial":19,"RT":1092,"MT":320,"sideResp":1,"stimulus":"img/900/equaldotanddens/L/10_Ratio_900_L_20_R_18.png","xmouse":[388,388,388,387.3333435058594,387.3333435058594,387.3333435058594,387.3333435058594,387.3333435058594,387.3333435058594,387.3333435058594,387.3333435058594,387.3333435058594,387.3333435058594,387.3333435058594,387.3333435058594,387.3333435058594,387.3333435058594,387.3333435058594,387.3333435058594,387.3333435058594,387.3333435058594,387.3333435058594,387.3333435058594,386.66668701171875,386.66668701171875,386.66668701171875,386.66668701171875,386.66668701171875,386.66668701171875,386.66668701171875,386.66668701171875,386.66668701171875,386.66668701171875,386,386,386,386,386,386,386,386,386,386,384.66668701171875,384.66668701171875,384.66668701171875,385.3333435058594,385.3333435058594,385.3333435058594,385.3333435058594,380,375.3333435058594,372.66668701171875,363.3333435058594,341.3333435058594,324.66668701171875,313.3333435058594,292.66668701171875,282.66668701171875,252.66668701171875,233.33334350585938,219.33334350585938,209.33334350585938,193.33334350585938,170,157.33334350585938,152,140,135.33334350585938,125.33334350585938],"ymouse":[838,838,838,836.6666870117188,836.6666870117188,836.6666870117188,836.6666870117188,836.6666870117188,836.6666870117188,836.6666870117188,836.6666870117188,836.6666870117188,836.6666870117188,836,836,836,836,836,836,836,836,836,836,836,836,836,836,836,836,836,836,836,836,836.6666870117188,836.6666870117188,836.6666870117188,836.6666870117188,836.6666870117188,836.6666870117188,836.6666870117188,836.6666870117188,836.6666870117188,836.6666870117188,834.6666870117188,834.6666870117188,834.6666870117188,830.6666870117188,827.3333740234375,825.3333740234375,825.3333740234375,804,786.6666870117188,774.6666870117188,742.6666870117188,674.6666870117188,623.3333740234375,596.6666870117188,542,514,427.3333435058594,369.3333435058594,316,285.3333435058594,229.33334350585938,144,92,73.33333587646484,44,37.333335876464844,29.333335876464844],"timestamp_mouse":[47,52,72,92,113,132,152,172,192,212,232,252,272,292,312,332,352,373,392,413,432,452,472,492,512,532,552,572,593,613,632,653,672,692,712,732,752,772,792,812,833,853,872,892,914,932,952,972,993,1012,1032,1052,1072,1092,1114,1134,1152,1173,1192,1216,1233,1252,1272,1292,1314,1333,1353,1372,1392,1412],"xSR":350,"ySR":768,"xT1":30,"yT1":0,"xT2":670,"yT2":0,"toosoon":0,"cond_shown":"equaldotanddens","ratio_trial":900,"smaller_num":"18","larger_num":"20","correct_side":1,"subjID":"42wm","gender":"No_gender","age":"No_age","school":"No_school"},{"start_time":1549382048462,"click_time":1549382049701,"finger_time":1549382049420,"fix_duration":396.38547681578575,"trial":20,"RT":958,"MT":281,"sideResp":2,"stimulus":"img/500/equaldotanddens/R/15_Ratio_500_L_1_R_2.png","xmouse":[400.66668701171875,400.66668701171875,400.66668701171875,400.66668701171875,400.66668701171875,399.3333435058594,399.3333435058594,399.3333435058594,399.3333435058594,399.3333435058594,394.66668701171875,394.66668701171875,394.66668701171875,394.66668701171875,394.66668701171875,397.3333435058594,397.3333435058594,397.3333435058594,397.3333435058594,397.3333435058594,397.3333435058594,397.3333435058594,397.3333435058594,397.3333435058594,397.3333435058594,396,396,396,396,396,396,396,396,396,396,396,396,396,396,396,396,396,396,396,396,398.66668701171875,398.66668701171875,398.66668701171875,426,435.3333435058594,462,486.66668701171875,506,549.3333740234375,565.3333740234375,616,621.3333740234375,630.6666870117188,635.3333740234375,640.6666870117188,655.3333740234375,665.3333740234375,674.6666870117188],"ymouse":[838.6666870117188,838.6666870117188,838.6666870117188,838.6666870117188,838.6666870117188,837.3333740234375,837.3333740234375,837.3333740234375,837.3333740234375,837.3333740234375,838,838,838,838,838,839.3333740234375,839.3333740234375,839.3333740234375,839.3333740234375,839.3333740234375,839.3333740234375,839.3333740234375,839.3333740234375,839.3333740234375,839.3333740234375,839.3333740234375,839.3333740234375,839.3333740234375,839.3333740234375,839.3333740234375,839.3333740234375,839.3333740234375,839.3333740234375,839.3333740234375,839.3333740234375,839.3333740234375,839.3333740234375,839.3333740234375,839.3333740234375,839.3333740234375,839.3333740234375,839.3333740234375,839.3333740234375,839.3333740234375,839.3333740234375,836.6666870117188,836.6666870117188,836.6666870117188,766.6666870117188,736.6666870117188,630,530,474,374.66668701171875,336,233.33334350585938,217.33334350585938,187.33334350585938,174.6666717529297,148,111.33333587646484,88,76],"timestamp_mouse":[2,37,37,58,78,98,118,138,159,178,198,219,238,259,278,298,318,339,359,378,398,419,438,458,478,498,519,539,558,579,598,618,638,658,679,698,718,739,758,778,798,818,838,858,878,898,919,938,958,978,999,1019,1038,1059,1078,1100,1118,1138,1158,1178,1199,1218,1238],"xSR":350,"ySR":768,"xT1":30,"yT1":0,"xT2":670,"yT2":0,"toosoon":0,"cond_shown":"equaldotanddens","ratio_trial":500,"smaller_num":"1","larger_num":"2","correct_side":2,"subjID":"42wm","gender":"No_gender","age":"No_age","school":"No_school"},{"start_time":1549382050851,"click_time":1549382052160,"finger_time":1549382051840,"fix_duration":329.2876119434558,"trial":21,"RT":989,"MT":320,"sideResp":1,"stimulus":"img/250/equaldotsize/L/2_Ratio_250_L_16_R_4.png","xmouse":[408,407.3333435058594,407.3333435058594,407.3333435058594,407.3333435058594,407.3333435058594,407.3333435058594,407.3333435058594,407.3333435058594,407.3333435058594,408,408,408,408,408,408,408,408,408,408,408,408,408,408,408,408,408,408,408,408,408,408,408,408,408,408,408,408,408,408,406,406,406,406,406,406,406,406,383.3333435058594,374.66668701171875,331.3333435058594,320,296.66668701171875,281.3333435058594,259.3333435058594,228,207.33334350585938,197.33334350585938,179.33334350585938,169.33334350585938,144,130,117.33333587646484,114,106.66667175292969],"ymouse":[797.3333740234375,797.3333740234375,797.3333740234375,797.3333740234375,797.3333740234375,797.3333740234375,797.3333740234375,797.3333740234375,797.3333740234375,797.3333740234375,794,794,794,794,794,794,794,794,794,794,793.3333740234375,793.3333740234375,793.3333740234375,793.3333740234375,793.3333740234375,793.3333740234375,793.3333740234375,793.3333740234375,793.3333740234375,793.3333740234375,794.6666870117188,794.6666870117188,794.6666870117188,794.6666870117188,794.6666870117188,794.6666870117188,794.6666870117188,794.6666870117188,794.6666870117188,794.6666870117188,796,796,796,796,796,796,796,796,764,744,670,653.3333740234375,613.3333740234375,586,526,442,392.66668701171875,370.66668701171875,323.3333435058594,300,230.6666717529297,186,139.33334350585938,117.33334350585938,79.33333587646484],"timestamp_mouse":[10,54,69,89,109,129,149,169,189,209,232,249,270,289,310,329,349,370,390,409,430,449,469,490,509,529,550,569,589,609,633,649,670,690,710,729,749,769,789,810,832,849,869,889,909,933,949,969,989,1009,1032,1050,1069,1090,1110,1132,1150,1170,1190,1209,1231,1249,1269,1289,1309],"xSR":350,"ySR":768,"xT1":30,"yT1":0,"xT2":670,"yT2":0,"toosoon":0,"cond_shown":"equaldotsize","ratio_trial":250,"smaller_num":"4","larger_num":"16","correct_side":1,"subjID":"42wm","gender":"No_gender","age":"No_age","school":"No_school"},{"start_time":1549382053235,"click_time":1549382054860,"finger_time":1549382054660,"fix_duration":250,"trial":22,"RT":1425,"MT":200,"sideResp":2,"stimulus":"img/500/randomdotsizeEA/R/6_Ratio_500_L_9_R_18.png","xmouse":[411.3333435058594,411.3333435058594,411.3333435058594,411.3333435058594,411.3333435058594,411.3333435058594,414.66668701171875,416,416,415.3333435058594,415.3333435058594,415.3333435058594,415.3333435058594,415.3333435058594,415.3333435058594,404.66668701171875,404.66668701171875,404.66668701171875,404.66668701171875,402.66668701171875,402.66668701171875,402.66668701171875,402.66668701171875,402.66668701171875,402.66668701171875,402.66668701171875,402.66668701171875,402.66668701171875,402.66668701171875,409.3333435058594,409.3333435058594,409.3333435058594,409.3333435058594,409.3333435058594,409.3333435058594,409.3333435058594,409.3333435058594,409.3333435058594,409.3333435058594,419.3333435058594,420.66668701171875,421.3333435058594,420.66668701171875,420.66668701171875,420.66668701171875,420.66668701171875,420.66668701171875,420.66668701171875,420.66668701171875,420.66668701171875,420.66668701171875,415.3333435058594,415.3333435058594,414,414,414,414,414,411.3333435058594,411.3333435058594,412,413.3333435058594,413.3333435058594,413.3333435058594,413.3333435058594,413.3333435058594,413.3333435058594,413.3333435058594,413.3333435058594,413.3333435058594,413.3333435058594,446,476.66668701171875,536.6666870117188,557.3333740234375,600,634.6666870117188,652.6666870117188,705.3333740234375,728,740,748],"ymouse":[810.6666870117188,810.6666870117188,810.6666870117188,810.6666870117188,810.6666870117188,810.6666870117188,812.6666870117188,812,812,810.6666870117188,810.6666870117188,810.6666870117188,810.6666870117188,810.6666870117188,810.6666870117188,803.3333740234375,803.3333740234375,803.3333740234375,803.3333740234375,801.3333740234375,801.3333740234375,801.3333740234375,801.3333740234375,801.3333740234375,801.3333740234375,801.3333740234375,801.3333740234375,801.3333740234375,801.3333740234375,805.3333740234375,805.3333740234375,805.3333740234375,805.3333740234375,805.3333740234375,805.3333740234375,805.3333740234375,805.3333740234375,805.3333740234375,805.3333740234375,809.3333740234375,808.6666870117188,808.6666870117188,808,808,808,808,808,808,808,808,808,811.3333740234375,811.3333740234375,814.6666870117188,814.6666870117188,814.6666870117188,814.6666870117188,814.6666870117188,816,816.6666870117188,816.6666870117188,817.3333740234375,817.3333740234375,817.3333740234375,817.3333740234375,817.3333740234375,817.3333740234375,817.3333740234375,817.3333740234375,817.3333740234375,817.3333740234375,748.6666870117188,664,509.3333740234375,464,384.66668701171875,306,266,170.6666717529297,122,101.33333587646484,75.33333587646484],"timestamp_mouse":[5,37,45,66,85,105,125,145,167,188,205,225,245,267,285,305,326,345,366,386,405,425,445,468,485,506,525,546,565,588,605,625,645,668,685,705,725,745,766,786,805,825,845,866,885,906,925,946,967,987,1006,1025,1045,1067,1085,1105,1125,1145,1165,1185,1205,1225,1245,1265,1286,1306,1326,1345,1365,1388,1405,1425,1446,1467,1485,1505,1525,1545,1567,1585,1605,1625],"xSR":350,"ySR":768,"xT1":30,"yT1":0,"xT2":670,"yT2":0,"toosoon":0,"cond_shown":"randomdotsizeEA","ratio_trial":500,"smaller_num":"9","larger_num":"18","correct_side":2,"subjID":"42wm","gender":"No_gender","age":"No_age","school":"No_school"},{"start_time":1549382056357,"click_time":1549382057481,"finger_time":1549382057220,"fix_duration":550.734999503136,"trial":23,"RT":863,"MT":261,"sideResp":1,"stimulus":"img/750/randomdotsizeEA/R/4_Ratio_750_L_15_R_20.png","xmouse":[390.66668701171875,390,390,390,390,380,377.3333435058594,376.66668701171875,376.66668701171875,376.66668701171875,378.66668701171875,378.66668701171875,378.66668701171875,388,388.66668701171875,389.3333435058594,389.3333435058594,390,390,390,389.3333435058594,389.3333435058594,389.3333435058594,389.3333435058594,389.3333435058594,389.3333435058594,389.3333435058594,378.66668701171875,378.66668701171875,379.3333435058594,379.3333435058594,379.3333435058594,379.3333435058594,379.3333435058594,379.3333435058594,379.3333435058594,379.3333435058594,379.3333435058594,379.3333435058594,379.3333435058594,368.66668701171875,356.66668701171875,322,299.3333435058594,288,263.3333435058594,250,207.33334350585938,181.33334350585938,156,143.33334350585938,122,98.66667175292969,93.33333587646484,82,77.33333587646484],"ymouse":[848,847.3333740234375,847.3333740234375,847.3333740234375,847.3333740234375,846,844.6666870117188,844.6666870117188,843.3333740234375,843.3333740234375,843.3333740234375,843.3333740234375,843.3333740234375,844.6666870117188,844.6666870117188,844.6666870117188,844.6666870117188,844,844,844,844,844,844,844,844,844,844,837.3333740234375,836.6666870117188,834.6666870117188,834,834,834,834,834,834,834,834,834,834,823.3333740234375,800.6666870117188,730.6666870117188,672.6666870117188,639.3333740234375,577.3333740234375,544.6666870117188,446,384.66668701171875,326.66668701171875,296.66668701171875,248,179.33334350585938,160,122,94.66667175292969],"timestamp_mouse":[4,43,63,83,103,124,145,164,183,203,224,243,267,285,303,324,344,365,383,403,423,444,465,484,503,523,543,565,583,603,624,644,663,684,703,723,744,764,783,803,824,843,863,883,903,923,944,964,983,1003,1023,1043,1064,1083,1103,1123],"xSR":350,"ySR":768,"xT1":30,"yT1":0,"xT2":670,"yT2":0,"toosoon":0,"cond_shown":"randomdotsizeEA","ratio_trial":750,"smaller_num":"15","larger_num":"20","correct_side":2,"subjID":"42wm","gender":"No_gender","age":"No_age","school":"No_school"},{"start_time":1549382059463,"click_time":1549382060201,"finger_time":1549382059981,"fix_duration":1261.2003338854104,"trial":24,"RT":518,"MT":220,"sideResp":2,"stimulus":"img/500/randomdotsize/R/1_Ratio_500_L_9_R_18.png","xmouse":[398.66668701171875,398.66668701171875,398.66668701171875,398.66668701171875,398.66668701171875,398.66668701171875,398.66668701171875,398.66668701171875,396,396,396,396,394.66668701171875,395.3333435058594,395.3333435058594,395.3333435058594,395.3333435058594,395.3333435058594,394.66668701171875,394.66668701171875,395.3333435058594,395.3333435058594,395.3333435058594,395.3333435058594,395.3333435058594,416,443.3333435058594,463.3333435058594,550,608.6666870117188,649.3333740234375,666,687.3333740234375,700.6666870117188,702,701.3333740234375,704],"ymouse":[829.3333740234375,829.3333740234375,829.3333740234375,829.3333740234375,829.3333740234375,829.3333740234375,829.3333740234375,829.3333740234375,828,828,828,828,819.3333740234375,818.6666870117188,818.6666870117188,818.6666870117188,818.6666870117188,818.6666870117188,814.6666870117188,811.3333740234375,808,806,806,806,806,745.3333740234375,668.6666870117188,615.3333740234375,433.3333435058594,330,252.66668701171875,218,173.33334350585938,130.6666717529297,118,102,84.66667175292969],"timestamp_mouse":[19,44,57,77,97,117,137,157,180,197,218,237,257,277,297,317,337,357,378,397,417,437,457,477,497,518,537,557,578,598,618,637,657,678,697,718,738],"xSR":350,"ySR":768,"xT1":30,"yT1":0,"xT2":670,"yT2":0,"toosoon":0,"cond_shown":"randomdotsize","ratio_trial":500,"smaller_num":"9","larger_num":"18","correct_side":2,"subjID":"42wm","gender":"No_gender","age":"No_age","school":"No_school"},{"start_time":1549382063923,"click_time":1549382065321,"finger_time":1549382065001,"fix_duration":1400.469228623598,"trial":25,"RT":1078,"MT":320,"sideResp":1,"stimulus":"img/750/randomdotsize/L/9_Ratio_750_L_4_R_3.png","xmouse":[402.66668701171875,402.66668701171875,402.66668701171875,402.66668701171875,402.66668701171875,402.66668701171875,402.66668701171875,402.66668701171875,402.66668701171875,404,404,404,404,404,404,404,404,404,404,404,404,404,404,404,404,404,404,404,404,404.66668701171875,404.66668701171875,404.66668701171875,404.66668701171875,404.66668701171875,404.66668701171875,404.66668701171875,404.66668701171875,404.66668701171875,404.66668701171875,404,404,404,404,404,406,406,406,406,406,402.66668701171875,402.66668701171875,402.66668701171875,402.66668701171875,369.3333435058594,362.66668701171875,346,336.66668701171875,294.66668701171875,283.3333435058594,261.3333435058594,249.33334350585938,226,194.6666717529297,174.6666717529297,165.33334350585938,148,141.33334350585938,118.66667175292969,112.66667175292969,104],"ymouse":[812.6666870117188,812.6666870117188,812.6666870117188,812.6666870117188,812.6666870117188,812.6666870117188,812.6666870117188,812.6666870117188,812.6666870117188,812,812,812,812,812,812,812,812,812,812,812.6666870117188,812.6666870117188,812.6666870117188,812.6666870117188,812.6666870117188,812.6666870117188,812.6666870117188,812.6666870117188,812.6666870117188,812.6666870117188,813.3333740234375,813.3333740234375,813.3333740234375,813.3333740234375,813.3333740234375,813.3333740234375,813.3333740234375,813.3333740234375,813.3333740234375,813.3333740234375,813.3333740234375,813.3333740234375,813.3333740234375,813.3333740234375,813.3333740234375,811.3333740234375,809.3333740234375,808.6666870117188,808.6666870117188,808.6666870117188,798,798,798,798,721.3333740234375,702,662,641.3333740234375,551.3333740234375,528,482,455.3333435058594,404.66668701171875,330,284,261.3333435058594,216,194.6666717529297,135.33334350585938,109.33333587646484,90.66667175292969],"timestamp_mouse":[19,44,57,77,97,118,137,157,177,197,217,238,257,277,298,317,337,357,378,397,417,437,457,477,497,517,539,557,577,597,617,638,657,678,697,717,737,757,777,797,817,838,857,877,897,917,937,957,977,997,1017,1038,1057,1078,1097,1117,1137,1159,1178,1198,1217,1237,1258,1277,1297,1318,1337,1358,1377,1398],"xSR":350,"ySR":768,"xT1":30,"yT1":0,"xT2":670,"yT2":0,"toosoon":0,"cond_shown":"randomdotsize","ratio_trial":750,"smaller_num":"3","larger_num":"4","correct_side":1,"subjID":"42wm","gender":"No_gender","age":"No_age","school":"No_school"},{"start_time":1549382066936,"click_time":1549382068321,"finger_time":1549382068060,"fix_duration":852.4139083610256,"trial":26,"RT":1124,"MT":261,"sideResp":1,"stimulus":"img/750/equaldotsize/L/10_Ratio_750_L_4_R_3.png","xmouse":[402,402,401.3333435058594,401.3333435058594,401.3333435058594,401.3333435058594,401.3333435058594,400.66668701171875,400.66668701171875,400.66668701171875,400.66668701171875,400.66668701171875,400.66668701171875,400.66668701171875,400.66668701171875,400.66668701171875,400.66668701171875,400.66668701171875,400.66668701171875,400.66668701171875,401.3333435058594,401.3333435058594,401.3333435058594,401.3333435058594,401.3333435058594,401.3333435058594,401.3333435058594,401.3333435058594,401.3333435058594,401.3333435058594,400.66668701171875,400.66668701171875,400.66668701171875,400.66668701171875,400.66668701171875,400.66668701171875,400.66668701171875,400.66668701171875,400.66668701171875,400.66668701171875,400.66668701171875,400.66668701171875,400.66668701171875,400.66668701171875,400.66668701171875,400.66668701171875,400.66668701171875,400.66668701171875,400.66668701171875,400.66668701171875,399.3333435058594,399.3333435058594,397.3333435058594,397.3333435058594,397.3333435058594,364.66668701171875,352.66668701171875,300.66668701171875,288.66668701171875,264.66668701171875,250.66668701171875,228,197.33334350585938,180,171.33334350585938,156.6666717529297,149.33334350585938,132,122],"ymouse":[819.3333740234375,820,820,820,820,820,820,820,820,820,820,820,820,820,820,820,820,820,820,820,820,820,820,820,820,820,820,820,820,820,819.3333740234375,819.3333740234375,819.3333740234375,819.3333740234375,819.3333740234375,819.3333740234375,819.3333740234375,819.3333740234375,819.3333740234375,819.3333740234375,818,818,818,818,818,818,818,818,818,818,811.3333740234375,811.3333740234375,789.3333740234375,789.3333740234375,789.3333740234375,708.6666870117188,691.3333740234375,611.3333740234375,586.6666870117188,534,508,452,370,310.66668701171875,280,221.33334350585938,193.33334350585938,121.33334350585938,84.66667175292969],"timestamp_mouse":[4,45,64,85,104,124,144,164,184,204,224,244,264,284,304,325,344,364,384,405,425,445,464,484,504,524,546,564,584,604,625,645,664,684,704,725,745,764,784,804,824,844,864,884,905,924,944,964,984,1004,1025,1044,1069,1084,1104,1124,1144,1166,1184,1206,1224,1244,1264,1284,1304,1324,1345,1366,1384],"xSR":350,"ySR":768,"xT1":30,"yT1":0,"xT2":670,"yT2":0,"toosoon":0,"cond_shown":"equaldotsize","ratio_trial":750,"smaller_num":"3","larger_num":"4","correct_side":1,"subjID":"42wm","gender":"No_gender","age":"No_age","school":"No_school"},{"start_time":1549382070481,"click_time":1549382071623,"finger_time":1549382071360,"fix_duration":1338.113532408547,"trial":27,"RT":879,"MT":263,"sideResp":1,"stimulus":"img/750/randomdotsizeEA/L/8_Ratio_750_L_4_R_3.png","xmouse":[405.3333435058594,405.3333435058594,405.3333435058594,405.3333435058594,405.3333435058594,404,404,404,404,404,404,404,404,404,404,404,404.66668701171875,404.66668701171875,404.66668701171875,404.66668701171875,404.66668701171875,404.66668701171875,404.66668701171875,404.66668701171875,404.66668701171875,404.66668701171875,401.3333435058594,401.3333435058594,401.3333435058594,401.3333435058594,400.66668701171875,400.66668701171875,400.66668701171875,400,400,400,399.3333435058594,399.3333435058594,399.3333435058594,399.3333435058594,399.3333435058594,399.3333435058594,382,373.3333435058594,362.66668701171875,356,324,308,296.66668701171875,274.66668701171875,250,216.6666717529297,204.6666717529297,186,164,152.6666717529297,120.66667175292969],"ymouse":[821.3333740234375,821.3333740234375,821.3333740234375,821.3333740234375,821.3333740234375,820.6666870117188,820.6666870117188,820.6666870117188,820.6666870117188,820.6666870117188,820.6666870117188,820.6666870117188,820.6666870117188,820.6666870117188,820.6666870117188,820.6666870117188,820.6666870117188,820.6666870117188,820.6666870117188,820.6666870117188,820.6666870117188,820.6666870117188,820.6666870117188,820.6666870117188,820.6666870117188,820.6666870117188,822,822,822,822,822.6666870117188,823.3333740234375,823.3333740234375,823.3333740234375,823.3333740234375,822.6666870117188,822.6666870117188,822.6666870117188,822.6666870117188,822.6666870117188,822.6666870117188,822.6666870117188,779.3333740234375,739.3333740234375,684,658,593.3333740234375,547.3333740234375,516.6666870117188,454.66668701171875,387.3333435058594,295.3333435058594,265.3333435058594,209.33334350585938,160.6666717529297,138.6666717529297,91.33333587646484],"timestamp_mouse":[3,39,59,80,100,122,139,159,180,199,219,239,259,280,299,319,339,359,379,399,420,441,459,479,499,519,543,560,579,599,620,639,659,680,699,719,739,759,780,799,819,839,859,879,899,919,941,960,979,1000,1019,1039,1059,1079,1099,1119,1141],"xSR":350,"ySR":768,"xT1":30,"yT1":0,"xT2":670,"yT2":0,"toosoon":0,"cond_shown":"randomdotsizeEA","ratio_trial":750,"smaller_num":"3","larger_num":"4","correct_side":1,"subjID":"42wm","gender":"No_gender","age":"No_age","school":"No_school"},{"start_time":1549382073148,"click_time":1549382074160,"finger_time":1549382073800,"fix_duration":645.7996900114487,"trial":28,"RT":652,"MT":360,"sideResp":1,"stimulus":"img/250/equaldotanddens/L/15_Ratio_250_L_12_R_3.png","xmouse":[422,417.3333435058594,416.66668701171875,416.66668701171875,416.66668701171875,416.66668701171875,416.66668701171875,416,416,416,416,416,416,416,416,416,416,416,416,416,416,416,416.66668701171875,416.66668701171875,416.66668701171875,416.66668701171875,416.66668701171875,416.66668701171875,416.66668701171875,416.66668701171875,416.66668701171875,416.66668701171875,366.66668701171875,344,329.3333435058594,320.66668701171875,316.66668701171875,306,299.3333435058594,281.3333435058594,264,250,240,230.6666717529297,213.33334350585938,211.33334350585938,206,181.33334350585938,167.33334350585938,154,129.33334350585938],"ymouse":[803.3333740234375,805.3333740234375,805.3333740234375,805.3333740234375,805.3333740234375,805.3333740234375,806.6666870117188,806.6666870117188,806.6666870117188,806.6666870117188,806.6666870117188,806.6666870117188,807.3333740234375,807.3333740234375,807.3333740234375,807.3333740234375,807.3333740234375,807.3333740234375,807.3333740234375,807.3333740234375,807.3333740234375,807.3333740234375,806.6666870117188,806.6666870117188,806.6666870117188,806.6666870117188,806.6666870117188,806.6666870117188,806.6666870117188,806.6666870117188,806.6666870117188,806.6666870117188,763.3333740234375,735.3333740234375,708.6666870117188,694,684,651.3333740234375,632,573.3333740234375,522.6666870117188,446,410,277.3333435058594,168.6666717529297,105.33333587646484,89.33333587646484,56,34.66666793823242,23.333335876464844,16.666667938232422],"timestamp_mouse":[20,48,53,72,92,112,132,152,172,192,212,232,252,272,292,312,332,353,373,392,412,432,452,472,492,512,532,552,572,592,614,633,652,673,693,712,732,752,772,792,814,833,852,873,892,912,932,952,972,992,1012],"xSR":350,"ySR":768,"xT1":30,"yT1":0,"xT2":670,"yT2":0,"toosoon":0,"cond_shown":"equaldotanddens","ratio_trial":250,"smaller_num":"3","larger_num":"12","correct_side":1,"subjID":"42wm","gender":"No_gender","age":"No_age","school":"No_school"},{"start_time":1549382075601,"click_time":1549382077201,"finger_time":1549382076680,"fix_duration":579.4245367174127,"trial":29,"RT":1079,"MT":521,"sideResp":2,"stimulus":"img/500/randomdotsizeEA/R/6_Ratio_500_L_9_R_18.png","xmouse":[412.66668701171875,412,412,412,411.3333435058594,410.66668701171875,410.66668701171875,410,410,410,410,408.66668701171875,408.66668701171875,408,408,408,408,408,406.66668701171875,406,406,406,406,406,406,406.66668701171875,406.66668701171875,406.66668701171875,406.66668701171875,406.66668701171875,406.66668701171875,406.66668701171875,419.3333435058594,424,426.66668701171875,429.3333435058594,430,430.66668701171875,430,430,430,430,430,430,430,419.3333435058594,419.3333435058594,419.3333435058594,413.3333435058594,412,411.3333435058594,408,406.66668701171875,402,400,398.66668701171875,398.66668701171875,399.3333435058594,399.3333435058594,399.3333435058594,399.3333435058594,399.3333435058594,412,418,419.3333435058594,424.66668701171875,429.3333435058594,442,464.66668701171875,486,498,528,542.6666870117188,582.6666870117188,602.6666870117188,622,631.3333740234375,650,678.6666870117188,700.6666870117188,709.3333740234375],"ymouse":[822,822,822,822,821.3333740234375,821.3333740234375,821.3333740234375,820.6666870117188,820.6666870117188,820.6666870117188,820.6666870117188,820.6666870117188,820.6666870117188,820,820,819.3333740234375,819.3333740234375,819.3333740234375,819.3333740234375,819.3333740234375,819.3333740234375,820,820,820,820,820.6666870117188,820.6666870117188,820.6666870117188,820.6666870117188,820.6666870117188,820.6666870117188,820.6666870117188,826,825.3333740234375,825.3333740234375,824.6666870117188,824.6666870117188,824.6666870117188,824.6666870117188,824.6666870117188,824.6666870117188,824.6666870117188,824.6666870117188,824.6666870117188,824.6666870117188,818.6666870117188,818.6666870117188,818.6666870117188,800,794,790.6666870117188,785.3333740234375,782,772,764,756,752.6666870117188,747.3333740234375,747.3333740234375,747.3333740234375,747.3333740234375,747.3333740234375,740,737.3333740234375,735.3333740234375,724.6666870117188,714,676,588,518.6666870117188,484,417.3333435058594,387.3333435058594,312,272.66668701171875,238.6666717529297,222.6666717529297,188.6666717529297,140,107.33333587646484,92],"timestamp_mouse":[3,20,51,59,79,99,119,141,159,179,199,219,239,263,280,299,319,339,359,379,399,419,440,459,479,501,519,539,559,579,599,619,639,663,680,699,720,739,759,779,799,819,840,860,879,900,919,940,960,979,999,1019,1039,1060,1079,1100,1120,1139,1160,1179,1199,1219,1241,1261,1279,1299,1319,1339,1361,1379,1399,1419,1439,1460,1480,1499,1520,1539,1563,1579,1600],"xSR":350,"ySR":768,"xT1":30,"yT1":0,"xT2":670,"yT2":0,"toosoon":0,"cond_shown":"randomdotsizeEA","ratio_trial":500,"smaller_num":"9","larger_num":"18","correct_side":2,"subjID":"42wm","gender":"No_gender","age":"No_age","school":"No_school"},{"start_time":1549382079337,"click_time":1549382080441,"finger_time":1549382080182,"fix_duration":1392.0262396902822,"trial":30,"RT":845,"MT":259,"sideResp":2,"stimulus":"img/750/randomdotsize/R/2_Ratio_750_L_6_R_8.png","xmouse":[398.66668701171875,398.66668701171875,398.66668701171875,398.66668701171875,398.66668701171875,398.66668701171875,396.66668701171875,396.66668701171875,396.66668701171875,396.66668701171875,396.66668701171875,396.66668701171875,396.66668701171875,396.66668701171875,396.66668701171875,396.66668701171875,398,398,398,398,398,398,398,398,398,399.3333435058594,400.66668701171875,400.66668701171875,400.66668701171875,407.3333435058594,407.3333435058594,410.66668701171875,412.66668701171875,412.66668701171875,414.66668701171875,414.66668701171875,416.66668701171875,417.3333435058594,417.3333435058594,418.66668701171875,421.3333435058594,449.3333435058594,459.3333435058594,479.3333435058594,488,508,542,566,580,605.3333740234375,630.6666870117188,659.3333740234375,667.3333740234375,679.3333740234375,684.6666870117188],"ymouse":[834.6666870117188,834.6666870117188,834.6666870117188,834.6666870117188,834.6666870117188,834.6666870117188,838,838,838,838,838,838,838,838,838,838,832.6666870117188,832.6666870117188,832.6666870117188,832.6666870117188,832.6666870117188,832.6666870117188,832.6666870117188,832.6666870117188,832.6666870117188,824.6666870117188,824,824,824,825.3333740234375,825.3333740234375,826.6666870117188,826.6666870117188,826.6666870117188,826,826,824,820.6666870117188,819.3333740234375,813.3333740234375,804,704,676.6666870117188,626.6666870117188,604,554,468,405.3333435058594,369.3333435058594,306,246.66668701171875,174,153.33334350585938,114.66667175292969,94.66667175292969],"timestamp_mouse":[3,43,63,84,104,123,144,163,183,203,224,243,263,283,303,323,343,363,383,404,423,443,466,484,503,524,543,564,584,604,623,644,664,683,704,725,743,763,783,803,824,845,864,883,903,924,946,964,983,1003,1023,1043,1063,1084,1104],"xSR":350,"ySR":768,"xT1":30,"yT1":0,"xT2":670,"yT2":0,"toosoon":0,"cond_shown":"randomdotsize","ratio_trial":750,"smaller_num":"6","larger_num":"8","correct_side":2,"subjID":"42wm","gender":"No_gender","age":"No_age","school":"No_school"},{"start_time":1549382081553,"click_time":1549382082821,"finger_time":1549382082500,"fix_duration":250,"trial":31,"RT":947,"MT":321,"sideResp":1,"stimulus":"img/900/equaldotsize/L/10_Ratio_900_L_20_R_18.png","xmouse":[398.66668701171875,398.66668701171875,398.66668701171875,398.66668701171875,398.66668701171875,398.66668701171875,398.66668701171875,396.66668701171875,396.66668701171875,396.66668701171875,396.66668701171875,396.66668701171875,396.66668701171875,396.66668701171875,396.66668701171875,396.66668701171875,396,396,396,396,396,396,396,396,396,396,396,396.66668701171875,396.66668701171875,396.66668701171875,396.66668701171875,396.66668701171875,396.66668701171875,396.66668701171875,396.66668701171875,396.66668701171875,396.66668701171875,395.3333435058594,395.3333435058594,395.3333435058594,395.3333435058594,395.3333435058594,390,390,390,390,390,398,398,398,364.66668701171875,342.66668701171875,310.66668701171875,288.66668701171875,276,254.66668701171875,242.6666717529297,208,187.33334350585938,169.33334350585938,162,146.6666717529297,130.6666717529297,126.66667175292969],"ymouse":[804,804,804,804,804,804,804,804.6666870117188,804.6666870117188,804.6666870117188,804.6666870117188,804.6666870117188,804.6666870117188,804.6666870117188,804.6666870117188,804.6666870117188,804.6666870117188,804.6666870117188,804.6666870117188,804.6666870117188,804.6666870117188,804.6666870117188,804.6666870117188,804.6666870117188,804.6666870117188,804.6666870117188,804.6666870117188,804.6666870117188,804.6666870117188,804.6666870117188,804.6666870117188,804.6666870117188,804.6666870117188,804.6666870117188,804.6666870117188,804.6666870117188,804.6666870117188,803.3333740234375,803.3333740234375,803.3333740234375,803.3333740234375,803.3333740234375,784,776.6666870117188,776.6666870117188,776.6666870117188,776.6666870117188,705.3333740234375,705.3333740234375,705.3333740234375,598.6666870117188,551.3333740234375,476.66668701171875,423.3333435058594,393.3333435058594,336,310.66668701171875,226.6666717529297,169.33334350585938,115.33334350585938,93.33333587646484,57.333335876464844,34.66666793823242,32.66666793823242],"timestamp_mouse":[14,39,47,67,87,107,127,147,167,187,207,227,248,267,288,307,330,347,368,388,407,427,447,467,487,507,527,547,567,588,607,627,647,668,688,707,727,748,767,793,807,827,851,867,887,907,927,947,969,987,1008,1027,1050,1067,1088,1107,1127,1148,1168,1187,1208,1228,1247,1267],"xSR":350,"ySR":768,"xT1":30,"yT1":0,"xT2":670,"yT2":0,"toosoon":0,"cond_shown":"equaldotsize","ratio_trial":900,"smaller_num":"18","larger_num":"20","correct_side":1,"subjID":"42wm","gender":"No_gender","age":"No_age","school":"No_school"},{"start_time":1549382083869,"click_time":1549382084981,"finger_time":1549382084740,"fix_duration":346.76092841470165,"trial":32,"RT":871,"MT":241,"sideResp":2,"stimulus":"img/900/equaldotsize/L/8_Ratio_900_L_20_R_18.png","xmouse":[413.3333435058594,413.3333435058594,413.3333435058594,413.3333435058594,413.3333435058594,413.3333435058594,412.66668701171875,412.66668701171875,412.66668701171875,412.66668701171875,412.66668701171875,412.66668701171875,412.66668701171875,411.3333435058594,411.3333435058594,411.3333435058594,411.3333435058594,411.3333435058594,411.3333435058594,411.3333435058594,411.3333435058594,411.3333435058594,411.3333435058594,408.66668701171875,408.66668701171875,408.66668701171875,408.66668701171875,408.66668701171875,408.66668701171875,408.66668701171875,408.66668701171875,408.66668701171875,408.66668701171875,416,416.66668701171875,418,419.3333435058594,419.3333435058594,419.3333435058594,419.3333435058594,419.3333435058594,419.3333435058594,422.66668701171875,429.3333435058594,434.66668701171875,448.66668701171875,481.3333435058594,512,528.6666870117188,563.3333740234375,580,608.6666870117188,646.6666870117188,669.3333740234375,682,700.6666870117188],"ymouse":[820,820,820,820.6666870117188,820.6666870117188,820.6666870117188,820.6666870117188,820.6666870117188,820.6666870117188,820.6666870117188,820.6666870117188,820.6666870117188,820.6666870117188,820.6666870117188,820.6666870117188,820.6666870117188,820.6666870117188,820.6666870117188,820.6666870117188,820.6666870117188,820.6666870117188,820.6666870117188,820.6666870117188,819.3333740234375,819.3333740234375,819.3333740234375,819.3333740234375,819.3333740234375,819.3333740234375,819.3333740234375,819.3333740234375,819.3333740234375,819.3333740234375,798.6666870117188,796.6666870117188,794.6666870117188,792.6666870117188,792,792,792,791.3333740234375,790.6666870117188,784.6666870117188,767.3333740234375,752,708,612.6666870117188,535.3333740234375,495.3333435058594,418.66668701171875,382,316.66668701171875,223.33334350585938,170,140.6666717529297,93.33333587646484],"timestamp_mouse":[13,34,51,71,91,111,132,151,171,191,212,231,251,271,291,311,331,351,372,391,411,431,452,471,491,511,531,551,572,591,612,631,654,671,691,711,734,752,772,791,811,831,851,871,891,912,935,954,972,992,1012,1031,1053,1071,1091,1111],"xSR":350,"ySR":768,"xT1":30,"yT1":0,"xT2":670,"yT2":0,"toosoon":0,"cond_shown":"equaldotsize","ratio_trial":900,"smaller_num":"18","larger_num":"20","correc