[{"start_time":1549381379480,"click_time":1549381380199,"finger_time":1549381379492,"fix_duration":412.8712138722197,"trial":0,"RT":12,"MT":707,"sideResp":2,"stimulus":[],"xmouse":[417,417,417,417,417,417,417,417,417,417,417,417,417,417,417,417,417,417,417,417,417,417,417,417,417,417,417,417,417,417,417,417,417,417,417,417,706],"ymouse":[539,539,539,539,539,539,539,539,539,539,539,539,539,539,539,539,539,539,539,539,539,539,539,539,539,539,539,539,539,539,539,539,539,539,539,539,39],"timestamp_mouse":[12,18,39,59,78,98,118,138,158,178,198,218,238,259,278,298,318,338,359,379,398,418,439,459,478,498,519,538,559,578,598,618,639,659,678,698,718],"xSR":350,"ySR":451.2,"xT1":30,"yT1":0,"xT2":670,"yT2":0,"toosoon":0,"cond_shown":"Incongruent","ratio_trial":300,"L_num":13,"L_den":26,"R_num":12,"R_den":15,"correct_side":2,"subjID":"43wm","gender":"No_gender","age":"No_age","school":"No_school","test":{"fix_dur":[250,1500],"timestim":900,"targets_dim":[100,100],"targets_relative_coord":[0.1,0.9],"size_stim":[880,420],"start_dim":[100,100],"size_start":[300,300],"size_fix":60,"samplingrate":20,"img_types":["Congruent","Incongruent"],"ratios":[100,200,300,500],"rep_conds":15,"nTrials":128,"trials_to_rest":500,"Trials_order":[53,41,97,22,42,86,11,124,93,115,48,123,68,107,57,5,60,65,8,80,110,73,1,95,63,18,75,87,116,94,9,3,54,2,74,66,83,47,6,14,50,104,111,114,49,17,118,81,29,84,7,26,99,92,31,61,101,96,119,90,70,56,39,69,35,19,4,102,77,46,117,82,112,32,98,85,45,88,72,16,125,44,108,89,103,28,62,71,13,30,121,109,105,51,79,120,36,10,15,55,40,78,23,34,106,113,126,67,38,27,20,100,58,37,122,52,127,91,25,0,21,12,76,64,24,33,43,59],"cond_shown":["Incongruent","Incongruent","Incongruent","Congruent","Congruent","Congruent","Incongruent","Congruent","Incongruent","Incongruent","Congruent","Incongruent","Congruent","Incongruent","Incongruent","Incongruent","Congruent","Incongruent","Congruent","Congruent","Congruent","Incongruent","Incongruent","Incongruent","Incongruent","Congruent","Incongruent","Incongruent","Congruent","Congruent","Incongruent","Incongruent","Congruent","Congruent","Congruent","Congruent","Incongruent","Incongruent","Congruent","Congruent","Congruent","Congruent","Incongruent","Congruent","Incongruent","Incongruent","Congruent","Incongruent","Incongruent","Congruent","Incongruent","Congruent","Incongruent","Congruent","Incongruent","Incongruent","Incongruent","Congruent","Incongruent","Congruent","Congruent","Congruent","Incongruent","Incongruent","Incongruent","Incongruent","Congruent","Congruent","Incongruent","Congruent","Incongruent","Congruent","Congruent","Congruent","Congruent","Incongruent","Incongruent","Congruent","Congruent","Congruent","Incongruent","Congruent","Congruent","Incongruent","Incongruent","Congruent","Congruent","Incongruent","Incongruent","Congruent","Incongruent","Incongruent","Incongruent","Incongruent","Incongruent","Congruent","Congruent","Congruent","Incongruent","Incongruent","Congruent","Congruent","Incongruent","Congruent","Congruent","Incongruent","Congruent","Incongruent","Congruent","Incongruent","Congruent","Congruent","Congruent","Incongruent","Congruent","Congruent","Incongruent","Incongruent","Incongruent","Congruent","Incongruent","Congruent","Congruent","Congruent","Congruent","Incongruent","Incongruent","Incongruent"],"ratio_trial":[300,100,100,500,200,500,200,300,300,200,100,200,300,200,100,300,300,100,100,100,500,100,100,500,500,200,200,500,300,500,100,200,500,200,200,200,200,500,500,500,200,100,500,200,100,100,500,100,300,300,500,200,200,300,500,300,300,100,500,200,500,100,500,300,200,200,300,500,300,500,300,200,100,100,200,300,300,100,100,100,300,300,300,100,500,300,500,500,300,500,100,300,100,200,500,100,300,200,500,500,100,500,500,200,200,100,500,200,500,200,300,300,200,300,200,300,500,200,100,100,300,300,300,100,100,100,200,200],"left_num":[13,3,13,8,4,2,7,20,8,7,6,4,1,7,13,13,3,3,2,15,20,4,17,7,2,21,3,7,9,10,3,3,2,3,4,8,7,2,20,2,14,11,7,20,12,4,20,9,2,5,5,6,1,5,7,4,7,9,5,3,10,4,7,13,9,7,1,10,4,6,13,3,11,3,8,13,4,9,3,10,4,5,24,9,5,8,6,7,13,10,1,8,4,4,7,10,20,3,7,7,3,15,5,20,8,1,1,7,7,9,8,3,8,3,4,20,5,3,12,2,1,1,20,11,1,2,11,14],"right_num":[12,11,6,1,3,21,6,13,9,14,5,1,19,14,6,12,2,7,11,13,3,8,10,5,4,2,1,5,3,22,7,1,12,7,3,2,4,4,7,12,6,4,5,9,9,8,1,14,6,6,6,11,2,6,5,2,8,8,6,9,4,15,9,12,8,6,7,4,2,1,12,14,4,4,3,12,2,8,2,3,2,6,2,20,6,10,1,5,12,22,8,14,8,6,9,3,13,14,5,5,2,5,6,9,7,8,11,6,1,8,10,4,7,4,3,14,6,11,2,6,2,3,13,4,3,6,3,12],"left_den":[26,5,26,12,10,8,15,25,10,10,20,30,3,10,26,26,6,9,5,25,24,8,30,21,3,30,10,21,10,24,9,10,8,10,10,15,15,3,24,12,28,22,21,25,24,8,24,15,4,25,6,20,3,25,21,20,10,15,6,12,15,10,8,26,15,15,20,15,20,9,26,10,22,20,15,26,20,15,6,25,20,25,30,10,6,15,9,21,26,24,2,10,8,5,8,25,25,6,21,21,6,18,6,25,15,2,9,15,10,15,15,6,15,6,8,25,6,4,30,5,2,5,25,22,2,4,20,30],"right_den":[15,22,10,6,15,28,9,26,18,28,25,3,30,28,10,15,10,30,22,26,9,20,15,6,24,4,2,6,5,24,30,2,16,14,15,6,6,24,21,18,20,10,6,15,15,20,3,28,30,12,18,22,15,12,6,4,20,16,18,20,24,30,24,15,10,9,20,24,4,6,15,28,10,16,9,15,4,16,5,10,4,12,4,25,18,12,6,6,15,24,20,28,20,10,24,10,26,20,6,6,5,15,18,15,21,20,18,9,5,10,12,5,21,20,10,28,18,20,4,12,10,6,26,10,5,15,4,18],"correct_side":[2,1,2,1,1,2,2,1,1,1,1,2,2,1,2,2,1,1,2,1,1,1,2,2,1,1,2,2,1,2,1,2,2,2,1,1,2,1,1,2,1,1,2,1,2,1,1,1,1,2,1,2,1,2,2,2,1,1,1,2,1,2,1,2,2,2,2,1,2,1,2,2,1,2,1,2,2,1,1,1,2,2,1,1,1,2,1,2,2,2,1,1,1,1,1,1,1,2,2,2,1,1,1,1,1,1,2,2,1,2,2,2,1,1,1,1,1,1,2,2,1,2,1,1,2,1,2,2],"img_shown":["img2/300/Incongruent/R/I_Dist_300_LN_13_LD_26_RN_12_RD_15_1.png","img2/100/Incongruent/L/I_Dist_100_LN_3_LD_5_RN_11_RD_22_0.png","img2/100/Incongruent/R/I_Dist_100_LN_13_LD_26_RN_6_RD_10_1.png","img2/500/Congruent/L/C_Dist_500_LN_8_LD_12_RN_1_RD_6_0.png","img2/200/Congruent/L/C_Dist_200_LN_4_LD_10_RN_3_RD_15_0.png","img2/500/Congruent/R/C_Dist_500_LN_2_LD_8_RN_21_RD_28_1.png","img2/200/Incongruent/R/I_Dist_200_LN_7_LD_15_RN_6_RD_9_1.png","img2/300/Congruent/L/C_Dist_300_LN_20_LD_25_RN_13_RD_26_0.png","img2/300/Incongruent/L/I_Dist_300_LN_8_LD_10_RN_9_RD_18_0.png","img2/200/Incongruent/L/I_Dist_200_LN_7_LD_10_RN_14_RD_28_0.png","img2/100/Congruent/L/C_Dist_100_LN_6_LD_20_RN_5_RD_25_0.png","img2/200/Incongruent/R/I_Dist_200_LN_4_LD_30_RN_1_RD_3_1.png","img2/300/Congruent/R/C_Dist_300_LN_1_LD_3_RN_19_RD_30_1.png","img2/200/Incongruent/L/I_Dist_200_LN_7_LD_10_RN_14_RD_28_0.png","img2/100/Incongruent/R/I_Dist_100_LN_13_LD_26_RN_6_RD_10_1.png","img2/300/Incongruent/R/I_Dist_300_LN_13_LD_26_RN_12_RD_15_1.png","img2/300/Congruent/L/C_Dist_300_LN_3_LD_6_RN_2_RD_10_0.png","img2/100/Incongruent/L/I_Dist_100_LN_3_LD_9_RN_7_RD_30_0.png","img2/100/Congruent/R/C_Dist_100_LN_2_LD_5_RN_11_RD_22_1.png","img2/100/Congruent/L/C_Dist_100_LN_15_LD_25_RN_13_RD_26_0.png","img2/500/Congruent/L/C_Dist_500_LN_20_LD_24_RN_3_RD_9_0.png","img2/100/Incongruent/L/I_Dist_100_LN_4_LD_8_RN_8_RD_20_0.png","img2/100/Incongruent/R/I_Dist_100_LN_17_LD_30_RN_10_RD_15_1.png","img2/500/Incongruent/R/I_Dist_500_LN_7_LD_21_RN_5_RD_6_1.png","img2/500/Incongruent/L/I_Dist_500_LN_2_LD_3_RN_4_RD_24_0.png","img2/200/Congruent/L/C_Dist_200_LN_21_LD_30_RN_2_RD_4_0.png","img2/200/Incongruent/R/I_Dist_200_LN_3_LD_10_RN_1_RD_2_1.png","img2/500/Incongruent/R/I_Dist_500_LN_7_LD_21_RN_5_RD_6_1.png","img2/300/Congruent/L/C_Dist_300_LN_9_LD_10_RN_3_RD_5_0.png","img2/500/Congruent/R/C_Dist_500_LN_10_LD_24_RN_22_RD_24_1.png","img2/100/Incongruent/L/I_Dist_100_LN_3_LD_9_RN_7_RD_30_0.png","img2/200/Incongruent/R/I_Dist_200_LN_3_LD_10_RN_1_RD_2_1.png","img2/500/Congruent/R/C_Dist_500_LN_2_LD_8_RN_12_RD_16_1.png","img2/200/Congruent/R/C_Dist_200_LN_3_LD_10_RN_7_RD_14_1.png","img2/200/Congruent/L/C_Dist_200_LN_4_LD_10_RN_3_RD_15_0.png","img2/200/Congruent/L/C_Dist_200_LN_8_LD_15_RN_2_RD_6_0.png","img2/200/Incongruent/R/I_Dist_200_LN_7_LD_15_RN_4_RD_6_1.png","img2/500/Incongruent/L/I_Dist_500_LN_2_LD_3_RN_4_RD_24_0.png","img2/500/Congruent/L/C_Dist_500_LN_20_LD_24_RN_7_RD_21_0.png","img2/500/Congruent/R/C_Dist_500_LN_2_LD_12_RN_12_RD_18_1.png","img2/200/Congruent/L/C_Dist_200_LN_14_LD_28_RN_6_RD_20_0.png","img2/100/Congruent/L/C_Dist_100_LN_11_LD_22_RN_4_RD_10_0.png","img2/500/Incongruent/R/I_Dist_500_LN_7_LD_21_RN_5_RD_6_1.png","img2/200/Congruent/L/C_Dist_200_LN_20_LD_25_RN_9_RD_15_0.png","img2/100/Incongruent/R/I_Dist_100_LN_12_LD_24_RN_9_RD_15_1.png","img2/100/Incongruent/L/I_Dist_100_LN_4_LD_8_RN_8_RD_20_0.png","img2/500/Congruent/L/C_Dist_500_LN_20_LD_24_RN_1_RD_3_0.png","img2/100/Incongruent/L/I_Dist_100_LN_9_LD_15_RN_14_RD_28_0.png","img2/300/Incongruent/L/I_Dist_300_LN_2_LD_4_RN_6_RD_30_0.png","img2/300/Congruent/R/C_Dist_300_LN_5_LD_25_RN_6_RD_12_1.png","img2/500/Incongruent/L/I_Dist_500_LN_5_LD_6_RN_6_RD_18_0.png","img2/200/Congruent/R/C_Dist_200_LN_6_LD_20_RN_11_RD_22_1.png","img2/200/Incongruent/L/I_Dist_200_LN_1_LD_3_RN_2_RD_15_0.png","img2/300/Congruent/R/C_Dist_300_LN_5_LD_25_RN_6_RD_12_1.png","img2/500/Incongruent/R/I_Dist_500_LN_7_LD_21_RN_5_RD_6_1.png","img2/300/Incongruent/R/I_Dist_300_LN_4_LD_20_RN_2_RD_4_1.png","img2/300/Incongruent/L/I_Dist_300_LN_7_LD_10_RN_8_RD_20_0.png","img2/100/Congruent/L/C_Dist_100_LN_9_LD_15_RN_8_RD_16_0.png","img2/500/Incongruent/L/I_Dist_500_LN_5_LD_6_RN_6_RD_18_0.png","img2/200/Congruent/R/C_Dist_200_LN_3_LD_12_RN_9_RD_20_1.png","img2/500/Congruent/L/C_Dist_500_LN_10_LD_15_RN_4_RD_24_0.png","img2/100/Congruent/R/C_Dist_100_LN_4_LD_10_RN_15_RD_30_1.png","img2/500/Incongruent/L/I_Dist_500_LN_7_LD_8_RN_9_RD_24_0.png","img2/300/Incongruent/R/I_Dist_300_LN_13_LD_26_RN_12_RD_15_1.png","img2/200/Incongruent/R/I_Dist_200_LN_9_LD_15_RN_8_RD_10_1.png","img2/200/Incongruent/R/I_Dist_200_LN_7_LD_15_RN_6_RD_9_1.png","img2/300/Congruent/R/C_Dist_300_LN_1_LD_20_RN_7_RD_20_1.png","img2/500/Congruent/L/C_Dist_500_LN_10_LD_15_RN_4_RD_24_0.png","img2/300/Incongruent/R/I_Dist_300_LN_4_LD_20_RN_2_RD_4_1.png","img2/500/Congruent/L/C_Dist_500_LN_6_LD_9_RN_1_RD_6_0.png","img2/300/Incongruent/R/I_Dist_300_LN_13_LD_26_RN_12_RD_15_1.png","img2/200/Congruent/R/C_Dist_200_LN_3_LD_10_RN_14_RD_28_1.png","img2/100/Congruent/L/C_Dist_100_LN_11_LD_22_RN_4_RD_10_0.png","img2/100/Congruent/R/C_Dist_100_LN_3_LD_20_RN_4_RD_16_1.png","img2/200/Congruent/L/C_Dist_200_LN_8_LD_15_RN_3_RD_9_0.png","img2/300/Incongruent/R/I_Dist_300_LN_13_LD_26_RN_12_RD_15_1.png","img2/300/Incongruent/R/I_Dist_300_LN_4_LD_20_RN_2_RD_4_1.png","img2/100/Congruent/L/C_Dist_100_LN_9_LD_15_RN_8_RD_16_0.png","img2/100/Congruent/L/C_Dist_100_LN_3_LD_6_RN_2_RD_5_0.png","img2/100/Congruent/L/C_Dist_100_LN_10_LD_25_RN_3_RD_10_0.png","img2/300/Incongruent/R/I_Dist_300_LN_4_LD_20_RN_2_RD_4_1.png","img2/300/Congruent/R/C_Dist_300_LN_5_LD_25_RN_6_RD_12_1.png","img2/300/Congruent/L/C_Dist_300_LN_24_LD_30_RN_2_RD_4_0.png","img2/100/Incongruent/L/I_Dist_100_LN_9_LD_10_RN_20_RD_25_0.png","img2/500/Incongruent/L/I_Dist_500_LN_5_LD_6_RN_6_RD_18_0.png","img2/300/Congruent/R/C_Dist_300_LN_8_LD_15_RN_10_RD_12_1.png","img2/500/Congruent/L/C_Dist_500_LN_6_LD_9_RN_1_RD_6_0.png","img2/500/Incongruent/R/I_Dist_500_LN_7_LD_21_RN_5_RD_6_1.png","img2/300/Incongruent/R/I_Dist_300_LN_13_LD_26_RN_12_RD_15_1.png","img2/500/Congruent/R/C_Dist_500_LN_10_LD_24_RN_22_RD_24_1.png","img2/100/Incongruent/L/I_Dist_100_LN_1_LD_2_RN_8_RD_20_0.png","img2/300/Incongruent/L/I_Dist_300_LN_8_LD_10_RN_14_RD_28_0.png","img2/100/Incongruent/L/I_Dist_100_LN_4_LD_8_RN_8_RD_20_0.png","img2/200/Incongruent/L/I_Dist_200_LN_4_LD_5_RN_6_RD_10_0.png","img2/500/Incongruent/L/I_Dist_500_LN_7_LD_8_RN_9_RD_24_0.png","img2/100/Congruent/L/C_Dist_100_LN_10_LD_25_RN_3_RD_10_0.png","img2/300/Congruent/L/C_Dist_300_LN_20_LD_25_RN_13_RD_26_0.png","img2/200/Congruent/R/C_Dist_200_LN_3_LD_6_RN_14_RD_20_1.png","img2/500/Incongruent/R/I_Dist_500_LN_7_LD_21_RN_5_RD_6_1.png","img2/500/Incongruent/R/I_Dist_500_LN_7_LD_21_RN_5_RD_6_1.png","img2/100/Congruent/L/C_Dist_100_LN_3_LD_6_RN_2_RD_5_0.png","img2/500/Congruent/L/C_Dist_500_LN_15_LD_18_RN_5_RD_15_0.png","img2/500/Incongruent/L/I_Dist_500_LN_5_LD_6_RN_6_RD_18_0.png","img2/200/Congruent/L/C_Dist_200_LN_20_LD_25_RN_9_RD_15_0.png","img2/200/Congruent/L/C_Dist_200_LN_8_LD_15_RN_7_RD_21_0.png","img2/100/Incongruent/L/I_Dist_100_LN_1_LD_2_RN_8_RD_20_0.png","img2/500/Congruent/R/C_Dist_500_LN_1_LD_9_RN_11_RD_18_1.png","img2/200/Incongruent/R/I_Dist_200_LN_7_LD_15_RN_6_RD_9_1.png","img2/500/Congruent/L/C_Dist_500_LN_7_LD_10_RN_1_RD_5_0.png","img2/200/Incongruent/R/I_Dist_200_LN_9_LD_15_RN_8_RD_10_1.png","img2/300/Congruent/R/C_Dist_300_LN_8_LD_15_RN_10_RD_12_1.png","img2/300/Congruent/R/C_Dist_300_LN_3_LD_6_RN_4_RD_5_1.png","img2/200/Congruent/L/C_Dist_200_LN_8_LD_15_RN_7_RD_21_0.png","img2/300/Incongruent/L/I_Dist_300_LN_3_LD_6_RN_4_RD_20_0.png","img2/200/Congruent/L/C_Dist_200_LN_4_LD_8_RN_3_RD_10_0.png","img2/300/Congruent/L/C_Dist_300_LN_20_LD_25_RN_14_RD_28_0.png","img2/500/Incongruent/L/I_Dist_500_LN_5_LD_6_RN_6_RD_18_0.png","img2/200/Incongruent/L/I_Dist_200_LN_3_LD_4_RN_11_RD_20_0.png","img2/100/Incongruent/R/I_Dist_100_LN_12_LD_30_RN_2_RD_4_1.png","img2/100/Congruent/R/C_Dist_100_LN_2_LD_5_RN_6_RD_12_1.png","img2/300/Incongruent/L/I_Dist_300_LN_1_LD_2_RN_2_RD_10_0.png","img2/300/Congruent/R/C_Dist_300_LN_1_LD_5_RN_3_RD_6_1.png","img2/300/Congruent/L/C_Dist_300_LN_20_LD_25_RN_13_RD_26_0.png","img2/100/Congruent/L/C_Dist_100_LN_11_LD_22_RN_4_RD_10_0.png","img2/100/Congruent/R/C_Dist_100_LN_1_LD_2_RN_3_RD_5_1.png","img2/100/Incongruent/L/I_Dist_100_LN_2_LD_4_RN_6_RD_15_0.png","img2/200/Incongruent/R/I_Dist_200_LN_11_LD_20_RN_3_RD_4_1.png","img2/200/Incongruent/R/I_Dist_200_LN_14_LD_30_RN_12_RD_18_1.png"],"dist100_C":[["C_Dist_100_LN_10_LD_25_RN_3_RD_10_0.png","C_Dist_100_LN_11_LD_22_RN_4_RD_10_0.png","C_Dist_100_LN_11_LD_22_RN_6_RD_15_0.png","C_Dist_100_LN_15_LD_25_RN_13_RD_26_0.png","C_Dist_100_LN_3_LD_6_RN_2_RD_5_0.png","C_Dist_100_LN_6_LD_20_RN_5_RD_25_0.png","C_Dist_100_LN_8_LD_16_RN_2_RD_5_0.png","C_Dist_100_LN_9_LD_15_RN_8_RD_16_0.png"],["C_Dist_100_LN_1_LD_2_RN_18_RD_30_1.png","C_Dist_100_LN_1_LD_2_RN_3_RD_5_1.png","C_Dist_100_LN_12_LD_30_RN_13_RD_26_1.png","C_Dist_100_LN_2_LD_5_RN_11_RD_22_1.png","C_Dist_100_LN_2_LD_5_RN_6_RD_12_1.png","C_Dist_100_LN_3_LD_20_RN_4_RD_16_1.png","C_Dist_100_LN_4_LD_10_RN_15_RD_30_1.png","C_Dist_100_LN_4_LD_8_RN_6_RD_10_1.png","C_Dist_100_LN_6_LD_12_RN_15_RD_25_1.png","C_Dist_100_LN_7_LD_14_RN_15_RD_25_1.png","C_Dist_100_LN_7_LD_14_RN_9_RD_15_1.png"]],"dist100_I":[["I_Dist_100_LN_1_LD_2_RN_8_RD_20_0.png","I_Dist_100_LN_2_LD_4_RN_6_RD_15_0.png","I_Dist_100_LN_2_LD_4_RN_8_RD_20_0.png","I_Dist_100_LN_3_LD_5_RN_11_RD_22_0.png","I_Dist_100_LN_3_LD_5_RN_8_RD_16_0.png","I_Dist_100_LN_3_LD_6_RN_4_RD_10_0.png","I_Dist_100_LN_3_LD_9_RN_7_RD_30_0.png","I_Dist_100_LN_4_LD_8_RN_8_RD_20_0.png","I_Dist_100_LN_6_LD_10_RN_11_RD_22_0.png","I_Dist_100_LN_6_LD_10_RN_13_RD_26_0.png","I_Dist_100_LN_6_LD_10_RN_7_RD_14_0.png","I_Dist_100_LN_9_LD_10_RN_20_RD_25_0.png","I_Dist_100_LN_9_LD_15_RN_13_RD_26_0.png","I_Dist_100_LN_9_LD_15_RN_14_RD_28_0.png"],["I_Dist_100_LN_10_LD_25_RN_8_RD_16_1.png","I_Dist_100_LN_10_LD_25_RN_9_RD_18_1.png","I_Dist_100_LN_11_LD_22_RN_9_RD_15_1.png","I_Dist_100_LN_12_LD_24_RN_9_RD_15_1.png","I_Dist_100_LN_12_LD_30_RN_2_RD_4_1.png","I_Dist_100_LN_13_LD_26_RN_12_RD_20_1.png","I_Dist_100_LN_13_LD_26_RN_6_RD_10_1.png","I_Dist_100_LN_17_LD_30_RN_10_RD_15_1.png","I_Dist_100_LN_6_LD_12_RN_3_RD_5_1.png","I_Dist_100_LN_8_LD_16_RN_6_RD_10_1.png","I_Dist_100_LN_8_LD_20_RN_1_RD_2_1.png","I_Dist_100_LN_9_LD_18_RN_6_RD_10_1.png"]],"dist100_S":[["E_Dist_100_LN_2_LD_12_RN_2_RD_30_0.png","E_Dist_100_LN_6_LD_10_RN_6_RD_12_0.png"],["E_Dist_100_LN_6_LD_12_RN_6_RD_10_1.png"]],"dist200_C":[["C_Dist_200_LN_11_LD_22_RN_3_RD_10_0.png","C_Dist_200_LN_12_LD_15_RN_6_RD_10_0.png","C_Dist_200_LN_12_LD_20_RN_6_RD_15_0.png","C_Dist_200_LN_14_LD_28_RN_6_RD_20_0.png","C_Dist_200_LN_15_LD_25_RN_4_RD_10_0.png","C_Dist_200_LN_16_LD_20_RN_12_RD_20_0.png","C_Dist_200_LN_16_LD_30_RN_9_RD_27_0.png","C_Dist_200_LN_20_LD_25_RN_9_RD_15_0.png","C_Dist_200_LN_21_LD_30_RN_2_RD_4_0.png","C_Dist_200_LN_4_LD_10_RN_3_RD_15_0.png","C_Dist_200_LN_4_LD_8_RN_3_RD_10_0.png","C_Dist_200_LN_6_LD_15_RN_3_RD_15_0.png","C_Dist_200_LN_7_LD_21_RN_2_RD_15_0.png","C_Dist_200_LN_8_LD_15_RN_2_RD_6_0.png","C_Dist_200_LN_8_LD_15_RN_3_RD_9_0.png","C_Dist_200_LN_8_LD_15_RN_7_RD_21_0.png","C_Dist_200_LN_9_LD_20_RN_4_RD_16_0.png"],["C_Dist_200_LN_1_LD_2_RN_21_RD_30_1.png","C_Dist_200_LN_13_LD_26_RN_14_RD_20_1.png","C_Dist_200_LN_3_LD_10_RN_11_RD_22_1.png","C_Dist_200_LN_3_LD_10_RN_14_RD_28_1.png","C_Dist_200_LN_3_LD_10_RN_7_RD_14_1.png","C_Dist_200_LN_3_LD_12_RN_9_RD_20_1.png","C_Dist_200_LN_3_LD_6_RN_14_RD_20_1.png","C_Dist_200_LN_5_LD_10_RN_14_RD_20_1.png","C_Dist_200_LN_6_LD_12_RN_7_RD_10_1.png","C_Dist_200_LN_6_LD_20_RN_11_RD_22_1.png","C_Dist_200_LN_7_LD_15_RN_18_RD_27_1.png","C_Dist_200_LN_9_LD_30_RN_13_RD_26_1.png"]],"dist200_I":[["I_Dist_200_LN_1_LD_2_RN_3_RD_10_0.png","I_Dist_200_LN_1_LD_3_RN_2_RD_15_0.png","I_Dist_200_LN_3_LD_4_RN_11_RD_20_0.png","I_Dist_200_LN_4_LD_5_RN_6_RD_10_0.png","I_Dist_200_LN_4_LD_6_RN_14_RD_30_0.png","I_Dist_200_LN_7_LD_10_RN_12_RD_24_0.png","I_Dist_200_LN_7_LD_10_RN_14_RD_28_0.png","I_Dist_200_LN_7_LD_10_RN_8_RD_16_0.png"],["I_Dist_200_LN_11_LD_20_RN_3_RD_4_1.png","I_Dist_200_LN_14_LD_30_RN_12_RD_18_1.png","I_Dist_200_LN_14_LD_30_RN_6_RD_9_1.png","I_Dist_200_LN_3_LD_10_RN_1_RD_2_1.png","I_Dist_200_LN_4_LD_30_RN_1_RD_3_1.png","I_Dist_200_LN_6_LD_20_RN_3_RD_6_1.png","I_Dist_200_LN_7_LD_15_RN_4_RD_6_1.png","I_Dist_200_LN_7_LD_15_RN_6_RD_9_1.png","I_Dist_200_LN_9_LD_15_RN_8_RD_10_1.png"]],"dist200_S":[["E_Dist_200_LN_3_LD_6_RN_3_RD_10_0.png"],["E_Dist_200_LN_3_LD_10_RN_3_RD_6_1.png"]],"dist300_C":[["C_Dist_300_LN_11_LD_22_RN_1_RD_5_0.png","C_Dist_300_LN_11_LD_22_RN_2_RD_10_0.png","C_Dist_300_LN_11_LD_22_RN_4_RD_20_0.png","C_Dist_300_LN_12_LD_24_RN_2_RD_10_0.png","C_Dist_300_LN_18_LD_20_RN_9_RD_15_0.png","C_Dist_300_LN_20_LD_25_RN_13_RD_26_0.png","C_Dist_300_LN_20_LD_25_RN_14_RD_28_0.png","C_Dist_300_LN_20_LD_25_RN_5_RD_10_0.png","C_Dist_300_LN_20_LD_25_RN_8_RD_16_0.png","C_Dist_300_LN_20_LD_25_RN_9_RD_18_0.png","C_Dist_300_LN_24_LD_30_RN_2_RD_4_0.png","C_Dist_300_LN_24_LD_30_RN_8_RD_16_0.png","C_Dist_300_LN_3_LD_6_RN_2_RD_10_0.png","C_Dist_300_LN_4_LD_10_RN_1_RD_10_0.png","C_Dist_300_LN_4_LD_5_RN_2_RD_4_0.png","C_Dist_300_LN_8_LD_16_RN_1_RD_5_0.png","C_Dist_300_LN_9_LD_10_RN_3_RD_5_0.png"],["C_Dist_300_LN_1_LD_20_RN_7_RD_20_1.png","C_Dist_300_LN_1_LD_3_RN_19_RD_30_1.png","C_Dist_300_LN_1_LD_30_RN_8_RD_24_1.png","C_Dist_300_LN_1_LD_5_RN_11_RD_22_1.png","C_Dist_300_LN_1_LD_5_RN_3_RD_6_1.png","C_Dist_300_LN_1_LD_5_RN_6_RD_12_1.png","C_Dist_300_LN_2_LD_10_RN_12_RD_24_1.png","C_Dist_300_LN_2_LD_20_RN_10_RD_25_1.png","C_Dist_300_LN_3_LD_12_RN_11_RD_20_1.png","C_Dist_300_LN_3_LD_6_RN_4_RD_5_1.png","C_Dist_300_LN_4_LD_20_RN_13_RD_26_1.png","C_Dist_300_LN_5_LD_25_RN_6_RD_12_1.png","C_Dist_300_LN_5_LD_25_RN_7_RD_14_1.png","C_Dist_300_LN_7_LD_14_RN_20_RD_25_1.png","C_Dist_300_LN_8_LD_15_RN_10_RD_12_1.png"]],"dist300_I":[["I_Dist_300_LN_1_LD_2_RN_2_RD_10_0.png","I_Dist_300_LN_1_LD_2_RN_3_RD_15_0.png","I_Dist_300_LN_2_LD_4_RN_6_RD_30_0.png","I_Dist_300_LN_3_LD_6_RN_4_RD_20_0.png","I_Dist_300_LN_4_LD_5_RN_6_RD_12_0.png","I_Dist_300_LN_4_LD_5_RN_8_RD_16_0.png","I_Dist_300_LN_7_LD_10_RN_8_RD_20_0.png","I_Dist_300_LN_8_LD_10_RN_14_RD_28_0.png","I_Dist_300_LN_8_LD_10_RN_9_RD_18_0.png"],["I_Dist_300_LN_13_LD_26_RN_12_RD_15_1.png","I_Dist_300_LN_4_LD_20_RN_2_RD_4_1.png"]],"dist300_S":[["E_Dist_300_LN_9_LD_12_RN_9_RD_20_0.png"],["E_Dist_300_LN_18_LD_30_RN_18_RD_20_1.png","E_Dist_300_LN_3_LD_10_RN_3_RD_5_1.png","E_Dist_300_LN_9_LD_20_RN_9_RD_12_1.png"]],"dist500_C":[["C_Dist_500_LN_10_LD_13_RN_7_RD_26_0.png","C_Dist_500_LN_10_LD_15_RN_4_RD_24_0.png","C_Dist_500_LN_12_LD_16_RN_3_RD_12_0.png","C_Dist_500_LN_12_LD_18_RN_4_RD_24_0.png","C_Dist_500_LN_15_LD_18_RN_5_RD_15_0.png","C_Dist_500_LN_15_LD_20_RN_1_RD_4_0.png","C_Dist_500_LN_18_LD_27_RN_1_RD_6_0.png","C_Dist_500_LN_20_LD_24_RN_1_RD_3_0.png","C_Dist_500_LN_20_LD_24_RN_3_RD_9_0.png","C_Dist_500_LN_20_LD_24_RN_7_RD_21_0.png","C_Dist_500_LN_20_LD_28_RN_3_RD_14_0.png","C_Dist_500_LN_21_LD_28_RN_6_RD_24_0.png","C_Dist_500_LN_22_LD_28_RN_2_RD_7_0.png","C_Dist_500_LN_25_LD_30_RN_9_RD_27_0.png","C_Dist_500_LN_4_LD_6_RN_1_RD_6_0.png","C_Dist_500_LN_5_LD_6_RN_2_RD_6_0.png","C_Dist_500_LN_6_LD_9_RN_1_RD_6_0.png","C_Dist_500_LN_7_LD_10_RN_1_RD_5_0.png","C_Dist_500_LN_8_LD_12_RN_1_RD_6_0.png","C_Dist_500_LN_8_LD_12_RN_4_RD_24_0.png"],["C_Dist_500_LN_1_LD_4_RN_12_RD_16_1.png","C_Dist_500_LN_1_LD_4_RN_9_RD_12_1.png","C_Dist_500_LN_1_LD_9_RN_11_RD_18_1.png","C_Dist_500_LN_10_LD_24_RN_22_RD_24_1.png","C_Dist_500_LN_2_LD_12_RN_10_RD_15_1.png","C_Dist_500_LN_2_LD_12_RN_12_RD_18_1.png","C_Dist_500_LN_2_LD_12_RN_4_RD_6_1.png","C_Dist_500_LN_2_LD_24_RN_7_RD_12_1.png","C_Dist_500_LN_2_LD_5_RN_18_RD_20_1.png","C_Dist_500_LN_2_LD_5_RN_9_RD_10_1.png","C_Dist_500_LN_2_LD_8_RN_12_RD_16_1.png","C_Dist_500_LN_2_LD_8_RN_21_RD_28_1.png","C_Dist_500_LN_3_LD_10_RN_4_RD_5_1.png","C_Dist_500_LN_3_LD_12_RN_15_RD_20_1.png","C_Dist_500_LN_3_LD_30_RN_6_RD_10_1.png","C_Dist_500_LN_3_LD_8_RN_14_RD_16_1.png","C_Dist_500_LN_4_LD_16_RN_15_RD_20_1.png","C_Dist_500_LN_4_LD_24_RN_12_RD_18_1.png","C_Dist_500_LN_5_LD_14_RN_6_RD_7_1.png","C_Dist_500_LN_7_LD_21_RN_20_RD_24_1.png","C_Dist_500_LN_7_LD_28_RN_12_RD_16_1.png","C_Dist_500_LN_7_LD_28_RN_9_RD_12_1.png","C_Dist_500_LN_9_LD_27_RN_20_RD_24_1.png"]],"dist500_I":[["I_Dist_500_LN_2_LD_3_RN_4_RD_24_0.png","I_Dist_500_LN_5_LD_6_RN_6_RD_18_0.png","I_Dist_500_LN_7_LD_8_RN_9_RD_24_0.png"],["I_Dist_500_LN_7_LD_21_RN_5_RD_6_1.png"]],"dist500_S":[["E_Dist_500_LN_6_LD_8_RN_6_RD_24_0.png"],["E_Dist_500_LN_2_LD_12_RN_2_RD_3_1.png","E_Dist_500_LN_6_LD_24_RN_6_RD_8_1.png"]]}},{"start_time":1549381383435,"click_time":1549381390278,"finger_time":1549381386538,"fix_duration":250,"trial":1,"RT":3103,"MT":3740,"sideResp":1,"stimulus":[],"xmouse":[399.3330078125,398.6669921875,398.6669921875,398.6669921875,398.6669921875,398.6669921875,398.6669921875,398.6669921875,398.6669921875,398.6669921875,398.6669921875,396.6669921875,396.6669921875,396.6669921875,396.6669921875,396.6669921875,396.6669921875,396.6669921875,396.6669921875,396.6669921875,396.6669921875,396.6669921875,396.6669921875,396.6669921875,396.6669921875,396.6669921875,396.6669921875,396.6669921875,396.6669921875,396.6669921875,396.6669921875,398,398,398,398,398,398,398,398,398,398,398,398,398,398,398,398,398,398,398,398,398,398,398,398,398,398,398,398,398,398,398,398,398,398,398,398,398,398,398,398,398,398,398,398,398,398,398,398,398,398,398,399,399,399,399,399,399,399,399,399,399,400,400,400,400,400,400,400,400,400,400,400,400,400,400,400,400,400,400,400,400,399.3330078125,399.3330078125,399.3330078125,399.3330078125,399.3330078125,399.3330078125,399.3330078125,399.3330078125,399.3330078125,399.3330078125,399.3330078125,397.3330078125,397.3330078125,397.3330078125,397.3330078125,397.3330078125,397.3330078125,397.3330078125,397.3330078125,397.3330078125,397.3330078125,400,400,400,400,400,400,400,400,402.6669921875,402,402.6669921875,402.6669921875,403.3330078125,403.3330078125,404.6669921875,405.3330078125,406,406.6669921875,406.6669921875,408,410,411.3330078125,412,413,416,417.3330078125,418.6669921875,420,420,422,425.3330078125,427,431,431,434.6669921875,437.3330078125,438,440.6669921875,443.3330078125,444.6669921875,448,450,450,452,453,454,454.6669921875,454.6669921875,455.3330078125,455,455.3330078125,455,455.3330078125,455.3330078125,454.6669921875,454,454,453.3330078125,453.3330078125,453.3330078125,453.3330078125,453.3330078125,453.3330078125,453.3330078125,453.3330078125,453.3330078125,453.3330078125,453.3330078125,450,450,450,450,450,452.6669921875,453,454.6669921875,454,455,456,456,458,458,458.6669921875,458,458,458,458,457,456,456,456,456,456,456,456,450.6669921875,450.6669921875,450.6669921875,450,450,450,450,450,450,450,450,450,450,450,450,450,448,448,447,446.6669921875,445.3330078125,445,444,444,443.3330078125,443.3330078125,443.3330078125,442.6669921875,442.6669921875,442.6669921875,442,443.3330078125,443,443,443.3330078125,442,442.6669921875,442,441.3330078125,441.3330078125,440,438.6669921875,437.3330078125,436.6669921875,434.6669921875,430,429.3330078125,426,422.6669921875,422,422,422,422,422,422,410.6669921875,409.3330078125,406,404,402,398,396,393.3330078125,392,387.3330078125,380.6669921875,376,373.3330078125,369,367.3330078125,358.6669921875,356,350,347.3330078125,339.3330078125,332.6669921875,326,322,314,311,304.6669921875,295.3330078125,288,284.6669921875,278,276,266,259.3330078125,252,248.66700744628906,238,233,228,226,220.66700744628906,209.33299255371094,206,198,188.66700744628906,184.66700744628906,173,166.66700744628906,163,156.66700744628906,150.66700744628906,141.33299255371094,138.66700744628906,132.66700744628906,130,124.66699981689453,116,110.66699981689453,108,102.66699981689453],"ymouse":[821.3330078125,820.6669921875,820.6669921875,820.6669921875,820.6669921875,820.6669921875,820.6669921875,820.6669921875,820.6669921875,820.6669921875,820.6669921875,819.3330078125,819.3330078125,819.3330078125,819.3330078125,819.3330078125,819.3330078125,819.3330078125,819.3330078125,819.3330078125,819.3330078125,818.6669921875,818.6669921875,818.6669921875,818.6669921875,818.6669921875,818.6669921875,818.6669921875,818.6669921875,818.6669921875,818.6669921875,820,820,820,820,820,820,820,820,820,820,820,820,820,820,820,820,820,820,820,820,820,820,819,819,819,819,819,819,819,819,819,818,818,818,818,818,818,818,818,818,818,817,817,817,817,817,817,817,817,817,817,818,818,818,818,818,818,818,818,818,818,815,815,815,815,815,815,815,815,815,815,816,816,816,816,816,816,816,816,816,816,816.6669921875,816.6669921875,816.6669921875,816.6669921875,816.6669921875,816.6669921875,816.6669921875,816.6669921875,816.6669921875,816.6669921875,816.6669921875,818.6669921875,818.6669921875,818.6669921875,818.6669921875,818.6669921875,818.6669921875,818.6669921875,818.6669921875,818.6669921875,818.6669921875,813,813,813,813,813,813,813,813,805.3330078125,804,802.6669921875,800.6669921875,798.6669921875,795.3330078125,789.3330078125,784.6669921875,782,779.3330078125,777.3330078125,773,770,767.3330078125,765,762,757,754.6669921875,753.3330078125,750,748,744,737.3330078125,732,724,724,716.6669921875,711.3330078125,708,703.3330078125,698.6669921875,696.6669921875,692,689,688,686,684,682,682.6669921875,681.3330078125,680.6669921875,680,679.3330078125,678,677.3330078125,676.6669921875,675.3330078125,674,674,674.6669921875,674.6669921875,674.6669921875,674.6669921875,674.6669921875,674.6669921875,674.6669921875,674.6669921875,674.6669921875,674.6669921875,674.6669921875,683,683,683,683,683,670.6669921875,670,666.6669921875,666,664,663,662,659,657,656.6669921875,656,654,653,653,654,655,655,655,655,655,655,655,677.3330078125,678.6669921875,679.3330078125,680,680,679,678,678,678,678,678,678,678,678,678,678,680,681,682,682.6669921875,684.6669921875,686,688,689,692.6669921875,694.6669921875,695.3330078125,697.3330078125,698.6669921875,698.6669921875,700,700.6669921875,702,702,703.3330078125,706,707.3330078125,708,711.3330078125,712.6669921875,717,720.6669921875,724.6669921875,726.6669921875,731.3330078125,738,740.6669921875,743,743.3330078125,742,742,742,742,742,742,717.3330078125,714.6669921875,710,704,702,690,688,681.3330078125,678,669.3330078125,654.6669921875,645,640.6669921875,632,627.3330078125,608.6669921875,604,592,587.3330078125,568.6669921875,552.6669921875,538,530,516,508,495.3330078125,477.3330078125,464,455.3330078125,442,436,416,403.3330078125,390,383.3330078125,366,354,344,338,327.3330078125,304.6669921875,297,283,267.3330078125,259.3330078125,238,226.66700744628906,220,207.33299255371094,195.33299255371094,178.66700744628906,172.66700744628906,161.33299255371094,156,144.66700744628906,126,114.6669921875,108,96.66699981689453],"timestamp_mouse":[4,23,69,83,103,123,143,163,184,203,223,243,264,283,303,323,343,363,384,403,424,444,463,484,503,523,543,564,584,604,623,644,663,683,703,723,743,764,783,803,823,843,863,883,903,923,943,964,983,1004,1023,1044,1064,1083,1104,1124,1143,1164,1184,1203,1224,1244,1263,1283,1304,1323,1344,1363,1383,1404,1424,1443,1465,1483,1503,1524,1544,1565,1583,1604,1623,1644,1664,1683,1703,1724,1744,1763,1784,1804,1823,1845,1867,1883,1903,1924,1945,1963,1984,2003,2023,2044,2064,2083,2103,2124,2144,2163,2184,2204,2224,2244,2265,2283,2303,2324,2344,2363,2383,2404,2424,2443,2463,2483,2504,2524,2543,2564,2583,2603,2624,2643,2664,2684,2704,2724,2743,2764,2786,2803,2823,2843,2865,2884,2903,2923,2943,2964,2985,3003,3024,3044,3066,3083,3103,3123,3144,3166,3183,3203,3223,3244,3263,3286,3303,3331,3343,3365,3383,3403,3423,3443,3463,3484,3504,3524,3544,3567,3584,3604,3623,3643,3663,3683,3703,3723,3744,3763,3783,3803,3824,3843,3864,3885,3903,3924,3944,3963,3983,4003,4023,4044,4063,4085,4103,4123,4143,4164,4184,4204,4223,4243,4263,4284,4304,4323,4343,4367,4386,4403,4423,4443,4463,4485,4503,4523,4543,4563,4584,4603,4624,4643,4663,4686,4704,4723,4743,4763,4783,4804,4824,4844,4864,4887,4905,4925,4944,4963,4986,5003,5024,5043,5069,5085,5103,5125,5143,5164,5185,5203,5224,5243,5264,5283,5303,5324,5343,5363,5386,5403,5424,5443,5463,5487,5504,5523,5543,5564,5584,5604,5624,5643,5663,5684,5703,5724,5744,5763,5786,5804,5823,5844,5863,5884,5904,5923,5943,5963,5988,6005,6023,6044,6071,6086,6105,6123,6143,6163,6183,6203,6223,6244,6263,6283,6304,6324,6343,6364,6385,6403,6423,6444,6463,6486,6503,6524,6544,6563,6584,6604,6623,6644,6663,6685,6703,6723,6743,6763,6786,6803,6823,6843],"xSR":350,"ySR":768,"xT1":30,"yT1":0,"xT2":670,"yT2":0,"toosoon":0,"cond_shown":"Incongruent","ratio_trial":100,"L_num":3,"L_den":5,"R_num":11,"R_den":22,"correct_side":1,"subjID":"43wm","gender":"No_gender","school":"No_school","age":"No_age"},{"start_time":1549381394904,"click_time":1549381397479,"finger_time":1549381396619,"fix_duration":943.132586905456,"trial":2,"RT":1715,"MT":860,"sideResp":1,"stimulus":[],"xmouse":[386.6669921875,386.6669921875,386.6669921875,390,390,390,390,390,390,390,390,390,390,389.3330078125,389.3330078125,389.3330078125,389.3330078125,389.3330078125,389.3330078125,389.3330078125,389.3330078125,389.3330078125,389.3330078125,386.6669921875,386.6669921875,386.6669921875,386.6669921875,386.6669921875,386.6669921875,386.6669921875,386.6669921875,386.6669921875,386.6669921875,385.3330078125,385.3330078125,385.3330078125,385.3330078125,385.3330078125,385.3330078125,385.3330078125,385.3330078125,385.3330078125,385.3330078125,386,386,386,386,386,386,386,386,386,386,385.3330078125,385.3330078125,385.3330078125,385.3330078125,385.3330078125,385.3330078125,385.3330078125,385.3330078125,385.3330078125,385.3330078125,384,384,384,384,384,384,384,384,384,384,383.3330078125,383,382.6669921875,382,382,380.6669921875,380,379.3330078125,378.6669921875,378,376.6669921875,376,374,373.3330078125,369,362.6669921875,356.6669921875,354,347.3330078125,342,328,324,318.6669921875,315.3330078125,308,298,290,285.3330078125,278,274.6669921875,261.3330078125,258,251.33299255371094,248,239,224.66700744628906,218.66700744628906,216,210,208,191,185.33299255371094,175.33299255371094,172,165.33299255371094,155.33299255371094,150,146,140,137.33299255371094,119.33300018310547,114.66699981689453,109.33300018310547,106.66699981689453,102,95.33300018310547],"ymouse":[799.3330078125,799.3330078125,799.3330078125,804,804,804,804,804,804,804,804,804,804,800.6669921875,800.6669921875,800.6669921875,800.6669921875,800.6669921875,800.6669921875,800.6669921875,800.6669921875,800.6669921875,800.6669921875,800.6669921875,800.6669921875,800.6669921875,800.6669921875,800.6669921875,800.6669921875,800.6669921875,800.6669921875,800.6669921875,800.6669921875,800.6669921875,800.6669921875,800.6669921875,800.6669921875,800.6669921875,800.6669921875,800.6669921875,800.6669921875,800.6669921875,800.6669921875,798,798,798,798,798,798,798,798,798,798,797.3330078125,797.3330078125,797.3330078125,797.3330078125,797.3330078125,797.3330078125,797.3330078125,797.3330078125,797.3330078125,797.3330078125,796,796,795,795,795,795,795,795,795,794,794.6669921875,794,793.3330078125,792,789,786.6669921875,784,783.3330078125,781.3330078125,776,772.6669921875,770,766,762.6669921875,756,742.6669921875,733.3330078125,728,715.3330078125,708,682,676,663.3330078125,654.6669921875,638,616,598,589.3330078125,572,562.6669921875,525.3330078125,516,497.3330078125,488,468,432.6669921875,416.6669921875,409,394,386,342,326.6669921875,299.3330078125,287,267.3330078125,243.3330078125,228,220,204,197.33299255371094,155.33299255371094,143.33299255371094,127.3330078125,120.6669921875,110,96.66699981689453],"timestamp_mouse":[14,49,54,74,94,114,135,154,174,195,214,234,254,275,294,315,335,354,375,395,414,434,455,475,494,514,534,555,574,594,614,635,654,674,694,714,735,754,774,795,815,834,854,874,894,914,934,955,974,994,1015,1034,1054,1076,1094,1114,1134,1155,1174,1194,1214,1235,1254,1274,1295,1316,1334,1355,1375,1394,1414,1434,1458,1476,1495,1514,1534,1558,1574,1595,1614,1635,1658,1676,1694,1714,1734,1755,1776,1794,1814,1835,1854,1874,1894,1914,1934,1955,1975,1994,2014,2034,2055,2075,2094,2115,2134,2155,2175,2194,2214,2235,2254,2275,2295,2314,2334,2355,2375,2395,2414,2434,2454,2475,2494,2514,2534,2554,2575],"xSR":350,"ySR":768,"xT1":30,"yT1":0,"xT2":670,"yT2":0,"toosoon":0,"cond_shown":"Incongruent","ratio_trial":100,"L_num":13,"L_den":26,"R_num":6,"R_den":10,"correct_side":2,"subjID":"43wm","gender":"No_gender","school":"No_school","age":"No_age"},{"start_time":1549381407874,"click_time":1549381410619,"finger_time":1549381409099,"fix_duration":1409.383770491678,"trial":3,"RT":1225,"MT":1520,"sideResp":1,"stimulus":[],"xmouse":[389.3330078125,389.3330078125,389.3330078125,389.3330078125,389.3330078125,389.3330078125,389.3330078125,389.3330078125,389.3330078125,389.3330078125,390,390,390,390,390,390,390,390,390,390,390.6669921875,390.6669921875,390.6669921875,390.6669921875,390.6669921875,390.6669921875,390.6669921875,390.6669921875,390.6669921875,390.6669921875,391.3330078125,391.3330078125,391.3330078125,391.3330078125,391.3330078125,391.3330078125,391.3330078125,391.3330078125,391.3330078125,391.3330078125,391.3330078125,391.3330078125,391.3330078125,391.3330078125,391.3330078125,391.3330078125,391.3330078125,391.3330078125,388,387.3330078125,386,384,383,382,379,377.3330078125,376,374,374,371.3330078125,370,369.3330078125,368.6669921875,368.6669921875,367,366.6669921875,366,366,365,364,362.6669921875,361.3330078125,360,360,358.6669921875,358,357.3330078125,355.3330078125,354.6669921875,352.6669921875,347.3330078125,343.3330078125,340.6669921875,336.6669921875,329,327.3330078125,322.6669921875,318,316,309,304,298,296,290.6669921875,280,276,269.3330078125,260,256.6669921875,244.66700744628906,236,228.66700744628906,225.33299255371094,217.33299255371094,207,204,199.33299255371094,194,191.33299255371094,184,180,178,174,170.66700744628906,165.33299255371094,164,160,156.66700744628906,155.33299255371094,150,148,146.66700744628906,144,140.66700744628906,139.33299255371094,135.33299255371094,132,130,126,120.66699981689453,116,114,110,106,104,99.33300018310547,96,95.33300018310547],"ymouse":[803.3330078125,803.3330078125,803.3330078125,803.3330078125,803.3330078125,803.3330078125,803.3330078125,803.3330078125,803.3330078125,803.3330078125,804,804,804,804,804,804,804,804,804,804,803.3330078125,803.3330078125,803.3330078125,803.3330078125,803.3330078125,803.3330078125,803.3330078125,803.3330078125,803.3330078125,803.3330078125,803.3330078125,803.3330078125,803.3330078125,803.3330078125,803.3330078125,803.3330078125,803.3330078125,803.3330078125,803.3330078125,803.3330078125,802.6669921875,802.6669921875,802.6669921875,802.6669921875,802.6669921875,802.6669921875,802.6669921875,802.6669921875,798,795.3330078125,793,791,790,786,782,778.6669921875,777,774,773,769.3330078125,768,766.6669921875,766.6669921875,765.3330078125,764,762.6669921875,762,760,760,758,755.3330078125,753.3330078125,752,750,746.6669921875,743,741.3330078125,737.3330078125,735.3330078125,730.6669921875,722.6669921875,715.3330078125,710.6669921875,701.3330078125,686,680.6669921875,670.6669921875,660,654,640,630,616,610,598.6669921875,576,568,552.6669921875,536,527.3330078125,502.6669921875,486,468.6669921875,461.3330078125,444.6669921875,422,416,404.6669921875,392,385.3330078125,368,359,354,346,337.3330078125,324.6669921875,320,311,302.6669921875,298.6669921875,286,277,273.3330078125,264,255.3330078125,250.6669921875,235.33299255371094,222,216,204,182.66700744628906,168,161,148,136,130,112.6669921875,102,97.33300018310547],"timestamp_mouse":[10,24,62,65,84,104,124,144,166,184,204,224,244,264,284,304,325,345,365,384,405,424,444,465,485,504,524,544,564,585,605,624,645,664,685,704,724,744,764,784,805,825,845,864,885,904,924,945,964,986,1005,1024,1044,1064,1085,1105,1125,1144,1164,1186,1205,1225,1244,1265,1287,1305,1325,1344,1364,1384,1404,1424,1444,1464,1487,1505,1525,1544,1564,1584,1605,1624,1644,1664,1686,1704,1724,1744,1765,1788,1804,1825,1845,1864,1886,1905,1924,1944,1964,1988,2004,2024,2045,2064,2087,2105,2125,2144,2164,2187,2204,2225,2244,2264,2287,2305,2325,2344,2365,2385,2405,2425,2445,2464,2484,2504,2524,2545,2564,2585,2605,2625,2645,2664,2685,2704,2724,2745],"xSR":350,"ySR":768,"xT1":30,"yT1":0,"xT2":670,"yT2":0,"toosoon":0,"cond_shown":"Congruent","ratio_trial":500,"L_num":8,"L_den":12,"R_num":1,"R_den":6,"correct_side":1,"subjID":"43wm","gender":"No_gender","school":"No_school","age":"No_age"},{"start_time":1549381412513,"click_time":1549381416016,"finger_time":1549381414199,"fix_duration":250,"trial":4,"RT":1686,"MT":1817,"sideResp":1,"stimulus":[],"xmouse":[402,402.6669921875,403.3330078125,403.3330078125,404,404,404,404,404.6669921875,404.6669921875,404.6669921875,404,404,404,405,405,405,405,404.6669921875,404.6669921875,404.6669921875,404.6669921875,404.6669921875,404.6669921875,404.6669921875,404.6669921875,404.6669921875,404.6669921875,404.6669921875,403.3330078125,403.3330078125,403.3330078125,403.3330078125,403.3330078125,403.3330078125,403.3330078125,403.3330078125,403.3330078125,403.3330078125,398,398,398,396,395.3330078125,395.3330078125,395.3330078125,395.3330078125,395.3330078125,396,396,396,396,396,396,396,396,396,396,396,396,396,396,396,396,396,396,396,396,396,394.6669921875,394.6669921875,394.6669921875,394,394,393.3330078125,392,392,391,390.6669921875,390,389,389.3330078125,388,387.3330078125,384.6669921875,383.3330078125,382,379,376,370,368,364,362,357.3330078125,350,346,344,340.6669921875,338,334,333,331.3330078125,330,327.3330078125,322.6669921875,319.3330078125,317.3330078125,312.6669921875,307.3330078125,304,292,290,285.3330078125,282,276.6669921875,272,268.6669921875,267.3330078125,263.3330078125,261.3330078125,256,252,247.33299255371094,245,236,230,224.66700744628906,222,218.66700744628906,214,213.33299255371094,211.33299255371094,209,208,206.66700744628906,204,202,200.66700744628906,198.66700744628906,195.33299255371094,192.66700744628906,192,190,188.66700744628906,186,184,182.66700744628906,182,180.66700744628906,177.33299255371094,175,174.66700744628906,172,170,164,162,158.66700744628906,156,152.66700744628906,146.66700744628906,143.33299255371094,141.33299255371094,138,136,129.33299255371094,128,124,122,116.66699981689453,110.66699981689453,105,103.33300018310547,98.66699981689453,96,86.66699981689453],"ymouse":[798,799.3330078125,799.3330078125,799.3330078125,800,800,800,801,801.3330078125,801.3330078125,801.3330078125,802,802,802,802,802,802,802,800.6669921875,799.3330078125,799.3330078125,799.3330078125,799.3330078125,799.3330078125,799.3330078125,799.3330078125,799.3330078125,799.3330078125,799.3330078125,793.3330078125,793.3330078125,793.3330078125,793.3330078125,793.3330078125,793.3330078125,793.3330078125,793.3330078125,793.3330078125,793.3330078125,791,791,791,791,790.6669921875,790.6669921875,790.6669921875,790.6669921875,790.6669921875,790,790,790,790,790,790,790,790,790,790,790,788,788,788,788,788,788,788,788,788,788,787.3330078125,787.3330078125,787.3330078125,787,786,786.6669921875,786,785,784,782.6669921875,779,776,773.3330078125,772,769.3330078125,765.3330078125,760.6669921875,758,752,745,736,732,725,722,714.6669921875,704,698,695,690.6669921875,686,680,678,673.3330078125,670,664.6669921875,655.3330078125,648.6669921875,644.6669921875,634.6669921875,625.3330078125,619,596,590,580.6669921875,576,562.6669921875,554,546.6669921875,542.6669921875,535.3330078125,531.3330078125,520,512,502.6669921875,498,479,466,455.3330078125,450,440.6669921875,431,428.6669921875,424.6669921875,420,418,413.3330078125,406,400,398.6669921875,393.3330078125,384.6669921875,378.6669921875,376,371,369.3330078125,363,360,355.3330078125,353,349.3330078125,342.6669921875,338,334.6669921875,328,325,310,306,297.3330078125,292,281.3330078125,264.6669921875,254.6669921875,249.3330078125,238,234,213.33299255371094,208,196,190,172.66700744628906,155.33299255371094,140,133.33299255371094,119.3330078125,112,83.33300018310547],"timestamp_mouse":[16,25,63,66,85,105,125,145,165,186,206,225,246,265,285,306,328,346,370,385,406,425,446,466,485,505,526,545,566,588,606,625,646,669,686,705,725,745,766,786,806,825,845,865,885,906,925,945,966,986,1006,1026,1046,1066,1085,1105,1125,1145,1166,1185,1206,1226,1245,1265,1285,1305,1325,1345,1365,1386,1406,1425,1445,1465,1486,1505,1525,1545,1566,1585,1605,1625,1645,1665,1686,1706,1726,1745,1765,1787,1805,1825,1845,1866,1886,1906,1925,1945,1966,1986,2006,2025,2045,2065,2089,2105,2125,2145,2165,2186,2207,2225,2245,2266,2290,2305,2325,2345,2365,2386,2405,2426,2446,2465,2487,2506,2527,2546,2565,2586,2605,2627,2645,2666,2686,2706,2726,2745,2766,2788,2808,2825,2846,2866,2887,2907,2925,2945,2965,2988,3006,3025,3045,3065,3088,3106,3126,3145,3165,3187,3205,3225,3245,3266,3288,3305,3325,3345,3365,3387,3405,3425,3446,3466,3503],"xSR":350,"ySR":768,"xT1":30,"yT1":0,"xT2":670,"yT2":0,"toosoon":0,"cond_shown":"Congruent","ratio_trial":200,"L_num":4,"L_den":10,"R_num":3,"R_den":15,"correct_side":1,"subjID":"43wm","gender":"No_gender","school":"No_school","age":"No_age"},{"start_time":1549381418211,"click_time":1549381420199,"finger_time":1549381419458,"fix_duration":250,"trial":5,"RT":1247,"MT":741,"sideResp":2,"stimulus":[],"xmouse":[378.6669921875,378.6669921875,378.6669921875,378.6669921875,378.6669921875,376,376,376,376,376,376,376,376,376,376,374,374.6669921875,374,374.6669921875,374,374,373.3330078125,373.3330078125,373.3330078125,372.6669921875,372.6669921875,372.6669921875,372.6669921875,372.6669921875,372.6669921875,372.6669921875,372.6669921875,372.6669921875,372.6669921875,373,374,374,374,374,374,374,374,374,374,376,376,376,376,376,376,380.6669921875,381.3330078125,383,383,385.3330078125,386.6669921875,388,388,389,390.6669921875,392,392,394,396,396.6669921875,399.3330078125,404,406,410,412.6669921875,421.3330078125,423,428,431,442,462,470,472.6669921875,478,480.6669921875,502,509.3330078125,522,525,533.3330078125,550,563.3330078125,568.6669921875,582,596,622.6669921875,630,644.6669921875,656,660,676,683.3330078125,686.6669921875,698],"ymouse":[817.3330078125,817.3330078125,817.3330078125,817.3330078125,817.3330078125,818,818,817,817,817,817,817,817,817,817,822,823.3330078125,824,824.6669921875,824,825,825.3330078125,824.6669921875,824.6669921875,824.6669921875,824.6669921875,824.6669921875,824.6669921875,824.6669921875,824.6669921875,824.6669921875,824.6669921875,824.6669921875,824.6669921875,826,826,825,825,825,825,825,825,825,825,816,816,816,816,816,816,796.6669921875,794.6669921875,790,788,783.3330078125,781.3330078125,779,778,776,771.3330078125,768,766,762,757,754.6669921875,748.6669921875,736,732,723,718.6669921875,699.3330078125,694,684,678,657,618,602,597.3330078125,584,577.3330078125,528,512.6669921875,487,478,461.3330078125,422,391.3330078125,375.3330078125,346,316,265.3330078125,248,221.33299255371094,196,184,146,122.6669921875,113.3330078125,93],"timestamp_mouse":[8,54,68,88,107,128,148,167,187,207,227,247,268,287,308,328,348,368,387,408,427,447,467,488,507,527,548,567,588,608,627,648,668,687,707,728,747,768,787,808,830,847,868,887,907,930,947,967,987,1008,1028,1047,1067,1087,1111,1127,1148,1167,1188,1211,1230,1247,1269,1293,1308,1327,1348,1367,1387,1407,1429,1447,1468,1487,1507,1530,1548,1567,1588,1607,1630,1648,1667,1688,1708,1730,1748,1767,1787,1807,1828,1848,1867,1888,1909,1928,1947,1967,1987],"xSR":350,"ySR":768,"xT1":30,"yT1":0,"xT2":670,"yT2":0,"toosoon":0,"cond_shown":"Congruent","ratio_trial":500,"L_num":2,"L_den":8,"R_num":21,"R_den":28,"correct_side":2,"subjID":"43wm","gender":"No_gender","school":"No_school","age":"No_age"},{"start_time":1549381422908,"click_time":1549381425639,"finger_time":1549381424479,"fix_duration":1047.9463243385276,"trial":6,"RT":1571,"MT":1160,"sideResp":2,"stimulus":[],"xmouse":[397.3330078125,397.3330078125,397.3330078125,397.3330078125,392,392,391,390,390,390,390,389.3330078125,389.3330078125,389.3330078125,388.6669921875,388.6669921875,388.6669921875,388,388,388,388,388,388,388,388,388,388,388,388,388,388,388,388,388,388,388,388,389,390,390,390,390,390,390,390,390,390,390,393.3330078125,393.3330078125,393.3330078125,393.3330078125,393.3330078125,393.3330078125,393.3330078125,393.3330078125,393.3330078125,393.3330078125,394.6669921875,394.6669921875,394.6669921875,394.6669921875,394.6669921875,394.6669921875,394.6669921875,394.6669921875,394.6669921875,394.6669921875,395.3330078125,395.3330078125,395.3330078125,395.3330078125,395.3330078125,395.3330078125,395.3330078125,395.3330078125,395.3330078125,400,402,403.3330078125,404,405.3330078125,408,410,410.6669921875,412.6669921875,414.6669921875,415,418,419.3330078125,420,422,424,429,432.6669921875,434,438,441.3330078125,448,454,459,462,468,478.6669921875,486,491.3330078125,500,506.6669921875,516.6669921875,519.3330078125,524,526,530,537.3330078125,541.3330078125,543,548,556.6669921875,574.6669921875,579.3330078125,586,589,592,606.6669921875,623.3330078125,638,642,650,659.3330078125,662,669.3330078125,677.3330078125,680.6669921875,688,692.6669921875,698.6669921875,702],"ymouse":[786.6669921875,786.6669921875,786.6669921875,786.6669921875,787,788,788,788,788,789,789,789.3330078125,788.6669921875,788.6669921875,788.6669921875,788.6669921875,788.6669921875,788,788,788,788,788,788,788,788,788,788,788,787,787,787,787,787,787,787,787,787,788,788,788,788,788,788,788,788,788,788,788,785.3330078125,785.3330078125,785.3330078125,785.3330078125,785.3330078125,785.3330078125,785.3330078125,785.3330078125,785.3330078125,785.3330078125,782.6669921875,782.6669921875,782.6669921875,782.6669921875,782.6669921875,782.6669921875,782.6669921875,782.6669921875,782.6669921875,782.6669921875,781.3330078125,781.3330078125,781.3330078125,781.3330078125,781.3330078125,781.3330078125,781.3330078125,781.3330078125,781.3330078125,769,764,759.3330078125,756,750.6669921875,742,736,733.3330078125,727.3330078125,722.6669921875,720,713,709.3330078125,704,700,694,682,672.6669921875,668,658,653.3330078125,638,627,616,610,598,577.3330078125,562,553.3330078125,537,525.3330078125,507.3330078125,501.3330078125,491,486,476,461.3330078125,451.3330078125,446,434,417.3330078125,380.6669921875,371.3330078125,358,350,344,309.3330078125,271.3330078125,242,232,214,187.33299255371094,178,161.33299255371094,144.66700744628906,138.66700744628906,123,114.6669921875,104.66699981689453,98],"timestamp_mouse":[12,42,52,70,90,110,130,151,170,191,211,231,250,270,290,310,330,352,371,391,410,430,450,470,490,511,531,552,576,591,610,631,650,670,691,711,730,751,772,791,810,830,850,870,891,910,930,951,972,990,1010,1030,1051,1071,1090,1110,1131,1150,1173,1190,1211,1230,1250,1271,1290,1310,1330,1351,1370,1391,1410,1432,1450,1473,1491,1510,1531,1550,1571,1591,1612,1630,1652,1671,1691,1711,1730,1751,1770,1790,1810,1831,1850,1871,1890,1910,1931,1951,1973,1990,2010,2030,2051,2074,2090,2110,2131,2150,2172,2191,2210,2230,2251,2271,2290,2311,2330,2350,2371,2390,2411,2430,2450,2471,2490,2510,2531,2551,2571,2591,2610,2630,2651,2672,2691,2710,2730],"xSR":350,"ySR":768,"xT1":30,"yT1":0,"xT2":670,"yT2":0,"toosoon":0,"cond_shown":"Incongruent","ratio_trial":200,"L_num":7,"L_den":15,"R_num":6,"R_den":9,"correct_side":2,"subjID":"43wm","gender":"No_gender","school":"No_school","age":"No_age"},{"start_time":1549381429251,"click_time":1549381431219,"finger_time":1549381430578,"fix_duration":449.63189220055654,"trial":7,"RT":1327,"MT":641,"sideResp":1,"stimulus":[],"xmouse":[386,386,386,386,386,386,386,386,386,386,386,386,386,386,386,386,386,384.6669921875,384.6669921875,384.6669921875,384.6669921875,384.6669921875,384.6669921875,384.6669921875,384.6669921875,384.6669921875,384,384,384,384,384,384,384,384,384,384,384,384,384,384,384,384,384,384,383.3330078125,384,383.3330078125,383.3330078125,383.3330078125,383,383,383.3330078125,383,382.6669921875,382.6669921875,382,382.6669921875,382,382,381.3330078125,381,380.6669921875,380,378.6669921875,378.6669921875,377.3330078125,376,374,373,372,370.6669921875,369.3330078125,364.6669921875,356.6669921875,352.6669921875,345.3330078125,340,327.3330078125,322,311.3330078125,304.6669921875,293,274,262.6669921875,258,247,237,221.33299255371094,215,205.33299255371094,200,188,169,156,152,143,132.66700744628906,121.33300018310547],"ymouse":[813,813,813,813,813,813,812,812,812,812,812,812,812,812,812,812,812,808.6669921875,808.6669921875,808.6669921875,808.6669921875,808.6669921875,808.6669921875,808.6669921875,808.6669921875,808.6669921875,806,806,805,805,805,805,805,804,804,804,804,804,804,803,802,802,802,802,801.3330078125,801,801.3330078125,800.6669921875,800.6669921875,800,800,799.3330078125,798,796.6669921875,795.3330078125,794,791.3330078125,789,788,787.3330078125,786,783.3330078125,778,773.3330078125,771.3330078125,766.6669921875,764,756,754,750,746.6669921875,740.6669921875,723.3330078125,696.6669921875,683.3330078125,659.3330078125,641,601.3330078125,585,552.6669921875,535.3330078125,500,442,405.3330078125,389,354,322,275.3330078125,260,232.66700744628906,219,192,158,138,134,118,103.33300018310547,84.66699981689453],"timestamp_mouse":[47,48,67,87,107,127,150,167,188,208,227,249,268,287,308,328,348,368,388,407,427,449,468,487,507,528,547,567,588,607,627,647,667,688,707,728,750,767,787,808,828,848,867,887,907,928,947,968,987,1007,1027,1048,1068,1088,1107,1127,1150,1168,1187,1207,1227,1247,1268,1287,1307,1327,1347,1370,1387,1407,1427,1448,1468,1487,1507,1528,1547,1568,1588,1607,1628,1648,1667,1688,1708,1727,1748,1767,1787,1807,1827,1848,1868,1887,1907,1927,1947,1968],"xSR":350,"ySR":768,"xT1":30,"yT1":0,"xT2":670,"yT2":0,"toosoon":0,"cond_shown":"Congruent","ratio_trial":300,"L_num":20,"L_den":25,"R_num":13,"R_den":26,"correct_side":1,"subjID":"43wm","gender":"No_gender","school":"No_school","age":"No_age"},{"start_time":1549381433332,"click_time":1549381435460,"finger_time":1549381434819,"fix_duration":250,"trial":8,"RT":1487,"MT":641,"sideResp":1,"stimulus":[],"xmouse":[393.3330078125,393.3330078125,394,394,394,394,394,394,394,394,394,394,389,389,389,389,389,389,389,389,389,389,388,388,386.6669921875,386,386,385,384.6669921875,384,383.3330078125,384,384,384,384.6669921875,385.3330078125,386,387,387,387,387,387,387,387,387,387,387,386.6669921875,386.6669921875,386.6669921875,386.6669921875,386.6669921875,386.6669921875,386.6669921875,383.3330078125,383.3330078125,383.3330078125,384,384,384,383.3330078125,383.3330078125,382,382,380,380,379.3330078125,378,376,374.6669921875,374,372,371,369.3330078125,364.6669921875,362,360,356,350,339.3330078125,336,328,320,314.6669921875,300.6669921875,282.6669921875,275.3330078125,270,259.3330078125,242.66700744628906,237.33299255371094,226,214.66700744628906,208.66700744628906,190,180,175.33299255371094,166,162,151.33299255371094,136.66700744628906,127,122.66699981689453,114,101.33300018310547,92.66699981689453],"ymouse":[828.6669921875,828.6669921875,824,824,824,824,824,824,824,824,824,824,826,826,826,826,826,826,826,826,826,826,814,814,810.6669921875,809,809,808,807.3330078125,806,805.3330078125,805,804,804,803.3330078125,803.3330078125,804,804,804,804,804,804,804,804,804,804,804,809.3330078125,809.3330078125,809.3330078125,809.3330078125,809.3330078125,809.3330078125,809.3330078125,801.3330078125,800.6669921875,800.6669921875,800,800,799,799.3330078125,798.6669921875,798,796,794,792,790.6669921875,787,784,777.3330078125,775,770,768,762.6669921875,752.6669921875,745,742,732,717,690.6669921875,681,660,641,628.6669921875,597.3330078125,558.6669921875,538.6669921875,527,503.3330078125,463.3330078125,450.6669921875,425,400.6669921875,389.3330078125,348,318,305.3330078125,281,269,244.6669921875,208.66700744628906,184,171.33299255371094,147,109.33300018310547,84.66699981689453],"timestamp_mouse":[13,48,66,86,106,126,146,167,186,206,226,246,267,286,309,326,346,366,386,407,426,446,466,486,508,527,546,567,586,606,628,646,667,686,707,727,746,766,787,807,826,846,866,887,910,926,947,967,986,1008,1028,1047,1067,1087,1108,1127,1147,1166,1186,1208,1226,1247,1267,1286,1308,1326,1346,1366,1387,1408,1426,1447,1466,1486,1510,1527,1546,1566,1586,1610,1627,1646,1667,1687,1707,1727,1746,1766,1787,1807,1826,1846,1866,1886,1909,1926,1947,1966,1986,2007,2028,2047,2066,2086,2108,2128],"xSR":350,"ySR":768,"xT1":30,"yT1":0,"xT2":670,"yT2":0,"toosoon":0,"cond_shown":"Incongruent","ratio_trial":300,"L_num":8,"L_den":10,"R_num":9,"R_den":18,"correct_side":1,"subjID":"43wm","gender":"No_gender","school":"No_school","age":"No_age"},{"start_time":1549381437798,"click_time":1549381440559,"finger_time":1549381439439,"fix_duration":897.7581195547918,"trial":9,"RT":1641,"MT":1120,"sideResp":2,"stimulus":[],"xmouse":[394.6669921875,394.6669921875,394.6669921875,394,394,394,394,394,394,394,394.6669921875,395.3330078125,395.3330078125,396,396,396,395.3330078125,394.6669921875,394,393,393.3330078125,392.6669921875,392,392,392,392,392,392,392,392,392,392,392,392,392,392,392,392,392,392,392,392,392,392,392,392,392,392,392,392,392,393.3330078125,394,395.3330078125,395,395.3330078125,395.3330078125,395,395.3330078125,396,396,396,396,396,396,396.6669921875,396.6669921875,396.6669921875,397,397.3330078125,398,397,397,397.3330078125,398,398,398,398,398,398.6669921875,398.6669921875,399.3330078125,399.3330078125,400,400,400,401.3330078125,402.6669921875,403,404,405.3330078125,406,407,408,411.3330078125,412.6669921875,414.6669921875,416.6669921875,417,420.6669921875,422,424,426,432,442.6669921875,446,448,452,453.3330078125,460,472,476,476,490.6669921875,502.6669921875,507,514,516.6669921875,532.6669921875,539.3330078125,553.3330078125,562,566,582.6669921875,596,602.6669921875,615.3330078125,624,635.3330078125,638,645,648.6669921875,650.6669921875,656.6669921875,661.3330078125,663.3330078125,668.6669921875,674.6669921875],"ymouse":[826.6669921875,826.6669921875,826.6669921875,822,822,822,822,822,822,822,822.6669921875,823.3330078125,823.3330078125,822,822,822,820.6669921875,819.3330078125,817,816,815.3330078125,814.6669921875,814,812,811,811,811,811,811,811,811,812,812,812,812,812,812,812,812,812,812,812,812,812,812,812,812,812,812,812,812,806.6669921875,804,801.3330078125,800,799.3330078125,798.6669921875,798,797.3330078125,796,794,794,792,792,791,791.3330078125,791.3330078125,790.6669921875,790,788.6669921875,786,786,784,783.3330078125,780,778,777,776,774,772.6669921875,772.6669921875,769.3330078125,767.3330078125,764,760,758,753.3330078125,748.6669921875,746,738,732.6669921875,730,724,718,708.6669921875,705.3330078125,698.6669921875,691.3330078125,688,675.3330078125,666,656,650,630,600.6669921875,589,583,571,564.6669921875,540,509,496,496,457.3330078125,431.3330078125,422,407,400.6669921875,366.6669921875,350.6669921875,321.3330078125,304,296,262.6669921875,237,224.66700744628906,201.33299255371094,186,163.33299255371094,158,146,138.66700744628906,135.33299255371094,123.3330078125,115.3330078125,111.33300018310547,103.33300018310547,94.66699981689453],"timestamp_mouse":[2,20,54,61,81,100,121,140,160,180,200,220,240,261,280,301,320,341,362,381,401,420,440,463,480,501,520,541,560,580,600,620,640,660,680,700,720,740,761,780,800,820,841,861,882,900,920,940,960,981,1000,1020,1040,1064,1082,1101,1120,1140,1161,1180,1200,1220,1241,1260,1280,1300,1320,1340,1361,1384,1401,1420,1440,1460,1480,1501,1520,1541,1563,1597,1600,1621,1641,1661,1680,1701,1720,1741,1761,1783,1800,1820,1840,1860,1880,1901,1920,1940,1960,1983,2000,2021,2040,2060,2081,2101,2120,2141,2160,2182,2221,2242,2261,2284,2300,2321,2341,2360,2386,2401,2422,2440,2460,2480,2500,2520,2541,2560,2580,2600,2620,2641,2660,2682,2700,2721,2740,2760],"xSR":350,"ySR":768,"xT1":30,"yT1":0,"xT2":670,"yT2":0,"toosoon":0,"cond_shown":"Incongruent","ratio_trial":200,"L_num":7,"L_den":10,"R_num":14,"R_den":28,"correct_side":1,"subjID":"43wm","gender":"No_gender","school":"No_school","age":"No_age"},{"start_time":1549381443441,"click_time":1549381446278,"finger_time":1549381445198,"fix_duration":741.9104513186035,"trial":10,"RT":1757,"MT":1080,"sideResp":1,"stimulus":[],"xmouse":[383.3330078125,384,386,386,387.3330078125,387.3330078125,387.3330078125,387.3330078125,387.3330078125,387.3330078125,387.3330078125,387.3330078125,387.3330078125,387.3330078125,387.3330078125,387.3330078125,384,383.3330078125,383.3330078125,383.3330078125,383.3330078125,383.3330078125,383.3330078125,383.3330078125,383.3330078125,383.3330078125,383.3330078125,376.6669921875,376,376,375.3330078125,375.3330078125,375,374.6669921875,374.6669921875,374.6669921875,374.6669921875,373.3330078125,373.3330078125,373.3330078125,373.3330078125,373.3330078125,373.3330078125,373.3330078125,373.3330078125,373.3330078125,373.3330078125,376,376,376,376,376,376,376,375.3330078125,375,375.3330078125,374.6669921875,374.6669921875,374,374,374,374.6669921875,374.6669921875,374.6669921875,374.6669921875,374,374.6669921875,374.6669921875,374,374,374,374,374,374,374,373.3330078125,373,372,372.6669921875,372,372,372,373.3330078125,374,376,376,378,378,378,377.3330078125,376.6669921875,376.6669921875,374,372,370,369,367.3330078125,365.3330078125,364.6669921875,363.3330078125,362,362,360,359.3330078125,358.6669921875,358,357.3330078125,354,352.6669921875,351,349.3330078125,348,340.6669921875,338.6669921875,334.6669921875,332,326,316,306,301.3330078125,290,280,267.3330078125,262.6669921875,254,248,237.33299255371094,221,212,208,198,188.66700744628906,177,174,166,163,156,145.33299255371094,138,135,128],"ymouse":[800.6669921875,799,798,798,798.6669921875,798.6669921875,798.6669921875,798.6669921875,799.3330078125,799.3330078125,799.3330078125,799.3330078125,799.3330078125,799.3330078125,799.3330078125,799.3330078125,804,804.6669921875,804.6669921875,804.6669921875,804.6669921875,804.6669921875,804.6669921875,804.6669921875,804.6669921875,804.6669921875,804.6669921875,794.6669921875,793,792,791.3330078125,790.6669921875,790,790.6669921875,790.6669921875,790.6669921875,790.6669921875,792.6669921875,792.6669921875,792.6669921875,792.6669921875,792.6669921875,792.6669921875,792.6669921875,792.6669921875,792.6669921875,792.6669921875,793,793,793,793,793,793,793,788.6669921875,788,787.3330078125,786.6669921875,786.6669921875,786,786,786,785.3330078125,785.3330078125,784.6669921875,784.6669921875,784,783.3330078125,783.3330078125,782,782,782,780,779,778,778,777.3330078125,776,774,773.3330078125,772,770,770,768.6669921875,768,768,768,767,766,765,762.6669921875,759.3330078125,757.3330078125,750,746,742,740,736.6669921875,731.3330078125,729.3330078125,725.3330078125,722,720,716,713.3330078125,710.6669921875,709,705.3330078125,698,692.6669921875,690,684.6669921875,680,659.3330078125,652.6669921875,638.6669921875,630,614,586,562,549.3330078125,522,494,452.6669921875,438.6669921875,414,402,373.3330078125,332,308,296,270,243.3330078125,210,200,180,168,148,123.3330078125,109,102,86],"timestamp_mouse":[17,41,58,77,97,117,137,157,177,198,218,237,257,277,298,317,337,359,377,397,417,437,458,477,497,517,537,560,579,597,617,638,658,681,698,718,738,758,777,798,817,837,857,877,897,917,937,957,978,997,1017,1037,1058,1078,1097,1117,1137,1163,1177,1197,1217,1238,1257,1278,1297,1317,1337,1358,1378,1397,1418,1437,1458,1477,1498,1517,1537,1558,1578,1597,1618,1637,1658,1679,1697,1717,1737,1757,1777,1798,1817,1838,1858,1878,1897,1917,1937,1957,1977,1997,2017,2038,2058,2078,2097,2118,2137,2157,2178,2197,2217,2237,2257,2279,2297,2318,2337,2357,2378,2397,2417,2438,2457,2478,2499,2517,2537,2557,2578,2597,2617,2637,2657,2679,2697,2717,2738,2757,2779,2797,2817,2837],"xSR":350,"ySR":768,"xT1":30,"yT1":0,"xT2":670,"yT2":0,"toosoon":0,"cond_shown":"Congruent","ratio_trial":100,"L_num":6,"L_den":20,"R_num":5,"R_den":25,"correct_side":1,"subjID":"43wm","gender":"No_gender","school":"No_school","age":"No_age"},{"start_time":1549381448306,"click_time":1549381451759,"finger_time":1549381450018,"fix_duration":384.30809786228235,"trial":11,"RT":1712,"MT":1741,"sideResp":1,"stimulus":[],"xmouse":[407,407,406.6669921875,406,406.6669921875,406,406,406,406,406,406,406,406,406,406,404.6669921875,404.6669921875,404.6669921875,404.6669921875,404.6669921875,404.6669921875,404.6669921875,404.6669921875,404.6669921875,404.6669921875,404,404,404,404,404,404,404,404,404,404,404,404,404,404,404,404,404,404,404,404.6669921875,404,404.6669921875,405,405,405,406,406,406,406,407,407,408,408,408,408.6669921875,409,409,409,409,409,409,411.3330078125,412,412,412,412,412.6669921875,413.3330078125,413.3330078125,414.6669921875,416,417.3330078125,418,418,419.3330078125,420,422.6669921875,424,425,426.6669921875,428,430,430.6669921875,431.3330078125,432,432.6669921875,434,434.6669921875,434.6669921875,434.6669921875,434.6669921875,435.3330078125,435.3330078125,435,435,434,434.6669921875,434.6669921875,434.6669921875,434.6669921875,434.6669921875,434.6669921875,434.6669921875,426,426,426,423.3330078125,423.3330078125,423.3330078125,422,421.3330078125,420.6669921875,420.6669921875,420,419.3330078125,418,416,414,410.6669921875,409,406.6669921875,402,400,396,393,390,388,382,378,376.6669921875,373.3330078125,372,365,364,360,357.3330078125,346,342,334,330.6669921875,323.3330078125,312,304,300,292.6669921875,288.6669921875,280,268,259.3330078125,255.3330078125,244,224.66700744628906,212,207.33299255371094,197.33299255371094,192,176,168,159.33299255371094,154.66700744628906,147.33299255371094,137,134.66700744628906,130.66700744628906,126,124,116],"ymouse":[824,824,827.3330078125,828,829.3330078125,830,830,830,830,830,830,830,830,830,830,833.3330078125,833.3330078125,833.3330078125,833.3330078125,833.3330078125,833.3330078125,833.3330078125,833.3330078125,833.3330078125,833.3330078125,828,828,828,828,828,828,828,828,828,828,828,828,826,826,826,826,825,825,824,824.6669921875,824,823.3330078125,822,822,822,820,820,820,820,818,816,814,814,814,812.6669921875,812,812,812,812,812,812,808.6669921875,808,808,808,806,804.6669921875,802.6669921875,801.3330078125,798.6669921875,793,789.3330078125,788,784,782.6669921875,778,773.3330078125,769,768,764.6669921875,762,758,757.3330078125,754.6669921875,754,751.3330078125,747,744.6669921875,743.3330078125,741.3330078125,739.3330078125,737.3330078125,737.3330078125,736,736,736,736.6669921875,736.6669921875,736.6669921875,736.6669921875,736.6669921875,736.6669921875,736.6669921875,742,742,742,739.3330078125,739.3330078125,739.3330078125,734,733.3330078125,731.3330078125,730.6669921875,728,725.3330078125,724,717,712,706.6669921875,704,698.6669921875,690,687,682,676,670,666,658,652,649.3330078125,643.3330078125,640,626,622,613,608.6669921875,587,580,562,555.3330078125,539.3330078125,512,494,484,467.3330078125,458.6669921875,440,412,391.3330078125,381.3330078125,358,313.3330078125,288,276.6669921875,255.3330078125,244,210,193,176.66700744628906,168.66700744628906,152.66700744628906,134,127.3330078125,119.3330078125,111,106,90],"timestamp_mouse":[51,52,72,92,113,133,152,172,192,212,232,252,272,292,313,332,352,373,393,412,432,453,473,493,513,539,555,572,592,612,633,652,673,693,712,732,752,773,792,813,832,852,872,892,912,932,953,973,993,1013,1034,1053,1072,1092,1113,1134,1156,1172,1193,1212,1232,1255,1272,1293,1312,1333,1352,1374,1393,1413,1432,1453,1472,1492,1512,1536,1553,1573,1592,1613,1632,1654,1672,1693,1712,1733,1755,1772,1792,1812,1832,1855,1872,1892,1913,1932,1957,1972,1992,2013,2032,2053,2073,2093,2113,2132,2155,2173,2193,2212,2232,2254,2273,2292,2313,2332,2359,2372,2392,2413,2432,2453,2473,2492,2512,2532,2553,2573,2592,2612,2632,2652,2674,2693,2712,2732,2752,2774,2792,2813,2832,2856,2873,2894,2913,2932,2956,2973,2992,3012,3032,3053,3072,3093,3113,3134,3153,3173,3192,3212,3232,3256,3272,3292,3313,3332,3352,3372,3392,3412,3432,3453],"xSR":350,"ySR":768,"xT1":30,"yT1":0,"xT2":670,"yT2":0,"toosoon":0,"cond_shown":"Incongruent","ratio_trial":200,"L_num":4,"L_den":30,"R_num":1,"R_den":3,"correct_side":2,"subjID":"43wm","gender":"No_gender","school":"No_school","age":"No_age"},{"start_time":1549381455153,"click_time":1549381457039,"finger_time":1549381456079,"fix_duration":1429.726627327001,"trial":12,"RT":926,"MT":960,"sideResp":2,"stimulus":[],"xmouse":[386.6669921875,386.6669921875,386.6669921875,386.6669921875,388.6669921875,388.6669921875,388.6669921875,388.6669921875,388.6669921875,388.6669921875,388.6669921875,388.6669921875,388.6669921875,388.6669921875,391.3330078125,391.3330078125,391.3330078125,391.3330078125,391.3330078125,391.3330078125,391.3330078125,391.3330078125,391.3330078125,391.3330078125,388,388,388,388,388,388,388,388,388,388,388,388,388,388,388,388,388,390.6669921875,391.3330078125,393.3330078125,396,397.3330078125,399.3330078125,400,400,402.6669921875,405,410.6669921875,412.6669921875,416,420,424,444,449,456,458,461.3330078125,469.3330078125,472,478,485,488.6669921875,498,504.6669921875,512,516,527.3330078125,549.3330078125,558.6669921875,562.6669921875,566,569.3330078125,582,588,600.6669921875,606,616.6669921875,626,630,632,636.6669921875,642,648.6669921875,652,656,662,664,673.3330078125,679.3330078125,684],"ymouse":[802.6669921875,802.6669921875,802.6669921875,802.6669921875,796.6669921875,796.6669921875,796.6669921875,796.6669921875,796.6669921875,796.6669921875,796.6669921875,796.6669921875,796.6669921875,796.6669921875,790.6669921875,790.6669921875,790.6669921875,790.6669921875,790.6669921875,790.6669921875,790.6669921875,790.6669921875,790.6669921875,790.6669921875,792,792,792,792,792,792,792,792,792,792,792,792,792,792,792,792,792,784.6669921875,782.6669921875,777.3330078125,771,767.3330078125,757.3330078125,751,748,740.6669921875,734,721.3330078125,717.3330078125,708,698,691,639,628,611,606,598.6669921875,578.6669921875,571,556,540,531.3330078125,510,496.6669921875,481,472,451.3330078125,408.6669921875,389.3330078125,381.3330078125,372,366.6669921875,337,324,296.6669921875,284,262.6669921875,242,231,226,214.66700744628906,201,183.33299255371094,174,162,148,142,122.6669921875,111.33300018310547,99],"timestamp_mouse":[6,46,65,85,105,125,146,165,186,205,225,245,266,286,305,325,345,365,385,405,427,445,465,485,506,525,545,566,586,605,625,646,665,685,705,725,746,765,785,805,826,846,866,886,905,926,947,966,986,1005,1025,1045,1065,1085,1106,1126,1149,1165,1185,1206,1226,1246,1265,1285,1305,1326,1347,1365,1385,1405,1425,1448,1465,1485,1505,1525,1546,1566,1585,1605,1625,1645,1665,1685,1705,1726,1746,1766,1786,1805,1826,1846,1866,1885],"xSR":350,"ySR":768,"xT1":30,"yT1":0,"xT2":670,"yT2":0,"toosoon":0,"cond_shown":"Congruent","ratio_trial":300,"L_num":1,"L_den":3,"R_num":19,"R_den":30,"correct_side":2,"subjID":"43wm","gender":"No_gender","school":"No_school","age":"No_age"},{"start_time":1549381459130,"click_time":1549381461599,"finger_time":1549381460678,"fix_duration":349.98671838704996,"trial":13,"RT":1548,"MT":921,"sideResp":1,"stimulus":[],"xmouse":[388,388,387.3330078125,387,387,387.3330078125,387.3330078125,387,386,386,386,386,386,386,381.3330078125,382,382,382,382,382,382,382,382,382.6669921875,382.6669921875,381,381,381,381,381,381,381,381,381,381,380.6669921875,380.6669921875,380.6669921875,380.6669921875,380.6669921875,379,379,379,379,379,379.3330078125,379.3330078125,379.3330078125,379.3330078125,379.3330078125,379.3330078125,377.3330078125,377,377,377,376.6669921875,376.6669921875,376.6669921875,376.6669921875,376.6669921875,376.6669921875,376.6669921875,376.6669921875,376.6669921875,376.6669921875,376,376,376,376,376,376,376,376,376,374,374,374,484.6669921875,485.3330078125,487,500.6669921875,500.6669921875,373,373,374.6669921875,375.3330078125,555.3330078125,558.6669921875,564.6669921875,566,569.3330078125,571.3330078125,572,573,574,574.6669921875,574.6669921875,574.6669921875,574.6669921875,574.6669921875,574.6669921875,356,353.3330078125,348.6669921875,334.6669921875,320,312,296,289.3330078125,272,244.66700744628906,227.33299255371094,218,202,177,160,152,137.33299255371094,130,118.66699981689453,102.66699981689453,92,87.33300018310547,75],"ymouse":[806,806,802.6669921875,802,800,799.3330078125,799.3330078125,798,798,798,798,798,798,798,797.3330078125,800,800,800,800,800,800,800,800,814.6669921875,814.6669921875,812,812,812,812,812,812,812,812,812,812,813.3330078125,813.3330078125,813.3330078125,813.3330078125,813.3330078125,812,812,812,812,812,809.3330078125,809.3330078125,809.3330078125,809.3330078125,809.3330078125,809.3330078125,808.6669921875,808,808,808,806.6669921875,806.6669921875,806.6669921875,806.6669921875,806.6669921875,806.6669921875,806.6669921875,806.6669921875,806.6669921875,806.6669921875,802,802,802,802,802,802,802,802,802,798,798,797,1082.6669921875,1081.3330078125,1078,1064.6669921875,1064.6669921875,780,780,777.3330078125,776.6669921875,1025.3330078125,1020.6669921875,1009.3330078125,1006,1000.6669921875,997.3330078125,995,992,986,981.3330078125,981.3330078125,981.3330078125,981.3330078125,981.3330078125,981.3330078125,729,725.3330078125,714.6669921875,687.3330078125,655,638,606,591.3330078125,559,503.3330078125,462.6669921875,443,406,356,321,303,270.6669921875,254,220.66700744628906,167.33299255371094,133,119.3330078125,94],"timestamp_mouse":[19,44,49,69,88,108,128,148,168,189,209,229,248,268,292,314,329,348,368,388,408,429,449,468,489,514,528,548,568,588,609,629,648,669,690,714,728,748,768,788,808,828,848,868,888,911,928,948,968,990,1010,1028,1048,1068,1090,1110,1128,1148,1168,1191,1209,1229,1248,1268,1290,1309,1328,1348,1369,1388,1408,1429,1448,1469,1491,1508,1528,1548,1568,1588,1608,1628,1648,1668,1693,1708,1728,1749,1769,1789,1809,1829,1848,1868,1890,1911,1929,1949,1968,1989,2008,2028,2048,2068,2091,2110,2128,2148,2168,2189,2208,2228,2248,2268,2290,2309,2329,2348,2368,2388,2411,2429,2448,2469],"xSR":350,"ySR":768,"xT1":30,"yT1":0,"xT2":670,"yT2":0,"toosoon":0,"cond_shown":"Incongruent","ratio_trial":200,"L_num":7,"L_den":10,"R_num":14,"R_den":28,"correct_side":1,"subjID":"43wm","gender":"No_gender","school":"No_school","age":"No_age"},{"start_time":1549381463901,"click_time":1549381466798,"finger_time":1549381465078,"fix_duration":641.7097180983077,"trial":14,"RT":1177,"MT":1720,"sideResp":1,"stimulus":[],"xmouse":[388,389.3330078125,389.3330078125,389.3330078125,389.3330078125,389.3330078125,389.3330078125,389.3330078125,389.3330078125,389.3330078125,389.3330078125,390.6669921875,390.6669921875,390.6669921875,390,390.6669921875,390,390,390,391.3330078125,391.3330078125,391,392,392,392,392,392,393.3330078125,393.3330078125,393,393,393.3330078125,392.6669921875,392.6669921875,392.6669921875,392.6669921875,392.6669921875,392.6669921875,392.6669921875,390.6669921875,390,390,390,390,390,390,390,389.3330078125,389.3330078125,389.3330078125,389.3330078125,387.3330078125,387.3330078125,387.3330078125,387.3330078125,382,380,378.6669921875,377.3330078125,376.6669921875,374.6669921875,374,371.3330078125,369,367.3330078125,366,364,360.6669921875,358,356,353,351.3330078125,346.6669921875,336.6669921875,329.3330078125,325.3330078125,319,312,306,302,295.3330078125,292.6669921875,286,276,269.3330078125,266,259,248,240,236,228,225.33299255371094,216.66700744628906,210.66700744628906,205.33299255371094,203.33299255371094,198,194,192,191.33299255371094,190,190,189.33299255371094,189.33299255371094,189.33299255371094,189.33299255371094,189.33299255371094,189.33299255371094,186.66700744628906,186.66700744628906,186,186,186,184.66700744628906,184,182.66700744628906,180.66700744628906,177.33299255371094,176,174,172,171.33299255371094,164.66700744628906,160,153,150,144,141,134,132,130,128.66700744628906,125.3330078125,118.66699981689453,114,111.33300018310547,107,105.33300018310547,98,96,92,90.66699981689453,82.66699981689453,79.33300018310547,76.66699981689453],"ymouse":[830,828.6669921875,828.6669921875,828.6669921875,828.6669921875,828.6669921875,828.6669921875,828.6669921875,828.6669921875,828.6669921875,828.6669921875,827.3330078125,826.6669921875,826.6669921875,826,826.6669921875,826,826,826,825.3330078125,825.3330078125,824,822,820,820,818,816,814.6669921875,814.6669921875,814,814,813.3330078125,813.3330078125,812.6669921875,812.6669921875,812.6669921875,812.6669921875,812.6669921875,812.6669921875,806.6669921875,806,806,800,799,798,798,797,796.6669921875,796.6669921875,796.6669921875,796.6669921875,791.3330078125,791.3330078125,791.3330078125,791.3330078125,778,774,769.3330078125,766.6669921875,764.6669921875,760.6669921875,758,750.6669921875,746,740.6669921875,737,732,723.3330078125,716,713,706,702.6669921875,693.3330078125,672.6669921875,657.3330078125,648.6669921875,634,612,597,588,571.3330078125,564.6669921875,549,522,505.3330078125,496,480,454,438,430,414,406.6669921875,389.3330078125,377.3330078125,367.3330078125,362.6669921875,356,349,348,347.3330078125,348,348,348.6669921875,348.6669921875,348.6669921875,348.6669921875,348.6669921875,348.6669921875,342.6669921875,340.6669921875,335,332,324,319.3330078125,316,312.6669921875,309.3330078125,305.3330078125,303,300,296,293.3330078125,283.3330078125,276,266,260,250,246,231,228,221,217.33299255371094,208.66700744628906,194.66700744628906,184,178.66700744628906,168,163.33299255371094,146,142,134,129.33299255371094,111.33300018310547,100.66699981689453,94.66699981689453],"timestamp_mouse":[18,53,58,78,97,117,137,157,177,198,218,237,257,277,298,317,337,357,377,397,417,437,457,478,497,517,542,559,578,597,617,639,661,677,697,717,738,759,777,798,817,837,859,878,897,917,938,960,977,998,1017,1037,1057,1078,1098,1117,1138,1158,1177,1198,1218,1237,1259,1277,1297,1317,1337,1360,1377,1398,1418,1437,1457,1477,1497,1517,1538,1562,1579,1597,1618,1637,1657,1679,1700,1717,1737,1766,1778,1797,1817,1837,1859,1877,1897,1917,1937,1958,1977,1997,2017,2037,2057,2078,2097,2117,2137,2158,2182,2197,2217,2237,2259,2279,2297,2318,2337,2359,2377,2397,2417,2437,2459,2478,2502,2517,2537,2557,2580,2597,2617,2637,2659,2677,2697,2717,2738,2757,2780,2797,2818,2838,2860,2877,2897],"xSR":350,"ySR":768,"xT1":30,"yT1":0,"xT2":670,"yT2":0,"toosoon":0,"cond_shown":"Incongruent","ratio_trial":100,"L_num":13,"L_den":26,"R_num":6,"R_den":10,"correct_side":2,"subjID":"43wm","gender":"No_gender","school":"No_school","age":"No_age"},{"start_time":1549381469603,"click_time":1549381472502,"finger_time":1549381470619,"fix_duration":581.2942276201092,"trial":15,"RT":1016,"MT":1883,"sideResp":2,"stimulus":[],"xmouse":[385.3330078125,385.3330078125,385.3330078125,385.3330078125,385.3330078125,385.3330078125,385.3330078125,385.3330078125,382.6669921875,382.6669921875,382.6669921875,382.6669921875,382.6669921875,382.6669921875,382.6669921875,382.6669921875,382.6669921875,382.6669921875,384,384,384,384,384,384,383.3330078125,383,383.3330078125,383.3330078125,383.3330078125,383,383.3330078125,383.3330078125,383.3330078125,383.3330078125,383.3330078125,383.3330078125,383,383.3330078125,383,383.3330078125,383,383.3330078125,383,384,384,384,384,384,384,384,383,383.3330078125,383.3330078125,382.6669921875,382,382,382,382,382,382,382.6669921875,382.6669921875,382,383,383,383,383,383.3330078125,383,383.3330078125,383.3330078125,384,384,383,383,383,383.3330078125,383.3330078125,383.3330078125,383.3330078125,383.3330078125,383.3330078125,379.3330078125,379.3330078125,379.3330078125,374,370.6669921875,369,364,360,356.6669921875,355,352,347.3330078125,344.6669921875,343.3330078125,340,340,336,334,332,331.3330078125,330.6669921875,330,330,331.3330078125,331.3330078125,331.3330078125,364,386,394,398.6669921875,407,417,422,424,431.3330078125,436,455.3330078125,459.3330078125,468,472.6669921875,481.3330078125,489,502,506,521,535.3330078125,540,556,567,572,583.3330078125,593.3330078125,611.3330078125,616.6669921875,624,630.6669921875,634,645,653.3330078125,660,664,670.6669921875],"ymouse":[818.6669921875,818.6669921875,818.6669921875,818.6669921875,818.6669921875,818.6669921875,818.6669921875,818.6669921875,807.3330078125,807.3330078125,807.3330078125,807.3330078125,807.3330078125,807.3330078125,807.3330078125,807.3330078125,807.3330078125,807.3330078125,800,800,800,800,800,800,793.3330078125,792,791.3330078125,790.6669921875,788.6669921875,788,787.3330078125,786.6669921875,785.3330078125,783.3330078125,782.6669921875,781.3330078125,780,779.3330078125,778,776.6669921875,776,775.3330078125,774,774,772,772,770,770,768,766,766,765.3330078125,764.6669921875,762.6669921875,762,762,760,760,759,758,758.6669921875,758.6669921875,758,758,758,758,758,756.6669921875,756,755.3330078125,755.3330078125,754,751,750,748,746,744.6669921875,744.6669921875,744.6669921875,744.6669921875,744.6669921875,744.6669921875,741.3330078125,741.3330078125,741.3330078125,735,732.6669921875,730,723,718,714.6669921875,712,708,700.6669921875,695.3330078125,692.6669921875,688,685,677,672,667,665.3330078125,660.6669921875,658,658,647.3330078125,647.3330078125,647.3330078125,590,549,534,527.3330078125,516,500,491,488,474.6669921875,467,440.6669921875,434.6669921875,424,419.3330078125,409.3330078125,400,384,378,360,343.3330078125,336,315,300,292,276.6669921875,261.3330078125,229.33299255371094,220.66700744628906,205,191.33299255371094,184,158,140.66700744628906,124,116,97.33300018310547],"timestamp_mouse":[40,55,75,95,115,135,155,175,195,216,235,255,275,297,315,335,355,376,395,415,436,455,475,495,515,536,556,576,596,615,636,655,676,696,715,735,755,776,796,817,836,855,876,896,915,935,955,975,996,1016,1036,1055,1076,1102,1115,1135,1155,1176,1195,1216,1235,1256,1275,1299,1316,1335,1355,1376,1395,1416,1435,1455,1475,1496,1515,1535,1555,1575,1596,1618,1635,1656,1675,1696,1716,1735,1755,1776,1797,1816,1836,1856,1875,1896,1915,1935,1956,1975,1996,2016,2038,2056,2075,2100,2116,2135,2155,2175,2195,2216,2236,2255,2275,2298,2316,2335,2355,2375,2398,2417,2435,2455,2476,2495,2517,2535,2555,2575,2595,2618,2635,2656,2676,2696,2716,2735,2755,2775,2795,2818,2835,2855,2876,2898],"xSR":350,"ySR":768,"xT1":30,"yT1":0,"xT2":670,"yT2":0,"toosoon":0,"cond_shown":"Incongruent","ratio_trial":300,"L_num":13,"L_den":26,"R_num":12,"R_den":15,"correct_side":2,"subjID":"43wm","gender":"No_gender","school":"No_school","age":"No_age"},{"start_time":1549381475482,"click_time":1549381479539,"finger_time":1549381476878,"fix_duration":1162.83773704962,"trial":16,"RT":1396,"MT":2661,"sideResp":2,"stimulus":[],"xmouse":[379.3330078125,379.3330078125,379.3330078125,379.3330078125,378.6669921875,378.6669921875,378.6669921875,378.6669921875,378.6669921875,378.6669921875,378.6669921875,378.6669921875,378.6669921875,378.6669921875,376,376,376,375.3330078125,375.3330078125,375.3330078125,375.3330078125,369.3330078125,368.6669921875,369.3330078125,370,370,370.6669921875,370,370,370,370.6669921875,370.6669921875,370.6669921875,370.6669921875,370.6669921875,370.6669921875,370.6669921875,370.6669921875,370.6669921875,370.6669921875,376,376.6669921875,377,377.3330078125,378,378.6669921875,378,379.3330078125,380,380,381,381,381,381,381,380,379.3330078125,379,380,380,380,380,381.3330078125,381.3330078125,381.3330078125,381,382,382.6669921875,382.6669921875,383.3330078125,383.3330078125,384,385,386,387.3330078125,388.6669921875,389.3330078125,391.3330078125,392,392.6669921875,393.3330078125,394,394.6669921875,395,396.6669921875,398,398.6669921875,399.3330078125,400,400,400.6669921875,400,400,399.3330078125,398.6669921875,398.6669921875,398.6669921875,399.3330078125,400,400.6669921875,400.6669921875,400.6669921875,400,400,399,398,398,394,394,393.3330078125,393.3330078125,393,393.3330078125,393.3330078125,393.3330078125,393.3330078125,389.3330078125,388,383,380.6669921875,379,375,368,364,360.6669921875,354.6669921875,347.3330078125,336,332,324,318,314,307.3330078125,297,294,288,283.3330078125,281,276,273.3330078125,271.3330078125,270,268.6669921875,268,268,268.6669921875,268.6669921875,269.3330078125,270,270,269,269.3330078125,268,267.3330078125,267.3330078125,268,269.3330078125,270.6669921875,270.6669921875,270.6669921875,278,278,281.3330078125,281.3330078125,281.3330078125,281.3330078125,281.3330078125,287,290,292,293,296,298,332,350,383.3330078125,394,408,424.6669921875,434,439.3330078125,450.6669921875,472,510.6669921875,522.6669921875,544,562,569.3330078125,578,598.6669921875,612,618,628.6669921875,628.6669921875,646,648,652.6669921875,657.3330078125,664.6669921875,667.3330078125,672.6669921875,675,680.6669921875],"ymouse":[821.3330078125,821.3330078125,821.3330078125,821.3330078125,822.6669921875,822.6669921875,822.6669921875,822.6669921875,822.6669921875,822.6669921875,822.6669921875,822.6669921875,822.6669921875,822.6669921875,826,826,826,827.3330078125,827.3330078125,827.3330078125,827.3330078125,830.6669921875,830.6669921875,830.6669921875,830,829,829.3330078125,828,828,828,826.6669921875,826.6669921875,826.6669921875,826.6669921875,826.6669921875,826.6669921875,826.6669921875,826.6669921875,826.6669921875,826.6669921875,810,808.6669921875,806,805.3330078125,804,802.6669921875,802,799.3330078125,798,798,798,798,798,798,798,797,795.3330078125,792,788,786,783,782,777.3330078125,776.6669921875,774.6669921875,774,772,770.6669921875,768.6669921875,767.3330078125,765.3330078125,762,756,754,748.6669921875,743.3330078125,741.3330078125,734.6669921875,730,728.6669921875,725.3330078125,723,719.3330078125,718,714.6669921875,712,711.3330078125,708.6669921875,706,706,705.3330078125,704,702,701.3330078125,700.6669921875,699.3330078125,698.6669921875,697.3330078125,697,697.3330078125,697.3330078125,697.3330078125,696,696,696,694,693,690,689,689.3330078125,689.3330078125,690,690.6669921875,690.6669921875,690.6669921875,690.6669921875,684.6669921875,682,676,670.6669921875,668,662,652,643,639.3330078125,629.3330078125,619.3330078125,601,596,584,572,566,555.3330078125,540,535,526,519.3330078125,516,507,502.6669921875,498.6669921875,496,494.6669921875,492,492,492.6669921875,492.6669921875,492.6669921875,492,491,490,489.3330078125,487,485.3330078125,485.3330078125,484,484.6669921875,484.6669921875,484.6669921875,484.6669921875,485,485,484.6669921875,484.6669921875,484.6669921875,484.6669921875,484.6669921875,480,476,475,474,472,471,452,441,422.6669921875,416,408,399.3330078125,393,389.3330078125,378.6669921875,360,323.3330078125,311.3330078125,290,270,263.3330078125,250,227.33299255371094,208,202,188.66700744628906,188.66700744628906,160,156,148.66700744628906,139.33299255371094,122.6669921875,117.3330078125,105.33300018310547,100,90.66699981689453],"timestamp_mouse":[17,45,59,76,96,117,137,156,177,196,216,237,256,277,297,316,338,356,376,396,416,436,456,476,496,516,537,557,576,597,616,638,658,678,696,716,736,757,777,796,816,836,856,876,897,916,936,958,976,996,1016,1037,1056,1077,1096,1116,1137,1159,1176,1197,1217,1236,1258,1277,1296,1316,1336,1358,1376,1396,1417,1436,1460,1477,1497,1516,1536,1560,1577,1596,1617,1636,1660,1677,1696,1716,1737,1756,1776,1797,1816,1836,1857,1877,1897,1916,1936,1957,1976,1996,2016,2036,2059,2077,2097,2116,2136,2159,2177,2197,2217,2236,2259,2277,2296,2316,2336,2356,2377,2397,2417,2436,2459,2477,2496,2516,2537,2558,2578,2597,2616,2636,2657,2678,2697,2716,2736,2756,2778,2797,2816,2836,2857,2877,2896,2917,2936,2956,2976,2996,3016,3037,3059,3076,3096,3116,3137,3156,3177,3197,3217,3236,3256,3276,3296,3316,3336,3357,3378,3397,3417,3436,3457,3478,3497,3517,3537,3556,3578,3596,3616,3637,3657,3676,3696,3717,3736,3757,3776,3796,3817,3836,3858,3877,3897,3917,3936,3956,3981,3996,4017,4036,4057],"xSR":350,"ySR":768,"xT1":30,"yT1":0,"xT2":670,"yT2":0,"toosoon":0,"cond_shown":"Congruent","ratio_trial":300,"L_num":3,"L_den":6,"R_num":2,"R_den":10,"correct_side":1,"subjID":"43wm","gender":"No_gender","school":"No_school","age":"No_age"},{"start_time":1549381482704,"click_time":1549381488660,"finger_time":1549381484539,"fix_duration":1383.7829992820807,"trial":17,"RT":1835,"MT":4121,"sideResp":1,"stimulus":[],"xmouse":[392.6669921875,392.6669921875,392.6669921875,392.6669921875,392.6669921875,392.6669921875,393,393,393,393,393,393,393,393,384,383,382.6669921875,381.3330078125,380.6669921875,380,380,380,381,381,381,381,381,381,381,381,381,386.6669921875,386.6669921875,386.6669921875,386.6669921875,386.6669921875,386.6669921875,386.6669921875,386.6669921875,386.6669921875,386.6669921875,384,384,384,384,384,384,384,384,384,384,382,382,382,382,382,382,382,382,379,379.3330078125,379.3330078125,378.6669921875,378.6669921875,378,378,378,378,378,378,378,377.3330078125,377.3330078125,377,377,376.6669921875,376.6669921875,376,376,376,375.3330078125,375.3330078125,374.6669921875,374,374,374,373.3330078125,373.3330078125,372,372,372,372,372,371.3330078125,371.3330078125,371,371,370,370,370,370,370,370,370,369.3330078125,369.3330078125,369.3330078125,368,368.6669921875,368.6669921875,368,368,368,367,367.3330078125,367.3330078125,366.6669921875,366.6669921875,366,366,366,365,365,365,364.6669921875,364.6669921875,364.6669921875,364.6669921875,364,364,364,363.3330078125,363.3330078125,362.6669921875,362,362,362,361.3330078125,361,360,360,360,360,360,360,360,360,359.3330078125,359.3330078125,358.6669921875,358.6669921875,357.3330078125,356.6669921875,354,352.6669921875,351.3330078125,350,349,348,348,348,348,348.6669921875,348.6669921875,348.6669921875,348.6669921875,348.6669921875,348.6669921875,348.6669921875,348.6669921875,348.6669921875,348.6669921875,349,349.3330078125,349.3330078125,349.3330078125,349.3330078125,349,349,349,348.6669921875,348,348,348,348,348,347.3330078125,347,347.3330078125,346.6669921875,346,346,345,345.3330078125,344,343,342,342.6669921875,342,340,339,339.3330078125,338.6669921875,338.6669921875,338,338,337.3330078125,337,337.3330078125,336,335,334.6669921875,334,334,332.6669921875,332,332,332,331,330.6669921875,330,329.3330078125,329.3330078125,328.6669921875,328,328,328,328,328,328,327.3330078125,327,326,326.6669921875,325.3330078125,325.3330078125,324.6669921875,324.6669921875,324,322.6669921875,322,322,321.3330078125,320.6669921875,319.3330078125,318.6669921875,318,318,317,315.3330078125,314,314,312,311.3330078125,307.3330078125,306,300.6669921875,296,288,285,284,281.3330078125,278,276,270.6669921875,266.6669921875,262,260,256,249.3330078125,244,240.66700744628906,232.66700744628906,229,220,214,208,204,197.33299255371094,188,186,180,174.66700744628906,172,164,160,158,154,151,146,144,140,138,136,132.66700744628906,130,129.33299255371094],"ymouse":[793.3330078125,793.3330078125,793.3330078125,793.3330078125,793.3330078125,793.3330078125,802,802,802,802,802,802,802,802,791,790,788.6669921875,786.6669921875,785.3330078125,784,784,782,782,782,782,782,782,782,782,782,782,785.3330078125,785.3330078125,785.3330078125,785.3330078125,785.3330078125,785.3330078125,785.3330078125,785.3330078125,785.3330078125,785.3330078125,783,783,783,783,783,783,783,783,783,783,781,781,781,781,781,781,781,781,778,777.3330078125,777.3330078125,776.6669921875,776.6669921875,776,776,775,775,775,775,774,774.6669921875,774.6669921875,774,774,773.3330078125,773.3330078125,772,772,772,771.3330078125,771.3330078125,770.6669921875,770,770,769,769.3330078125,769.3330078125,768,768,767,767,767,766.6669921875,766.6669921875,766,766,766,766,766,766,765,765,765,764.6669921875,764.6669921875,764.6669921875,764,763.3330078125,763.3330078125,762,762,762,762,761.3330078125,761.3330078125,760.6669921875,760.6669921875,760,760,760,760,760,760,759.3330078125,759.3330078125,759.3330078125,758.6669921875,758,758,757,756.6669921875,756.6669921875,755.3330078125,755,755,754,754.6669921875,754,754,754,754,754,754,754,754,753,753.3330078125,753.3330078125,753.3330078125,753.3330078125,753.3330078125,752.6669921875,751,750.6669921875,748.6669921875,748,746,743,742,741,741,741.3330078125,741.3330078125,741.3330078125,741.3330078125,741.3330078125,741.3330078125,741.3330078125,741.3330078125,741.3330078125,741.3330078125,740,739.3330078125,738.6669921875,737.3330078125,736.6669921875,736,734,734,732.6669921875,732,730,730,729,728,726.6669921875,726,724.6669921875,722.6669921875,721,720,720,719.3330078125,717,716,714,713.3330078125,711,708,706,705.3330078125,703.3330078125,702.6669921875,699,698,696.6669921875,696,694.6669921875,692,690,689.3330078125,686,686,681.3330078125,680,678,676,674,670.6669921875,668,667.3330078125,664.6669921875,663.3330078125,656,654,650,648,644,638,635.3330078125,634,630,628.6669921875,621.3330078125,619.3330078125,616.6669921875,614.6669921875,612,607.3330078125,604,602,599.3330078125,597.3330078125,590.6669921875,589.3330078125,586,585,582,576.6669921875,572,570,564,561.3330078125,548.6669921875,544,527.3330078125,511,482,472,468,459.3330078125,450,444,426.6669921875,413.3330078125,400,394,382,363.3330078125,348,338.6669921875,315.3330078125,306,282,266,250,242,226.66700744628906,205,200,185,171.33299255371094,164,146,135,130,122,114,102,98,92,85,82,72.66699981689453,66,63.33300018310547],"timestamp_mouse":[15,56,74,94,114,135,155,175,195,214,234,254,275,294,314,335,354,377,395,414,434,455,478,494,514,534,554,575,595,614,635,655,677,694,714,735,754,775,794,815,836,854,874,894,914,934,954,974,994,1014,1034,1054,1075,1095,1114,1135,1154,1174,1194,1214,1234,1254,1274,1294,1315,1334,1356,1374,1394,1414,1435,1454,1475,1494,1515,1534,1554,1577,1595,1614,1634,1655,1675,1696,1715,1734,1755,1775,1797,1815,1835,1855,1875,1894,1914,1934,1954,1974,1994,2017,2034,2054,2075,2095,2114,2134,2154,2174,2195,2214,2234,2254,2275,2294,2315,2334,2355,2375,2394,2414,2434,2454,2474,2494,2514,2535,2554,2575,2597,2614,2634,2655,2674,2697,2715,2735,2754,2775,2794,2814,2834,2854,2874,2894,2914,2934,2954,2974,2994,3014,3034,3054,3075,3097,3114,3134,3155,3174,3198,3215,3234,3254,3275,3295,3315,3334,3354,3375,3394,3414,3434,3454,3475,3494,3517,3534,3555,3574,3598,3614,3634,3654,3674,3695,3714,3734,3754,3774,3794,3814,3834,3854,3874,3895,3914,3934,3955,3974,3995,4017,4034,4055,4074,4094,4119,4134,4154,4174,4194,4215,4234,4255,4274,4294,4317,4334,4354,4374,4394,4414,4435,4454,4475,4494,4515,4535,4555,4574,4595,4614,4634,4655,4674,4695,4714,4735,4754,4775,4795,4817,4834,4854,4875,4894,4915,4935,4955,4975,4995,5014,5035,5054,5074,5094,5118,5134,5155,5174,5197,5217,5237,5254,5275,5295,5315,5335,5355,5374,5395,5415,5434,5454,5474,5495,5516,5534,5554,5575,5594,5615,5635,5654,5675,5694,5716,5735,5754,5775,5794,5816,5834,5855,5875,5895,5917,5934,5955],"xSR":350,"ySR":768,"xT1":30,"yT1":0,"xT2":670,"yT2":0,"toosoon":0,"cond_shown":"Incongruent","ratio_trial":100,"L_num":3,"L_den":9,"R_num":7,"R_den":30,"correct_side":1,"subjID":"43wm","gender":"No_gender","school":"No_school","age":"No_age"},{"start_time":1549381490681,"click_time":1549381492459,"finger_time":1549381491586,"fix_duration":420.84590566711387,"trial":18,"RT":905,"MT":873,"sideResp":2,"stimulus":[],"xmouse":[382,382.6669921875,382.6669921875,382,382,382,382,381.3330078125,380.6669921875,380.6669921875,380,380.6669921875,381.3330078125,381.3330078125,382,382,381.3330078125,381.3330078125,380.6669921875,380,380,379,379,379.3330078125,380,380.6669921875,381.3330078125,383.3330078125,384.6669921875,385.3330078125,385,385.3330078125,384.6669921875,384,384,384.6669921875,384.6669921875,385.3330078125,386,387.3330078125,387.3330078125,388,388.6669921875,391.3330078125,394,399.3330078125,402,408.6669921875,413.3330078125,416,416,420,421.3330078125,424,426,434.6669921875,439.3330078125,449.3330078125,458,461.3330078125,463.3330078125,468,474,479.3330078125,482,488,494.6669921875,500,503.3330078125,506.6669921875,508,512,517.3330078125,525.3330078125,529.3330078125,537.3330078125,547.3330078125,561.3330078125,565.3330078125,576,595.3330078125,606.6669921875,629,654.6669921875,666,670,678.6669921875,682,692],"ymouse":[826,825.3330078125,824.6669921875,824,824,824,824,823.3330078125,823.3330078125,823.3330078125,822,821.3330078125,819.3330078125,818.6669921875,818,817,816.6669921875,816.6669921875,816.6669921875,816,816,816,814,813.3330078125,811,809.3330078125,808.6669921875,806.6669921875,805.3330078125,804.6669921875,804,803.3330078125,802.6669921875,802,801,801.3330078125,800.6669921875,799.3330078125,798,796.6669921875,795.3330078125,794,789.3330078125,779.3330078125,765,743.3330078125,736,720.6669921875,712.6669921875,706,706,697,689.3330078125,682,677,655.3330078125,643.3330078125,620.6669921875,601,593.3330078125,589.3330078125,580,567,551.3330078125,543,527,511.3330078125,494,488.6669921875,477.3330078125,472,462,446.6669921875,427.3330078125,417.3330078125,399.3330078125,376.6669921875,347.3330078125,339.3330078125,313,273.3330078125,250.6669921875,210,165.33299255371094,141,134,116.6669921875,109,80],"timestamp_mouse":[20,47,59,77,97,118,137,159,177,197,217,238,260,278,297,317,337,357,377,397,417,438,459,478,497,517,538,559,577,597,617,637,659,680,699,718,738,761,777,797,818,838,860,878,905,920,937,959,979,998,1017,1038,1060,1079,1098,1117,1137,1158,1178,1197,1217,1237,1259,1277,1298,1318,1337,1360,1379,1397,1419,1438,1460,1478,1497,1517,1537,1559,1577,1598,1618,1637,1657,1677,1697,1717,1738,1757,1778],"xSR":350,"ySR":768,"xT1":30,"yT1":0,"xT2":670,"yT2":0,"toosoon":0,"cond_shown":"Congruent","ratio_trial":100,"L_num":2,"L_den":5,"R_num":11,"R_den":22,"correct_side":2,"subjID":"43wm","gender":"No_gender","school":"No_school","age":"No_age"},{"start_time":1549381495070,"click_time":1549381496818,"finger_time":1549381495699,"fix_duration":1298.2339592475398,"trial":19,"RT":629,"MT":1119,"sideResp":1,"stimulus":[],"xmouse":[398,398,398,398,398,398,398,398,398,398,398,400,400,400,400.6669921875,401,401.3330078125,402,402,403,403.3330078125,403,403,403.3330078125,404,404.6669921875,406.6669921875,408,409.3330078125,413,416,418,419.3330078125,420,421,422,422.6669921875,423.3330078125,423.3330078125,425,426,426.6669921875,427,428.6669921875,429.3330078125,429,430,430,431,431,432,432.6669921875,432.6669921875,432.6669921875,432.6669921875,432.6669921875,431.3330078125,431.3330078125,431.3330078125,431.3330078125,431.3330078125,431.3330078125,431.3330078125,430.6669921875,430.6669921875,430.6669921875,423.3330078125,418,408,400,366,358.6669921875,351.3330078125,334.6669921875,306,286,277.3330078125,258,239.33299255371094,207,196.66700744628906,178.66700744628906,170,153,130.66700744628906,117.33300018310547,111.33300018310547],"ymouse":[818,818,818,818,818,818,818,818,818,818,818,815,814,813,812.6669921875,812,810.6669921875,810,808,806,804.6669921875,804,802,798.6669921875,794,792.6669921875,787.3330078125,782,779.3330078125,770,764,760,757.3330078125,753,748,746,742.6669921875,738.6669921875,737.3330078125,732,731,730.6669921875,730,729.3330078125,729.3330078125,730,730,730,730,730,730,729.3330078125,729.3330078125,729.3330078125,729.3330078125,729.3330078125,729.3330078125,729.3330078125,729.3330078125,729.3330078125,725.3330078125,725.3330078125,725.3330078125,719.3330078125,719.3330078125,719.3330078125,702.6669921875,690,669,654,584,567.3330078125,551.3330078125,518.6669921875,462,420,400.6669921875,360,319.3330078125,264,247.3330078125,216.66700744628906,202,176,136.66700744628906,110.66699981689453,97.33300018310547],"timestamp_mouse":[18,64,68,89,109,129,148,168,189,209,228,248,268,292,308,328,348,368,389,408,428,448,469,492,508,528,549,568,589,608,629,649,668,689,713,728,748,769,788,812,829,849,869,891,908,928,948,969,988,1008,1028,1048,1068,1088,1109,1128,1149,1168,1189,1208,1230,1248,1268,1289,1309,1329,1350,1369,1388,1408,1431,1448,1468,1489,1509,1528,1548,1569,1588,1610,1628,1648,1669,1689,1710,1728,1748],"xSR":350,"ySR":768,"xT1":30,"yT1":0,"xT2":670,"yT2":0,"toosoon":0,"cond_shown":"Congruent","ratio_trial":100,"L_num":15,"L_den":25,"R_num":13,"R_den":26,"correct_side":1,"subjID":"43wm","gender":"No_gender","school":"No_school","age":"No_age"},{"start_time":1549381498434,"click_time":1549381499759,"finger_time":1549381499400,"fix_duration":250,"trial":20,"RT":966,"MT":359,"sideResp":1,"stimulus":[],"xmouse":[398,398,398,386,385.3330078125,385.3330078125,385,384,384.6669921875,384,384,383,383,382.6669921875,382,382,382,381,380.6669921875,380,380,380,380,379,379,379.3330078125,378.6669921875,378.6669921875,378,378,378,378,378,378,378,378,378,377.3330078125,377,376.6669921875,376,376,374,370.6669921875,369.3330078125,363.3330078125,357.3330078125,353,342,330.6669921875,315.3330078125,306,290,265,256.6669921875,240,222.66700744628906,213.33299255371094,190,176,163.33299255371094,156,144.66700744628906,125.3330078125,118,107,96],"ymouse":[860,860,860,842,841.3330078125,840.6669921875,840,840,839.3330078125,839,838,838,838,836.6669921875,836,835,834,834,833.3330078125,832,832,832,831,830,830,829.3330078125,829.3330078125,828.6669921875,828,827,827,826,826,826,826,826,826,825.3330078125,824,822.6669921875,820,820,816,809.3330078125,805.3330078125,792.6669921875,779.3330078125,772,748,725.3330078125,692.6669921875,674,638,584,566.6669921875,528,487.3330078125,466.6669921875,405,364,322.6669921875,302,259.3330078125,191.33299255371094,170,130,94],"timestamp_mouse":[5,24,56,66,84,104,124,144,164,184,204,224,244,266,285,305,324,344,368,384,404,425,444,465,484,504,524,545,565,584,604,625,644,665,684,705,724,744,766,785,804,824,844,865,884,904,924,944,966,985,1004,1024,1044,1065,1084,1105,1125,1145,1166,1185,1204,1225,1244,1265,1285,1305,1324],"xSR":350,"ySR":768,"xT1":30,"yT1":0,"xT2":670,"yT2":0,"toosoon":0,"cond_shown":"Congruent","ratio_trial":500,"L_num":20,"L_den":24,"R_num":3,"R_den":9,"correct_side":1,"subjID":"43wm","gender":"No_gender","school":"No_school","age":"No_age"},{"start_time":1549381501785,"click_time":1549381504159,"finger_time":1549381503722,"fix_duration":505.5577572913392,"trial":21,"RT":1937,"MT":437,"sideResp":1,"stimulus":[],"xmouse":[381.3330078125,381.3330078125,381.3330078125,381.3330078125,381.3330078125,381.3330078125,381,381,381,381,381,381,381,380,380,380,380,380,380,380,380,380,380,380,379,379,379,379,380,380,380,380,380,380,380,380,381.3330078125,381.3330078125,381.3330078125,382,382,383.3330078125,383.3330078125,383.3330078125,383.3330078125,383.3330078125,383.3330078125,383.3330078125,383.3330078125,383.3330078125,383.3330078125,386,386,386,387,387.3330078125,387,386.6669921875,386.6669921875,386.6669921875,386.6669921875,386.6669921875,387.3330078125,387,387,388,388.6669921875,388,388.6669921875,388,388.6669921875,390,390.6669921875,390.6669921875,391,392,392,392,391.3330078125,391,391,391,391,391,391,391,391,391,391,371,370,370,368,367.3330078125,364.6669921875,362,359.3330078125,350.6669921875,342,329,325.3330078125,317.3330078125,302.6669921875,302.6669921875,283.3330078125,271.3330078125,262,249,232,224,198,179.33299255371094,170.66700744628906,154.66700744628906,140,122.6669921875,116.66699981689453],"ymouse":[848.6669921875,848.6669921875,848.6669921875,848.6669921875,848.6669921875,848.6669921875,848,848,848,848,848,848,848,846,846,845,845,845,845,844,844,844,844,844,844,844,844,844,844,844,844,844,844,844,844,844,843.3330078125,843.3330078125,843.3330078125,842,842,841.3330078125,841.3330078125,841.3330078125,841.3330078125,841.3330078125,841.3330078125,841.3330078125,841.3330078125,841.3330078125,841.3330078125,836,836,836,832,829.3330078125,828,827.3330078125,827.3330078125,824.6669921875,822.6669921875,820.6669921875,818.6669921875,818,818,812,810.6669921875,810,808.6669921875,808,806.6669921875,802,800.6669921875,799.3330078125,796,792,791,788,786.6669921875,784,784,784,784,784,784,784,784,784,784,782,780,780,775,770.6669921875,761.3330078125,752,743.3330078125,719.3330078125,692,646,632.6669921875,603.3330078125,553.3330078125,553.3330078125,494.6669921875,455.33