[{"start_time":1549382031597,"click_time":1549382032456,"finger_time":1549382031606,"fix_duration":1314.1950299122511,"trial":0,"RT":9,"MT":850,"sideResp":2,"stimulus":"img/900/randomdotsize/L/10_Ratio_900_L_20_R_18.png","xmouse":[391,391,391,391,391,391,391,391,391,391,391,391,391,391,391,391,391,391,391,391,391,391,391,391,391,391,391,391,391,391,391,391,391,391,391,391,391,391,391,391,391,391,391,731],"ymouse":[522,522,522,522,522,522,522,522,522,522,522,522,522,522,522,522,522,522,522,522,522,522,522,522,522,522,522,522,522,522,522,522,522,522,522,522,522,522,522,522,522,522,522,31],"timestamp_mouse":[8,17,37,57,77,97,117,137,157,177,197,217,237,257,279,298,318,337,357,377,398,417,437,457,478,497,517,537,558,577,597,617,637,657,677,697,717,737,757,778,797,818,837,857],"xSR":350,"ySR":451.2,"xT1":30,"yT1":0,"xT2":670,"yT2":0,"toosoon":0,"cond_shown":"randomdotsize","ratio_trial":900,"smaller_num":"18","larger_num":"20","correct_side":1,"subjID":"43wm","gender":"No_gender","age":"No_age","school":"No_school","test":{"fix_dur":[250,1500],"timestim":400,"targets_dim":[100,100],"targets_relative_coord":[0.1,0.9],"size_stim":[880,420],"start_dim":[100,100],"size_start":[300,300],"size_fix":60,"samplingrate":20,"img_types":["equaldotsize","equaldotanddens","randomdotsize","randomdotsizeEA"],"ratios":[250,500,750,900],"rep_conds":7,"nTrials":128,"trials_to_rest":500,"Trials_order":[126,25,77,98,56,74,103,34,107,111,60,114,96,90,27,57,38,99,52,95,108,80,85,12,62,122,18,47,21,32,109,26,51,106,45,59,8,30,68,53,37,33,84,46,11,75,87,117,3,65,49,66,2,28,91,86,105,93,81,64,20,15,82,42,125,13,94,83,123,0,116,44,35,69,39,78,97,48,112,24,88,36,110,92,115,40,79,118,61,72,89,119,43,14,29,9,100,50,55,7,101,23,104,58,10,4,76,71,102,6,67,73,19,17,120,127,16,113,31,121,70,124,22,41,63,54,5,1],"cond_shown":["randomdotsize","equaldotanddens","equaldotanddens","randomdotsize","equaldotsize","randomdotsize","randomdotsizeEA","randomdotsize","randomdotsizeEA","randomdotsizeEA","equaldotsize","randomdotsize","equaldotsize","randomdotsize","randomdotsizeEA","equaldotanddens","randomdotsize","randomdotsizeEA","equaldotsize","randomdotsizeEA","equaldotsize","equaldotsize","equaldotanddens","equaldotsize","randomdotsize","randomdotsize","randomdotsize","randomdotsizeEA","equaldotanddens","equaldotsize","equaldotanddens","randomdotsize","randomdotsizeEA","randomdotsize","equaldotanddens","randomdotsizeEA","equaldotsize","randomdotsize","equaldotsize","equaldotanddens","equaldotanddens","equaldotanddens","equaldotsize","randomdotsize","randomdotsizeEA","randomdotsizeEA","randomdotsizeEA","equaldotanddens","randomdotsizeEA","equaldotanddens","equaldotanddens","randomdotsize","randomdotsize","equaldotsize","randomdotsizeEA","randomdotsize","equaldotanddens","equaldotanddens","equaldotanddens","equaldotsize","equaldotsize","randomdotsizeEA","randomdotsize","randomdotsize","equaldotanddens","equaldotanddens","randomdotsize","randomdotsizeEA","randomdotsizeEA","equaldotsize","equaldotsize","equaldotsize","randomdotsizeEA","equaldotanddens","randomdotsizeEA","randomdotsize","equaldotanddens","equaldotsize","equaldotsize","equaldotsize","equaldotsize","equaldotsize","randomdotsize","equaldotsize","randomdotsizeEA","equaldotsize","randomdotsizeEA","randomdotsize","equaldotanddens","equaldotsize","equaldotanddens","randomdotsizeEA","randomdotsizeEA","randomdotsize","equaldotanddens","equaldotanddens","equaldotsize","randomdotsize","randomdotsizeEA","randomdotsizeEA","equaldotanddens","randomdotsizeEA","equaldotsize","randomdotsize","randomdotsize","equaldotsize","equaldotsize","randomdotsizeEA","randomdotsize","randomdotsize","randomdotsizeEA","equaldotanddens","randomdotsizeEA","equaldotanddens","equaldotsize","randomdotsizeEA","equaldotsize","equaldotanddens","randomdotsizeEA","equaldotanddens","randomdotsize","equaldotsize","randomdotsize","equaldotanddens","randomdotsizeEA","randomdotsize","equaldotanddens","equaldotanddens"],"ratio_trial":[900,750,900,250,750,750,500,250,750,900,900,250,250,750,750,750,500,250,500,900,900,250,500,900,900,750,250,900,500,250,900,750,250,750,900,750,750,900,500,500,500,250,500,900,750,750,500,500,250,250,250,250,250,900,750,500,750,900,250,250,500,900,250,750,900,900,900,250,750,250,500,900,250,500,500,900,250,250,250,750,750,500,900,900,250,750,900,500,900,750,750,500,750,900,900,750,500,250,500,500,500,500,750,750,750,500,900,500,500,500,250,750,250,250,750,900,250,250,900,750,500,900,500,750,900,500,500,250],"smaller_num":["18","9","9","3","3","3","2","3","15","18","18","3","3","6","6","15","9","6","10","18","18","3","9","18","9","6","2","9","4","2","18","15","3","15","18","18","12","18","10","9","5","1","2","9","6","3","4","4","2","3","3","4","6","9","9","6","18","18","4","3","5","18","2","6","9","9","18","5","15","6","2","18","3","6","2","18","3","3","4","9","6","9","9","18","2","3","18","1","18","12","12","2","12","18","18","15","2","4","2","9","9","3","15","12","6","9","18","1","2","4","5","3","6","2","6","9","3","3","18","6","9","18","9","3","18","6","5","4"],"larger_num":["20","12","10","12","4","4","4","12","20","20","20","12","12","8","8","20","18","24","20","20","20","12","18","20","10","8","8","10","8","8","20","20","12","20","20","24","16","20","20","18","10","4","4","10","8","4","8","8","8","12","12","16","24","10","12","12","24","20","16","12","10","20","8","8","10","10","20","20","20","24","4","20","12","12","4","20","12","12","16","12","8","18","10","20","8","4","20","2","20","16","16","4","16","20","20","20","4","16","4","18","18","6","20","16","8","18","20","2","4","8","20","4","24","8","8","10","12","12","20","8","18","20","18","4","20","12","10","16"],"correct_side":[1,2,2,1,1,1,1,2,1,2,2,1,1,1,1,1,2,1,2,2,2,2,1,1,1,1,2,1,1,1,2,2,2,1,1,1,2,1,2,2,2,2,2,2,1,1,1,1,2,1,2,2,2,2,2,1,1,1,1,1,2,1,1,1,1,1,2,2,2,1,1,1,2,1,1,1,1,1,1,2,1,2,2,1,1,1,1,2,2,2,2,1,2,1,1,2,2,1,1,1,1,2,2,2,2,2,2,2,1,1,2,1,2,1,1,2,1,1,1,1,2,1,1,1,1,1,2,1],"img_shown":["img/900/randomdotsize/L/10_Ratio_900_L_20_R_18.png","img/750/equaldotanddens/R/15_Ratio_750_L_9_R_12.png","img/900/equaldotanddens/R/7_Ratio_900_L_9_R_10.png","img/250/randomdotsize/L/15_Ratio_250_L_12_R_3.png","img/750/equaldotsize/L/9_Ratio_750_L_4_R_3.png","img/750/randomdotsize/L/9_Ratio_750_L_4_R_3.png","img/500/randomdotsizeEA/L/5_Ratio_500_L_4_R_2.png","img/250/randomdotsize/R/9_Ratio_250_L_3_R_12.png","img/750/randomdotsizeEA/L/1_Ratio_750_L_20_R_15.png","img/900/randomdotsizeEA/R/11_Ratio_900_L_18_R_20.png","img/900/equaldotsize/R/9_Ratio_900_L_18_R_20.png","img/250/randomdotsize/L/14_Ratio_250_L_12_R_3.png","img/250/equaldotsize/L/15_Ratio_250_L_12_R_3.png","img/750/randomdotsize/L/13_Ratio_750_L_8_R_6.png","img/750/randomdotsizeEA/L/13_Ratio_750_L_8_R_6.png","img/750/equaldotanddens/L/1_Ratio_750_L_20_R_15.png","img/500/randomdotsize/R/1_Ratio_500_L_9_R_18.png","img/250/randomdotsizeEA/L/5_Ratio_250_L_24_R_6.png","img/500/equaldotsize/R/3_Ratio_500_L_10_R_20.png","img/900/randomdotsizeEA/R/9_Ratio_900_L_18_R_20.png","img/900/equaldotsize/R/12_Ratio_900_L_18_R_20.png","img/250/equaldotsize/R/4_Ratio_250_L_3_R_12.png","img/500/equaldotanddens/L/4_Ratio_500_L_18_R_9.png","img/900/equaldotsize/L/8_Ratio_900_L_20_R_18.png","img/900/randomdotsize/L/1_Ratio_900_L_10_R_9.png","img/750/randomdotsize/L/14_Ratio_750_L_8_R_6.png","img/250/randomdotsize/R/13_Ratio_250_L_2_R_8.png","img/900/randomdotsizeEA/L/1_Ratio_900_L_10_R_9.png","img/500/equaldotanddens/L/8_Ratio_500_L_8_R_4.png","img/250/equaldotsize/L/7_Ratio_250_L_8_R_2.png","img/900/equaldotanddens/R/13_Ratio_900_L_18_R_20.png","img/750/randomdotsize/R/4_Ratio_750_L_15_R_20.png","img/250/randomdotsizeEA/R/4_Ratio_250_L_3_R_12.png","img/750/randomdotsize/L/1_Ratio_750_L_20_R_15.png","img/900/equaldotanddens/L/2_Ratio_900_L_20_R_18.png","img/750/randomdotsizeEA/L/6_Ratio_750_L_24_R_18.png","img/750/equaldotsize/R/11_Ratio_750_L_12_R_16.png","img/900/randomdotsize/L/2_Ratio_900_L_20_R_18.png","img/500/equaldotsize/R/3_Ratio_500_L_10_R_20.png","img/500/equaldotanddens/R/1_Ratio_500_L_9_R_18.png","img/500/equaldotanddens/R/14_Ratio_500_L_5_R_10.png","img/250/equaldotanddens/R/8_Ratio_250_L_1_R_4.png","img/500/equaldotsize/R/9_Ratio_500_L_2_R_4.png","img/900/randomdotsize/R/7_Ratio_900_L_9_R_10.png","img/750/randomdotsizeEA/L/14_Ratio_750_L_8_R_6.png","img/750/randomdotsizeEA/L/8_Ratio_750_L_4_R_3.png","img/500/randomdotsizeEA/L/8_Ratio_500_L_8_R_4.png","img/500/equaldotanddens/L/8_Ratio_500_L_8_R_4.png","img/250/randomdotsizeEA/R/13_Ratio_250_L_2_R_8.png","img/250/equaldotanddens/L/14_Ratio_250_L_12_R_3.png","img/250/equaldotanddens/R/11_Ratio_250_L_3_R_12.png","img/250/randomdotsize/R/10_Ratio_250_L_4_R_16.png","img/250/randomdotsize/R/6_Ratio_250_L_6_R_24.png","img/900/equaldotsize/R/6_Ratio_900_L_9_R_10.png","img/750/randomdotsizeEA/R/15_Ratio_750_L_9_R_12.png","img/500/randomdotsize/L/11_Ratio_500_L_12_R_6.png","img/750/equaldotanddens/L/6_Ratio_750_L_24_R_18.png","img/900/equaldotanddens/L/8_Ratio_900_L_20_R_18.png","img/250/equaldotanddens/L/2_Ratio_250_L_16_R_4.png","img/250/equaldotsize/L/14_Ratio_250_L_12_R_3.png","img/500/equaldotsize/R/14_Ratio_500_L_5_R_10.png","img/900/randomdotsizeEA/L/10_Ratio_900_L_20_R_18.png","img/250/randomdotsize/L/3_Ratio_250_L_8_R_2.png","img/750/randomdotsize/L/14_Ratio_750_L_8_R_6.png","img/900/equaldotanddens/L/1_Ratio_900_L_10_R_9.png","img/900/equaldotanddens/L/1_Ratio_900_L_10_R_9.png","img/900/randomdotsize/R/9_Ratio_900_L_18_R_20.png","img/250/randomdotsizeEA/R/12_Ratio_250_L_5_R_20.png","img/750/randomdotsizeEA/R/3_Ratio_750_L_15_R_20.png","img/250/equaldotsize/L/5_Ratio_250_L_24_R_6.png","img/500/equaldotsize/L/10_Ratio_500_L_4_R_2.png","img/900/equaldotsize/L/8_Ratio_900_L_20_R_18.png","img/250/randomdotsizeEA/R/4_Ratio_250_L_3_R_12.png","img/500/equaldotanddens/L/11_Ratio_500_L_12_R_6.png","img/500/randomdotsizeEA/L/5_Ratio_500_L_4_R_2.png","img/900/randomdotsize/L/10_Ratio_900_L_20_R_18.png","img/250/equaldotanddens/L/15_Ratio_250_L_12_R_3.png","img/250/equaldotsize/L/14_Ratio_250_L_12_R_3.png","img/250/equaldotsize/L/2_Ratio_250_L_16_R_4.png","img/750/equaldotsize/R/15_Ratio_750_L_9_R_12.png","img/750/equaldotsize/L/13_Ratio_750_L_8_R_6.png","img/500/equaldotsize/R/1_Ratio_500_L_9_R_18.png","img/900/randomdotsize/R/3_Ratio_900_L_9_R_10.png","img/900/equaldotsize/L/2_Ratio_900_L_20_R_18.png","img/250/randomdotsizeEA/L/3_Ratio_250_L_8_R_2.png","img/750/equaldotsize/L/8_Ratio_750_L_4_R_3.png","img/900/randomdotsizeEA/L/8_Ratio_900_L_20_R_18.png","img/500/randomdotsize/R/12_Ratio_500_L_1_R_2.png","img/900/equaldotanddens/R/14_Ratio_900_L_18_R_20.png","img/750/equaldotsize/R/11_Ratio_750_L_12_R_16.png","img/750/equaldotanddens/R/11_Ratio_750_L_12_R_16.png","img/500/randomdotsizeEA/L/5_Ratio_500_L_4_R_2.png","img/750/randomdotsizeEA/R/11_Ratio_750_L_12_R_16.png","img/900/randomdotsize/L/8_Ratio_900_L_20_R_18.png","img/900/equaldotanddens/L/4_Ratio_900_L_20_R_18.png","img/750/equaldotanddens/R/3_Ratio_750_L_15_R_20.png","img/500/equaldotsize/R/9_Ratio_500_L_2_R_4.png","img/250/randomdotsize/L/2_Ratio_250_L_16_R_4.png","img/500/randomdotsizeEA/L/5_Ratio_500_L_4_R_2.png","img/500/randomdotsizeEA/L/4_Ratio_500_L_18_R_9.png","img/500/equaldotanddens/L/4_Ratio_500_L_18_R_9.png","img/500/randomdotsizeEA/R/2_Ratio_500_L_3_R_6.png","img/750/equaldotsize/R/4_Ratio_750_L_15_R_20.png","img/750/randomdotsize/R/11_Ratio_750_L_12_R_16.png","img/750/randomdotsize/R/2_Ratio_750_L_6_R_8.png","img/500/equaldotsize/R/1_Ratio_500_L_9_R_18.png","img/900/equaldotsize/R/9_Ratio_900_L_18_R_20.png","img/500/randomdotsizeEA/R/12_Ratio_500_L_1_R_2.png","img/500/randomdotsize/L/5_Ratio_500_L_4_R_2.png","img/500/randomdotsize/L/8_Ratio_500_L_8_R_4.png","img/250/randomdotsizeEA/R/12_Ratio_250_L_5_R_20.png","img/750/equaldotanddens/L/9_Ratio_750_L_4_R_3.png","img/250/randomdotsizeEA/R/6_Ratio_250_L_6_R_24.png","img/250/equaldotanddens/L/7_Ratio_250_L_8_R_2.png","img/750/equaldotsize/L/13_Ratio_750_L_8_R_6.png","img/900/randomdotsizeEA/R/7_Ratio_900_L_9_R_10.png","img/250/equaldotsize/L/14_Ratio_250_L_12_R_3.png","img/250/equaldotanddens/L/14_Ratio_250_L_12_R_3.png","img/900/randomdotsizeEA/L/10_Ratio_900_L_20_R_18.png","img/750/equaldotanddens/L/13_Ratio_750_L_8_R_6.png","img/500/randomdotsize/R/1_Ratio_500_L_9_R_18.png","img/900/equaldotsize/L/10_Ratio_900_L_20_R_18.png","img/500/randomdotsize/L/4_Ratio_500_L_18_R_9.png","img/750/equaldotanddens/L/10_Ratio_750_L_4_R_3.png","img/900/randomdotsizeEA/L/10_Ratio_900_L_20_R_18.png","img/500/randomdotsize/L/11_Ratio_500_L_12_R_6.png","img/500/equaldotanddens/R/14_Ratio_500_L_5_R_10.png","img/250/equaldotanddens/L/2_Ratio_250_L_16_R_4.png"],"Rat0":[["12_Ratio_0_L_9_R_0.png","13_Ratio_0_L_6_R_0.png","5_Ratio_0_L_2_R_0.png","6_Ratio_0_L_4_R_0.png","8_Ratio_0_L_6_R_0.png"],["1_Ratio_0_L_0_R_17.png","10_Ratio_0_L_0_R_22.png","11_Ratio_0_L_0_R_1.png","14_Ratio_0_L_0_R_24.png","15_Ratio_0_L_0_R_4.png","2_Ratio_0_L_0_R_5.png","3_Ratio_0_L_0_R_17.png","4_Ratio_0_L_0_R_7.png","7_Ratio_0_L_0_R_19.png","9_Ratio_0_L_0_R_15.png"]],"Rat250":[["1_Ratio_250_L_8_R_2.png","14_Ratio_250_L_12_R_3.png","15_Ratio_250_L_12_R_3.png","2_Ratio_250_L_16_R_4.png","3_Ratio_250_L_8_R_2.png","5_Ratio_250_L_24_R_6.png","7_Ratio_250_L_8_R_2.png"],["10_Ratio_250_L_4_R_16.png","11_Ratio_250_L_3_R_12.png","12_Ratio_250_L_5_R_20.png","13_Ratio_250_L_2_R_8.png","4_Ratio_250_L_3_R_12.png","6_Ratio_250_L_6_R_24.png","8_Ratio_250_L_1_R_4.png","9_Ratio_250_L_3_R_12.png"]],"Rat500":[["10_Ratio_500_L_4_R_2.png","11_Ratio_500_L_12_R_6.png","13_Ratio_500_L_12_R_6.png","4_Ratio_500_L_18_R_9.png","5_Ratio_500_L_4_R_2.png","7_Ratio_500_L_10_R_5.png","8_Ratio_500_L_8_R_4.png"],["1_Ratio_500_L_9_R_18.png","12_Ratio_500_L_1_R_2.png","14_Ratio_500_L_5_R_10.png","15_Ratio_500_L_1_R_2.png","2_Ratio_500_L_3_R_6.png","3_Ratio_500_L_10_R_20.png","6_Ratio_500_L_9_R_18.png","9_Ratio_500_L_2_R_4.png"]],"Rat750":[["1_Ratio_750_L_20_R_15.png","10_Ratio_750_L_4_R_3.png","13_Ratio_750_L_8_R_6.png","14_Ratio_750_L_8_R_6.png","6_Ratio_750_L_24_R_18.png","8_Ratio_750_L_4_R_3.png","9_Ratio_750_L_4_R_3.png"],["11_Ratio_750_L_12_R_16.png","12_Ratio_750_L_3_R_4.png","15_Ratio_750_L_9_R_12.png","2_Ratio_750_L_6_R_8.png","3_Ratio_750_L_15_R_20.png","4_Ratio_750_L_15_R_20.png","5_Ratio_750_L_15_R_20.png","7_Ratio_750_L_3_R_4.png"]],"Rat900":[["1_Ratio_900_L_10_R_9.png","10_Ratio_900_L_20_R_18.png","2_Ratio_900_L_20_R_18.png","4_Ratio_900_L_20_R_18.png","8_Ratio_900_L_20_R_18.png"],["11_Ratio_900_L_18_R_20.png","12_Ratio_900_L_18_R_20.png","13_Ratio_900_L_18_R_20.png","14_Ratio_900_L_18_R_20.png","15_Ratio_900_L_9_R_10.png","3_Ratio_900_L_9_R_10.png","5_Ratio_900_L_9_R_10.png","6_Ratio_900_L_9_R_10.png","7_Ratio_900_L_9_R_10.png","9_Ratio_900_L_18_R_20.png"]],"Rat1000":[["10_Ratio_1000_L_16_R_16.png","11_Ratio_1000_L_6_R_6.png","12_Ratio_1000_L_14_R_14.png","13_Ratio_1000_L_20_R_20.png","15_Ratio_1000_L_15_R_15.png","2_Ratio_1000_L_17_R_17.png","4_Ratio_1000_L_9_R_9.png","5_Ratio_1000_L_6_R_6.png","6_Ratio_1000_L_19_R_19.png","8_Ratio_1000_L_14_R_14.png","9_Ratio_1000_L_25_R_25.png"],["1_Ratio_1000_L_1_R_1.png","14_Ratio_1000_L_17_R_17.png","3_Ratio_1000_L_17_R_17.png","7_Ratio_1000_L_6_R_6.png"]]}},{"start_time":1549382036099,"click_time":1549382038815,"finger_time":1549382037035,"fix_duration":1201.579854013374,"trial":1,"RT":936,"MT":1780,"sideResp":2,"stimulus":"img/750/equaldotanddens/R/15_Ratio_750_L_9_R_12.png","xmouse":[382,382,382,382,381,381.3330078125,381.3330078125,381.3330078125,381.3330078125,381.3330078125,381.3330078125,381.3330078125,381,381,381,380.6669921875,380.6669921875,380.6669921875,380.6669921875,380.6669921875,381.3330078125,381.3330078125,381.3330078125,381.3330078125,381.3330078125,381.3330078125,381,381,382,382,382,382,382,382,382.6669921875,382.6669921875,382.6669921875,383.3330078125,383.3330078125,383.3330078125,387,387,394,398,400,403.3330078125,410,414.6669921875,417,423.3330078125,428,436,438,441.3330078125,443.3330078125,446.6669921875,450,454,457,459.3330078125,463.3330078125,470.6669921875,473,480,488,493,505.3330078125,511.3330078125,515,516,519,524,526.6669921875,532,539.3330078125,545.3330078125,563.3330078125,568,571.3330078125,572.6669921875,574.6669921875,579.3330078125,582,584,588.6669921875,590.6669921875,600,602,606,608.6669921875,612,617.3330078125,620,622,624,625.3330078125,630,632,635.3330078125,636.6669921875,639,643.3330078125,646.6669921875,648,651,654,658.6669921875,660.6669921875,663.3330078125,666,667,671,674,676.6669921875,678,680,683.3330078125,685,686,686.6669921875,687.3330078125,688.6669921875,689.3330078125,690,690.6669921875,692,693,696,697.3330078125,699.3330078125,700,702,702,703,704,705.3330078125],"ymouse":[823,823,823,823,822,821.3330078125,821.3330078125,821.3330078125,820.6669921875,820.6669921875,820.6669921875,820.6669921875,820,820,820,819.3330078125,819.3330078125,818.6669921875,818.6669921875,818.6669921875,818.6669921875,818.6669921875,818.6669921875,817.3330078125,817.3330078125,816.6669921875,816,816,815,815,814,814,814,813,812.6669921875,812.6669921875,812.6669921875,810.6669921875,810.6669921875,810.6669921875,806,806,796,790,786,778.6669921875,764,754.6669921875,750,740.6669921875,732,720,716,709.3330078125,705.3330078125,698.6669921875,688,681,674,670.6669921875,663.3330078125,646.6669921875,638,612,578,564,533.3330078125,520.6669921875,512,508,500,483,474.6669921875,458,435.3330078125,418.6669921875,374.6669921875,358,347.3330078125,343.3330078125,333.3330078125,316.6669921875,304,298,285.3330078125,279.3330078125,258,254,246,242.6669921875,236,229.33299255371094,224,222,218,215.33299255371094,206,203,199.33299255371094,197.33299255371094,194,188.66700744628906,184.66700744628906,182,178,173,166.66700744628906,164.66700744628906,160.66700744628906,156,154,148,144,140.66700744628906,138,135,130.66700744628906,128,127,125.3330078125,125.3330078125,123.3330078125,122.6669921875,122,120.6669921875,119,118,114,112.6669921875,110.66699981689453,109,105,104,102,100,98.66699981689453],"timestamp_mouse":[15,53,55,75,95,115,135,155,175,196,215,236,255,275,295,318,335,358,375,396,415,435,455,475,495,515,535,555,575,595,616,636,655,675,695,715,735,755,776,795,815,835,855,875,895,916,936,955,975,995,1016,1036,1055,1075,1095,1115,1138,1155,1175,1195,1215,1238,1255,1275,1295,1316,1339,1355,1375,1395,1415,1437,1455,1475,1495,1515,1537,1557,1575,1595,1616,1636,1655,1676,1696,1715,1738,1756,1775,1795,1815,1836,1856,1875,1896,1915,1936,1955,1976,1996,2015,2038,2055,2075,2096,2115,2136,2156,2177,2195,2215,2237,2255,2275,2295,2315,2336,2356,2375,2395,2415,2437,2456,2476,2495,2515,2535,2555,2575,2595,2615,2638,2655,2676,2695,2715],"xSR":350,"ySR":768,"xT1":30,"yT1":0,"xT2":670,"yT2":0,"toosoon":0,"cond_shown":"equaldotanddens","ratio_trial":750,"smaller_num":"9","larger_num":"12","correct_side":2,"subjID":"43wm","gender":"No_gender","age":"No_age","school":"No_school"},{"start_time":1549382046087,"click_time":1549382048295,"finger_time":1549382047174,"fix_duration":1344.5257481147212,"trial":2,"RT":1087,"MT":1121,"sideResp":2,"stimulus":"img/900/equaldotanddens/R/7_Ratio_900_L_9_R_10.png","xmouse":[394,394,394,396,396,396,396,396,396,396,396,396,396,396,396,396,396,396,396,396,396,396,396,396.6669921875,396.6669921875,396.6669921875,396.6669921875,396.6669921875,396.6669921875,396.6669921875,396.6669921875,396.6669921875,396.6669921875,396.6669921875,396.6669921875,396.6669921875,396.6669921875,396.6669921875,396.6669921875,396.6669921875,396.6669921875,396.6669921875,396.6669921875,391,391,390,389,388,388.6669921875,388,386,385.3330078125,382,379,374,366,360,356.6669921875,351,342,334,330,323.3330078125,314.6669921875,310,292.6669921875,288.6669921875,280,276.6669921875,270,262,258,257.3330078125,257.3330078125,260,262,272.6669921875,286,294,308,332,352.6669921875,363,382.6669921875,408,450,462,483,492,511.3330078125,535.3330078125,548,556,568,582,606,615.3330078125,631.3330078125,648,655.3330078125,673,684,690,692.6669921875,697,701.3330078125,704,705.3330078125,707,710],"ymouse":[818,818,818,818,818,818,818,818,818,818,818,818,818,820,820,820,820,820,820,820,820,820,820,820.6669921875,820.6669921875,820.6669921875,820.6669921875,820.6669921875,820.6669921875,820.6669921875,820.6669921875,820.6669921875,820.6669921875,819.3330078125,819.3330078125,819.3330078125,819.3330078125,819.3330078125,819.3330078125,819.3330078125,819.3330078125,819.3330078125,819.3330078125,810,810,804,802,800,796.6669921875,787,779,775.3330078125,768,764,756,743,734,729.3330078125,718,697,681,674,658.6669921875,640.6669921875,630,596.6669921875,589.3330078125,574,569.3330078125,559,544,537,534.6669921875,530.6669921875,527,526,520.6669921875,514,510,501,486,474.6669921875,468,456.6669921875,440,411,402,384,374,357.3330078125,332.6669921875,314,306,288,268,238,226.66700744628906,205.33299255371094,185,176.66700744628906,152,140,132,128.66700744628906,122,115.3330078125,111,108.66699981689453,104,98],"timestamp_mouse":[17,51,67,87,107,128,147,167,188,207,227,248,267,287,308,327,347,368,387,409,427,448,468,487,507,527,547,568,588,607,627,648,667,687,707,727,747,767,787,809,831,847,867,887,908,928,947,967,987,1008,1028,1047,1067,1087,1107,1127,1148,1167,1188,1208,1227,1247,1267,1287,1307,1329,1347,1367,1387,1408,1429,1447,1468,1488,1507,1527,1547,1567,1587,1608,1627,1647,1667,1687,1708,1727,1747,1767,1787,1808,1828,1847,1868,1887,1908,1927,1948,1967,1987,2007,2028,2048,2067,2087,2107,2127,2147,2167,2187,2207],"xSR":350,"ySR":768,"xT1":30,"yT1":0,"xT2":670,"yT2":0,"toosoon":0,"cond_shown":"equaldotanddens","ratio_trial":900,"smaller_num":"9","larger_num":"10","correct_side":2,"subjID":"43wm","gender":"No_gender","age":"No_age","school":"No_school"},{"start_time":1549382050248,"click_time":1549382051735,"finger_time":1549382051395,"fix_duration":443.87381898240585,"trial":3,"RT":1147,"MT":340,"sideResp":1,"stimulus":"img/250/randomdotsize/L/15_Ratio_250_L_12_R_3.png","xmouse":[374.6669921875,374,374,374,374,374,374,374,373.3330078125,373,373.3330078125,373.3330078125,373.3330078125,373.3330078125,373,373,374,374,374,374,374,374,374,374,374,374,374,374,374,374,374,374,374,374,374,374,374,374,374,372.6669921875,372,372,372,372,372,372,372,371,371,370,368,368,366,364,357.3330078125,355.3330078125,351.3330078125,348.6669921875,342,325.3330078125,310,288,276,251.3330078125,218.66700744628906,210,196,178.66700744628906,171.33299255371094,150,143.33299255371094,138.66700744628906,136,131.33299255371094,111.33300018310547],"ymouse":[806.6669921875,806,806,805,805,805,805,804,804.6669921875,804,803.3330078125,803.3330078125,802.6669921875,802.6669921875,802,802,801,801,801,800,800,800,800,800,800,800,800,800,799,799,799,799,799,799,799,799,799,799,799,798.6669921875,798,798,798,798,798,798,798,798,798,798,796,795,792,790,781.3330078125,779.3330078125,774.6669921875,771.3330078125,760,711.3330078125,662,616,593,546.6669921875,467.3330078125,439,386,338.6669921875,316.6669921875,256,212.66700744628906,170.66700744628906,148,107.33300018310547,66.66699981689453],"timestamp_mouse":[9,42,46,68,86,107,126,147,167,187,207,226,246,266,286,306,327,346,367,386,406,427,446,466,486,506,526,547,569,588,606,626,647,666,686,706,726,747,766,786,807,826,847,866,886,907,926,946,968,986,1006,1027,1046,1068,1088,1107,1126,1147,1167,1193,1207,1226,1246,1266,1289,1306,1326,1346,1367,1388,1407,1426,1446,1466,1486],"xSR":350,"ySR":768,"xT1":30,"yT1":0,"xT2":670,"yT2":0,"toosoon":0,"cond_shown":"randomdotsize","ratio_trial":250,"smaller_num":"3","larger_num":"12","correct_side":1,"subjID":"43wm","gender":"No_gender","age":"No_age","school":"No_school"},{"start_time":1549382053691,"click_time":1549382055256,"finger_time":1549382054875,"fix_duration":531.2914378516524,"trial":4,"RT":1184,"MT":381,"sideResp":1,"stimulus":"img/750/equaldotsize/L/9_Ratio_750_L_4_R_3.png","xmouse":[392.6669921875,392.6669921875,392.6669921875,392.6669921875,392.6669921875,394,394,394,394,394,394,394,394,394,394,396,396,396,396,396,396,396,396,396,396,398,398,398,398,398,398,398,398,398,398,398,398.6669921875,398.6669921875,399,399,399.3330078125,399.3330078125,400,400,400,400,400.6669921875,400,400.6669921875,401,401.3330078125,401,402,402,402,402,401,401.3330078125,398.6669921875,394,391,382,376,362,333,314,307.3330078125,296.6669921875,284.6669921875,273.3330078125,266,249.3330078125,238.66700744628906,184,170,144,132.66700744628906,114,96],"ymouse":[806.6669921875,806.6669921875,806.6669921875,806.6669921875,806.6669921875,804,804,804,804,804,804,804,804,804,804,802,802,802,802,802,802,802,802,802,802,802,802,802,802,802,802,802,802,800,800,800,800.6669921875,800.6669921875,800,800,799.3330078125,799.3330078125,798,797,796,796,794.6669921875,794,793.3330078125,792,791.3330078125,790,789,786,785,783,782,779.3330078125,773.3330078125,766,762,752,745,732,702,672,657.3330078125,624.6669921875,564.6669921875,516.6669921875,492,438.6669921875,415.3330078125,318,292,242,218.66700744628906,170,99],"timestamp_mouse":[4,41,44,64,84,103,123,144,163,183,203,223,245,263,283,304,324,343,364,383,404,424,444,463,484,503,523,543,563,583,603,623,643,665,683,703,724,743,766,783,803,823,843,863,883,904,923,943,963,986,1003,1023,1043,1065,1083,1103,1123,1143,1164,1184,1204,1223,1243,1264,1283,1303,1324,1343,1365,1384,1403,1424,1444,1464,1484,1503,1523,1544,1565],"xSR":350,"ySR":768,"xT1":30,"yT1":0,"xT2":670,"yT2":0,"toosoon":0,"cond_shown":"equaldotsize","ratio_trial":750,"smaller_num":"3","larger_num":"4","correct_side":1,"subjID":"43wm","gender":"No_gender","age":"No_age","school":"No_school"},{"start_time":1549382056567,"click_time":1549382058096,"finger_time":1549382057754,"fix_duration":250,"trial":5,"RT":1187,"MT":342,"sideResp":2,"stimulus":"img/750/randomdotsize/L/9_Ratio_750_L_4_R_3.png","xmouse":[375.3330078125,375.3330078125,374,373.3330078125,372.6669921875,372.6669921875,372.6669921875,372.6669921875,372.6669921875,372.6669921875,372.6669921875,372.6669921875,372.6669921875,372.6669921875,368.6669921875,368.6669921875,368.6669921875,368.6669921875,368.6669921875,368.6669921875,368.6669921875,368.6669921875,368.6669921875,368.6669921875,365,365,365,365,365,365,365,365,365,365,363,363,363,363,363,363,363,363,363,363,363.3330078125,363.3330078125,363.3330078125,363.3330078125,363.3330078125,363.3330078125,363.3330078125,363.3330078125,363.3330078125,363.3330078125,363.3330078125,372.6669921875,379.3330078125,384,398,430,447,456,476.6669921875,487.3330078125,538,551.3330078125,574.6669921875,584,605.3330078125,634,653.3330078125,660.6669921875,677.3330078125,690.6669921875,698,716],"ymouse":[818.6669921875,818.6669921875,822,821.3330078125,820.6669921875,820.6669921875,820.6669921875,820.6669921875,820.6669921875,820.6669921875,820.6669921875,820.6669921875,820.6669921875,820.6669921875,823.3330078125,823.3330078125,823.3330078125,823.3330078125,823.3330078125,823.3330078125,823.3330078125,823.3330078125,823.3330078125,823.3330078125,826,826,826,826,826,826,826,826,826,826,826,826,826,826,826,826,826,826,826,826,824.6669921875,824.6669921875,824.6669921875,824.6669921875,824.6669921875,824.6669921875,824.6669921875,824.6669921875,824.6669921875,824.6669921875,824.6669921875,801.3330078125,789.3330078125,783,764,716,684,666,627.3330078125,606.6669921875,512,486.6669921875,435.3330078125,410,357.3330078125,282,236.66700744628906,215.33299255371094,176.66700744628906,142.66700744628906,128,90],"timestamp_mouse":[7,48,67,87,107,127,148,167,188,207,227,247,267,289,309,327,347,367,388,410,427,447,467,487,510,528,548,567,587,607,627,647,668,687,708,728,747,767,787,808,827,847,868,888,908,927,947,967,987,1009,1029,1047,1067,1087,1107,1127,1147,1167,1187,1210,1228,1247,1267,1287,1309,1328,1347,1368,1387,1411,1428,1447,1467,1487,1507,1529],"xSR":350,"ySR":768,"xT1":30,"yT1":0,"xT2":670,"yT2":0,"toosoon":0,"cond_shown":"randomdotsize","ratio_trial":750,"smaller_num":"3","larger_num":"4","correct_side":1,"subjID":"43wm","gender":"No_gender","age":"No_age","school":"No_school"},{"start_time":1549382059565,"click_time":1549382061075,"finger_time":1549382060754,"fix_duration":327.32651425281057,"trial":6,"RT":1189,"MT":321,"sideResp":1,"stimulus":"img/500/randomdotsizeEA/L/5_Ratio_500_L_4_R_2.png","xmouse":[370,371.3330078125,371.3330078125,363.3330078125,360.6669921875,360,360,360,360,360,364,364,364,364,364,364,364,364,364,364,365,365,365,365,365,365,365,365,365,365,368,368,368,368,368,368,368,368,368,368,372,372,372,372,372,372,372,372,372,372,370,370,370,370,370,368.6669921875,366,364.6669921875,356,349.3330078125,317.3330078125,312,300,294,282.6669921875,257.3330078125,238.66700744628906,229.33299255371094,207,183.33299255371094,170,132.66700744628906,113.33300018310547,106,95.33300018310547],"ymouse":[807,806.6669921875,806.6669921875,796.6669921875,794.6669921875,794,794,794,794,794,798,798,798,798,798,798,798,798,798,798,798,798,798,798,798,798,798,798,798,798,800,800,800,800,800,800,800,800,800,800,799,799,799,799,799,799,799,799,799,799,798,798,798,798,798,790.6669921875,786,781.3330078125,764,750.6669921875,687.3330078125,671,632,610,565.3330078125,497.3330078125,448.6669921875,422.6669921875,366,309.3330078125,282,205.33299255371094,155.33299255371094,131,84.66699981689453],"timestamp_mouse":[11,49,69,89,109,129,149,169,189,209,229,249,269,289,309,330,349,369,390,410,431,449,469,490,509,531,549,570,590,610,630,649,669,689,709,729,749,769,790,810,829,849,869,889,910,929,949,969,989,1009,1029,1050,1069,1089,1110,1132,1149,1169,1189,1209,1232,1249,1269,1289,1310,1330,1349,1369,1389,1409,1429,1451,1469,1489,1510],"xSR":350,"ySR":768,"xT1":30,"yT1":0,"xT2":670,"yT2":0,"toosoon":0,"cond_shown":"randomdotsizeEA","ratio_trial":500,"smaller_num":"2","larger_num":"4","correct_side":1,"subjID":"43wm","gender":"No_gender","age":"No_age","school":"No_school"},{"start_time":1549382062597,"click_time":1549382063616,"finger_time":1549382063417,"fix_duration":540.5578587842645,"trial":7,"RT":820,"MT":199,"sideResp":2,"stimulus":"img/250/randomdotsize/R/9_Ratio_250_L_3_R_12.png","xmouse":[377,377,377,377,377,378,378,378,378,378,378,378,378,378,378,380,380,380,380,380,380,380,380,380,380,381.3330078125,381.3330078125,381.3330078125,381.3330078125,381.3330078125,381.3330078125,381.3330078125,381.3330078125,381.3330078125,381.3330078125,380,380,380,380,454,471.3330078125,513.3330078125,536,584.6669921875,652,682,689.3330078125,692,692,720.6669921875],"ymouse":[822,822,822,822,822,822,822,822,822,822,822,822,822,822,822,824,824,824,824,824,824,824,824,824,824,824.6669921875,824.6669921875,824.6669921875,824.6669921875,824.6669921875,824.6669921875,824.6669921875,824.6669921875,824.6669921875,824.6669921875,809,809,809,809,606,571.3330078125,493.3330078125,452,364.6669921875,242,178,155.33299255371094,126,113,37.33300018310547],"timestamp_mouse":[44,57,77,97,117,137,157,178,197,218,238,257,278,297,317,337,357,377,397,417,437,457,477,497,517,537,557,577,597,617,637,658,677,697,718,744,757,777,800,820,837,857,877,898,918,937,957,977,998,1018],"xSR":350,"ySR":768,"xT1":30,"yT1":0,"xT2":670,"yT2":0,"toosoon":0,"cond_shown":"randomdotsize","ratio_trial":250,"smaller_num":"3","larger_num":"12","correct_side":2,"subjID":"43wm","gender":"No_gender","age":"No_age","school":"No_school"},{"start_time":1549382066701,"click_time":1549382067756,"finger_time":1549382067474,"fix_duration":1124.2669286086932,"trial":8,"RT":773,"MT":282,"sideResp":2,"stimulus":"img/750/randomdotsizeEA/L/1_Ratio_750_L_20_R_15.png","xmouse":[398,398,398,398,398,398,398,398,398,398,398,398,398,398,398,398,398,398.6669921875,398.6669921875,398.6669921875,398.6669921875,398.6669921875,398.6669921875,398.6669921875,398.6669921875,398.6669921875,400,400,400.6669921875,400.6669921875,400.6669921875,401,401,401,401,401,404,413,421.3330078125,440,448.6669921875,482,494,530.6669921875,551.3330078125,587,638.6669921875,665.3330078125,676.6669921875,687,689.3330078125,689,688],"ymouse":[813,813,813,813,813,813,816,816,816,816,816,816,816,816,816,816,816,815.3330078125,815.3330078125,815.3330078125,815.3330078125,815.3330078125,815.3330078125,815.3330078125,815.3330078125,815.3330078125,812,812,811.3330078125,811.3330078125,811.3330078125,810,810,810,810,810,800,782,765.3330078125,723,700.6669921875,592,560,493.3330078125,458.6669921875,392,289.3330078125,225.33299255371094,195.33299255371094,146,113.3330078125,102,81],"timestamp_mouse":[13,46,54,73,93,113,135,153,173,193,214,233,253,274,293,313,333,355,373,393,413,436,454,473,493,513,535,553,574,593,613,634,655,673,693,714,736,753,773,793,813,836,854,873,896,913,938,953,974,993,1013,1033,1055],"xSR":350,"ySR":768,"xT1":30,"yT1":0,"xT2":670,"yT2":0,"toosoon":0,"cond_shown":"randomdotsizeEA","ratio_trial":750,"smaller_num":"15","larger_num":"20","correct_side":1,"subjID":"43wm","gender":"No_gender","age":"No_age","school":"No_school"},{"start_time":1549382071288,"click_time":1549382072614,"finger_time":1549382072295,"fix_duration":1490.5833747816707,"trial":9,"RT":1007,"MT":319,"sideResp":1,"stimulus":"img/900/randomdotsizeEA/R/11_Ratio_900_L_18_R_20.png","xmouse":[394.6669921875,394.6669921875,394.6669921875,394.6669921875,394.6669921875,394.6669921875,394.6669921875,394,394,394,394.6669921875,394.6669921875,394.6669921875,394.6669921875,394.6669921875,394.6669921875,394.6669921875,394.6669921875,394,394,394,394,394,394,394,394,394,394.6669921875,394.6669921875,394,394,394,394,394,394,394,394,394,394,394,394,394,394,393,393,393,393,393,393,393,334,334,304,294,260,252,234.66700744628906,226.66700744628906,208,180,163,153.33299255371094,136,118,110,84.66699981689453,70],"ymouse":[832.6669921875,832.6669921875,832.6669921875,832.6669921875,832.6669921875,833.3330078125,833.3330078125,834,834,834,834.6669921875,834.6669921875,834.6669921875,834.6669921875,834.6669921875,834.6669921875,835.3330078125,835.3330078125,836,836,836,836,836,836,836,836,836,836.6669921875,836.6669921875,836,836,836,837,837,837,837,838,838,838,838,838,838,838,838,838,838,838,838,838,838,774,774,717,696,595,570,519.3330078125,493.3330078125,444,370,318,292.6669921875,240,194,172,111.33300018310547,74],"timestamp_mouse":[13,43,46,67,86,106,126,146,166,186,206,226,246,266,287,306,326,346,366,387,406,427,447,466,486,507,526,546,566,587,606,626,646,666,686,706,726,746,766,787,806,826,846,866,886,906,927,946,966,986,1007,1026,1046,1066,1088,1108,1127,1148,1167,1189,1206,1226,1246,1266,1286,1306,1326],"xSR":350,"ySR":768,"xT1":30,"yT1":0,"xT2":670,"yT2":0,"toosoon":0,"cond_shown":"randomdotsizeEA","ratio_trial":900,"smaller_num":"18","larger_num":"20","correct_side":2,"subjID":"43wm","gender":"No_gender","age":"No_age","school":"No_school"},{"start_time":1549382074860,"click_time":1549382076218,"finger_time":1549382075897,"fix_duration":1221.9574666378203,"trial":10,"RT":1037,"MT":321,"sideResp":2,"stimulus":"img/900/equaldotsize/R/9_Ratio_900_L_18_R_20.png","xmouse":[398,398,398,398,398,398,398,398,398,398,398,398,398,398,398.6669921875,398.6669921875,398.6669921875,398.6669921875,398.6669921875,398.6669921875,398.6669921875,398.6669921875,398.6669921875,398.6669921875,398,398,398,398,398,398,398,398,398,398,398,398,398,398,398,398,398,398,398,398,399,399,399,399,399,399,399,412,420,424,431.3330078125,436,448,472,494,506,532,572.6669921875,602,616.6669921875,640,664.6669921875,679,728.6669921875],"ymouse":[796,796,796,796,796,796,796,796,796,796,796,796,796,796,797.3330078125,797.3330078125,797.3330078125,797.3330078125,797.3330078125,797.3330078125,797.3330078125,797.3330078125,797.3330078125,797.3330078125,798,798,798,798,798,798,798,798,798,798,800,800,800,800,800,800,800,800,800,800,798,798,798,798,798,798,798,740,706,688,651.3330078125,630,586,509,451,422,366,286.6669921875,234,208.66700744628906,168,133.33299255371094,118,63.33300018310547],"timestamp_mouse":[15,43,54,74,94,115,134,154,174,195,215,234,254,274,295,314,334,354,374,394,414,434,454,474,494,514,534,554,574,595,614,634,654,675,694,714,736,754,774,794,814,834,854,874,894,914,934,954,974,994,1015,1037,1056,1074,1094,1114,1134,1154,1174,1194,1215,1236,1253,1274,1294,1314,1334,1358],"xSR":350,"ySR":768,"xT1":30,"yT1":0,"xT2":670,"yT2":0,"toosoon":0,"cond_shown":"equaldotsize","ratio_trial":900,"smaller_num":"18","larger_num":"20","correct_side":2,"subjID":"43wm","gender":"No_gender","age":"No_age","school":"No_school"},{"start_time":1549382077747,"click_time":1549382078894,"finger_time":1549382078616,"fix_duration":427.3019206751375,"trial":11,"RT":869,"MT":278,"sideResp":1,"stimulus":"img/250/randomdotsize/L/14_Ratio_250_L_12_R_3.png","xmouse":[389.3330078125,389.3330078125,389.3330078125,389.3330078125,389.3330078125,389.3330078125,389.3330078125,389.3330078125,389.3330078125,389.3330078125,389.3330078125,389.3330078125,389.3330078125,389.3330078125,389.3330078125,389.3330078125,389.3330078125,389.3330078125,389.3330078125,389.3330078125,389.3330078125,389.3330078125,389.3330078125,389.3330078125,389.3330078125,389.3330078125,389,388.6669921875,388,387.3330078125,386.6669921875,386,386,385.3330078125,384,383.3330078125,382.6669921875,381,380,378,378,377.3330078125,376,369.3330078125,363.3330078125,349,333,324,305.3330078125,270.6669921875,250,239.33299255371094,220,210,177.33299255371094,155.33299255371094,136,128.66700744628906],"ymouse":[829.3330078125,829.3330078125,829.3330078125,829.3330078125,829.3330078125,829.3330078125,829.3330078125,829.3330078125,829.3330078125,829.3330078125,829.3330078125,829.3330078125,829.3330078125,829.3330078125,829.3330078125,829.3330078125,829.3330078125,829.3330078125,829.3330078125,828.6669921875,828.6669921875,828.6669921875,828.6669921875,828.6669921875,828.6669921875,826.6669921875,826,825.3330078125,823,821.3330078125,820.6669921875,817,816,813.3330078125,808,804.6669921875,803.3330078125,800,795,792,790,785.3330078125,780,760.6669921875,746.6669921875,708,666,644,595.3330078125,511.3330078125,450,419.3330078125,358,329,235.33299255371094,173.33299255371094,119,96.66699981689453],"timestamp_mouse":[11,41,47,67,87,107,127,147,167,187,207,228,248,267,287,307,328,347,368,387,407,427,448,467,487,507,527,547,569,588,607,627,647,668,687,707,727,747,771,788,807,826,847,869,887,909,927,947,967,992,1007,1027,1047,1067,1089,1107,1127,1147],"xSR":350,"ySR":768,"xT1":30,"yT1":0,"xT2":670,"yT2":0,"toosoon":0,"cond_shown":"randomdotsize","ratio_trial":250,"smaller_num":"3","larger_num":"12","correct_side":1,"subjID":"43wm","gender":"No_gender","age":"No_age","school":"No_school"},{"start_time":1549382084017,"click_time":1549382085134,"finger_time":1549382084877,"fix_duration":1082.0068239424975,"trial":12,"RT":860,"MT":257,"sideResp":1,"stimulus":"img/250/equaldotsize/L/15_Ratio_250_L_12_R_3.png","xmouse":[419,419,419,419,419,419,419,419,419,419,419,419,419,419,419,419,419,419,419,419,419,419,419,419,419,419,419,423.3330078125,423.3330078125,423.3330078125,423.3330078125,422.6669921875,422,422,422.6669921875,422.6669921875,422,422,421.3330078125,418.6669921875,416,407,380,366.6669921875,340,316.6669921875,305.3330078125,272,264,257.3330078125,240,220.66700744628906,200,166,153.33299255371094,126.6669921875],"ymouse":[818,818,818,818,818,818,818,818,818,818,818,818,818,818,818,818,818,818,818,818,818,818,818,818,818,818,818,811.3330078125,811.3330078125,810.6669921875,810.6669921875,810.6669921875,810,810,809.3330078125,809.3330078125,808,808,807.3330078125,805.3330078125,802,794,762,744.6669921875,706,660.6669921875,633.3330078125,492,456,420.6669921875,356,293.3330078125,230,150,128.66700744628906,90.66699981689453],"timestamp_mouse":[17,37,57,77,97,117,137,158,177,197,217,238,257,278,297,317,337,357,377,397,417,437,457,477,497,517,537,557,577,598,617,637,657,677,697,717,737,757,777,798,817,837,860,878,897,918,937,961,977,997,1018,1040,1057,1083,1098,1117],"xSR":350,"ySR":768,"xT1":30,"yT1":0,"xT2":670,"yT2":0,"toosoon":0,"cond_shown":"equaldotsize","ratio_trial":250,"smaller_num":"3","larger_num":"12","correct_side":1,"subjID":"43wm","gender":"No_gender","age":"No_age","school":"No_school"},{"start_time":1549382086995,"click_time":1549382088196,"finger_time":1549382087915,"fix_duration":899.0175177245955,"trial":13,"RT":920,"MT":281,"sideResp":1,"stimulus":"img/750/randomdotsize/L/13_Ratio_750_L_8_R_6.png","xmouse":[414,414,414,414,414,414,414,414,414,414,414,414,414,414.6669921875,414.6669921875,414.6669921875,415.3330078125,415.3330078125,415.3330078125,415,415,415,415,415.3330078125,415.3330078125,415.3330078125,415.3330078125,416,416,415,414.6669921875,414,413.3330078125,411.3330078125,410.6669921875,406.6669921875,406,404,403.3330078125,400,399.3330078125,397,396,392.6669921875,386.6669921875,372.6669921875,366,351.3330078125,336,326,299.3330078125,280,258.6669921875,249.33299255371094,226,188,160.66700744628906,145.33299255371094,118,105,65],"ymouse":[834,834,834,834,834,834,834,834,834,834,834,834,834,833.3330078125,833.3330078125,833.3330078125,832.6669921875,832.6669921875,832.6669921875,832,832,832,832,831.3330078125,831.3330078125,831.3330078125,830.6669921875,830,830,830,828.6669921875,828,827.3330078125,825.3330078125,824.6669921875,821.3330078125,820,818,817.3330078125,812,811.3330078125,808,806,802.6669921875,794.6669921875,770.6669921875,756,724.6669921875,692,674,610.6669921875,562,511.3330078125,485.3330078125,431,347,287.3330078125,257.3330078125,197,168,62],"timestamp_mouse":[10,19,55,60,80,99,119,139,159,179,199,219,240,260,279,299,319,339,359,379,399,419,440,459,479,499,520,540,560,580,600,619,639,659,679,700,719,739,759,781,803,819,840,859,879,901,919,940,962,979,1000,1019,1039,1059,1080,1100,1119,1139,1159,1179,1200],"xSR":350,"ySR":768,"xT1":30,"yT1":0,"xT2":670,"yT2":0,"toosoon":0,"cond_shown":"randomdotsize","ratio_trial":750,"smaller_num":"6","larger_num":"8","correct_side":1,"subjID":"43wm","gender":"No_gender","age":"No_age","school":"No_school"},{"start_time":1549382090218,"click_time":1549382091395,"finger_time":1549382091055,"fix_duration":1094.667589509435,"trial":14,"RT":837,"MT":340,"sideResp":1,"stimulus":"img/750/randomdotsizeEA/L/13_Ratio_750_L_8_R_6.png","xmouse":[391.3330078125,391.3330078125,392.6669921875,393.3330078125,394,394.6669921875,394.6669921875,394.6669921875,394.6669921875,394.6669921875,394.6669921875,394.6669921875,394.6669921875,394.6669921875,394.6669921875,394.6669921875,394,394,394,394,394,394,394,394,394,394,400,400,400,400,400,400,400,400,399.3330078125,399.3330078125,398.6669921875,398,396,392,384.6669921875,376.6669921875,372,365.3330078125,349,342,316,282.6669921875,250.6669921875,220.66700744628906,194,171.33299255371094,164,155.33299255371094,151.33299255371094,145.33299255371094,140.66700744628906,131.33299255371094,126],"ymouse":[843.3330078125,843.3330078125,843.3330078125,843.3330078125,843,843.3330078125,843.3330078125,843.3330078125,842.6669921875,842.6669921875,842.6669921875,842.6669921875,842.6669921875,842.6669921875,842.6669921875,842.6669921875,842,842,842,842,842,842,842,842,842,842,832,832,832,825,822,821,818,816,808.6669921875,806.6669921875,803.3330078125,801,798,788,775.3330078125,756.6669921875,744,719.3330078125,672,654,612,555.3330078125,489.3330078125,426.6669921875,371,319.3330078125,293,229.33299255371094,131.33299255371094,78.66699981689453,56.66699981689453,23.33300018310547,16],"timestamp_mouse":[34,36,57,76,96,117,136,157,176,197,216,236,256,277,297,316,336,356,376,398,416,437,456,476,498,516,536,556,576,602,616,636,656,677,697,716,736,757,776,797,817,837,856,877,898,918,936,958,978,1001,1017,1036,1056,1076,1101,1116,1136,1156,1177],"xSR":350,"ySR":768,"xT1":30,"yT1":0,"xT2":670,"yT2":0,"toosoon":0,"cond_shown":"randomdotsizeEA","ratio_trial":750,"smaller_num":"6","larger_num":"8","correct_side":1,"subjID":"43wm","gender":"No_gender","age":"No_age","school":"No_school"},{"start_time":1549382094386,"click_time":1549382095495,"finger_time":1549382095174,"fix_duration":1443.9238060052153,"trial":15,"RT":788,"MT":321,"sideResp":2,"stimulus":"img/750/equaldotanddens/L/1_Ratio_750_L_20_R_15.png","xmouse":[401.3330078125,401.3330078125,401.3330078125,401.3330078125,399,399,399,399,399,399,399,399,399,399,400,400,400,400,400,400,400,400,400,400,400.6669921875,400.6669921875,400.6669921875,400.6669921875,400.6669921875,400.6669921875,400.6669921875,400.6669921875,400.6669921875,400.6669921875,400,400,400,400,451.3330078125,466,474,490,512,524,532,549.3330078125,581.3330078125,604.6669921875,616,639,660.6669921875,684.6669921875,688,694,700],"ymouse":[826.6669921875,826.6669921875,826.6669921875,826.6669921875,822,822,822,822,822,822,822,822,822,822,822,822,822,822,822,822,822,822,822,822,824.6669921875,824.6669921875,824.6669921875,824.6669921875,824.6669921875,824.6669921875,824.6669921875,824.6669921875,824.6669921875,824.6669921875,816,816,816,816,728.6669921875,692,674,635,572,526,500,449.3330078125,368.6669921875,315.3330078125,289,240,196.66700744628906,143.33299255371094,128,104,85],"timestamp_mouse":[35,68,68,88,108,128,148,169,188,208,228,248,268,288,308,329,348,368,388,409,428,448,468,488,508,528,548,568,588,608,629,648,668,688,708,728,748,770,788,808,829,848,869,888,908,929,950,968,988,1008,1028,1050,1070,1088,1108],"xSR":350,"ySR":768,"xT1":30,"yT1":0,"xT2":670,"yT2":0,"toosoon":0,"cond_shown":"equaldotanddens","ratio_trial":750,"smaller_num":"15","larger_num":"20","correct_side":1,"subjID":"43wm","gender":"No_gender","age":"No_age","school":"No_school"},{"start_time":1549382098181,"click_time":1549382099455,"finger_time":1549382099194,"fix_duration":921.3982786892352,"trial":16,"RT":1013,"MT":261,"sideResp":2,"stimulus":"img/500/randomdotsize/R/1_Ratio_500_L_9_R_18.png","xmouse":[373.3330078125,373.3330078125,373.3330078125,374,374.6669921875,374,375,378,378,392,395.3330078125,399.3330078125,400.6669921875,402,402,402,402,401,401,401,401,401,401,401,401,401,401,400.6669921875,400.6669921875,400.6669921875,400.6669921875,400.6669921875,400.6669921875,400.6669921875,400.6669921875,400.6669921875,400.6669921875,400.6669921875,400.6669921875,400.6669921875,400.6669921875,400.6669921875,400.6669921875,400.6669921875,400.6669921875,400.6669921875,400.6669921875,400.6669921875,400.6669921875,400.6669921875,441.3330078125,456.6669921875,462.6669921875,479.3330078125,524.6669921875,566,590,627.3330078125,642,676.6669921875,680.6669921875,686,688.6669921875,698.6669921875],"ymouse":[847.3330078125,846.6669921875,846.6669921875,842,839.3330078125,836,834,828,828,806,800.6669921875,792.6669921875,788.6669921875,784,781,781,781,782,782,782,782,782,782,782,782,782,782,786.6669921875,786.6669921875,786.6669921875,786.6669921875,786.6669921875,786.6669921875,786.6669921875,786.6669921875,786.6669921875,786.6669921875,789.3330078125,789.3330078125,789.3330078125,789.3330078125,789.3330078125,789.3330078125,789.3330078125,789.3330078125,789.3330078125,789.3330078125,784.6669921875,784.6669921875,784.6669921875,669.3330078125,612.6669921875,584.6669921875,525.3330078125,429.3330078125,364,328,267.3330078125,241,166.66700744628906,154.66700744628906,132,120.6669921875,97.33300018310547],"timestamp_mouse":[17,52,53,76,93,113,134,153,173,196,213,233,253,273,293,314,334,353,373,394,414,433,453,473,493,513,533,554,573,593,613,633,653,673,694,713,733,753,774,793,813,833,853,873,893,913,934,954,973,994,1013,1033,1053,1074,1093,1113,1133,1153,1173,1194,1213,1233,1253,1273],"xSR":350,"ySR":768,"xT1":30,"yT1":0,"xT2":670,"yT2":0,"toosoon":0,"cond_shown":"randomdotsize","ratio_trial":500,"smaller_num":"9","larger_num":"18","correct_side":2,"subjID":"43wm","gender":"No_gender","age":"No_age","school":"No_school"},{"start_time":1549382100626,"click_time":1549382101700,"finger_time":1549382101415,"fix_duration":250,"trial":17,"RT":789,"MT":285,"sideResp":1,"stimulus":"img/250/randomdotsizeEA/L/5_Ratio_250_L_24_R_6.png","xmouse":[394.6669921875,394.6669921875,394.6669921875,394.6669921875,394.6669921875,394.6669921875,394.6669921875,393.3330078125,393.3330078125,393.3330078125,393.3330078125,393.3330078125,393.3330078125,393.3330078125,393.3330078125,393.3330078125,393.3330078125,392.6669921875,392.6669921875,392.6669921875,392.6669921875,392.6669921875,392.6669921875,392.6669921875,392.6669921875,392.6669921875,392.6669921875,392.6669921875,392,392,392,392,392,392.6669921875,392,392.6669921875,392,388,385.3330078125,374.6669921875,356,346,314,289.3330078125,262.6669921875,248,220,206,163.33299255371094,154.66700744628906,137,129,111.33300018310547,86.66699981689453],"ymouse":[808.6669921875,808.6669921875,808.6669921875,808.6669921875,808.6669921875,808.6669921875,808.6669921875,805.3330078125,805.3330078125,805.3330078125,805.3330078125,805.3330078125,805.3330078125,805.3330078125,805.3330078125,805.3330078125,805.3330078125,804.6669921875,804.6669921875,804.6669921875,804.6669921875,804.6669921875,804.6669921875,804.6669921875,804.6669921875,804.6669921875,804.6669921875,804.6669921875,803,803,803,803,803,791.3330078125,790,787.3330078125,784,778,775.3330078125,760.6669921875,732,716,657,609.3330078125,554.6669921875,524,460,426,291.3330078125,259.3330078125,196,168,119.3330078125,63.33300018310547],"timestamp_mouse":[15,41,49,69,89,109,128,151,169,188,208,228,248,268,288,309,328,352,368,388,408,428,448,468,489,508,528,548,569,589,608,628,648,669,688,708,728,751,768,789,809,830,850,869,888,908,928,948,972,988,1008,1028,1048,1073],"xSR":350,"ySR":768,"xT1":30,"yT1":0,"xT2":670,"yT2":0,"toosoon":0,"cond_shown":"randomdotsizeEA","ratio_trial":250,"smaller_num":"6","larger_num":"24","correct_side":1,"subjID":"43wm","gender":"No_gender","age":"No_age","school":"No_school"},{"start_time":1549382103908,"click_time":1549382104854,"finger_time":1549382104616,"fix_duration":1251.0183479527702,"trial":18,"RT":708,"MT":238,"sideResp":2,"stimulus":"img/500/equaldotsize/R/3_Ratio_500_L_10_R_20.png","xmouse":[369.3330078125,370.6669921875,370.6669921875,370.6669921875,370.6669921875,370.6669921875,370.6669921875,370.6669921875,370.6669921875,370.6669921875,370.6669921875,372,372,372,372.6669921875,373,373.3330078125,373.3330078125,374,374,374.6669921875,374.6669921875,375.3330078125,375.3330078125,375.3330078125,376,376.6669921875,376.6669921875,377.3330078125,378,378,378,378,378,378,438,450,476,488,510,523,547,559.3330078125,585.3330078125,614,655,665.3330078125,683.3330078125],"ymouse":[805.3330078125,810.6669921875,810.6669921875,810.6669921875,810.6669921875,810.6669921875,810.6669921875,810.6669921875,810.6669921875,810.6669921875,810.6669921875,815,816,816,817.3330078125,818,818.6669921875,819.3330078125,820,820,820.6669921875,820.6669921875,821.3330078125,821.3330078125,821.3330078125,821,821.3330078125,821.3330078125,820.6669921875,820,820,820,820,820,820,656,626,563,531,440,384,326,297.3330078125,247.3330078125,198,132,113.3330078125,79.33300018310547],"timestamp_mouse":[13,46,46,66,87,106,126,147,166,189,207,226,246,266,289,306,326,346,366,386,406,426,447,466,486,507,526,547,566,587,606,626,646,666,687,708,726,746,766,790,810,829,846,866,887,906,926,946],"xSR":350,"ySR":768,"xT1":30,"yT1":0,"xT2":670,"yT2":0,"toosoon":0,"cond_shown":"equaldotsize","ratio_trial":500,"smaller_num":"10","larger_num":"20","correct_side":2,"subjID":"43wm","gender":"No_gender","age":"No_age","school":"No_school"},{"start_time":1549382108392,"click_time":1549382109356,"finger_time":1549382108854,"fix_duration":1212.8935047577866,"trial":19,"RT":462,"MT":502,"sideResp":2,"stimulus":"img/900/randomdotsizeEA/R/9_Ratio_900_L_18_R_20.png","xmouse":[415,416,416.6669921875,416,416.6669921875,416,416,416,415.3330078125,415.3330078125,415,415.3330078125,414.6669921875,414.6669921875,414.6669921875,414.6669921875,413,414,414.6669921875,414.6669921875,414.6669921875,414.6669921875,425,430,442,450,461.3330078125,478,484.6669921875,487.3330078125,492.6669921875,498,507,516.6669921875,522.6669921875,536.6669921875,544,559,581.3330078125,598.6669921875,606,621.3330078125,633,652,658.6669921875,675.3330078125,693.3330078125,704,728.6669921875],"ymouse":[834,832,830.6669921875,828,827.3330078125,825,825,822,821.3330078125,821.3330078125,820,819.3330078125,818.6669921875,818.6669921875,818.6669921875,818.6669921875,814,811,808.6669921875,808.6669921875,808.6669921875,808.6669921875,778,766,736,720,693.3330078125,654,632.6669921875,620.6669921875,600.6669921875,580,548,525.3330078125,513.3330078125,489.3330078125,477,452,412.6669921875,383.3330078125,369,339.3330078125,308,260,242.6669921875,207.33299255371094,171.33299255371094,152,96.66699981689453],"timestamp_mouse":[4,23,51,62,82,102,122,142,162,182,202,222,246,262,283,302,322,345,365,382,402,422,444,462,482,502,523,544,563,582,602,623,645,664,682,702,722,742,762,782,803,822,842,862,882,902,922,942,964],"xSR":350,"ySR":768,"xT1":30,"yT1":0,"xT2":670,"yT2":0,"toosoon":0,"cond_shown":"randomdotsizeEA","ratio_trial":900,"smaller_num":"18","larger_num":"20","correct_side":2,"subjID":"43wm","gender":"No_gender","age":"No_age","school":"No_school"},{"start_time":1549382111066,"click_time":1549382112095,"finger_time":1549382111814,"fix_duration":648.5869620053926,"trial":20,"RT":748,"MT":281,"sideResp":2,"stimulus":"img/900/equaldotsize/R/12_Ratio_900_L_18_R_20.png","xmouse":[390,390,390,390,390,390,390,390.6669921875,390.6669921875,390.6669921875,390.6669921875,390.6669921875,390.6669921875,390.6669921875,390.6669921875,390.6669921875,390.6669921875,390.6669921875,392,392,392,392,392,392,392,392,392,392,393,393,393,393,393,393,393,397.3330078125,397.3330078125,409.3330078125,416,447.3330078125,456,476,497,509.3330078125,550,573.3330078125,584.6669921875,606.6669921875,627.3330078125,653.3330078125,666.6669921875,676],"ymouse":[824,824,824,824,824,824,824,824.6669921875,825.3330078125,825.3330078125,825.3330078125,825.3330078125,825.3330078125,825.3330078125,825.3330078125,825.3330078125,825.3330078125,825.3330078125,827,827,827,827,827,827,827,827,827,827,816,816,816,816,816,816,816,782.6669921875,782.6669921875,730.6669921875,710,619.3330078125,594,540,484,454.6669921875,370,312.6669921875,283.3330078125,231.33299255371094,183.33299255371094,129.33299255371094,100.66699981689453,88],"timestamp_mouse":[14,47,48,68,89,108,128,148,168,189,208,228,248,269,288,308,329,348,369,390,408,428,448,469,488,508,529,548,568,588,608,628,648,668,688,708,728,748,768,791,811,829,848,868,890,908,928,948,968,989,1009,1029],"xSR":350,"ySR":768,"xT1":30,"yT1":0,"xT2":670,"yT2":0,"toosoon":0,"cond_shown":"equaldotsize","ratio_trial":900,"smaller_num":"18","larger_num":"20","correct_side":2,"subjID":"43wm","gender":"No_gender","age":"No_age","school":"No_school"},{"start_time":1549382113406,"click_time":1549382114296,"finger_time":1549382113994,"fix_duration":289.33928723646585,"trial":21,"RT":588,"MT":302,"sideResp":2,"stimulus":"img/250/equaldotsize/R/4_Ratio_250_L_3_R_12.png","xmouse":[388.6669921875,388.6669921875,388.6669921875,388.6669921875,388,389.3330078125,389.3330078125,389.3330078125,389,389,389,389,389,389,389,389,389,389,390,390,390,390,390,390.6669921875,390,390.6669921875,390,391,394,404.6669921875,416,438,447,483.3330078125,492.6669921875,517.3330078125,532,563.3330078125,612,644,660,685,706.6669921875,714,730.6669921875],"ymouse":[787.3330078125,787.3330078125,786.6669921875,786.6669921875,786,785.3330078125,784.6669921875,784.6669921875,784,784,784,784,784,784,784,784,784,784,784,784,784,784,784,781.3330078125,780,778.6669921875,778,776,771,754.6669921875,738,700,680,586.6669921875,560.6669921875,502.6669921875,472,411.3330078125,320,263,237,190,147.33299255371094,128,84.66699981689453],"timestamp_mouse":[16,29,60,68,88,109,128,148,171,188,208,228,248,272,288,308,329,349,369,388,409,428,449,470,488,508,528,548,569,588,608,628,648,670,689,709,728,748,773,788,809,828,848,868,890],"xSR":350,"ySR":768,"xT1":30,"yT1":0,"xT2":670,"yT2":0,"toosoon":0,"cond_shown":"equaldotsize","ratio_trial":250,"smaller_num":"3","larger_num":"12","correct_side":2,"subjID":"43wm","gender":"No_gender","age":"No_age","school":"No_school"},{"start_time":1549382115694,"click_time":1549382116675,"finger_time":1549382116096,"fix_duration":594.5830908896282,"trial":22,"RT":402,"MT":579,"sideResp":1,"stimulus":"img/500/equaldotanddens/L/4_Ratio_500_L_18_R_9.png","xmouse":[415,415,415,415,415,415,415,415,415,420,420,420,420,420,420,420,420,420,424,427.3330078125,432,442,448.6669921875,461.3330078125,480.6669921875,490.6669921875,496,502.6669921875,504,504,502.6669921875,497.3330078125,490,481.3330078125,444,444,377.3330078125,377.3330078125,377.3330078125,304,294,275.3330078125,254,242,202.66700744628906,176,148.66700744628906,136,112.66699981689453],"ymouse":[782,782,782,782,782,782,782,782,782,782,782,782,782,782,782,782,782,782,772,758.6669921875,738,704,684.6669921875,648.6669921875,593.3330078125,556.6669921875,538,506.6669921875,492,449,443.3330078125,434.6669921875,429,427.3330078125,430,430,433.3330078125,433.3330078125,433.3330078125,374,360,327.3330078125,289,268,207.33299255371094,168,129.33299255371094,112,78.66699981689453],"timestamp_mouse":[15,42,60,80,100,120,140,161,181,201,220,240,260,281,301,320,340,360,380,401,422,441,460,480,500,520,540,560,580,601,620,640,660,680,701,720,740,760,780,803,820,840,860,881,901,920,940,960,981],"xSR":350,"ySR":768,"xT1":30,"yT1":0,"xT2":670,"yT2":0,"toosoon":0,"cond_shown":"equaldotanddens","ratio_trial":500,"smaller_num":"9","larger_num":"18","correct_side":1,"subjID":"43wm","gender":"No_gender","age":"No_age","school":"No_school"},{"start_time":1549382117932,"click_time":1549382118755,"finger_time":1549382118474,"fix_duration":393.79601684191357,"trial":23,"RT":542,"MT":281,"sideResp":2,"stimulus":"img/900/equaldotsize/L/8_Ratio_900_L_20_R_18.png","xmouse":[401.3330078125,401.3330078125,401.3330078125,401.3330078125,401.3330078125,401.3330078125,401.3330078125,401.3330078125,401.3330078125,400.6669921875,400.6669921875,400.6669921875,400.6669921875,400.6669921875,400.6669921875,400.6669921875,400.6669921875,400.6669921875,400.6669921875,402,402,402,402,402,404,414,428,448,454.6669921875,468.6669921875,487.3330078125,496,527.3330078125,550,576.6669921875,590,614,626.6669921875,674,688,714],"ymouse":[848.6669921875,848.6669921875,848.6669921875,848.6669921875,848.6669921875,848.6669921875,848.6669921875,848.6669921875,848.6669921875,849.3330078125,849.3330078125,849.3330078125,849.3330078125,849.3330078125,849.3330078125,849.3330078125,849.3330078125,849.3330078125,849.3330078125,846,846,846,846,846,824,798,763,709,690.6669921875,649.3330078125,604.6669921875,580,508.6669921875,454,394.6669921875,364,300,266.6669921875,142,112,59],"timestamp_mouse":[2,46,61,82,103,123,142,163,182,202,222,242,262,282,302,322,342,362,382,402,422,443,462,482,502,523,542,565,586,603,623,643,665,683,702,722,742,762,782,803,822],"xSR":350,"ySR":768,"xT1":30,"yT1":0,"xT2":670,"yT2":0,"toosoon":0,"cond_shown":"equaldotsize","ratio_trial":900,"smaller_num":"18","larger_num":"20","correct_side":1,"subjID":"43wm","gender":"No_gender","age":"No_age","school":"No_school"},{"start_time":1549382119906,"click_time":1549382121314,"finger_time":1549382120954,"fix_duration":250,"trial":24,"RT":1048,"MT":360,"sideResp":1,"stimulus":"img/900/randomdotsize/L/1_Ratio_900_L_10_R_9.png","xmouse":[383.3330078125,383.3330078125,383,383.3330078125,383.3330078125,383.3330078125,383.3330078125,383.3330078125,383.3330078125,383.3330078125,383.3330078125,383.3330078125,383.3330078125,383,383,383.3330078125,383.3330078125,383.3330078125,383.3330078125,383.3330078125,383.3330078125,383.3330078125,383.3330078125,383.3330078125,384,384,384,384,384,384,384,384,384,384,384,384,384.6669921875,384.6669921875,384.6669921875,384.6669921875,384.6669921875,384.6669921875,384.6669921875,384.6669921875,384.6669921875,384.6669921875,384.6669921875,384.6669921875,384.6669921875,384.6669921875,384.6669921875,360,349.3330078125,344,318,310,290,283.3330078125,266.6669921875,247.33299255371094,218,208,192.66700744628906,176,156,150.66700744628906,141.33299255371094,133,130,124],"ymouse":[832.6669921875,832.6669921875,832,832.6669921875,832.6669921875,832.6669921875,832.6669921875,832.6669921875,833.3330078125,833.3330078125,833.3330078125,833.3330078125,833.3330078125,834,834,834.6669921875,834.6669921875,834.6669921875,834.6669921875,834.6669921875,834.6669921875,834.6669921875,834.6669921875,834.6669921875,834,834,834,834,834,834,834,834,834,834,834,834,833.3330078125,833.3330078125,833.3330078125,833.3330078125,833.3330078125,833.3330078125,833.3330078125,833.3330078125,833.3330078125,833.3330078125,828.6669921875,828.6669921875,828.6669921875,828.6669921875,828.6669921875,732,697.3330078125,679,599,578,530,508.6669921875,457.3330078125,403.3330078125,324,298,248.6669921875,204,146,129.33299255371094,101.33300018310547,80,70,56],"timestamp_mouse":[15,52,68,88,108,129,149,168,188,208,228,248,268,289,308,330,348,368,388,410,428,448,468,488,510,528,549,568,588,608,629,649,668,688,708,728,748,768,788,808,828,848,868,888,909,928,948,968,988,1008,1029,1048,1068,1090,1112,1129,1150,1168,1188,1208,1228,1248,1268,1288,1311,1330,1351,1369,1388,1408],"xSR":350,"ySR":768,"xT1":30,"yT1":0,"xT2":670,"yT2":0,"toosoon":0,"cond_shown":"randomdotsize","ratio_trial":900,"smaller_num":"9","larger_num":"10","correct_side":1,"subjID":"43wm","gender":"No_gender","age":"No_age","school":"No_school"},{"start_time":1549382123338,"click_time":1549382124675,"finger_time":1549382124256,"fix_duration":442.54973934755793,"trial":25,"RT":918,"MT":419,"sideResp":1,"stimulus":"img/750/randomdotsize/L/14_Ratio_750_L_8_R_6.png","xmouse":[390,390,389.3330078125,389.3330078125,389.3330078125,388.6669921875,388.6669921875,388.6669921875,388.6669921875,388.6669921875,388.6669921875,388.6669921875,388.6669921875,388.6669921875,388.6669921875,388.6669921875,389.3330078125,389.3330078125,389.3330078125,389.3330078125,389.3330078125,388.6669921875,388.6669921875,388,387.3330078125,387,386.6669921875,386.6669921875,386,385.3330078125,385,384.6669921875,384.6669921875,384,383.3330078125,383,382.6669921875,382,381.3330078125,380,379.3330078125,378.6669921875,376,373.3330078125,369.3330078125,366.6669921875,357,350,330,297,277,267.3330078125,250,230,198,188.66700744628906,166.66700744628906,146,136,110.66699981689453,98.66699981689453,87.33300018310547,82,71.33300018310547,56,54],"ymouse":[824,824,823.3330078125,822.6669921875,822.6669921875,822.6669921875,822.6669921875,822.6669921875,822.6669921875,822.6669921875,822.6669921875,822.6669921875,822.6669921875,823.3330078125,823.3330078125,823.3330078125,823.3330078125,823.3330078125,823.3330078125,823.3330078125,823.3330078125,821.3330078125,820.6669921875,820,817.3330078125,816,815.3330078125,813.3330078125,812,810.6669921875,810,808.6669921875,807.3330078125,805,804.6669921875,804,802.6669921875,802,799.3330078125,798,794.6669921875,792.6669921875,788,776.6669921875,763.3330078125,756.6669921875,736,720,690,646,608,587.3330078125,538,490,418,398.6669921875,355.3330078125,316,296,243.3330078125,210.66700744628906,182.66700744628906,168,142.66700744628906,104,90],"timestamp_mouse":[48,56,76,96,117,136,156,176,196,217,236,257,276,301,317,336,356,377,399,419,437,456,476,496,516,536,557,576,596,616,636,657,676,699,717,736,756,776,798,816,836,856,876,900,918,936,957,977,996,1019,1036,1056,1076,1097,1116,1136,1156,1176,1196,1219,1237,1257,1277,1297,1316,1336],"xSR":350,"ySR":768,"xT1":30,"yT1":0,"xT2":670,"yT2":0,"toosoon":0,"cond_shown":"randomdotsize","ratio_trial":750,"smaller_num":"6","larger_num":"8","correct_side":1,"subjID":"43wm","gender":"No_gender","age":"No_age","school":"No_school"},{"start_time":1549382127371,"click_time":1549382128378,"finger_time":1549382128077,"fix_duration":1374.9602261014345,"trial":26,"RT":706,"MT":301,"sideResp":2,"stimulus":"img/250/randomdotsize/R/13_Ratio_250_L_2_R_8.png","xmouse":[397.3330078125,396.6669921875,396.6669921875,396.6669921875,396.6669921875,396.6669921875,396.6669921875,396.6669921875,396.6669921875,396.6669921875,396.6669921875,396.6669921875,396.6669921875,396.6669921875,396.6669921875,396.6669921875,396.6669921875,396.6669921875,396.6669921875,396.6669921875,396.6669921875,396.6669921875,396.6669921875,396.6669921875,396.6669921875,396.6669921875,396.6669921875,396.6669921875,396.6669921875,396.6669921875,396.6669921875,398,398,398,413.3330078125,428.6669921875,441.3330078125,448,462.6669921875,494,519.3330078125,531,556,571,610,632.6669921875,653.3330078125,660,681.3330078125,710],"ymouse":[801.3330078125,800.6669921875,800.6669921875,800.6669921875,800.6669921875,800.6669921875,800.6669921875,800.6669921875,800.6669921875,800.6669921875,800.6669921875,799.3330078125,799.3330078125,799.3330078125,799.3330078125,799.3330078125,799.3330078125,799.3330078125,799.3330078125,799.3330078125,799.3330078125,797.3330078125,797.3330078125,797.3330078125,797.3330078125,797.3330078125,797.3330078125,797.3330078125,797.3330078125,797.3330078125,797.3330078125,787,787,787,741.3330078125,702.6669921875,663.3330078125,644,600.6669921875,526,469.3330078125,444,387,358,278,226.66700744628906,181.33299255371094,160,121.3330078125,70],"timestamp_mouse":[9,43,63,83,103,123,144,163,186,203,223,243,264,284,303,323,344,363,384,403,423,444,463,483,503,524,544,563,584,604,623,643,663,683,706,723,743,763,784,804,824,843,863,883,903,923,943,964,983,1007],"xSR":350,"ySR":768,"xT1":30,"yT1":0,"xT2":670,"yT2":0,"toosoon":0,"cond_shown":"randomdotsize","ratio_trial":250,"smaller_num":"2","larger_num":"8","correct_side":2,"subjID":"43wm","gender":"No_gender","age":"No_age","school":"No_school"},{"start_time":1549382129668,"click_time":1549382131016,"finger_time":1549382130654,"fix_duration":331.49344457338094,"trial":27,"RT":986,"MT":362,"sideResp":1,"stimulus":"img/900/randomdotsizeEA/L/1_Ratio_900_L_10_R_9.png","xmouse":[400.6669921875,400.6669921875,401,401.3330078125,402,402.6669921875,403.3330078125,404,404,404.6669921875,404.6669921875,405.3330078125,405.3330078125,405.3330078125,405,406,406,406,406,406.6669921875,406.6669921875,406.6669921875,406.6669921875,406.6669921875,406.6669921875,406.6669921875,406.6669921875,406.6669921875,406.6669921875,408.6669921875,408.6669921875,408.6669921875,408.6669921875,408.6669921875,408.6669921875,408.6669921875,408.6669921875,408.6669921875,408.6669921875,407.3330078125,407.3330078125,406.6669921875,406,406,405.3330078125,404,402,400,390.6669921875,372.6669921875,342,331.3330078125,308.6669921875,283.3330078125,270,231,207.33299255371094,185.33299255371094,174,155,134,122.66699981689453,118.66699981689453,112.66699981689453,109,99.33300018310547,85],"ymouse":[798.6669921875,799.3330078125,800,800.6669921875,800,800.6669921875,800.6669921875,800,800,800.6669921875,801.3330078125,801.3330078125,801.3330078125,801.3330078125,802,802,801,801,801,800.6669921875,800.6669921875,800.6669921875,800.6669921875,800.6669921875,800.6669921875,800.6669921875,800.6669921875,800.6669921875,800.6669921875,793.3330078125,793.3330078125,793.3330078125,793.3330078125,793.3330078125,793.3330078125,793.3330078125,793.3330078125,793.3330078125,793.3330078125,786.6669921875,786.6669921875,782.6669921875,781,780,779.3330078125,776,773,770,757.3330078125,731.3330078125,682,662.6669921875,622.6669921875,581.3330078125,559,492,447.3330078125,400.6669921875,378,332,269,231.33299255371094,210.66700744628906,169.33299255371094,148,109.33300018310547,56],"timestamp_mouse":[15,53,66,86,106,126,146,167,186,206,227,246,266,286,307,326,347,366,386,407,430,446,466,487,506,530,546,566,586,606,626,646,666,687,706,727,746,767,786,806,826,846,866,886,906,928,946,966,986,1006,1028,1046,1067,1086,1106,1128,1148,1168,1186,1206,1230,1248,1266,1286,1306,1326,1347],"xSR":350,"ySR":768,"xT1":30,"yT1":0,"xT2":670,"yT2":0,"toosoon":0,"cond_shown":"randomdotsizeEA","ratio_trial":900,"smaller_num":"9","larger_num":"10","correct_side":1,"subjID":"43wm","gender":"No_gender","age":"No_age","school":"No_school"},{"start_time":1549382133218,"click_time":1549382134374,"finger_time":1549382134054,"fix_duration":1181.1498497830723,"trial":28,"RT":836,"MT":320,"sideResp":1,"stimulus":"img/500/equaldotanddens/L/8_Ratio_500_L_8_R_4.png","xmouse":[404,404,404,404,404,404,404,404,404,403.3330078125,403.3330078125,403.3330078125,403.3330078125,403.3330078125,403.3330078125,403.3330078125,403.3330078125,403.3330078125,403.3330078125,403,403,403,403,403,403,403,403,403,403,403.3330078125,403.3330078125,403.3330078125,403.3330078125,403.3330078125,403.3330078125,403.3330078125,403.3330078125,403.3330078125,403.3330078125,386,380,362,344,312,300.6669921875,274.6669921875,247,234.66700744628906,196.66700744628906,172,148,136.66700744628906,115.33300018310547,86.66699981689453,68.66699981689453,59.33300018310547,44],"ymouse":[798,798,798,798,798,798,798,798,798,799.3330078125,799.3330078125,799.3330078125,799.3330078125,799.3330078125,799.3330078125,799.3330078125,799.3330078125,799.3330078125,799.3330078125,800,800,800,800,800,800,800,800,800,800,799.3330078125,799.3330078125,799.3330078125,799.3330078125,799.3330078125,799.3330078125,799.3330078125,799.3330078125,799.3330078125,799.3330078125,770,758,726,696,642,620.6669921875,574.6669921875,522,495.3330078125,416.6669921875,361,305,279.3330078125,229.33299255371094,168.66700744628906,132.66700744628906,115.3330078125,78],"timestamp_mouse":[48,56,76,96,116,137,157,176,196,216,236,256,277,296,316,336,356,376,396,416,436,456,476,496,516,536,556,576,597,617,636,656,676,696,716,736,756,776,797,816,836,857,876,897,917,936,956,976,999,1016,1036,1056,1076,1098,1118,1137,1156],"xSR":350,"ySR":768,"xT1":30,"yT1":0,"xT2":670,"yT2":0,"toosoon":0,"cond_shown":"equaldotanddens","ratio_trial":500,"smaller_num":"4","larger_num":"8","correct_side":1,"subjID":"43wm","gender":"No_gender","age":"No_age","school":"No_school"},{"start_time":1549382137133,"click_time":1549382138234,"finger_time":1549382137855,"fix_duration":1249.582750576677,"trial":29,"RT":722,"MT":379,"sideResp":1,"stimulus":"img/250/equaldotsize/L/7_Ratio_250_L_8_R_2.png","xmouse":[403.3330078125,404,404,404,404.6669921875,404,405,405,405,405,405,405,405,405,405,405,405.3330078125,405.3330078125,405.3330078125,405.3330078125,405.3330078125,405.3330078125,405.3330078125,405.3330078125,405.3330078125,403,402,402.6669921875,401.3330078125,400,398,397.3330078125,395.3330078125,392,386,380,377.3330078125,366.6669921875,360,346,321.3330078125,304,292.6669921875,273,250.66700744628906,215,200.66700744628906,174,161.33299255371094,138,114.66699981689453,107,102.66699981689453,96.66699981689453,92],"ymouse":[824.6669921875,821,821,821,821.3330078125,822,822,822,822,822,822,822,822,822,822,822,823.3330078125,823.3330078125,823.3330078125,823.3330078125,823.3330078125,823.3330078125,823.3330078125,823.3330078125,823.3330078125,818,816,815.3330078125,813.3330078125,808,805,803.3330078125,798.6669921875,792,778,764,754.6669921875,727.3330078125,710,677,625.3330078125,585,564.6669921875,520,472.6669921875,406,382.6669921875,337,313.3330078125,262,191.33299255371094,152,135.33299255371094,103.33300018310547,70],"timestamp_mouse":[3,44,64,81,101,121,141,161,181,201,221,242,261,282,303,321,341,361,381,402,421,441,461,481,501,522,541,562,581,604,621,641,661,681,703,722,742,761,781,801,822,841,861,881,901,922,941,961,981,1002,1024,1042,1061,1081,1101],"xSR":350,"ySR":768,"xT1":30,"yT1":0,"xT2":670,"yT2":0,"toosoon":0,"cond_shown":"equaldotsize","ratio_trial":250,"smaller_num":"2","larger_num":"8","correct_side":1,"subjID":"43wm","gender":"No_gender","age":"No_age","school":"No_school"},{"start_time":1549382139768,"click_time":1549382141378,"finger_time":1549382141095,"fix_duration":391.0546559629025,"trial":30,"RT":1327,"MT":283,"sideResp":1,"stimulus":"img/900/equaldotanddens/R/13_Ratio_900_L_18_R_20.png","xmouse":[400,399.3330078125,399,398,398,398,397.3330078125,397.3330078125,397.3330078125,396.6669921875,396,396,396,396,396,396,396,396,396,393.3330078125,393.3330078125,393.3330078125,393.3330078125,393.3330078125,393.3330078125,393.3330078125,393.3330078125,393.3330078125,393.3330078125,390.6669921875,390.6669921875,390.6669921875,390.6669921875,390.6669921875,390.6669921875,390.6669921875,390.6669921875,390.6669921875,390.6669921875,390.6669921875,387.3330078125,387.3330078125,387.3330078125,387.3330078125,387.3330078125,387.3330078125,387.3330078125,387.3330078125,387.3330078125,384.6669921875,384.6669921875,384.6669921875,384.6669921875,384.6669921875,384.6669921875,384.6669921875,384.6669921875,384.6669921875,384.6669921875,382.6669921875,382.6669921875,382.6669921875,382.6669921875,366,356.6669921875,333.3330078125,311,302,272,250,224,211,187.33299255371094,154.66700744628906,138,130,118,114.66699981689453,109.33300018310547,100],"ymouse":[838,838.6669921875,838,838,838,837,837.3330078125,837.3330078125,837.3330078125,837.3330078125,838,838,838,838,838,838,838,838,838,840.6669921875,840.6669921875,840.6669921875,840.6669921875,840.6669921875,840.6669921875,840.6669921875,840.6669921875,840.6669921875,840.6669921875,843.3330078125,843.3330078125,843.3330078125,843.3330078125,843.3330078125,843.3330078125,843.3330078125,843.3330078125,843.3330078125,843.3330078125,843.3330078125,845.3330078125,845.3330078125,845.3330078125,845.3330078125,845.3330078125,845.3330078125,845.3330078125,845.3330078125,845.3330078125,846.6669921875,846.6669921875,846.6669921875,846.6669921875,846.6669921875,846.6669921875,846.6669921875,846.6669921875,846.6669921875,846.6669921875,844.6669921875,844.6669921875,844.6669921875,844.6669921875,820,807.3330078125,772.6669921875,732,710,641,590,541,516,466.6669921875,387.3330078125,325,294,230,199.33299255371094,140.66700744628906,62],"timestamp_mouse":[13,27,46,66,86,107,126,147,166,186,211,246,266,288,306,326,346,366,386,408,426,446,466,487,506,526,546,566,588,608,626,647,666,688,706,726,746,766,786,807,827,846,867,887,906,927,946,966,986,1006,1027,1046,1066,1086,1107,1126,1146,1166,1186,1210,1226,1246,1266,1290,1306,1327,1347,1366,1389,1406,1426,1446,1466,1489,1508,1528,1547,1567,1587,1609],"xSR":350,"ySR":768,"xT1":30,"yT1":0,"xT2":670,"yT2":0,"toosoon":0,"cond_shown":"equaldotanddens","ratio_trial":900,"smaller_num":"18","larger_num":"20","correct_side":2,"subjID":"43wm","gender":"No_gender","age":"No_age","school":"No_school"},{"start_time":1549382144053,"click_time":1549382145275,"finger_time":1549382144954,"fix_duration":1377.250944820106,"trial":31,"RT":901,"MT":321,"sideResp":2,"stimulus":"img/750/randomdotsize/R/4_Ratio_750_L_15_R_20.png","xmouse":[396,396,396,396,396,396,396,398,398,398,398,398,398,398,398,398,398,399.3330078125,399.3330078125,399.3330078125,399.3330078125,399.3330078125,399.3330078125,399.3330078125,399.3330078125,399.3330078125,399.3330078125,400,400,400,400,400,400,400,400,400,400,400.6669921875,400.6669921875,400.6669921875,400.6669921875,400.6669921875,400.6669921875,400.6669921875,400,405,411,434,453,473,484.6669921875,508.6669921875,545.3330078125,569,580.6669921875,602,610,638.6669921875,646,657.3330078125,662,672],"ymouse":[804,804,804,804,804,804,804,806,806,806,806,806,806,806,806,806,806,809.3330078125,809.3330078125,809.3330078125,809.3330078125,809.3330078125,809.3330078125,809.3330078125,809.3330078125,809.3330078125,809.3330078125,812,812,812,812,812,812,812,812,812,812,812.6669921875,812.6669921875,812.6669921875,812.6669921875,812.6669921875,812.6669921875,812.6669921875,784,756,738,678,630,578,549.3330078125,492.6669921875,411.3330078125,358,331.3330078125,281,257,175.33299255371094,158,128.66700744628906,114,90],"timestamp_mouse":[3,21,46,61,81,101,121,141,161,181,201,221,242,261,281,301,321,347,362,381,401,421,442,461,482,502,521,541,561,581,602,621,641,661,681,702,721,744,761,781,801,821,842,862,881,901,922,943,961,981,1001,1021,1042,1061,1081,1101,1121,1143,1162,1181,1201,1221],"xSR":350,"ySR":768,"xT1":30,"yT1":0,"xT2":670,"yT2":0,"toosoon":0,"cond_shown":"randomdotsize","ratio_trial":750,"smaller_num":"15","larger_num":"20","correct_side":2,"subjID":"43wm","gender":"No_gender","age":"No_age","school":"No_school"},{"start_time":1549382146832,"click_time":1549382147814,"finger_time":1549382147574,"fix_duration":575.8629803227282,"trial":32,"RT":742,"MT":240,"sideResp":2,"stimulus":"img/250/randomdotsizeEA/R/4_Ratio_250_L_3_R_12.png","xmouse":[393.3330078125,393.3330078125,394,394,394,394,394,394,394,394,394,394.6669921875,394.6669921875,394.6669921875,394.6669921875,394.6669921875,394.6669921875,394.6669921875,394.6669921875,394.6669921875,394.6669921875,396,396,396,396,396,396,396,396,396,396,397.3330078125,397.3330078125,397.3330078125,397.3330078125,403.3330078125,418,430,480.6669921875,492.6669921875,517,540,550.6669921875,578.6669921875,597,608,632.6669921875,662.6669921875,708],"ymouse":[785.3330078125,785.3330078125,789,789,789,789,789,789,789,789,789,792.6669921875,792.6669921875,792.6669921875,792.6669921875,792.6669921875,792.6669921875,792.6669921875,792.6669921875,792.6669921875,792.6669921875,795,795,795,795,795,795,795,795,795,795,795.3330078125,795.3330078125,795.3330078125,795.3330078125,776.6669921875,756,740,654.6669921875,629.3330078125,576,519,489.3330078125,402.6669921875,342,310,246.6669921875,181.33299255371094,95],"timestamp_mouse":[2,42,62,82,102,122,143,163,182,202,222,242,262,282,302,322,342,362,383,402,422,442,462,483,503,522,542,562,582,602,623,642,662,682,702,722,742,764,783,802,822,842,863,883,902,923,942,962,982],"xSR":350,"ySR":768,"xT1":30,"yT1":0,"xT2":670,"yT2":0,"toosoon":0,"cond_shown":"randomdotsizeEA","ratio_trial":250,"smaller_num":"3","larger_num":"12","correct_side":2,"subjID":"43wm","gender":"No_gender","age":"No_age","school":"No_school"},{"start_time":1549382149720,"click_time":1549382150754,"finger_time":1549382150474,"fix_duration":1083.7202221440396,"trial":33,"RT":754,"MT":280,"sideResp":1,"stimulus":"img/750/randomdotsize/L/1_Ratio_750_L_20_R_15.png","xmouse":[410,410,410,410,410.6669921875,410.6669921875,410.6669921875,410.6669921875,410.6669921875,410.6669921875,410.6669921875,410.6669921875,410.6669921875,410.6669921875,410.6669921875,410.6669921875,410.6669921875,410.6669921875,410.6669921875,410.6669921875,410.6669921875,410.6669921875,410.6669921875,410.6669921875,410,410.6669921875,410,410,410.6669921875,409.3330078125,408,408,406,405,402,397,388,382,366,356.6669921875,313.3330078125,302,278.6669921875,254,218,206,187.33299255371094,171.33299255371094,164,137.33299255371094,121.3330078125],"ymouse":[832,832,832,832,834.6669921875,834.6669921875,834.6669921875,834.6669921875,834.6669921875,834.6669921875,834.6669921875,834.6669921875,834.6669921875,834.6669921875,831.3330078125,831.3330078125,831.3330078125,831.3330078125,831.3330078125,831.3330078125,831.3330078125,825.3330078125,824.6669921875,822.6669921875,820,818.6669921875,818,816,813.3330078125,809.3330078125,808,803,798,796,784,768,746,730,697,679.3330078125,596.6669921875,572,522.6669921875,472,396,370,308.6669921875,238.66700744628906,203,111.33300018310547,64.66699981689453],"timestamp_mouse":[42,54,74,95,114,134,154,174,194,214,234,254,275,295,316,334,354,374,394,416,435,454,474,494,515,534,554,574,594,614,634,654,674,694,715,734,754,775,795,814,834,854,874,894,918,934,954,975,995,1018,1034],"xSR":350,"ySR":768,"xT1":30,"yT1":0,"xT2":670,"yT2":0,"toosoon":0,"cond_shown":"randomdotsize","ratio_trial":750,"smaller_num":"15","larger_num":"20","correct_side":1,"subjID":"43wm","gender":"No_gender","age":"No_age","school":"No_school"},{"start_time":1549382152551,"click_time":1549382153614,"finger_time":1549382153334,"fix_duration":433.1116830742267,"trial":34,"RT":783,"MT":280,"sideResp":2,"stimulus":"img/900/equaldotanddens/L/2_Ratio_900_L_20_R_18.png","xmouse":[401,401,401,401,401,401,401,401,401,401,395.3330078125,395.3330078125,395.3330078125,395.3330078125,395.3330078125,395.3330078125,395.3330078125,395.3330078125,395.3330078125,395.3330078125,395.3330078125,395.3330078125,395.3330078125,394,394,394,394,394,394,394,394,394,394,394.6669921875,394.6669921875,394.6669921875,394.6669921875,394.6669921875,428.6669921875,452,467,482.6669921875,487.3330078125,496,516,536,545.3330078125,570,582,630,640,661,682.6669921875],"ymouse":[812,812,812,812,812,812,812,812,812,812,818.6669921875,818.6669921875,818.6669921875,819.3330078125,819.3330078125,819.3330078125,819.3330078125,819.3330078125,819.3330078125,819.3330078125,819.3330078125,819.3330078125,819.3330078125,818,818,818,818,818,818,818,818,818,818,805.3330078125,805.3330078125,805.3330078125,805.3330078125,805.3330078125,724.6669921875,665,620,571.3330078125,546.6669921875,496,418,362,334.6669921875,278,250,148,127,92,59.33300018310547],"timestamp_mouse":[3,52,63,83,103,123,143,163,183,203,223,243,263,284,303,323,343,363,383,403,423,443,463,484,503,523,543,564,584,603,623,643,663,684,704,724,743,763,783,803,823,844,863,884,904,923,944,963,983,1004,1023,1044,1063],"xSR":350,"ySR":768,"xT1":30,"yT1":0,"xT2":670,"yT2":0,"toosoon":0,"cond_shown":"equaldotanddens","ratio_trial":900,"smaller_num":"18","larger_num":"20","correct_side":1,"subjID":"43wm","gender":"No_gender","age":"No_age","school":"No_school"},{"start_time":1549382155535,"click_time":1549382156734,"finger_time":1549382156434,"fix_duration":438.2224802795799,"trial":35,"RT":899,"MT":300,"sideResp":1,"stimulus":"img/750/randomdotsizeEA/L/6_Ratio_750_L_24_R_18.png","xmouse":[382.6669921875,382.6669921875,382.6669921875,383.3330078125,383.3330078125,383,383,384,384,384,384,384.6669921875,384.6669921875,385.3330078125,385,385,385,386,386,386,386,386,386.6669921875,386.6669921875,386.6669921875,386.6669921875,386.6669921875,386,386,386,386,386,386.6669921875,386.6669921875,386,386,386,386,386,386,386,386,386,372.6669921875,372.6669921875,362,346,320.6669921875,302.6669921875,292,272.6669921875,252,222,209.33299255371094,187,176,154,128,115.33300018310547,112,108],"ymouse":[798.6669921875,798.6669921875,799.3330078125,799.3330078125,799.3330078125,800,800,800,800,800,800,800.6669921875,801.3330078125,801.3330078125,802,802,802,802,802,802,803,803,803.3330078125,803.3330078125,803.3330078125,803.3330078125,803.3330078125,804,804,804,804,804,803.3330078125,803.3330078125,802,802,802,802,802,802,802,802,802,773.3330078125,773.3330078125,746,712,653.3330078125,611.3330078125,588,537.3330078125,484,402,373.3330078125,320,294,244,176,139.33299255371094,121,90],"timestamp_mouse":[1,19,50,59,79,99,119,140,159,179,200,220,239,259,280,299,319,339,359,380,399,419,439,459,479,499,519,541,559,579,599,620,639,659,679,699,719,740,759,779,799,819,840,862,880,899,919,940,959,979,999,1019,1041,1059,1080,1099,1119,1139,1159,1179,1199],"xSR":350,"ySR":768,"xT1":30,"yT1":0,"xT2":670,"yT2":0,"toosoon":0,"cond_shown":"randomdotsizeEA","ratio_trial":750,"smaller_num":"18","larger_num":"24","correct_side":1,"subjID":"43wm","gender":"No_gender","age":"No_age","school":"No_school"},{"start_time":1549382158295,"click_time":1549382159194,"finger_time":1549382158934,"fix_duration":613.032844706869,"trial":36,"RT":639,"MT":260,"sideResp":2,"stimulus":"img/750/equaldotsize/R/11_Ratio_750_L_12_R_16.png","xmouse":[404,404,404,403,403.3330078125,403.3330078125,403.3330078125,403.3330078125,402,402,402.6669921875,402.6669921875,402,402,402.6669921875,402.6669921875,402.6669921875,402.6669921875,402.6669921875,402.6669921875,402.6669921875,402,402.6669921875,402,401.3330078125,401.3330078125,400.6669921875,400.6669921875,400,402,402,437,445.3330078125,459.3330078125,483.3330078125,500,510.6669921875,528.6669921875,540,590,604,631.3330078125,644,668.6669921875,696],"ymouse":[858,858,859,860,860.6669921875,860.6669921875,860.6669921875,861.3330078125,862,862,862.6669921875,863.3330078125,864,864,864.6669921875,864.6669921875,864.6669921875,865.3330078125,865.3330078125,864.6669921875,864.6669921875,864,863.3330078125,862,859.3330078125,858.6669921875,856.6669921875,854.6669921875,850,840,840,758,737.3330078125,693.3330078125,614.6669921875,556,526.6669921875,468.6669921875,435,312,280,220.66700744628906,192,139.33299255371094,76],"timestamp_mouse":[7,41,59,79,99,119,140,159,179,200,219,239,260,279,302,319,339,360,380,402,420,439,459,479,501,519,540,559,580,600,619,639,660,680,701,719,739,759,779,801,819,839,859,880,899],"xSR":350,"ySR":768,"xT1":30,"yT1":0,"xT2":670,"yT2":0,"toosoon":0,"cond_shown":"equaldotsize","ratio_trial":750,"smaller_num":"12","larger_num":"16","correct_side":2,"subjID":"43wm","gender":"No_gender","age":"No_age","school":"No_school"},{"start_time":1549382160445,"click_time":1549382161418,"finger_time":1549382161115,"fix_duration":388.0915252612275,"trial":37,"RT":670,"MT":303,"sideResp":1,"stimulus":"img/900/randomdotsize/L/2_Ratio_900_L_20_R_18.png","xmouse":[382.6669921875,384,384,384,384,384,384,384,384,384,384,388,388,388,388,388,388,388,388,388,388,388.6669921875,388.6669921875,388.6669921875,388.6669921875,388.6669921875,388.6669921875,388.6669921875,382.6669921875,380.6669921875,373.3330078125,360,354,337.3330078125,325.3330078125,314,307,292.6669921875,271,256,248.6669921875,232,224,196,188.66700744628906,169,146.66700744628906,134.66700744628906,99.33300018310547],"ymouse":[858.6669921875,858,858,858,858,858,858,858,858,858,858,859,859,859,859,859,859,859,859,859,859,856.6669921875,856.6669921875,856.6669921875,856.6669921875,856.6669921875,856.6669921875,856.6669921875,841.3330078125,837.3330078125,820.6669921875,790,770,714.6669921875,677.3330078125,640,622,585.3330078125,530,493,474.6669921875,434,412,322,298.6669921875,250,199.33299255371094,173.33299255371094,99.33300018310547],"timestamp_mouse":[13,48,49,69,89,109,129,149,169,189,210,229,249,269,289,309,329,350,370,389,410,431,450,469,490,509,529,550,569,589,609,629,650,670,689,710,729,750,769,789,809,829,849,870,889,909,929,949,973],"xSR":350,"ySR":768,"xT1":30,"yT1":0,"xT2":670,"yT2":0,"toosoon":0,"cond_shown":"randomdotsize","ratio_trial":900,"smaller_num":"18","larger_num":"20","correct_side":1,"subjID":"43wm","gender":"No_gender","age":"No_age","school":"No_school"},{"start_time":1549382163303,"click_time":1549382164115,"finger_time":1549382163794,"fix_duration":747.766495882748,"trial":38,"RT":491,"MT":321,"sideResp":2,"stimulus":"img/500/equaldotsize/R/3_Ratio_500_L_10_R_20.png","xmouse":[399.3330078125,399.3330078125,399.3330078125,399.3330078125,400,400,400,400,400,400,400,400,400,400,400,400,400,400,400,400,400,400,401,407.3330078125,413,430.6669921875,441,454,461.3330078125,480,510,531,542,569,584,642.6669921875,656,675.3330078125,688,694],"ymouse":[797.3330078125,797.3330078125,797.3330078125,797.3330078125,797,797,797,797,797,797,797,797,797,797,797,795,795,795,795,795,795,776,768,749.3330078125,734,679.3330078125,642,603,583.3330078125,540,474,428,406,356,330,225.33299255371094,200,155.33299255371094,114,94],"timestamp_mouse":[48,51,71,91,118,131,151,171,191,212,231,251,272,291,311,331,352,371,392,411,433,454,471,491,512,533,551,571,592,612,633,652,672,691,711,732,752,771,791,812],"xSR":350,"ySR":768,"xT1":30,"yT1":0,"xT2":670,"yT2":0,"toosoon":0,"cond_shown":"equaldotsize","ratio_trial":500,"smaller_num":"10","larger_num":"20","correct_side":2,"subjID":"43wm","gender":"No_gender","age":"No_age","school":"No_school"},{"start_time":1549382165673,"click_time":1549382166595,"finger_time":1549382166254,"fix_duration":716.8913032620645,"trial":39,"RT":581,"MT":341,"sideResp":2,"stimulus":"img/500/equaldotanddens/R/1_Ratio_500_L_9_R_18.png","xmouse":[388,388,388,388,388,388,388,388,388,387.3330078125,387.3330078125,387.3330078125,387.3330078125,387.3330078125,387.3330078125,387.3330078125,387.3330078125,387.3330078125,387.3330078125,387.3330078125,386,386,386,386,386,387,387.3330078125,388,402,420,430,448.6669921875,467.3330078125,477.3330078125,506.6669921875,524,540.6669921875,547.3330078125,570,584,599.3330078125,607.3330078125,627.3330078125,637.3330078125,682.6669921875,691.3330078125,708],"ymouse":[834,834,834,834,834,834,834,834,834,833.3330078125,833.3330078125,833.3330078125,833.3330078125,833.3330078125,833.3330078125,833.3330078125,833.3330078125,833.3330078125,833.3330078125,833.3330078125,828,828,828,828,828,822,820.6669921875,813,782,748,733,707.3330078125,683.3330078125,668.6669921875,623.3330078125,586,546.6669921875,525.3330078125,450,392,333.3330078125,303.3330078125,246.6669921875,219.33299255371094,124.6669921875,106.66699981689453,74],"timestamp_mouse":[8,21,55,61,81,101,121,141,161,184,201,221,241,261,281,301,321,341,364,381,401,421,442,461,481,501,521,542,564,581,601,621,641,661,682,702,721,741,764,783,802,821,841,862,884,902,921],"xSR":350,"ySR":768,"xT1":30,"yT1":0,"xT2":670,"yT2":0,"toosoon":0,"cond_shown":"equaldotanddens","ratio_trial":500,"smaller_num":"9","larger_num":"18","correct_side":2,"subjID":"43wm","gender":"No_gender","age":"No_age","school":"No_school"},{"start_time":1549382170728,"click_time":1549382171454,"finger_time":1549382171214,"fix_duration":428.9456101001228,"trial":40,"RT":486,"MT":240,"sideResp":2,"stimulus":"img/500/equaldotanddens/R/14_Ratio_500_L_5_R_10.png","xmouse":[402,402,403.3330078125,403.3330078125,403.3330078125,403.3330078125,403.3330078125,403.3330078125,403.3330078125,403.3330078125,403.3330078125,403.3330078125,403.3330078125,403.3330078125,404.6669921875,404.6669921875,404.6669921875,404.6669921875,404.6669921875,404.6669921875,404.6669921875,414,420.6669921875,424.6669921875,436.6669921875,447.3330078125,474,518.6669921875,543.3330078125,552,570.6669921875,600.6669921875,634.6669921875,652.6669921875,693.3330078125,734],"ymouse":[808,808,808.6669921875,808.6669921875,809.3330078125,809.3330078125,809.3330078125,809.3330078125,809.3330078125,809.3330078125,809.3330078125,809.3330078125,809.3330078125,809.3330078125,813.3330078125,813.3330078125,813.3330078125,813.3330078125,813.3330078125,813.3330078125,813.3330078125,789,771.3330078125,760.6669921875,728.6669921875,706.6669921875,658,576.6669921875,517.3330078125,485,419.3330078125,318.6669921875,248.6669921875,211.33299255371094,146.66700744628906,86],"timestamp_mouse":[6,47,66,86,106,126,146,166,186,206,226,246,267,287,307,326,346,367,386,406,426,449,467,486,506,526,546,566,586,606,626,646,667,687,706,726],"xSR":350,"ySR":768,"xT1":30,"yT1":0,"xT2":670,"yT2":0,"toosoon":0,"cond_shown":"equaldotanddens","ratio_trial":500,"smaller_num":"5","larger_num":"10","correct_side":2,"subjID":"43wm","gender":"No_gender","age":"No_age","school":"No_school"},{"start_time":1549382173047,"click_time":1549382174295,"finger_time":1549382173614,"fix_duration":591.8496862829584,"trial":41,"RT":567,"MT":681,"sideResp":2,"stimulus":"img/250/equaldotanddens/R/8_Ratio_250_L_1_R_4.png","xmouse":[381.3330078125,381.3330078125,381.3330078125,381.3330078125,381.3330078125,381.3330078125,381.3330078125,379.3330078125,379.3330078125,379.3330078125,379.3330078125,379.3330078125,379.3330078125,379.3330078125,379.3330078125,379.3330078125,379.3330078125,379,379,379,379,379,379,379,379,379,379,398,444.6669921875,465,510.6669921875,558.6669921875,584,661.3330078125,708.6669921875,760,778,797.3330078125,798,796,796,795.3330078125,795.3330078125,795.3330078125,795.3330078125,795.3330078125,795.3330078125,795.3330078125,795.3330078125,795.3330078125,795.3330078125,795.3330078125,795.3330078125,795.3330078125,795.3330078125,795.3330078125,795.3330078125,795.3330078125,795.3330078125,795.3330078125,795.3330078125,795.3330078125,730.6669921875],"ymouse":[827.3330078125,827.3330078125,827.3330078125,827.3330078125,827.3330078125,827.3330078125,827.3330078125,833.3330078125,833.3330078125,833.3330078125,835.3330078125,835.3330078125,835.3330078125,835.3330078125,835.3330078125,834.6669921875,834.6669921875,834,834,834,834,834,834,834,834,834,834,806,731.3330078125,696,617.3330078125,530.6669921875,486,353.3330078125,271.3330078125,192,153,67.33300018310547,23,8,8,6.666999816894531,6.666999816894531,6.666999816894531,6.666999816894531,6.666999816894531,6.666999816894531,6.666999816894531,6.666999816894531,6.666999816894531,6.666999816894531,6.666999816894531,6.666999816894531,6.666999816894531,6.666999816894531,6.666999816894531,6.666999816894531,6.666999816894531,6.666999816894531,6.666999816894531,6.666999816894531,6.666999816894531,71.33300018310547],"timestamp_mouse":[7,45,50,68,87,107,127,148,167,187,208,227,247,267,288,307,327,349,367,388,407,428,447,467,487,507,527,547,567,588,608,627,648,668,687,707,727,748,769,787,807,827,847,869,887,907,927,947,967,987,1008,1027,1048,1068,1087,1107,1127,1148,1168,1187,1208,1227,1248],"xSR":350,"ySR":768,"xT1":30,"yT1":0,"xT2":670,"yT2":0,"toosoon":0,"cond_shown":"equaldotanddens","ratio_trial":250,"smaller_num":"1","larger_num":"4","correct_side":2,"subjID":"43wm","gender":"No_gender","age":"No_age","school":"No_school"},{"start_time":1549382175527,"click_time":1549382176636,"finger_time":1549382176216,"fix_duration":250,"trial":42,"RT":689,"MT":420,"sideResp":2,"stimulus":"img/500/equaldotsize/R/9_Ratio_500_L_2_R_4.png","xmouse":[385.3330078125,386,386,386.6669921875,386.6669921875,386.6669921875,386.6669921875,386.6669921875,386.6669921875,386.6669921875,386.6669921875,386.6669921875,388.6669921875,389.3330078125,389,390,390,390,390.6669921875,390.6669921875,390,391,391,391.3330078125,392,392,392,392,392,406,409,414,416,421.3330078125,422,422.6669921875,422,422,422,426.6669921875,432,446,461,484,499.3330078125,508,528,539.3330078125,568,615,649,666,692.6669921875,713,732.6669921875],"ymouse":[839.3330078125,839,838,838.6669921875,838.6669921875,838.6669921875,838.6669921875,838.6669921875,838.6669921875,838.6669921875,838.6669921875,838.6669921875,840.6669921875,841.3330078125,842,842,843,844,844.6669921875,845.3330078125,846,846,846,845.3330078125,844,844,844,844,844,806,800,787,781,760.6669921875,756,747.3330078125,737,732,704,681.3330078125,665,632,602,552,512.6669921875,492,444,419.3330078125,366,284,228,200,149.33299255371094,102,38.66699981689453],"timestamp_mouse":[12,55,67,87,107,127,147,167,187,207,227,247,267,289,307,327,347,367,387,407,427,447,467,489,509,529,547,568,587,607,627,647,667,689,707,728,748,767,789,807,827,847,867,889,908,928,947,967,987,1010,1027,1048,1067,1087,1109],"xSR":350,"ySR":768,"xT1":30,"yT1":0,"xT2":670,"yT2":0,"toosoon":0,"cond_shown":"equaldotsize","ratio_trial":500,"smaller_num":"2","larger_num":"4","correct_side":2,"subjID":"43wm","gender":"No_gender","age":"No_age","school":"No_school"},{"start_time":1549382179296,"click_time":1549382180274,"finger_time":1549382179855,"fix_duration":1339.077836746007,"trial":43,"RT":559,"MT":419,"sideResp":1,"stimulus":"img/900/randomdotsize/R/7_Ratio_900_L_9_R_10.png","xmouse":[379.3330078125,379.3330078125,379.3330078125,379.3330078125,379.3330078125,379,379,379,379.3330078125,379.3330078125,379.3330078125,378.6669921875,378.6669921875,378.6669921875,378.6669921875,378.6669921875,378.6669921875,378.6669921875,378.6669921875,379.3330078125,379.3330078125,379.3330078125,379,379,379,379,379,393.3330078125,401,408,412.6669921875,419,425,426,425.3330078125,420,416,402,371,347.3330078125,334.6669921875,306.6669921875,277.3330078125,230,214.66700744628906,184,156,142,104,81.33300018310547],"ymouse":[838.6669921875,838.6669921875,839.3330078125,839.3330078125,839.3330078125,840,840,840,840.6669921875,840.6669921875,840.6669921875,840.6669921875,841.3330078125,841.3330078125,841.3330078125,841.3330078125,841.3330078125,841.3330078125,841.3330078125,841.3330078125,840.6669921875,840.6669921875,840,840,840,840,840,779.3330078125,744,710,693.3330078125,660,614,586,570.6669921875,542,530,502,464,438.6669921875,424.6669921875,396.6669921875,365.3330078125,308,288.6669921875,244,199,176,108,62.66699981689453],"timestamp_mouse":[1,18,45,58,78,98,118,138,158,179,198,218,238,258,278,298,318,338,358,378,398,418,439,458,478,498,518,542,559,578,598,618,641,660,678,698,718,738,758,778,798,818,838,861,878,898,918,938,960,978],"xSR":350,"ySR":768,"xT1":30,"yT1":0,"xT2":670,"yT2":0,"toosoon":0,"cond_shown":"randomdotsize","ratio_trial":900,"smaller_num":"9","larger_num":"10","correct_side":2,"subjID":"43wm","gender":"No_gender","age":"No_age","school":"No_school"},{"start_time":1549382181910,"click_time":1549382183157,"finger_time":1549382182915,"fix_duration":250,"trial":44,"RT":1005,"MT":242,"sideResp":2,"stimulus":"img/750/randomdotsizeEA/L/14_Ratio_750_L_8_R_6.png","xmouse":[403.3330078125,402,400.6669921875,400,400,399,399.3330078125,398.6669921875,398,398,398,398,398,398,398,398,398,398,398,396.6669921875,396.6669921875,396,396,397,398,398,398.6669921875,398.6669921875,398.6669921875,398.6669921875,398.6669921875,398.6669921875,398.6669921875,398.6669921875,398.6669921875,398.6669921875,400,400,400,400,400,400,400,400,400,400,400,401,406,426,447,457.3330078125,514,532,567.3330078125,584,612,642,656,658.6669921875,664,673],"ymouse":[823.3330078125,822,816.6669921875,816,813,812,810.6669921875,809.3330078125,808,808,808,808,808,808,809,809,809,809,809,806.6669921875,806.6669921875,806,806,806,806,806,806.6669921875,806.6669921875,806.6669921875,806.6669921875,806.6669921875,806.6669921875,806.6669921875,806.6669921875,806.6669921875,806.6669921875,806,806,806,806,806,804,804,804,803,802,800,792,780,745,702,679.3330078125,562,528,453.3330078125,414,344,253,200,174.66700744628906,127,64],"timestamp_mouse":[4,24,46,64,84,104,124,144,164,184,204,224,248,288,304,324,344,364,384,404,424,444,464,484,504,524,546,564,584,604,624,645,664,684,704,724,747,764,784,804,824,844,864,884,904,924,948,964,984,1005,1024,1044,1068,1084,1104,1125,1145,1165,1184,1204,1224,1247],"xSR":350,"ySR":768,"xT1":30,"yT1":0,"xT2":670,"yT2":0,"toosoon":0,"cond_shown":"randomdotsizeEA","ratio_trial":750,"smaller_num":"6","larger_num":"8","correct_side":1,"subjID":"43wm","gender":"No_gender","age":"No_age","school":"No_school"},{"start_time":1549382184533,"click_time":1549382185997,"finger_time":1549382185614,"fix_duration":255.1358365775197,"trial":45,"RT":1081,"MT":383,"sideResp":1,"stimulus":"img/750/randomdotsizeEA/L/8_Ratio_750_L_4_R_3.png","xmouse":[396,394,394,394,394,394,394,394,391.3330078125,391.3330078125,391.3330078125,391.3330078125,391.3330078125,391.3330078125,391.3330078125,391.3330078125,391.3330078125,392,392,392,392,392,392,392,392,392.6669921875,392.6669921875,393.3330078125,393.3330078125,394,394,394,394,394,394,394,394,394,394,394,394,392.6669921875,392.6669921875,392.6669921875,392.6669921875,392.6669921875,392.6669921875,392.6669921875,392.6669921875,392.6669921875,392.6669921875,392.6669921875,382,378,368,357,351.3330078125,334.6669921875,321.3330078125,308,300.6669921875,284,254,232,221.33299255371094,197.33299255371094,161.33299255371094,139.33299255371094,129.33299255371094,109.33300018310547,100.66699981689453,84,64],"ymouse":[810,812,812,812,812,812,812,812,805.3330078125,805.3330078125,805.3330078125,805.3330078125,805.3330078125,805.3330078125,805.3330078125,805.3330078125,805.3330078125,802,802,802,802,802,802,802,802,795.3330078125,793.3330078125,792.6669921875,792.6669921875,792,793,794,794,794,794,794,794,794,794,794,794,797.3330078125,797.3330078125,797.3330078125,797.3330078125,797.3330078125,797.3330078125,797.3330078125,797.3330078125,797.3330078125,797.3330078125,797.3330078125,770,759,734,704,690.6669921875,653.3330078125,627.3330078125,598,583.3330078125,548,488,440,415.3330078125,366.6669921875,294.6669921875,246.6669921875,222.66700744628906,175.33299255371094,153.33299255371094,113,62],"timestamp_mouse":[3,23,52,61,81,101,122,142,164,181,201,222,241,290,301,321,342,368,381,401,421,441,463,482,501,521,545,561,581,601,621,643,661,681,701,721,742,761,781,801,821,843,861,882,901,922,941,961,981,1001,1021,1041,1061,1081,1101,1121,1141,1163,1182,1201,1221,1241,1262,1281,1301,1321,1344,1363,1382,1401,1421,1441,1464],"xSR":350,"ySR":768,"xT1":30,"yT1":0,"xT2":670,"yT2":0,"toosoon":0,"cond_shown":"randomdotsizeEA","ratio_trial":750,"smaller_num":"3","larger_num":"4","correct_side":1,"subjID":"43wm","gender":"No_gender","age":"No_age","school":"No_school"},{"start_time":1549382187286,"click_time":1549382190695,"finger_time":1549382188297,"fix_duration":250,"trial":46,"RT":1011,"MT":2398,"sideResp":1,"stimulus":"img/500/randomdotsizeEA/L/8_Ratio_500_L_8_R_4.png","xmouse":[399,399,399,399,398,398,398,398,398,398,398,398,398,398,398,396.6669921