[{"start_time":1549381508979,"click_time":1549381509818,"finger_time":1549381508985,"fix_duration":1456.7877421952353,"trial":0,"RT":6,"MT":833,"sideResp":2,"stimulus":[],"xmouse":[413,413,413,413,413,413,413,413,413,413,413,413,413,413,413,413,413,413,413,413,413,413,413,413,413,413,413,413,413,413,413,413,413,413,413,413,413,413,413,413,413,413,722],"ymouse":[568,568,568,568,568,568,568,568,568,568,568,568,568,568,568,568,568,568,568,568,568,568,568,568,568,568,568,568,568,568,568,568,568,568,568,568,568,568,568,568,568,568,40],"timestamp_mouse":[6,19,38,59,78,98,118,138,158,178,199,218,239,258,278,298,318,339,358,378,399,418,438,458,479,498,518,540,558,578,598,618,638,659,678,698,718,738,758,778,798,818,837],"xSR":350,"ySR":508.79999999999995,"xT1":30,"yT1":0,"xT2":670,"yT2":0,"toosoon":0,"cond_shown":"Congruent","ratio_trial":100,"L_num":15,"L_den":25,"R_num":13,"R_den":26,"correct_side":1,"subjID":"44wm","gender":"No_gender","age":"No_age","school":"No_school","test":{"fix_dur":[250,1500],"timestim":900,"targets_dim":[100,100],"targets_relative_coord":[0.1,0.9],"size_stim":[880,420],"start_dim":[100,100],"size_start":[300,300],"size_fix":60,"samplingrate":20,"img_types":["Congruent","Incongruent"],"ratios":[100,200,300,500],"rep_conds":15,"nTrials":128,"trials_to_rest":500,"Trials_order":[40,68,41,56,10,42,113,2,76,86,103,127,88,89,5,91,69,116,78,122,99,3,61,47,67,14,7,65,95,93,58,115,55,8,25,24,48,105,15,92,82,59,6,64,94,123,75,114,109,30,19,9,108,110,4,39,37,43,81,112,44,87,53,117,22,80,26,77,97,72,126,104,54,73,27,38,85,0,21,98,60,11,23,102,52,96,32,45,120,125,28,71,66,34,100,79,62,20,51,106,36,13,101,35,50,31,57,107,90,63,118,12,70,1,124,121,83,18,16,29,84,111,17,49,74,33,119,46],"cond_shown":["Congruent","Congruent","Incongruent","Congruent","Congruent","Congruent","Incongruent","Congruent","Congruent","Congruent","Incongruent","Incongruent","Congruent","Incongruent","Incongruent","Incongruent","Incongruent","Congruent","Congruent","Congruent","Incongruent","Incongruent","Incongruent","Incongruent","Incongruent","Congruent","Incongruent","Incongruent","Incongruent","Incongruent","Congruent","Incongruent","Incongruent","Congruent","Incongruent","Congruent","Congruent","Incongruent","Incongruent","Congruent","Congruent","Incongruent","Congruent","Congruent","Congruent","Incongruent","Incongruent","Congruent","Incongruent","Congruent","Incongruent","Incongruent","Congruent","Congruent","Congruent","Incongruent","Incongruent","Incongruent","Incongruent","Congruent","Congruent","Incongruent","Incongruent","Incongruent","Congruent","Congruent","Congruent","Incongruent","Incongruent","Congruent","Congruent","Congruent","Congruent","Incongruent","Incongruent","Congruent","Incongruent","Congruent","Incongruent","Congruent","Congruent","Incongruent","Incongruent","Congruent","Congruent","Congruent","Congruent","Incongruent","Congruent","Incongruent","Congruent","Incongruent","Congruent","Congruent","Congruent","Incongruent","Congruent","Congruent","Incongruent","Congruent","Congruent","Incongruent","Incongruent","Incongruent","Congruent","Incongruent","Incongruent","Incongruent","Congruent","Incongruent","Congruent","Congruent","Congruent","Incongruent","Congruent","Incongruent","Incongruent","Congruent","Congruent","Incongruent","Congruent","Incongruent","Incongruent","Incongruent","Congruent","Incongruent","Incongruent","Congruent"],"ratio_trial":[100,300,100,100,200,200,100,200,300,500,500,500,100,100,300,200,300,300,500,200,200,200,300,500,200,500,500,100,500,300,200,200,500,100,100,100,100,100,500,300,200,200,500,100,500,200,200,200,300,500,200,100,300,500,300,500,300,200,100,100,300,500,300,300,500,100,200,300,100,100,500,100,500,100,200,500,300,100,300,200,300,200,500,500,300,100,100,300,100,300,300,500,200,200,300,500,500,300,200,200,300,300,300,200,200,500,100,200,200,500,500,300,500,100,300,100,200,200,100,300,300,500,100,100,200,100,500,500],"left_num":[15,4,6,7,9,3,9,9,3,8,7,7,7,9,3,7,13,2,15,5,6,6,13,7,4,8,7,6,5,4,3,9,7,12,12,7,3,9,5,4,1,7,10,12,20,14,7,16,8,3,3,3,2,18,2,7,13,1,6,15,12,7,4,4,4,2,9,8,10,6,7,9,7,9,6,4,4,11,13,6,1,7,7,3,20,7,11,13,11,4,24,7,6,20,24,2,9,4,7,14,1,13,4,4,6,7,17,3,1,7,2,20,7,9,1,6,7,20,11,13,11,7,17,8,3,12,5,10],"right_num":[13,2,13,15,13,14,14,13,4,1,5,9,9,13,4,6,12,12,5,14,3,3,12,5,14,4,5,3,6,6,9,8,5,13,2,9,2,20,6,1,21,12,4,13,3,6,8,12,14,15,1,7,12,1,10,5,12,2,13,13,2,5,2,2,1,6,13,14,8,5,1,8,1,20,3,15,2,4,12,7,8,14,5,14,13,9,6,12,6,6,2,9,3,9,2,4,20,1,8,6,3,12,2,6,7,5,10,1,21,5,7,9,1,6,8,11,8,9,4,12,4,5,10,6,7,2,6,22],"left_den":[25,5,10,14,30,6,15,30,6,12,21,8,14,15,6,15,26,10,18,10,20,20,26,21,6,12,21,12,6,5,12,15,21,30,30,14,6,10,6,10,2,10,15,30,28,30,10,20,10,12,10,9,10,27,20,21,26,3,10,25,24,21,20,20,6,5,30,10,25,20,10,15,10,10,20,16,20,22,26,12,30,10,21,8,25,14,22,26,22,5,30,8,15,25,30,3,27,10,10,28,5,26,20,5,12,21,30,10,2,21,24,25,10,18,30,10,10,25,22,26,22,21,30,16,10,30,6,24],"right_den":[26,4,26,25,26,20,28,26,5,6,6,24,15,26,20,9,15,24,15,20,6,6,15,6,30,24,6,5,18,12,20,10,6,26,4,15,5,25,18,10,30,24,24,26,14,9,16,20,28,20,2,30,24,6,25,6,15,15,26,26,10,6,4,4,6,12,26,28,16,25,5,16,5,25,6,20,4,10,15,10,24,28,6,16,26,15,15,15,15,12,4,24,15,15,4,24,24,10,16,20,6,15,4,10,10,6,15,2,30,6,12,18,5,10,24,22,16,15,10,15,20,6,15,10,14,4,18,24],"correct_side":[1,1,1,2,2,2,1,2,2,1,2,1,2,1,1,2,2,2,1,2,2,2,2,2,1,1,2,2,1,1,2,2,2,2,2,2,1,1,1,1,2,1,1,2,1,2,1,1,1,2,2,1,2,1,2,2,2,1,1,1,1,2,2,2,1,2,2,1,2,1,1,1,1,1,2,2,2,1,2,2,2,1,2,2,1,2,1,2,1,1,1,1,1,1,1,1,2,1,1,1,2,2,2,1,2,2,2,2,2,2,2,1,1,2,2,1,1,1,1,2,1,2,2,2,2,2,1,2],"img_shown":["img2/100/Congruent/L/C_Dist_100_LN_15_LD_25_RN_13_RD_26_0.png","img2/300/Congruent/L/C_Dist_300_LN_4_LD_5_RN_2_RD_4_0.png","img2/100/Incongruent/L/I_Dist_100_LN_6_LD_10_RN_13_RD_26_0.png","img2/100/Congruent/R/C_Dist_100_LN_7_LD_14_RN_15_RD_25_1.png","img2/200/Congruent/R/C_Dist_200_LN_9_LD_30_RN_13_RD_26_1.png","img2/200/Congruent/R/C_Dist_200_LN_3_LD_6_RN_14_RD_20_1.png","img2/100/Incongruent/L/I_Dist_100_LN_9_LD_15_RN_14_RD_28_0.png","img2/200/Congruent/R/C_Dist_200_LN_9_LD_30_RN_13_RD_26_1.png","img2/300/Congruent/R/C_Dist_300_LN_3_LD_6_RN_4_RD_5_1.png","img2/500/Congruent/L/C_Dist_500_LN_8_LD_12_RN_1_RD_6_0.png","img2/500/Incongruent/R/I_Dist_500_LN_7_LD_21_RN_5_RD_6_1.png","img2/500/Incongruent/L/I_Dist_500_LN_7_LD_8_RN_9_RD_24_0.png","img2/100/Congruent/R/C_Dist_100_LN_7_LD_14_RN_9_RD_15_1.png","img2/100/Incongruent/L/I_Dist_100_LN_9_LD_15_RN_13_RD_26_0.png","img2/300/Incongruent/L/I_Dist_300_LN_3_LD_6_RN_4_RD_20_0.png","img2/200/Incongruent/R/I_Dist_200_LN_7_LD_15_RN_6_RD_9_1.png","img2/300/Incongruent/R/I_Dist_300_LN_13_LD_26_RN_12_RD_15_1.png","img2/300/Congruent/R/C_Dist_300_LN_2_LD_10_RN_12_RD_24_1.png","img2/500/Congruent/L/C_Dist_500_LN_15_LD_18_RN_5_RD_15_0.png","img2/200/Congruent/R/C_Dist_200_LN_5_LD_10_RN_14_RD_20_1.png","img2/200/Incongruent/R/I_Dist_200_LN_6_LD_20_RN_3_RD_6_1.png","img2/200/Incongruent/R/I_Dist_200_LN_6_LD_20_RN_3_RD_6_1.png","img2/300/Incongruent/R/I_Dist_300_LN_13_LD_26_RN_12_RD_15_1.png","img2/500/Incongruent/R/I_Dist_500_LN_7_LD_21_RN_5_RD_6_1.png","img2/200/Incongruent/L/I_Dist_200_LN_4_LD_6_RN_14_RD_30_0.png","img2/500/Congruent/L/C_Dist_500_LN_8_LD_12_RN_4_RD_24_0.png","img2/500/Incongruent/R/I_Dist_500_LN_7_LD_21_RN_5_RD_6_1.png","img2/100/Incongruent/R/I_Dist_100_LN_6_LD_12_RN_3_RD_5_1.png","img2/500/Incongruent/L/I_Dist_500_LN_5_LD_6_RN_6_RD_18_0.png","img2/300/Incongruent/L/I_Dist_300_LN_4_LD_5_RN_6_RD_12_0.png","img2/200/Congruent/R/C_Dist_200_LN_3_LD_12_RN_9_RD_20_1.png","img2/200/Incongruent/R/I_Dist_200_LN_9_LD_15_RN_8_RD_10_1.png","img2/500/Incongruent/R/I_Dist_500_LN_7_LD_21_RN_5_RD_6_1.png","img2/100/Congruent/R/C_Dist_100_LN_12_LD_30_RN_13_RD_26_1.png","img2/100/Incongruent/R/I_Dist_100_LN_12_LD_30_RN_2_RD_4_1.png","img2/100/Congruent/R/C_Dist_100_LN_7_LD_14_RN_9_RD_15_1.png","img2/100/Congruent/L/C_Dist_100_LN_3_LD_6_RN_2_RD_5_0.png","img2/100/Incongruent/L/I_Dist_100_LN_9_LD_10_RN_20_RD_25_0.png","img2/500/Incongruent/L/I_Dist_500_LN_5_LD_6_RN_6_RD_18_0.png","img2/300/Congruent/L/C_Dist_300_LN_4_LD_10_RN_1_RD_10_0.png","img2/200/Congruent/R/C_Dist_200_LN_1_LD_2_RN_21_RD_30_1.png","img2/200/Incongruent/L/I_Dist_200_LN_7_LD_10_RN_12_RD_24_0.png","img2/500/Congruent/L/C_Dist_500_LN_10_LD_15_RN_4_RD_24_0.png","img2/100/Congruent/R/C_Dist_100_LN_12_LD_30_RN_13_RD_26_1.png","img2/500/Congruent/L/C_Dist_500_LN_20_LD_28_RN_3_RD_14_0.png","img2/200/Incongruent/R/I_Dist_200_LN_14_LD_30_RN_6_RD_9_1.png","img2/200/Incongruent/L/I_Dist_200_LN_7_LD_10_RN_8_RD_16_0.png","img2/200/Congruent/L/C_Dist_200_LN_16_LD_20_RN_12_RD_20_0.png","img2/300/Incongruent/L/I_Dist_300_LN_8_LD_10_RN_14_RD_28_0.png","img2/500/Congruent/R/C_Dist_500_LN_3_LD_12_RN_15_RD_20_1.png","img2/200/Incongruent/R/I_Dist_200_LN_3_LD_10_RN_1_RD_2_1.png","img2/100/Incongruent/L/I_Dist_100_LN_3_LD_9_RN_7_RD_30_0.png","img2/300/Congruent/R/C_Dist_300_LN_2_LD_10_RN_12_RD_24_1.png","img2/500/Congruent/L/C_Dist_500_LN_18_LD_27_RN_1_RD_6_0.png","img2/300/Congruent/R/C_Dist_300_LN_2_LD_20_RN_10_RD_25_1.png","img2/500/Incongruent/R/I_Dist_500_LN_7_LD_21_RN_5_RD_6_1.png","img2/300/Incongruent/R/I_Dist_300_LN_13_LD_26_RN_12_RD_15_1.png","img2/200/Incongruent/L/I_Dist_200_LN_1_LD_3_RN_2_RD_15_0.png","img2/100/Incongruent/L/I_Dist_100_LN_6_LD_10_RN_13_RD_26_0.png","img2/100/Congruent/L/C_Dist_100_LN_15_LD_25_RN_13_RD_26_0.png","img2/300/Congruent/L/C_Dist_300_LN_12_LD_24_RN_2_RD_10_0.png","img2/500/Incongruent/R/I_Dist_500_LN_7_LD_21_RN_5_RD_6_1.png","img2/300/Incongruent/R/I_Dist_300_LN_4_LD_20_RN_2_RD_4_1.png","img2/300/Incongruent/R/I_Dist_300_LN_4_LD_20_RN_2_RD_4_1.png","img2/500/Congruent/L/C_Dist_500_LN_4_LD_6_RN_1_RD_6_0.png","img2/100/Congruent/R/C_Dist_100_LN_2_LD_5_RN_6_RD_12_1.png","img2/200/Congruent/R/C_Dist_200_LN_9_LD_30_RN_13_RD_26_1.png","img2/300/Incongruent/L/I_Dist_300_LN_8_LD_10_RN_14_RD_28_0.png","img2/100/Incongruent/R/I_Dist_100_LN_10_LD_25_RN_8_RD_16_1.png","img2/100/Congruent/L/C_Dist_100_LN_6_LD_20_RN_5_RD_25_0.png","img2/500/Congruent/L/C_Dist_500_LN_7_LD_10_RN_1_RD_5_0.png","img2/100/Congruent/L/C_Dist_100_LN_9_LD_15_RN_8_RD_16_0.png","img2/500/Congruent/L/C_Dist_500_LN_7_LD_10_RN_1_RD_5_0.png","img2/100/Incongruent/L/I_Dist_100_LN_9_LD_10_RN_20_RD_25_0.png","img2/200/Incongruent/R/I_Dist_200_LN_6_LD_20_RN_3_RD_6_1.png","img2/500/Congruent/R/C_Dist_500_LN_4_LD_16_RN_15_RD_20_1.png","img2/300/Incongruent/R/I_Dist_300_LN_4_LD_20_RN_2_RD_4_1.png","img2/100/Congruent/L/C_Dist_100_LN_11_LD_22_RN_4_RD_10_0.png","img2/300/Incongruent/R/I_Dist_300_LN_13_LD_26_RN_12_RD_15_1.png","img2/200/Congruent/R/C_Dist_200_LN_6_LD_12_RN_7_RD_10_1.png","img2/300/Congruent/R/C_Dist_300_LN_1_LD_30_RN_8_RD_24_1.png","img2/200/Incongruent/L/I_Dist_200_LN_7_LD_10_RN_14_RD_28_0.png","img2/500/Incongruent/R/I_Dist_500_LN_7_LD_21_RN_5_RD_6_1.png","img2/500/Congruent/R/C_Dist_500_LN_3_LD_8_RN_14_RD_16_1.png","img2/300/Congruent/L/C_Dist_300_LN_20_LD_25_RN_13_RD_26_0.png","img2/100/Congruent/R/C_Dist_100_LN_7_LD_14_RN_9_RD_15_1.png","img2/100/Congruent/L/C_Dist_100_LN_11_LD_22_RN_6_RD_15_0.png","img2/300/Incongruent/R/I_Dist_300_LN_13_LD_26_RN_12_RD_15_1.png","img2/100/Congruent/L/C_Dist_100_LN_11_LD_22_RN_6_RD_15_0.png","img2/300/Incongruent/L/I_Dist_300_LN_4_LD_5_RN_6_RD_12_0.png","img2/300/Congruent/L/C_Dist_300_LN_24_LD_30_RN_2_RD_4_0.png","img2/500/Incongruent/L/I_Dist_500_LN_7_LD_8_RN_9_RD_24_0.png","img2/200/Congruent/L/C_Dist_200_LN_6_LD_15_RN_3_RD_15_0.png","img2/200/Congruent/L/C_Dist_200_LN_20_LD_25_RN_9_RD_15_0.png","img2/300/Congruent/L/C_Dist_300_LN_24_LD_30_RN_2_RD_4_0.png","img2/500/Incongruent/L/I_Dist_500_LN_2_LD_3_RN_4_RD_24_0.png","img2/500/Congruent/R/C_Dist_500_LN_9_LD_27_RN_20_RD_24_1.png","img2/300/Congruent/L/C_Dist_300_LN_4_LD_10_RN_1_RD_10_0.png","img2/200/Incongruent/L/I_Dist_200_LN_7_LD_10_RN_8_RD_16_0.png","img2/200/Congruent/L/C_Dist_200_LN_14_LD_28_RN_6_RD_20_0.png","img2/300/Congruent/R/C_Dist_300_LN_1_LD_5_RN_3_RD_6_1.png","img2/300/Incongruent/R/I_Dist_300_LN_13_LD_26_RN_12_RD_15_1.png","img2/300/Incongruent/R/I_Dist_300_LN_4_LD_20_RN_2_RD_4_1.png","img2/200/Incongruent/L/I_Dist_200_LN_4_LD_5_RN_6_RD_10_0.png","img2/200/Congruent/R/C_Dist_200_LN_6_LD_12_RN_7_RD_10_1.png","img2/500/Incongruent/R/I_Dist_500_LN_7_LD_21_RN_5_RD_6_1.png","img2/100/Incongruent/R/I_Dist_100_LN_17_LD_30_RN_10_RD_15_1.png","img2/200/Incongruent/R/I_Dist_200_LN_3_LD_10_RN_1_RD_2_1.png","img2/200/Congruent/R/C_Dist_200_LN_1_LD_2_RN_21_RD_30_1.png","img2/500/Incongruent/R/I_Dist_500_LN_7_LD_21_RN_5_RD_6_1.png","img2/500/Congruent/R/C_Dist_500_LN_2_LD_24_RN_7_RD_12_1.png","img2/300/Congruent/L/C_Dist_300_LN_20_LD_25_RN_9_RD_18_0.png","img2/500/Congruent/L/C_Dist_500_LN_7_LD_10_RN_1_RD_5_0.png","img2/100/Incongruent/R/I_Dist_100_LN_9_LD_18_RN_6_RD_10_1.png","img2/300/Congruent/R/C_Dist_300_LN_1_LD_30_RN_8_RD_24_1.png","img2/100/Incongruent/L/I_Dist_100_LN_6_LD_10_RN_11_RD_22_0.png","img2/200/Incongruent/L/I_Dist_200_LN_7_LD_10_RN_8_RD_16_0.png","img2/200/Congruent/L/C_Dist_200_LN_20_LD_25_RN_9_RD_15_0.png","img2/100/Congruent/L/C_Dist_100_LN_11_LD_22_RN_4_RD_10_0.png","img2/300/Incongruent/R/I_Dist_300_LN_13_LD_26_RN_12_RD_15_1.png","img2/300/Congruent/L/C_Dist_300_LN_11_LD_22_RN_4_RD_20_0.png","img2/500/Incongruent/R/I_Dist_500_LN_7_LD_21_RN_5_RD_6_1.png","img2/100/Incongruent/R/I_Dist_100_LN_17_LD_30_RN_10_RD_15_1.png","img2/100/Incongruent/R/I_Dist_100_LN_8_LD_16_RN_6_RD_10_1.png","img2/200/Congruent/R/C_Dist_200_LN_3_LD_10_RN_7_RD_14_1.png","img2/100/Incongruent/R/I_Dist_100_LN_12_LD_30_RN_2_RD_4_1.png","img2/500/Incongruent/L/I_Dist_500_LN_5_LD_6_RN_6_RD_18_0.png","img2/500/Congruent/R/C_Dist_500_LN_10_LD_24_RN_22_RD_24_1.png"],"dist100_C":[["C_Dist_100_LN_10_LD_25_RN_3_RD_10_0.png","C_Dist_100_LN_11_LD_22_RN_4_RD_10_0.png","C_Dist_100_LN_11_LD_22_RN_6_RD_15_0.png","C_Dist_100_LN_15_LD_25_RN_13_RD_26_0.png","C_Dist_100_LN_3_LD_6_RN_2_RD_5_0.png","C_Dist_100_LN_6_LD_20_RN_5_RD_25_0.png","C_Dist_100_LN_8_LD_16_RN_2_RD_5_0.png","C_Dist_100_LN_9_LD_15_RN_8_RD_16_0.png"],["C_Dist_100_LN_1_LD_2_RN_18_RD_30_1.png","C_Dist_100_LN_1_LD_2_RN_3_RD_5_1.png","C_Dist_100_LN_12_LD_30_RN_13_RD_26_1.png","C_Dist_100_LN_2_LD_5_RN_11_RD_22_1.png","C_Dist_100_LN_2_LD_5_RN_6_RD_12_1.png","C_Dist_100_LN_3_LD_20_RN_4_RD_16_1.png","C_Dist_100_LN_4_LD_10_RN_15_RD_30_1.png","C_Dist_100_LN_4_LD_8_RN_6_RD_10_1.png","C_Dist_100_LN_6_LD_12_RN_15_RD_25_1.png","C_Dist_100_LN_7_LD_14_RN_15_RD_25_1.png","C_Dist_100_LN_7_LD_14_RN_9_RD_15_1.png"]],"dist100_I":[["I_Dist_100_LN_1_LD_2_RN_8_RD_20_0.png","I_Dist_100_LN_2_LD_4_RN_6_RD_15_0.png","I_Dist_100_LN_2_LD_4_RN_8_RD_20_0.png","I_Dist_100_LN_3_LD_5_RN_11_RD_22_0.png","I_Dist_100_LN_3_LD_5_RN_8_RD_16_0.png","I_Dist_100_LN_3_LD_6_RN_4_RD_10_0.png","I_Dist_100_LN_3_LD_9_RN_7_RD_30_0.png","I_Dist_100_LN_4_LD_8_RN_8_RD_20_0.png","I_Dist_100_LN_6_LD_10_RN_11_RD_22_0.png","I_Dist_100_LN_6_LD_10_RN_13_RD_26_0.png","I_Dist_100_LN_6_LD_10_RN_7_RD_14_0.png","I_Dist_100_LN_9_LD_10_RN_20_RD_25_0.png","I_Dist_100_LN_9_LD_15_RN_13_RD_26_0.png","I_Dist_100_LN_9_LD_15_RN_14_RD_28_0.png"],["I_Dist_100_LN_10_LD_25_RN_8_RD_16_1.png","I_Dist_100_LN_10_LD_25_RN_9_RD_18_1.png","I_Dist_100_LN_11_LD_22_RN_9_RD_15_1.png","I_Dist_100_LN_12_LD_24_RN_9_RD_15_1.png","I_Dist_100_LN_12_LD_30_RN_2_RD_4_1.png","I_Dist_100_LN_13_LD_26_RN_12_RD_20_1.png","I_Dist_100_LN_13_LD_26_RN_6_RD_10_1.png","I_Dist_100_LN_17_LD_30_RN_10_RD_15_1.png","I_Dist_100_LN_6_LD_12_RN_3_RD_5_1.png","I_Dist_100_LN_8_LD_16_RN_6_RD_10_1.png","I_Dist_100_LN_8_LD_20_RN_1_RD_2_1.png","I_Dist_100_LN_9_LD_18_RN_6_RD_10_1.png"]],"dist100_S":[["E_Dist_100_LN_2_LD_12_RN_2_RD_30_0.png","E_Dist_100_LN_6_LD_10_RN_6_RD_12_0.png"],["E_Dist_100_LN_6_LD_12_RN_6_RD_10_1.png"]],"dist200_C":[["C_Dist_200_LN_11_LD_22_RN_3_RD_10_0.png","C_Dist_200_LN_12_LD_15_RN_6_RD_10_0.png","C_Dist_200_LN_12_LD_20_RN_6_RD_15_0.png","C_Dist_200_LN_14_LD_28_RN_6_RD_20_0.png","C_Dist_200_LN_15_LD_25_RN_4_RD_10_0.png","C_Dist_200_LN_16_LD_20_RN_12_RD_20_0.png","C_Dist_200_LN_16_LD_30_RN_9_RD_27_0.png","C_Dist_200_LN_20_LD_25_RN_9_RD_15_0.png","C_Dist_200_LN_21_LD_30_RN_2_RD_4_0.png","C_Dist_200_LN_4_LD_10_RN_3_RD_15_0.png","C_Dist_200_LN_4_LD_8_RN_3_RD_10_0.png","C_Dist_200_LN_6_LD_15_RN_3_RD_15_0.png","C_Dist_200_LN_7_LD_21_RN_2_RD_15_0.png","C_Dist_200_LN_8_LD_15_RN_2_RD_6_0.png","C_Dist_200_LN_8_LD_15_RN_3_RD_9_0.png","C_Dist_200_LN_8_LD_15_RN_7_RD_21_0.png","C_Dist_200_LN_9_LD_20_RN_4_RD_16_0.png"],["C_Dist_200_LN_1_LD_2_RN_21_RD_30_1.png","C_Dist_200_LN_13_LD_26_RN_14_RD_20_1.png","C_Dist_200_LN_3_LD_10_RN_11_RD_22_1.png","C_Dist_200_LN_3_LD_10_RN_14_RD_28_1.png","C_Dist_200_LN_3_LD_10_RN_7_RD_14_1.png","C_Dist_200_LN_3_LD_12_RN_9_RD_20_1.png","C_Dist_200_LN_3_LD_6_RN_14_RD_20_1.png","C_Dist_200_LN_5_LD_10_RN_14_RD_20_1.png","C_Dist_200_LN_6_LD_12_RN_7_RD_10_1.png","C_Dist_200_LN_6_LD_20_RN_11_RD_22_1.png","C_Dist_200_LN_7_LD_15_RN_18_RD_27_1.png","C_Dist_200_LN_9_LD_30_RN_13_RD_26_1.png"]],"dist200_I":[["I_Dist_200_LN_1_LD_2_RN_3_RD_10_0.png","I_Dist_200_LN_1_LD_3_RN_2_RD_15_0.png","I_Dist_200_LN_3_LD_4_RN_11_RD_20_0.png","I_Dist_200_LN_4_LD_5_RN_6_RD_10_0.png","I_Dist_200_LN_4_LD_6_RN_14_RD_30_0.png","I_Dist_200_LN_7_LD_10_RN_12_RD_24_0.png","I_Dist_200_LN_7_LD_10_RN_14_RD_28_0.png","I_Dist_200_LN_7_LD_10_RN_8_RD_16_0.png"],["I_Dist_200_LN_11_LD_20_RN_3_RD_4_1.png","I_Dist_200_LN_14_LD_30_RN_12_RD_18_1.png","I_Dist_200_LN_14_LD_30_RN_6_RD_9_1.png","I_Dist_200_LN_3_LD_10_RN_1_RD_2_1.png","I_Dist_200_LN_4_LD_30_RN_1_RD_3_1.png","I_Dist_200_LN_6_LD_20_RN_3_RD_6_1.png","I_Dist_200_LN_7_LD_15_RN_4_RD_6_1.png","I_Dist_200_LN_7_LD_15_RN_6_RD_9_1.png","I_Dist_200_LN_9_LD_15_RN_8_RD_10_1.png"]],"dist200_S":[["E_Dist_200_LN_3_LD_6_RN_3_RD_10_0.png"],["E_Dist_200_LN_3_LD_10_RN_3_RD_6_1.png"]],"dist300_C":[["C_Dist_300_LN_11_LD_22_RN_1_RD_5_0.png","C_Dist_300_LN_11_LD_22_RN_2_RD_10_0.png","C_Dist_300_LN_11_LD_22_RN_4_RD_20_0.png","C_Dist_300_LN_12_LD_24_RN_2_RD_10_0.png","C_Dist_300_LN_18_LD_20_RN_9_RD_15_0.png","C_Dist_300_LN_20_LD_25_RN_13_RD_26_0.png","C_Dist_300_LN_20_LD_25_RN_14_RD_28_0.png","C_Dist_300_LN_20_LD_25_RN_5_RD_10_0.png","C_Dist_300_LN_20_LD_25_RN_8_RD_16_0.png","C_Dist_300_LN_20_LD_25_RN_9_RD_18_0.png","C_Dist_300_LN_24_LD_30_RN_2_RD_4_0.png","C_Dist_300_LN_24_LD_30_RN_8_RD_16_0.png","C_Dist_300_LN_3_LD_6_RN_2_RD_10_0.png","C_Dist_300_LN_4_LD_10_RN_1_RD_10_0.png","C_Dist_300_LN_4_LD_5_RN_2_RD_4_0.png","C_Dist_300_LN_8_LD_16_RN_1_RD_5_0.png","C_Dist_300_LN_9_LD_10_RN_3_RD_5_0.png"],["C_Dist_300_LN_1_LD_20_RN_7_RD_20_1.png","C_Dist_300_LN_1_LD_3_RN_19_RD_30_1.png","C_Dist_300_LN_1_LD_30_RN_8_RD_24_1.png","C_Dist_300_LN_1_LD_5_RN_11_RD_22_1.png","C_Dist_300_LN_1_LD_5_RN_3_RD_6_1.png","C_Dist_300_LN_1_LD_5_RN_6_RD_12_1.png","C_Dist_300_LN_2_LD_10_RN_12_RD_24_1.png","C_Dist_300_LN_2_LD_20_RN_10_RD_25_1.png","C_Dist_300_LN_3_LD_12_RN_11_RD_20_1.png","C_Dist_300_LN_3_LD_6_RN_4_RD_5_1.png","C_Dist_300_LN_4_LD_20_RN_13_RD_26_1.png","C_Dist_300_LN_5_LD_25_RN_6_RD_12_1.png","C_Dist_300_LN_5_LD_25_RN_7_RD_14_1.png","C_Dist_300_LN_7_LD_14_RN_20_RD_25_1.png","C_Dist_300_LN_8_LD_15_RN_10_RD_12_1.png"]],"dist300_I":[["I_Dist_300_LN_1_LD_2_RN_2_RD_10_0.png","I_Dist_300_LN_1_LD_2_RN_3_RD_15_0.png","I_Dist_300_LN_2_LD_4_RN_6_RD_30_0.png","I_Dist_300_LN_3_LD_6_RN_4_RD_20_0.png","I_Dist_300_LN_4_LD_5_RN_6_RD_12_0.png","I_Dist_300_LN_4_LD_5_RN_8_RD_16_0.png","I_Dist_300_LN_7_LD_10_RN_8_RD_20_0.png","I_Dist_300_LN_8_LD_10_RN_14_RD_28_0.png","I_Dist_300_LN_8_LD_10_RN_9_RD_18_0.png"],["I_Dist_300_LN_13_LD_26_RN_12_RD_15_1.png","I_Dist_300_LN_4_LD_20_RN_2_RD_4_1.png"]],"dist300_S":[["E_Dist_300_LN_9_LD_12_RN_9_RD_20_0.png"],["E_Dist_300_LN_18_LD_30_RN_18_RD_20_1.png","E_Dist_300_LN_3_LD_10_RN_3_RD_5_1.png","E_Dist_300_LN_9_LD_20_RN_9_RD_12_1.png"]],"dist500_C":[["C_Dist_500_LN_10_LD_13_RN_7_RD_26_0.png","C_Dist_500_LN_10_LD_15_RN_4_RD_24_0.png","C_Dist_500_LN_12_LD_16_RN_3_RD_12_0.png","C_Dist_500_LN_12_LD_18_RN_4_RD_24_0.png","C_Dist_500_LN_15_LD_18_RN_5_RD_15_0.png","C_Dist_500_LN_15_LD_20_RN_1_RD_4_0.png","C_Dist_500_LN_18_LD_27_RN_1_RD_6_0.png","C_Dist_500_LN_20_LD_24_RN_1_RD_3_0.png","C_Dist_500_LN_20_LD_24_RN_3_RD_9_0.png","C_Dist_500_LN_20_LD_24_RN_7_RD_21_0.png","C_Dist_500_LN_20_LD_28_RN_3_RD_14_0.png","C_Dist_500_LN_21_LD_28_RN_6_RD_24_0.png","C_Dist_500_LN_22_LD_28_RN_2_RD_7_0.png","C_Dist_500_LN_25_LD_30_RN_9_RD_27_0.png","C_Dist_500_LN_4_LD_6_RN_1_RD_6_0.png","C_Dist_500_LN_5_LD_6_RN_2_RD_6_0.png","C_Dist_500_LN_6_LD_9_RN_1_RD_6_0.png","C_Dist_500_LN_7_LD_10_RN_1_RD_5_0.png","C_Dist_500_LN_8_LD_12_RN_1_RD_6_0.png","C_Dist_500_LN_8_LD_12_RN_4_RD_24_0.png"],["C_Dist_500_LN_1_LD_4_RN_12_RD_16_1.png","C_Dist_500_LN_1_LD_4_RN_9_RD_12_1.png","C_Dist_500_LN_1_LD_9_RN_11_RD_18_1.png","C_Dist_500_LN_10_LD_24_RN_22_RD_24_1.png","C_Dist_500_LN_2_LD_12_RN_10_RD_15_1.png","C_Dist_500_LN_2_LD_12_RN_12_RD_18_1.png","C_Dist_500_LN_2_LD_12_RN_4_RD_6_1.png","C_Dist_500_LN_2_LD_24_RN_7_RD_12_1.png","C_Dist_500_LN_2_LD_5_RN_18_RD_20_1.png","C_Dist_500_LN_2_LD_5_RN_9_RD_10_1.png","C_Dist_500_LN_2_LD_8_RN_12_RD_16_1.png","C_Dist_500_LN_2_LD_8_RN_21_RD_28_1.png","C_Dist_500_LN_3_LD_10_RN_4_RD_5_1.png","C_Dist_500_LN_3_LD_12_RN_15_RD_20_1.png","C_Dist_500_LN_3_LD_30_RN_6_RD_10_1.png","C_Dist_500_LN_3_LD_8_RN_14_RD_16_1.png","C_Dist_500_LN_4_LD_16_RN_15_RD_20_1.png","C_Dist_500_LN_4_LD_24_RN_12_RD_18_1.png","C_Dist_500_LN_5_LD_14_RN_6_RD_7_1.png","C_Dist_500_LN_7_LD_21_RN_20_RD_24_1.png","C_Dist_500_LN_7_LD_28_RN_12_RD_16_1.png","C_Dist_500_LN_7_LD_28_RN_9_RD_12_1.png","C_Dist_500_LN_9_LD_27_RN_20_RD_24_1.png"]],"dist500_I":[["I_Dist_500_LN_2_LD_3_RN_4_RD_24_0.png","I_Dist_500_LN_5_LD_6_RN_6_RD_18_0.png","I_Dist_500_LN_7_LD_8_RN_9_RD_24_0.png"],["I_Dist_500_LN_7_LD_21_RN_5_RD_6_1.png"]],"dist500_S":[["E_Dist_500_LN_6_LD_8_RN_6_RD_24_0.png"],["E_Dist_500_LN_2_LD_12_RN_2_RD_3_1.png","E_Dist_500_LN_6_LD_24_RN_6_RD_8_1.png"]]}},{"start_time":1549381512708,"click_time":1549381516838,"finger_time":1549381515877,"fix_duration":769.0929161068542,"trial":1,"RT":3169,"MT":961,"sideResp":1,"stimulus":[],"xmouse":[416.6669921875,416.6669921875,416.6669921875,416.6669921875,416.6669921875,416.6669921875,416.6669921875,416.6669921875,416.6669921875,416.6669921875,416.6669921875,416.6669921875,416.6669921875,416.6669921875,419,419,419,419,419,419,419,419,419,419,420,420,420,420,420,420,420,420,420,420,420,420,420,420,420,420,420,420,420,420,420,420,420,420,420,420,420,420,420,420,420,420,420,420,420,420,420,420,420,420,420,420,420,420,420,420,420,420,420,420,420,420,420,420,420,420,420,420,420,420,420,420,420,420,420,420,420,420,420,420,420,420,420,420,420,420,420,420,420,420,420,420,420,420,420,420,420,420,420,420,420,420,420,420,420,420,420,420,420,420,420,420,420,420,420,420,420,420,420,420,420,420,420,420,420,420,420,420,420,420,420,420,420,380.6669921875,379.3330078125,379.3330078125,378,378,377.3330078125,377.3330078125,377.3330078125,377.3330078125,367.3330078125,366,359.3330078125,358,354.6669921875,352,346.6669921875,338,331.3330078125,328,322,317.3330078125,309.3330078125,306,300.6669921875,295,289,279.3330078125,276,268,263.3330078125,255.3330078125,239.33299255371094,231,227.33299255371094,220,216,208,188.66700744628906,177.33299255371094,174,166,154,148,144.66700744628906,138,132.66700744628906,123,120.6669921875,114.66699981689453,109,107,100,97.33300018310547,94,94,92,89,86.66699981689453,85.33300018310547,82.66699981689453],"ymouse":[846.6669921875,846.6669921875,846.6669921875,846.6669921875,846.6669921875,846.6669921875,846.6669921875,846.6669921875,846.6669921875,846.6669921875,846.6669921875,846.6669921875,846.6669921875,846.6669921875,846,846,846,846,846,846,846,846,846,846,845,845,845,845,845,845,845,845,845,845,844,844,844,844,844,844,844,844,844,844,844,844,844,844,844,844,844,844,844,844,844,844,844,844,844,844,844,843,843,843,843,843,843,843,844,844,844,844,844,844,844,844,844,844,844,844,844,844,844,844,844,844,844,844,844,844,844,844,844,844,844,844,844,844,844,844,844,844,844,844,844,844,844,844,844,844,844,844,844,844,844,844,844,844,844,844,844,844,844,844,844,844,844,844,844,844,844,844,844,844,844,844,844,844,844,844,844,844,844,844,844,844,844,784.6669921875,782.6669921875,782.6669921875,780,780,779.3330078125,779.3330078125,779.3330078125,779.3330078125,771.3330078125,769,759.3330078125,756,750.6669921875,748,740.6669921875,727,717.3330078125,712,702,693.3330078125,680.6669921875,676,667.3330078125,658,648,631.3330078125,626,614,606.6669921875,591.3330078125,561.3330078125,544,536.6669921875,522,514,497,450.6669921875,418.6669921875,408,390,353,332,323.3330078125,308,285.3330078125,250,241.3330078125,222.66700744628906,198,188,166,157.33299255371094,148,143,134,118,106.66699981689453,100.66699981689453,88.66699981689453],"timestamp_mouse":[9,39,49,69,89,109,129,149,168,189,209,229,249,269,289,308,329,349,369,389,409,429,449,469,489,509,529,549,569,588,609,628,649,669,688,709,729,749,768,789,809,829,849,869,889,909,929,949,969,989,1009,1029,1049,1069,1089,1109,1128,1149,1169,1189,1208,1229,1249,1269,1289,1309,1329,1349,1368,1389,1409,1428,1449,1469,1489,1509,1529,1549,1569,1589,1609,1629,1649,1669,1690,1709,1729,1749,1770,1789,1809,1829,1849,1869,1889,1909,1929,1949,1969,1989,2009,2029,2049,2069,2089,2109,2129,2149,2169,2189,2209,2229,2249,2269,2289,2309,2329,2349,2369,2389,2409,2429,2449,2469,2489,2509,2529,2549,2569,2588,2609,2629,2649,2669,2689,2709,2729,2749,2769,2789,2808,2829,2849,2868,2889,2909,2929,2949,2971,2989,3009,3028,3049,3071,3090,3108,3128,3149,3169,3189,3209,3229,3249,3269,3289,3309,3329,3349,3369,3389,3409,3429,3448,3472,3488,3509,3528,3549,3574,3589,3609,3629,3649,3669,3689,3709,3729,3749,3770,3789,3809,3829,3848,3870,3888,3908,3929,3949,3970,3989,4009,4029,4049,4070,4089,4109,4129],"xSR":350,"ySR":768,"xT1":30,"yT1":0,"xT2":670,"yT2":0,"toosoon":0,"cond_shown":"Congruent","ratio_trial":300,"L_num":4,"L_den":5,"R_num":2,"R_den":4,"correct_side":1,"subjID":"44wm","gender":"No_gender","school":"No_school","age":"No_age"},{"start_time":1549381518375,"click_time":1549381521118,"finger_time":1549381520499,"fix_duration":250,"trial":2,"RT":2124,"MT":619,"sideResp":2,"stimulus":[],"xmouse":[414,414,414,414,414,414,414,414,414,414,414,414,414,414,414,414,414,414,414,414,414,414,413.3330078125,413.3330078125,413.3330078125,413.3330078125,413.3330078125,413.3330078125,413.3330078125,413.3330078125,413.3330078125,413.3330078125,413.3330078125,413.3330078125,413.3330078125,413.3330078125,413.3330078125,413.3330078125,413.3330078125,413.3330078125,413.3330078125,413.3330078125,413.3330078125,413.3330078125,413.3330078125,413.3330078125,413.3330078125,413.3330078125,413.3330078125,413.3330078125,413.3330078125,413.3330078125,413.3330078125,413.3330078125,413.3330078125,413.3330078125,413.3330078125,413.3330078125,413.3330078125,413.3330078125,413.3330078125,413.3330078125,413.3330078125,413.3330078125,413.3330078125,413.3330078125,413.3330078125,413.3330078125,413.3330078125,413.3330078125,413.3330078125,413.3330078125,414,414,414,414,414,414,414,414,414,414,414,414,414,414,414,414,414,414,414,414,410,410,410,410,407,406.6669921875,405,404.6669921875,404,404.6669921875,406,408.6669921875,410,412,416.6669921875,426,432.6669921875,446.6669921875,461,470,499,520,534.6669921875,542,554.6669921875,571.3330078125,582,588,598.6669921875,603.3330078125,620.6669921875,624,631.3330078125,634,638.6669921875,645,650,652,656,659,664,666,670,675,678,684],"ymouse":[829,829,829,829,829,829,829,829,828,828,828,828,828,828,828,828,828,828,828,828,828,828,828.6669921875,828.6669921875,828.6669921875,828.6669921875,828.6669921875,828.6669921875,828.6669921875,828.6669921875,828.6669921875,828.6669921875,828.6669921875,828.6669921875,828.6669921875,828.6669921875,828.6669921875,828.6669921875,828.6669921875,828.6669921875,828.6669921875,828.6669921875,828.6669921875,828.6669921875,828.6669921875,828.6669921875,828.6669921875,828.6669921875,828.6669921875,828.6669921875,828.6669921875,828.6669921875,827.3330078125,827.3330078125,827.3330078125,827.3330078125,827.3330078125,827.3330078125,827.3330078125,827.3330078125,827.3330078125,827.3330078125,827.3330078125,827.3330078125,827.3330078125,827.3330078125,827.3330078125,827.3330078125,827.3330078125,827.3330078125,827.3330078125,827.3330078125,826,826,826,826,826,826,826,826,826,826,826,826,826,826,826,826,826,826,826,826,820,820,820,820,812,810.6669921875,808,804.6669921875,802,797.3330078125,792,788.6669921875,785,779,756.6669921875,725,705.3330078125,667.3330078125,630,610,548,506,472.6669921875,456,428.6669921875,394.6669921875,374,364,345.3330078125,335.3330078125,295.3330078125,286,268.6669921875,260,244.6669921875,224,208,202,190,178,159,152,137,120,112,92],"timestamp_mouse":[6,21,54,62,81,102,122,142,162,182,202,222,242,261,282,302,322,342,362,382,401,422,442,462,482,501,522,541,561,581,602,622,642,662,682,702,722,742,762,782,801,822,842,862,882,902,922,941,962,982,1002,1022,1042,1062,1082,1102,1121,1142,1162,1182,1202,1221,1242,1262,1282,1302,1322,1342,1362,1382,1402,1423,1442,1462,1482,1502,1522,1542,1562,1582,1602,1622,1642,1662,1682,1702,1722,1743,1762,1782,1802,1821,1842,1862,1882,1901,1923,1942,1962,1982,2002,2024,2042,2062,2082,2102,2124,2142,2162,2182,2202,2222,2243,2261,2282,2302,2322,2343,2361,2382,2402,2423,2445,2462,2482,2502,2522,2544,2562,2582,2602,2622,2641,2662,2682,2702,2722,2742],"xSR":350,"ySR":768,"xT1":30,"yT1":0,"xT2":670,"yT2":0,"toosoon":0,"cond_shown":"Incongruent","ratio_trial":100,"L_num":6,"L_den":10,"R_num":13,"R_den":26,"correct_side":1,"subjID":"44wm","gender":"No_gender","school":"No_school","age":"No_age"},{"start_time":1549381523183,"click_time":1549381525917,"finger_time":1549381525096,"fix_duration":825.1354652125458,"trial":3,"RT":1913,"MT":821,"sideResp":1,"stimulus":[],"xmouse":[403.3330078125,402.6669921875,402.6669921875,402.6669921875,402,402,402,402,402,402,402,402,402,402,401.3330078125,401.3330078125,401.3330078125,401.3330078125,401.3330078125,401.3330078125,401.3330078125,401.3330078125,401.3330078125,401.3330078125,401.3330078125,401.3330078125,401.3330078125,401.3330078125,401.3330078125,401.3330078125,401.3330078125,401.3330078125,401.3330078125,401.3330078125,401.3330078125,401.3330078125,401.3330078125,401.3330078125,401.3330078125,401.3330078125,401.3330078125,401.3330078125,401.3330078125,401.3330078125,402,402,402,402,402,402,402,402,402,402,402,402,402,402,402,402,402,402,402,402,400.6669921875,400.6669921875,400.6669921875,400.6669921875,400.6669921875,400.6669921875,400.6669921875,400.6669921875,400.6669921875,400.6669921875,402,402,402,402,402,402,402,402,402,402,400,400,400,400,400,400,400,388,384.6669921875,384,382,380.6669921875,380,372.6669921875,366,364,361.3330078125,359.3330078125,353.3330078125,352,348,343.3330078125,340,333,320,309,305.3330078125,296,292,266,259,246,241.33299255371094,234,220,210,206,198,194,182,178,169.33299255371094,164,154,142.66700744628906,134,130,121.3330078125,118,107,106,102,100.66699981689453],"ymouse":[815.3330078125,815.3330078125,815.3330078125,815.3330078125,815,815,815,815,815,815,815,815,815,815,814.6669921875,814.6669921875,814.6669921875,814.6669921875,814.6669921875,814.6669921875,814.6669921875,814.6669921875,814.6669921875,814.6669921875,814.6669921875,814.6669921875,814.6669921875,814.6669921875,814.6669921875,814.6669921875,814.6669921875,814.6669921875,814.6669921875,814.6669921875,815.3330078125,815.3330078125,815.3330078125,815.3330078125,815.3330078125,815.3330078125,815.3330078125,815.3330078125,815.3330078125,815.3330078125,817,817,817,817,817,817,817,817,817,817,816,816,816,816,816,816,816,816,816,816,815.3330078125,815.3330078125,815.3330078125,815.3330078125,815.3330078125,815.3330078125,815.3330078125,815.3330078125,815.3330078125,815.3330078125,816,816,816,816,816,816,816,816,816,816,810,810,810,810,810,810,810,790,781.3330078125,778,771,764.6669921875,760,732.6669921875,690,676,659.3330078125,652.6669921875,636.6669921875,634,626,618.6669921875,614,604,586,570,562.6669921875,546,536,488,474,447,437.3330078125,422,390,365,355,340,332,304,292,270.6669921875,258,232,198.66700744628906,184,174,153.33299255371094,144,116,111,103,98.66699981689453],"timestamp_mouse":[14,39,54,74,94,114,134,154,174,194,213,234,254,274,294,314,334,354,374,394,414,434,453,474,494,514,534,554,574,594,614,634,654,674,694,713,734,754,773,794,814,834,854,874,894,914,934,955,974,994,1014,1034,1054,1073,1094,1114,1134,1154,1174,1194,1214,1234,1254,1274,1293,1314,1334,1354,1374,1394,1414,1434,1454,1474,1494,1514,1534,1554,1574,1594,1614,1634,1654,1674,1694,1714,1734,1754,1774,1794,1814,1833,1855,1874,1894,1913,1934,1956,1973,1994,2013,2033,2055,2075,2094,2113,2134,2154,2174,2194,2214,2233,2254,2274,2293,2314,2333,2354,2374,2393,2414,2434,2454,2475,2494,2514,2534,2554,2574,2594,2614,2634,2654,2674,2694,2714,2733],"xSR":350,"ySR":768,"xT1":30,"yT1":0,"xT2":670,"yT2":0,"toosoon":0,"cond_shown":"Congruent","ratio_trial":100,"L_num":7,"L_den":14,"R_num":15,"R_den":25,"correct_side":2,"subjID":"44wm","gender":"No_gender","school":"No_school","age":"No_age"},{"start_time":1549381528772,"click_time":1549381531297,"finger_time":1549381530497,"fix_duration":1054.9063288006453,"trial":4,"RT":1725,"MT":800,"sideResp":2,"stimulus":[],"xmouse":[411,411,412,412,412,412,412,412,412,411,411,411,411,413,413,413.3330078125,413.3330078125,414,414,414,414,414,414,413.3330078125,413.3330078125,413.3330078125,413,413,413,413,413,413,413,413,413,413,413,413,413,413,413,413,413,413,413,413,412,412,412,412,412,412,412,412,412,412,412,412,412,412,412,412,412,412,412,412,412.6669921875,412.6669921875,412.6669921875,412.6669921875,412.6669921875,412.6669921875,412.6669921875,412.6669921875,412.6669921875,412.6669921875,413.3330078125,413.3330078125,413.3330078125,413.3330078125,413.3330078125,413.3330078125,413.3330078125,410,411.3330078125,411.3330078125,424,437.3330078125,444,456,468,474,477.3330078125,482,488,501.3330078125,506,518.6669921875,530,536,552.6669921875,562,574,580,590.6669921875,596,618.6669921875,621.3330078125,629.3330078125,632.6669921875,638,646,652,654.6669921875,660,663.3330078125,667.3330078125,669.3330078125,673.3330078125,678,685.3330078125,686.6669921875,691.3330078125,696,698,702,710],"ymouse":[840,840,840,840,840,840,838,838,836,834,834,834,834,832,834,834.6669921875,835.3330078125,836,836,836,836,836,836,836.6669921875,836.6669921875,836.6669921875,836,836,836,836,836,836,836,836,836,836,836,836,836,836,836,836,836,836,836,836,834,834,834,834,834,834,834,834,834,834,834,834,834,834,834,834,834,834,834,834,834.6669921875,834.6669921875,834.6669921875,834.6669921875,834.6669921875,834.6669921875,834.6669921875,834.6669921875,834.6669921875,834.6669921875,832.6669921875,832.6669921875,832.6669921875,832.6669921875,832.6669921875,832.6669921875,832.6669921875,800,796.6669921875,796.6669921875,764,733.3330078125,718,692,662,646,638.6669921875,624,604,558.6669921875,543,513.3330078125,485,471,432.6669921875,411,392,380,362.6669921875,352,311.3330078125,304.6669921875,289.3330078125,281.3330078125,270,254,244,239.33299255371094,230,223.33299255371094,211.33299255371094,207.33299255371094,196.66700744628906,184,160.66700744628906,154.66700744628906,136.66700744628906,121,115,104,86],"timestamp_mouse":[6,25,45,65,85,105,125,144,165,204,204,225,244,264,287,305,324,345,365,384,405,425,445,465,486,505,525,545,564,585,605,625,645,665,685,705,725,745,765,785,804,824,845,865,887,905,925,945,965,985,1005,1025,1045,1065,1084,1105,1125,1145,1165,1185,1205,1225,1245,1265,1285,1305,1325,1345,1365,1385,1404,1425,1445,1465,1485,1505,1526,1545,1565,1585,1606,1625,1645,1665,1684,1705,1725,1745,1765,1785,1805,1825,1845,1865,1885,1905,1926,1945,1965,1985,2007,2025,2045,2065,2085,2104,2126,2145,2165,2185,2205,2225,2245,2264,2285,2305,2328,2346,2365,2385,2405,2424,2444,2465,2484,2505,2525],"xSR":350,"ySR":768,"xT1":30,"yT1":0,"xT2":670,"yT2":0,"toosoon":0,"cond_shown":"Congruent","ratio_trial":200,"L_num":9,"L_den":30,"R_num":13,"R_den":26,"correct_side":2,"subjID":"44wm","gender":"No_gender","school":"No_school","age":"No_age"},{"start_time":1549381536759,"click_time":1549381539177,"finger_time":1549381538357,"fix_duration":1401.5327491820374,"trial":5,"RT":1598,"MT":820,"sideResp":2,"stimulus":[],"xmouse":[406,406,406,406,406,406,406,406,406,406,406,406,406,406,406,406,406,406,406,406,406,406,406,406,406,406,406,406,406,406,406,406,406,406,406,406,406,406,406,406,406,406,406,406,406,406,406,406,406,406,406,406,406,406,406,406,406,406,406,406,406,406,406,406,406,406,406,406,406,406,406,406,406,406,408.6669921875,408.6669921875,408.6669921875,412.6669921875,416.6669921875,420,432,438,458,493.3330078125,511,520,527.3330078125,534.6669921875,540,542,544,545.3330078125,546,550,560,572,578,588,597.3330078125,602,605.3330078125,610,615,624.6669921875,627.3330078125,634,640,643,652.6669921875,657.3330078125,662,663.3330078125,668,677.3330078125,685,688,696,699.3330078125,710,713.3330078125,716.6669921875],"ymouse":[816,816,816,816,816,816,816,816,816,816,816,816,816,816,816,816,816,816,816,816,816,816,816,816,816,816,816,816,816,816,816,816,816,816,816,816,816,816,816,816,816,816,816,816,816,816,816,816,816,816,816,816,816,816,816,816,816,816,816,816,816,816,816,816,816,816,816,816,816,816,816,816,816,816,806.6669921875,806.6669921875,806.6669921875,792.6669921875,777.3330078125,765,727,702,645,580.6669921875,552,540,526.6669921875,515.3330078125,503,500,493,487.3330078125,484,474,448,425,412,392,372.6669921875,360,355.3330078125,344,332,311.3330078125,305.3330078125,292,278,272,250.6669921875,238.66700744628906,224,217.33299255371094,200,174.66700744628906,160,154,142,136.66700744628906,114,108.66699981689453,99.33300018310547],"timestamp_mouse":[18,41,57,78,98,118,138,158,177,198,217,238,257,278,298,318,338,358,378,397,418,438,458,478,498,518,538,558,578,598,618,638,658,678,698,718,738,757,778,798,818,837,858,877,898,918,938,957,977,998,1018,1038,1058,1078,1098,1118,1138,1158,1178,1197,1218,1238,1258,1278,1298,1318,1337,1358,1378,1398,1418,1437,1457,1477,1497,1517,1538,1557,1578,1598,1618,1638,1658,1677,1697,1718,1738,1757,1778,1798,1818,1837,1858,1878,1898,1918,1938,1958,1980,1998,2018,2038,2058,2080,2098,2117,2138,2157,2180,2199,2218,2238,2258,2278,2298,2318,2338,2358,2378,2398,2418],"xSR":350,"ySR":768,"xT1":30,"yT1":0,"xT2":670,"yT2":0,"toosoon":0,"cond_shown":"Congruent","ratio_trial":200,"L_num":3,"L_den":6,"R_num":14,"R_den":20,"correct_side":2,"subjID":"44wm","gender":"No_gender","school":"No_school","age":"No_age"},{"start_time":1549381542609,"click_time":1549381544737,"finger_time":1549381544217,"fix_duration":250,"trial":6,"RT":1608,"MT":520,"sideResp":2,"stimulus":[],"xmouse":[421,421,421,421,421,421,421,421,421,421,423,423,423.3330078125,423.3330078125,424,424,424,424,424,424,424,424,424,424,424.6669921875,424.6669921875,424.6669921875,424,424,424,423,423,423,423,423,423,423,423,423,423,422.6669921875,422.6669921875,422.6669921875,422.6669921875,422.6669921875,422.6669921875,422.6669921875,422.6669921875,422.6669921875,422.6669921875,412.6669921875,412.6669921875,412.6669921875,412.6669921875,412.6669921875,412.6669921875,412.6669921875,412.6669921875,412.6669921875,412.6669921875,410,410,410,410,410,410,410,411,412,412,412.6669921875,413,414,415.3330078125,416.6669921875,417,419.3330078125,421,426,429.3330078125,434.6669921875,440,442,452,460.6669921875,474,481,494,514,527.3330078125,536,550.6669921875,566,594,603.3330078125,619.3330078125,631,636.6669921875,656,660,668.6669921875,673,682.6669921875,701.3330078125,710.6669921875,714,719.3330078125],"ymouse":[850,850,850,850,850,850,850,850,850,850,852,852,852.6669921875,852.6669921875,852,852,852,852,852,852,852,852,852,852,852.6669921875,852.6669921875,852.6669921875,852,852,852,852,852,852,852,852,852,852,852,852,852,850.6669921875,850.6669921875,850.6669921875,850.6669921875,850.6669921875,850.6669921875,850.6669921875,850.6669921875,850.6669921875,850.6669921875,841.3330078125,841.3330078125,841.3330078125,841.3330078125,841.3330078125,841.3330078125,841.3330078125,841.3330078125,841.3330078125,841.3330078125,840,840,840,840,840,840,840,834,830,828,826.6669921875,826,824,819.3330078125,815.3330078125,812,805.3330078125,796,778,769.3330078125,752.6669921875,736,730,704,681.3330078125,648,632,604,562,529.3330078125,511,474.6669921875,440,384,367.3330078125,334.6669921875,308,295.3330078125,246,234,211.33299255371094,204,182.66700744628906,141.33299255371094,116.6669921875,104,87.33300018310547],"timestamp_mouse":[11,35,47,68,88,108,128,148,168,188,208,228,249,268,288,308,328,348,368,387,408,428,448,468,488,507,527,548,568,588,608,628,648,668,688,708,728,749,768,788,808,828,848,868,888,908,928,948,969,987,1008,1028,1048,1068,1088,1108,1128,1148,1168,1189,1207,1228,1248,1268,1288,1308,1327,1348,1369,1388,1408,1428,1448,1468,1488,1508,1528,1548,1568,1588,1608,1628,1648,1670,1688,1708,1728,1748,1772,1788,1807,1828,1848,1870,1889,1908,1928,1948,1971,1988,2008,2028,2047,2068,2087,2108,2128],"xSR":350,"ySR":768,"xT1":30,"yT1":0,"xT2":670,"yT2":0,"toosoon":0,"cond_shown":"Incongruent","ratio_trial":100,"L_num":9,"L_den":15,"R_num":14,"R_den":28,"correct_side":1,"subjID":"44wm","gender":"No_gender","school":"No_school","age":"No_age"},{"start_time":1549381547450,"click_time":1549381551557,"finger_time":1549381549017,"fix_duration":1269.9117510656636,"trial":7,"RT":1567,"MT":2540,"sideResp":1,"stimulus":[],"xmouse":[422,422,422,421,421.3330078125,420.6669921875,420,420,420,420,420,420,420,420,420,420,420,420,420,420,417,417,416.6669921875,416.6669921875,416,416.6669921875,416,417.3330078125,417.3330078125,417.3330078125,417,417,417,417,416,416,416,416,416,415.3330078125,415.3330078125,414.6669921875,414,414,414,414.6669921875,414.6669921875,414.6669921875,414.6669921875,414.6669921875,414.6669921875,414.6669921875,414.6669921875,414.6669921875,414.6669921875,415.3330078125,415.3330078125,415.3330078125,415.3330078125,415.3330078125,415.3330078125,415.3330078125,415.3330078125,415.3330078125,415.3330078125,415.3330078125,415.3330078125,415.3330078125,415.3330078125,415.3330078125,415.3330078125,415.3330078125,415.3330078125,415.3330078125,415.3330078125,414.6669921875,415.3330078125,416.6669921875,430,443.3330078125,448,455.3330078125,460.6669921875,464,466,468,471,472,476.6669921875,480,482.6669921875,484,487.3330078125,492,496,498,500.6669921875,502.6669921875,509.3330078125,511,515.3330078125,518.6669921875,520.6669921875,525,528,530,531.3330078125,532.6669921875,534,534.6669921875,534,534,533,533.3330078125,534,534,534,534,534,534,534,534,534,532,532,530.6669921875,530,530,531,531,531,531,531,529,526,524,524,524,524,524,524,524,486.6669921875,473.3330078125,473.3330078125,461.3330078125,453.3330078125,444,430.6669921875,425.3330078125,410,393.3330078125,384,358,342,329.3330078125,323.3330078125,310.6669921875,294.6669921875,286.6669921875,282.6669921875,276.6669921875,270,268,260.6669921875,256,252.6669921875,250,246,238,231.33299255371094,228,220,217.33299255371094,205.33299255371094,203,198,196,188.66700744628906,186,183.33299255371094,181.33299255371094,178.66700744628906,175.33299255371094,173,172.66700744628906,170.66700744628906,168,163.33299255371094,162,159,156,154,152,150,148,146.66700744628906,143.33299255371094,141.33299255371094,132,128,122.6669921875,118.66699981689453,111.33300018310547,103.33300018310547,98],"ymouse":[828,831,838,840,843.3330078125,846.6669921875,848,851,852,851,850,850,850,850,850,850,850,850,850,850,836,836,832.6669921875,831.3330078125,830,829.3330078125,828,827.3330078125,827.3330078125,826.6669921875,826,826,826,826,826,826,826,826,826,825.3330078125,825.3330078125,824.6669921875,823,822,822,822.6669921875,822.6669921875,822.6669921875,822.6669921875,822.6669921875,822.6669921875,822.6669921875,822.6669921875,822.6669921875,822.6669921875,824.6669921875,824.6669921875,824.6669921875,824.6669921875,824.6669921875,824.6669921875,824.6669921875,824.6669921875,824.6669921875,824.6669921875,825.3330078125,825.3330078125,825.3330078125,825.3330078125,825.3330078125,825.3330078125,825.3330078125,825.3330078125,825.3330078125,825.3330078125,808.6669921875,802.6669921875,790.6669921875,751,719.3330078125,708,696.6669921875,686.6669921875,680,678,672,664,660,645.3330078125,636,627.3330078125,622,613.3330078125,598,587,582,572.6669921875,567.3330078125,547.3330078125,542,532.6669921875,523.3330078125,519.3330078125,506,498,492,489.3330078125,485.3330078125,482,481.3330078125,480,480,480,480.6669921875,482,482,482,482,482,482,482,482,482,478,478,471.3330078125,468,466,464,464,464,464,464,484,482,481,481,481,481,481,481,481,464.6669921875,462.6669921875,462.6669921875,458.6669921875,455.3330078125,452,445.3330078125,443.3330078125,437,431.3330078125,428,419,412,407.3330078125,404.6669921875,397.3330078125,386.6669921875,380.6669921875,378.6669921875,373.3330078125,370,367,360.6669921875,356,350.6669921875,348,342,331,323.3330078125,319,312,309.3330078125,298.6669921875,296,291,289,279.3330078125,276,270.6669921875,267.3330078125,261.3330078125,252.6669921875,248,245.3330078125,240.6669921875,237,230.66700744628906,228,224,218,216,208,204,200,197.33299255371094,191.33299255371094,187.33299255371094,168,161,149.33299255371094,141.33299255371094,122.6669921875,105.33300018310547,92],"timestamp_mouse":[9,39,47,67,87,106,127,149,167,187,207,227,247,266,286,307,327,348,368,387,407,427,448,467,487,507,527,547,567,587,606,627,646,667,686,707,728,747,767,787,806,827,848,867,886,907,927,947,967,987,1007,1027,1048,1067,1087,1107,1127,1147,1167,1186,1207,1227,1246,1267,1287,1307,1327,1347,1366,1387,1407,1427,1447,1468,1487,1507,1526,1547,1567,1587,1607,1627,1649,1667,1687,1707,1727,1747,1767,1787,1807,1827,1846,1868,1886,1907,1926,1946,1968,1987,2007,2027,2047,2068,2087,2106,2126,2147,2168,2187,2207,2227,2247,2267,2287,2306,2327,2347,2368,2387,2407,2426,2446,2470,2487,2507,2527,2547,2569,2588,2607,2627,2647,2672,2686,2707,2727,2747,2767,2788,2807,2827,2847,2871,2886,2907,2927,2946,2969,2987,3007,3027,3047,3068,3087,3107,3127,3147,3167,3187,3206,3227,3247,3267,3287,3307,3326,3348,3367,3387,3407,3427,3447,3466,3487,3507,3527,3547,3569,3587,3607,3627,3647,3668,3687,3707,3727,3747,3769,3786,3806,3827,3846,3868,3888,3907,3927,3947,3967,3987,4006,4027,4047,4067,4086,4107],"xSR":350,"ySR":768,"xT1":30,"yT1":0,"xT2":670,"yT2":0,"toosoon":0,"cond_shown":"Congruent","ratio_trial":200,"L_num":9,"L_den":30,"R_num":13,"R_den":26,"correct_side":2,"subjID":"44wm","gender":"No_gender","school":"No_school","age":"No_age"},{"start_time":1549381555565,"click_time":1549381557637,"finger_time":1549381557037,"fix_duration":1086.2655186743082,"trial":8,"RT":1472,"MT":600,"sideResp":2,"stimulus":[],"xmouse":[422.6669921875,422.6669921875,422.6669921875,422.6669921875,422.6669921875,422.6669921875,422.6669921875,422.6669921875,422.6669921875,422.6669921875,422.6669921875,422.6669921875,422.6669921875,422.6669921875,421,421.3330078125,421.3330078125,420.6669921875,420.6669921875,420.6669921875,420.6669921875,421.3330078125,421.3330078125,421.3330078125,421.3330078125,421.3330078125,421.3330078125,421.3330078125,421,421,421,421,421,421,421,421,421,421,421.3330078125,421.3330078125,421.3330078125,421.3330078125,421.3330078125,421.3330078125,421.3330078125,421.3330078125,421.3330078125,421.3330078125,422,422,422,422,422,422,422,422,422,422,432,433.3330078125,434,434.6669921875,436,436,440,441,442,443.3330078125,444,445.3330078125,445.3330078125,445,446.6669921875,448,449.3330078125,455.3330078125,456.6669921875,460,461.3330078125,464.6669921875,474,492,508.6669921875,517,531.3330078125,550,554,564,573.3330078125,576.6669921875,592.6669921875,598,606.6669921875,612,622,638,650,655.3330078125,664,672,688,692,702,710.6669921875],"ymouse":[839.3330078125,839.3330078125,839.3330078125,839.3330078125,839.3330078125,839.3330078125,839.3330078125,839.3330078125,839.3330078125,839.3330078125,839.3330078125,839.3330078125,839.3330078125,839.3330078125,838,837.3330078125,837.3330078125,837.3330078125,837.3330078125,836.6669921875,836.6669921875,836.6669921875,836.6669921875,836.6669921875,836.6669921875,836.6669921875,836.6669921875,836.6669921875,836,836,836,836,836,836,836,836,836,836,836.6669921875,836.6669921875,836.6669921875,836.6669921875,836.6669921875,836.6669921875,836.6669921875,836.6669921875,836.6669921875,836.6669921875,834,834,834,834,834,834,834,834,834,834,802,798.6669921875,796,794.6669921875,792,790,782,780,778,776.6669921875,776,774.6669921875,772.6669921875,772,768.6669921875,765,762.6669921875,750.6669921875,747.3330078125,740,737.3330078125,728.6669921875,702,657,611.3330078125,592,556.6669921875,502,486,452,422.6669921875,406.6669921875,350.6669921875,336,308.6669921875,296,272,237,212,201.33299255371094,183,166,134,123,104,87.33300018310547],"timestamp_mouse":[28,31,52,72,92,112,132,152,172,192,212,231,252,272,292,312,332,352,371,392,411,432,452,472,492,512,532,553,572,592,612,632,652,672,691,712,732,752,772,792,812,832,852,872,892,912,931,952,972,992,1011,1031,1052,1071,1092,1111,1132,1152,1172,1193,1212,1232,1252,1272,1294,1312,1332,1352,1372,1392,1411,1432,1452,1472,1492,1513,1532,1552,1572,1592,1613,1632,1652,1672,1692,1713,1732,1752,1772,1791,1812,1831,1852,1872,1893,1912,1932,1952,1972,1991,2012,2032,2051,2072],"xSR":350,"ySR":768,"xT1":30,"yT1":0,"xT2":670,"yT2":0,"toosoon":0,"cond_shown":"Congruent","ratio_trial":300,"L_num":3,"L_den":6,"R_num":4,"R_den":5,"correct_side":2,"subjID":"44wm","gender":"No_gender","school":"No_school","age":"No_age"},{"start_time":1549381561212,"click_time":1549381563197,"finger_time":1549381562498,"fix_duration":733.3010107755391,"trial":9,"RT":1286,"MT":699,"sideResp":1,"stimulus":[],"xmouse":[424,424,424,424,424,424,424,424,424,424,424,424,424,424,422.6669921875,422,422,422,422,422,422,422,422,422,422,421.3330078125,421.3330078125,421.3330078125,421.3330078125,421.3330078125,421.3330078125,421.3330078125,421.3330078125,421.3330078125,421,420,420,420,420,420,420,420,420,420,420.6669921875,420.6669921875,420.6669921875,420.6669921875,420.6669921875,420.6669921875,420.6669921875,420.6669921875,420.6669921875,420.6669921875,421.3330078125,421.3330078125,421.3330078125,421.3330078125,421.3330078125,421.3330078125,409.3330078125,405.3330078125,403.3330078125,398.6669921875,390.6669921875,382,376.6669921875,360,352,335.3330078125,315.3330078125,301.3330078125,298,290.6669921875,274,267.3330078125,256,245,234,229.33299255371094,210.66700744628906,198.66700744628906,187.33299255371094,182,172,158.66700744628906,152,148.66700744628906,144,138,130,128,122,120,116.66699981689453,110,106,104,99.33300018310547,95.33300018310547],"ymouse":[806,806,806,806,807,807,807,807,807,807,807,807,807,807,805.3330078125,805,805,805,805,805,805,805,805,805,805,804.6669921875,804.6669921875,804.6669921875,804.6669921875,804.6669921875,804.6669921875,804.6669921875,804.6669921875,804.6669921875,804,804,804,804,804,804,804,804,804,804,804.6669921875,804.6669921875,804.6669921875,804.6669921875,804.6669921875,804.6669921875,804.6669921875,804.6669921875,804.6669921875,804.6669921875,804.6669921875,804.6669921875,804.6669921875,804.6669921875,804.6669921875,804.6669921875,789.3330078125,782.6669921875,779.3330078125,773.3330078125,761.3330078125,747,738.6669921875,708,685,642.6669921875,600.6669921875,558.6669921875,534,488.6669921875,437,423.3330078125,402,382,362,351.3330078125,318.6669921875,297.3330078125,276.6669921875,270,252,226.66700744628906,212,206.66700744628906,198,190,176,172,164,160,150.66700744628906,134,122,115,103.33300018310547,92.66699981689453],"timestamp_mouse":[5,38,45,65,85,105,124,145,165,185,205,225,245,265,284,305,325,345,365,385,405,425,445,464,484,505,525,545,565,585,605,625,645,665,684,705,725,745,765,785,805,825,845,864,885,904,925,945,965,984,1004,1025,1045,1064,1084,1105,1125,1145,1165,1185,1205,1225,1245,1264,1286,1305,1325,1344,1365,1385,1404,1425,1445,1465,1486,1504,1525,1545,1565,1585,1605,1625,1644,1665,1685,1706,1725,1744,1765,1785,1807,1825,1845,1865,1885,1905,1925,1945,1965,1985],"xSR":350,"ySR":768,"xT1":30,"yT1":0,"xT2":670,"yT2":0,"toosoon":0,"cond_shown":"Congruent","ratio_trial":500,"L_num":8,"L_den":12,"R_num":1,"R_den":6,"correct_side":1,"subjID":"44wm","gender":"No_gender","school":"No_school","age":"No_age"},{"start_time":1549381567311,"click_time":1549381570337,"finger_time":1549381569637,"fix_duration":631.1900014107435,"trial":10,"RT":2326,"MT":700,"sideResp":1,"stimulus":[],"xmouse":[404,404,404.6669921875,404.6669921875,404.6669921875,404.6669921875,404.6669921875,404.6669921875,404.6669921875,404.6669921875,404.6669921875,404.6669921875,404,404,404,404,404,404,404,404,404,404,404,404,404,404,404,404,404,404,404,404,404.6669921875,404.6669921875,404.6669921875,404.6669921875,404.6669921875,404.6669921875,404.6669921875,404.6669921875,404.6669921875,404.6669921875,404,404,404,404,404,404,404,404,404,404,403,403,403,403,403,403,403,403,403,403,402,402,402,402,402,402,402,402,402,402,402.6669921875,402.6669921875,402.6669921875,402.6669921875,402.6669921875,402.6669921875,402.6669921875,402.6669921875,402.6669921875,402.6669921875,404,404,404,404,404,404,404,404,404,404,405,405,405,405,405,405,405,405,405,405,402.6669921875,402.6669921875,402.6669921875,402.6669921875,402.6669921875,402.6669921875,402.6669921875,384,381.3330078125,376.6669921875,375,372,368,365.3330078125,360,356,351.3330078125,348.6669921875,342,333.3330078125,326,324,317,310.6669921875,300,295,287.3330078125,277.3330078125,270.6669921875,250,239.33299255371094,229,224,215.33299255371094,203.33299255371094,190,185,175.33299255371094,172,157.33299255371094,147,135.33299255371094,130.66700744628906,122.6669921875,112,106,104.66699981689453,98.66699981689453,96.66699981689453],"ymouse":[822,822,820.6669921875,820.6669921875,820.6669921875,820.6669921875,820.6669921875,820.6669921875,820.6669921875,820.6669921875,820.6669921875,820.6669921875,820,820,820,820,820,820,820,820,820,820,820,820,820,820,820,820,820,820,820,820,819.3330078125,819.3330078125,819.3330078125,819.3330078125,819.3330078125,819.3330078125,819.3330078125,819.3330078125,819.3330078125,819.3330078125,820,820,820,820,820,820,820,820,820,820,824,824,824,824,824,824,824,824,824,824,826,826,826,826,826,826,826,826,826,826,826.6669921875,826.6669921875,826.6669921875,826.6669921875,826.6669921875,826.6669921875,826.6669921875,826.6669921875,826.6669921875,826.6669921875,822,822,822,822,822,822,822,822,822,822,820,820,820,820,820,820,820,820,820,820,817.3330078125,817.3330078125,817.3330078125,817.3330078125,817.3330078125,817.3330078125,817.3330078125,796,790.6669921875,782.6669921875,780,774,768,765.3330078125,754,746,738.6669921875,734.6669921875,724,706.6669921875,692,686,672,657.3330078125,634,626,611.3330078125,594.6669921875,582.6669921875,524,479.3330078125,448,435,406.6669921875,342.6669921875,306,292,273.3330078125,264,226.66700744628906,198,174.66700744628906,164.66700744628906,146.66700744628906,123,112,108.66699981689453,100.66699981689453,96.66699981689453],"timestamp_mouse":[27,46,65,86,106,126,146,165,186,205,226,246,266,286,306,326,346,366,386,406,426,446,466,486,506,526,546,566,586,606,626,646,666,686,706,725,746,765,786,806,826,846,866,885,906,926,946,966,986,1006,1026,1046,1066,1086,1106,1126,1146,1166,1186,1206,1226,1246,1266,1286,1306,1326,1346,1366,1386,1406,1426,1445,1466,1486,1506,1526,1545,1566,1586,1606,1626,1646,1666,1686,1706,1726,1746,1766,1786,1806,1826,1846,1866,1886,1906,1926,1946,1966,1986,2007,2026,2046,2066,2085,2106,2126,2148,2166,2185,2206,2226,2245,2266,2286,2305,2326,2347,2366,2386,2406,2426,2446,2466,2486,2506,2526,2548,2566,2586,2606,2626,2645,2666,2686,2706,2726,2751,2765,2786,2806,2826,2849,2866,2887,2906,2926,2947,2965,2986,3006,3025],"xSR":350,"ySR":768,"xT1":30,"yT1":0,"xT2":670,"yT2":0,"toosoon":0,"cond_shown":"Incongruent","ratio_trial":500,"L_num":7,"L_den":21,"R_num":5,"R_den":6,"correct_side":2,"subjID":"44wm","gender":"No_gender","school":"No_school","age":"No_age"},{"start_time":1549381574339,"click_time":1549381576217,"finger_time":1549381575817,"fix_duration":561.7579985969476,"trial":11,"RT":1478,"MT":400,"sideResp":1,"stimulus":[],"xmouse":[422.6669921875,422.6669921875,422,422,422,422,422,422,422,422,422,422,421.3330078125,421.3330078125,421.3330078125,421.3330078125,421.3330078125,421.3330078125,421.3330078125,421.3330078125,421.3330078125,421.3330078125,422,422,422,422,422.6669921875,422.6669921875,422,422,422,422,422,422,422,422,422.6669921875,422.6669921875,422.6669921875,423,424,424,424,424,424,424,424,424,424,424,427.3330078125,427.3330078125,427.3330078125,427.3330078125,427.3330078125,427.3330078125,427.3330078125,427.3330078125,427.3330078125,427.3330078125,423.3330078125,423.3330078125,422,422,422,422,422,409.3330078125,405,402,399,392.6669921875,378,360,349.3330078125,332,324,305.3330078125,298,274,268,258,235.33299255371094,216,208.66700744628906,193,188.66700744628906,164,156,139.33299255371094,124,116.66699981689453,102,85],"ymouse":[826.6669921875,826.6669921875,826,826,826,826,826,826,826,826,826,826,825.3330078125,825.3330078125,825.3330078125,825.3330078125,825.3330078125,825.3330078125,825.3330078125,825.3330078125,825.3330078125,825.3330078125,824,824,824,824,823.3330078125,823.3330078125,823,823,823,823,823,823,823,823,823.3330078125,823.3330078125,823.3330078125,824,824,824,824,824,824,824,824,824,824,824,824.6669921875,824.6669921875,824.6669921875,824.6669921875,824.6669921875,824.6669921875,824.6669921875,824.6669921875,824.6669921875,824.6669921875,823.3330078125,823.3330078125,822,822,822,822,822,811.3330078125,808,804,802,792.6669921875,772,747,732.6669921875,705,690,639.3330078125,624,578,560,517,446.6669921875,404,382.6669921875,338,312.6669921875,226,208,181.33299255371094,156,144.66700744628906,121,96],"timestamp_mouse":[18,41,59,78,98,118,138,158,178,198,218,238,258,278,298,318,338,358,378,398,418,438,458,478,498,517,538,558,578,598,618,638,658,678,698,718,738,758,778,798,818,838,858,878,898,918,938,958,978,998,1018,1038,1058,1078,1098,1118,1137,1157,1178,1198,1218,1238,1258,1277,1298,1318,1338,1359,1378,1398,1418,1437,1458,1478,1498,1518,1538,1559,1578,1598,1618,1638,1660,1678,1698,1718,1738,1761,1778,1797,1818,1838,1858,1878],"xSR":350,"ySR":768,"xT1":30,"yT1":0,"xT2":670,"yT2":0,"toosoon":0,"cond_shown":"Incongruent","ratio_trial":500,"L_num":7,"L_den":8,"R_num":9,"R_den":24,"correct_side":1,"subjID":"44wm","gender":"No_gender","school":"No_school","age":"No_age"},{"start_time":1549381578356,"click_time":1549381580438,"finger_time":1549381580117,"fix_duration":398.9378519641987,"trial":12,"RT":1761,"MT":321,"sideResp":2,"stimulus":[],"xmouse":[415.3330078125,415,415,415.3330078125,415.3330078125,415.3330078125,415.3330078125,416,416,416,416,416.6669921875,416.6669921875,416,416,416,416,415.3330078125,415.3330078125,415.3330078125,415.3330078125,415.3330078125,415.3330078125,415.3330078125,415.3330078125,415.3330078125,415.3330078125,415,415,415,415,415,415,415,415,415,415,414,414,414,414,414,414,414,414,414,414,414,414,414,414,414,414,414,414,414,414,414,414,414,414,414,414,414,414,414,414,415.3330078125,415.3330078125,415.3330078125,415.3330078125,415.3330078125,415.3330078125,415.3330078125,415.3330078125,415.3330078125,415.3330078125,415.3330078125,415.3330078125,415.3330078125,415.3330078125,415.3330078125,415.3330078125,415.3330078125,415.3330078125,415.3330078125,415.3330078125,420,441.3330078125,482,492.6669921875,512.6669921875,535.3330078125,547.3330078125,576.6669921875,593.3330078125,608.6669921875,617,630.6669921875,644.6669921875,654,660,668.6669921875,674,694],"ymouse":[817.3330078125,818,818,819.3330078125,818.6669921875,818.6669921875,818.6669921875,818,818,818,818,820.6669921875,821.3330078125,821,820,820,820,820.6669921875,820.6669921875,820.6669921875,820.6669921875,820.6669921875,820.6669921875,820.6669921875,820.6669921875,820.6669921875,820.6669921875,820,820,820,820,820,820,820,820,820,820,820,820,820,820,820,820,820,820,820,820,819,819,819,819,819,819,819,819,819,819,819,819,819,819,819,819,819,819,819,819,818.6669921875,818.6669921875,818.6669921875,818.6669921875,818.6669921875,818.6669921875,818.6669921875,818.6669921875,818.6669921875,818.6669921875,817.3330078125,817.3330078125,817.3330078125,817.3330078125,817.3330078125,817.3330078125,817.3330078125,817.3330078125,817.3330078125,817.3330078125,788,737.3330078125,644,620.6669921875,574.6669921875,524.6669921875,501.3330078125,437.3330078125,397.3330078125,360.6669921875,344,308.6669921875,259.3330078125,224,206,171.33299255371094,156,99],"timestamp_mouse":[1,33,41,61,81,101,121,140,161,181,201,221,241,260,281,300,321,341,360,380,401,421,441,461,481,501,521,541,561,580,601,621,641,661,680,701,721,741,762,781,800,821,840,861,881,901,921,941,961,980,1001,1021,1041,1060,1081,1101,1121,1141,1161,1181,1201,1221,1240,1261,1281,1301,1321,1341,1361,1380,1400,1421,1441,1461,1481,1500,1521,1541,1561,1580,1601,1621,1641,1661,1681,1701,1721,1741,1761,1781,1801,1821,1841,1861,1881,1900,1921,1941,1961,1981,2001,2021,2041,2061,2082],"xSR":350,"ySR":768,"xT1":30,"yT1":0,"xT2":670,"yT2":0,"toosoon":0,"cond_shown":"Congruent","ratio_trial":100,"L_num":7,"L_den":14,"R_num":9,"R_den":15,"correct_side":2,"subjID":"44wm","gender":"No_gender","school":"No_school","age":"No_age"},{"start_time":1549381582118,"click_time":1549381585237,"finger_time":1549381584316,"fix_duration":273.3042561372931,"trial":13,"RT":2198,"MT":921,"sideResp":1,"stimulus":[],"xmouse":[416.6669921875,416.6669921875,416.6669921875,416.6669921875,416.6669921875,416.6669921875,416.6669921875,416.6669921875,416.6669921875,416.6669921875,416.6669921875,416.6669921875,416.6669921875,416.6669921875,416.6669921875,416.6669921875,414,414,414,414,414,414,414,414,414,414,416.6669921875,416.6669921875,416.6669921875,416.6669921875,416.6669921875,416.6669921875,416.6669921875,416.6669921875,416.6669921875,416.6669921875,418.6669921875,418.6669921875,418.6669921875,418.6669921875,418.6669921875,418.6669921875,419.3330078125,419.3330078125,419.3330078125,418.6669921875,418.6669921875,418.6669921875,418.6669921875,418.6669921875,418.6669921875,418.6669921875,418.6669921875,418.6669921875,418.6669921875,418.6669921875,418.6669921875,418.6669921875,418.6669921875,418.6669921875,418.6669921875,418.6669921875,418.6669921875,418.6669921875,418.6669921875,418.6669921875,418,418,419.3330078125,420,420.6669921875,420.6669921875,422,422,422,422,424,424,424,424,424,424,424,424,424,424,420.6669921875,420.6669921875,420.6669921875,420.6669921875,420.6669921875,420.6669921875,420.6669921875,424,424,424,423.3330078125,423.3330078125,423.3330078125,423.3330078125,423.3330078125,423.3330078125,423.3330078125,423.3330078125,423.3330078125,423.3330078125,422,422.6669921875,423.3330078125,423.3330078125,436.6669921875,439,451.3330078125,458.6669921875,470,476,486,494,500.6669921875,504,506,508,511.3330078125,512,512.6669921875,513,512.6669921875,512.6669921875,512.6669921875,512.6669921875,512.6669921875,512.6669921875,512.6669921875,512.6669921875,512.6669921875,482,482,482,482,447.3330078125,436.6669921875,431,414.6669921875,374.6669921875,346,334,313,282.6669921875,255.3330078125,240.66700744628906,210,196,176,153.33299255371094,138,130.66700744628906,115.33300018310547],"ymouse":[837.3330078125,837.3330078125,837.3330078125,837.3330078125,837.3330078125,837.3330078125,837.3330078125,837.3330078125,837.3330078125,837.3330078125,837.3330078125,837.3330078125,837.3330078125,837.3330078125,837.3330078125,837.3330078125,838,838,838,838,838,838,838,838,838,838,841.3330078125,841.3330078125,841.3330078125,841.3330078125,841.3330078125,841.3330078125,841.3330078125,841.3330078125,841.3330078125,841.3330078125,844.6669921875,844.6669921875,844.6669921875,844.6669921875,844.6669921875,844.6669921875,845.3330078125,845.3330078125,845.3330078125,845.3330078125,844.6669921875,844.6669921875,844.6669921875,844.6669921875,844.6669921875,844.6669921875,844.6669921875,844.6669921875,844.6669921875,844.6669921875,842.6669921875,842.6669921875,842.6669921875,842.6669921875,842.6669921875,842.6669921875,842.6669921875,842.6669921875,842.6669921875,842.6669921875,836,836,830.6669921875,830,829.3330078125,829.3330078125,830,830,830,830,832,832,832,832,832,832,832,832,832,832,835.3330078125,835.3330078125,835.3330078125,835.3330078125,835.3330078125,835.3330078125,835.3330078125,839,839,839,838.6669921875,838.6669921875,838.6669921875,838.6669921875,838.6669921875,838.6669921875,838.6669921875,838.6669921875,838.6669921875,838.6669921875,823,813.3330078125,807.3330078125,807.3330078125,732.6669921875,712,637.3330078125,615.3330078125,577,560,532,502,469.3330078125,454,438,428,417.3330078125,414,409.3330078125,406,404.6669921875,403.3330078125,403.3330078125,405.3330078125,405.3330078125,405.3330078125,405.3330078125,405.3330078125,405.3330078125,422,422,422,422,399.3330078125,392.6669921875,390,379.3330078125,347.3330078125,319,308,288,258.6669921875,231.33299255371094,215.33299255371094,184,172,153,128.66700744628906,108,97.33300018310547,81.33300018310547],"timestamp_mouse":[3,22,54,59,79,99,120,139,159,179,199,219,239,259,279,299,320,339,359,379,399,419,438,459,479,499,518,539,559,579,599,619,639,658,679,699,719,739,758,779,799,819,839,859,879,899,919,938,959,979,999,1019,1039,1059,1079,1099,1119,1139,1159,1178,1199,1219,1239,1259,1279,1299,1319,1339,1359,1379,1399,1419,1440,1459,1479,1499,1519,1539,1559,1579,1599,1619,1639,1659,1679,1699,1719,1739,1759,1779,1798,1819,1839,1858,1879,1899,1919,1940,1959,1979,1999,2019,2039,2059,2079,2098,2118,2141,2159,2179,2198,2219,2241,2259,2279,2299,2319,2340,2359,2379,2399,2418,2439,2458,2478,2499,2519,2539,2560,2579,2599,2619,2639,2658,2678,2699,2719,2738,2759,2779,2799,2819,2840,2859,2879,2899,2919,2941,2959,2979,2998,3019,3039,3058,3080,3099,3119],"xSR":350,"ySR":768,"xT1":30,"yT1":0,"xT2":670,"yT2":0,"toosoon":0,"cond_shown":"Incongruent","ratio_trial":100,"L_num":9,"L_den":15,"R_num":13,"R_den":26,"correct_side":1,"subjID":"44wm","gender":"No_gender","school":"No_school","age":"No_age"},{"start_time":1549381588062,"click_time":1549381590997,"finger_time":1549381589317,"fix_duration":1104.2816919739853,"trial":14,"RT":1255,"MT":1680,"sideResp":1,"stimulus":[],"xmouse":[423,423,423,423,423,423.3330078125,423.3330078125,423.3330078125,423,423,423,423.3330078125,423.3330078125,423.3330078125,423.3330078125,422.6669921875,422.6669921875,422.6669921875,422.6669921875,422.6669921875,422.6669921875,422.6669921875,422.6669921875,422.6669921875,422.6669921875,422,422,422,422,422,422,422,422,422,422,422,422,422,422,422,422,422,422,422,422,422.6669921875,422.6669921875,422.6669921875,422.6669921875,422.6669921875,422.6669921875,422.6669921875,422.6669921875,422.6669921875,422.6669921875,402.6669921875,399.3330078125,393.3330078125,392,388.6669921875,384,382,376.6669921875,372.6669921875,370,368.6669921875,366.6669921875,364,364,364,366,368,368,368,368,368,368,368,378,379.3330078125,380,382,385,388.6669921875,390.6669921875,394.6669921875,396,401.3330078125,402.6669921875,404,404,404.6669921875,404,404,404,404,404.6669921875,405,405,405,405,405,405,405,405,405,405,406.6669921875,406.6669921875,406.6669921875,406.6669921875,406.6669921875,406.6669921875,406.6669921875,406.6669921875,406.6669921875,406.6669921875,407.3330078125,407.3330078125,407.3330078125,407.3330078125,407.3330078125,407.3330078125,407.3330078125,407.3330078125,407.3330078125,407.3330078125,393,390,380,372,368,354.6669921875,338,320,311,293.3330078125,261,237.33299255371094,225.33299255371094,200,176,166.66700744628906,139.33299255371094,124.66699981689453,124.66699981689453,104.66699981689453,94],"ymouse":[836,836,836,836,836,834.6669921875,834.6669921875,834.6669921875,834,834,834,833.3330078125,833.3330078125,833.3330078125,833.3330078125,833.3330078125,833.3330078125,833.3330078125,833.3330078125,833.3330078125,833.3330078125,833.3330078125,833.3330078125,833.3330078125,833.3330078125,833,833,833,833,833,833,833,833,833,833,832,832,832,832,832,832,832,832,832,832,831.3330078125,831.3330078125,831.3330078125,831.3330078125,831.3330078125,831.3330078125,831.3330078125,831.3330078125,831.3330078125,831.3330078125,804.6669921875,797.3330078125,788.6669921875,786,782.6669921875,780,778,772.6669921875,766.6669921875,758,754.6669921875,747.3330078125,740,738,738,738,740,740,740,740,740,740,740,758,760.6669921875,763,767,778,787.3330078125,793.3330078125,804.6669921875,810,826.6669921875,829.3330078125,833,834,836.6669921875,838,839,840,840,840.6669921875,840,840,840,840,840,840,840,840,840,840,839.3330078125,839.3330078125,839.3330078125,839.3330078125,839.3330078125,839.3330078125,839.3330078125,839.3330078125,839.3330078125,839.3330078125,836.6669921875,836.6669921875,836.6669921875,836.6669921875,836.6669921875,836.6669921875,836.6669921875,836.6669921875,836.6669921875,836.6669921875,800,788,758,726,711,669.3330078125,643,610,590,549.3330078125,482,439.3330078125,416.6669921875,370,322,299.3330078125,231.33299255371094,184.66700744628906,184.66700744628906,123.3330078125,92],"timestamp_mouse":[5,28,35,54,74,95,115,135,155,175,195,215,234,255,275,295,315,335,355,375,395,415,435,455,475,495,515,534,555,575,595,615,635,655,675,695,715,735,754,775,795,815,835,855,875,894,915,935,955,975,995,1015,1036,1055,1075,1095,1115,1135,1155,1175,1195,1215,1235,1255,1275,1295,1315,1334,1355,1374,1395,1415,1435,1455,1475,1495,1515,1535,1556,1575,1595,1615,1635,1654,1675,1695,1714,1736,1755,1775,1795,1815,1835,1855,1875,1895,1915,1937,1955,1975,1995,2015,2035,2055,2075,2095,2115,2136,2155,2175,2195,2215,2235,2255,2275,2295,2315,2338,2355,2375,2395,2415,2435,2455,2475,2494,2515,2536,2554,2575,2595,2615,2637,2655,2675,2695,2715,2736,2754,2775,2796,2815,2835,2856,2893,2895,2919,2935],"xSR":350,"ySR":768,"xT1":30,"yT1":0,"xT2":670,"yT2":0,"toosoon":0,"cond_shown":"Incongruent","ratio_trial":300,"L_num":3,"L_den":6,"R_num":4,"R_den":20,"correct_side":1,"subjID":"44wm","gender":"No_gender","school":"No_school","age":"No_age"},{"start_time":1549381594048,"click_time":1549381596037,"finger_time":1549381595497,"fix_duration":250,"trial":15,"RT":1449,"MT":540,"sideResp":2,"stimulus":[],"xmouse":[424,424,424,424,424,424,424,424,428,428,428,428,428,428,428,428,428,428,429,429,429,429,429,429,429,429,429,429,429,429,429,429,428,428,428,428,428,428,428,428,428,428,429,429,429,429,429,429,429,429,429,429,430,430,430,430,430,430,430,430,430,430,431,431,431,431,431,431,439.3330078125,440.6669921875,440.6669921875,441,442,444,447.3330078125,450,452,465,496,536.6669921875,548,569,590,598.6669921875,614.6669921875,628,636,638,644.6669921875,650,653,658,666,668.6669921875,674.6669921875,688,700,707.3330078125,720,728],"ymouse":[813,813,813,813,813,813,813,813,816,816,816,816,816,816,816,816,816,816,816,816,816,816,816,816,816,816,816,816,816,816,816,816,816,816,816,816,816,816,816,816,816,816,816,816,816,816,816,816,816,816,816,816,815,815,815,815,815,815,815,815,815,815,814,814,814,814,814,814,790.6669921875,779.3330078125,776.6669921875,770,766,758,745.3330078125,736,730,704,646,573.3330078125,554,520,486,469.3330078125,439.3330078125,406,386,378,356.6669921875,332,314,302,272,257.3330078125,227.33299255371094,185,154,139.33299255371094,112,93],"timestamp_mouse":[10,38,49,69,89,109,129,149,169,189,209,229,249,269,289,309,329,349,368,389,408,429,449,468,489,509,529,549,568,589,609,628,649,669,689,709,729,749,769,789,808,829,849,868,888,910,928,949,969,989,1009,1028,1048,1069,1089,1108,1129,1148,1169,1189,1209,1229,1248,1269,1289,1309,1329,1349,1369,1391,1408,1429,1449,1469,1490,1509,1529,1549,1569,1590,1609,1629,1649,1669,1689,1709,1729,1748,1769,1791,1810,1829,1849,1869,1888,1909,1929,1949,1968,1989],"xSR":350,"ySR":768,"xT1":30,"yT1":0,"xT2":670,"yT2":0,"toosoon":0,"cond_shown":"Incongruent","ratio_trial":200,"L_num":7,"L_den":15,"R_num":6,"R_den":9,"correct_side":2,"subjID":"44wm","gender":"No_gender","school":"No_school","age":"No_age"},{"start_time":1549381598604,"click_time":1549381600680,"finger_time":1549381600176,"fix_duration":1245.1725215521926,"trial":16,"RT":1572,"MT":504,"sideResp":2,"stimulus":[],"xmouse":[394,394,394,394,394,394,394,394,393.3330078125,393.3330078125,393.3330078125,393.3330078125,393.3330078125,393.3330078125,393.3330078125,393.3330078125,393.3330078125,393.3330078125,394,394,394,394,394,394,394,394,394,394,392.6669921875,392.6669921875,392.6669921875,392.6669921875,392.6669921875,392.6669921875,392.6669921875,392.6669921875,392.6669921875,392.6669921875,392,392,392,392,392,392,392,392,392,392,392,392,392,392,392,392,392,392,392,392,392,392,392,392,392,392,392,392,392.6669921875,392.6669921875,393,394,394,394,394,395.3330078125,396,396.6669921875,397.3330078125,398.6669921875,405.3330078125,423,436,460,476.6669921875,499.3330078125,504,517.3330078125,526,530,548,553,559.3330078125,562,566.6669921875,580,587.3330078125,592,600,609,630.6669921875,636,648.6669921875,662,668,686.6669921875],"ymouse":[815,815,815,815,815,815,815,815,814.6669921875,814.6669921875,814.6669921875,814.6669921875,814.6669921875,814.6669921875,814.6669921875,814.6669921875,814.6669921875,814.6669921875,812,812,812,812,812,812,812,812,812,812,811.3330078125,811.3330078125,811.3330078125,811.3330078125,811.3330078125,811.3330078125,811.3330078125,811.3330078125,811.3330078125,811.3330078125,811,811,811,811,811,811,811,811,811,811,810,810,810,810,810,810,810,810,810,810,810,810,810,810,810,810,810,810,803.3330078125,803.3330078125,798,797,797,797,797,793.3330078125,790,785.3330078125,781.3330078125,773.3330078125,744.6669921875,700,674,628,594.6669921875,551.3330078125,535,505.3330078125,479,466,414,402,376.6669921875,364,340.6669921875,302,282.6669921875,271,254,230,190.66700744628906,178,153.33299255371094,128,116,84.66699981689453],"timestamp_mouse":[13,38,52,73,93,113,133,153,173,193,212,233,253,272,293,313,333,352,373,393,412,433,453,472,492,513,533,553,574,592,613,633,653,673,693,713,732,753,773,793,813,833,852,873,893,912,933,954,973,993,1013,1033,1053,1073,1093,1113,1133,1153,1172,1192,1213,1233,1253,1274,1293,1312,1333,1352,1373,1393,1413,1433,1453,1473,1493,1513,1533,1553,1572,1593,1613,1632,1653,1673,1693,1713,1733,1753,1776,1793,1813,1833,1853,1876,1893,1913,1933,1953,1975,1993,2013,2032,2052,2075],"xSR":350,"ySR":768,"xT1":30,"yT1":0,"xT2":670,"yT2":0,"toosoon":0,"cond_shown":"Incongruent","ratio_trial":300,"L_num":13,"L_den":26,"R_num":12,"R_den":15,"correct_side":2,"subjID":"44wm","gender":"No_gender","school":"No_school","age":"No_age"},{"start_time":1549381602759,"click_time":1549381604677,"finger_time":1549381604337,"fix_duration":935.2602799649602,"trial":17,"RT":1578,"MT":340,"sideResp":2,"stimulus":[],"xmouse":[416,416,416,416,416.6669921875,416.6669921875,416.6669921875,418,418,418,418,419,419,419,422,422,422,424,424,423.3330078125,423.3330078125,423.3330078125,423.3330078125,423.3330078125,423.3330078125,423.3330078125,423.3330078125,423.3330078125,423.3330078125,423.3330078125,425,425.3330078125,426,426.6669921875,426,426,426,426,426,426,426,426,426,426,426,426,421,421,421,421,421,421,421,421,421,421,420,420,420,420,420,420,420,420,420,420,420,420,420,420,420,420,420,420,420,420,420,420,420,466,484,497,527.3330078125,538,562.6669921875,594,610,660.6669921875,681.3330078125,698,706,724.6669921875,732,746,746.6669921875,748.6669921875,749.3330078125],"ymouse":[810,810,810,810,814.6669921875,814.6669921875,814.6669921875,818,820,821,821,824,824,824,828,828,828,828,828,827.3330078125,827.3330078125,827.3330078125,827.3330078125,827.3330078125,826.6669921875,826.6669921875,826.6669921875,826.6669921875,826.6669921875,826.6669921875,830,830.6669921875,832,832.6669921875,833,833,832,832,832,832,832,832,832,832,832,832,830,830,830,830,830,830,830,830,830,830,824,824,824,824,824,824,824,824,824,824,824,824,824,824,824,824,824,824,824,807,800,800,800,730,700,672,611.3330078125,588,538.6669921875,482,450,364.6669921875,319.3330078125,278,256,214.66700744628906,194,141,131.33299255371094,109.33300018310547,98.66699981689453],"timestamp_mouse":[1,27,54,58,78,98,118,138,158,177,197,218,240,258,278,298,318,338,358,378,398,418,438,458,478,498,518,538,558,578,597,618,640,658,678,698,718,738,758,778,798,818,839,858,878,897,918,938,958,978,998,1017,1038,1058,1078,1098,1118,1138,1158,1178,1198,1217,1238,1258,1278,1298,1318,1339,1358,1378,1397,1418,1437,1458,1478,1498,1517,1538,1558,1578,1598,1617,1639,1657,1678,1698,1717,1740,1757,1778,1798,1818,1838,1857,1878,1898,1918],"xSR":350,"ySR":768,"xT1":30,"yT1":0,"xT2":670,"yT2":0,"toosoon":0,"cond_shown":"Congruent","ratio_trial":300,"L_num":2,"L_den":10,"R_num":12,"R_den":24,"correct_side":2,"subjID":"44wm","gender":"No_gender","school":"No_school","age":"No_age"},{"start_time":1549381606303,"click_time":1549381609140,"finger_time":1549381608736,"fix_duration":645.8371513565766,"trial":18,"RT":2433,"MT":404,"sideResp":1,"stimulus":[],"xmouse":[385.3330078125,386.6669921875,386.6669921875,386.6669921875,386.6669921875,386.6669921875,386.6669921875,386.6669921875,386.6669921875,386.6669921875,386.6669921875,387.3330078125,387.3330078125,387.3330078125,387.3330078125,387.3330078125,387.3330078125,387.3330078125,387.3330078125,387.3330078125,387.3330078125,386.6669921875,386.6669921875,386.6669921875,386.6669921875,386.6669921875,386.6669921875,386.6669921875,386.6669921875,386.6669921875,386.6669921875,386.6669921875,386.6669921875,386.6669921875,386.6669921875,386.6669921875,386.6669921875,386.6669921875,386.6669921875,386.6669921875,386.6669921875,386,386,386,386,386,386,386,386,386,386,386.6669921875,386.6669921875,386.6669921875,386.6669921875,386.6669921875,386.6669921875,386.6669921875,386.6669921875,386.6669921875,386.6669921875,386.6669921875,386.6669921875,386.6669921875,386.6669921875,386.6669921875,386.6669921875,386.6669921875,386.6669921875,386.6669921875,386.6669921875,386.6669921875,386.6669921875,386.6669921875,386.6669921875,386.6669921875,386.6669921875,386.6669921875,386.6669921875,386.6669921875,386.6669921875,386.6669921875,386,386,386,386,386,386,386,386,386,386,388,388,388,388,388,388,388,388,388,388,388,388,388,388,388,388,388,388,392.6669921875,392.6669921875,392,392,392,392,392,392,386,384,378,364.6669921875,355.3330078125,348.6669921875,330,319.3330078125,264,249.3330078125,224,212.66700744628906,196,178,170,165.33299255371094,154.66700744628906,146,134,130.66700744628906,122,114,110,96],"ymouse":[828.6669921875,829.3330078125,829.3330078125,829.3330078125,829.3330078125,829.3330078125,829.3330078125,829.3330078125,829.3330078125,829.3330078125,829.3330078125,827.3330078125,827.3330078125,827.3330078125,827.3330078125,827.3330078125,827.3330078125,827.3330078125,827.3330078125,827.3330078125,827.3330078125,827.3330078125,827.3330078125,827.3330078125,827.3330078125,827.3330078125,827.3330078125,827.3330078125,827.3330078125,827.3330078125,827.3330078125,826.6669921875,826.6669921875,826.6669921875,826.6669921875,826.6669921875,826.6669921875,826.6669921875,826.6669921875,826.6669921875,826.6669921875,826,826,826,826,826,826,826,826,826,826,825.3330078125,825.3330078125,825.3330078125,825.3330078125,825.3330078125,825.3330078125,825.3330078125,825.3330078125,825.3330078125,825.3330078125,824.6669921875,824.6669921875,824.6669921875,824.6669921875,824.6669921875,824.6669921875,824.6669921875,824.6669921875,824.6669921875,824.6669921875,824.6669921875,823.3330078125,823.3330078125,823.3330078125,823.3330078125,823.3330078125,823.3330078125,823.3330078125,823.3330078125,823.3330078125,823.3330078125,824,824,824,824,824,824,824,824,824,824,824,824,824,824,824,824,824,824,824,824,824,823,823,823,823,823,823,823,817.3330078125,817.3330078125,818,818,818,818,818,818,809,806,788,724.6669921875,684.6669921875,669.3330078125,638,617.3330078125,516,492.6669921875,451,433.3330078125,400,360,336,320.6669921875,284.6669921875,250,198,181.33299255371094,148,116,100,62],"timestamp_mouse":[32,37,54,74,93,114,133,154,174,194,213,234,254,274,294,314,334,354,373,394,413,434,454,474,494,514,534,554,574,593,614,634,654,674,694,715,734,754,773,794,814,834,854,874,894,914,934,954,974,994,1015,1034,1054,1074,1094,1114,1133,1154,1173,1194,1214,1234,1254,1274,1294,1314,1333,1354,1374,1394,1414,1434,1454,1474,1494,1513,1534,1554,1574,1594,1614,1633,1654,1674,1694,1715,1734,1754,1774,1794,1814,1834,1854,1874,1894,1914,1934,1953,1974,1994,2014,2034,2054,2075,2094,2114,2135,2154,2174,2193,2213,2233,2254,2274,2294,2313,2334,2354,2373,2394,2414,2433,2454,2473,2494,2513,2534,2553,2573,2594,2614,2635,2654,2674,2694,2713,2736,2754,2774,2794,2814,2837],"xSR":350,"ySR":768,"xT1":30,"yT1":0,"xT2":670,"yT2":0,"toosoon":0,"cond_shown":"Congruent","ratio_trial":500,"L_num":15,"L_den":18,"R_num":5,"R_den":15,"correct_side":1,"subjID":"44wm","gender":"No_gender","school":"No_school","age":"No_age"},{"start_time":1549381612111,"click_time":1549381614157,"finger_time":1549381614156,"fix_duration":250,"trial":19,"RT":2045,"MT":1,"sideResp":2,"stimulus":[],"xmouse":[438,438,437.3330078125,436,435.3330078125,435.3330078125,434.6669921875,434,433,432.6669921875,432.6669921875,432,432,432,431.3330078125,430.6669921875,429,428,427.3330078125,427.3330078125,428,428,428,428,428,428,428,428,428,428,430.6669921875,430.6669921875,430.6669921875,430.6669921875,430.6669921875,430.6669921875,430.6669921875,430.6669921875,430.6669921875,430.6669921875,430,430,430,430,430,430,430,430,430,430,430,430,430,430,430,430,430,430,430,430,430,430,430,430,430,430,430,430,428.6669921875,428.6669921875,428.6669921875,428.6669921875,428.6669921875,428.6669921875,428.6669921875,428.6669921875,428.6669921875,428.6669921875,428.6669921875,428.6669921875,428.6669921875,428.6669921875,428.6669921875,428.6669921875,428.6669921875,428.6669921875,428.6669921875,428.6669921875,428.6669921875,428.6669921875,428.6669921875,428.6669921875,428.6669921875,428.6669921875,428.6669921875,428.6669921875,428.6669921875,428.6669921875,428.6669921875,428.6669921875,428.6669921875,428.6669921875,712],"ymouse":[843,843,843.3330078125,843,842.6669921875,842.6669921875,842.6669921875,842,842,841.3330078125,840.6669921875,840,838,838,837.3330078125,837.3330078125,836,834,834.6669921875,834.6669921875,835,835,835,835,835,835,835,835,835,835,834.6669921875,834.6669921875,834.6669921875,834.6669921875,834.6669921875,834.6669921875,834.6669921875,834.6669921875,834.6669921875,834.6669921875,834,834,834,834,834,834,834,834,834,834,832,832,832,832,832,832,832,832,832,832,831,831,831,831,831,831,831,831,828.6669921875,828.6669921875,828.6669921875,828.6669921875,828.6669921875,828.6669921875,828.6669921875,828.6669921875,828.6669921875,828.6669921875,828.6669921875,828.6669921875,828.6669921875,828.6669921875,828.6669921875,828.6669921875,828.6669921875,828.6669921875,828.6669921875,828.6669921875,828.6669921875,828.6669921875,828.6669921875,828.6669921875,828.6669921875,828.6669921875,828.6669921875,828.6669921875,828.6669921875,828.6669921875,828.6669921875,828.6669921875,828.6669921875,828.6669921875,56],"timestamp_mouse":[10,30,46,66,86,106,125,146,166,186,206,226,248,266,286,306,325,347,366,386,406,426,446,466,485,506,525,546,566,586,606,626,646,666,686,705,726,745,765,786,806,826,846,866,886,906,926,946,966,986,1006,1026,1046,1065,1086,1105,1126,1147,1165,1186,1205,1226,1246,1266,1286,1305,1326,1345,1366,1386,1406,1426,1446,1466,1486,1506,1525,1546,1566,1586,1606,1626,1645,1666,1686,1706,1726,1746,1766,1786,1806,1826,1846,1866,1886,1906,1926,1946,1965,1986,2006,2026,2045],"xSR":350,"ySR":768,"xT1":30,"yT1":0,"xT2":670,"yT2":0,"toosoon":0,"cond_shown":"Congruent","ratio_trial":200,"L_num":5,"L_den":10,"R_num":14,"R_den":20,"correct_side":2,"subjID":"44wm","gender":"No_gender","school":"No_school","age":"No_age"},{"start_time":1549381616198,"click_time":1549381620619,"finger_time":1549381618577,"fix_duration":860.2203619918358,"trial":20,"RT":2379,"MT":2042,"sideResp":1,"stimulus":[],"xmouse":[414.6669921875,414.6669921875,414.6669921875,414.6669921875,418,418,418,418,417.3330078125,417.3330078125,417,417,417,417,417,417,417,417,417,417,417.3330078125,417.3330078125,417.3330078125,417.3330078125,417.3330078125,417.3330078125,417.3330078125,417.3330078125,417.3330078125,417.3330078125,416.6669921875,416.6669921875,416.6669921875,416.6669921875,416.6669921875,416.6669921875,416.6669921875,416.6669921875,416.6669921875,416.6669921875,416,416,416,416,416,416,416,416,416,416,416,416,416,416,416,416,416,416,416,416,416,416,416,416,416,416,416,416,416,416,416,416,416,416,416,416,416,416,416,416,416,409.3330078125,408,408.6669921875,409,409,409,409,409,409,409,415.3330078125,415.3330078125,415.3330078125,415.3330078125,415.3330078125,415.3330078125,415.3330078125,415.3330078125,415.3330078125,415.3330078125,414,414,414,414,414,414,414,414,414,414,406,406,406,406,394,392,390.6669921875,390,388,386.6669921875,384.6669921875,383.3330078125,381,379.3330078125,378,377,377.3330078125,376.6669921875,376,376,376,376,376,376,376,376,376,376,376,388,388,390,390.6669921875,394,394.6669921875,396,398.6669921875,399.3330078125,400,400.6669921875,400.6669921875,401,402,402,402.6669921875,402.6669921875,402,402,402.6669921875,403.3330078125,403,403,402,402.6669921875,402,402,402,402,402,402,402,402,402,395.3330078125,395.3330078125,393.3330078125,393.3330078125,393.3330078125,393.3330078125,393.3330078125,393.3330078125,393.3330078125,393.3330078125,394,394.6669921875,394.6669921875,394.6669921875,394.6669921875,394.6669921875,394.6669921875,394.6669921875,394.6669921875,394.6669921875,396.6669921875,396.6669921875,396.6669921875,396.6669921875,389.3330078125,382,358.6669921875,336.6669921875,314,302.6669921875,279,244.66700744628906,220,208.66700744628906,187.33299255371094,176,143.33299255371094,136,121.3330078125,116,107.33300018310547,94,89,86,79.33300018310547,72,61.33300018310547],"ymouse":[820.6669921875,820.6669921875,820.6669921875,820.6669921875,822,822,822,822,822.6669921875,822.6669921875,822,822,822,822,822,822,822,822,822,822,821.3330078125,821.3330078125,821.3330078125,821.3330078125,821.3330078125,821.3330078125,821.3330078125,821.3330078125,821.3330078125,821.3330078125,820.6669921875,820.6669921875,820.6669921875,820.6669921875,820.6669921875,820.6669921875,820.6669921875,820.6669921875,820.6669921875,820.6669921875,820,820,820,820,820,820,820,820,820,820,819,819,819,819,819,819,819,819,819,819,819,818,818,818,818,818,818,818,818,818,818,818,818,818,818,818,818,818,818,818,818,803.3330078125,802,799.3330078125,798,798,798,798,798,798,798,792.6669921875,792.6669921875,792.6669921875,792.6669921875,792.6669921875,792.6669921875,792.6669921875,792.6669921875,792.6669921875,792.6669921875,803,803,803,803,803,803,803,803,803,803,800,800,800,800,782,776,770.6669921875,767,759,754.6669921875,750.6669921875,749.3330078125,746,741.3330078125,739,738,737.3330078125,736.6669921875,736,737,738,738,738,738,738,738,738,738,738,764,766,770,771.3330078125,776,777.3330078125,780,783.3330078125,784.6669921875,790,794.6669921875,797.3330078125,798,800,802,802.6669921875,803.3330078125,804,804,804.6669921875,805.3330078125,806,806,806,806.6669921875,806,806,806,806,806,806,806,806,806,798.6669921875,798.6669921875,797.3330078125,796.6669921875,796.6669921875,796.6669921875,796.6669921875,796.6669921875,796.6669921875,796.6669921875,788,787.3330078125,787.3330078125,787.3330078125,787.3330078125,787.3330078125,787.3330078125,787.3330078125,787.3330078125,787.3330078125,790.6669921875,790.6669921875,790.6669921875,790.6669921875,780.6669921875,770,724.6669921875,679.3330078125,644,629.3330078125,594,533.3330078125,490,473.3330078125,434.6669921875,414,338.6669921875,321,286.6669921875,270,237.33299255371094,200,178,166,141.33299255371094,117,83.33300018310547],"timestamp_mouse":[35,39,59,78,99,119,139,158,179,199,218,239,259,279,298,319,339,359,379,399,419,439,458,479,499,519,539,559,579,599,619,639,659,679,698,719,738,759,779,799,819,838,859,879,899,919,939,959,979,998,1019,1039,1059,1079,1099,1119,1139,1159,1179,1199,1218,1239,1258,1279,1299,1318,1339,1359,1379,1398,1419,1439,1459,1479,1498,1519,1539,1559,1578,1599,1619,1639,1659,1679,1698,1719,1739,1759,1779,1800,1819,1838,1859,1879,1900,1919,1939,1959,1979,2000,2019,2039,2058,2079,2099,2119,2139,2158,2178,2199,2219,2239,2259,2279,2299,2319,2339,2359,2379,2401,2418,2439,2459,2479,2500,2519,2539,2559,2579,2600,2619,2639,2658,2679,2699,2719,2738,2759,2779,2799,2819,2839,2859,2879,2901,2919,2939,2958,2978,3003,3018,3038,3059,3079,3101,3119,3139,3159,3179,3199,3219,3239,3259,3279,3299,3319,3339,3359,3378,3399,3420,3439,3459,3478,3499,3519,3539,3559,3579,3599,3620,3639,3659,3678,3698,3719,3739,3759,3779,3799,3820,3839,3859,3879,3904,3923,3940,3959,3979,3998,4019,4039,4059,4079,4099,4119,4139,4159,4179,4198,4220,4240,4259,4279,4299,4321,4339,4359,4379,4399,4421],"xSR":350,"ySR":768,"xT1":30,"yT1":0,"xT2":670,"yT2":0,"toosoon":0,"cond_shown":"Incongruent","ratio_trial":200,"L_num":6,"L_den":20,"R_num":3,"R_den":6,"correct_side":2,"subjID":"44wm","gender":"No_gender","school":"No_school","age":"No_age"},{"start_time":1549381623717,"click_time":1549381626177,"finger_time":1549381625337,"fix_duration":658.3612463826879,"trial":21,"RT":1620,"MT":840,"sideResp":1,"stimulus":[],"xmouse":[430,430,430,430,430,430,430,430,430,432.6669921875,432.6669921875,432.6669921875,435,434.6669921875,434.6669921875,434.6669921875,434.6669921875,434.6669921875,434.6669921875,432.6669921875,432.6669921875,432.6669921875,432.6669921875,432.6669921875,432.6669921875,432.6669921875,432.6669921875,432.6669921875,432.6669921875,432.6669921875,432.6669921875,432.6669921875,432.6669921875,432.6669921875,432.6669921875,432.6669921875,432.6669921875,432.6669921875,432.6669921875,432.6669921875,432.6669921875,432.6669921875,432.6669921875,432.6669921875,432.6669921875,432.6669921875,432.6669921875,432.6669921875,432.6669921875,432.6669921875,432.6669921875,432.6669921875,432.6669921875,432.6669921875,432.6669921875,432.6669921875,432.6669921875,432.6669921875,432.6669921875,432.6669921875,432.6669921875,432.6669921875,432,432,432,432,432,432,432,432,432,432,432,432,432,432,432,420,418.6669921875,413.3330078125,407.3330078125,397.3330078125,394,388,382,382,382,370,368.6669921875,366.6669921875,363,354,347.3330078125,344,336,328.6669921875,318.6669921875,316,310,304,300,287.3330078125,278.6669921875,270,266,254.6669921875,234,227.33299255371094,222,212,207,190.66700744628906,185.33299255371094,176,172,164,151.33299255371094,142,131,126.6669921875,115,99,90],"ymouse":[800,800,800,800,800,800,800,800,800,799.3330078125,799.3330078125,799.3330078125,800,800.6669921875,800.6669921875,800.6669921875,800.6669921875,800.6669921875,800.6669921875,802.6669921875,802.6669921875,802.6669921875,802.6669921875,802.6669921875,802.6669921875,802.6669921875,802.6669921875,802.6669921875,802.6669921875,803.3330078125,803.3330078125,803.3330078125,803.3330078125,803.3330078125,803.3330078125,803.3330078125,803.3330078125,803.3330078125,803.3330078125,802.6669921875,802.6669921875,802.6669921875,802.6669921875,802.6669921875,802.6669921875,802.6669921875,802.6669921875,802.6669921875,802.6669921875,802.6669921875,802.6669921875,802.6669921875,802.6669921875,802.6669921875,802.6669921875,802.6669921875,802.6669921875,802.6669921875,802.6669921875,802.6669921875,802.6669921875,802.6669921875,802,802,802,802,802,802,802,802,802,802,802,802,802,802,802,784,780.6669921875,772.6669921875,764.6669921875,756.6669921875,754,750,748,748,748,736,729.3330078125,725.3330078125,718,706,697.3330078125,693,683,673.3330078125,656.6669921875,651,640,627,620,597.3330078125,580.6669921875,564,556,533.3330078125,484,462.6669921875,452,428,416,363.3330078125,351.3330078125,328,319,296,259.3330078125,234,206,190.66700744628906,162,122,98],"timestamp_mouse":[24,40,60,80,100,120,140,159,179,200,220,239,260,280,300,321,340,360,379,400,420,440,460,480,500,520,540,560,580,614,620,640,660,679,700,720,740,759,780,799,820,840,860,880,899,920,940,960,980,1000,1020,1040,1060,1079,1100,1120,1140,1160,1180,1200,1237,1240,1260,1279,1300,1319,1340,1360,1379,1400,1420,1441,1460,1480,1499,1520,1539,1560,1580,1600,1620,1640,1660,1680,1700,1720,1740,1760,1780,1800,1820,1840,1860,1880,1900,1920,1939,1960,1979,2000,2020,2042,2059,2080,2100,2120,2141,2160,2180,2199,2220,2241,2260,2280,2300,2320,2342,2360,2380,2400,2420,2440,2459],"xSR":350,"ySR":768,"xT1":30,"yT1":0,"xT2":670,"yT2":0,"toosoon":0,"cond_shown":"Incongruent","ratio_trial":200,"L_num":6,"L_den":20,"R_num":3,"R_den":6,"correct_side":2,"subjID":"44wm","gender":"No_gender","school":"No_school","age":"No_age"},{"start_time":1549381628936,"click_time":1549381630737,"finger_time":1549381630016,"fix_duration":897.3309318132552,"trial":22,"RT":1080,"MT":721,"sideResp":2,"stimulus":[],"xmouse":[402.6669921875,402.6669921875,403.3330078125,403,404,403,403,403,403,403,403,403,403,403,403,403,403,403,403,404,404,404,404,404,404.6669921875,404.6669921875,404.6669921875,404.6669921875,404.6669921875,404.6669921875,404.6669921875,404.6669921875,404,404,404,405,405,405,405.3330078125,404.6669921875,404.6669921875,404.6669921875,404.6669921875,404.6669921875,404.6669921875,404.6669921875,404.6669921875,404.6669921875,404.6669921875,404.6669921875,400.6669921875,400.6669921875,400.6669921875,400.6669921875,417.3330078125,424,427.3330078125,438,445.3330078125,452,454.6669921875,461.3330078125,468.6669921875,474,476,479,481.3330078125,484.6669921875,494,506,520,528,541.3330078125,562,566.6669921875,574,581.3330078125,590.6669921875,606,611.3330078125,622,626,636.6669921875,648,655.3330078125,658.6669921875,665.3330078125,678.6669921875,686.6669921875,690,700],"ymouse":[816.6669921875,817.3330078125,817.3330078125,818,818,818,818,818,818,818,818,818,818,818,818,818,818,818,818,818,818,818,818,818,818.6669921875,818.6669921875,818.6669921875,818.6669921875,819.3330078125,819.3330078125,819.3330078125,819.3330078125,820,820,820,820,820,820,819.3330078125,819.3330078125,818.6669921875,818.6669921875,818.6669921875,818.6669921875,818.6669921875,818.6669921875,818.6669921875,818.6669921875,818.6669921875,818.6669921875,795.3330078125,795.3330078125,795.3330078125,795.3330078125,759.3330078125,744,736.6669921875,710,694.6669921875,682,676.6669921875,665.3330078125,649.3330078125,640,636,628,623.3330078125,614.6669921875,594,568,536,519,487.3330078125,436,423.3330078125,403,384.6669921875,364.6669921875,333,322.6669921875,300,290,266.6669921875,238,220.66700744628906,211.33299255371094,190.66700744628906,151.33299255371094,125.3330078125,110,82],"timestamp_mouse":[0,32,42,61,80,100,120,140,161,181,201,221,240,261,281,301,321,340,361,381,401,421,440,460,481,501,521,541,561,581,601,621,640,661,681,701,721,741,761,781,801,821,843,861,881,901,921,942,960,980,1000,1021,1041,1061,1080,1100,1121,1143,1161,1181,1201,1221,1242,1261,1281,1300,1321,1340,1362,1381,1401,1421,1441,1462,1481,1501,1520,1541,1564,1581,1601,1621,1641,1661,1681,1701,1721,1743,1761,1781,1801],"xSR":350,"ySR":768,"xT1":30,"yT1":0,"xT2":670,"yT2":0,"toosoon":0,"cond_shown":"Incongruent","ratio_trial":300,"L_num":13,"L_den":26,"R_num":12,"R_den":15,"correct_side":2,"subjID":"44wm","gender":"No_gender","school":"No_school","age":"No_age"},{"start_time":1549381635050,"click_time":1549381636697,"finger_time":1549381636377,"fix_duration":612.302673730354,"trial":23,"RT":1327,"MT":320,"sideResp":2,"stimulus":[],"xmouse":[415.3330078125,415.3330078125,415.3330078125,416,416,416,416,416,416,416,416,416,416,418,418,418,418,418,418,418,418,418,418,417,417,417,417,417,417,417,417,417,417,417.3330078125,417.3330078125,417.3330078125,417.3330078125,417.3330078125,417.3330078125,417.3330078125,417.3330078125,420,420,420,420,420,420,420,420,420,420,420,420,420,420,420,420,420,420,420,420,420,420,420,416.6669921875,416.6669921875,455.3330078125,465,484.6669921875,514,530.6669921875,540,556,572,600,610,626.6669921875,642,650,667,678.6669921875,688,692],"ymouse":[826.6669921875,826.6669921875,826.6669921875,831,831,831,831,831,831,831,831,831,831,832,832,832,832,832,832,832,832,832,832,834,834,834,834,834,834,834,834,834,834,834.6669921875,834.6669921875,834.6669921875,834.6669921875,834.6669921875,834.6669921875,834.6669921875,834.6669921875,834,834,834,834,834,834,834,834,834,834,834,834,834,834,834,834,834,833,833,833,833,833,833,783.3330078125,783.3330078125,654.6669921875,632,593.3330078125,534,496.6669921875,478,442,402,338,316,275.3330078125,238,220,170,138.66700744628906,110,95],"timestamp_mouse":[9,37,47,66,87,107,127,147,167,187,207,227,247,267,286,307,327,347,366,386,407,427,447,468,487,507,527,547,567,587,607,627,647,668,687,707,727,747,768,787,807,827,847,867,887,907,927,947,967,987,1006,1027,1047,1067,1087,1107,1127,1147,1167,1187,1206,1227,1247,1267,1288,1307,1327,1347,1368,1387,1407,1427,1447,1467,1487,1507,1527,1547,1566,1586,1606,1627,1647],"xSR":350,"ySR":768,"xT1":30,"yT1":0,"xT2":670,"yT2":0,"toosoon":0,"cond_shown":"Incongruent","ratio_trial":500,"L_num":7,"L_den":21,"R_num":5,"R_den":6,"correct_side":2,"subjID":"44wm","gender":"No_gender","school":"No_school","age":"No_age"},{"start_time":1549381639146,"click_time":1549381641277,"finger_time":1549381640659,"fix_duration":1248.248041417003,"trial":24,"RT":1513,"MT":618,"sideResp":1,"stimulus":[],"xmouse":[402.6669921875,402.6669921875,402.6669921875,402.6669921875,401,401,401,401,401,401,401,401,401,401,401,403.3330078125,403.3330078125,403.3330078125,403.3330078125,403.3330078125,403.3330078125,403.3330078125,403.3330078125,403.3330078125,403.3330078125,404,404,404,404,404,404,404,404,404,404,404,404,404,404,404,404,404,404,404,404,403,403,403,403,403,403,403,403,403,403,403,403,403,403,403,403,403,403,403,403,404,404,404,404,404,404,379.3330078125,376,374,371.3330078125,364.6669921875,359,352,348.6669921875,342,332,326,324,320,317.3330078125,298.6669921875,293.3330078125,284,280.6669921875,272,252,238,230.66700744628906,220,212,193.33299255371094,186,172,161.33299255371094,156,146,130.66700744628906,122,118.66699981689453,112,104,99.33300018310547],"ymouse":[824.6669921875,824.6669921875,824.6669921875,824.6669921875,824,824,824,824,824,824,824,824,824,824,824,824.6669921875,824.6669921875,824.6669921875,824.6669921875,824.6669921875,824.6669921875,824.6669921875,824.6669921875,824.6669921875,824.6669921875,824,824,824,824,824,824,824,824,824,824,824,824,824,824,824,824,824,824,824,824,824,824,824,824,824,824,824,824,824,824,824,824,824,824,824,824,824,824,824,824,823,823,823,823,823,823,793.3330078125,787,784,773.3330078125,754.6669921875,742,722,710.6669921875,670,611,599,596,588,584.6669921875,535.3330078125,520.6669921875,504,498.6669921875,484,422,384,372.6669921875,358,343,294.6669921875,280,256,239.33299255371094,228,205,169.33299255371094,151,143.33299255371094,129,109,98.66699981689453],"timestamp_mouse":[29,31,51,71,92,111,131,151,171,191,210,231,251,271,291,311,342,351,371,391,411,431,450,471,491,511,531,551,571,591,610,631,651,670,691,711,731,751,770,791,811,831,851,871,891,911,931,951,971,990,1011,1031,1050,1071,1090,1111,1131,1151,1171,1191,1210,1230,1251,1271,1291,1311,1331,1351,1371,1391,1411,1430,1451,1471,1491,1513,1531,1551,1571,1591,1611,1631,1651,1671,1690,1712,1731,1750,1771,1791,1815,1831,1850,1871,1890,1913,1930,1951,1971,1990,2011,2031,2052,2071,2091,2112,2131],"xSR":350,"ySR":768,"xT1":30,"yT1":0,"xT2":670,"yT2":0,"toosoon":0,"cond_shown":"Incongruent","ratio_trial":200,"L_num":4,"L_den":6,"R_num":14,"R_den":30,"correct_side":1,"subjID":"44wm","gender":"No_gender","school":"No_school","age":"No_age"},{"start_time":1549381643348,"click_time":1549381645377,"finger_time":1549381644879,"fix_duration":890.5665303264908,"trial":25,"RT":1531,"MT":498,"sideResp":1,"stimulus":[],"xmouse":[399.3330078125,400,400.6669921875,400.6669921875,400,400,400,399,399.3330078125,399.3330078125,399.3330078125,399.3330078125,399.3330078125,399.3330078125,399.3330078125,399.3330078125,399.3330078125,399.3330078125,399.3330078125,399.3330078125,399.3330078125,399.3330078125,399.3330078125,399.3330078125,399.3330078125,399.3330078125,399.3330078125,397.3330