[{"start_time":1549382447747,"click_time":1549382448457,"finger_time":1549382447757,"fix_duration":1185.1369148117037,"trial":0,"RT":10,"MT":700,"sideResp":2,"stimulus":"img/500/randomdotsizeEA/R/1_Ratio_500_L_9_R_18.png","xmouse":[404.6669921875,404.6669921875,405.3330078125,405.3330078125,405.3330078125,405.3330078125,405.3330078125,405.3330078125,405.3330078125,405.3330078125,405.3330078125,405.3330078125,406.6669921875,406.6669921875,406.6669921875,406.6669921875,406.6669921875,406.6669921875,406.6669921875,406.6669921875,406.6669921875,406.6669921875,437,466,475,498,512,538.6669921875,575.3330078125,595.3330078125,604.6669921875,623,643.3330078125,670,684.6669921875,691.3330078125],"ymouse":[584.6669921875,584.6669921875,584.6669921875,584.6669921875,584.6669921875,584.6669921875,584.6669921875,584.6669921875,584.6669921875,584.6669921875,584.6669921875,584.6669921875,585.3330078125,585.3330078125,585.3330078125,585.3330078125,585.3330078125,585.3330078125,585.3330078125,585.3330078125,585.3330078125,585.3330078125,546,500,484,448,428,389.3330078125,326.6669921875,288.6669921875,270.6669921875,232,194.66700744628906,144,113.3330078125,98.66699981689453],"timestamp_mouse":[9,33,50,69,90,110,130,150,170,190,210,229,250,270,290,309,330,350,371,390,410,430,449,471,490,509,529,549,569,589,610,630,649,669,690,709],"xSR":350,"ySR":508.79999999999995,"xT1":30,"yT1":0,"xT2":670,"yT2":0,"toosoon":0,"cond_shown":"randomdotsizeEA","ratio_trial":500,"smaller_num":"9","larger_num":"18","correct_side":2,"subjID":"44wm","gender":"No_gender","age":"No_age","school":"No_school","test":{"fix_dur":[250,1500],"timestim":400,"targets_dim":[100,100],"targets_relative_coord":[0.1,0.9],"size_stim":[880,420],"start_dim":[100,100],"size_start":[300,300],"size_fix":60,"samplingrate":20,"img_types":["equaldotsize","equaldotanddens","randomdotsize","randomdotsizeEA"],"ratios":[250,500,750,900],"rep_conds":7,"nTrials":128,"trials_to_rest":500,"Trials_order":[23,105,72,45,95,66,107,78,87,13,7,117,50,115,38,54,56,85,111,27,48,108,40,58,74,121,90,99,9,97,4,76,42,53,79,101,59,24,125,60,100,31,68,28,47,44,106,34,52,83,64,94,120,92,69,37,67,8,104,30,91,11,81,2,57,96,21,114,5,113,73,0,109,46,14,55,61,126,32,118,39,49,26,124,22,71,84,116,93,43,35,51,1,75,123,98,33,77,63,119,112,62,16,89,127,3,17,29,12,36,110,80,15,82,20,19,41,102,10,25,65,86,122,18,6,70,103,88],"cond_shown":["randomdotsizeEA","equaldotanddens","equaldotsize","equaldotanddens","randomdotsizeEA","randomdotsize","randomdotsizeEA","randomdotsize","randomdotsizeEA","equaldotanddens","randomdotsizeEA","equaldotanddens","randomdotsize","randomdotsizeEA","randomdotsize","randomdotsize","equaldotsize","equaldotanddens","randomdotsizeEA","randomdotsizeEA","equaldotsize","equaldotsize","equaldotsize","randomdotsize","randomdotsize","equaldotanddens","randomdotsize","randomdotsizeEA","equaldotanddens","equaldotanddens","equaldotsize","equaldotsize","randomdotsize","equaldotanddens","randomdotsizeEA","equaldotanddens","randomdotsizeEA","equaldotsize","equaldotanddens","equaldotsize","equaldotsize","randomdotsizeEA","equaldotsize","equaldotsize","randomdotsizeEA","equaldotsize","randomdotsize","randomdotsize","equaldotsize","randomdotsizeEA","equaldotsize","randomdotsize","equaldotsize","equaldotsize","equaldotanddens","equaldotanddens","randomdotsizeEA","equaldotsize","equaldotsize","randomdotsize","randomdotsizeEA","randomdotsizeEA","equaldotanddens","randomdotsize","equaldotanddens","equaldotsize","equaldotanddens","randomdotsize","equaldotanddens","equaldotanddens","equaldotanddens","equaldotsize","equaldotanddens","randomdotsize","randomdotsize","randomdotsizeEA","equaldotanddens","randomdotsize","equaldotsize","randomdotsize","randomdotsizeEA","equaldotanddens","randomdotsize","equaldotsize","randomdotsize","randomdotsizeEA","equaldotsize","equaldotsize","equaldotanddens","randomdotsizeEA","randomdotsizeEA","randomdotsizeEA","equaldotanddens","randomdotsizeEA","randomdotsizeEA","randomdotsize","equaldotanddens","equaldotanddens","randomdotsizeEA","randomdotsizeEA","equaldotsize","randomdotsize","equaldotsize","equaldotanddens","randomdotsizeEA","randomdotsizeEA","equaldotanddens","equaldotanddens","equaldotsize","equaldotsize","randomdotsize","equaldotsize","randomdotsizeEA","randomdotsize","equaldotsize","randomdotsizeEA","equaldotanddens","randomdotsize","randomdotsize","equaldotanddens","equaldotanddens","randomdotsize","randomdotsize","randomdotsize","randomdotsize","randomdotsize","randomdotsizeEA","equaldotsize"],"ratio_trial":[500,750,750,900,900,250,750,900,500,900,500,500,250,250,500,500,750,500,900,750,250,900,750,750,750,750,750,250,750,250,500,900,750,500,900,500,750,750,900,900,500,900,500,900,900,900,750,250,500,250,250,900,750,900,500,500,250,750,750,900,750,750,250,250,750,250,500,250,500,250,750,250,900,900,900,500,900,900,250,500,500,250,750,900,500,500,500,500,900,750,250,250,250,750,750,250,250,900,900,500,250,900,250,750,900,250,250,900,900,500,900,250,900,250,500,250,750,500,750,750,250,500,750,250,500,500,500,750],"smaller_num":["9","6","15","18","9","3","9","18","3","18","10","6","2","2","4","5","12","6","18","3","5","9","15","6","18","3","9","4","9","3","9","9","6","4","9","1","3","12","18","9","4","9","10","18","9","9","9","3","9","1","6","18","6","9","2","2","2","3","6","18","12","15","4","3","15","2","2","5","6","2","3","4","18","18","18","9","18","9","3","6","1","1","6","9","1","9","1","2","9","15","1","2","4","6","12","4","2","9","18","6","4","18","6","3","9","3","4","18","18","4","9","3","9","4","9","3","3","1","6","15","3","2","15","3","5","6","2","15"],"larger_num":["18","8","20","20","10","12","12","20","6","20","20","12","8","8","8","10","16","12","20","4","20","10","20","8","24","4","12","16","12","12","18","10","8","8","10","2","4","16","20","10","8","10","20","20","10","10","12","12","18","4","24","20","8","10","4","4","8","4","8","20","16","20","16","12","20","8","4","20","12","8","4","16","20","20","20","18","20","10","12","12","2","4","8","10","2","18","2","4","10","20","4","8","16","8","16","16","8","10","20","12","16","20","24","4","10","12","16","20","20","8","10","12","10","16","18","12","4","2","8","20","12","4","20","12","10","12","4","20"],"correct_side":[2,1,2,1,1,1,2,2,2,2,2,1,1,1,1,1,2,1,2,1,2,1,1,1,1,2,2,1,2,2,2,1,1,1,1,2,2,2,1,1,1,2,2,2,2,1,2,1,1,2,2,2,1,2,1,1,1,2,1,1,2,1,1,1,1,2,1,2,1,1,1,1,2,2,1,2,1,2,1,1,2,2,1,2,2,2,2,1,2,1,2,1,1,1,2,1,1,2,1,1,1,2,2,2,2,2,2,1,1,1,2,1,2,1,1,2,2,2,2,2,1,2,1,1,1,1,1,2],"img_shown":["img/500/randomdotsizeEA/R/1_Ratio_500_L_9_R_18.png","img/750/equaldotanddens/L/13_Ratio_750_L_8_R_6.png","img/750/equaldotsize/R/3_Ratio_750_L_15_R_20.png","img/900/equaldotanddens/L/8_Ratio_900_L_20_R_18.png","img/900/randomdotsizeEA/L/1_Ratio_900_L_10_R_9.png","img/250/randomdotsize/L/15_Ratio_250_L_12_R_3.png","img/750/randomdotsizeEA/R/15_Ratio_750_L_9_R_12.png","img/900/randomdotsize/R/9_Ratio_900_L_18_R_20.png","img/500/randomdotsizeEA/R/2_Ratio_500_L_3_R_6.png","img/900/equaldotanddens/R/9_Ratio_900_L_18_R_20.png","img/500/randomdotsizeEA/R/3_Ratio_500_L_10_R_20.png","img/500/equaldotanddens/L/13_Ratio_500_L_12_R_6.png","img/250/randomdotsize/L/7_Ratio_250_L_8_R_2.png","img/250/randomdotsizeEA/L/3_Ratio_250_L_8_R_2.png","img/500/randomdotsize/L/8_Ratio_500_L_8_R_4.png","img/500/randomdotsize/L/7_Ratio_500_L_10_R_5.png","img/750/equaldotsize/R/11_Ratio_750_L_12_R_16.png","img/500/equaldotanddens/L/13_Ratio_500_L_12_R_6.png","img/900/randomdotsizeEA/R/13_Ratio_900_L_18_R_20.png","img/750/randomdotsizeEA/L/10_Ratio_750_L_4_R_3.png","img/250/equaldotsize/R/12_Ratio_250_L_5_R_20.png","img/900/equaldotsize/L/1_Ratio_900_L_10_R_9.png","img/750/equaldotsize/L/1_Ratio_750_L_20_R_15.png","img/750/randomdotsize/L/14_Ratio_750_L_8_R_6.png","img/750/randomdotsize/L/6_Ratio_750_L_24_R_18.png","img/750/equaldotanddens/R/7_Ratio_750_L_3_R_4.png","img/750/randomdotsize/R/15_Ratio_750_L_9_R_12.png","img/250/randomdotsizeEA/L/2_Ratio_250_L_16_R_4.png","img/750/equaldotanddens/R/15_Ratio_750_L_9_R_12.png","img/250/equaldotanddens/R/4_Ratio_250_L_3_R_12.png","img/500/equaldotsize/R/6_Ratio_500_L_9_R_18.png","img/900/equaldotsize/L/1_Ratio_900_L_10_R_9.png","img/750/randomdotsize/L/14_Ratio_750_L_8_R_6.png","img/500/equaldotanddens/L/8_Ratio_500_L_8_R_4.png","img/900/randomdotsizeEA/L/1_Ratio_900_L_10_R_9.png","img/500/equaldotanddens/R/12_Ratio_500_L_1_R_2.png","img/750/randomdotsizeEA/R/7_Ratio_750_L_3_R_4.png","img/750/equaldotsize/R/11_Ratio_750_L_12_R_16.png","img/900/equaldotanddens/L/4_Ratio_900_L_20_R_18.png","img/900/equaldotsize/L/1_Ratio_900_L_10_R_9.png","img/500/equaldotsize/L/8_Ratio_500_L_8_R_4.png","img/900/randomdotsizeEA/R/15_Ratio_900_L_9_R_10.png","img/500/equaldotsize/R/3_Ratio_500_L_10_R_20.png","img/900/equaldotsize/R/11_Ratio_900_L_18_R_20.png","img/900/randomdotsizeEA/R/7_Ratio_900_L_9_R_10.png","img/900/equaldotsize/L/1_Ratio_900_L_10_R_9.png","img/750/randomdotsize/R/15_Ratio_750_L_9_R_12.png","img/250/randomdotsize/L/15_Ratio_250_L_12_R_3.png","img/500/equaldotsize/L/4_Ratio_500_L_18_R_9.png","img/250/randomdotsizeEA/R/8_Ratio_250_L_1_R_4.png","img/250/equaldotsize/R/6_Ratio_250_L_6_R_24.png","img/900/randomdotsize/R/9_Ratio_900_L_18_R_20.png","img/750/equaldotsize/L/13_Ratio_750_L_8_R_6.png","img/900/equaldotsize/R/5_Ratio_900_L_9_R_10.png","img/500/equaldotanddens/L/10_Ratio_500_L_4_R_2.png","img/500/equaldotanddens/L/10_Ratio_500_L_4_R_2.png","img/250/randomdotsizeEA/L/3_Ratio_250_L_8_R_2.png","img/750/equaldotsize/R/7_Ratio_750_L_3_R_4.png","img/750/equaldotsize/L/14_Ratio_750_L_8_R_6.png","img/900/randomdotsize/L/10_Ratio_900_L_20_R_18.png","img/750/randomdotsizeEA/R/11_Ratio_750_L_12_R_16.png","img/750/randomdotsizeEA/L/1_Ratio_750_L_20_R_15.png","img/250/equaldotanddens/L/2_Ratio_250_L_16_R_4.png","img/250/randomdotsize/L/14_Ratio_250_L_12_R_3.png","img/750/equaldotanddens/L/1_Ratio_750_L_20_R_15.png","img/250/equaldotsize/R/13_Ratio_250_L_2_R_8.png","img/500/equaldotanddens/L/10_Ratio_500_L_4_R_2.png","img/250/randomdotsize/R/12_Ratio_250_L_5_R_20.png","img/500/equaldotanddens/L/11_Ratio_500_L_12_R_6.png","img/250/equaldotanddens/L/7_Ratio_250_L_8_R_2.png","img/750/equaldotanddens/L/8_Ratio_750_L_4_R_3.png","img/250/equaldotsize/L/2_Ratio_250_L_16_R_4.png","img/900/equaldotanddens/R/11_Ratio_900_L_18_R_20.png","img/900/randomdotsize/R/11_Ratio_900_L_18_R_20.png","img/900/randomdotsize/L/8_Ratio_900_L_20_R_18.png","img/500/randomdotsizeEA/R/1_Ratio_500_L_9_R_18.png","img/900/equaldotanddens/L/2_Ratio_900_L_20_R_18.png","img/900/randomdotsize/R/7_Ratio_900_L_9_R_10.png","img/250/equaldotsize/L/15_Ratio_250_L_12_R_3.png","img/500/randomdotsize/L/13_Ratio_500_L_12_R_6.png","img/500/randomdotsizeEA/R/15_Ratio_500_L_1_R_2.png","img/250/equaldotanddens/R/8_Ratio_250_L_1_R_4.png","img/750/randomdotsize/L/14_Ratio_750_L_8_R_6.png","img/900/equaldotsize/R/15_Ratio_900_L_9_R_10.png","img/500/randomdotsize/R/15_Ratio_500_L_1_R_2.png","img/500/randomdotsizeEA/R/1_Ratio_500_L_9_R_18.png","img/500/equaldotsize/R/15_Ratio_500_L_1_R_2.png","img/500/equaldotsize/L/10_Ratio_500_L_4_R_2.png","img/900/equaldotanddens/R/6_Ratio_900_L_9_R_10.png","img/750/randomdotsizeEA/L/1_Ratio_750_L_20_R_15.png","img/250/randomdotsizeEA/R/8_Ratio_250_L_1_R_4.png","img/250/randomdotsizeEA/L/1_Ratio_250_L_8_R_2.png","img/250/equaldotanddens/L/2_Ratio_250_L_16_R_4.png","img/750/randomdotsizeEA/L/14_Ratio_750_L_8_R_6.png","img/750/randomdotsizeEA/R/11_Ratio_750_L_12_R_16.png","img/250/randomdotsize/L/2_Ratio_250_L_16_R_4.png","img/250/equaldotanddens/L/1_Ratio_250_L_8_R_2.png","img/900/equaldotanddens/R/5_Ratio_900_L_9_R_10.png","img/900/randomdotsizeEA/L/10_Ratio_900_L_20_R_18.png","img/500/randomdotsizeEA/L/13_Ratio_500_L_12_R_6.png","img/250/equaldotsize/L/2_Ratio_250_L_16_R_4.png","img/900/randomdotsize/R/11_Ratio_900_L_18_R_20.png","img/250/equaldotsize/R/6_Ratio_250_L_6_R_24.png","img/750/equaldotanddens/R/7_Ratio_750_L_3_R_4.png","img/900/randomdotsizeEA/R/5_Ratio_900_L_9_R_10.png","img/250/randomdotsizeEA/R/11_Ratio_250_L_3_R_12.png","img/250/equaldotanddens/R/10_Ratio_250_L_4_R_16.png","img/900/equaldotanddens/L/10_Ratio_900_L_20_R_18.png","img/900/equaldotsize/L/8_Ratio_900_L_20_R_18.png","img/500/equaldotsize/L/8_Ratio_500_L_8_R_4.png","img/900/randomdotsize/R/15_Ratio_900_L_9_R_10.png","img/250/equaldotsize/L/15_Ratio_250_L_12_R_3.png","img/900/randomdotsizeEA/R/6_Ratio_900_L_9_R_10.png","img/250/randomdotsize/L/2_Ratio_250_L_16_R_4.png","img/500/equaldotsize/L/4_Ratio_500_L_18_R_9.png","img/250/randomdotsizeEA/R/9_Ratio_250_L_3_R_12.png","img/750/equaldotanddens/R/12_Ratio_750_L_3_R_4.png","img/500/randomdotsize/R/15_Ratio_500_L_1_R_2.png","img/750/randomdotsize/R/2_Ratio_750_L_6_R_8.png","img/750/equaldotanddens/R/4_Ratio_750_L_15_R_20.png","img/250/equaldotanddens/L/14_Ratio_250_L_12_R_3.png","img/500/randomdotsize/R/9_Ratio_500_L_2_R_4.png","img/750/randomdotsize/L/1_Ratio_750_L_20_R_15.png","img/250/randomdotsize/L/15_Ratio_250_L_12_R_3.png","img/500/randomdotsize/L/7_Ratio_500_L_10_R_5.png","img/500/randomdotsize/L/11_Ratio_500_L_12_R_6.png","img/500/randomdotsizeEA/L/5_Ratio_500_L_4_R_2.png","img/750/equaldotsize/R/3_Ratio_750_L_15_R_20.png"],"Rat0":[["12_Ratio_0_L_9_R_0.png","13_Ratio_0_L_6_R_0.png","5_Ratio_0_L_2_R_0.png","6_Ratio_0_L_4_R_0.png","8_Ratio_0_L_6_R_0.png"],["1_Ratio_0_L_0_R_17.png","10_Ratio_0_L_0_R_22.png","11_Ratio_0_L_0_R_1.png","14_Ratio_0_L_0_R_24.png","15_Ratio_0_L_0_R_4.png","2_Ratio_0_L_0_R_5.png","3_Ratio_0_L_0_R_17.png","4_Ratio_0_L_0_R_7.png","7_Ratio_0_L_0_R_19.png","9_Ratio_0_L_0_R_15.png"]],"Rat250":[["1_Ratio_250_L_8_R_2.png","14_Ratio_250_L_12_R_3.png","15_Ratio_250_L_12_R_3.png","2_Ratio_250_L_16_R_4.png","3_Ratio_250_L_8_R_2.png","5_Ratio_250_L_24_R_6.png","7_Ratio_250_L_8_R_2.png"],["10_Ratio_250_L_4_R_16.png","11_Ratio_250_L_3_R_12.png","12_Ratio_250_L_5_R_20.png","13_Ratio_250_L_2_R_8.png","4_Ratio_250_L_3_R_12.png","6_Ratio_250_L_6_R_24.png","8_Ratio_250_L_1_R_4.png","9_Ratio_250_L_3_R_12.png"]],"Rat500":[["10_Ratio_500_L_4_R_2.png","11_Ratio_500_L_12_R_6.png","13_Ratio_500_L_12_R_6.png","4_Ratio_500_L_18_R_9.png","5_Ratio_500_L_4_R_2.png","7_Ratio_500_L_10_R_5.png","8_Ratio_500_L_8_R_4.png"],["1_Ratio_500_L_9_R_18.png","12_Ratio_500_L_1_R_2.png","14_Ratio_500_L_5_R_10.png","15_Ratio_500_L_1_R_2.png","2_Ratio_500_L_3_R_6.png","3_Ratio_500_L_10_R_20.png","6_Ratio_500_L_9_R_18.png","9_Ratio_500_L_2_R_4.png"]],"Rat750":[["1_Ratio_750_L_20_R_15.png","10_Ratio_750_L_4_R_3.png","13_Ratio_750_L_8_R_6.png","14_Ratio_750_L_8_R_6.png","6_Ratio_750_L_24_R_18.png","8_Ratio_750_L_4_R_3.png","9_Ratio_750_L_4_R_3.png"],["11_Ratio_750_L_12_R_16.png","12_Ratio_750_L_3_R_4.png","15_Ratio_750_L_9_R_12.png","2_Ratio_750_L_6_R_8.png","3_Ratio_750_L_15_R_20.png","4_Ratio_750_L_15_R_20.png","5_Ratio_750_L_15_R_20.png","7_Ratio_750_L_3_R_4.png"]],"Rat900":[["1_Ratio_900_L_10_R_9.png","10_Ratio_900_L_20_R_18.png","2_Ratio_900_L_20_R_18.png","4_Ratio_900_L_20_R_18.png","8_Ratio_900_L_20_R_18.png"],["11_Ratio_900_L_18_R_20.png","12_Ratio_900_L_18_R_20.png","13_Ratio_900_L_18_R_20.png","14_Ratio_900_L_18_R_20.png","15_Ratio_900_L_9_R_10.png","3_Ratio_900_L_9_R_10.png","5_Ratio_900_L_9_R_10.png","6_Ratio_900_L_9_R_10.png","7_Ratio_900_L_9_R_10.png","9_Ratio_900_L_18_R_20.png"]],"Rat1000":[["10_Ratio_1000_L_16_R_16.png","11_Ratio_1000_L_6_R_6.png","12_Ratio_1000_L_14_R_14.png","13_Ratio_1000_L_20_R_20.png","15_Ratio_1000_L_15_R_15.png","2_Ratio_1000_L_17_R_17.png","4_Ratio_1000_L_9_R_9.png","5_Ratio_1000_L_6_R_6.png","6_Ratio_1000_L_19_R_19.png","8_Ratio_1000_L_14_R_14.png","9_Ratio_1000_L_25_R_25.png"],["1_Ratio_1000_L_1_R_1.png","14_Ratio_1000_L_17_R_17.png","3_Ratio_1000_L_17_R_17.png","7_Ratio_1000_L_6_R_6.png"]]}},{"start_time":1549382460954,"click_time":1549382464721,"finger_time":1549382463437,"fix_duration":1115.5835493792104,"trial":1,"RT":2483,"MT":1284,"sideResp":1,"stimulus":"img/750/equaldotanddens/L/13_Ratio_750_L_8_R_6.png","xmouse":[400,400,400,400,400,400,399.3330078125,399.3330078125,399.3330078125,399.3330078125,399.3330078125,399.3330078125,399.3330078125,399.3330078125,399.3330078125,399.3330078125,400,400,400,400,400,400,400,400,400,400,402.6669921875,402.6669921875,402.6669921875,402.6669921875,402.6669921875,402.6669921875,402.6669921875,402.6669921875,402.6669921875,402.6669921875,400,400,400,400,400,400,400,400,400,400,400,400,400,400,400,400,400,400,400,400,398.6669921875,398.6669921875,398.6669921875,398.6669921875,398.6669921875,398.6669921875,398.6669921875,398.6669921875,398.6669921875,394,394,392,391,391,391,391,391,391,391,391,391,391,391,391,391,391,391,391,391,391,391,391,391,391,391,391,391,391,391,391,391,391,391,391,391,391,391,391,391,391,391,391,391,391,391,391,391,391,391,391,391,391,391,391,391,391,391,391,407.3330078125,408,408,408,408,408,408,408,404,401,399.3330078125,398,396,396,396,394,394,394,392,386.6669921875,382,380,376.6669921875,373,370,368,363.3330078125,358,355.3330078125,346.6669921875,342,336,333,324.6669921875,320,290,290,290,290,256.6669921875,252.6669921875,243,236.66700744628906,228,215,206.66700744628906,206.66700744628906,206.66700744628906,206.66700744628906,206.66700744628906,206.66700744628906,206.66700744628906,206.66700744628906,206.66700744628906,206.66700744628906,206.66700744628906,122,120.6669921875,119.33300018310547,118,116,115,113,110.66699981689453,108.66699981689453],"ymouse":[801,801,801,801,801,801,800.6669921875,800.6669921875,800.6669921875,800.6669921875,800.6669921875,800.6669921875,800.6669921875,800.6669921875,800.6669921875,800.6669921875,802,802,802,802,802,802,802,802,802,802,803.3330078125,803.3330078125,803.3330078125,803.3330078125,803.3330078125,803.3330078125,803.3330078125,803.3330078125,803.3330078125,803.3330078125,802,802,802,802,802,802,802,802,802,802,802,802,802,802,802,802,802,802,802,802,799.3330078125,799.3330078125,799.3330078125,799.3330078125,799.3330078125,799.3330078125,799.3330078125,799.3330078125,799.3330078125,796,795,794,794,794,794,794,794,794,794,794,794,794,794,794,794,794,794,794,794,794,794,794,794,794,794,794,794,794,794,794,794,794,794,794,794,794,794,794,794,794,794,794,794,794,794,794,794,794,794,794,794,794,794,794,794,794,794,794,878.6669921875,877,877,877,877,877,877,877,860,854,848.6669921875,844,836,836,836,822,820,819,817,811.3330078125,805,801,794.6669921875,788,780,778,768.6669921875,760,755.3330078125,738.6669921875,726,710,702,684.6669921875,674,609,609,609,609,527.3330078125,491.3330078125,458,440.6669921875,408,374,355.3330078125,355.3330078125,355.3330078125,355.3330078125,355.3330078125,355.3330078125,355.3330078125,355.3330078125,355.3330078125,355.3330078125,355.3330078125,152,146.66700744628906,139.33299255371094,130,123,120,114,105.33300018310547,98.66699981689453],"timestamp_mouse":[3,29,44,62,82,102,122,144,162,182,202,222,243,263,283,303,323,343,363,383,403,423,442,462,483,503,522,543,563,583,603,623,642,663,683,702,723,742,763,782,803,823,843,862,882,902,923,942,963,982,1002,1023,1042,1063,1082,1103,1123,1143,1162,1183,1203,1223,1243,1262,1283,1303,1323,1342,1362,1382,1403,1422,1443,1463,1482,1503,1523,1542,1563,1582,1603,1622,1643,1663,1682,1703,1723,1742,1763,1783,1803,1822,1842,1863,1882,1902,1923,1943,1963,1983,2003,2023,2042,2063,2082,2102,2122,2142,2163,2182,2203,2223,2242,2263,2283,2303,2323,2342,2362,2382,2402,2422,2443,2462,2483,2502,2522,2543,2563,2583,2602,2622,2642,2663,2683,2702,2722,2743,2763,2783,2802,2823,2842,2864,2883,2902,2923,2943,2964,2982,3002,3022,3043,3064,3083,3103,3123,3142,3162,3182,3203,3222,3243,3262,3282,3303,3323,3342,3363,3382,3403,3423,3443,3463,3482,3503,3523,3543,3562,3582,3603,3623,3642,3665,3682,3702,3723,3752,3767],"xSR":350,"ySR":768,"xT1":30,"yT1":0,"xT2":670,"yT2":0,"toosoon":0,"cond_shown":"equaldotanddens","ratio_trial":750,"smaller_num":"6","larger_num":"8","correct_side":1,"subjID":"44wm","gender":"No_gender","age":"No_age","school":"No_school"},{"start_time":1549382467160,"click_time":1549382469437,"finger_time":1549382468556,"fix_duration":1202.7587835178517,"trial":2,"RT":1396,"MT":881,"sideResp":2,"stimulus":"img/750/equaldotsize/R/3_Ratio_750_L_15_R_20.png","xmouse":[408.6669921875,408.6669921875,405,405,405,405,405,405,405,405,405,405,410,410,410,410,410,410,410,410,410,410,410.6669921875,410.6669921875,410.6669921875,410.6669921875,410.6669921875,410.6669921875,410.6669921875,410.6669921875,410.6669921875,410.6669921875,411.3330078125,411.3330078125,411.3330078125,411.3330078125,411.3330078125,411.3330078125,411.3330078125,411.3330078125,411.3330078125,411.3330078125,411,411,411,415.3330078125,415.3330078125,416,416,416,416,416,408.6669921875,408.6669921875,405.3330078125,404.6669921875,404.6669921875,405.3330078125,405.3330078125,405.3330078125,405.3330078125,405.3330078125,414,414,414,431.3330078125,433.3330078125,436.6669921875,438,440.6669921875,441,441,441.3330078125,441.3330078125,441.3330078125,450,452,457.3330078125,461,467,470,473.3330078125,477.3330078125,479.3330078125,490.6669921875,493,500,503.3330078125,510.6669921875,521.3330078125,530.6669921875,539.3330078125,543,551.3330078125,556,570.6669921875,574.6669921875,582,585.3330078125,594.6669921875,610.6669921875,621.3330078125,628.6669921875,633.3330078125,645.3330078125,662,665.3330078125,671,677.3330078125,685.3330078125,688,700,716,724],"ymouse":[860.6669921875,860.6669921875,860,860,860,860,860,860,860,860,860,860,858,858,858,858,858,858,858,858,858,858,856.6669921875,856.6669921875,856.6669921875,856.6669921875,856.6669921875,856.6669921875,856.6669921875,856.6669921875,856.6669921875,856.6669921875,857.3330078125,857.3330078125,857.3330078125,857.3330078125,857.3330078125,857.3330078125,857.3330078125,857.3330078125,857.3330078125,857.3330078125,846,846,846,830.6669921875,829.3330078125,829,829,829,829,829,831.3330078125,831.3330078125,831.3330078125,831.3330078125,831.3330078125,831.3330078125,831.3330078125,831.3330078125,831.3330078125,831.3330078125,827,827,827,792.6669921875,787.3330078125,776.6669921875,772,764.6669921875,764,764,764.6669921875,764.6669921875,764.6669921875,751,746,733.3330078125,720,700,688,681.3330078125,669.3330078125,662.6669921875,635.3330078125,630,616,609.3330078125,594.6669921875,574.6669921875,557.3330078125,540.6669921875,532,513.3330078125,503,462.6669921875,450.6669921875,428,419.3330078125,393.3330078125,346.6669921875,321.3330078125,295.3330078125,280.6669921875,248.6669921875,206,194.66700744628906,178,162.66700744628906,144.66700744628906,136,121,101,90],"timestamp_mouse":[30,36,57,76,97,116,136,156,177,197,217,237,256,276,296,316,337,357,377,396,416,436,457,476,497,517,536,557,576,596,616,636,656,676,697,716,737,756,776,796,817,837,856,877,897,916,937,957,977,997,1016,1036,1057,1077,1098,1116,1136,1156,1177,1199,1217,1236,1257,1277,1303,1317,1337,1356,1376,1396,1417,1436,1456,1477,1496,1517,1536,1557,1576,1597,1616,1636,1656,1677,1698,1717,1737,1757,1777,1799,1816,1837,1857,1877,1897,1918,1936,1956,1976,1997,2018,2036,2056,2076,2097,2117,2136,2156,2176,2198,2216,2237,2256,2276],"xSR":350,"ySR":768,"xT1":30,"yT1":0,"xT2":670,"yT2":0,"toosoon":0,"cond_shown":"equaldotsize","ratio_trial":750,"smaller_num":"15","larger_num":"20","correct_side":2,"subjID":"44wm","gender":"No_gender","age":"No_age","school":"No_school"},{"start_time":1549382471188,"click_time":1549382472677,"finger_time":1549382472317,"fix_duration":250,"trial":3,"RT":1129,"MT":360,"sideResp":2,"stimulus":"img/900/equaldotanddens/L/8_Ratio_900_L_20_R_18.png","xmouse":[427.3330078125,427.3330078125,427.3330078125,427.3330078125,427.3330078125,427.3330078125,427.3330078125,427.3330078125,427.3330078125,427.3330078125,435.3330078125,435.3330078125,435.3330078125,435.3330078125,436,436,436,436,436,436,436,436,436,437,437,439,439,439,439,438.6669921875,438.6669921875,438.6669921875,438.6669921875,437.3330078125,437.3330078125,437.3330078125,437.3330078125,437.3330078125,437.3330078125,437.3330078125,437.3330078125,437.3330078125,437.3330078125,434,434,434,434,434,434,434,434,434,434,434.6669921875,434.6669921875,434.6669921875,482.6669921875,494,519.3330078125,559.3330078125,582,592,605.3330078125,614,616.6669921875,630.6669921875,634,648,653.3330078125,661,671,678,680,684,686.6669921875],"ymouse":[820.6669921875,820.6669921875,820.6669921875,820.6669921875,820.6669921875,820.6669921875,820.6669921875,820.6669921875,820.6669921875,820.6669921875,819.3330078125,819.3330078125,819.3330078125,818.6669921875,818,818,818,818,818,818,818,818,818,818,818,820,820,820,820,821.3330078125,821.3330078125,821.3330078125,821.3330078125,818.6669921875,818.6669921875,818.6669921875,818.6669921875,818.6669921875,818.6669921875,818.6669921875,818.6669921875,818.6669921875,818.6669921875,816,816,816,816,816,816,816,816,816,816,805.3330078125,805.3330078125,805.3330078125,697.3330078125,672,617.3330078125,519.3330078125,460,431,381.3330078125,336,320.6669921875,259.3330078125,242,208,190.66700744628906,160,134,119,112,102,94.66699981689453],"timestamp_mouse":[12,41,49,68,89,108,128,149,169,189,208,228,248,268,290,309,329,349,368,389,409,429,448,468,488,508,528,548,569,592,609,628,649,669,690,708,729,748,769,789,809,829,849,868,889,909,928,948,969,989,1010,1029,1048,1069,1088,1108,1128,1149,1169,1190,1209,1228,1248,1269,1288,1309,1328,1349,1369,1389,1409,1429,1449,1469,1489],"xSR":350,"ySR":768,"xT1":30,"yT1":0,"xT2":670,"yT2":0,"toosoon":0,"cond_shown":"equaldotanddens","ratio_trial":900,"smaller_num":"18","larger_num":"20","correct_side":1,"subjID":"44wm","gender":"No_gender","age":"No_age","school":"No_school"},{"start_time":1549382475037,"click_time":1549382477137,"finger_time":1549382476597,"fix_duration":279.6175820930783,"trial":4,"RT":1560,"MT":540,"sideResp":1,"stimulus":"img/900/randomdotsizeEA/L/1_Ratio_900_L_10_R_9.png","xmouse":[412.6669921875,412.6669921875,412.6669921875,412.6669921875,412.6669921875,412.6669921875,412.6669921875,414,414,414,414,414,414,414,414,414,414,411,411,411,411,411,411,411,418,418.6669921875,418.6669921875,418,418,418,418,418,418,418,418,418,418,418,418,418.6669921875,418.6669921875,418.6669921875,418.6669921875,418.6669921875,418.6669921875,418.6669921875,418.6669921875,418.6669921875,418.6669921875,414,414,414,414,414,414,414,414,414,408.6669921875,408,408,408,408,408,408,408,398,396.6669921875,396.6669921875,393.3330078125,393.3330078125,393.3330078125,393.3330078125,393.3330078125,383.3330078125,380,375,372,362,344.6669921875,339.3330078125,336.6669921875,324.6669921875,317,290.6669921875,284.6669921875,275.3330078125,268,259.3330078125,246,234,232,221.33299255371094,200,170.66700744628906,166,152,146,144,132,119,112.66699981689453,110,106,102.66699981689453,98.66699981689453],"ymouse":[840.6669921875,840.6669921875,840.6669921875,840.6669921875,840.6669921875,840.6669921875,840.6669921875,841,841,841,841,841,841,841,841,841,841,840,840,840,840,840,840,840,842,842.6669921875,843.3330078125,843,843,844,844,844,844,844,844,844,844,844,844,843.3330078125,843.3330078125,843.3330078125,843.3330078125,843.3330078125,843.3330078125,843.3330078125,843.3330078125,843.3330078125,843.3330078125,844,844,844,844,844,844,844,844,844,842.6669921875,842,842,842,842,842,842,842,835,835.3330078125,835.3330078125,834.6669921875,834.6669921875,834.6669921875,834.6669921875,834.6669921875,815.3330078125,806,792,780,749,691.3330078125,656.6669921875,640.6669921875,611.3330078125,598,544.6669921875,531.3330078125,505.3330078125,492,464.6669921875,418,386,370,339.3330078125,304,263.3330078125,255,240,230,226,194,166,137.33299255371094,130,114,103.33300018310547,97.33300018310547],"timestamp_mouse":[1,31,40,60,80,100,119,140,160,179,199,220,239,260,279,300,320,339,360,379,399,419,440,459,479,500,519,540,560,581,600,620,640,660,679,700,720,740,760,780,800,819,839,860,881,899,919,940,959,981,1000,1019,1039,1060,1079,1100,1119,1140,1159,1182,1199,1220,1240,1260,1280,1300,1319,1339,1359,1382,1400,1419,1439,1460,1480,1499,1520,1539,1560,1579,1600,1620,1639,1659,1680,1700,1720,1739,1760,1782,1800,1819,1840,1859,1882,1899,1919,1940,1960,1982,2000,2020,2039,2060,2082,2099],"xSR":350,"ySR":768,"xT1":30,"yT1":0,"xT2":670,"yT2":0,"toosoon":0,"cond_shown":"randomdotsizeEA","ratio_trial":900,"smaller_num":"9","larger_num":"10","correct_side":1,"subjID":"44wm","gender":"No_gender","age":"No_age","school":"No_school"},{"start_time":1549382479234,"click_time":1549382482877,"finger_time":1549382482016,"fix_duration":914.1064065542544,"trial":5,"RT":2782,"MT":861,"sideResp":1,"stimulus":"img/250/randomdotsize/L/15_Ratio_250_L_12_R_3.png","xmouse":[408,408,408,408.6669921875,408.6669921875,408.6669921875,408.6669921875,408.6669921875,408.6669921875,408.6669921875,408.6669921875,408.6669921875,408.6669921875,408,408,408,408,408,408,408,408,408,408,408,408,408,408,408,408,408,408,408,408,408,408,408,408,408,408,408,408,408,408,408.6669921875,408.6669921875,408.6669921875,408.6669921875,408.6669921875,408.6669921875,408.6669921875,408.6669921875,408.6669921875,408.6669921875,408.6669921875,408.6669921875,408.6669921875,408.6669921875,408.6669921875,408.6669921875,408.6669921875,408.6669921875,408.6669921875,408.6669921875,407,407,407,407,407,407,407,407,407,407,407.3330078125,407.3330078125,407.3330078125,407.3330078125,407.3330078125,407.3330078125,407.3330078125,407.3330078125,405.3330078125,405.3330078125,406,406,406,406,406,406,406,406,406,406,407,407,407,407,407,407,407,407,407,407,406,406,406,406,406,406,406,406,406,406,407,407,407,407,407,407,407,407,407,407,407.3330078125,407.3330078125,407.3330078125,407.3330078125,407.3330078125,407.3330078125,407.3330078125,400.6669921875,400.6669921875,400.6669921875,400.6669921875,400.6669921875,399,395.3330078125,392,389.3330078125,385.3330078125,380,373.3330078125,370.6669921875,364,359.3330078125,356,348.6669921875,343.3330078125,338,335,329,321.3330078125,316,314.6669921875,310.6669921875,309.3330078125,303.3330078125,302,300,298,297.3330078125,294.6669921875,290,286,283.3330078125,277,265.3330078125,260,257.3330078125,250,244,228.66700744628906,217.33299255371094,200.66700744628906,194,178.66700744628906,158.66700744628906,149,144.66700744628906,134.66700744628906,128,110.66699981689453,107],"ymouse":[835,835,835,837.3330078125,837.3330078125,837.3330078125,837.3330078125,837.3330078125,837.3330078125,837.3330078125,837.3330078125,837.3330078125,837.3330078125,835,835,835,835,835,835,835,835,835,835,836,836,836,836,836,836,836,836,836,836,835,835,835,835,835,835,835,835,835,835,835.3330078125,835.3330078125,835.3330078125,835.3330078125,835.3330078125,835.3330078125,835.3330078125,835.3330078125,835.3330078125,835.3330078125,829.3330078125,829.3330078125,829.3330078125,829.3330078125,829.3330078125,829.3330078125,829.3330078125,829.3330078125,829.3330078125,829.3330078125,830,830,830,830,830,830,830,830,830,830,829.3330078125,829.3330078125,829.3330078125,829.3330078125,829.3330078125,829.3330078125,829.3330078125,829.3330078125,822.6669921875,822.6669921875,820,820,820,820,820,820,820,820,820,820,822,822,822,822,822,822,822,822,822,822,824,824,824,824,824,824,824,824,824,824,824,824,824,824,824,824,824,824,824,824,824.6669921875,824.6669921875,824.6669921875,824.6669921875,824.6669921875,824.6669921875,824.6669921875,817.3330078125,814.6669921875,814.6669921875,811.3330078125,809.3330078125,804,791.3330078125,780,772.6669921875,760.6669921875,748,729.3330078125,723.3330078125,712,701.3330078125,696,678.6669921875,666.6669921875,655,650,640,626.6669921875,620,614.6669921875,603.3330078125,595.3330078125,568.6669921875,561,548,538,532.6669921875,523.3330078125,507,496,490.6669921875,476,449.3330078125,432,424.6669921875,400,385,336.6669921875,298.6669921875,258.6669921875,242,210.66700744628906,174.66700744628906,158,151.33299255371094,136.66700744628906,125,100.66699981689453,96],"timestamp_mouse":[7,36,43,62,82,103,122,142,162,183,203,222,242,263,283,302,322,343,362,382,403,423,442,463,482,503,522,543,562,583,602,623,643,662,682,704,723,743,762,782,802,822,843,863,883,903,923,943,962,983,1003,1023,1043,1062,1083,1103,1123,1142,1162,1182,1203,1223,1243,1262,1282,1303,1323,1343,1363,1382,1402,1423,1443,1462,1482,1502,1523,1542,1563,1582,1603,1623,1642,1663,1682,1703,1723,1742,1763,1783,1803,1823,1842,1863,1883,1902,1923,1942,1962,1983,2003,2023,2043,2063,2082,2102,2122,2143,2163,2183,2203,2222,2242,2262,2283,2302,2323,2343,2363,2383,2403,2423,2443,2462,2482,2502,2524,2543,2563,2582,2602,2623,2643,2663,2682,2703,2723,2742,2762,2782,2803,2822,2842,2862,2883,2902,2923,2943,2963,2982,3002,3024,3042,3063,3082,3102,3125,3142,3163,3183,3202,3223,3245,3263,3283,3303,3325,3342,3363,3382,3403,3424,3443,3462,3483,3503,3523,3542,3563,3582,3602,3624,3642],"xSR":350,"ySR":768,"xT1":30,"yT1":0,"xT2":670,"yT2":0,"toosoon":0,"cond_shown":"randomdotsize","ratio_trial":250,"smaller_num":"3","larger_num":"12","correct_side":1,"subjID":"44wm","gender":"No_gender","age":"No_age","school":"No_school"},{"start_time":1549382484230,"click_time":1549382486397,"finger_time":1549382485296,"fix_duration":250,"trial":6,"RT":1066,"MT":1101,"sideResp":1,"stimulus":"img/750/randomdotsizeEA/R/15_Ratio_750_L_9_R_12.png","xmouse":[444.6669921875,444.6669921875,436,436,435.3330078125,435.3330078125,435.3330078125,435.3330078125,435.3330078125,435.3330078125,435.3330078125,435.3330078125,437.3330078125,437.3330078125,437.3330078125,437.3330078125,432.6669921875,432,431.3330078125,432,432,432,432,434,434,434,434,434,434,434,434,434,433,433,433,433,433,433,433,433,433,433,434,434,434,434,434,434,434,434,434,434,414.6669921875,412,407.3330078125,404.6669921875,400.6669921875,396,393,392,390,386.6669921875,380,377,372,367.3330078125,364,354,342,333.3330078125,328,319.3330078125,312,297.3330078125,294.6669921875,288,280,276,261.3330078125,254,250,244,238,230,227.33299255371094,219.33299255371094,211.33299255371094,199.33299255371094,195.33299255371094,187.33299255371094,180,177.33299255371094,167.33299255371094,158,148.66700744628906,144.66700744628906,138,128.66700744628906,122.6669921875,120,113.33300018310547,111,107,100,97.33300018310547,95.33300018310547,93,91,90],"ymouse":[788.6669921875,788.6669921875,786,786,786.6669921875,786.6669921875,786.6669921875,786.6669921875,786.6669921875,786.6669921875,786.6669921875,786.6669921875,789.3330078125,789.3330078125,789.3330078125,789.3330078125,790.6669921875,790,790.6669921875,790,790,790,790,793,793,793,793,793,793,793,793,793,794,794,794,794,794,794,794,794,794,794,794,794,794,794,794,794,794,794,794,794,769.3330078125,766,762.6669921875,761.3330078125,757.3330078125,753,750,748,744,737.3330078125,724,718,708,698.6669921875,692,678,653,633.3330078125,622,603.3330078125,584,553.3330078125,546.6669921875,534,519,511,481.3330078125,462,453,440,426,412,405.3330078125,392.6669921875,380.6669921875,355.3330078125,342.6669921875,317.3330078125,298,292.6669921875,268.6669921875,254,235.33299255371094,225.33299255371094,206,182.66700744628906,171.33299255371094,165,154.66700744628906,150,142,130,121.3330078125,117.3330078125,110,102,96],"timestamp_mouse":[10,33,50,67,87,107,127,147,166,187,206,228,249,266,286,307,326,346,366,387,407,427,447,467,487,506,527,547,567,586,607,626,649,666,686,707,726,746,767,786,807,827,847,867,887,906,926,946,967,987,1006,1026,1048,1066,1087,1107,1127,1147,1167,1187,1207,1226,1247,1267,1286,1306,1326,1346,1366,1387,1407,1426,1447,1466,1486,1507,1527,1546,1566,1586,1607,1626,1647,1666,1686,1707,1726,1748,1766,1786,1806,1827,1849,1868,1887,1906,1927,1948,1967,1987,2006,2026,2046,2067,2087,2107,2127,2149,2167],"xSR":350,"ySR":768,"xT1":30,"yT1":0,"xT2":670,"yT2":0,"toosoon":0,"cond_shown":"randomdotsizeEA","ratio_trial":750,"smaller_num":"9","larger_num":"12","correct_side":2,"subjID":"44wm","gender":"No_gender","age":"No_age","school":"No_school"},{"start_time":1549382489132,"click_time":1549382490658,"finger_time":1549382490156,"fix_duration":793.3684188365332,"trial":7,"RT":1024,"MT":502,"sideResp":2,"stimulus":"img/900/randomdotsize/R/9_Ratio_900_L_18_R_20.png","xmouse":[420.6669921875,420.6669921875,420.6669921875,420.6669921875,420.6669921875,420.6669921875,422,422,422,422,422,422,422,422,422,422,422,422,422,422,422,422,422,422,422,422,422,422,422,422,418.6669921875,418.6669921875,418.6669921875,418.6669921875,412,412,412,412,412,412,414,414,414,414,414,414,414,410,410,410,432,444,448,454.6669921875,463.3330078125,468,479,492,498,512,520,526,529.3330078125,535.3330078125,549.3330078125,560.6669921875,566.6669921875,578.6669921875,590,596.6669921875,613,626,638,644.6669921875,665.3330078125,673.3330078125,679.3330078125],"ymouse":[834.6669921875,834.6669921875,834.6669921875,834.6669921875,834.6669921875,834.6669921875,836,836,836,836,837,837,837,837,837,837,837,837,837,837,838,838,838,838,838,838,838,838,838,838,835.3330078125,835.3330078125,835.3330078125,835.3330078125,830,828,828,828,828,828,824,824,824,824,824,824,824,822,822,822,795,765,750,723.3330078125,680.6669921875,664,628,587,567,517,486,456,441.3330078125,412.6669921875,371.3330078125,346.6669921875,335.3330078125,313.3330078125,291,278.6669921875,240,211,182,168.66700744628906,130.66700744628906,112.6669921875,99.33300018310547],"timestamp_mouse":[9,34,44,64,85,105,125,145,165,184,205,224,245,265,284,305,324,345,364,385,404,424,445,465,485,505,524,544,564,585,605,625,645,665,684,704,724,744,765,785,804,825,844,865,885,905,924,945,965,987,1005,1024,1044,1064,1084,1105,1124,1145,1165,1185,1205,1225,1244,1264,1285,1304,1325,1344,1364,1385,1405,1424,1444,1464,1487,1505,1526],"xSR":350,"ySR":768,"xT1":30,"yT1":0,"xT2":670,"yT2":0,"toosoon":0,"cond_shown":"randomdotsize","ratio_trial":900,"smaller_num":"18","larger_num":"20","correct_side":2,"subjID":"44wm","gender":"No_gender","age":"No_age","school":"No_school"},{"start_time":1549382492730,"click_time":1549382494377,"finger_time":1549382493856,"fix_duration":1010.418482614725,"trial":8,"RT":1126,"MT":521,"sideResp":2,"stimulus":"img/500/randomdotsizeEA/R/2_Ratio_500_L_3_R_6.png","xmouse":[408,408,408,408,408,403.3330078125,403.3330078125,403.3330078125,403.3330078125,403.3330078125,403.3330078125,404.6669921875,404.6669921875,404.6669921875,404.6669921875,404.6669921875,404.6669921875,404.6669921875,404.6669921875,404.6669921875,404.6669921875,402,402,402,402,401.3330078125,400,400,400,400,400,400,400,400,400,400,399.3330078125,399,399,399,399,399,399.3330078125,400,400,400,399.3330078125,399.3330078125,400,400,400.6669921875,400.6669921875,400.6669921875,400.6669921875,400.6669921875,416,419.3330078125,421,423.3330078125,424,426.6669921875,428,438.6669921875,455,462,491,496,508.6669921875,515.3330078125,528,551.3330078125,571.3330078125,582,596.6669921875,603.3330078125,618,624.6669921875,647.3330078125,681,699.3330078125,720,736,742],"ymouse":[828,828,828,828,828,826.6669921875,826.6669921875,826.6669921875,826.6669921875,826.6669921875,826.6669921875,826.6669921875,826.6669921875,826.6669921875,826.6669921875,826.6669921875,826.6669921875,826.6669921875,826.6669921875,826.6669921875,826.6669921875,824,824,824,823,822.6669921875,822,822,822,822,822,822,822,822,822,822,822.6669921875,822,822,822,822,820,819.3330078125,818,818,817,817.3330078125,816.6669921875,816,816,811.3330078125,811.3330078125,811.3330078125,811.3330078125,811.3330078125,772,765.3330078125,764,762.6669921875,762,763.3330078125,760,741.3330078125,710,694,634,618,583.3330078125,564.6669921875,526,472.6669921875,425.3330078125,403,366.6669921875,340.6669921875,300,284.6669921875,243.3330078125,184,162.66700744628906,132,107,98],"timestamp_mouse":[14,41,47,67,86,107,126,146,166,187,206,226,247,266,287,306,327,347,367,388,407,427,446,466,487,507,526,546,567,587,607,626,647,666,687,707,726,746,767,787,806,826,846,867,887,907,926,947,967,987,1007,1027,1047,1067,1087,1107,1126,1146,1166,1187,1210,1227,1246,1267,1287,1309,1327,1347,1367,1387,1407,1427,1447,1466,1487,1508,1526,1546,1566,1587,1607,1628,1646],"xSR":350,"ySR":768,"xT1":30,"yT1":0,"xT2":670,"yT2":0,"toosoon":0,"cond_shown":"randomdotsizeEA","ratio_trial":500,"smaller_num":"3","larger_num":"6","correct_side":2,"subjID":"44wm","gender":"No_gender","age":"No_age","school":"No_school"},{"start_time":1549382502373,"click_time":1549382504418,"finger_time":1549382503957,"fix_duration":695.5168696682383,"trial":9,"RT":1584,"MT":461,"sideResp":2,"stimulus":"img/900/equaldotanddens/R/9_Ratio_900_L_18_R_20.png","xmouse":[400,400,400,400,400,400,400,400,400,400,400,400,400,400,400,400,400,401.3330078125,401.3330078125,401.3330078125,401.3330078125,401.3330078125,401.3330078125,401.3330078125,401.3330078125,401.3330078125,401.3330078125,403.3330078125,403.3330078125,403.3330078125,403.3330078125,403.3330078125,403.3330078125,403.3330078125,403.3330078125,403.3330078125,403.3330078125,403.3330078125,403.3330078125,403.3330078125,403.3330078125,403.3330078125,403.3330078125,400.6669921875,400.6669921875,400.6669921875,400.6669921875,400.6669921875,400.6669921875,400.6669921875,400.6669921875,400.6669921875,400.6669921875,400.6669921875,400.6669921875,400.6669921875,400.6669921875,400.6669921875,400.6669921875,400.6669921875,400.6669921875,400.6669921875,400.6669921875,400.6669921875,400.6669921875,400.6669921875,400.6669921875,400.6669921875,400.6669921875,400.6669921875,400.6669921875,400.6669921875,400.6669921875,400.6669921875,400.6669921875,400.6669921875,400.6669921875,449.3330078125,449.3330078125,460,466,480,502,516,522.6669921875,535.3330078125,545,560,568,573,581.3330078125,583,597,602,609,614,623.3330078125,636,648.6669921875,655,670.6669921875,684.6669921875,699.3330078125],"ymouse":[818,818,818,818,818,818,818,818,818,818,818,818,818,818,818,818,818,819.3330078125,819.3330078125,819.3330078125,819.3330078125,819.3330078125,819.3330078125,819.3330078125,819.3330078125,819.3330078125,819.3330078125,820.6669921875,820.6669921875,820.6669921875,820.6669921875,820.6669921875,820.6669921875,820.6669921875,820.6669921875,820.6669921875,820.6669921875,820.6669921875,820.6669921875,820.6669921875,820.6669921875,820.6669921875,820.6669921875,819.3330078125,819.3330078125,819.3330078125,819.3330078125,819.3330078125,819.3330078125,819.3330078125,819.3330078125,819.3330078125,819.3330078125,819.3330078125,819.3330078125,819.3330078125,819.3330078125,819.3330078125,819.3330078125,819.3330078125,819.3330078125,819.3330078125,819.3330078125,819.3330078125,819.3330078125,819.3330078125,819.3330078125,819.3330078125,819.3330078125,819.3330078125,819.3330078125,819.3330078125,819.3330078125,819.3330078125,819.3330078125,819.3330078125,819.3330078125,769.3330078125,769.3330078125,742,729,695,644,610,593.3330078125,560.6669921875,528,486,462,448,423.3330078125,416,366,352,324,310,276.6669921875,227,193.33299255371094,174,142.66700744628906,118.6669921875,91.33300018310547],"timestamp_mouse":[3,43,43,63,83,104,123,144,163,183,204,224,243,264,283,304,325,344,363,383,404,423,443,463,483,503,523,543,564,584,604,624,643,664,683,703,724,744,763,784,804,824,843,864,883,904,923,943,963,983,1003,1023,1043,1063,1083,1103,1124,1143,1164,1184,1204,1224,1243,1263,1284,1304,1324,1343,1363,1384,1403,1423,1444,1464,1483,1504,1524,1544,1563,1584,1604,1624,1643,1664,1683,1704,1724,1743,1763,1784,1803,1824,1844,1864,1883,1903,1924,1945,1964,1984,2003,2024,2045],"xSR":350,"ySR":768,"xT1":30,"yT1":0,"xT2":670,"yT2":0,"toosoon":0,"cond_shown":"equaldotanddens","ratio_trial":900,"smaller_num":"18","larger_num":"20","correct_side":2,"subjID":"44wm","gender":"No_gender","age":"No_age","school":"No_school"},{"start_time":1549382509874,"click_time":1549382511476,"finger_time":1549382511158,"fix_duration":676.1435124239531,"trial":10,"RT":1284,"MT":318,"sideResp":2,"stimulus":"img/500/randomdotsizeEA/R/3_Ratio_500_L_10_R_20.png","xmouse":[412.6669921875,412,412,412,412,412,412,412,408.6669921875,408,408,408,408,408,408,408,408,408,408,406,406,406,406,406,406,406,406,406,406,406.6669921875,406.6669921875,406.6669921875,406.6669921875,406.6669921875,406.6669921875,406.6669921875,406.6669921875,406.6669921875,406.6669921875,408.6669921875,408.6669921875,408.6669921875,408.6669921875,408.6669921875,408.6669921875,408.6669921875,408.6669921875,408.6669921875,408.6669921875,408,408,408,408,408,403,403,403,402,402,402,402,402,402,402,454,478.6669921875,489.3330078125,510,530,562.6669921875,582,592,607.3330078125,614.6669921875,644.6669921875,652,664,670,684,694,710.6669921875],"ymouse":[834.6669921875,833,833,833,833,833,833,833,829.3330078125,829,829,829,829,829,829,829,829,829,829,828,828,828,828,828,828,828,828,828,828,831.3330078125,831.3330078125,831.3330078125,831.3330078125,831.3330078125,831.3330078125,831.3330078125,831.3330078125,831.3330078125,831.3330078125,834.6669921875,834.6669921875,834.6669921875,834.6669921875,834.6669921875,834.6669921875,834.6669921875,834.6669921875,834.6669921875,834.6669921875,834,834,834,834,834,832,832,832,830,830,830,830,830,830,830,738,687.3330078125,663.3330078125,615,566,486.6669921875,438,413,364.6669921875,340.6669921875,261.3330078125,245,213,198,164,132,90.66699981689453],"timestamp_mouse":[2,35,42,62,82,103,122,142,163,182,202,223,243,262,283,302,322,342,363,382,402,423,443,463,483,502,523,542,563,582,603,623,642,665,683,703,722,742,763,782,802,823,843,863,882,902,923,942,963,984,1003,1022,1042,1063,1085,1102,1123,1143,1163,1182,1202,1223,1243,1263,1284,1303,1322,1342,1363,1384,1403,1422,1442,1462,1484,1502,1523,1543,1563,1582,1602],"xSR":350,"ySR":768,"xT1":30,"yT1":0,"xT2":670,"yT2":0,"toosoon":0,"cond_shown":"randomdotsizeEA","ratio_trial":500,"smaller_num":"10","larger_num":"20","correct_side":2,"subjID":"44wm","gender":"No_gender","age":"No_age","school":"No_school"},{"start_time":1549382515332,"click_time":1549382517837,"finger_time":1549382516957,"fix_duration":1193.1672941588138,"trial":11,"RT":1625,"MT":880,"sideResp":1,"stimulus":"img/500/equaldotanddens/L/13_Ratio_500_L_12_R_6.png","xmouse":[406.6669921875,406.6669921875,406.6669921875,406.6669921875,406.6669921875,406.6669921875,406.6669921875,406.6669921875,406.6669921875,406.6669921875,406.6669921875,406.6669921875,406.6669921875,406.6669921875,406.6669921875,406.6669921875,406.6669921875,406.6669921875,406.6669921875,406.6669921875,406.6669921875,406.6669921875,406.6669921875,406.6669921875,406.6669921875,406.6669921875,406.6669921875,406.6669921875,406.6669921875,406.6669921875,406.6669921875,406.6669921875,406.6669921875,406.6669921875,406.6669921875,406.6669921875,406.6669921875,406.6669921875,406.6669921875,406.6669921875,406.6669921875,406.6669921875,406.6669921875,406.6669921875,406.6669921875,406.6669921875,406.6669921875,406.6669921875,406.6669921875,406.6669921875,404.6669921875,406,406,410,410.6669921875,411.3330078125,412,413,414,414,414.6669921875,414.6669921875,414.6669921875,414,414,414,414,414,414,414,414,414,414,414,414,402,400.6669921875,396.6669921875,396,395,394.6669921875,394.6669921875,395.3330078125,395.3330078125,394.6669921875,394.6669921875,392.6669921875,390.6669921875,390,389.3330078125,388,387.3330078125,384,382.6669921875,380.6669921875,378.6669921875,377.3330078125,372.6669921875,369,364,360,348,341,315,310.6669921875,295.3330078125,282.6669921875,276,254,236,228,212.66700744628906,196.66700744628906,170,165.33299255371094,150,142.66700744628906,136,124.6669921875,120,115.33300018310547,114.66699981689453,111.33300018310547,106.66699981689453,102.66699981689453],"ymouse":[845.3330078125,845.3330078125,845.3330078125,845.3330078125,845.3330078125,845.3330078125,845.3330078125,845.3330078125,845.3330078125,845.3330078125,845.3330078125,845.3330078125,845.3330078125,845.3330078125,845.3330078125,845.3330078125,845.3330078125,845.3330078125,845.3330078125,845.3330078125,845.3330078125,845.3330078125,845.3330078125,845.3330078125,845.3330078125,845.3330078125,845.3330078125,845.3330078125,845.3330078125,845.3330078125,845.3330078125,845.3330078125,845.3330078125,845.3330078125,845.3330078125,845.3330078125,845.3330078125,845.3330078125,845.3330078125,845.3330078125,845.3330078125,845.3330078125,845.3330078125,845.3330078125,845.3330078125,845.3330078125,845.3330078125,845.3330078125,845.3330078125,845.3330078125,792.6669921875,793,793,796,797.3330078125,797.3330078125,798,798,798,798,797.3330078125,797.3330078125,797.3330078125,798,798,798,798,797,797,797,797,797,797,797,797,781,779.3330078125,773.3330078125,772,770,767.3330078125,767.3330078125,765.3330078125,762.6669921875,761.3330078125,761.3330078125,759.3330078125,756.6669921875,754,753.3330078125,751,749.3330078125,739,735.3330078125,727.3330078125,716.6669921875,711.3330078125,692.6669921875,680,664,654,628,612,556,543.3330078125,514.6669921875,485.3330078125,470,423,392,374,339.3330078125,304.6669921875,252,239.33299255371094,212,191.33299255371094,178,150.66700744628906,135,124.6669921875,121.3330078125,112.6669921875,100.66699981689453,93.33300018310547],"timestamp_mouse":[5,46,65,85,104,125,145,165,185,204,225,245,264,285,304,324,344,364,385,405,425,445,465,485,505,525,545,565,585,604,625,645,664,684,704,724,745,765,784,805,824,844,864,885,905,925,944,965,985,1004,1024,1044,1064,1084,1104,1125,1145,1164,1184,1204,1224,1244,1264,1284,1304,1325,1345,1365,1385,1404,1424,1445,1464,1484,1505,1525,1545,1564,1585,1604,1625,1644,1665,1685,1705,1725,1745,1767,1784,1804,1824,1845,1865,1884,1904,1925,1945,1966,1984,2005,2025,2044,2064,2086,2104,2124,2144,2165,2186,2204,2225,2245,2264,2284,2305,2324,2344,2365,2386,2405,2425,2445,2464,2484,2505],"xSR":350,"ySR":768,"xT1":30,"yT1":0,"xT2":670,"yT2":0,"toosoon":0,"cond_shown":"equaldotanddens","ratio_trial":500,"smaller_num":"6","larger_num":"12","correct_side":1,"subjID":"44wm","gender":"No_gender","age":"No_age","school":"No_school"},{"start_time":1549382519206,"click_time":1549382520937,"finger_time":1549382520276,"fix_duration":405.2313956732432,"trial":12,"RT":1070,"MT":661,"sideResp":1,"stimulus":"img/250/randomdotsize/L/7_Ratio_250_L_8_R_2.png","xmouse":[409,409,409,409,409,409,409,409,404,404,404,404,404,404,404,404,404,404,404.6669921875,404.6669921875,404.6669921875,404.6669921875,404.6669921875,404.6669921875,404.6669921875,404.6669921875,404.6669921875,404.6669921875,405.3330078125,405.3330078125,405.3330078125,405.3330078125,405.3330078125,405.3330078125,405.3330078125,405.3330078125,405.3330078125,405.3330078125,398.6669921875,398.6669921875,392,390.6669921875,387,386,384,382.6669921875,382,382,382.6669921875,383.3330078125,383.3330078125,383.3330078125,382,382,377,375.3330078125,374,372.6669921875,372,370,366,364,362,353.3330078125,343,335.3330078125,315.3330078125,315.3330078125,308,303,283,269,255.3330078125,250,232.66700744628906,209.33299255371094,198,194,180,170.66700744628906,146,140,128.66700744628906,121.3330078125,114,105],"ymouse":[824,824,824,824,824,824,824,824,818,818,818,818,818,818,818,818,818,818,821.3330078125,821.3330078125,821.3330078125,821.3330078125,821.3330078125,821.3330078125,821.3330078125,821.3330078125,821.3330078125,821.3330078125,821.3330078125,821.3330078125,821.3330078125,821.3330078125,821.3330078125,821.3330078125,821.3330078125,821.3330078125,821.3330078125,821.3330078125,814.6669921875,814.6669921875,805,803.3330078125,800,798,795,792.6669921875,790,790,787.3330078125,781.3330078125,781.3330078125,781.3330078125,767,767,754,749.3330078125,747,742.6669921875,740,734,716,696,683,647.3330078125,606,578.6669921875,530.6669921875,530.6669921875,510,500,460,434,407.3330078125,395,368.6669921875,333.3330078125,310,296,270,242.6669921875,196,182,154.66700744628906,140.66700744628906,113,82],"timestamp_mouse":[31,50,70,90,112,131,150,170,190,211,231,250,270,291,311,330,350,370,390,412,430,450,471,490,510,531,551,571,590,611,630,650,671,690,710,731,750,770,790,811,833,850,870,891,911,930,950,971,991,1011,1031,1050,1070,1091,1112,1131,1151,1171,1190,1211,1231,1251,1271,1291,1313,1331,1367,1371,1390,1411,1431,1450,1471,1491,1511,1531,1551,1570,1591,1611,1630,1650,1671,1690,1711,1731],"xSR":350,"ySR":768,"xT1":30,"yT1":0,"xT2":670,"yT2":0,"toosoon":0,"cond_shown":"randomdotsize","ratio_trial":250,"smaller_num":"2","larger_num":"8","correct_side":1,"subjID":"44wm","gender":"No_gender","age":"No_age","school":"No_school"},{"start_time":1549382522935,"click_time":1549382525036,"finger_time":1549382524557,"fix_duration":577.7560612294743,"trial":13,"RT":1622,"MT":479,"sideResp":1,"stimulus":"img/250/randomdotsizeEA/L/3_Ratio_250_L_8_R_2.png","xmouse":[417.3330078125,417.3330078125,417.3330078125,416.6669921875,416.6669921875,416.6669921875,416.6669921875,416.6669921875,416.6669921875,416.6669921875,416.6669921875,416.6669921875,416.6669921875,416.6669921875,416.6669921875,416.6669921875,416.6669921875,416.6669921875,416.6669921875,416.6669921875,416.6669921875,416.6669921875,416.6669921875,415.3330078125,415.3330078125,415.3330078125,415.3330078125,415.3330078125,415.3330078125,415.3330078125,415.3330078125,415.3330078125,415.3330078125,417.3330078125,417.3330078125,417.3330078125,417.3330078125,417.3330078125,417.3330078125,417.3330078125,417.3330078125,417.3330078125,417.3330078125,416,416,416,416,416,416,416,416,416,416,416,416,416,416,416,416,416,416,416,416,413.3330078125,413.3330078125,413.3330078125,413.3330078125,413.3330078125,413.3330078125,413.3330078125,413.3330078125,413.3330078125,400,397.3330078125,395.3330078125,390,382.6669921875,379,378,375.3330078125,372,358.6669921875,352,338,324.6669921875,317,282,274.6669921875,260.6669921875,256.6669921875,244,228.66700744628906,208,201,192,186,175.33299255371094,171.33299255371094,157.33299255371094,146,142,129.33299255371094,120,114,111,105],"ymouse":[839.3330078125,839.3330078125,839.3330078125,839.3330078125,839.3330078125,839.3330078125,839.3330078125,839.3330078125,839.3330078125,839.3330078125,839.3330078125,839.3330078125,839.3330078125,837.3330078125,837.3330078125,837.3330078125,837.3330078125,837.3330078125,837.3330078125,837.3330078125,837.3330078125,837.3330078125,837.3330078125,837.3330078125,837.3330078125,837.3330078125,837.3330078125,837.3330078125,837.3330078125,837.3330078125,837.3330078125,837.3330078125,837.3330078125,839.3330078125,839.3330078125,839.3330078125,839.3330078125,839.3330078125,839.3330078125,839.3330078125,839.3330078125,839.3330078125,839.3330078125,838,838,838,838,838,838,838,838,838,838,828,828,828,828,828,828,828,828,828,828,831.3330078125,831.3330078125,831.3330078125,831.3330078125,831.3330078125,831.3330078125,831.3330078125,831.3330078125,831.3330078125,816,811.3330078125,808.6669921875,802,792.6669921875,788,786,781.3330078125,772,736.6669921875,716,682,655.3330078125,642,578,564.6669921875,542.6669921875,532.6669921875,512,474.6669921875,422,400,348,324,284.6669921875,273.3330078125,247.3330078125,224,210,173.33299255371094,149,124,114,94],"timestamp_mouse":[5,34,42,62,81,102,122,141,161,182,202,222,241,261,281,303,321,342,361,381,401,422,442,462,482,502,521,541,561,581,602,622,642,661,681,702,721,741,761,782,801,822,842,861,882,902,922,941,962,982,1002,1023,1042,1061,1082,1102,1121,1142,1161,1182,1202,1223,1242,1262,1281,1301,1322,1342,1362,1382,1401,1421,1441,1461,1482,1501,1522,1541,1561,1582,1602,1622,1642,1662,1682,1701,1724,1742,1761,1782,1801,1824,1842,1861,1881,1901,1924,1941,1962,1982,2002,2024,2042,2061,2082,2101],"xSR":350,"ySR":768,"xT1":30,"yT1":0,"xT2":670,"yT2":0,"toosoon":0,"cond_shown":"randomdotsizeEA","ratio_trial":250,"smaller_num":"2","larger_num":"8","correct_side":1,"subjID":"44wm","gender":"No_gender","age":"No_age","school":"No_school"},{"start_time":1549382526288,"click_time":1549382528317,"finger_time":1549382527937,"fix_duration":250,"trial":14,"RT":1649,"MT":380,"sideResp":2,"stimulus":"img/500/randomdotsize/L/8_Ratio_500_L_8_R_4.png","xmouse":[407,407,408.6669921875,408.6669921875,408.6669921875,408.6669921875,408.6669921875,408.6669921875,408.6669921875,408.6669921875,408.6669921875,408.6669921875,408,408,408,408,408,408,408,408,408,410,410,410,409,409,409,409,409,409,409,409,409,409,407.3330078125,407.3330078125,407.3330078125,407.3330078125,407.3330078125,407.3330078125,407.3330078125,407.3330078125,407.3330078125,407.3330078125,408,408,408,408,408,408,408,408,408,408,407.3330078125,407.3330078125,407.3330078125,407.3330078125,407.3330078125,407.3330078125,407.3330078125,407.3330078125,407.3330078125,407.3330078125,407.3330078125,407.3330078125,407.3330078125,407.3330078125,407.3330078125,407.3330078125,407.3330078125,407.3330078125,407.3330078125,407.3330078125,401.3330078125,401.3330078125,396,395.3330078125,395.3330078125,395,395,395,422,428,449.3330078125,470,495.3330078125,507.3330078125,532.6669921875,572,596.6669921875,608,628.6669921875,636,667.3330078125,676.6669921875,690,702,705.3330078125,709,714.6669921875,716.6669921875],"ymouse":[842,842,835.3330078125,835.3330078125,835.3330078125,835.3330078125,835.3330078125,835.3330078125,835.3330078125,835.3330078125,835.3330078125,835.3330078125,837,837,837,837,837,837,837,837,837,838,838,838,838,838,838,838,838,838,838,838,838,838,835.3330078125,835.3330078125,835.3330078125,835.3330078125,835.3330078125,835.3330078125,835.3330078125,835.3330078125,835.3330078125,835.3330078125,836,836,836,836,836,836,836,836,836,836,837.3330078125,837.3330078125,837.3330078125,837.3330078125,837.3330078125,837.3330078125,837.3330078125,837.3330078125,837.3330078125,837.3330078125,836.6669921875,836.6669921875,836.6669921875,836.6669921875,836.6669921875,836.6669921875,836.6669921875,836.6669921875,836.6669921875,836.6669921875,827.3330078125,827.3330078125,822,820.6669921875,819.3330078125,818,818,818,740,722,667.3330078125,624,575.3330078125,551.3330078125,506.6669921875,434,388.6669921875,364,322.6669921875,304,226.66700744628906,206.66700744628906,173,148,140.66700744628906,126,108.66699981689453,99.33300018310547],"timestamp_mouse":[9,37,48,68,89,108,129,149,168,189,209,228,248,269,289,308,328,348,368,389,409,429,449,469,488,508,529,548,569,589,609,629,648,669,688,709,729,749,768,788,809,828,848,868,888,909,929,949,968,988,1009,1028,1049,1069,1089,1109,1129,1149,1168,1189,1208,1228,1248,1268,1288,1308,1329,1348,1368,1391,1409,1429,1449,1469,1490,1509,1528,1548,1569,1589,1608,1628,1649,1669,1690,1708,1729,1748,1768,1789,1809,1829,1849,1868,1890,1909,1929,1948,1969,1988,2009,2028],"xSR":350,"ySR":768,"xT1":30,"yT1":0,"xT2":670,"yT2":0,"toosoon":0,"cond_shown":"randomdotsize","ratio_trial":500,"smaller_num":"4","larger_num":"8","correct_side":1,"subjID":"44wm","gender":"No_gender","age":"No_age","school":"No_school"},{"start_time":1549382533819,"click_time":1549382535337,"finger_time":1549382534957,"fix_duration":955.6113499053603,"trial":15,"RT":1138,"MT":380,"sideResp":1,"stimulus":"img/500/randomdotsize/L/7_Ratio_500_L_10_R_5.png","xmouse":[438.6669921875,438.6669921875,438.6669921875,438.6669921875,438.6669921875,438.6669921875,438.6669921875,438.6669921875,438.6669921875,438.6669921875,438,438,438,438,438,438,438,438,438,438,438,438,438,438,438,436,436,436,436,436,436,436,436,436,436,430,429.3330078125,428.6669921875,427.3330078125,426.6669921875,426,426,425.3330078125,424.6669921875,424,422.6669921875,422,422,420,418.6669921875,417,413.3330078125,411.3330078125,410.6669921875,410,408.6669921875,402.6669921875,388,379.3330078125,363.3330078125,344,324,316,303,292,280,258,249.3330078125,240,224,201.33299255371094,172,160,152,142,135.33299255371094,118],"ymouse":[842.6669921875,842.6669921875,842.6669921875,842.6669921875,842.6669921875,842.6669921875,842.6669921875,842.6669921875,842.6669921875,842.6669921875,842,842,842,842,842,841,841,841,841,841,841,841,841,841,841,840,840,840,840,840,840,840,840,840,840,834,833.3330078125,833.3330078125,832.6669921875,832.6669921875,832,831,830.6669921875,830.6669921875,830,828.6669921875,826,826,824,823.3330078125,822,818.6669921875,815.3330078125,811.3330078125,809,803.3330078125,784.6669921875,752,731.3330078125,690.6669921875,648,580,555,512,490,450,390,353.3330078125,336,301,264.6669921875,209,178,164,134,120.6669921875,90],"timestamp_mouse":[9,26,46,57,77,97,118,138,158,177,197,218,237,258,278,297,317,338,357,378,398,418,438,458,477,498,518,538,558,578,598,617,637,657,678,697,718,737,757,777,799,818,837,857,878,900,918,938,958,977,997,1018,1037,1057,1077,1098,1117,1138,1157,1178,1198,1219,1238,1257,1278,1297,1319,1338,1357,1378,1398,1418,1437,1458,1478,1497,1517],"xSR":350,"ySR":768,"xT1":30,"yT1":0,"xT2":670,"yT2":0,"toosoon":0,"cond_shown":"randomdotsize","ratio_trial":500,"smaller_num":"5","larger_num":"10","correct_side":1,"subjID":"44wm","gender":"No_gender","age":"No_age","school":"No_school"},{"start_time":1549382537306,"click_time":1549382540237,"finger_time":1549382538777,"fix_duration":765.6819209716535,"trial":16,"RT":1471,"MT":1460,"sideResp":2,"stimulus":"img/750/equaldotsize/R/11_Ratio_750_L_12_R_16.png","xmouse":[421.3330078125,421.3330078125,420,420.6669921875,420.6669921875,420.6669921875,420.6669921875,420.6669921875,420.6669921875,420.6669921875,420,420,420,420,420,420,420,420,420,420,420.6669921875,420.6669921875,420.6669921875,420.6669921875,420.6669921875,420.6669921875,420.6669921875,420.6669921875,420.6669921875,420.6669921875,421,421,421,421,421,421,421,421,421,421,420,420,420,420,418.6669921875,418.6669921875,418.6669921875,417.3330078125,416.6669921875,416.6669921875,416.6669921875,417,418,418,418,418,418,418,418,418,418,418,418,418,418,410.6669921875,408,406,406,407.3330078125,407.3330078125,407.3330078125,407.3330078125,436,450,456,472,495.3330078125,513,520.6669921875,534,546,563,576,588,598,602,610,616,618.6669921875,619,621.3330078125,621,621,620,620,620,620,620,620,620,605,595.3330078125,572.6669921875,566,563.3330078125,556.6669921875,542,528,521.3330078125,510.6669921875,499,487.3330078125,482.6669921875,468,452,442.6669921875,428.6669921875,414.6669921875,409.3330078125,408.6669921875,407,407,408,408,408,408,408,408,408,408,408,408,412,412,412,412,474,517,545,590.6669921875,614.6669921875,651,688,708,714.6669921875,723],"ymouse":[823.3330078125,822.6669921875,822,822.6669921875,822.6669921875,822.6669921875,822.6669921875,822.6669921875,822.6669921875,822.6669921875,824,824,824,824,824,824,824,824,824,824,825.3330078125,825.3330078125,825.3330078125,825.3330078125,825.3330078125,825.3330078125,825.3330078125,825.3330078125,825.3330078125,825.3330078125,826,826,826,826,826,826,826,826,826,826,824,824,824,824,823.3330078125,823.3330078125,823.3330078125,823.3330078125,823.3330078125,823.3330078125,823.3330078125,824,824,824,824,824,824,824,824,824,824,824,822,822,822,815.3330078125,810,802,800,795.3330078125,795.3330078125,795.3330078125,795.3330078125,726,688,670,632,571.3330078125,530,509.3330078125,474,440,410,380,351,326,315,292,280,272.6669921875,270,266.6669921875,264,264,264,264,264,264,264,264,264,294,321.3330078125,369.3330078125,380,383.3330078125,392.6669921875,424,461,478.6669921875,512.6669921875,538,561.3330078125,572.6669921875,602,642,664.6669921875,706.6669921875,759.3330078125,780.6669921875,787.3330078125,796,806,812,812,812,812,812,812,812,812,812,812,812,812,812,812,654,566,516,409.3330078125,362.6669921875,276,182,131,108.66699981689453,78],"timestamp_mouse":[11,34,50,71,90,111,130,150,170,191,211,231,250,271,290,311,330,350,371,390,410,431,451,471,490,510,531,550,570,590,610,632,651,670,690,711,730,750,770,791,810,830,851,870,890,910,930,950,971,991,1011,1030,1051,1071,1090,1111,1130,1152,1171,1190,1211,1230,1254,1270,1290,1311,1330,1350,1370,1390,1411,1431,1451,1471,1492,1511,1531,1550,1571,1590,1611,1630,1650,1671,1691,1710,1730,1751,1771,1791,1810,1831,1854,1870,1891,1911,1930,1951,1970,1991,2010,2030,2050,2070,2090,2111,2130,2151,2170,2190,2211,2230,2252,2271,2291,2310,2331,2352,2371,2391,2410,2430,2455,2471,2490,2511,2531,2551,2570,2591,2611,2631,2651,2670,2690,2711,2730,2753,2770,2791,2810,2831,2851,2871,2891,2911,2930],"xSR":350,"ySR":768,"xT1":30,"yT1":0,"xT2":670,"yT2":0,"toosoon":0,"cond_shown":"equaldotsize","ratio_trial":750,"smaller_num":"12","larger_num":"16","correct_side":2,"subjID":"44wm","gender":"No_gender","age":"No_age","school":"No_school"},{"start_time":1549382541982,"click_time":1549382543637,"finger_time":1549382543216,"fix_duration":698.9067960591221,"trial":17,"RT":1234,"MT":421,"sideResp":1,"stimulus":"img/500/equaldotanddens/L/13_Ratio_500_L_12_R_6.png","xmouse":[422,428.6669921875,428,428,428,428,428,428,428,428,428,428,424,424,424,424,424,424,424,424,420.6669921875,420.6669921875,420,420,420,420,420,420,420,420,420,420,421.3330078125,421.3330078125,421.3330078125,421.3330078125,421.3330078125,421.3330078125,421.3330078125,421.3330078125,421.3330078125,421.3330078125,420,420,420,420,420,420,420,420,420,420,418,418,418,418,411.3330078125,410,410,408,402,395.3330078125,390,374.6669921875,364.6669921875,345.3330078125,319.3330078125,300,276,264,244,215.33299255371094,198.66700744628906,190,174,166,139.33299255371094,134,118.66699981689453,110,106,91.33300018310547,87.33300018310547,85],"ymouse":[838,846.6669921875,846,846,846,846,846,846,846,846,846,846,844,844,844,844,844,844,844,844,839.3330078125,839.3330078125,839,840,840,840,840,840,840,840,840,840,844.6669921875,844.6669921875,844.6669921875,844.6669921875,844.6669921875,844.6669921875,844.6669921875,844.6669921875,844.6669921875,844.6669921875,844,844,844,844,844,844,844,844,844,844,840,840,840,840,831.3330078125,826,823,812,791,775.3330078125,766,739.3330078125,723.3330078125,686.6669921875,626.6669921875,586,546,528,492,440.6669921875,406.6669921875,389,355,338,270.6669921875,254,220.66700744628906,192,178,136.66700744628906,113.3330078125,94],"timestamp_mouse":[1,29,35,55,75,95,114,134,155,175,194,215,235,254,274,294,314,334,355,375,394,415,435,454,475,496,515,534,554,575,594,621,635,654,675,694,714,735,754,774,795,814,835,854,875,894,915,935,954,974,995,1015,1035,1054,1075,1095,1115,1135,1154,1175,1197,1214,1234,1255,1275,1294,1314,1334,1354,1375,1395,1416,1434,1454,1474,1495,1515,1535,1555,1575,1595,1615,1634,1655],"xSR":350,"ySR":768,"xT1":30,"yT1":0,"xT2":670,"yT2":0,"toosoon":0,"cond_shown":"equaldotanddens","ratio_trial":500,"smaller_num":"6","larger_num":"12","correct_side":1,"subjID":"44wm","gender":"No_gender","age":"No_age","school":"No_school"},{"start_time":1549382545653,"click_time":1549382548317,"finger_time":1549382547976,"fix_duration":1155.979726334437,"trial":18,"RT":2323,"MT":341,"sideResp":2,"stimulus":"img/900/randomdotsizeEA/R/13_Ratio_900_L_18_R_20.png","xmouse":[412,412,412,412,412,412,412,412,414.6669921875,414.6669921875,414.6669921875,414.6669921875,414.6669921875,414.6669921875,414.6669921875,414.6669921875,414.6669921875,414.6669921875,416,416,416,416,416,416,416,416,416,416,418,418,418,418,418,418,418,418,418,418,418,418,418,418,418,418,418,418,418,418,418,418,418,418,418,418,418,418,418,418,418.6669921875,418.6669921875,418.6669921875,418.6669921875,418.6669921875,418.6669921875,418.6669921875,418.6669921875,418.6669921875,418.6669921875,418,418,418,418,418,418,418.6669921875,418.6669921875,418.6669921875,418.6669921875,418.6669921875,418.6669921875,418.6669921875,418.6669921875,418.6669921875,418.6669921875,418.6669921875,418.6669921875,418.6669921875,420,420,420,420,420,420,420,420,420,420,420,419,419,419,419,419,419,419,419,418,418,419.3330078125,419.3330078125,419.3330078125,419.3330078125,419.3330078125,426,426,426,473.3330078125,487.3330078125,531.3330078125,561.3330078125,590.6669921875,604,633,667.3330078125,684,688.6669921875,694,694,695.3330078125,696,697.3330078125,701.3330078125,702,705.3330078125],"ymouse":[844,844,844,844,844,844,844,844,845.3330078125,845.3330078125,845.3330078125,845.3330078125,845.3330078125,845.3330078125,845.3330078125,845.3330078125,845.3330078125,845.3330078125,845,845,845,845,845,845,845,845,845,845,845,845,845,845,845,845,845,845,845,845,844,844,844,844,844,844,844,844,844,844,841,841,838,838,834,833,831,831,831,828,829.3330078125,829.3330078125,829.3330078125,829.3330078125,829.3330078125,829.3330078125,829.3330078125,829.3330078125,829.3330078125,829.3330078125,828,828,826,824,822,820,820.6669921875,820.6669921875,820.6669921875,820.6669921875,823.3330078125,823.3330078125,823.3330078125,823.3330078125,823.3330078125,823.3330078125,823.3330078125,823.3330078125,823.3330078125,823,823,824,824,824,824,824,824,824,824,824,828,828,828,828,828,828,828,828,817,817,817.3330078125,817.3330078125,817.3330078125,817.3330078125,817.3330078125,818,818,818,762.6669921875,735.3330078125,630.6669921875,549.3330078125,465.3330078125,425,352,268.6669921875,222,203.33299255371094,176,166,147.33299255371094,140,125.3330078125,105.33300018310547,100,91.33300018310547],"timestamp_mouse":[4,25,43,64,83,104,124,144,164,183,203,223,243,263,283,303,324,344,364,383,404,424,443,463,484,503,524,544,563,583,604,624,644,664,684,703,724,744,763,784,803,823,843,864,884,904,924,945,964,984,1004,1024,1044,1064,1084,1103,1124,1143,1165,1184,1203,1224,1243,1264,1284,1304,1324,1344,1366,1383,1403,1423,1443,1465,1484,1503,1524,1544,1565,1584,1603,1623,1644,1664,1683,1703,1724,1743,1763,1783,1804,1824,1844,1864,1883,1904,1923,1943,1967,1984,2003,2024,2043,2065,2085,2104,2123,2143,2169,2183,2204,2224,2244,2263,2284,2303,2323,2343,2365,2384,2404,2423,2444,2464,2483,2504,2523,2543,2568,2586,2605,2624,2643,2664],"xSR":350,"ySR":768,"xT1":30,"yT1":0,"xT2":670,"yT2":0,"toosoon":0,"cond_shown":"randomdotsizeEA","ratio_trial":900,"smaller_num":"18","larger_num":"20","correct_side":2,"subjID":"44wm","gender":"No_gender","age":"No_age","school":"No_school"},{"start_time":1549382550433,"click_time":1549382552337,"finger_time":1549382551957,"fix_duration":1034.8676908792204,"trial":19,"RT":1524,"MT":380,"sideResp":2,"stimulus":"img/750/randomdotsizeEA/L/10_Ratio_750_L_4_R_3.png","xmouse":[441.3330078125,441.3330078125,441.3330078125,441.3330078125,441.3330078125,441.3330078125,441.3330078125,442,442,442,442,442,442,442,442,442,442,442,442,442,442,442,442,442,442,442,442,442.6669921875,442.6669921875,442.6669921875,442.6669921875,442.6669921875,442.6669921875,442.6669921875,442.6669921875,442.6669921875,442.6669921875,442.6669921875,442.6669921875,442.6669921875,442.6669921875,442.6669921875,442.6669921875,442.6669921875,442.6669921875,442.6669921875,442.6669921875,439,439,439,439,439,439,439,439,423.3330078125,422.6669921875,422,422.6669921875,423.3330078125,423.3330078125,423.3330078125,423.3330078125,423.3330078125,423.3330078125,423.3330078125,423.3330078125,423.3330078125,423.3330078125,422.6669921875,422.6669921875,422.6669921875,422.6669921875,422.6669921875,422.6669921875,422.6669921875,437.3330078125,440,442,457.3330078125,470,532,548,576.6669921875,589,614,652.6669921875,680,692.6669921875,717.3330078125,737.3330078125,748,748,748,748,749],"ymouse":[825.3330078125,825.3330078125,825.3330078125,825.3330078125,825.3330078125,825.3330078125,825.3330078125,825,825,825,825,825,825,825,825,825,825,824,824,824,824,824,824,824,824,824,824,821.3330078125,821.3330078125,821.3330078125,821.3330078125,821.3330078125,821.3330078125,821.3330078125,821.3330078125,821.3330078125,821.3330078125,820.6669921875,820.6669921875,820.6669921875,820.6669921875,820.6669921875,820.6669921875,820.6669921875,820.6669921875,820.6669921875,820.6669921875,820,820,820,820,820,820,820,820,809.3330078125,808.6669921875,808,808.6669921875,808.6669921875,808.6669921875,808.6669921875,808.6669921875,808.6669921875,808.6669921875,808.6669921875,808.6669921875,808.6669921875,808.6669921875,809.3330078125,809.3330078125,809.3330078125,809.3330078125,809.3330078125,809.3330078125,809.3330078125,753.3330078125,726,708,659.3330078125,627,483,454,408.6669921875,392,359,306.6669921875,260,235.33299255371094,185.33299255371094,147.33299255371094,118,118,118,118,96],"timestamp_mouse":[8,37,44,64,84,105,124,144,163,184,203,223,244,264,284,304,323,344,364,384,404,424,444,464,483,503,524,543,563,583,604,624,643,664,684,703,724,743,764,784,805,824,843,863,884,903,924,943,963,984,1003,1023,1044,1063,1083,1105,1123,1144,1163,1184,1203,1224,1243,1263,1284,1304,1324,1343,1363,1383,1403,1424,1443,1464,1484,1505,1524,1543,1564,1584,1604,1623,1644,1663,1684,1704,1724,1743,1763,1784,1804,1825,1843,1864,1884,1904],"xSR":350,"ySR":768,"xT1":30,"yT1":0,"xT2":670,"yT2":0,"toosoon":0,"cond_shown":"randomdotsizeEA","ratio_trial":750,"smaller_num":"3","larger_num":"4","correct_side":1,"subjID":"44wm","gender":"No_gender","age":"No_age","school":"No_school"},{"start_time":1549382556152,"click_time":1549382557457,"finger_time":1549382557279,"fix_duration":609.0796934076706,"trial":20,"RT":1127,"MT":178,"sideResp":2,"stimulus":"img/250/equaldotsize/R/12_Ratio_250_L_5_R_20.png","xmouse":[420,420,420,420,420,418,418,418,418,418,418,418,418,418,418,419,419,419,419,419,419,419,419,419,419,420,420,420,421.3330078125,421.3330078125,422,422,422.6669921875,422.6669921875,423,423,423.3330078125,422.6669921875,422.6669921875,422.6669921875,422,422,422,422,422,422,422,422,422,420,420,420,420,420,420,420,456,475,486.6669921875,511.3330078125,539,553.3330078125,618,636.6669921875,668,681.3330078125],"ymouse":[829,829,829,829,829,826,826,826,826,826,826,826,826,826,826,822,822,822,822,822,822,822,822,822,822,824,824,824,827.3330078125,827.3330078125,828,829,829.3330078125,829.3330078125,830,830,830.6669921875,830.6669921875,830.6669921875,830.6669921875,830,830,830,830,830,830,830,830,830,826,826,826,826,826,826,826,666,592,549.3330078125,460.6669921875,368,325.3330078125,178,143.33299255371094,86,61.33300018310547],"timestamp_mouse":[24,25,58,64,85,105,124,145,165,185,204,226,244,265,285,305,325,344,365,385,404,424,444,465,485,505,524,544,564,585,605,625,645,665,685,704,724,745,764,785,804,825,845,865,885,904,924,944,965,985,1005,1025,1044,1065,1085,1104,1126,1144,1165,1185,1204,1225,1245,1265,1285,1305],"xSR":350,"ySR":768,"xT1":30,"yT1":0,"xT2":670,"yT2":0,"toosoon":0,"cond_shown":"equaldotsize","ratio_trial":250,"smaller_num":"5","larger_num":"20","correct_side":2,"subjID":"44wm","gender":"No_gender","age":"No_age","school":"No_school"},{"start_time":1549382558628,"click_time":1549382560536,"finger_time":1549382560216,"fix_duration":250,"trial":21,"RT":1588,"MT":320,"sideResp":1,"stimulus":"img/900/equaldotsize/L/1_Ratio_900_L_10_R_9.png","xmouse":[396,396,396,398,398,398,398,398,398,398,398,398,398,396.6669921875,396.6669921875,396.6669921875,396.6669921875,396.6669921875,396.6669921875,396.6669921875,396.6669921875,402.6669921875,402,402,403,403,403,403,403,403,403,403,403,406,406,406,406,406,406,406,406,406,406,406.6669921875,406.6669921875,406.6669921875,406.6669921875,406.6669921875,406.6669921875,406.6669921875,406.6669921875,406.6669921875,406.6669921875,404.6669921875,404,404,404,401,399,398,397,395,394.6669921875,392,392,392,392.6669921875,394,394,394,394,394,394,394,394,392,392,394.6669921875,394.6669921875,368,348,338.6669921875,318,295.3330078125,258,247.33299255371094,224,200.66700744628906,194,164,147,131.33299255371094,124,116,103,97.33300018310547],"ymouse":[854,854,854,850,850,850,850,850,850,850,850,850,850,849.3330078125,849.3330078125,849.3330078125,849.3330078125,849.3330078125,849.3330078125,849.3330078125,849.3330078125,848.6669921875,848,848,846,846,846,846,846,846,846,846,846,846,846,846,846,846,846,846,846,846,846,846.6669921875,846.6669921875,846.6669921875,846.6669921875,846.6669921875,846.6669921875,846.6669921875,846.6669921875,846.6669921875,846.6669921875,843.3330078125,842,842,842,842,840,838,838,836,835.3330078125,831,830,830,829.3330078125,829,829,829,829,829,829,829,829,812,812,793.3330078125,793.3330078125,702,660,638.6669921875,594,546.6669921875,474,453.3330078125,408,363.3330078125,342,276,236,197.33299255371094,178,143,100,76.66699981689453],"timestamp_mouse":[8,37,48,71,89,108,129,149,171,189,209,229,248,270,288,309,328,349,368,389,409,428,448,468,488,509,529,548,569,588,609,628,648,669,688,708,729,748,769,789,809,828,848,869,889,909,928,948,970,988,1008,1028,1049,1072,1089,1108,1128,1149,1170,1188,1208,1229,1249,1270,1288,1308,1329,1348,1368,1388,1408,1428,1448,1468,1489,1509,1529,1549,1568,1588,1609,1628,1648,1668,1689,1708,1729,1749,1768,1789,1808,1829,1848,1870,1889,1908],"xSR":350,"ySR":768,"xT1":30,"yT1":0,"xT2":670,"yT2":0,"toosoon":0,"cond_shown":"equaldotsize","ratio_trial":900,"smaller_num":"9","larger_num":"10","correct_side":1,"subjID":"44wm","gender":"No_gender","age":"No_age","school":"No_school"},{"start_time":1549382562098,"click_time":1549382563957,"finger_time":1549382562137,"fix_duration":520.9813450555873,"trial":22,"RT":39,"MT":1820,"sideResp":2,"stimulus":"img/750/equaldotsize/L/1_Ratio_750_L_20_R_15.png","xmouse":[454,458,458,458,458,456.6669921875,456.6669921875,456.6669921875,456.6669921875,456.6669921875,456.6669921875,456.6669921875,456.6669921875,456.6669921875,456.6669921875,454,454,454,454,454,454,454,454,454,454,453.3330078125,453.3330078125,453.3330078125,453.3330078125,453.3330078125,453.3330078125,453.3330078125,453.3330078125,453.3330078125,453.3330078125,453,453,453,453,453,453,453,453,453,453,450,450,449.3330078125,448.6669921875,448,448,448,448,448,448,448,448,448,448,447.3330078125,447.3330078125,447.3330078125,447.3330078125,447.3330078125,447.3330078125,447.3330078125,447.3330078125,447.3330078125,447.3330078125,444.6669921875,444.6669921875,444.6669921875,436.6669921875,438,438,472,497.3330078125,511,542.6669921875,575,624,650,660.6669921875,680.6669921875,688,711,716.6669921875,724,726.6669921875,730.6669921875,733.3330078125,734],"ymouse":[838,838,838,838,838,840.6669921875,840.6669921875,840.6669921875,840.6669921875,840.6669921875,840.6669921875,840.6669921875,840.6669921875,840.6669921875,840.6669921875,840,840,840,840,840,840,840,840,840,840,839.3330078125,839.3330078125,839.3330078125,839.3330078125,839.3330078125,839.3330078125,839.3330078125,839.3330078125,839.3330078125,839.3330078125,840,840,840,840,840,840,840,840,840,840,818,817,817.3330078125,817.3330078125,818,818,818,818,818,818,818,818,818,818,825.3330078125,825.3330078125,825.3330078125,825.3330078125,825.3330078125,825.3330078125,825.3330078125,825.3330078125,825.3330078125,825.3330078125,822.6669921875,822.6669921875,822.6669921875,806.6669921875,798,798,702,644.6669921875,614,545.3330078125,476,375,319,296.6669921875,250.6669921875,229,164,150.66700744628906,129,121.3330078125,110.66699981689453,101.33300018310547,98],"timestamp_mouse":[39,62,79,99,118,142,159,178,198,219,238,259,279,298,318,340,358,378,398,419,438,458,478,499,519,538,559,578,599,618,639,658,679,699,719,739,758,778,799,819,839,859,878,899,919,940,958,978,998,1019,1041,1059,1078,1099,1118,1138,1159,1178,1199,1218,1238,1258,1278,1299,1319,1339,1359,1378,1398,1418,1440,1459,1478,1499,1518,1539,1559,1578,1599,1618,1638,1659,1678,1699,1719,1739,1758,1779,1798,1819,1841,1858],"xSR":350,"ySR":768,"xT1":30,"yT1":0,"xT2":670,"yT2":0,"toosoon":0,"cond_shown":"equaldotsize","ratio_trial":750,"smaller_num":"15","larger_num":"20","correct_side":1,"subjID":"44wm","gender":"No_gender","age":"No_age","school":"No_school"},{"start_time":1549382566095,"click_time":1549382568077,"finger_time":1549382567697,"fix_duration":277.36687069037214,"trial":23,"RT":1602,"MT":380,"sideResp":1,"stimulus":"img/750/randomdotsize/L/14_Ratio_750_L_8_R_6.png","xmouse":[411.3330078125,419,419,417,417,417,417,417,417,407.3330078125,407.3330078125,407.3330078125,410.6669921875,410.6669921875,410.6669921875,410.6669921875,410.6669921875,410.6669921875,410.6669921875,410.6669921875,410.6669921875,415.3330078125,414.6669921875,414.6669921875,414.6669921875,414.6669921875,414.6669921875,414.6669921875,414.6669921875,414.6669921875,414.6669921875,414.6669921875,414,414,414,414,414,414,414,414,414,414,406,406,406,406,406,406,406,406,406,406,408,408,409.3330078125,409,409,409,409,410,410,410,412,412.6669921875,413.3330078125,413.3330078125,413.3330078125,413.3330078125,413.3330078125,413.3330078125,413.3330078125,413.3330078125,407.3330078125,407.3330078125,402,402,402,402,395.3330078125,383,377.3330078125,368,353.3330078125,341.3330078125,327.3330078125,318,298,266,248.6669921875,238.66700744628906,221.33299255371094,212,197,178,168.66700744628906,163,150.66700744628906,138,119],"ymouse":[840.6669921875,832,832,832,832,832,832,832,832,831.3330078125,831.3330078125,831.3330078125,833.3330078125,833.3330078125,833.3330078125,833.3330078125,833.3330078125,833.3330078125,833.3330078125,833.3330078125,833.3330078125,837.3330078125,837.3330078125,837.3330078125,837.3330078125,837.3330078125,837.3330078125,837.3330078125,837.3330078125,837.3330078125,837.3330078125,837.3330078125,840,840,840,840,840,840,840,840,840,840,832,832,832,832,832,832,832,832,832,832,830,830,826.6669921875,826,826,820,820,817,817,817,812,811.3330078125,811.3330078125,811.3330078125,811.3330078125,811.3330078125,811.3330078125,811.3330078125,811.3330078125,811.3330078125,810.6669921875,810.6669921875,812,812,812,812,789.3330078125,756,738.6669921875,712,671.3330078125,638.6669921875,603.3330078125,585,549,492,450.6669921875,428.6669921875,388.6669921875,366,322,249,204.66700744628906,184,144.66700744628906,111,82],"timestamp_mouse":[2,32,41,63,82,102,166,167,181,202,221,242,261,281,301,321,341,361,381,401,421,442,462,481,501,521,541,562,581,602,622,642,662,681,702,722,741,764,782,802,821,841,863,881,902,922,941,962,982,1002,1022,1042,1062,1082,1101,1122,1142,1162,1182,1201,1221,1241,1264,1281,1303,1321,1341,1362,1381,1401,1421,1441,1462,1481,1501,1521,1541,1561,1581,1602,1621,1642,1663,1681,1701,1722,1742,1763,1781,1801,1822,1841,1862,1882,1902,1922,1942,1961,1981],"xSR":350,"ySR":768,"xT1":30,"yT1":0,"xT2":670,"yT2":0,"toosoon":0,"cond_shown":"randomdotsize","ratio_trial":750,"smaller_num":"6","larger_num":"8","correct_side":1,"subjID":"44wm","gender":"No_gender","age":"No_age","school":"No_school"},{"start_time":1549382570267,"click_time":1549382572217,"finger_time":1549382572217,"fix_duration":1329.8712511359352,"trial":24,"RT":1950,"MT":0,"sideResp":1,"stimulus":"img/750/randomdotsize/L/6_Ratio_750_L_24_R_18.png","xmouse":[404,404,404,404,404,404.6669921875,404.6669921875,404.6669921875,404.6669921875,404.6669921875,404.6669921875,404.6669921875,404.6669921875,404.6669921875,404.6669921875,404,404,404,404,404,404,404,404,404,404,406.6669921875,406.6669921875,406.6669921875,406.6669921875,406.6669921875,406.6669921875,406.6669921875,406.6669921875,406.6669921875,406.6669921875,404.6669921875,404.6669921875,404.6669921875,404.6669921875,404.6669921875,404.6669921875,404.6669921875,404.6669921875,404.6669921875,404.6669921875,403.3330078125,403.3330078125,403.3330078125,403.3330078125,403.3330078125,403.3330078125,403.3330078125,403.3330078125,403.3330078125,403.3330078125,401,401,401,401,401,401,401,401,401,401,400,400,400,400,400,400,400,400,400,391,388.6669921875,388.6669921875,388.6669921875,388.6669921875,388.6669921875,388.6669921875,388.6669921875,388.6669921875,388.6669921875,388.6669921875,388.6669921875,388.6669921875,388.6669921875,388.6669921875,388.6669921875,388.6669921875,388.6669921875,388.6669921875,388.6669921875,388.6669921875,388.6669921875,388.6669921875,58],"ymouse":[838,838,838,838,838,836.6669921875,836.6669921875,836.6669921875,836.6669921875,836.6669921875,836.6669921875,836.6669921875,836.6669921875,836.6669921875,836.6669921875,842,842,842,842,842,842,842,842,842,842,846.6669921875,846.6669921875,846.6669921875,846.6669921875,846.6669921875,846.6669921875,846.6669921875,846.6669921875,846.6669921875,846.6669921875,846.6669921875,846.6669921875,846.6669921875,846.6669921875,846.6669921875,846.6669921875,846.6669921875,846.6669921875,846.6669921875,846.6669921875,846.6669921875,846.6669921875,846.6669921875,846.6669921875,846.6669921875,846.6669921875,846.6669921875,846.6669921875,846.6669921875,846.6669921875,848,848,848,848,848,848,848,848,848,848,845,845,845,845,845,845,845,845,845,830,826.6669921875,826.6669921875,826.6669921875,826.6669921875,826.6669921875,826.6669921875,826.6669921875,826.6669921875,826.6669921875,826.6669921875,826.6669921875,826.6669921875,826.6669921875,826.6669921875,826.6669921875,826.6669921875,826.6669921875,826.6669921875,826.6669921875,826.6669921875,826.6669921875,826.6669921875,23],"timestamp_mouse":[29,30,50,70,89,110,129,149,170,190,211,229,249,269,289,309,329,350,370,389,409,431,450,470,489,509,529,550,569,590,610,629,649,669,689,710,730,750,769,790,810,829,849,869,889,911,930,950,970,989,1009,1030,1049,1069,1089,1110,1129,1150,1169,1190,1210,1229,1249,1269,1290,1310,1330,1349,1370,1390,1412,1431,1449,1470,1490,1509,1529,1549,1569,1590,1610,1630,1649,1670,1690,1710,1730,1749,1769,1789,1811,1829,1850,1869,1890,1909,1929,1949],"xSR":350,"ySR":768,"xT1":30,"yT1":0,"xT2":670,"yT2":0,"toosoon":0,"cond_shown":"randomdotsize","ratio_trial":750,"smaller_num":"18","larger_num":"24","correct_side":1,"subjID":"44wm","gender":"No_gender","age":"No_age","school":"No_school"},{"start_time":1549382574060,"click_time":1549382576220,"finger_time":1549382575816,"fix_duration":682.8094599136545,"trial":25,"RT":1756,"MT":404,"sideResp":2,"stimulus":"img/750/equaldotanddens/R/7_Ratio_750_L_3_R_4.png","xmouse":[398,397.3330078125,397.3330078125,397.3330078125,397.3330078125,397.3330078125,397.3330078125,397.3330078125,397.3330078125,397.3330078125,397.3330078125,396.6669921875,396.6669921875,396.6669921875,396.6669921875,396.6669921875,396.6669921875,396.6669921875,396.6669921875,396.6669921875,396.6669921875,397.3330078125,397.3330078125,397.3330078125,397.3330078125,397.3330078125,397.3330078125,397.3330078125,397.3330078125,400,400.6669921875,400,402,402,402,402,401.3330078125,401.3330078125,400.6669921875,400.6669921875,400.6669921875,400.6669921875,400.6669921875,400,400,400,400,400,399,399,399,399,399,399,399,399,399,399,393.3330078125,393.3330078125,393.3330078125,393.3330078125,393.3330078125,392,392,392,392,392,398,398,398,398,398,398,398,398,398,398,400,400,400,400,393,393,393,393,434,480,487.3330078125,500,506,518.6669921875,538.6669921875,546.6669921875,561.3330078125,567.3330078125,576.6669921875,597.3330078125,603.3330078125,608,616,622,628,646.6669921875,659,666.6669921875,676,682.6669921875],"ymouse":[832,833.3330078125,833.3330078125,833.3330078125,833.3330078125,833.3330078125,833.3330078125,833.3330078125,833.3330078125,833.3330078125,833.3330078125,840.6669921875,840.6669921875,840.6669921875,840.6669921875,840.6669921875,840.6669921875,840.6669921875,840.6669921875,840.6669921875,840.6669921875,839.3330078125,839.3330078125,839.3330078125,839.3330078125,839.3330078125,839.3330078125,839.3330078125,839.3330078125,844,844.6669921875,844,843,842,842,841,840.6669921875,840.6669921875,840.6669921875,840.6669921875,840.6669921875,840.6669921875,840.6669921875,839,838,838,839,839,840,840,840,840,840,840,840,840,840,840,845.3330078125,845.3330078125,845.3330078125,845.3330078125,845.3330078125,844,844,844,844,844,848,848,848,848,848,848,848,848,848,848,845,845,845,845,826,826,826,826,778,681,659.3330078125,620,602,565.3330078125,508.6669921875,469.3330078125,429.3330078125,407.3330078125,364.6669921875,301.3330078125,267.3330078125,254,232,211,196,154.66700744628906,128,116.6669921875,101,89.33300018310547],"timestamp_mouse":[16,42,56,76,97,116,137,157,177,196,216,238,257,276,297,316,336,357,377,396,416,437,457,476,496,516,536,557,577,597,616,636,657,677,696,716,737,756,776,796,817,836,856,876,897,916,937,956,979,996,1016,1036,1058,1077,1096,1117,1136,1157,1177,1197,1217,1236,1256,1277,1297,1316,1337,1358,1377,1397,1417,1436,1457,1476,1496,1516,1536,1556,1578,1597,1617,1636,1660,1676,1696,1716,1737,1756,1776,1797,1817,1836,1858,1877,1897,1916,1936,1957,1976,1996,2017,2037,2056,2077,2097,2117,2137,2159],"xSR":350,"ySR":768,"xT1":30,"yT1":0,"xT2":670,"yT2":0,"toosoon":0,"cond_shown":"equaldotanddens","ratio_trial":750,"smaller_num":"3","larger_num":"4","correct_side":2,"subjID":"44wm","gender":"No_gender","age":"No_age","school":"No_school"},{"start_time":1549382578501,"click_time":1549382581037,"finger_time":1549382580257,"fix_duration":1075.2526916316426,"trial":26,"RT":1756,"MT":780,"sideResp":2,"stimulus":"img/750/randomdotsize/R/15_Ratio_750_L_9_R_12.png","xmouse":[420,420,420,420,420,420,420,420,420,421.3330078125,421.3330078125,421.3330078125,421.3330078125,421.3330078125,421.3330078125,421.3330078125,421.3330078125,421.3330078125,421.3330078125,423.3330078125,423.3330078125,423.3330078125,423.3330078125,423.3330078125,423.3330078125,423.3330078125,423.3330078125,423.3330078125,423.3330078125,422.6669921875,422.6669921875,422.6669921875,422.6669921875,422.6669921875,422.6669921875,422.6669921875,422.6669921875,422.6669921875,422.6669921875,422,422,422,422,422,422,422,422,422,422,422,422,422,422,422,422,422,422,422,422,420,420,420,420,420,420,420,420,420,420,420,420,420,420,420,420,420,420,418.6669921875,418.6669921875,418,418,418,417.3330078125,416.6669921875,416.6669921875,417.3330078125,417.3330078125,417.3330078125,430,432.6669921875,438,443,455.3330078125,464,468,481.3330078125,488,498,511.3330078125,520.6669921875,526,538,548,566.6669921875,572.6669921875,582,590.6669921875,594,604,606,613.3330078125,623.3330078125,629,650.6669921875,663,668,675,680,684,685.3330078125,688,692,694,705,710,718,721.3330078125,728],"ymouse":[796,796,796,796,796,796,796,796,796,798.6669921875,798.6669921875,798.6669921875,798.6669921875,798.6669921875,798.6669921875,798.6669921875,798.6669921875,798.6669921875,798.6669921875,801.3330078125,801.3330078125,801.3330078125,801.3330078125,801.3330078125,801.3330078125,801.3330078125,801.3330078125,801.3330078125,801.3330078125,802.6669921875,802.6669921875,802.6669921875,802.6669921875,802.6669921875,802.6669921875,802.6669921875,802.6669921875,802.6669921875,802.6669921875,801,801,801,801,801,801,801,801,801,801,800,800,800,800,800,800,800,800,800,800,800,800,800,800,800,800,800,800,800,800,798,798,798,798,798,798,798,798,797.3330078125,797.3330078125,796,796,796,792.6669921875,789.3330078125,786.6669921875,783.3330078125,783.3330078125,783.3330078125,746,740.6669921875,730,720,686.6669921875,652,632,594.6669921875,580,562,544.6669921875,531.3330078125,524,504,483,444.6669921875,429.3330078125,404,383.3330078125,375,348,340,325.3330078125,305.3330078125,294,256.6669921875,232,221,206,192,178,172.66700744628906,162,153,148,130,123,109,103.33300018310547,92],"timestamp_mouse":[2,28,51,56,75,95,115,135,156,176,196,215,235,256,275,296,316,338,356,375,395,415,435,455,475,495,516,537,555,576,595,616,636,656,676,695,715,735,755,775,795,816,835,855,875,896,916,936,955,975,995,1016,1035,1056,1075,1095,1115,1136,1155,1175,1196,1215,1235,1255,1275,1296,1315,1335,1356,1376,1395,1416,1438,1456,1475,1495,1516,1535,1555,1581,1597,1616,1635,1656,1675,1695,1715,1736,1756,1776,1796,1816,1839,1856,1875,1895,1915,1936,1955,1976,1995,2016,2035,2056,2075,2095,2116,2136,2157,2175,2196,2216,2236,2258,2275,2295,2316,2335,2358,2376,2395,2415,2435,2456,2476,2495,2515,2536],"xSR":350,"ySR":768,"xT1":30,"yT1":0,"xT2":670,"yT2":0,"toosoon":0,"cond_shown":"randomdotsize","ratio_trial":750,"smaller_num":"9","larger_num":"12","correct_side":2,"subjID":"44wm","gender":"No_gender","age":"No_age","school":"No_school"},{"start_time":1549382583302,"click_time":1549382585898,"finger_time":1549382585436,"fix_duration":1343.8430226862583,"trial":27,"RT":2134,"MT":462,"sideResp":1,"stimulus":"img/250/randomdotsizeEA/L/2_Ratio_250_L_16_R_4.png","xmouse":[415.3330078125,415.3330078125,415.3330078125,416,416,416,416,413,413,413,413,413,413,413,413,413,413,417.3330078125,417.3330078125,417.3330078125,417.3330078125,417.3330078125,417.3330078125,417.3330078125,417.3330078125,417.3330078125,417.3330078125,417,417,417,417,417,417,417,417,417,417,418,418,418,418,418,418,418,418,418,418,418,418,418,418,418,418,418,418,418,418,418,418,418,418,418,418,418,418,418,418,418.6669921875,418.6669921875,420,420,420,420,420,421.3330078125,421.3330078125,421.3330078125,422,422,422,422.6669921875,422.6669921875,422.6669921875,422.6669921875,422,422,423,423,423,423,423,423,422,422,422,422,422.6669921875,422.6669921875,422.6669921875,422.6669921875,422.6669921875,422.6669921875,404,401.3330078125,400.6669921875,399.3330078125,395.3330078125,391.3330078125,376,365.3330078125,352,344,328,306,294,288.6669921875,277.3330078125,264,256,232.66700744628906,219,212.66700744628906,200,188.66700744628906,170,158.66700744628906,153.33299255371094,143,139.33299255371094,126.6669921875],"ymouse":[819.3330078125,819.3330078125,819.3330078125,820,820,820,820,820,820,820,820,820,820,820,820,820,820,823.3330078125,823.3330078125,823.3330078125,823.3330078125,823.3330078125,823.3330078125,823.3330078125,823.3330078125,823.3330078125,823.3330078125,824,824,824,824,824,824,824,824,824,824,828,828,828,828,828,828,828,828,828,828,828,828,828,828,828,828,828,828,828,828,828,828,828,828,828,828,828,828,828,828,828.6669921875,828.6669921875,828,829,829,829,829,829.3330078125,829.3330078125,829.3330078125,829,829,829,829.3330078125,829.3330078125,829.3330078125,829.3330078125,830,830,830,830,830,830,830,830,830,830,830,830,829.3330078125,829.3330078125,829.3330078125,829.3330078125,829.3330078125,829.3330078125,801,790.6669921875,787.3330078125,779.3330078125,767.3330078125,756.6669921875,708,675.3330078125,648,633,601,548,509,484.6669921875,440.6669921875,397,376,320.6669921875,286,269.3330078125,236,204.66700744628906,166,145.33299255371094,134.66700744628906,114,102.66699981689453,64.66699981689453],"timestamp_mouse":[31,34,55,74,95,114,135,154,175,195,215,235,255,275,295,314,335,355,375,395,414,434,455,475,495,515,535,554,575,595,614,634,654,674,694,715,735,755,775,794,815,835,855,875,894,914,935,954,975,995,1014,1034,1055,1074,1095,1115,1135,1154,1174,1194,1214,1234,1255,1275,1294,1314,1335,1354,1374,1394,1414,1434,1455,1474,1495,1514,1534,1554,1575,1594,1614,1634,1655,1675,1694,1714,1734,1754,1774,1794,1814,1834,1854,1876,1894,1914,1935,1955,1974,1994,2015,2035,2054,2076,2095,2115,2134,2155,2177,2195,2215,2235,2254,2277,2295,2315,2334,2355,2375,2394,2414,2435,2454,2474,2495,2514,2534,2554,2574,2596],"xSR":350,"ySR":768,"xT1":30,"yT1":0,"xT2":670,"yT2":0,"toosoon":0,"cond_shown":"randomdotsizeEA","ratio_trial":250,"smaller_num":"4","larger_num":"16","correct_side":1,"subjID":"44wm","gender":"No_gender","age":"No_age","school":"No_school"},{"start_time":1549382587912,"click_time":1549382589597,"finger_time":1549382589156,"fix_duration":993.5407343609697,"trial":28,"RT":1244,"MT":441,"sideResp":2,"stimulus":"img/750/equaldotanddens/R/15_Ratio_750_L_9_R_12.png","xmouse":[433.3330078125,433.3330078125,433.3330078125,433.3330078125,433.3330078125,433.3330078125,432.6669921875,432.6669921875,433.3330078125,433.3330078125,433.3330078125,433.3330078125,433.3330078125,433.3330078125,433.3330078125,433.3330078125,433.3330078125,433.3330078125,434,434,434,434,434,434,434,433.3330078125,433.3330078125,433.3330078125,433.3330078125,433.3330078125,433.3330078125,433.3330078125,433.3330078125,433.3330078125,433.3330078125,433.3330078125,433.3330078125,433.3330078125,433.3330078125,433.3330078125,433.3330078125,433.3330078125,433.3330078125,434,434,434,434,434,434,434,434,434,434,433,433,433,433,433,433,433,433,433,445,458,465.3330078125,486,500,514.6669921875,522,539.3330078125,565.3330078125,582,591.3330078125,607,615,644,650.6669921875,660.6669921875,668.6669921875,674,686,696,706,710.6669921875,715.3330078125],"ymouse":[857.3330078125,857.3330078125,857.3330078125,857.3330078125,857.3330078125,857.3330078125,857.3330078125,857.3330078125,857.3330078125,857.3330078125,857.3330078125,857.3330078125,857.3330078125,857.3330078125,857.3330078125,857.3330078125,857.3330078125,857.3330078125,857,857,857,857,857,857,857,857.3330078125,857.3330078125,857.3330078125,857.3330078125,857.3330078125,857.3330078125,857.3330078125,857.3330078125,856.6669921875,856.6669921875,856.6669921875,856.6669921875,856.6669921875,856.6669921875,856.6669921875,856.6669921875,856.6669921875,856.6669921875,856,856,856,856,856,856,856,856,856,856,850,850,850,850,850,850,850,850,850,748,710,690.6669921875,637,603,572.6669921875,560,530.6669921875,481.3330078125,444,423.3330078125,382,360,282,266.6669921875,240.6669921875,216.66700744628906,206,172,148,125,115.3330078125,99.33300018310547],"timestamp_mouse":[7,34,44,64,85,104,125,144,164,185,205,225,244,264,284,305,325,344,364,385,405,424,445,464,484,505,524,545,565,584,604,624,644,665,685,705,724,744,764,785,804,824,845,864,885,905,924,945,964,985,1004,1025,1044,1065,1085,1104,1124,1145,1165,1185,1205,1224,1244,1264,1284,1304,1324,1345,1365,1384,1404,1425,1444,1465,1485,1505,1524,1544,1565,1585,1607,1624,1645,1665,1684],"xSR":350,"ySR":768,"xT1":30,"yT1":0,"xT2":670,"yT2":0,"toosoon":0,"cond_shown":"equaldotanddens","ratio_trial":750,"smaller_num":"9","larger_num":"12","correct_side":2,"subjID":"44wm","gender":"No_gender","age":"No_age","school":"No_school"},{"start_time":1549382592665,"click_time":1549382594217,"finger_time":1549382593797,"fix_duration":1446.596896193439,"trial":29,"RT":1132,"MT":420,"sideResp":2,"stimulus":"img/250/equaldotanddens/R/4_Ratio_250_L_3_R_12.png","xmouse":[420.6669921875,420.6669921875,420.6669921875,423.3330078125,423.3330078125,423.3330078125,423.3330078125,423.3330078125,423.3330078125,423.3330078125,423.3330078125,418,418,418,418,418,418,418,418,418,418,418,418,420,420,420,420,420,420,420,420,420,420,420.6669921875,420.6669921875,420.6669921875,420.6669921875,420.6669921875,420.6669921875,420.6669921875,420.6669921875,420.6669921875,420,421.3330078125,421.3330078125,421.3330078125,421.3330078125,421.3330078125,421.3330078125,421.3330078125,421.3330078125,421.3330078125,420.6669921875,420.6669921875,420.6669921875,420.6669921875,444,458,478.6669921875,492,500,518.6669921875,526,564,573,594,604.6669921875,626,655.3330078125,672.6669921875,680,692,706,712,737.3330078125,743,751.3330078125,756.6669921875],"ymouse":[834.6669921875,834.6669921875,834.6669921875,834.6669921875,834.6669921875,834.6669921875,834.6669921875,834.6669921875,834.6669921875,834.6669921875,834.6669921875,826,826,826,826,826,826,826,826,826,826,826,826,826,826,826,826,826,826,826,826,826,826,825.3330078125,825.3330078125,825.3330078125,825.3330078125,825.3330078125,825.3330078125,825.3330078125,825.3330078125,825.3330078125,822,820.6669921875,820.6669921875,820.6669921875,820.6669921875,820.6669921875,817.3330078125,817.3330078125,813.3330078125,811.3330078125,806.6669921875,806.6669921875,793.3330078125,793.3330078125,706,671,629.3330078125,600,584,548.6669921875,532,462,446,408,389.3330078125,352,299.3330078125,265.3330078125,252,224,195,181,130.66700744628906,122,103.33300018310547,96.66699981689453],"timestamp_mouse":[12,31,51,74,91,112,133,152,172,191,211,231,252,271,292,311,332,351,372,391,411,431,451,471,491,512,531,551,572,591,611,631,651,673,691,712,732,751,772,792,811,832,851,872,892,912,931,951,972,991,1012,1032,1052,1071,1091,1112,1132,1151,1174,1191,1212,1231,1251,1273,1293,1312,1331,1352,1374,1392,1412,1431,1451,1472,1493,1512,1532,1551],"xSR":350,"ySR":768,"xT1":30,"yT1":0,"xT2":670,"yT2":0,"toosoon":0,"cond_shown":"equaldotanddens","ratio_trial":250,"smaller_num":"3","larger_num":"12","correct_side":2,"subjID":"44wm","gender":"No_gender","age":"No_age","school":"No_school"},{"start_time":1549382596167,"click_time":1549382597378,"finger_time":1549382596977,"fix_duration":908.1698058777694,"trial":30,"RT":810,"MT":401,"sideResp":2,"stimulus":"img/500/equaldotsize/R/6_Ratio_500_L_9_R_18.png","xmouse":[412,412,412,410.6669921875,410.6669921875,411,411,411,412.6669921875,412.6669921875,412.6669921875,412.6669921875,412.6669921875,412.6669921875,412.6669921875,412.6669921875,412.6669921875,412.6669921875,416.6669921875,416.6669921875,416.6669921875,416.6669921875,416.6669921875,416.6669921875,416.6669921875,416.6669921875,416.6669921875,416.6669921875,416,416,416,416,416,416,416,416,416,416,432,453.3330078125,464,482,489.3330078125,500,525,550.6669921875,562,586,619,638,652,658,664.6669921875,667.3330078125,690.6669921875,695,707,712,719.3330078125,728],"ymouse":[808,808,808,804.6669921875,804.6669921875,804,804,804,804.6669921875,804.6669921875,804.6669921875,804.6669921875,804.6669921875,804.6669921875,804