[{"start_time":1452341583097,"click_time":1452341583778,"finger_time":1452341583104,"fix_duration":250,"trial":0,"RT":7,"MT":674,"sideResp":2,"stimulus":"img/500/randomdotsize/R/2_Ratio_500_L_3_R_6.png","xmouse":[401,401,401,401,401,401,401,401,401,401,401,401,401,401,401,401,401,401,401,401,401,401,401,401,401,401,401,401,401,401,401,401,401,401,715],"ymouse":[529,529,529,529,529,529,529,529,529,529,529,529,529,529,529,529,529,529,529,529,529,529,529,529,529,529,529,529,529,529,529,529,529,529,57],"timestamp_mouse":[7,21,41,61,81,101,121,141,162,181,201,222,241,261,281,301,322,342,362,381,402,421,441,461,481,501,521,541,561,581,601,621,641,661,681],"xSR":350,"ySR":508.79999999999995,"xT1":30,"yT1":0,"xT2":670,"yT2":0,"toosoon":0,"cond_shown":"randomdotsize","ratio_trial":500,"smaller_num":"3","larger_num":"6","correct_side":2,"subjID":"45wm","gender":"No_gender","age":"No_age","school":"No_school","test":{"fix_dur":[250,1500],"timestim":400,"targets_dim":[100,100],"targets_relative_coord":[0.1,0.9],"size_stim":[880,420],"start_dim":[100,100],"size_start":[300,300],"size_fix":60,"samplingrate":20,"img_types":["equaldotsize","equaldotanddens","randomdotsize","randomdotsizeEA"],"ratios":[250,500,750,900],"rep_conds":7,"nTrials":128,"trials_to_rest":500,"Trials_order":[22,121,118,3,64,4,76,100,63,47,116,5,29,37,124,107,114,38,79,74,17,97,7,103,82,99,40,78,119,30,62,106,19,56,73,90,68,88,9,89,108,111,57,115,39,81,94,70,101,53,113,58,21,0,92,14,77,13,31,112,41,15,32,67,117,72,27,95,61,98,24,16,12,33,59,8,50,35,44,126,102,80,11,104,93,66,26,125,105,69,60,48,83,110,96,51,25,36,109,54,10,1,23,86,18,84,127,43,65,6,71,85,122,2,28,42,123,91,20,120,52,55,46,45,34,87,75,49],"cond_shown":["randomdotsize","equaldotanddens","randomdotsize","randomdotsizeEA","equaldotsize","equaldotsize","equaldotsize","equaldotsize","randomdotsizeEA","randomdotsizeEA","equaldotsize","equaldotanddens","equaldotanddens","equaldotanddens","equaldotsize","randomdotsizeEA","randomdotsize","randomdotsize","randomdotsizeEA","randomdotsize","equaldotanddens","equaldotanddens","randomdotsizeEA","randomdotsizeEA","randomdotsize","randomdotsizeEA","equaldotsize","randomdotsize","randomdotsizeEA","randomdotsize","randomdotsize","randomdotsize","randomdotsizeEA","equaldotsize","equaldotanddens","randomdotsize","equaldotsize","equaldotsize","equaldotanddens","equaldotanddens","equaldotsize","randomdotsizeEA","equaldotanddens","randomdotsizeEA","randomdotsizeEA","equaldotanddens","randomdotsize","randomdotsize","equaldotanddens","equaldotanddens","equaldotanddens","randomdotsize","equaldotanddens","equaldotsize","equaldotsize","randomdotsize","equaldotanddens","equaldotanddens","randomdotsizeEA","equaldotsize","equaldotanddens","randomdotsizeEA","equaldotsize","randomdotsizeEA","equaldotanddens","equaldotsize","randomdotsizeEA","randomdotsizeEA","equaldotanddens","randomdotsize","equaldotsize","equaldotsize","equaldotsize","equaldotanddens","randomdotsizeEA","equaldotsize","randomdotsize","randomdotsizeEA","equaldotsize","randomdotsize","randomdotsize","equaldotsize","randomdotsizeEA","equaldotsize","equaldotanddens","randomdotsize","randomdotsize","equaldotanddens","equaldotanddens","equaldotanddens","equaldotsize","equaldotsize","randomdotsizeEA","randomdotsize","equaldotsize","randomdotsizeEA","equaldotanddens","equaldotsize","equaldotanddens","randomdotsize","randomdotsize","equaldotanddens","randomdotsizeEA","randomdotsize","randomdotsize","equaldotsize","randomdotsizeEA","randomdotsizeEA","equaldotanddens","randomdotsize","randomdotsizeEA","equaldotanddens","randomdotsize","randomdotsize","equaldotsize","randomdotsize","randomdotsizeEA","randomdotsizeEA","equaldotsize","equaldotsize","equaldotsize","randomdotsizeEA","randomdotsize","equaldotanddens","randomdotsize","randomdotsizeEA","randomdotsizeEA","equaldotanddens"],"ratio_trial":[500,750,500,250,250,500,900,500,900,900,500,500,900,500,900,750,250,500,900,750,250,250,500,500,250,250,750,900,500,900,900,750,250,750,750,750,500,750,750,750,900,900,750,250,500,250,900,500,500,500,250,750,500,250,900,900,900,900,900,250,750,900,250,250,500,750,750,900,900,250,750,250,900,250,750,750,250,250,900,900,500,250,750,750,900,250,750,900,750,500,900,250,250,900,250,250,750,500,900,500,750,250,500,500,250,500,900,750,250,500,500,500,750,250,900,750,750,750,500,750,500,500,900,900,250,500,750,250],"smaller_num":["3","15","5","2","6","2","9","2","9","18","3","9","18","9","18","6","2","2","9","3","4","2","9","9","2","2","9","9","6","18","18","6","3","3","3","12","2","12","3","12","9","18","3","5","4","6","18","6","5","6","3","3","3","3","9","9","18","9","18","3","9","18","2","2","2","3","15","9","9","3","15","3","9","3","6","15","4","3","18","9","1","3","12","3","18","6","3","9","15","9","9","4","6","9","6","3","6","5","18","6","15","3","6","3","2","3","18","3","3","9","2","2","6","1","18","9","15","15","9","9","4","5","18","9","6","1","6","3"],"larger_num":["6","20","10","8","24","4","10","4","10","20","6","18","20","18","20","8","8","4","10","4","16","8","18","18","8","8","12","10","12","20","20","8","12","4","4","16","4","16","4","16","10","20","4","20","8","24","20","12","10","12","12","4","6","12","10","10","20","10","20","12","12","20","8","8","4","4","20","10","10","12","20","12","10","12","8","20","16","12","20","10","2","12","16","4","20","24","4","10","20","18","10","16","24","10","24","12","8","10","20","12","20","12","12","6","8","6","20","4","12","18","4","4","8","4","20","12","20","20","18","12","8","10","20","10","24","2","8","12"],"correct_side":[2,2,2,2,2,1,2,1,2,1,2,2,1,2,2,1,2,1,1,2,2,1,2,2,2,2,2,2,1,1,1,1,1,1,2,2,1,2,1,2,2,1,2,2,1,2,2,1,1,1,1,1,2,1,1,2,1,1,1,1,2,1,1,1,2,2,2,2,2,2,2,2,2,2,1,2,2,2,2,1,2,2,2,1,2,1,1,1,2,2,2,2,1,2,1,1,1,2,1,1,2,2,1,2,1,2,2,2,2,2,2,1,2,2,2,2,2,2,2,2,1,1,1,1,2,2,1,2],"img_shown":["img/500/randomdotsize/R/2_Ratio_500_L_3_R_6.png","img/750/equaldotanddens/R/5_Ratio_750_L_15_R_20.png","img/500/randomdotsize/R/14_Ratio_500_L_5_R_10.png","img/250/randomdotsizeEA/R/13_Ratio_250_L_2_R_8.png","img/250/equaldotsize/R/6_Ratio_250_L_6_R_24.png","img/500/equaldotsize/L/5_Ratio_500_L_4_R_2.png","img/900/equaldotsize/R/7_Ratio_900_L_9_R_10.png","img/500/equaldotsize/L/5_Ratio_500_L_4_R_2.png","img/900/randomdotsizeEA/R/5_Ratio_900_L_9_R_10.png","img/900/randomdotsizeEA/L/10_Ratio_900_L_20_R_18.png","img/500/equaldotsize/R/2_Ratio_500_L_3_R_6.png","img/500/equaldotanddens/R/6_Ratio_500_L_9_R_18.png","img/900/equaldotanddens/L/4_Ratio_900_L_20_R_18.png","img/500/equaldotanddens/R/6_Ratio_500_L_9_R_18.png","img/900/equaldotsize/R/13_Ratio_900_L_18_R_20.png","img/750/randomdotsizeEA/L/13_Ratio_750_L_8_R_6.png","img/250/randomdotsize/R/13_Ratio_250_L_2_R_8.png","img/500/randomdotsize/L/5_Ratio_500_L_4_R_2.png","img/900/randomdotsizeEA/L/1_Ratio_900_L_10_R_9.png","img/750/randomdotsize/R/12_Ratio_750_L_3_R_4.png","img/250/equaldotanddens/R/10_Ratio_250_L_4_R_16.png","img/250/equaldotanddens/L/3_Ratio_250_L_8_R_2.png","img/500/randomdotsizeEA/R/6_Ratio_500_L_9_R_18.png","img/500/randomdotsizeEA/R/1_Ratio_500_L_9_R_18.png","img/250/randomdotsize/R/13_Ratio_250_L_2_R_8.png","img/250/randomdotsizeEA/R/13_Ratio_250_L_2_R_8.png","img/750/equaldotsize/R/15_Ratio_750_L_9_R_12.png","img/900/randomdotsize/R/15_Ratio_900_L_9_R_10.png","img/500/randomdotsizeEA/L/13_Ratio_500_L_12_R_6.png","img/900/randomdotsize/L/8_Ratio_900_L_20_R_18.png","img/900/randomdotsize/L/10_Ratio_900_L_20_R_18.png","img/750/randomdotsize/L/14_Ratio_750_L_8_R_6.png","img/250/randomdotsizeEA/L/15_Ratio_250_L_12_R_3.png","img/750/equaldotsize/L/10_Ratio_750_L_4_R_3.png","img/750/equaldotanddens/R/7_Ratio_750_L_3_R_4.png","img/750/randomdotsize/R/11_Ratio_750_L_12_R_16.png","img/500/equaldotsize/L/5_Ratio_500_L_4_R_2.png","img/750/equaldotsize/R/11_Ratio_750_L_12_R_16.png","img/750/equaldotanddens/L/8_Ratio_750_L_4_R_3.png","img/750/equaldotanddens/R/11_Ratio_750_L_12_R_16.png","img/900/equaldotsize/R/7_Ratio_900_L_9_R_10.png","img/900/randomdotsizeEA/L/10_Ratio_900_L_20_R_18.png","img/750/equaldotanddens/R/12_Ratio_750_L_3_R_4.png","img/250/randomdotsizeEA/R/12_Ratio_250_L_5_R_20.png","img/500/randomdotsizeEA/L/8_Ratio_500_L_8_R_4.png","img/250/equaldotanddens/R/6_Ratio_250_L_6_R_24.png","img/900/randomdotsize/R/14_Ratio_900_L_18_R_20.png","img/500/randomdotsize/L/13_Ratio_500_L_12_R_6.png","img/500/equaldotanddens/L/7_Ratio_500_L_10_R_5.png","img/500/equaldotanddens/L/13_Ratio_500_L_12_R_6.png","img/250/equaldotanddens/L/14_Ratio_250_L_12_R_3.png","img/750/randomdotsize/L/10_Ratio_750_L_4_R_3.png","img/500/equaldotanddens/R/2_Ratio_500_L_3_R_6.png","img/250/equaldotsize/L/15_Ratio_250_L_12_R_3.png","img/900/equaldotsize/L/1_Ratio_900_L_10_R_9.png","img/900/randomdotsize/R/15_Ratio_900_L_9_R_10.png","img/900/equaldotanddens/L/8_Ratio_900_L_20_R_18.png","img/900/equaldotanddens/L/1_Ratio_900_L_10_R_9.png","img/900/randomdotsizeEA/L/10_Ratio_900_L_20_R_18.png","img/250/equaldotsize/L/14_Ratio_250_L_12_R_3.png","img/750/equaldotanddens/R/15_Ratio_750_L_9_R_12.png","img/900/randomdotsizeEA/L/8_Ratio_900_L_20_R_18.png","img/250/equaldotsize/L/3_Ratio_250_L_8_R_2.png","img/250/randomdotsizeEA/L/3_Ratio_250_L_8_R_2.png","img/500/equaldotanddens/R/9_Ratio_500_L_2_R_4.png","img/750/equaldotsize/R/12_Ratio_750_L_3_R_4.png","img/750/randomdotsizeEA/R/5_Ratio_750_L_15_R_20.png","img/900/randomdotsizeEA/R/7_Ratio_900_L_9_R_10.png","img/900/equaldotanddens/R/5_Ratio_900_L_9_R_10.png","img/250/randomdotsize/R/4_Ratio_250_L_3_R_12.png","img/750/equaldotsize/R/4_Ratio_750_L_15_R_20.png","img/250/equaldotsize/R/9_Ratio_250_L_3_R_12.png","img/900/equaldotsize/R/7_Ratio_900_L_9_R_10.png","img/250/equaldotanddens/R/11_Ratio_250_L_3_R_12.png","img/750/randomdotsizeEA/L/14_Ratio_750_L_8_R_6.png","img/750/equaldotsize/R/4_Ratio_750_L_15_R_20.png","img/250/randomdotsize/R/10_Ratio_250_L_4_R_16.png","img/250/randomdotsizeEA/R/4_Ratio_250_L_3_R_12.png","img/900/equaldotsize/R/11_Ratio_900_L_18_R_20.png","img/900/randomdotsize/L/1_Ratio_900_L_10_R_9.png","img/500/randomdotsize/R/15_Ratio_500_L_1_R_2.png","img/250/equaldotsize/R/9_Ratio_250_L_3_R_12.png","img/750/randomdotsizeEA/R/11_Ratio_750_L_12_R_16.png","img/750/equaldotsize/L/8_Ratio_750_L_4_R_3.png","img/900/equaldotanddens/R/12_Ratio_900_L_18_R_20.png","img/250/randomdotsize/L/5_Ratio_250_L_24_R_6.png","img/750/randomdotsize/L/8_Ratio_750_L_4_R_3.png","img/900/equaldotanddens/L/1_Ratio_900_L_10_R_9.png","img/750/equaldotanddens/R/5_Ratio_750_L_15_R_20.png","img/500/equaldotanddens/R/6_Ratio_500_L_9_R_18.png","img/900/equaldotsize/R/7_Ratio_900_L_9_R_10.png","img/250/equaldotsize/R/10_Ratio_250_L_4_R_16.png","img/250/randomdotsizeEA/L/5_Ratio_250_L_24_R_6.png","img/900/randomdotsize/R/15_Ratio_900_L_9_R_10.png","img/250/equaldotsize/L/5_Ratio_250_L_24_R_6.png","img/250/randomdotsizeEA/L/15_Ratio_250_L_12_R_3.png","img/750/equaldotanddens/L/14_Ratio_750_L_8_R_6.png","img/500/equaldotsize/R/14_Ratio_500_L_5_R_10.png","img/900/equaldotanddens/L/4_Ratio_900_L_20_R_18.png","img/500/randomdotsize/L/13_Ratio_500_L_12_R_6.png","img/750/randomdotsize/R/5_Ratio_750_L_15_R_20.png","img/250/equaldotanddens/R/9_Ratio_250_L_3_R_12.png","img/500/randomdotsizeEA/L/11_Ratio_500_L_12_R_6.png","img/500/randomdotsize/R/2_Ratio_500_L_3_R_6.png","img/250/randomdotsize/L/1_Ratio_250_L_8_R_2.png","img/500/equaldotsize/R/2_Ratio_500_L_3_R_6.png","img/900/randomdotsizeEA/R/11_Ratio_900_L_18_R_20.png","img/750/randomdotsizeEA/R/12_Ratio_750_L_3_R_4.png","img/250/equaldotanddens/R/11_Ratio_250_L_3_R_12.png","img/500/randomdotsize/R/1_Ratio_500_L_9_R_18.png","img/500/randomdotsizeEA/R/9_Ratio_500_L_2_R_4.png","img/500/equaldotanddens/L/10_Ratio_500_L_4_R_2.png","img/750/randomdotsize/R/2_Ratio_750_L_6_R_8.png","img/250/randomdotsize/R/8_Ratio_250_L_1_R_4.png","img/900/equaldotsize/R/12_Ratio_900_L_18_R_20.png","img/750/randomdotsize/R/15_Ratio_750_L_9_R_12.png","img/750/randomdotsizeEA/R/5_Ratio_750_L_15_R_20.png","img/750/randomdotsizeEA/R/5_Ratio_750_L_15_R_20.png","img/500/equaldotsize/R/1_Ratio_500_L_9_R_18.png","img/750/equaldotsize/R/15_Ratio_750_L_9_R_12.png","img/500/equaldotsize/L/8_Ratio_500_L_8_R_4.png","img/500/randomdotsizeEA/L/7_Ratio_500_L_10_R_5.png","img/900/randomdotsize/L/8_Ratio_900_L_20_R_18.png","img/900/equaldotanddens/L/1_Ratio_900_L_10_R_9.png","img/250/randomdotsize/R/6_Ratio_250_L_6_R_24.png","img/500/randomdotsizeEA/R/15_Ratio_500_L_1_R_2.png","img/750/randomdotsizeEA/L/13_Ratio_750_L_8_R_6.png","img/250/equaldotanddens/R/11_Ratio_250_L_3_R_12.png"],"Rat0":[["12_Ratio_0_L_9_R_0.png","13_Ratio_0_L_6_R_0.png","5_Ratio_0_L_2_R_0.png","6_Ratio_0_L_4_R_0.png","8_Ratio_0_L_6_R_0.png"],["1_Ratio_0_L_0_R_17.png","10_Ratio_0_L_0_R_22.png","11_Ratio_0_L_0_R_1.png","14_Ratio_0_L_0_R_24.png","15_Ratio_0_L_0_R_4.png","2_Ratio_0_L_0_R_5.png","3_Ratio_0_L_0_R_17.png","4_Ratio_0_L_0_R_7.png","7_Ratio_0_L_0_R_19.png","9_Ratio_0_L_0_R_15.png"]],"Rat250":[["1_Ratio_250_L_8_R_2.png","14_Ratio_250_L_12_R_3.png","15_Ratio_250_L_12_R_3.png","2_Ratio_250_L_16_R_4.png","3_Ratio_250_L_8_R_2.png","5_Ratio_250_L_24_R_6.png","7_Ratio_250_L_8_R_2.png"],["10_Ratio_250_L_4_R_16.png","11_Ratio_250_L_3_R_12.png","12_Ratio_250_L_5_R_20.png","13_Ratio_250_L_2_R_8.png","4_Ratio_250_L_3_R_12.png","6_Ratio_250_L_6_R_24.png","8_Ratio_250_L_1_R_4.png","9_Ratio_250_L_3_R_12.png"]],"Rat500":[["10_Ratio_500_L_4_R_2.png","11_Ratio_500_L_12_R_6.png","13_Ratio_500_L_12_R_6.png","4_Ratio_500_L_18_R_9.png","5_Ratio_500_L_4_R_2.png","7_Ratio_500_L_10_R_5.png","8_Ratio_500_L_8_R_4.png"],["1_Ratio_500_L_9_R_18.png","12_Ratio_500_L_1_R_2.png","14_Ratio_500_L_5_R_10.png","15_Ratio_500_L_1_R_2.png","2_Ratio_500_L_3_R_6.png","3_Ratio_500_L_10_R_20.png","6_Ratio_500_L_9_R_18.png","9_Ratio_500_L_2_R_4.png"]],"Rat750":[["1_Ratio_750_L_20_R_15.png","10_Ratio_750_L_4_R_3.png","13_Ratio_750_L_8_R_6.png","14_Ratio_750_L_8_R_6.png","6_Ratio_750_L_24_R_18.png","8_Ratio_750_L_4_R_3.png","9_Ratio_750_L_4_R_3.png"],["11_Ratio_750_L_12_R_16.png","12_Ratio_750_L_3_R_4.png","15_Ratio_750_L_9_R_12.png","2_Ratio_750_L_6_R_8.png","3_Ratio_750_L_15_R_20.png","4_Ratio_750_L_15_R_20.png","5_Ratio_750_L_15_R_20.png","7_Ratio_750_L_3_R_4.png"]],"Rat900":[["1_Ratio_900_L_10_R_9.png","10_Ratio_900_L_20_R_18.png","2_Ratio_900_L_20_R_18.png","4_Ratio_900_L_20_R_18.png","8_Ratio_900_L_20_R_18.png"],["11_Ratio_900_L_18_R_20.png","12_Ratio_900_L_18_R_20.png","13_Ratio_900_L_18_R_20.png","14_Ratio_900_L_18_R_20.png","15_Ratio_900_L_9_R_10.png","3_Ratio_900_L_9_R_10.png","5_Ratio_900_L_9_R_10.png","6_Ratio_900_L_9_R_10.png","7_Ratio_900_L_9_R_10.png","9_Ratio_900_L_18_R_20.png"]],"Rat1000":[["10_Ratio_1000_L_16_R_16.png","11_Ratio_1000_L_6_R_6.png","12_Ratio_1000_L_14_R_14.png","13_Ratio_1000_L_20_R_20.png","15_Ratio_1000_L_15_R_15.png","2_Ratio_1000_L_17_R_17.png","4_Ratio_1000_L_9_R_9.png","5_Ratio_1000_L_6_R_6.png","6_Ratio_1000_L_19_R_19.png","8_Ratio_1000_L_14_R_14.png","9_Ratio_1000_L_25_R_25.png"],["1_Ratio_1000_L_1_R_1.png","14_Ratio_1000_L_17_R_17.png","3_Ratio_1000_L_17_R_17.png","7_Ratio_1000_L_6_R_6.png"]]}},{"start_time":1452341587467,"click_time":1452341588880,"finger_time":1452341588558,"fix_duration":486.08110434057426,"trial":1,"RT":1091,"MT":322,"sideResp":2,"stimulus":"img/750/equaldotanddens/R/5_Ratio_750_L_15_R_20.png","xmouse":[386,386,386,386,386,386,386,386,386,386,386,386,386,386,386,386,386,386,386,386,386,386,386,386,386,386,386,386,386,386,386,386,386,386,386,386,386,386,386,386,386,386,386,386,386,383.3333435058594,382.66668701171875,382.66668701171875,382.66668701171875,382.66668701171875,382.66668701171875,382,384.66668701171875,386.66668701171875,388,391.3333435058594,394,413.3333435058594,435.3333435058594,446.66668701171875,470.66668701171875,484.66668701171875,555.3333740234375,576,621.3333740234375,638.6666870117188,679.3333740234375,725.3333740234375,737.3333740234375,754.6666870117188,765.3333740234375],"ymouse":[843,843,843,843,843,843,843,843,843,843,843,843,843,843,843,843,843,843,843,843,843,843,843,843,843,843,843,843,843,843,843,843,843,843,843,843,843,843,843,843,843,843,843,843,843,826.6666870117188,823.3333740234375,823.3333740234375,823.3333740234375,823.3333740234375,823.3333740234375,796.6666870117188,780,770.6666870117188,767.3333740234375,762,759.3333740234375,736,702,681.3333740234375,636,609.3333740234375,476,437.3333435058594,362,330,262.66668701171875,181.33334350585938,159.33334350585938,120,86],"timestamp_mouse":[11,41,51,72,91,111,131,152,171,192,211,231,252,271,291,312,331,351,371,391,411,432,451,472,491,511,531,551,571,592,611,632,651,671,691,712,731,751,772,791,811,831,851,871,891,911,931,952,972,991,1011,1032,1052,1071,1091,1112,1131,1153,1171,1192,1211,1231,1252,1271,1291,1312,1331,1352,1371,1391,1411],"xSR":350,"ySR":768,"xT1":30,"yT1":0,"xT2":670,"yT2":0,"toosoon":0,"cond_shown":"equaldotanddens","ratio_trial":750,"smaller_num":"15","larger_num":"20","correct_side":2,"subjID":"45wm","gender":"No_gender","age":"No_age","school":"No_school"},{"start_time":1452341593237,"click_time":1452341594439,"finger_time":1452341594178,"fix_duration":1496.3310401261538,"trial":2,"RT":941,"MT":261,"sideResp":2,"stimulus":"img/500/randomdotsize/R/14_Ratio_500_L_5_R_10.png","xmouse":[413.3333435058594,413.3333435058594,413.3333435058594,413.3333435058594,413.3333435058594,413.3333435058594,413.3333435058594,413.3333435058594,413.3333435058594,413.3333435058594,413.3333435058594,412,412,412,412,412,412,412,412,412,412,408,408,408,408,408,408,408,408,408,408,403.3333435058594,403.3333435058594,403.3333435058594,403.3333435058594,403.3333435058594,403.3333435058594,403.3333435058594,403.3333435058594,403.3333435058594,403.3333435058594,396.66668701171875,396.66668701171875,397.3333435058594,398.66668701171875,399.3333435058594,415.3333435058594,438.66668701171875,454,488.66668701171875,507.3333435058594,568,607.3333740234375,643.3333740234375,656.6666870117188,682.6666870117188,710,716,722.6666870117188,724,726],"ymouse":[840.6666870117188,840,840,840,840,840,840,840,840,840,840,838.6666870117188,838.6666870117188,838.6666870117188,838.6666870117188,838.6666870117188,838.6666870117188,838.6666870117188,838.6666870117188,838.6666870117188,838.6666870117188,836,836,836,836,836,836,836,836,836,836,833.3333740234375,833.3333740234375,833.3333740234375,833.3333740234375,833.3333740234375,833.3333740234375,833.3333740234375,833.3333740234375,833.3333740234375,833.3333740234375,825.3333740234375,825.3333740234375,823.3333740234375,822,820,787.3333740234375,729.3333740234375,694.6666870117188,624,587.3333740234375,472.66668701171875,392,312.66668701171875,280.66668701171875,218,150.6666717529297,135.33334350585938,117.33334350585938,109.33333587646484,98],"timestamp_mouse":[1,33,42,61,81,102,121,141,161,181,201,222,242,261,281,301,322,341,361,381,403,422,441,461,481,502,521,541,561,581,601,623,641,661,682,702,722,741,761,781,802,824,842,862,881,901,921,941,962,981,1001,1021,1041,1061,1081,1101,1121,1141,1161,1181,1202],"xSR":350,"ySR":768,"xT1":30,"yT1":0,"xT2":670,"yT2":0,"toosoon":0,"cond_shown":"randomdotsize","ratio_trial":500,"smaller_num":"5","larger_num":"10","correct_side":2,"subjID":"45wm","gender":"No_gender","age":"No_age","school":"No_school"},{"start_time":1452341596310,"click_time":1452341597538,"finger_time":1452341597298,"fix_duration":250,"trial":3,"RT":988,"MT":240,"sideResp":2,"stimulus":"img/250/randomdotsizeEA/R/13_Ratio_250_L_2_R_8.png","xmouse":[392,392,392,392,392,392,392,392,392,392,392,392,392,392,392,392,392,392,392,392,392,392,392,392,392,392,402,402,402,402,402,401.3333435058594,401.3333435058594,401.3333435058594,401.3333435058594,401.3333435058594,401.3333435058594,401.3333435058594,401.3333435058594,401.3333435058594,391.3333435058594,389.3333435058594,389.3333435058594,388,388.66668701171875,388.66668701171875,390.66668701171875,392.66668701171875,403.3333435058594,426.66668701171875,443.3333435058594,484,505.3333435058594,598,621.3333740234375,663.3333740234375,683.3333740234375,714,742,748,752.6666870117188,752],"ymouse":[821,821,821,821,821,821,821,821,821,821,821,821,821,821,821,821,821,821,821,821,821,821,821,821,821,821,834.6666870117188,834.6666870117188,834.6666870117188,834.6666870117188,834.6666870117188,834.6666870117188,834.6666870117188,834.6666870117188,834.6666870117188,834.6666870117188,834.6666870117188,834.6666870117188,834.6666870117188,834.6666870117188,825.3333740234375,822.6666870117188,821.3333740234375,820,819.3333740234375,819.3333740234375,818.6666870117188,818,804.6666870117188,762.6666870117188,730.6666870117188,654,612.6666870117188,432.66668701171875,388,300.66668701171875,259.3333435058594,198,134,120,100.66667175292969,90],"timestamp_mouse":[9,32,49,68,88,109,128,149,168,188,208,228,249,268,288,309,328,349,368,388,409,428,448,468,489,509,528,548,568,588,608,628,648,669,688,709,728,748,768,788,808,829,848,868,888,908,928,948,968,988,1009,1028,1048,1069,1088,1108,1128,1148,1169,1188,1209,1228],"xSR":350,"ySR":768,"xT1":30,"yT1":0,"xT2":670,"yT2":0,"toosoon":0,"cond_shown":"randomdotsizeEA","ratio_trial":250,"smaller_num":"2","larger_num":"8","correct_side":2,"subjID":"45wm","gender":"No_gender","age":"No_age","school":"No_school"},{"start_time":1452341599539,"click_time":1452341601179,"finger_time":1452341600899,"fix_duration":519.6047318652218,"trial":4,"RT":1360,"MT":280,"sideResp":2,"stimulus":"img/250/equaldotsize/R/6_Ratio_250_L_6_R_24.png","xmouse":[409.3333435058594,409.3333435058594,408.66668701171875,408.66668701171875,408.66668701171875,408.66668701171875,408.66668701171875,408.66668701171875,408.66668701171875,408.66668701171875,408.66668701171875,408.66668701171875,408.66668701171875,408.66668701171875,408,408,408,408,408,408,408,408,408,407.3333435058594,407.3333435058594,407.3333435058594,407.3333435058594,407.3333435058594,407.3333435058594,407.3333435058594,406.66668701171875,406.66668701171875,406.66668701171875,406.66668701171875,406.66668701171875,406.66668701171875,406.66668701171875,406.66668701171875,406.66668701171875,406.66668701171875,406.66668701171875,406.66668701171875,406.66668701171875,406.66668701171875,406.66668701171875,406.66668701171875,406.66668701171875,406.66668701171875,406.66668701171875,406.66668701171875,406.66668701171875,406.66668701171875,406.66668701171875,406.66668701171875,406.66668701171875,406,406,406,406,406,406,406,406,406,406,406,406,406,418,423.3333435058594,438,447.3333435058594,472.66668701171875,527.3333740234375,546.6666870117188,586.6666870117188,603.3333740234375,636.6666870117188,678,699.3333740234375,706,718.6666870117188,720.6666870117188],"ymouse":[808,808,808.6666870117188,809.3333740234375,810,810,810.6666870117188,810.6666870117188,811.3333740234375,811.3333740234375,811.3333740234375,812,812,812.6666870117188,812.6666870117188,812.6666870117188,813.3333740234375,813.3333740234375,813.3333740234375,814,814,814,814.6666870117188,815.3333740234375,815.3333740234375,815.3333740234375,816,816,816,816.6666870117188,816.6666870117188,816.6666870117188,816.6666870117188,816.6666870117188,816.6666870117188,817.3333740234375,817.3333740234375,817.3333740234375,817.3333740234375,817.3333740234375,817.3333740234375,817.3333740234375,817.3333740234375,818,818,818,818,818,818,818,818,818,818.6666870117188,818.6666870117188,818.6666870117188,818.6666870117188,818.6666870117188,818.6666870117188,818.6666870117188,818.6666870117188,818,818,818,818,818,818,818,818,756,736.6666870117188,682.6666870117188,650,581.3333740234375,465.3333435058594,426,351.3333435058594,318,260.66668701171875,184.6666717529297,144,129.33334350585938,104.66667175292969,97.33333587646484],"timestamp_mouse":[4,19,39,59,80,99,119,140,159,180,200,219,239,259,279,299,319,339,359,379,399,419,439,459,489,499,519,540,560,579,599,619,639,659,680,700,719,740,760,779,800,819,839,860,880,899,920,940,959,979,999,1019,1039,1059,1079,1099,1119,1139,1159,1179,1199,1220,1239,1259,1279,1299,1319,1339,1360,1380,1400,1419,1439,1460,1480,1500,1519,1540,1560,1580,1599,1619,1640],"xSR":350,"ySR":768,"xT1":30,"yT1":0,"xT2":670,"yT2":0,"toosoon":0,"cond_shown":"equaldotsize","ratio_trial":250,"smaller_num":"6","larger_num":"24","correct_side":2,"subjID":"45wm","gender":"No_gender","age":"No_age","school":"No_school"},{"start_time":1452341603012,"click_time":1452341605298,"finger_time":1452341604538,"fix_duration":252.6352897455626,"trial":5,"RT":1526,"MT":760,"sideResp":1,"stimulus":"img/500/equaldotsize/L/5_Ratio_500_L_4_R_2.png","xmouse":[393,393,393,393,393,393,393,393,393,393,393,393,393,393,393,393,393,393,393,393,393,393,393,393,393,393,393,393,393,393,393,393,393,393,393,393,393,393,393,393,393,393,393,393,393,393,393,393,393,393,393,393,393,393,393,393,393,393,393,393,393,393,393,393,393,393,393,393,393,393,393,393,393,391.3333435058594,386.66668701171875,373.3333435058594,366.66668701171875,353.3333435058594,348.66668701171875,340.66668701171875,326,314.66668701171875,308,292,284,254,234,224,204.6666717529297,196.6666717529297,182,166,160.6666717529297,153.33334350585938,148,145.33334350585938,140.6666717529297,137.33334350585938,135.33334350585938,133.33334350585938,132.6666717529297,130.6666717529297,130,130,130,130,130,130,130,130,130,130,130,130,125.33333587646484],"ymouse":[831,831,831,831,831,831,831,831,831,831,831,831,831,831,831,831,831,831,831,831,831,831,831,831,831,831,831,831,831,831,831,831,831,831,831,831,831,831,831,831,831,831,831,831,831,831,831,831,831,831,831,831,831,831,831,831,831,831,831,831,831,831,831,831,831,831,831,831,831,831,831,831,831,815.3333740234375,804.6666870117188,776,759.3333740234375,720.6666870117188,703.3333740234375,668.6666870117188,616,576,554,506.66668701171875,485.3333435058594,416,370.66668701171875,349.3333435058594,304.66668701171875,281.3333435058594,240.66668701171875,186.6666717529297,168.6666717529297,137.33334350585938,112.66667175292969,104,91.33333587646484,85.33333587646484,82.66667175292969,78.66667175292969,78,76.66667175292969,76.66667175292969,76.66667175292969,77.33333587646484,77.33333587646484,77.33333587646484,77.33333587646484,77.33333587646484,77.33333587646484,77.33333587646484,77.33333587646484,77.33333587646484,77.33333587646484,76.66667175292969],"timestamp_mouse":[7,27,46,66,86,106,126,146,166,190,206,226,246,266,286,306,326,346,366,386,407,426,446,466,486,506,526,551,566,587,606,626,646,666,686,706,726,746,766,787,806,827,846,867,886,906,926,946,966,987,1006,1026,1046,1067,1086,1106,1126,1146,1166,1186,1206,1226,1247,1266,1286,1306,1326,1346,1366,1386,1406,1426,1446,1466,1486,1508,1526,1546,1566,1586,1607,1627,1646,1666,1686,1708,1726,1746,1766,1787,1807,1826,1846,1866,1886,1906,1927,1946,1966,1986,2006,2027,2046,2066,2086,2107,2126,2146,2166,2186,2206,2226,2246,2266,2286],"xSR":350,"ySR":768,"xT1":30,"yT1":0,"xT2":670,"yT2":0,"toosoon":0,"cond_shown":"equaldotsize","ratio_trial":500,"smaller_num":"2","larger_num":"4","correct_side":1,"subjID":"45wm","gender":"No_gender","age":"No_age","school":"No_school"},{"start_time":1452341607980,"click_time":1452341609218,"finger_time":1452341608758,"fix_duration":919.532377295017,"trial":6,"RT":778,"MT":460,"sideResp":2,"stimulus":"img/900/equaldotsize/R/7_Ratio_900_L_9_R_10.png","xmouse":[400,400,400,400,400,400,400,400,400,400,400,400,400,400,400,400,400,400,400,400,400,400,400,400,400,400,400,400,400,400,400,400,400,400,400,400,402,404.66668701171875,404.66668701171875,415.3333435058594,420.66668701171875,423.3333435058594,427.3333435058594,430.66668701171875,434,434.66668701171875,436.66668701171875,439.3333435058594,450.66668701171875,478.66668701171875,490,520.6666870117188,537.3333740234375,568.6666870117188,607.3333740234375,626,633.3333740234375,644,648,660.6666870117188,668,670.6666870117188,674.6666870117188],"ymouse":[800,800,800,800,800,800,800,800,800,800,800,800,800,800,800,800,800,800,800,800,800,800,800,800,800,800,800,800,800,800,800,800,800,800,800,800,784,780.6666870117188,780.6666870117188,763.3333740234375,754,750,741.3333740234375,734.6666870117188,726.6666870117188,724,718,712.6666870117188,688,633.3333740234375,609.3333740234375,548.6666870117188,518,462,380,333.3333435058594,306.66668701171875,260.66668701171875,238,166,128,111.33333587646484,94],"timestamp_mouse":[1,24,38,59,78,99,119,138,159,179,198,218,238,258,278,298,318,338,358,379,398,419,438,458,479,498,518,538,558,578,598,619,638,658,678,698,718,738,758,778,798,818,838,858,879,898,918,938,958,979,999,1018,1039,1058,1080,1098,1118,1138,1158,1181,1198,1218,1238],"xSR":350,"ySR":768,"xT1":30,"yT1":0,"xT2":670,"yT2":0,"toosoon":0,"cond_shown":"equaldotsize","ratio_trial":900,"smaller_num":"9","larger_num":"10","correct_side":2,"subjID":"45wm","gender":"No_gender","age":"No_age","school":"No_school"},{"start_time":1452341611466,"click_time":1452341612518,"finger_time":1452341612238,"fix_duration":704.1825111041971,"trial":7,"RT":772,"MT":280,"sideResp":1,"stimulus":"img/500/equaldotsize/L/5_Ratio_500_L_4_R_2.png","xmouse":[396.66668701171875,396.66668701171875,396.66668701171875,396.66668701171875,396.66668701171875,396.66668701171875,396.66668701171875,396.66668701171875,396.66668701171875,396.66668701171875,396.66668701171875,396.66668701171875,396.66668701171875,396.66668701171875,396.66668701171875,396.66668701171875,395.3333435058594,395.3333435058594,395.3333435058594,395.3333435058594,395.3333435058594,395.3333435058594,395.3333435058594,395.3333435058594,395.3333435058594,395.3333435058594,395.3333435058594,395.3333435058594,395.3333435058594,395.3333435058594,395.3333435058594,395.3333435058594,395.3333435058594,395.3333435058594,395.3333435058594,395.3333435058594,380,377.3333435058594,367.3333435058594,362,348.66668701171875,338.66668701171875,326,318.66668701171875,300.66668701171875,264.66668701171875,252.6666717529297,226.6666717529297,213.33334350585938,187.33334350585938,150,138,117.33333587646484],"ymouse":[804.6666870117188,804.6666870117188,804.6666870117188,804.6666870117188,804.6666870117188,804.6666870117188,805.3333740234375,805.3333740234375,805.3333740234375,805.3333740234375,805.3333740234375,805.3333740234375,805.3333740234375,805.3333740234375,805.3333740234375,805.3333740234375,805.3333740234375,805.3333740234375,805.3333740234375,805.3333740234375,805.3333740234375,805.3333740234375,805.3333740234375,805.3333740234375,805.3333740234375,805.3333740234375,806,806,806,806,806,806,806,806,806,806,781.3333740234375,772,738.6666870117188,717.3333740234375,646.6666870117188,594,535.3333740234375,502.66668701171875,440,348,320,262.66668701171875,234,186,119.33334350585938,101.33333587646484,71.33333587646484],"timestamp_mouse":[12,33,53,73,92,112,132,152,172,192,212,233,252,272,292,312,332,352,372,392,413,432,453,472,493,513,532,552,572,593,612,632,652,672,692,712,732,752,772,793,814,832,853,872,892,913,933,953,973,992,1013,1032,1052],"xSR":350,"ySR":768,"xT1":30,"yT1":0,"xT2":670,"yT2":0,"toosoon":0,"cond_shown":"equaldotsize","ratio_trial":500,"smaller_num":"2","larger_num":"4","correct_side":1,"subjID":"45wm","gender":"No_gender","age":"No_age","school":"No_school"},{"start_time":1452341614449,"click_time":1452341615719,"finger_time":1452341615438,"fix_duration":524.2964963187698,"trial":8,"RT":989,"MT":281,"sideResp":1,"stimulus":"img/900/randomdotsizeEA/R/5_Ratio_900_L_9_R_10.png","xmouse":[408,408,408,408,405.3333435058594,405.3333435058594,405.3333435058594,405.3333435058594,404.66668701171875,404.66668701171875,404.66668701171875,404.66668701171875,404.66668701171875,404.66668701171875,405.3333435058594,405.3333435058594,405.3333435058594,405.3333435058594,405.3333435058594,405.3333435058594,405.3333435058594,405.3333435058594,405.3333435058594,405.3333435058594,405.3333435058594,405.3333435058594,405.3333435058594,405.3333435058594,405.3333435058594,405.3333435058594,404.66668701171875,404.66668701171875,404.66668701171875,404.66668701171875,404.66668701171875,404.66668701171875,404.66668701171875,404.66668701171875,404.66668701171875,404.66668701171875,404,404,404,404,404,404,404,400.66668701171875,393.3333435058594,380,374,362,341.3333435058594,332,309.3333435058594,296.66668701171875,272,234.6666717529297,223.33334350585938,200.6666717529297,190,169.33334350585938,159.33334350585938,128],"ymouse":[836.6666870117188,836.6666870117188,836.6666870117188,836.6666870117188,834,834,834,832.6666870117188,832,832,832,832,832,831.3333740234375,831.3333740234375,831.3333740234375,831.3333740234375,832,832,832,832,832,832,832,832,832,832,832,832,832,832,832,832,832,832,832,832,832,832,832,832,832,832,832,832,832,832,826,803.3333740234375,762,737.3333740234375,684.6666870117188,588,555.3333740234375,486.66668701171875,452,383.3333435058594,277.3333435058594,247.33334350585938,191.33334350585938,166.6666717529297,126,108,63.333335876464844],"timestamp_mouse":[20,30,50,70,90,109,129,149,170,189,209,229,249,269,290,309,329,350,369,389,409,429,449,469,490,509,529,549,569,589,609,629,649,669,689,710,729,749,770,790,809,829,849,869,889,909,929,951,969,989,1009,1030,1050,1069,1089,1109,1129,1151,1169,1190,1209,1229,1249,1270],"xSR":350,"ySR":768,"xT1":30,"yT1":0,"xT2":670,"yT2":0,"toosoon":0,"cond_shown":"randomdotsizeEA","ratio_trial":900,"smaller_num":"9","larger_num":"10","correct_side":2,"subjID":"45wm","gender":"No_gender","age":"No_age","school":"No_school"},{"start_time":1452341617911,"click_time":1452341620358,"finger_time":1452341620158,"fix_duration":571.8080710554813,"trial":9,"RT":2247,"MT":200,"sideResp":1,"stimulus":"img/900/randomdotsizeEA/L/10_Ratio_900_L_20_R_18.png","xmouse":[386.66668701171875,386,386,385.3333435058594,384.66668701171875,384,383.3333435058594,383.3333435058594,383.3333435058594,383.3333435058594,383.3333435058594,383.3333435058594,383.3333435058594,383.3333435058594,383.3333435058594,383.3333435058594,383.3333435058594,383.3333435058594,383.3333435058594,383.3333435058594,383.3333435058594,383.3333435058594,383.3333435058594,383.3333435058594,383.3333435058594,383.3333435058594,386.66668701171875,386.66668701171875,386.66668701171875,386.66668701171875,386.66668701171875,386.66668701171875,386.66668701171875,386.66668701171875,386.66668701171875,386.66668701171875,388,388,388,388,388,388,388,388,388,388,384,384,384,384,381.3333435058594,380.66668701171875,380,379.3333435058594,379.3333435058594,379.3333435058594,379.3333435058594,379.3333435058594,379.3333435058594,378.66668701171875,378,377.3333435058594,376.66668701171875,376.66668701171875,376.66668701171875,376.66668701171875,377.3333435058594,377.3333435058594,377.3333435058594,377.3333435058594,377.3333435058594,377.3333435058594,377.3333435058594,377.3333435058594,377.3333435058594,377.3333435058594,378,378,378,378,378,378,378,378,378,378,382.66668701171875,382.66668701171875,382.66668701171875,382.66668701171875,382.66668701171875,382.66668701171875,382.66668701171875,382.66668701171875,382.66668701171875,382.66668701171875,380,380,380,380,380,380,380,380,380,380,379.3333435058594,379.3333435058594,379.3333435058594,379.3333435058594,379.3333435058594,379.3333435058594,339.3333435058594,318.66668701171875,308,284.66668701171875,244.6666717529297,230,202,189.33334350585938,164.6666717529297,130,109.33333587646484],"ymouse":[833.3333740234375,833.3333740234375,833.3333740234375,833.3333740234375,832.6666870117188,832.6666870117188,832.6666870117188,832.6666870117188,832.6666870117188,832.6666870117188,832.6666870117188,832.6666870117188,832.6666870117188,832.6666870117188,832.6666870117188,833.3333740234375,834,834,834,834,834,834,834,834,834,834,843.3333740234375,843.3333740234375,843.3333740234375,843.3333740234375,843.3333740234375,843.3333740234375,843.3333740234375,843.3333740234375,843.3333740234375,843.3333740234375,844,844,844,844,844,844,844,844,844,844,838,838,838,838,832,830.6666870117188,829.3333740234375,828.6666870117188,828,827.3333740234375,826.6666870117188,826.6666870117188,826,826,826,826,826,826,825.3333740234375,825.3333740234375,824,824,824,824,824,824,824,824,824,824,812.6666870117188,812.6666870117188,812.6666870117188,812.6666870117188,812.6666870117188,812.6666870117188,812.6666870117188,812.6666870117188,812.6666870117188,812.6666870117188,815.3333740234375,815.3333740234375,815.3333740234375,815.3333740234375,815.3333740234375,815.3333740234375,815.3333740234375,815.3333740234375,815.3333740234375,815.3333740234375,818,818,818,818,818,818,818,818,818,818,818.6666870117188,818.6666870117188,818.6666870117188,818.6666870117188,818.6666870117188,818.6666870117188,724,643.3333740234375,600.6666870117188,515.3333740234375,390.66668701171875,350,273.3333435058594,241.33334350585938,171.33334350585938,87.33333587646484,52.66667175292969],"timestamp_mouse":[9,39,48,67,88,108,127,147,167,188,208,227,247,268,287,307,327,347,367,387,407,428,447,467,487,507,527,547,567,587,607,627,647,667,688,707,727,747,767,787,807,827,847,867,887,908,930,947,967,987,1009,1028,1047,1067,1087,1107,1129,1148,1167,1188,1207,1227,1247,1267,1287,1307,1328,1348,1367,1388,1407,1427,1448,1467,1487,1508,1527,1547,1567,1587,1607,1627,1647,1667,1687,1708,1730,1747,1767,1788,1807,1827,1848,1868,1887,1908,1929,1947,1967,1987,2007,2027,2047,2068,2087,2108,2129,2148,2167,2187,2207,2227,2247,2268,2287,2307,2327,2347,2367,2388,2408,2427,2447],"xSR":350,"ySR":768,"xT1":30,"yT1":0,"xT2":670,"yT2":0,"toosoon":0,"cond_shown":"randomdotsizeEA","ratio_trial":900,"smaller_num":"18","larger_num":"20","correct_side":1,"subjID":"45wm","gender":"No_gender","age":"No_age","school":"No_school"},{"start_time":1452341622057,"click_time":1452341623478,"finger_time":1452341623098,"fix_duration":518.7745948031113,"trial":10,"RT":1041,"MT":380,"sideResp":2,"stimulus":"img/500/equaldotsize/R/2_Ratio_500_L_3_R_6.png","xmouse":[416,416,416,416,416,416,416,416,416,416,416,416,416,416,416,416,416,416,416,416,416,416,416,416,416,416,416,416,417.3333435058594,417.3333435058594,417.3333435058594,417.3333435058594,417.3333435058594,417.3333435058594,417.3333435058594,417.3333435058594,417.3333435058594,417.3333435058594,414.66668701171875,414.66668701171875,414.66668701171875,414.66668701171875,406,406,406,406,406,406,412,412,412,416,418,420,420,441.3333435058594,448,462,469.3333435058594,487.3333435058594,515.3333740234375,534,544,567.3333740234375,580.6666870117188,615.3333740234375,638,648,669.3333740234375,680.6666870117188,698.6666870117188,716.6666870117188],"ymouse":[828,828,828,828,828,828,828,828,826.6666870117188,826.6666870117188,826.6666870117188,826.6666870117188,826.6666870117188,826.6666870117188,826.6666870117188,826.6666870117188,826.6666870117188,826.6666870117188,826.6666870117188,826.6666870117188,826.6666870117188,826.6666870117188,826.6666870117188,826.6666870117188,826.6666870117188,826.6666870117188,826.6666870117188,826.6666870117188,826.6666870117188,826.6666870117188,826.6666870117188,826.6666870117188,826.6666870117188,826.6666870117188,826.6666870117188,826.6666870117188,826.6666870117188,826.6666870117188,823.3333740234375,823.3333740234375,823.3333740234375,823.3333740234375,820,818,816.6666870117188,816.6666870117188,816.6666870117188,816.6666870117188,799.3333740234375,799.3333740234375,799.3333740234375,770.6666870117188,759.3333740234375,752,752,682,664.6666870117188,626.6666870117188,606,561.3333740234375,487.3333435058594,439.3333435058594,417.3333435058594,363.3333435058594,335.3333435058594,263.3333435058594,216.6666717529297,194,152.6666717529297,133.33334350585938,102.66667175292969,74],"timestamp_mouse":[1,31,41,61,82,101,122,142,161,182,201,221,241,261,282,301,322,341,361,381,402,421,442,461,481,501,529,542,562,581,602,621,641,661,681,701,721,741,761,781,804,821,841,861,881,903,922,942,961,981,1001,1021,1041,1061,1081,1103,1122,1145,1161,1182,1203,1221,1242,1261,1282,1302,1321,1341,1361,1381,1402,1421],"xSR":350,"ySR":768,"xT1":30,"yT1":0,"xT2":670,"yT2":0,"toosoon":0,"cond_shown":"equaldotsize","ratio_trial":500,"smaller_num":"3","larger_num":"6","correct_side":2,"subjID":"45wm","gender":"No_gender","age":"No_age","school":"No_school"},{"start_time":1452341625713,"click_time":1452341626919,"finger_time":1452341626738,"fix_duration":1053.395791943384,"trial":11,"RT":1025,"MT":181,"sideResp":2,"stimulus":"img/500/equaldotanddens/R/6_Ratio_500_L_9_R_18.png","xmouse":[396.66668701171875,396.66668701171875,396.66668701171875,396.66668701171875,396.66668701171875,396.66668701171875,396.66668701171875,396.66668701171875,397.3333435058594,397.3333435058594,397.3333435058594,398,398,398,398,398,398,398,398,398,398,398,398,398,398,398.66668701171875,398.66668701171875,398.66668701171875,398.66668701171875,398.66668701171875,398,398,398,398,398,398,398,398,398,398,398,398,398,398,398,398,398,398,398,398,398,420.66668701171875,434.66668701171875,486,528.6666870117188,551.3333740234375,600.6666870117188,649.3333740234375,670.6666870117188,719.3333740234375,746],"ymouse":[810,810,810,810,810,810,810,810,815.3333740234375,816,816,816,816,816.6666870117188,816.6666870117188,816.6666870117188,816.6666870117188,816.6666870117188,816.6666870117188,817.3333740234375,817.3333740234375,817.3333740234375,817.3333740234375,817.3333740234375,817.3333740234375,818,818,818,818,818,818.6666870117188,818,818,818,818,818,818,818,818,818,818,818,818,818,818,817.3333740234375,817.3333740234375,817.3333740234375,817.3333740234375,817.3333740234375,817.3333740234375,741.3333740234375,706.6666870117188,582.6666870117188,490,442,342,248.66668701171875,206,118,80],"timestamp_mouse":[5,29,45,66,85,105,126,145,166,185,206,225,245,266,285,306,325,345,365,385,405,425,445,465,486,506,526,545,565,586,605,625,645,666,685,705,725,745,765,785,805,825,845,865,885,906,925,945,965,985,1005,1025,1045,1067,1085,1105,1125,1145,1165,1185,1206],"xSR":350,"ySR":768,"xT1":30,"yT1":0,"xT2":670,"yT2":0,"toosoon":0,"cond_shown":"equaldotanddens","ratio_trial":500,"smaller_num":"9","larger_num":"18","correct_side":2,"subjID":"45wm","gender":"No_gender","age":"No_age","school":"No_school"},{"start_time":1452341628790,"click_time":1452341629959,"finger_time":1452341629738,"fix_duration":290.0563886810179,"trial":12,"RT":948,"MT":221,"sideResp":1,"stimulus":"img/900/equaldotanddens/L/4_Ratio_900_L_20_R_18.png","xmouse":[389,389,389,389,389,389,389,389,389,389,389,389,389,389,389,389,389,389,389,389,389,389,389,389,389,389,389,389,389,389,389,389,389,389,389,389,389,389,389,389,389,389,389,389,385.3333435058594,377.3333435058594,377.3333435058594,351.3333435058594,342.66668701171875,322.66668701171875,289.3333435058594,263.3333435058594,248.6666717529297,220.6666717529297,204.6666717529297,159.33334350585938,126.66667175292969,110.66667175292969,84.66667175292969],"ymouse":[824,824,824,824,824,824,824,824,824,824,824,824,824,824,824,824,824,824,824,824,824,824,824,824,824,824,824,824,824,824,824,824,824,824,824,824,824,824,824,824,824,824,824,824,807.3333740234375,784.6666870117188,784.6666870117188,722.6666870117188,699.3333740234375,647.3333740234375,548.6666870117188,473.3333435058594,434,358,314,200.6666717529297,134,108,73.33333587646484],"timestamp_mouse":[8,28,49,68,88,108,128,156,168,188,208,228,248,268,289,308,328,348,369,388,408,428,448,469,488,508,528,548,568,588,608,628,648,668,688,708,729,749,768,789,809,828,848,868,888,911,929,948,968,988,1010,1028,1048,1068,1089,1110,1128,1148,1169],"xSR":350,"ySR":768,"xT1":30,"yT1":0,"xT2":670,"yT2":0,"toosoon":0,"cond_shown":"equaldotanddens","ratio_trial":900,"smaller_num":"18","larger_num":"20","correct_side":1,"subjID":"45wm","gender":"No_gender","age":"No_age","school":"No_school"},{"start_time":1452341631357,"click_time":1452341632320,"finger_time":1452341632119,"fix_duration":250,"trial":13,"RT":762,"MT":201,"sideResp":2,"stimulus":"img/500/equaldotanddens/R/6_Ratio_500_L_9_R_18.png","xmouse":[410,410,410,410,410,410,410,410,406.66668701171875,406.66668701171875,406.66668701171875,406.66668701171875,406.66668701171875,406.66668701171875,406.66668701171875,406.66668701171875,406.66668701171875,406.66668701171875,408.66668701171875,408.66668701171875,408.66668701171875,408.66668701171875,408.66668701171875,408.66668701171875,408.66668701171875,408.66668701171875,408.66668701171875,408.66668701171875,408.66668701171875,408,408,408,408,408,408,408,408,412,429.3333435058594,441.3333435058594,472,491.3333435058594,536,604.6666870117188,649.3333740234375,666,696,708,724],"ymouse":[850,850,850,850,850,850,850,850,850,850,850,850,850,850,850,850,850,850,850.6666870117188,850.6666870117188,850.6666870117188,850.6666870117188,850.6666870117188,850.6666870117188,850.6666870117188,850.6666870117188,850.6666870117188,850.6666870117188,850.6666870117188,850,850,850,850,850,850,850,850,830,767.3333740234375,736.6666870117188,666.6666870117188,626.6666870117188,535.3333740234375,386.66668701171875,292,252,180,148,88],"timestamp_mouse":[4,21,41,62,82,101,121,141,161,181,201,221,241,261,282,301,322,342,361,381,401,421,442,461,481,502,521,541,561,581,601,621,641,661,681,701,721,742,762,782,802,821,841,863,882,901,922,941,963],"xSR":350,"ySR":768,"xT1":30,"yT1":0,"xT2":670,"yT2":0,"toosoon":0,"cond_shown":"equaldotanddens","ratio_trial":500,"smaller_num":"9","larger_num":"18","correct_side":2,"subjID":"45wm","gender":"No_gender","age":"No_age","school":"No_school"},{"start_time":1452341634147,"click_time":1452341636318,"finger_time":1452341635978,"fix_duration":833.1805343391657,"trial":14,"RT":1831,"MT":340,"sideResp":2,"stimulus":"img/900/equaldotsize/R/13_Ratio_900_L_18_R_20.png","xmouse":[396,396,396,396,396,396,396,395.3333435058594,395.3333435058594,395.3333435058594,395.3333435058594,395.3333435058594,395.3333435058594,395.3333435058594,395.3333435058594,395.3333435058594,395.3333435058594,395.3333435058594,395.3333435058594,395.3333435058594,392.66668701171875,392.66668701171875,392.66668701171875,392.66668701171875,392.66668701171875,392.66668701171875,392.66668701171875,392.66668701171875,392.66668701171875,392.66668701171875,389.3333435058594,389.3333435058594,389.3333435058594,389.3333435058594,389.3333435058594,389.3333435058594,389.3333435058594,389.3333435058594,389.3333435058594,387.3333435058594,386.66668701171875,386.66668701171875,386.66668701171875,386,386,386,386.66668701171875,386.66668701171875,386.66668701171875,386.66668701171875,386.66668701171875,386.66668701171875,386.66668701171875,386.66668701171875,386.66668701171875,386.66668701171875,386.66668701171875,386.66668701171875,386.66668701171875,386.66668701171875,386.66668701171875,386.66668701171875,386.66668701171875,386.66668701171875,386.66668701171875,386.66668701171875,390,390,390,390,390,390,390,390,390,390,391.3333435058594,391.3333435058594,391.3333435058594,391.3333435058594,391.3333435058594,391.3333435058594,391.3333435058594,391.3333435058594,391.3333435058594,391.3333435058594,393.3333435058594,393.3333435058594,395.3333435058594,396,397.3333435058594,402.66668701171875,420,438,448.66668701171875,474.66668701171875,525.3333740234375,544.6666870117188,586.6666870117188,603.3333740234375,655.3333740234375,674.6666870117188,682,688,692.6666870117188,694,696,698,699.3333740234375,700.6666870117188],"ymouse":[820,820,820,820,820,820,820,820.6666870117188,820.6666870117188,820.6666870117188,821.3333740234375,821.3333740234375,821.3333740234375,821.3333740234375,821.3333740234375,821.3333740234375,821.3333740234375,821.3333740234375,821.3333740234375,821.3333740234375,824,824,824,824,824,824,824,824,824,824,826,826,826,826,826,826,826,826,826,826,826,826,825.3333740234375,825.3333740234375,824.6666870117188,822.6666870117188,821.3333740234375,821.3333740234375,821.3333740234375,821.3333740234375,821.3333740234375,821.3333740234375,821.3333740234375,821.3333740234375,821.3333740234375,821.3333740234375,818,818,818,818,818,818,818,818,818,818,816.6666870117188,816.6666870117188,816.6666870117188,816.6666870117188,816.6666870117188,816.6666870117188,816.6666870117188,816.6666870117188,816.6666870117188,816.6666870117188,814.6666870117188,814.6666870117188,814.6666870117188,814.6666870117188,814.6666870117188,814.6666870117188,814.6666870117188,814.6666870117188,814.6666870117188,814.6666870117188,809.3333740234375,809.3333740234375,802,800,796.6666870117188,780,725.3333740234375,676,651.3333740234375,598.6666870117188,495.3333435058594,456,375.3333435058594,340,238.6666717529297,190.6666717529297,174,150,132.6666717529297,126.66667175292969,114,105.33333587646484,102.66667175292969,98],"timestamp_mouse":[8,11,42,51,72,91,111,131,151,171,191,211,231,252,271,291,311,331,351,371,393,411,431,452,472,491,512,532,551,571,591,611,631,651,671,692,711,731,751,771,791,811,831,851,871,892,911,932,952,972,991,1011,1031,1051,1072,1091,1111,1131,1151,1171,1191,1211,1231,1251,1271,1291,1313,1332,1351,1371,1391,1411,1432,1451,1471,1491,1511,1531,1551,1572,1591,1611,1631,1651,1671,1691,1713,1731,1751,1771,1791,1811,1831,1851,1871,1891,1911,1931,1951,1972,1994,2011,2031,2052,2071,2092,2111,2131,2152,2171],"xSR":350,"ySR":768,"xT1":30,"yT1":0,"xT2":670,"yT2":0,"toosoon":0,"cond_shown":"equaldotsize","ratio_trial":900,"smaller_num":"18","larger_num":"20","correct_side":2,"subjID":"45wm","gender":"No_gender","age":"No_age","school":"No_school"},{"start_time":1452341638546,"click_time":1452341639980,"finger_time":1452341639678,"fix_duration":326.90016575571747,"trial":15,"RT":1132,"MT":302,"sideResp":1,"stimulus":"img/750/randomdotsizeEA/L/13_Ratio_750_L_8_R_6.png","xmouse":[393,393,393,393,393,393,393,393,393,393,393,393,393,393,393,393,393,393,393,393,393,393,393,393,393,393,393,393,393,393,393,393,393,393,393,393,393,393,393,393,393,393,393,393,393,393,393,393,393,393,393,393,393,393,378.66668701171875,374.66668701171875,352.66668701171875,335.3333435058594,325.3333435058594,306.66668701171875,296.66668701171875,264.66668701171875,241.33334350585938,228.6666717529297,206.6666717529297,196,167.33334350585938,149.33334350585938,140.6666717529297,124.66667175292969,109.33333587646484,91.33333587646484],"ymouse":[827,827,827,827,827,827,827,827,827,827,827,827,827,827,827,827,827,827,827,827,827,827,827,827,827,827,827,827,827,827,827,827,827,827,827,827,827,827,827,827,827,827,827,827,827,827,827,827,827,827,827,827,827,827,810.6666870117188,796.6666870117188,735.3333740234375,690.6666870117188,665.3333740234375,614,587.3333740234375,504,450,420,364,336,256.66668701171875,212.6666717529297,190.6666717529297,153.33334350585938,121.33334350585938,84.66667175292969],"timestamp_mouse":[13,32,53,72,92,113,132,152,172,192,213,232,252,272,292,312,332,352,372,392,413,432,452,473,492,513,532,552,572,592,612,632,653,672,692,713,732,752,773,793,812,832,852,872,892,912,932,952,972,992,1012,1032,1052,1072,1092,1112,1132,1152,1172,1192,1212,1234,1253,1272,1292,1312,1332,1352,1373,1392,1412,1434],"xSR":350,"ySR":768,"xT1":30,"yT1":0,"xT2":670,"yT2":0,"toosoon":0,"cond_shown":"randomdotsizeEA","ratio_trial":750,"smaller_num":"6","larger_num":"8","correct_side":1,"subjID":"45wm","gender":"No_gender","age":"No_age","school":"No_school"},{"start_time":1452341642105,"click_time":1452341643519,"finger_time":1452341643278,"fix_duration":346.2630728702092,"trial":16,"RT":1173,"MT":241,"sideResp":2,"stimulus":"img/250/randomdotsize/R/13_Ratio_250_L_2_R_8.png","xmouse":[420,420,420,420,420,420,420,420,420,420,420,420,420,420,420,420,420,420,420,420,420,420,420,420,420,420,420,420,420,420,420,420,420,420,420,420,420,420,420,420,420,420,420,420,420,420,420,420,420,420,420,420,420,420,420,432.66668701171875,435.3333435058594,435.3333435058594,459.3333435058594,503.3333435058594,541.3333740234375,562.6666870117188,602,622.6666870117188,676,704,715.3333740234375,724.6666870117188,727.3333740234375,729.3333740234375,732.6666870117188],"ymouse":[802,802,802,802,802,802,802,802,802,802,802,802,802,802,802,802,802,802,802,802,802,802,802,802,802,802,802,802,802,802,802,802,802,802,802,802,802,802,802,802,802,802,802,802,802,802,802,802,802,802,802,802,802,802,802,790,780.6666870117188,780.6666870117188,718,618,541.3333740234375,502,423.3333435058594,384.66668701171875,269.3333435058594,205.33334350585938,180,148,136.6666717529297,118,88],"timestamp_mouse":[14,33,54,74,94,113,134,154,173,193,213,233,253,274,293,314,333,353,373,393,413,433,453,473,493,514,533,554,573,593,613,633,654,674,693,713,733,754,773,793,814,833,853,873,893,913,934,954,973,993,1014,1033,1054,1074,1093,1114,1133,1153,1173,1195,1213,1234,1253,1273,1295,1313,1333,1353,1373,1393,1414],"xSR":350,"ySR":768,"xT1":30,"yT1":0,"xT2":670,"yT2":0,"toosoon":0,"cond_shown":"randomdotsize","ratio_trial":250,"smaller_num":"2","larger_num":"8","correct_side":2,"subjID":"45wm","gender":"No_gender","age":"No_age","school":"No_school"},{"start_time":1452341645250,"click_time":1452341647819,"finger_time":1452341647318,"fix_duration":250,"trial":17,"RT":2068,"MT":501,"sideResp":1,"stimulus":"img/500/randomdotsize/L/5_Ratio_500_L_4_R_2.png","xmouse":[404.66668701171875,404,404,404,404,404,404,404,404,404,403.3333435058594,403.3333435058594,403.3333435058594,402.66668701171875,402.66668701171875,402.66668701171875,402.66668701171875,402.66668701171875,402.66668701171875,402.66668701171875,402,402,402,402,402,401.3333435058594,401.3333435058594,401.3333435058594,401.3333435058594,400.66668701171875,400.66668701171875,400.66668701171875,400.66668701171875,400.66668701171875,400.66668701171875,400,400,400,400,400,400,400,400,400,400,399.3333435058594,399.3333435058594,399.3333435058594,399.3333435058594,398.66668701171875,398.66668701171875,398.66668701171875,398.66668701171875,398.66668701171875,398.66668701171875,398.66668701171875,398,398,398,398,397.3333435058594,397.3333435058594,397.3333435058594,397.3333435058594,397.3333435058594,397.3333435058594,396.66668701171875,396.66668701171875,396.66668701171875,396.66668701171875,396,396,396,396,396,396,395.3333435058594,395.3333435058594,395.3333435058594,395.3333435058594,395.3333435058594,395.3333435058594,395.3333435058594,394.66668701171875,394.66668701171875,394.66668701171875,394.66668701171875,394,394,394,394,394,394,394,394,388,385.3333435058594,384,377.3333435058594,372.66668701171875,370,364.66668701171875,362.66668701171875,358.66668701171875,352,348.66668701171875,342,334.66668701171875,330.66668701171875,316.66668701171875,306,300,290,283.3333435058594,263.3333435058594,249.33334350585938,242,228.6666717529297,216.6666717529297,198.6666717529297,192.6666717529297,180,175.33334350585938,162.6666717529297,146.6666717529297,142,132,127.33334350585938,120.66667175292969],"ymouse":[825.3333740234375,825.3333740234375,826,826.6666870117188,826.6666870117188,827.3333740234375,827.3333740234375,828,828,828.6666870117188,828.6666870117188,828.6666870117188,828.6666870117188,829.3333740234375,829.3333740234375,829.3333740234375,829.3333740234375,829.3333740234375,829.3333740234375,829.3333740234375,829.3333740234375,830,830,830,830,830.6666870117188,830.6666870117188,830.6666870117188,830.6666870117188,830.6666870117188,831.3333740234375,831.3333740234375,831.3333740234375,832,832,832,832,832,832.6666870117188,832.6666870117188,832.6666870117188,832.6666870117188,833.3333740234375,833.3333740234375,833.3333740234375,833.3333740234375,834,834,834,834,834,834.6666870117188,834.6666870117188,834.6666870117188,834.6666870117188,834.6666870117188,835.3333740234375,835.3333740234375,835.3333740234375,835.3333740234375,835.3333740234375,835.3333740234375,836,836,836,836,836,836,836,836,836,836.6666870117188,836.6666870117188,836.6666870117188,836.6666870117188,836.6666870117188,836.6666870117188,836.6666870117188,836.6666870117188,836.6666870117188,837.3333740234375,837.3333740234375,837.3333740234375,837.3333740234375,837.3333740234375,837.3333740234375,836.6666870117188,836.6666870117188,836.6666870117188,836.6666870117188,836.6666870117188,836.6666870117188,836.6666870117188,836.6666870117188,836.6666870117188,811.3333740234375,806,803.3333740234375,794.6666870117188,788,784,774.6666870117188,770,755.3333740234375,716,698,662.6666870117188,634,620,578.6666870117188,551.3333740234375,537.3333740234375,512.6666870117188,498.66668701171875,458.66668701171875,428.66668701171875,414,382.66668701171875,350.66668701171875,303.3333435058594,286.66668701171875,253.33334350585938,236.6666717529297,207.33334350585938,162,146,116,102.66667175292969,84.66667175292969],"timestamp_mouse":[8,28,49,69,88,108,129,148,168,189,208,228,248,269,289,308,328,348,368,388,408,428,449,468,489,508,528,549,568,589,608,628,648,668,688,708,728,748,768,788,809,832,848,868,888,908,928,948,969,988,1008,1028,1048,1068,1088,1108,1128,1148,1168,1188,1208,1229,1248,1268,1289,1308,1328,1348,1384,1388,1408,1428,1449,1468,1488,1508,1528,1548,1568,1588,1608,1629,1648,1668,1688,1708,1728,1748,1768,1788,1808,1829,1848,1869,1889,1908,1928,1948,1970,1988,2008,2028,2048,2068,2088,2108,2128,2148,2169,2188,2208,2228,2249,2268,2291,2308,2329,2348,2368,2391,2408,2428,2448,2468,2489,2508,2528,2548,2568],"xSR":350,"ySR":768,"xT1":30,"yT1":0,"xT2":670,"yT2":0,"toosoon":0,"cond_shown":"randomdotsize","ratio_trial":500,"smaller_num":"2","larger_num":"4","correct_side":1,"subjID":"45wm","gender":"No_gender","age":"No_age","school":"No_school"},{"start_time":1452341650754,"click_time":1452341654118,"finger_time":1452341653838,"fix_duration":1210.4820117011911,"trial":18,"RT":3084,"MT":280,"sideResp":2,"stimulus":"img/900/randomdotsizeEA/L/1_Ratio_900_L_10_R_9.png","xmouse":[414,414,414,414,414,414,414,414,414,414,414,414,414,414,414,414,414,414,414,414,414,414,414,414,414,414,414,414,414,414,414,414,414,414,414,414,414,414,414,414,414,414,414,414,414,414,414,414,414,414,414,414,414,414,414,414,414,414,414,414,414,414,414,414,414,414,414,414,414,414,414,414,414,414,414,414,414,414,414,414,414,414,414,414,414,414,414,414,414,414,414,414,414,414,414,414,414,414,414,414,414,414,414,414,414,414,414,414,414,414,414,414,414,414,414,414,414,414,414,414,414,414,414,414,414,414,414,414,414,414,414,414,414,414,414,414,414,414,414,414,414,414,414,414,414,414,414,414,414,414,414,412.66668701171875,420.66668701171875,420.66668701171875,440,448.66668701171875,482.66668701171875,512,527.3333740234375,556.6666870117188,588,636.6666870117188,654.6666870117188,684.6666870117188,698,718.6666870117188,733.3333740234375,734.6666870117188,732.6666870117188],"ymouse":[829,829,829,829,829,829,829,829,829,829,829,829,829,829,829,829,829,829,829,829,829,829,829,829,829,829,829,829,829,829,829,829,829,829,829,829,829,829,829,829,829,829,829,829,829,829,829,829,829,829,829,829,829,829,829,829,829,829,829,829,829,829,829,829,829,829,829,829,829,829,829,829,829,829,829,829,829,829,829,829,829,829,829,829,829,829,829,829,829,829,829,829,829,829,829,829,829,829,829,829,829,829,829,829,829,829,829,829,829,829,829,829,829,829,829,829,829,829,829,829,829,829,829,829,829,829,829,829,829,829,829,829,829,829,829,829,829,829,829,829,829,829,829,829,829,829,829,829,829,829,829,812.6666870117188,798.6666870117188,798.6666870117188,745.3333740234375,719.3333740234375,628.6666870117188,566.6666870117188,537.3333740234375,479.3333435058594,421.3333435058594,336,306,251.33334350585938,227.33334350585938,182,122,104,72],"timestamp_mouse":[7,33,44,64,84,104,125,144,164,184,204,224,244,265,284,304,324,345,364,385,405,424,445,464,484,504,525,545,564,584,604,624,645,664,684,704,725,744,764,784,804,825,844,864,884,904,924,944,964,984,1004,1024,1044,1064,1085,1104,1124,1145,1164,1184,1204,1224,1245,1264,1284,1304,1324,1344,1364,1384,1405,1425,1444,1464,1484,1504,1524,1544,1565,1584,1604,1624,1645,1664,1684,1704,1724,1744,1764,1785,1804,1825,1844,1864,1884,1904,1925,1944,1964,1985,2004,2025,2044,2064,2085,2105,2125,2145,2165,2185,2204,2224,2244,2264,2285,2304,2324,2344,2364,2384,2404,2424,2444,2464,2484,2504,2524,2544,2564,2584,2604,2624,2644,2664,2684,2704,2724,2744,2764,2784,2804,2824,2844,2864,2885,2904,2924,2944,2964,2985,3004,3024,3044,3064,3084,3104,3124,3144,3164,3184,3204,3224,3244,3264,3284,3304,3324,3344,3364],"xSR":350,"ySR":768,"xT1":30,"yT1":0,"xT2":670,"yT2":0,"toosoon":0,"cond_shown":"randomdotsizeEA","ratio_trial":900,"smaller_num":"9","larger_num":"10","correct_side":1,"subjID":"45wm","gender":"No_gender","age":"No_age","school":"No_school"},{"start_time":1452341657918,"click_time":1452341659519,"finger_time":1452341659318,"fix_duration":1417.306814559537,"trial":19,"RT":1400,"MT":201,"sideResp":2,"stimulus":"img/750/randomdotsize/R/12_Ratio_750_L_3_R_4.png","xmouse":[414.66668701171875,414.66668701171875,414.66668701171875,414.66668701171875,414.66668701171875,414.66668701171875,414.66668701171875,414.66668701171875,414.66668701171875,414.66668701171875,413.3333435058594,413.3333435058594,413.3333435058594,413.3333435058594,413.3333435058594,413.3333435058594,413.3333435058594,413.3333435058594,413.3333435058594,413.3333435058594,412,412,412,412,412,412,412,412,412,412,410.66668701171875,410.66668701171875,410.66668701171875,410.66668701171875,410.66668701171875,410.66668701171875,410.66668701171875,410.66668701171875,410.66668701171875,410.66668701171875,408.66668701171875,408.66668701171875,408.66668701171875,408.66668701171875,408.66668701171875,408.66668701171875,408.66668701171875,408.66668701171875,408.66668701171875,408.66668701171875,408.66668701171875,408.66668701171875,408.66668701171875,408.66668701171875,408.66668701171875,408.66668701171875,408.66668701171875,408.66668701171875,408.66668701171875,408.66668701171875,407.3333435058594,407.3333435058594,407.3333435058594,408,408,408.66668701171875,408.66668701171875,409.3333435058594,413.3333435058594,420.66668701171875,460.66668701171875,494.66668701171875,513.3333740234375,552.6666870117188,573.3333740234375,625.3333740234375,650.6666870117188,662,682.6666870117188,690,708.6666870117188],"ymouse":[826.6666870117188,826.6666870117188,826.6666870117188,826.6666870117188,826.6666870117188,826.6666870117188,826.6666870117188,826.6666870117188,826.6666870117188,826.6666870117188,826.6666870117188,826.6666870117188,826.6666870117188,826.6666870117188,826.6666870117188,826.6666870117188,826.6666870117188,826.6666870117188,826.6666870117188,826.6666870117188,824.6666870117188,824.6666870117188,824.6666870117188,824.6666870117188,824.6666870117188,824.6666870117188,824.6666870117188,824.6666870117188,824.6666870117188,824.6666870117188,823.3333740234375,823.3333740234375,823.3333740234375,823.3333740234375,823.3333740234375,823.3333740234375,823.3333740234375,823.3333740234375,823.3333740234375,823.3333740234375,820,820,820,820,820,820,820,820,820,820,820,820,820,820,820,820,820,820,820,820,814.6666870117188,813.3333740234375,810,808.6666870117188,806.6666870117188,804.6666870117188,804,802,793.3333740234375,777.3333740234375,682,604.6666870117188,564,468.66668701171875,419.3333435058594,286,218,186,134,112.66667175292969,75.33333587646484],"timestamp_mouse":[1,28,40,60,80,100,120,141,160,180,200,220,240,261,281,300,320,340,360,380,403,420,440,461,481,501,520,540,560,581,601,620,640,661,680,700,720,740,761,781,800,820,840,861,880,901,920,940,960,980,1001,1020,1040,1060,1080,1101,1121,1140,1160,1180,1201,1221,1240,1260,1280,1300,1321,1341,1360,1380,1400,1420,1440,1460,1481,1501,1520,1540,1560,1580,1600],"xSR":350,"ySR":768,"xT1":30,"yT1":0,"xT2":670,"yT2":0,"toosoon":0,"cond_shown":"randomdotsize","ratio_trial":750,"smaller_num":"3","larger_num":"4","correct_side":2,"subjID":"45wm","gender":"No_gender","age":"No_age","school":"No_school"},{"start_time":1452341661729,"click_time":1452341662818,"finger_time":1452341662558,"fix_duration":1189.5515323768489,"trial":20,"RT":829,"MT":260,"sideResp":2,"stimulus":"img/250/equaldotanddens/R/10_Ratio_250_L_4_R_16.png","xmouse":[393.3333435058594,393.3333435058594,393.3333435058594,393.3333435058594,393.3333435058594,393.3333435058594,395.3333435058594,395.3333435058594,395.3333435058594,395.3333435058594,395.3333435058594,395.3333435058594,395.3333435058594,395.3333435058594,395.3333435058594,395.3333435058594,396.66668701171875,396.66668701171875,396.66668701171875,396.66668701171875,396.66668701171875,396.66668701171875,396.66668701171875,396.66668701171875,396.66668701171875,396.66668701171875,397.3333435058594,397.3333435058594,396.66668701171875,396.66668701171875,396.66668701171875,396.66668701171875,396.66668701171875,396.66668701171875,396.66668701171875,396.66668701171875,396.66668701171875,396.66668701171875,396.66668701171875,402,409.3333435058594,466,485.3333435058594,528.6666870117188,551.3333740234375,613.3333740234375,642,651.3333740234375,669.3333740234375,676,696,708.6666870117188,714.6666870117188,724,730.6666870117188],"ymouse":[815.3333740234375,815.3333740234375,815.3333740234375,815.3333740234375,815.3333740234375,815.3333740234375,815.3333740234375,815.3333740234375,815.3333740234375,815.3333740234375,815.3333740234375,815.3333740234375,815.3333740234375,815.3333740234375,815.3333740234375,815.3333740234375,815.3333740234375,815.3333740234375,815.3333740234375,815.3333740234375,815.3333740234375,815.3333740234375,815.3333740234375,815.3333740234375,815.3333740234375,815.3333740234375,816.6666870117188,816.6666870117188,816.6666870117188,816.6666870117188,816.6666870117188,816.6666870117188,816.6666870117188,816.6666870117188,816,816,816,816,816,797.3333740234375,779.3333740234375,643.3333740234375,600.6666870117188,520,480,375.3333435058594,322.66668701171875,302,262.66668701171875,242.66668701171875,188,152.6666717529297,134.6666717529297,102.66667175292969,78],"timestamp_mouse":[28,29,50,69,89,109,129,149,170,190,209,229,249,269,289,309,329,350,369,389,409,429,450,470,489,510,530,549,570,589,609,629,650,669,690,710,729,749,769,789,809,829,850,870,889,910,929,950,969,990,1011,1029,1049,1069,1089],"xSR":350,"ySR":768,"xT1":30,"yT1":0,"xT2":670,"yT2":0,"toosoon":0,"cond_shown":"equaldotanddens","ratio_trial":250,"smaller_num":"4","larger_num":"16","correct_side":2,"subjID":"45wm","gender":"No_gender","age":"No_age","school":"No_school"},{"start_time":1452341665083,"click_time":1452341666418,"finger_time":1452341666098,"fix_duration":583.9289561110495,"trial":21,"RT":1015,"MT":320,"sideResp":1,"stimulus":"img/250/equaldotanddens/L/3_Ratio_250_L_8_R_2.png","xmouse":[422.66668701171875,422.66668701171875,422.66668701171875,422.66668701171875,420.66668701171875,420.66668701171875,420.66668701171875,420.66668701171875,420.66668701171875,420.66668701171875,420.66668701171875,420.66668701171875,420.66668701171875,420,420,420,420,419.3333435058594,419.3333435058594,419.3333435058594,419.3333435058594,419.3333435058594,419.3333435058594,419.3333435058594,419.3333435058594,418.66668701171875,418.66668701171875,418.66668701171875,418,418,418.66668701171875,418.66668701171875,418.66668701171875,418.66668701171875,419.3333435058594,419.3333435058594,419.3333435058594,419.3333435058594,419.3333435058594,418.66668701171875,418.66668701171875,418.66668701171875,418.66668701171875,418.66668701171875,418.66668701171875,418.66668701171875,418.66668701171875,418.66668701171875,399.3333435058594,395.3333435058594,390.66668701171875,376.66668701171875,370,348,332.66668701171875,326,312.66668701171875,297.3333435058594,266,254,229.33334350585938,217.33334350585938,193.33334350585938,182,153.33334350585938,137.33334350585938,124],"ymouse":[832.6666870117188,832.6666870117188,832.6666870117188,832.6666870117188,833.3333740234375,833.3333740234375,833.3333740234375,833.3333740234375,833.3333740234375,833.3333740234375,833.3333740234375,833.3333740234375,833.3333740234375,833.3333740234375,833.3333740234375,833.3333740234375,833.3333740234375,832.6666870117188,832.6666870117188,832.6666870117188,832.6666870117188,832.6666870117188,832.6666870117188,832.6666870117188,832.6666870117188,835.3333740234375,835.3333740234375,836,836,836,836,836.6666870117188,836.6666870117188,837.3333740234375,837.3333740234375,838,838,838,837.3333740234375,837.3333740234375,837.3333740234375,837.3333740234375,837.3333740234375,837.3333740234375,837.3333740234375,837.3333740234375,837.3333740234375,837.3333740234375,804.6666870117188,778,759.3333740234375,722,704.6666870117188,644,599.3333740234375,574,522,466.66668701171875,376.66668701171875,348,292,266,216,192.6666717529297,136,106.66667175292969,83.33333587646484],"timestamp_mouse":[26,35,55,76,95,116,135,155,175,195,215,235,255,277,296,316,336,355,375,395,416,436,455,475,496,516,535,555,575,595,615,635,655,676,696,715,735,755,778,796,815,836,856,875,896,915,935,955,977,996,1015,1035,1055,1077,1095,1116,1135,1155,1177,1196,1215,1235,1255,1276,1295,1315,1335],"xSR":350,"ySR":768,"xT1":30,"yT1":0,"xT2":670,"yT2":0,"toosoon":0,"cond_shown":"equaldotanddens","ratio_trial":250,"smaller_num":"2","larger_num":"8","correct_side":1,"subjID":"45wm","gender":"No_gender","age":"No_age","school":"No_school"},{"start_time":1452341668510,"click_time":1452341670018,"finger_time":1452341669681,"fix_duration":490.8690683012812,"trial":22,"RT":1171,"MT":337,"sideResp":1,"stimulus":"img/500/randomdotsizeEA/R/6_Ratio_500_L_9_R_18.png","xmouse":[403,403,403,403,403,403,403,403,403,403,403,403,403,403,403,403,403,403,403,403,403,403,403,403,403,403,403,403,403,403,403,403,403,403,403,403,403,403,403,403,403,403,403,403,403,403,403,403,403,403,403,403,403,403,403,403,403,385.3333435058594,360.66668701171875,353.3333435058594,353.3333435058594,332,311.3333435058594,301.3333435058594,256,244.6666717529297,220.6666717529297,207.33334350585938,184.6666717529297,150,139.33334350585938,119.33333587646484,111.33333587646484,88,78.66667175292969,75.33333587646484],"ymouse":[808,808,808,808,808,808,808,808,808,808,808,808,808,808,808,808,808,808,808,808,808,808,808,808,808,808,808,808,808,808,808,808,808,808,808,808,808,808,808,808,808,808,808,808,808,808,808,808,808,808,808,808,808,808,808,808,808,794,752,733.3333740234375,733.3333740234375,672,622,595.3333740234375,474,446,386,356,302,226.6666717529297,206,169.33334350585938,155.33334350585938,120,102.66667175292969,96],"timestamp_mouse":[8,28,48,68,88,109,128,148,169,197,208,228,248,268,288,309,328,349,368,388,409,428,448,468,488,508,529,548,568,588,608,628,648,668,688,708,729,748,768,788,808,828,848,868,888,908,928,948,969,988,1008,1028,1048,1068,1088,1108,1128,1148,1171,1189,1208,1228,1248,1268,1288,1308,1329,1348,1368,1388,1408,1428,1448,1472,1488,1508],"xSR":350,"ySR":768,"xT1":30,"yT1":0,"xT2":670,"yT2":0,"toosoon":0,"cond_shown":"randomdotsizeEA","ratio_trial":500,"smaller_num":"9","larger_num":"18","correct_side":2,"subjID":"45wm","gender":"No_gender","age":"No_age","school":"No_school"},{"start_time":1452341671891,"click_time":1452341673219,"finger_time":1452341673038,"fix_duration":250,"trial":23,"RT":1147,"MT":181,"sideResp":2,"stimulus":"img/500/randomdotsizeEA/R/1_Ratio_500_L_9_R_18.png","xmouse":[418,418,418,418,418,418,418,418,418,418,418,418,418,418,418,418,418,418,418,418,418,418,418,418,418,418,418,418,418,418,418,418,418,418,418,418,418,418,418,418,418,418,418,418,418,418,418,418,418,418,418,418,418,418,418,426,428,448,474.66668701171875,490.66668701171875,530.6666870117188,598.6666870117188,621.3333740234375,658.6666870117188,674.6666870117188,698,717.3333740234375],"ymouse":[810,810,810,810,810,810,810,810,810,810,810,810,810,810,810,810,810,810,810,810,810,810,810,810,810,810,810,810,810,810,810,810,810,810,810,810,810,810,810,810,810,810,810,810,810,810,810,810,810,810,810,810,810,810,810,788,771.3333740234375,676.6666870117188,596,551.3333740234375,450.66668701171875,300,256,184.6666717529297,153.33334350585938,108,64.66667175292969],"timestamp_mouse":[7,27,47,67,87,108,127,147,167,187,208,228,247,268,287,307,327,347,367,388,407,427,447,467,488,507,527,547,567,587,607,628,647,667,688,707,727,747,767,787,807,827,847,867,887,907,927,947,967,987,1007,1027,1047,1067,1087,1108,1127,1147,1167,1188,1208,1227,1247,1267,1287,1308,1328],"xSR":350,"ySR":768,"xT1":30,"yT1":0,"xT2":670,"yT2":0,"toosoon":0,"cond_shown":"randomdotsizeEA","ratio_trial":500,"smaller_num":"9","larger_num":"18","correct_side":2,"subjID":"45wm","gender":"No_gender","age":"No_age","school":"No_school"},{"start_time":1452341675477,"click_time":1452341676718,"finger_time":1452341676440,"fix_duration":734.8389522770073,"trial":24,"RT":963,"MT":278,"sideResp":2,"stimulus":"img/250/randomdotsize/R/13_Ratio_250_L_2_R_8.png","xmouse":[387,387,387,387,387,387,387,387,387,387,387,387,387,387,387,387,387,387,387,387,387,387,387,387,387,387,387,387,387,387,387,387,387,387,387,387,387,387,387,387,387,387,387,387,387,387,390,394,416,427.3333435058594,450.66668701171875,475.3333435058594,487.3333435058594,525.3333740234375,552,564,587.3333740234375,599.3333740234375,634.6666870117188,656.6666870117188,666.6666870117188,682.6666870117188,694.6666870117188],"ymouse":[850,850,850,850,850,850,850,850,850,850,850,850,850,850,850,850,850,850,850,850,850,850,850,850,850,850,850,850,850,850,850,850,850,850,850,850,850,850,850,850,850,850,850,850,850,850,834,820.6666870117188,758,731.3333740234375,672.6666870117188,615.3333740234375,584,483.3333435058594,416.66668701171875,388,326.66668701171875,294,208.6666717529297,160,139.33334350585938,106.66667175292969,83.33333587646484],"timestamp_mouse":[5,22,41,61,81,101,122,141,161,182,202,221,244,271,281,301,321,341,361,381,402,421,441,461,481,501,521,542,561,581,601,621,641,662,682,701,722,742,762,782,801,821,841,861,881,901,922,942,963,981,1001,1021,1041,1061,1081,1101,1121,1141,1161,1181,1201,1221,1241],"xSR":350,"ySR":768,"xT1":30,"yT1":0,"xT2":670,"yT2":0,"toosoon":0,"cond_shown":"randomdotsize","ratio_trial":250,"smaller_num":"2","larger_num":"8","correct_side":2,"subjID":"45wm","gender":"No_gender","age":"No_age","school":"No_school"},{"start_time":1452341679434,"click_time":1452341680481,"finger_time":1452341680239,"fix_duration":1011.8709938160131,"trial":25,"RT":805,"MT":242,"sideResp":2,"stimulus":"img/250/randomdotsizeEA/R/13_Ratio_250_L_2_R_8.png","xmouse":[409.3333435058594,409.3333435058594,409.3333435058594,406,406,406,406,406,406,406,406,400.66668701171875,400.66668701171875,400,400.66668701171875,400.66668701171875,400,400,400,400,400,400,400,400,400,400,399.3333435058594,398.66668701171875,398,397.3333435058594,396.66668701171875,396,396,396,396.66668701171875,396.66668701171875,396.66668701171875,401.3333435058594,401.3333435058594,401.3333435058594,436,488,534,558,602.6666870117188,625.3333740234375,684,716,730.6666870117188,751.3333740234375,756.6666870117188,760,758],"ymouse":[831.3333740234375,831.3333740234375,831.3333740234375,829.3333740234375,829.3333740234375,829.3333740234375,829.3333740234375,829.3333740234375,829.3333740234375,829.3333740234375,829.3333740234375,829.3333740234375,829.3333740234375,829.3333740234375,829.3333740234375,829.3333740234375,830,830,830,830,830,830,830,830,830,830,830,829.3333740234375,829.3333740234375,829.3333740234375,828.6666870117188,828.6666870117188,828,826,824.6666870117188,824.6666870117188,824.6666870117188,810.6666870117188,810.6666870117188,810.6666870117188,714,603.3333740234375,523.3333740234375,485.3333435058594,407.3333435058594,368.66668701171875,261.3333435058594,199.33334350585938,171.33334350585938,131.33334350585938,118.66667175292969,103.33333587646484,96.66667175292969],"timestamp_mouse":[4,27,44,64,84,104,126,145,164,185,204,224,244,264,285,305,329,345,364,384,404,425,444,464,485,504,526,545,564,584,604,625,644,664,684,705,725,744,764,784,804,826,845,864,884,905,926,944,964,984,1004,1024,1046],"xSR":350,"ySR":768,"xT1":30,"yT1":0,"xT2":670,"yT2":0,"toosoon":0,"cond_shown":"randomdotsizeEA","ratio_trial":250,"smaller_num":"2","larger_num":"8","correct_side":2,"subjID":"45wm","gender":"No_gender","age":"No_age","school":"No_school"},{"start_time":1452341683292,"click_time":1452341685719,"finger_time":1452341685318,"fix_duration":1252.1234120932174,"trial":26,"RT":2026,"MT":401,"sideResp":1,"stimulus":"img/750/equaldotsize/R/15_Ratio_750_L_9_R_12.png","xmouse":[395,395,395,395,395,395,395,395,395,395,395,395,395,395,395,395,395,395,395,395,395,395,395,395,395,395,395,395,395,395,395,395,395,395,395,395,395,395,395,395,395,395,395,395,395,395,395,395,395,395,395,395,395,395,395,395,395,395,395,395,395,395,395,395,395,395,395,395,395,395,395,395,395,395,395,395,395,395,395,395,395,395,395,395,395,395,395,395,395,395,395,395,395,395,395,395,395,395,395,396,392,374,368,352,343.3333435058594,310.66668701171875,285.3333435058594,272.66668701171875,246.6666717529297,234.6666717529297,188.6666717529297,179.33334350585938,165.33334350585938,158.6666717529297,150,140.6666717529297,138,134.6666717529297,134,131.33334350585938,130,128.6666717529297],"ymouse":[820,820,820,820,820,820,820,820,820,820,820,820,820,820,820,820,820,820,820,820,820,820,820,820,820,820,820,820,820,820,820,820,820,820,820,820,820,820,820,820,820,820,820,820,820,820,820,820,820,820,820,820,820,820,820,820,820,820,820,820,820,820,820,820,820,820,820,820,820,820,820,820,820,820,820,820,820,820,820,820,820,820,820,820,820,820,820,820,820,820,820,820,820,820,820,820,820,820,820,799.3333740234375,783.3333740234375,711.3333740234375,685.3333740234375,635.3333740234375,608,524.6666870117188,464.66668701171875,432.66668701171875,373.3333435058594,348,247.33334350585938,223.33334350585938,176.6666717529297,156.6666717529297,123.33334350585938,98,94,88,85.33333587646484,82,80.66667175292969,78],"timestamp_mouse":[8,33,47,66,87,106,126,147,167,186,206,226,246,267,286,306,327,347,366,387,406,427,446,466,486,506,526,546,566,586,606,626,646,666,686,706,727,746,767,786,806,827,846,866,886,907,926,947,967,987,1006,1026,1047,1066,1086,1106,1126,1146,1166,1186,1207,1226,1247,1267,1286,1306,1327,1347,1366,1386,1407,1427,1446,1466,1486,1506,1526,1546,1566,1586,1606,1626,1646,1666,1686,1706,1727,1746,1766,1786,1806,1826,1846,1867,1886,1906,1927,1946,1966,1987,2006,2026,2046,2066,2086,2108,2126,2146,2166,2186,2208,2226,2246,2266,2286,2308,2326,2346,2366,2386,2406,2427],"xSR":350,"ySR":768,"xT1":30,"yT1":0,"xT2":670,"yT2":0,"toosoon":0,"cond_shown":"equaldotsize","ratio_trial":750,"smaller_num":"9","larger_num":"12","correct_side":2,"subjID":"45wm","gender":"No_gender","age":"No_age","school":"No_school"},{"start_time":1452341687930,"click_time":1452341689539,"finger_time":1452341688998,"fix_duration":250,"trial":27,"RT":1068,"MT":541,"sideResp":2,"stimulus":"img/900/randomdotsize/R/15_Ratio_900_L_9_R_10.png","xmouse":[394.66668701171875,394.66668701171875,395.3333435058594,396,396.66668701171875,396.66668701171875,396.66668701171875,396.66668701171875,396.66668701171875,395.3333435058594,395.3333435058594,395.3333435058594,395.3333435058594,395.3333435058594,395.3333435058594,395.3333435058594,395.3333435058594,395.3333435058594,395.3333435058594,398,398.66668701171875,398.66668701171875,398.66668701171875,399.3333435058594,399.3333435058594,399.3333435058594,399.3333435058594,399.3333435058594,399.3333435058594,399.3333435058594,400,400,400,400,400,400.66668701171875,400.66668701171875,400.66668701171875,400.66668701171875,400.66668701171875,400.66668701171875,400.66668701171875,400.66668701171875,400.66668701171875,400.66668701171875,400.66668701171875,400.66668701171875,400.66668701171875,400.66668701171875,398.66668701171875,398.66668701171875,398.66668701171875,398.66668701171875,448,496,524,536.6666870117188,563.3333740234375,590.6666870117188,601.3333740234375,638.6666870117188,661.3333740234375,672.6666870117188,692,713.3333740234375,718,724.6666870117188,727.3333740234375,733.3333740234375,736.6666870117188,738.6666870117188,738.6666870117188,738.6666870117188,738.6666870117188,738.6666870117188,738.6666870117188,738.6666870117188,738.6666870117188,726.6666870117188,723.3333740234375,720],"ymouse":[799.3333740234375,799.3333740234375,799.3333740234375,799.3333740234375,800,800,800,800,799.3333740234375,798,798,798,798,798,798,798,798,798,798,798.6666870117188,798.6666870117188,799.3333740234375,800,800,800.6666870117188,800.6666870117188,800.6666870117188,801.3333740234375,801.3333740234375,801.3333740234375,802,802,802,802.6666870117188,803.3333740234375,803.3333740234375,804,804,804,804,804,804,804,804,804,803.3333740234375,803.3333740234375,802.6666870117188,800.6666870117188,794.6666870117188,794.6666870117188,794.6666870117188,794.6666870117188,659.3333740234375,568,510.66668701171875,482.66668701171875,424,368.66668701171875,344.66668701171875,268,220.6666717529297,200,163.33334350585938,130,124.66667175292969,120.66667175292969,120.66667175292969,122,124.66667175292969,124.66667175292969,124,124,124,124,124,124,124,110,105.33333587646484,97.33333587646484],"timestamp_mouse":[10,34,48,68,88,108,128,148,168,190,208,229,248,268,289,308,328,348,369,390,408,428,448,468,488,509,528,548,568,588,608,628,648,669,690,708,728,748,768,788,808,828,849,869,889,908,928,948,969,988,1009,1028,1048,1068,1090,1108,1128,1148,1168,1188,1208,1229,1248,1268,1290,1309,1329,1349,1368,1388,1409,1428,1449,1469,1488,1509,1528,1549,1568,1589,1608],"xSR":350,"ySR":768,"xT1":30,"yT1":0,"xT2":670,"yT2":0,"toosoon":0,"cond_shown":"randomdotsize","ratio_trial":900,"smaller_num":"9","larger_num":"10","correct_side":2,"subjID":"45wm","gender":"No_gender","age":"No_age","school":"No_school"},{"start_time":1452341692052,"click_time":1452341693239,"finger_time":1452341692958,"fix_duration":1112.8954659251299,"trial":28,"RT":906,"MT":281,"sideResp":1,"stimulus":"img/500/randomdotsizeEA/L/13_Ratio_500_L_12_R_6.png","xmouse":[401.3333435058594,401.3333435058594,401.3333435058594,401.3333435058594,400,400,400,400,400,400,400,400,400,400,400,400,400,400,400,400,400,400,400,400,398,397.3333435058594,396.66668701171875,396.66668701171875,396,395.3333435058594,394.66668701171875,394,393.3333435058594,392.66668701171875,392,391.3333435058594,390.66668701171875,389.3333435058594,388.66668701171875,386.66668701171875,382.66668701171875,382.66668701171875,382.66668701171875,382.66668701171875,382.66668701171875,364.66668701171875,362.66668701171875,359.3333435058594,355.3333435058594,344.66668701171875,317.3333435058594,291.3333435058594,276.66668701171875,248.6666717529297,236,195.33334350585938,171.33334350585938,160,136.6666717529297,125.33334350585938],"ymouse":[812.6666870117188,812.6666870117188,812.6666870117188,812.6666870117188,812,812,812,812,812,812,812,812,812,812,812,811.3333740234375,811.3333740234375,811.3333740234375,811.3333740234375,811.3333740234375,811.3333740234375,811.3333740234375,811.3333740234375,811.3333740234375,816.6666870117188,817.3333740234375,820,821.3333740234375,824.6666870117188,826.6666870117188,830.6666870117188,833.3333740234375,833.3333740234375,834.6666870117188,835.3333740234375,837.3333740234375,838.6666870117188,840.6666870117188,842,842.6666870117188,840.6666870117188,840.6666870117188,840.6666870117188,840.6666870117188,840.6666870117188,721.3333740234375,700.6666870117188,645.3333740234375,612,541.3333740234375,443.3333435058594,389.3333435058594,361.3333435058594,312,286.66668701171875,210.6666717529297,165.33334350585938,144,109.33333587646484,90],"timestamp_mouse":[9,33,47,66,89,107,127,147,166,187,206,226,246,267,286,306,326,346,366,387,406,426,446,466,488,506,527,546,566,586,606,626,646,666,686,707,726,746,766,786,811,827,846,866,886,906,927,946,966,986,1006,1026,1046,1066,1086,1106,1126,1146,1166,1187],"xSR":350,"ySR":768,"xT1":30,"yT1":0,"xT2":670,"yT2":0,"toosoon":0,"cond_shown":"randomdotsizeEA","ratio_trial":500,"smaller_num":"6","larger_num":"12","correct_side":1,"subjID":"45wm","gender":"No_gender","age":"No_age","school":"No_school"},{"start_time":1452341695312,"click_time":1452341696479,"finger_time":1452341696279,"fix_duration":572.4489791953267,"trial":29,"RT":967,"MT":200,"sideResp":1,"stimulus":"img/900/randomdotsize/L/8_Ratio_900_L_20_R_18.png","xmouse":[436,436,436,436,436,436,436,436,436,436,436,436,436,436,436,436,436,436,436,436,436,436,436,436,436,436,436,436,436,436,436,436,436,436,436,436,436,436,436,436,436,436,436,436,436,421.3333435058594,412.66668701171875,412.66668701171875,355.3333435058594,343.3333435058594,316.66668701171875,302,272.66668701171875,230,214.6666717529297,187.33334350585938,175.33334350585938,150,112.66667175292969],"ymouse":[842,842,842,842,842,842,842,842,842,842,842,842,842,842,842,842,842,842,842,842,842,842,842,842,842,842,842,842,842,842,842,842,842,842,842,842,842,842,842,842,842,842,842,842,842,828.6666870117188,820.6666870117188,820.6666870117188,714,686,624,589.3333740234375,514,396.66668701171875,356,278,242.66668701171875,174,92],"timestamp_mouse":[12,30,47,66,86,107,126,146,166,186,207,227,246,266,287,307,326,346,366,386,406,426,446,466,486,506,526,546,566,586,607,626,646,666,686,706,726,746,766,786,807,826,847,867,886,906,927,946,967,986,1006,1026,1046,1066,1086,1106,1126,1147,1167],"xSR":350,"ySR":768,"xT1":30,"yT1":0,"xT2":670,"yT2":0,"toosoon":0,"cond_shown":"randomdotsize","ratio_trial":900,"smaller_num":"18","larger_num":"20","correct_side":1,"subjID":"45wm","gender":"No_gender","age":"No_age","school":"No_school"},{"start_time":1452341698446,"click_time":1452341699918,"finger_time":1452341699619,"fix_duration":746.2219953091908,"trial":30,"RT":1173,"MT":299,"sideResp":1,"stimulus":"img/900/randomdotsize/L/10_Ratio_900_L_20_R_18.png","xmouse":[408,408,408,408,408,408,408,408,408,408,402.66668701171875,402.66668701171875,402.66668701171875,402.66668701171875,402.66668701171875,402.66668701171875,402.66668701171875,402.66668701171875,402.66668701171875,402.66668701171875,398.66668701171875,398.66668701171875,398.66668701171875,398.66668701171875,398.66668701171875,398.66668701171875,398.66668701171875,398.66668701171875,398.66668701171875,398.66668701171875,396.66668701171875,396.66668701171875,396.66668701171875,396.66668701171875,396.66668701171875,396.66668701171875,396.66668701171875,396.66668701171875,396.66668701171875,396.66668701171875,394,394,394,394,394,394,394,394.66668701171875,395.3333435058594,396.66668701171875,397.3333435058594,398.66668701171875,398,394.66668701171875,392.66668701171875,387.3333435058594,384.66668701171875,369.3333435058594,355.3333435058594,348,334,325.3333435058594,296,274.66668701171875,249.33334350585938,235.33334350585938,208,172.6666717529297,162,140.6666717529297,130.6666717529297,112,104,78.66667175292969],"ymouse":[857.3333740234375,857.3333740234375,857.3333740234375,857.3333740234375,857.3333740234375,857.3333740234375,857.3333740234375,857.3333740234375,857.3333740234375,857.3333740234375,856,856,856,856,856,856,856,856,856,856,858,858,858,858,858,858,858,858,858,858,856,856,856,856,856,856,856,856,856,856,854.6666870117188,854.6666870117188,854.6666870117188,854.6666870117188,854.6666870117188,854.6666870117188,854.6666870117188,851.3333740234375,850.6666870117188,848.6666870117188,848,844.6666870117188,836,824,818.6666870117188,806,800,770,739.3333740234375,722.6666870117188,686,665.3333740234375,594.6666870117188,538.6666870117188,482.66668701171875,454.66668701171875,400.66668701171875,316.66668701171875,288,232.6666717529297,204,152,126.66667175292969,61.333335876464844],"timestamp_mouse":[12,34,52,72,92,112,133,152,173,192,212,233,252,273,292,312,333,352,372,393,413,433,453,472,492,512,532,552,572,592,613,633,652,673,692,712,732,753,772,793,812,833,852,872,893,913,932,953,972,992,1012,1032,1053,1072,1092,1112,1132,1152,1172,1193,1212,1232,1254,1272,1293,1313,1332,1354,1372,1392,1413,1432,1452,1472],"xSR":350,"ySR":768,"xT1":30,"yT1":0,"xT2":670,"yT2":0,"toosoon":0,"cond_shown":"randomdotsize","ratio_trial":900,"smaller_num":"18","larger_num":"20","correct_side":1,"subjID":"45wm","gender":"No_gender","age":"No_age","school":"No_school"},{"start_time":1452341702300,"click_time":1452341703438,"finger_time":1452341703220,"fix_duration":1020.0489949439105,"trial":31,"RT":920,"MT":218,"sideResp":1,"stimulus":"img/750/randomdotsize/L/14_Ratio_750_L_8_R_6.png","xmouse":[385.3333435058594,385.3333435058594,385.3333435058594,385.3333435058594,385.3333435058594,385.3333435058594,385.3333435058594,385.3333435058594,385.3333435058594,384.66668701171875,384.66668701171875,384.66668701171875,384.66668701171875,384.66668701171875,384.66668701171875,384.66668701171875,384.66668701171875,384.66668701171875,384.66668701171875,384.66668701171875,384.66668701171875,384.66668701171875,384.66668701171875,384.66668701171875,384.66668701171875,384,384,384,384,384,384,383.3333435058594,383.3333435058594,383.3333435058594,383.3333435058594,382.66668701171875,382,382,382,382,382,382,364,362,355.3333435058594,324.66668701171875,311.3333435058594,284,270,244,230,191.33334350585938,166.6666717529297,154.6666717529297,132,101.33333587646484,84.66667175292969],"ymouse":[844,844,844.6666870117188,844.6666870117188,844.6666870117188,845.3333740234375,845.3333740234375,845.3333740234375,845.3333740234375,845.3333740234375,845.3333740234375,845.3333740234375,845.3333740234375,845.3333740234375,845.3333740234375,845.3333740234375,845.3333740234375,846,846,846,846,846,846.6666870117188,846.6666870117188,846.6666870117188,846.6666870117188,846.6666870117188,846.6666870117188,846.6666870117188,846.6666870117188,846.6666870117188,846.6666870117188,846.6666870117188,846.6666870117188,846.6666870117188,846.6666870117188,846,846,846,846,846,846,808.6666870117188,799.3333740234375,774.6666870117188,700,670.6666870117188,604,568,490,451.3333435058594,334,263.3333435058594,228,172,112,84],"timestamp_mouse":[32,38,58,78,98,118,138,158,178,199,218,238,258,278,298,318,338,359,378,398,419,438,458,479,498,519,538,558,578,598,618,638,658,679,698,718,738,758,778,798,819,839,858,878,898,920,939,958,978,998,1018,1038,1058,1078,1098,1120,1138],"xSR":350,"ySR":768,"xT1":30,"yT1":0,"xT2":670,"yT2":0,"toosoon":0,"cond_shown":"randomdotsize","ratio_trial":750,"smaller_num":"6","larger_num":"8","correct_side":1,"subjID":"45wm","gender":"No_gender","age":"No_age","school":"No_school"},{"start_time":1452341705496,"click_time":1452341706658,"finger_time":1452341706438,"fix_duration":576.5451074647518,"trial":32,"RT":942,"MT":220,"sideResp":1,"stimulus":"img/250/randomdotsizeEA/L/15_Ratio_250_L_12_R_3.png","xmouse":[403,403,403,403,403,403,403,403,403,403,403,403,403,403,403,403,403,403,403,403,403,403,403,403,403,403,403,403,403,403,403,403,403,403,403,403,403,403,403,403,403,403,403,403,403,394,391.3333435058594,381.3333435058594,360.66668701171875,338,325.3333435058594,295.3333435058594,280,230,196.6666717529297,180,150.6666717529297,136.6666717529297,88],"ymouse":[838,838,838,838,838,838,838,838,838,838,838,838,838,838,838,838,838,838,838,838,838,838,838,838,838,838,838,838,838,838,838,838,838,838,838,838,838,838,838,838,838,838,838,838,838,811.3333740234375,791.3333740234375,742,664,599.3333740234375,565.3333740234375,498,465.3333435058594,374,311.3333435058594,278,216.6666717529297,186.6666717529297,94],"timestamp_mouse":[2,25,43,62,83,102,122,142,163,182,203,223,242,262,283,302,323,342,363,383,402,422,442,462,482,502,522,542,562,582,602,622,643,662,682,702,722,743,763,782,802,822,843,862,882,902,922,942,962,982,1002,1022,1042,1062,1083,1102,1122,1142,1162],"xSR":350,"ySR":768,"xT1":30,"yT1":0,"xT2":670,"yT2":0,"toosoon":0,"cond_shown":"randomdotsizeEA","ratio_trial":250,"smaller_num":"3","larger_num":"12","correct_side":1,"subjID":"45wm","gender":"No_gender","age":"No_age","school":"No_school"},{"start_time":1452341708170,"click_time":1452341709379,"finger_time":1452341709160,"fix_duration":250,"trial":33,"RT":990,"MT":219,"sideResp":1,"stimulus":"img/750/equaldotsize/L/10_Ratio_750_L_4_R_3.png","xmouse":[404,404,404,404,404,404,404,404,404,404,404,404,404,404,404,404,404,404,404,404,404,404,404,403.3333435058594,403.3333435058594,403.3333435058594,403.3333435058594,403.3333435058594,403.3333435058594,403.3333435058594,403.3333435058594,403.3333435058594,403.3333435058594,403.3333435058594,403.3333435058594,403.3333435058594,403.3333435058594,403.3333435058594,403.3333435058594,403.3333435058594,403.3333435058594,403.3333435058594,403.3333435058594,403.3333435058594,403.3333435058594,403.3333435058594,403.3333435058594,382.66668701171875,372,340,318,306.66668701171875,280,266,220.6666717529297,192.6666717529297,176,150,137.33334350585938,101.33333587646484,82],"ymouse":[824,824,824,824,824,824,824,824,824,824,824,824,824,824.6666870117188,824.6666870117188,824.6666870117188,824.6666870117188,824.6666870117188,824.6666870117188,824.6666870117188,824.6666870117188,824.6666870117188,824.6666870117188,825.3333740234375,825.3333740234375,825.3333740234375,825.3333740234375,825.3333740234375,825.3333740234375,825.3333740234375,825.3333740234375,825.3333740234375,825.3333740234375,825.3333740234375,825.3333740234375,825.3333740234375,825.3333740234375,826,826,826,826,826,826,826,826,826,826,799.3333740234375,771.3333740234375,703.3333740234375,654,628,566,533.3333740234375,428,360.66668701171875,322.66668701171875,253.33334350585938,222,135.33334350585938,92.66667175292969],"timestamp_mouse":[9,35,48,69,88,108,128,148,168,188,208,228,248,268,288,309,328,348,369,388,409,429,448,468,488,508,528,548,568,588,608,629,648,669,688,708,728,748,769,788,808,828,849,868,888,909,928,948,968,990,1009,1028,1049,1069,1090,1108,1128,1148,1168,1191,1208],"xSR":350,"ySR":768,"xT1":30,"yT1":0,"xT2":670,"yT2":0,"toosoon":0,"cond_shown":"equaldotsize","ratio_trial":750,"smaller_num":"3","larger_num":"4","correct_side":1,"subjID":"45wm","gender":"No_gender","age":"No_age","school":"No_school"},{"start_time":1452341712397,"click_time":1452341713399,"finger_time":1452341713200,"fix_duration":1476.857849905824,"trial":34,"RT":803,"MT":199,"sideResp":2,"stimulus":"img/750/equaldotanddens/R/7_Ratio_750_L_3_R_4.png","xmouse":[408.66668701171875,408.66668701171875,408.66668701171875,408.66668701171875,408.66668701171875,408.66668701171875,408.66668701171875,408.66668701171875,408.66668701171875,408.66668701171875,408.66668701171875,408.66668701171875,408.66668701171875,408.66668701171875,408.66668701171875,408.66668701171875,408.66668701171875,408.66668701171875,408.66668701171875,408.66668701171875,408.66668701171875,408.66668701171875,408.66668701171875,408.66668701171875,408.66668701171875,408.66668701171875,408.66668701171875,408.66668701171875,408.66668701171875,408.66668701171875,408.66668701171875,408.66668701171875,408.66668701171875,408.66668701171875,408.66668701171875,407.3333435058594,407.3333435058594,407.3333435058594,407.3333435058594,407.3333435058594,426,438.66668701171875,469.3333435058594,504.66668701171875,523.3333740234375,583.3333740234375,626,647.3333740234375,681.3333740234375,695.3333740234375,723.3333740234375],"ymouse":[817.3333740234375,817.3333740234375,817.3333740234375,817.3333740234375,817.3333740234375,817.3333740234375,817.3333740234375,817.3333740234375,817.3333740234375,817.3333740234375,818,818,818,818,818,818,818,818,818,818,818,818,818,818,818,818.6666870117188,818.6666870117188,818.6666870117188,818.6666870117188,818.6666870117188,818.6666870117188,818.6666870117188,818.6666870117188,818.6666870117188,818.6666870117188,822.6666870117188,822.6666870117188,822.6666870117188,822.6666870117188,822.6666870117188,745.3333740234375,708,622,528,482,338.66668701171875,246.66668701171875,203.33334350585938,128,100.66667175292969,36],"timestamp_mouse":[6,30,41,61,81,101,122,141,161,181,201,221,241,261,281,301,321,341,361,382,401,421,441,461,481,501,522,541,561,581,601,621,641,661,682,701,721,741,761,781,803,822,841,862,882,902,922,941,962,981,1002],"xSR":350,"ySR":768,"xT1":30,"yT1":0,"xT2":670,"yT2":0,"toosoon":0,"cond_shown":"equaldotanddens","ratio_trial":750,"smaller_num":"3","larger_num":"4","correct_side":2,"subjID":"45wm","gender":"No_gender","age":"No_age","school":"No_school"},{"start_time":1452341715892,"click_time":1452341717078,"finger_time":1452341716820,"fix_duration":1131.122962858928,"trial":35,"RT":928,"MT":258,"sideResp":1,"stimulus":"img/750/randomdotsize/R/11_Ratio_750_L_12_R_16.png","xmouse":[404.66668701171875,405.3333435058594,405.3333435058594,406,406.66668701171875,406.66668701171875,407.3333435058594,407.3333435058594,408,408,408,408,408,407.3333435058594,407.3333435058594,407.3333435058594,407.3333435058594,407.3333435058594,407.3333435058594,407.3333435058594,407.3333435058594,407.3333435058594,407.3333435058594,407.3333435058594,407.3333435058594,407.3333435058594,407.3333435058594,406.66668701171875,406.66668701171875,406.66668701171875,406,406,406,406,406,405.3333435058594,404.66668701171875,404,404,404,404,404,404,384,382.66668701171875,372.66668701171875,366,350.66668701171875,343.3333435058594,326.66668701171875,297.3333435058594,286.66668701171875,262,248,220.6666717529297,179.33334350585938,150.6666717529297,136.6666717529297,110.66667175292969],"ymouse":[821.3333740234375,821.3333740234375,822,822,822.6666870117188,822.6666870117188,823.3333740234375,823.3333740234375,823.3333740234375,823.3333740234375,824,824,824,824,824,824,824,824,824,824,824,824,824,824,824,824,824,824,824,824,824,824,824,824,824,824,823.3333740234375,823.3333740234375,823.3333740234375,823.3333740234375,823.3333740234375,823.3333740234375,823.3333740234375,800,796.6666870117188,766.6666870117188,748,700,673.3333740234375,610.6666870117188,495.3333435058594,454,375.3333435058594,337.3333435058594,264.66668701171875,168,122,106,82],"timestamp_mouse":[27,46,67,86,106,126,146,167,186,206,226,246,267,286,306,326,347,367,386,406,426,446,467,487,506,527,547,566,586,606,627,646,666,686,706,726,746,766,786,806,826,846,866,886,906,928,946,966,986,1007,1027,1046,1066,1086,1106,1127,1147,1166,1186],"xSR":350,"ySR":768,"xT1":30,"yT1":0,"xT2":670,"yT2":0,"toosoon":0,"cond_shown":"randomdotsize","ratio_trial":750,"smaller_num":"12","larger_num":"16","correct_side":2,"subjID":"45wm","gender":"No_gender","age":"No_age","school":"No_school"},{"start_time":1452341718650,"click_time":1452341719740,"finger_time":1452341719498,"fix_duration":250,"trial":36,"RT":848,"MT":242,"sideResp":1,"stimulus":"img/500/equaldotsize/L/5_Ratio_500_L_4_R_2.png","xmouse":[404.66668701171875,404.66668701171875,404.66668701171875,404.66668701171875,406.66668701171875,406.66668701171875,406.66668701171875,406.66668701171875,406,406,406,405.3333435058594,404.66668701171875,404.66668701171875,404.66668701171875,404.66668701171875,404.66668701171875,404.66668701171875,405.3333435058594,405.3333435058594,404.66668701171875,404.66668701171875,404.66668701171875,404,403.3333435058594,402.66668701171875,402.66668701171875,402.66668701171875,402.66668701171875,403.3333435058594,403.3333435058594,403.3333435058594,403.3333435058594,403.3333435058594,402.66668701171875,402,402,402,402,402,382.66668701171875,379.3333435058594,362,349.3333435058594,309.3333435058594,280,264,229.33334350585938,212,146.6666717529297,132.6666717529297,104.66667175292969,91.33333587646484,68.66667175292969,42.66666793823242],"ymouse":[814.6666870117188,814.6666870117188,814.6666870117188,814.6666870117188,818.6666870117188,819.3333740234375,820,820,820.6666870117188,820.6666870117188,820.6666870117188,821.3333740234375,821.3333740234375,821.3333740234375,822,822,822,822,822,822,822.6666870117188,822.6666870117188,822.6666870117188,822.6666870117188,823.3333740234375,823.3333740234375,824,824.6666870117188,825.3333740234375,826.6666870117188,827.3333740234375,828,828.6666870117188,828.6666870117188,828,827.3333740234375,827.3333740234375,827.3333740234375,827.3333740234375,827.3333740234375,796.6666870117188,787.3333740234375,749.3333740234375,721.3333740234375,634,576.6666870117188,546,477.3333435058594,440.66668701171875,286,252,184.6666717529297,154.6666717529297,108.66667175292969,58.66667175292969],"timestamp_mouse":[10,34,48,68,88,108,130,148,168,188,208,228,250,268,288,308,328,348,368,388,408,429,448,468,489,509,528,548,568,589,608,628,648,668,692,708,728,748,768,788,808,828,848,868,889,908,928,948,968,989,1009,1028,1049,1069,1089],"xSR":350,"ySR":768,"xT1":30,"yT1":0,"xT2":670,"yT2":0,"toosoon":0,"cond_shown":"equaldotsize","ratio_trial":500,"smaller_num":"2","larger_num":"4","correct_side":1,"subjID":"45wm","gender":"No_gender","age":"No_age","school":"No_school"},{"start_time":1452341721725,"click_time":1452341722779,"finger_time":1452341722639,"fix_duration":1125.3008300666547,"trial":37,"RT":914,"MT":140,"sideResp":2,"stimulus":"img/750/equald