[{"start_time":1452340971963,"click_time":1452340973008,"finger_time":1452340972016,"fix_duration":567.697152243395,"trial":0,"RT":53,"MT":992,"sideResp":2,"stimulus":[],"xmouse":[410,410,410,410,410,410,410,410,401,401,401,401,401,401,401,401,401,401,401,401,401,401,401,401,401,401,401,401,401,401,401,401,401,401,401,401,401,401,401,401,401,401,401,401,401,401,401,401,401,401,726],"ymouse":[508,508,508,508,508,508,508,508,515,515,515,515,515,515,515,515,515,515,515,515,515,515,515,515,515,515,515,515,515,515,515,515,515,515,515,515,515,515,515,515,515,515,515,515,515,515,515,515,515,515,33],"timestamp_mouse":[53,65,84,105,125,144,165,185,205,225,244,265,285,305,325,344,365,385,405,425,445,465,485,505,524,544,564,585,605,625,644,665,685,705,725,745,765,785,805,825,845,865,885,905,926,945,964,985,1005,1024,1045],"xSR":350,"ySR":451.2,"xT1":30,"yT1":0,"xT2":670,"yT2":0,"toosoon":0,"cond_shown":"Incongruent","ratio_trial":500,"L_num":7,"L_den":21,"R_num":5,"R_den":6,"correct_side":2,"subjID":"45wm","gender":"No_gender","age":"No_age","school":"No_school","test":{"fix_dur":[250,1500],"timestim":900,"targets_dim":[100,100],"targets_relative_coord":[0.1,0.9],"size_stim":[880,420],"start_dim":[100,100],"size_start":[300,300],"size_fix":60,"samplingrate":20,"img_types":["Congruent","Incongruent"],"ratios":[100,200,300,500],"rep_conds":15,"nTrials":128,"trials_to_rest":500,"Trials_order":[63,102,99,5,90,70,43,9,89,35,97,21,91,42,61,48,109,110,65,115,85,87,113,84,74,105,104,15,11,106,119,46,101,41,56,36,30,64,10,29,93,37,72,114,77,94,12,108,1,49,96,81,123,3,124,34,51,76,112,19,23,38,111,103,7,68,117,39,73,78,33,126,13,67,22,52,66,95,20,31,58,16,118,116,28,4,62,107,60,121,47,122,100,57,69,80,17,55,75,24,45,40,79,83,25,18,44,125,98,0,88,54,50,27,14,71,120,127,26,2,82,86,32,8,6,59,53,92],"cond_shown":["Incongruent","Congruent","Incongruent","Incongruent","Congruent","Congruent","Incongruent","Incongruent","Incongruent","Incongruent","Incongruent","Incongruent","Incongruent","Congruent","Incongruent","Congruent","Incongruent","Congruent","Incongruent","Incongruent","Incongruent","Incongruent","Incongruent","Congruent","Congruent","Incongruent","Congruent","Incongruent","Incongruent","Congruent","Incongruent","Congruent","Incongruent","Incongruent","Congruent","Congruent","Congruent","Congruent","Congruent","Incongruent","Incongruent","Incongruent","Congruent","Congruent","Incongruent","Congruent","Congruent","Congruent","Incongruent","Incongruent","Congruent","Incongruent","Incongruent","Incongruent","Congruent","Congruent","Incongruent","Congruent","Congruent","Incongruent","Incongruent","Congruent","Incongruent","Incongruent","Incongruent","Congruent","Incongruent","Incongruent","Incongruent","Congruent","Incongruent","Congruent","Incongruent","Incongruent","Congruent","Congruent","Congruent","Incongruent","Congruent","Incongruent","Congruent","Congruent","Congruent","Congruent","Congruent","Congruent","Congruent","Incongruent","Congruent","Incongruent","Incongruent","Congruent","Congruent","Incongruent","Incongruent","Congruent","Incongruent","Incongruent","Incongruent","Congruent","Incongruent","Congruent","Incongruent","Incongruent","Incongruent","Congruent","Congruent","Incongruent","Congruent","Congruent","Congruent","Congruent","Congruent","Incongruent","Congruent","Incongruent","Congruent","Incongruent","Congruent","Congruent","Congruent","Congruent","Congruent","Congruent","Congruent","Incongruent","Incongruent","Congruent"],"ratio_trial":[500,500,200,300,200,500,200,100,100,200,100,300,200,200,300,100,300,500,100,200,300,500,100,300,200,100,100,500,200,200,500,500,300,100,100,300,500,100,200,300,300,300,100,200,300,500,300,300,100,100,100,100,200,200,300,200,200,300,100,200,500,500,500,500,500,300,300,500,100,500,100,500,300,200,500,300,200,500,300,500,200,100,500,300,300,300,500,200,300,100,500,200,300,100,300,100,100,500,200,100,300,100,500,200,100,200,300,300,200,100,100,500,200,200,500,500,100,500,200,200,200,500,100,100,500,200,300,300],"left_num":[7,3,4,2,15,12,7,8,4,7,8,13,1,3,4,6,4,6,8,4,7,7,13,2,13,4,10,7,14,9,7,2,7,2,6,8,1,12,16,7,13,4,15,6,4,3,4,2,3,6,3,6,4,7,3,6,4,1,15,14,7,1,2,5,7,20,3,7,1,21,12,2,13,4,3,8,6,5,2,7,15,15,4,1,11,4,2,11,4,11,7,3,1,4,3,4,9,7,7,15,2,6,2,4,3,3,11,4,8,2,4,10,7,14,20,5,1,5,3,16,8,7,7,4,10,7,13,24],"right_num":[5,15,1,6,4,4,8,1,8,8,1,12,3,9,2,5,2,1,1,1,8,9,12,10,14,8,3,5,12,4,9,4,8,8,15,10,12,13,12,8,12,6,13,11,2,6,2,10,8,7,2,13,14,6,2,7,1,3,13,6,5,11,4,6,5,5,4,5,8,6,2,4,12,14,6,10,11,6,10,9,4,13,1,6,4,13,18,3,1,9,5,11,11,8,4,6,6,5,14,13,6,15,4,1,11,7,1,2,7,6,15,22,18,6,3,6,18,6,11,9,2,12,15,15,4,14,12,8],"left_den":[21,12,30,4,25,18,10,20,8,10,20,26,2,12,20,20,20,9,20,30,10,8,26,20,26,8,25,21,30,20,8,12,10,4,12,15,4,30,20,10,26,5,25,20,20,30,5,20,5,10,6,10,6,15,6,12,30,5,25,30,21,9,3,6,21,25,6,21,2,28,30,12,26,6,30,15,20,6,20,8,25,25,6,5,22,20,5,20,10,22,21,10,5,8,6,8,18,21,10,25,4,12,3,30,5,10,22,20,15,5,10,24,15,30,28,6,2,6,10,30,15,28,14,10,15,10,26,30],"right_den":[6,20,3,30,10,24,16,2,20,16,2,15,10,20,4,25,4,6,2,3,20,24,20,25,20,20,10,6,18,16,24,6,20,20,25,12,16,26,20,20,15,12,26,22,4,10,4,25,16,14,5,26,30,9,10,10,3,6,26,9,6,18,24,18,6,10,20,6,20,24,4,6,15,30,10,12,22,18,25,24,10,26,6,12,20,26,20,4,10,15,6,22,22,20,20,10,10,6,28,26,30,25,24,3,22,14,5,4,21,12,30,24,27,9,14,18,30,18,22,27,6,16,25,30,24,28,15,16],"correct_side":[2,2,2,1,1,1,1,2,1,1,2,2,1,2,2,1,2,1,2,2,1,1,2,2,2,1,1,2,2,1,1,2,1,1,2,2,2,2,1,1,2,1,1,2,2,2,1,2,1,1,1,1,1,2,1,2,2,2,1,2,2,2,1,1,2,1,1,2,1,1,2,2,2,1,2,2,2,1,2,1,1,1,1,2,1,2,2,2,1,2,2,2,2,1,1,2,2,2,1,1,1,2,1,2,1,2,1,2,1,2,2,2,2,2,1,1,2,1,2,1,1,2,2,2,1,1,2,1],"img_shown":["img2/500/Incongruent/R/I_Dist_500_LN_7_LD_21_RN_5_RD_6_1.png","img2/500/Congruent/R/C_Dist_500_LN_3_LD_12_RN_15_RD_20_1.png","img2/200/Incongruent/R/I_Dist_200_LN_4_LD_30_RN_1_RD_3_1.png","img2/300/Incongruent/L/I_Dist_300_LN_2_LD_4_RN_6_RD_30_0.png","img2/200/Congruent/L/C_Dist_200_LN_15_LD_25_RN_4_RD_10_0.png","img2/500/Congruent/L/C_Dist_500_LN_12_LD_18_RN_4_RD_24_0.png","img2/200/Incongruent/L/I_Dist_200_LN_7_LD_10_RN_8_RD_16_0.png","img2/100/Incongruent/R/I_Dist_100_LN_8_LD_20_RN_1_RD_2_1.png","img2/100/Incongruent/L/I_Dist_100_LN_4_LD_8_RN_8_RD_20_0.png","img2/200/Incongruent/L/I_Dist_200_LN_7_LD_10_RN_8_RD_16_0.png","img2/100/Incongruent/R/I_Dist_100_LN_8_LD_20_RN_1_RD_2_1.png","img2/300/Incongruent/R/I_Dist_300_LN_13_LD_26_RN_12_RD_15_1.png","img2/200/Incongruent/L/I_Dist_200_LN_1_LD_2_RN_3_RD_10_0.png","img2/200/Congruent/R/C_Dist_200_LN_3_LD_12_RN_9_RD_20_1.png","img2/300/Incongruent/R/I_Dist_300_LN_4_LD_20_RN_2_RD_4_1.png","img2/100/Congruent/L/C_Dist_100_LN_6_LD_20_RN_5_RD_25_0.png","img2/300/Incongruent/R/I_Dist_300_LN_4_LD_20_RN_2_RD_4_1.png","img2/500/Congruent/L/C_Dist_500_LN_6_LD_9_RN_1_RD_6_0.png","img2/100/Incongruent/R/I_Dist_100_LN_8_LD_20_RN_1_RD_2_1.png","img2/200/Incongruent/R/I_Dist_200_LN_4_LD_30_RN_1_RD_3_1.png","img2/300/Incongruent/L/I_Dist_300_LN_7_LD_10_RN_8_RD_20_0.png","img2/500/Incongruent/L/I_Dist_500_LN_7_LD_8_RN_9_RD_24_0.png","img2/100/Incongruent/R/I_Dist_100_LN_13_LD_26_RN_12_RD_20_1.png","img2/300/Congruent/R/C_Dist_300_LN_2_LD_20_RN_10_RD_25_1.png","img2/200/Congruent/R/C_Dist_200_LN_13_LD_26_RN_14_RD_20_1.png","img2/100/Incongruent/L/I_Dist_100_LN_4_LD_8_RN_8_RD_20_0.png","img2/100/Congruent/L/C_Dist_100_LN_10_LD_25_RN_3_RD_10_0.png","img2/500/Incongruent/R/I_Dist_500_LN_7_LD_21_RN_5_RD_6_1.png","img2/200/Incongruent/R/I_Dist_200_LN_14_LD_30_RN_12_RD_18_1.png","img2/200/Congruent/L/C_Dist_200_LN_9_LD_20_RN_4_RD_16_0.png","img2/500/Incongruent/L/I_Dist_500_LN_7_LD_8_RN_9_RD_24_0.png","img2/500/Congruent/R/C_Dist_500_LN_2_LD_12_RN_4_RD_6_1.png","img2/300/Incongruent/L/I_Dist_300_LN_7_LD_10_RN_8_RD_20_0.png","img2/100/Incongruent/L/I_Dist_100_LN_2_LD_4_RN_8_RD_20_0.png","img2/100/Congruent/R/C_Dist_100_LN_6_LD_12_RN_15_RD_25_1.png","img2/300/Congruent/R/C_Dist_300_LN_8_LD_15_RN_10_RD_12_1.png","img2/500/Congruent/R/C_Dist_500_LN_1_LD_4_RN_12_RD_16_1.png","img2/100/Congruent/R/C_Dist_100_LN_12_LD_30_RN_13_RD_26_1.png","img2/200/Congruent/L/C_Dist_200_LN_16_LD_20_RN_12_RD_20_0.png","img2/300/Incongruent/L/I_Dist_300_LN_7_LD_10_RN_8_RD_20_0.png","img2/300/Incongruent/R/I_Dist_300_LN_13_LD_26_RN_12_RD_15_1.png","img2/300/Incongruent/L/I_Dist_300_LN_4_LD_5_RN_6_RD_12_0.png","img2/100/Congruent/L/C_Dist_100_LN_15_LD_25_RN_13_RD_26_0.png","img2/200/Congruent/R/C_Dist_200_LN_6_LD_20_RN_11_RD_22_1.png","img2/300/Incongruent/R/I_Dist_300_LN_4_LD_20_RN_2_RD_4_1.png","img2/500/Congruent/R/C_Dist_500_LN_3_LD_30_RN_6_RD_10_1.png","img2/300/Congruent/L/C_Dist_300_LN_4_LD_5_RN_2_RD_4_0.png","img2/300/Congruent/R/C_Dist_300_LN_2_LD_20_RN_10_RD_25_1.png","img2/100/Incongruent/L/I_Dist_100_LN_3_LD_5_RN_8_RD_16_0.png","img2/100/Incongruent/L/I_Dist_100_LN_6_LD_10_RN_7_RD_14_0.png","img2/100/Congruent/L/C_Dist_100_LN_3_LD_6_RN_2_RD_5_0.png","img2/100/Incongruent/L/I_Dist_100_LN_6_LD_10_RN_13_RD_26_0.png","img2/200/Incongruent/L/I_Dist_200_LN_4_LD_6_RN_14_RD_30_0.png","img2/200/Incongruent/R/I_Dist_200_LN_7_LD_15_RN_6_RD_9_1.png","img2/300/Congruent/L/C_Dist_300_LN_3_LD_6_RN_2_RD_10_0.png","img2/200/Congruent/R/C_Dist_200_LN_6_LD_12_RN_7_RD_10_1.png","img2/200/Incongruent/R/I_Dist_200_LN_4_LD_30_RN_1_RD_3_1.png","img2/300/Congruent/R/C_Dist_300_LN_1_LD_5_RN_3_RD_6_1.png","img2/100/Congruent/L/C_Dist_100_LN_15_LD_25_RN_13_RD_26_0.png","img2/200/Incongruent/R/I_Dist_200_LN_14_LD_30_RN_6_RD_9_1.png","img2/500/Incongruent/R/I_Dist_500_LN_7_LD_21_RN_5_RD_6_1.png","img2/500/Congruent/R/C_Dist_500_LN_1_LD_9_RN_11_RD_18_1.png","img2/500/Incongruent/L/I_Dist_500_LN_2_LD_3_RN_4_RD_24_0.png","img2/500/Incongruent/L/I_Dist_500_LN_5_LD_6_RN_6_RD_18_0.png","img2/500/Incongruent/R/I_Dist_500_LN_7_LD_21_RN_5_RD_6_1.png","img2/300/Congruent/L/C_Dist_300_LN_20_LD_25_RN_5_RD_10_0.png","img2/300/Incongruent/L/I_Dist_300_LN_3_LD_6_RN_4_RD_20_0.png","img2/500/Incongruent/R/I_Dist_500_LN_7_LD_21_RN_5_RD_6_1.png","img2/100/Incongruent/L/I_Dist_100_LN_1_LD_2_RN_8_RD_20_0.png","img2/500/Congruent/L/C_Dist_500_LN_21_LD_28_RN_6_RD_24_0.png","img2/100/Incongruent/R/I_Dist_100_LN_12_LD_30_RN_2_RD_4_1.png","img2/500/Congruent/R/C_Dist_500_LN_2_LD_12_RN_4_RD_6_1.png","img2/300/Incongruent/R/I_Dist_300_LN_13_LD_26_RN_12_RD_15_1.png","img2/200/Incongruent/L/I_Dist_200_LN_4_LD_6_RN_14_RD_30_0.png","img2/500/Congruent/R/C_Dist_500_LN_3_LD_30_RN_6_RD_10_1.png","img2/300/Congruent/R/C_Dist_300_LN_8_LD_15_RN_10_RD_12_1.png","img2/200/Congruent/R/C_Dist_200_LN_6_LD_20_RN_11_RD_22_1.png","img2/500/Incongruent/L/I_Dist_500_LN_5_LD_6_RN_6_RD_18_0.png","img2/300/Congruent/R/C_Dist_300_LN_2_LD_20_RN_10_RD_25_1.png","img2/500/Incongruent/L/I_Dist_500_LN_7_LD_8_RN_9_RD_24_0.png","img2/200/Congruent/L/C_Dist_200_LN_15_LD_25_RN_4_RD_10_0.png","img2/100/Congruent/L/C_Dist_100_LN_15_LD_25_RN_13_RD_26_0.png","img2/500/Congruent/L/C_Dist_500_LN_4_LD_6_RN_1_RD_6_0.png","img2/300/Congruent/R/C_Dist_300_LN_1_LD_5_RN_6_RD_12_1.png","img2/300/Congruent/L/C_Dist_300_LN_11_LD_22_RN_4_RD_20_0.png","img2/300/Congruent/R/C_Dist_300_LN_4_LD_20_RN_13_RD_26_1.png","img2/500/Congruent/R/C_Dist_500_LN_2_LD_5_RN_18_RD_20_1.png","img2/200/Incongruent/R/I_Dist_200_LN_11_LD_20_RN_3_RD_4_1.png","img2/300/Congruent/L/C_Dist_300_LN_4_LD_10_RN_1_RD_10_0.png","img2/100/Incongruent/R/I_Dist_100_LN_11_LD_22_RN_9_RD_15_1.png","img2/500/Incongruent/R/I_Dist_500_LN_7_LD_21_RN_5_RD_6_1.png","img2/200/Congruent/R/C_Dist_200_LN_3_LD_10_RN_11_RD_22_1.png","img2/300/Congruent/R/C_Dist_300_LN_1_LD_5_RN_11_RD_22_1.png","img2/100/Incongruent/L/I_Dist_100_LN_4_LD_8_RN_8_RD_20_0.png","img2/300/Incongruent/L/I_Dist_300_LN_3_LD_6_RN_4_RD_20_0.png","img2/100/Congruent/R/C_Dist_100_LN_4_LD_8_RN_6_RD_10_1.png","img2/100/Incongruent/R/I_Dist_100_LN_9_LD_18_RN_6_RD_10_1.png","img2/500/Incongruent/R/I_Dist_500_LN_7_LD_21_RN_5_RD_6_1.png","img2/200/Incongruent/L/I_Dist_200_LN_7_LD_10_RN_14_RD_28_0.png","img2/100/Congruent/L/C_Dist_100_LN_15_LD_25_RN_13_RD_26_0.png","img2/300/Incongruent/L/I_Dist_300_LN_2_LD_4_RN_6_RD_30_0.png","img2/100/Congruent/R/C_Dist_100_LN_6_LD_12_RN_15_RD_25_1.png","img2/500/Incongruent/L/I_Dist_500_LN_2_LD_3_RN_4_RD_24_0.png","img2/200/Incongruent/R/I_Dist_200_LN_4_LD_30_RN_1_RD_3_1.png","img2/100/Incongruent/L/I_Dist_100_LN_3_LD_5_RN_11_RD_22_0.png","img2/200/Congruent/R/C_Dist_200_LN_3_LD_10_RN_7_RD_14_1.png","img2/300/Congruent/L/C_Dist_300_LN_11_LD_22_RN_1_RD_5_0.png","img2/300/Incongruent/R/I_Dist_300_LN_4_LD_20_RN_2_RD_4_1.png","img2/200/Congruent/L/C_Dist_200_LN_8_LD_15_RN_7_RD_21_0.png","img2/100/Congruent/R/C_Dist_100_LN_2_LD_5_RN_6_RD_12_1.png","img2/100/Congruent/R/C_Dist_100_LN_4_LD_10_RN_15_RD_30_1.png","img2/500/Congruent/R/C_Dist_500_LN_10_LD_24_RN_22_RD_24_1.png","img2/200/Congruent/R/C_Dist_200_LN_7_LD_15_RN_18_RD_27_1.png","img2/200/Incongruent/R/I_Dist_200_LN_14_LD_30_RN_6_RD_9_1.png","img2/500/Congruent/L/C_Dist_500_LN_20_LD_28_RN_3_RD_14_0.png","img2/500/Incongruent/L/I_Dist_500_LN_5_LD_6_RN_6_RD_18_0.png","img2/100/Congruent/R/C_Dist_100_LN_1_LD_2_RN_18_RD_30_1.png","img2/500/Incongruent/L/I_Dist_500_LN_5_LD_6_RN_6_RD_18_0.png","img2/200/Congruent/R/C_Dist_200_LN_3_LD_10_RN_11_RD_22_1.png","img2/200/Congruent/L/C_Dist_200_LN_16_LD_30_RN_9_RD_27_0.png","img2/200/Congruent/L/C_Dist_200_LN_8_LD_15_RN_2_RD_6_0.png","img2/500/Congruent/R/C_Dist_500_LN_7_LD_28_RN_12_RD_16_1.png","img2/100/Congruent/R/C_Dist_100_LN_7_LD_14_RN_15_RD_25_1.png","img2/100/Congruent/R/C_Dist_100_LN_4_LD_10_RN_15_RD_30_1.png","img2/500/Congruent/L/C_Dist_500_LN_10_LD_15_RN_4_RD_24_0.png","img2/200/Incongruent/L/I_Dist_200_LN_7_LD_10_RN_14_RD_28_0.png","img2/300/Incongruent/R/I_Dist_300_LN_13_LD_26_RN_12_RD_15_1.png","img2/300/Congruent/L/C_Dist_300_LN_24_LD_30_RN_8_RD_16_0.png"],"dist100_C":[["C_Dist_100_LN_10_LD_25_RN_3_RD_10_0.png","C_Dist_100_LN_11_LD_22_RN_4_RD_10_0.png","C_Dist_100_LN_11_LD_22_RN_6_RD_15_0.png","C_Dist_100_LN_15_LD_25_RN_13_RD_26_0.png","C_Dist_100_LN_3_LD_6_RN_2_RD_5_0.png","C_Dist_100_LN_6_LD_20_RN_5_RD_25_0.png","C_Dist_100_LN_8_LD_16_RN_2_RD_5_0.png","C_Dist_100_LN_9_LD_15_RN_8_RD_16_0.png"],["C_Dist_100_LN_1_LD_2_RN_18_RD_30_1.png","C_Dist_100_LN_1_LD_2_RN_3_RD_5_1.png","C_Dist_100_LN_12_LD_30_RN_13_RD_26_1.png","C_Dist_100_LN_2_LD_5_RN_11_RD_22_1.png","C_Dist_100_LN_2_LD_5_RN_6_RD_12_1.png","C_Dist_100_LN_3_LD_20_RN_4_RD_16_1.png","C_Dist_100_LN_4_LD_10_RN_15_RD_30_1.png","C_Dist_100_LN_4_LD_8_RN_6_RD_10_1.png","C_Dist_100_LN_6_LD_12_RN_15_RD_25_1.png","C_Dist_100_LN_7_LD_14_RN_15_RD_25_1.png","C_Dist_100_LN_7_LD_14_RN_9_RD_15_1.png"]],"dist100_I":[["I_Dist_100_LN_1_LD_2_RN_8_RD_20_0.png","I_Dist_100_LN_2_LD_4_RN_6_RD_15_0.png","I_Dist_100_LN_2_LD_4_RN_8_RD_20_0.png","I_Dist_100_LN_3_LD_5_RN_11_RD_22_0.png","I_Dist_100_LN_3_LD_5_RN_8_RD_16_0.png","I_Dist_100_LN_3_LD_6_RN_4_RD_10_0.png","I_Dist_100_LN_3_LD_9_RN_7_RD_30_0.png","I_Dist_100_LN_4_LD_8_RN_8_RD_20_0.png","I_Dist_100_LN_6_LD_10_RN_11_RD_22_0.png","I_Dist_100_LN_6_LD_10_RN_13_RD_26_0.png","I_Dist_100_LN_6_LD_10_RN_7_RD_14_0.png","I_Dist_100_LN_9_LD_10_RN_20_RD_25_0.png","I_Dist_100_LN_9_LD_15_RN_13_RD_26_0.png","I_Dist_100_LN_9_LD_15_RN_14_RD_28_0.png"],["I_Dist_100_LN_10_LD_25_RN_8_RD_16_1.png","I_Dist_100_LN_10_LD_25_RN_9_RD_18_1.png","I_Dist_100_LN_11_LD_22_RN_9_RD_15_1.png","I_Dist_100_LN_12_LD_24_RN_9_RD_15_1.png","I_Dist_100_LN_12_LD_30_RN_2_RD_4_1.png","I_Dist_100_LN_13_LD_26_RN_12_RD_20_1.png","I_Dist_100_LN_13_LD_26_RN_6_RD_10_1.png","I_Dist_100_LN_17_LD_30_RN_10_RD_15_1.png","I_Dist_100_LN_6_LD_12_RN_3_RD_5_1.png","I_Dist_100_LN_8_LD_16_RN_6_RD_10_1.png","I_Dist_100_LN_8_LD_20_RN_1_RD_2_1.png","I_Dist_100_LN_9_LD_18_RN_6_RD_10_1.png"]],"dist100_S":[["E_Dist_100_LN_2_LD_12_RN_2_RD_30_0.png","E_Dist_100_LN_6_LD_10_RN_6_RD_12_0.png"],["E_Dist_100_LN_6_LD_12_RN_6_RD_10_1.png"]],"dist200_C":[["C_Dist_200_LN_11_LD_22_RN_3_RD_10_0.png","C_Dist_200_LN_12_LD_15_RN_6_RD_10_0.png","C_Dist_200_LN_12_LD_20_RN_6_RD_15_0.png","C_Dist_200_LN_14_LD_28_RN_6_RD_20_0.png","C_Dist_200_LN_15_LD_25_RN_4_RD_10_0.png","C_Dist_200_LN_16_LD_20_RN_12_RD_20_0.png","C_Dist_200_LN_16_LD_30_RN_9_RD_27_0.png","C_Dist_200_LN_20_LD_25_RN_9_RD_15_0.png","C_Dist_200_LN_21_LD_30_RN_2_RD_4_0.png","C_Dist_200_LN_4_LD_10_RN_3_RD_15_0.png","C_Dist_200_LN_4_LD_8_RN_3_RD_10_0.png","C_Dist_200_LN_6_LD_15_RN_3_RD_15_0.png","C_Dist_200_LN_7_LD_21_RN_2_RD_15_0.png","C_Dist_200_LN_8_LD_15_RN_2_RD_6_0.png","C_Dist_200_LN_8_LD_15_RN_3_RD_9_0.png","C_Dist_200_LN_8_LD_15_RN_7_RD_21_0.png","C_Dist_200_LN_9_LD_20_RN_4_RD_16_0.png"],["C_Dist_200_LN_1_LD_2_RN_21_RD_30_1.png","C_Dist_200_LN_13_LD_26_RN_14_RD_20_1.png","C_Dist_200_LN_3_LD_10_RN_11_RD_22_1.png","C_Dist_200_LN_3_LD_10_RN_14_RD_28_1.png","C_Dist_200_LN_3_LD_10_RN_7_RD_14_1.png","C_Dist_200_LN_3_LD_12_RN_9_RD_20_1.png","C_Dist_200_LN_3_LD_6_RN_14_RD_20_1.png","C_Dist_200_LN_5_LD_10_RN_14_RD_20_1.png","C_Dist_200_LN_6_LD_12_RN_7_RD_10_1.png","C_Dist_200_LN_6_LD_20_RN_11_RD_22_1.png","C_Dist_200_LN_7_LD_15_RN_18_RD_27_1.png","C_Dist_200_LN_9_LD_30_RN_13_RD_26_1.png"]],"dist200_I":[["I_Dist_200_LN_1_LD_2_RN_3_RD_10_0.png","I_Dist_200_LN_1_LD_3_RN_2_RD_15_0.png","I_Dist_200_LN_3_LD_4_RN_11_RD_20_0.png","I_Dist_200_LN_4_LD_5_RN_6_RD_10_0.png","I_Dist_200_LN_4_LD_6_RN_14_RD_30_0.png","I_Dist_200_LN_7_LD_10_RN_12_RD_24_0.png","I_Dist_200_LN_7_LD_10_RN_14_RD_28_0.png","I_Dist_200_LN_7_LD_10_RN_8_RD_16_0.png"],["I_Dist_200_LN_11_LD_20_RN_3_RD_4_1.png","I_Dist_200_LN_14_LD_30_RN_12_RD_18_1.png","I_Dist_200_LN_14_LD_30_RN_6_RD_9_1.png","I_Dist_200_LN_3_LD_10_RN_1_RD_2_1.png","I_Dist_200_LN_4_LD_30_RN_1_RD_3_1.png","I_Dist_200_LN_6_LD_20_RN_3_RD_6_1.png","I_Dist_200_LN_7_LD_15_RN_4_RD_6_1.png","I_Dist_200_LN_7_LD_15_RN_6_RD_9_1.png","I_Dist_200_LN_9_LD_15_RN_8_RD_10_1.png"]],"dist200_S":[["E_Dist_200_LN_3_LD_6_RN_3_RD_10_0.png"],["E_Dist_200_LN_3_LD_10_RN_3_RD_6_1.png"]],"dist300_C":[["C_Dist_300_LN_11_LD_22_RN_1_RD_5_0.png","C_Dist_300_LN_11_LD_22_RN_2_RD_10_0.png","C_Dist_300_LN_11_LD_22_RN_4_RD_20_0.png","C_Dist_300_LN_12_LD_24_RN_2_RD_10_0.png","C_Dist_300_LN_18_LD_20_RN_9_RD_15_0.png","C_Dist_300_LN_20_LD_25_RN_13_RD_26_0.png","C_Dist_300_LN_20_LD_25_RN_14_RD_28_0.png","C_Dist_300_LN_20_LD_25_RN_5_RD_10_0.png","C_Dist_300_LN_20_LD_25_RN_8_RD_16_0.png","C_Dist_300_LN_20_LD_25_RN_9_RD_18_0.png","C_Dist_300_LN_24_LD_30_RN_2_RD_4_0.png","C_Dist_300_LN_24_LD_30_RN_8_RD_16_0.png","C_Dist_300_LN_3_LD_6_RN_2_RD_10_0.png","C_Dist_300_LN_4_LD_10_RN_1_RD_10_0.png","C_Dist_300_LN_4_LD_5_RN_2_RD_4_0.png","C_Dist_300_LN_8_LD_16_RN_1_RD_5_0.png","C_Dist_300_LN_9_LD_10_RN_3_RD_5_0.png"],["C_Dist_300_LN_1_LD_20_RN_7_RD_20_1.png","C_Dist_300_LN_1_LD_3_RN_19_RD_30_1.png","C_Dist_300_LN_1_LD_30_RN_8_RD_24_1.png","C_Dist_300_LN_1_LD_5_RN_11_RD_22_1.png","C_Dist_300_LN_1_LD_5_RN_3_RD_6_1.png","C_Dist_300_LN_1_LD_5_RN_6_RD_12_1.png","C_Dist_300_LN_2_LD_10_RN_12_RD_24_1.png","C_Dist_300_LN_2_LD_20_RN_10_RD_25_1.png","C_Dist_300_LN_3_LD_12_RN_11_RD_20_1.png","C_Dist_300_LN_3_LD_6_RN_4_RD_5_1.png","C_Dist_300_LN_4_LD_20_RN_13_RD_26_1.png","C_Dist_300_LN_5_LD_25_RN_6_RD_12_1.png","C_Dist_300_LN_5_LD_25_RN_7_RD_14_1.png","C_Dist_300_LN_7_LD_14_RN_20_RD_25_1.png","C_Dist_300_LN_8_LD_15_RN_10_RD_12_1.png"]],"dist300_I":[["I_Dist_300_LN_1_LD_2_RN_2_RD_10_0.png","I_Dist_300_LN_1_LD_2_RN_3_RD_15_0.png","I_Dist_300_LN_2_LD_4_RN_6_RD_30_0.png","I_Dist_300_LN_3_LD_6_RN_4_RD_20_0.png","I_Dist_300_LN_4_LD_5_RN_6_RD_12_0.png","I_Dist_300_LN_4_LD_5_RN_8_RD_16_0.png","I_Dist_300_LN_7_LD_10_RN_8_RD_20_0.png","I_Dist_300_LN_8_LD_10_RN_14_RD_28_0.png","I_Dist_300_LN_8_LD_10_RN_9_RD_18_0.png"],["I_Dist_300_LN_13_LD_26_RN_12_RD_15_1.png","I_Dist_300_LN_4_LD_20_RN_2_RD_4_1.png"]],"dist300_S":[["E_Dist_300_LN_9_LD_12_RN_9_RD_20_0.png"],["E_Dist_300_LN_18_LD_30_RN_18_RD_20_1.png","E_Dist_300_LN_3_LD_10_RN_3_RD_5_1.png","E_Dist_300_LN_9_LD_20_RN_9_RD_12_1.png"]],"dist500_C":[["C_Dist_500_LN_10_LD_13_RN_7_RD_26_0.png","C_Dist_500_LN_10_LD_15_RN_4_RD_24_0.png","C_Dist_500_LN_12_LD_16_RN_3_RD_12_0.png","C_Dist_500_LN_12_LD_18_RN_4_RD_24_0.png","C_Dist_500_LN_15_LD_18_RN_5_RD_15_0.png","C_Dist_500_LN_15_LD_20_RN_1_RD_4_0.png","C_Dist_500_LN_18_LD_27_RN_1_RD_6_0.png","C_Dist_500_LN_20_LD_24_RN_1_RD_3_0.png","C_Dist_500_LN_20_LD_24_RN_3_RD_9_0.png","C_Dist_500_LN_20_LD_24_RN_7_RD_21_0.png","C_Dist_500_LN_20_LD_28_RN_3_RD_14_0.png","C_Dist_500_LN_21_LD_28_RN_6_RD_24_0.png","C_Dist_500_LN_22_LD_28_RN_2_RD_7_0.png","C_Dist_500_LN_25_LD_30_RN_9_RD_27_0.png","C_Dist_500_LN_4_LD_6_RN_1_RD_6_0.png","C_Dist_500_LN_5_LD_6_RN_2_RD_6_0.png","C_Dist_500_LN_6_LD_9_RN_1_RD_6_0.png","C_Dist_500_LN_7_LD_10_RN_1_RD_5_0.png","C_Dist_500_LN_8_LD_12_RN_1_RD_6_0.png","C_Dist_500_LN_8_LD_12_RN_4_RD_24_0.png"],["C_Dist_500_LN_1_LD_4_RN_12_RD_16_1.png","C_Dist_500_LN_1_LD_4_RN_9_RD_12_1.png","C_Dist_500_LN_1_LD_9_RN_11_RD_18_1.png","C_Dist_500_LN_10_LD_24_RN_22_RD_24_1.png","C_Dist_500_LN_2_LD_12_RN_10_RD_15_1.png","C_Dist_500_LN_2_LD_12_RN_12_RD_18_1.png","C_Dist_500_LN_2_LD_12_RN_4_RD_6_1.png","C_Dist_500_LN_2_LD_24_RN_7_RD_12_1.png","C_Dist_500_LN_2_LD_5_RN_18_RD_20_1.png","C_Dist_500_LN_2_LD_5_RN_9_RD_10_1.png","C_Dist_500_LN_2_LD_8_RN_12_RD_16_1.png","C_Dist_500_LN_2_LD_8_RN_21_RD_28_1.png","C_Dist_500_LN_3_LD_10_RN_4_RD_5_1.png","C_Dist_500_LN_3_LD_12_RN_15_RD_20_1.png","C_Dist_500_LN_3_LD_30_RN_6_RD_10_1.png","C_Dist_500_LN_3_LD_8_RN_14_RD_16_1.png","C_Dist_500_LN_4_LD_16_RN_15_RD_20_1.png","C_Dist_500_LN_4_LD_24_RN_12_RD_18_1.png","C_Dist_500_LN_5_LD_14_RN_6_RD_7_1.png","C_Dist_500_LN_7_LD_21_RN_20_RD_24_1.png","C_Dist_500_LN_7_LD_28_RN_12_RD_16_1.png","C_Dist_500_LN_7_LD_28_RN_9_RD_12_1.png","C_Dist_500_LN_9_LD_27_RN_20_RD_24_1.png"]],"dist500_I":[["I_Dist_500_LN_2_LD_3_RN_4_RD_24_0.png","I_Dist_500_LN_5_LD_6_RN_6_RD_18_0.png","I_Dist_500_LN_7_LD_8_RN_9_RD_24_0.png"],["I_Dist_500_LN_7_LD_21_RN_5_RD_6_1.png"]],"dist500_S":[["E_Dist_500_LN_6_LD_8_RN_6_RD_24_0.png"],["E_Dist_500_LN_2_LD_12_RN_2_RD_3_1.png","E_Dist_500_LN_6_LD_24_RN_6_RD_8_1.png"]]}},{"start_time":1452340981125,"click_time":1452340983348,"finger_time":1452340982707,"fix_duration":391.13562404526556,"trial":1,"RT":1582,"MT":641,"sideResp":2,"stimulus":[],"xmouse":[380,380,380,380,380,380,380,380,380,380,380,380,380,380,380,380,380,380,380,380,380,380,380,380,380,380,380,380,380,380,380,380,380,380,380,380,380,380,380,380,380,380,380,380,380,380,386.66668701171875,388,388,388.66668701171875,389.3333435058594,389.3333435058594,389.3333435058594,389.3333435058594,389.3333435058594,388.66668701171875,388.66668701171875,388.66668701171875,388.66668701171875,388.66668701171875,388.66668701171875,388.66668701171875,388.66668701171875,388.66668701171875,388.66668701171875,388.66668701171875,388.66668701171875,388.66668701171875,388.66668701171875,388.66668701171875,388.66668701171875,388.66668701171875,392,394.66668701171875,396.66668701171875,398,400.66668701171875,406,408,413.3333435058594,416,421.3333435058594,432,435.3333435058594,444,448,458,465.3333435058594,476.66668701171875,480.66668701171875,492,498.66668701171875,514,538.6666870117188,546.6666870117188,561.3333740234375,574.6666870117188,580,595.3333740234375,604.6666870117188,608.6666870117188,619.3333740234375,624,638,646,650,657.3333740234375,668,672,678.6666870117188,685.3333740234375,688],"ymouse":[820,820,820,820,820,820,820,820,820,820,820,820,820,820,820,820,820,820,820,820,820,820,820,820,820,820,820,820,820,820,820,820,820,820,820,820,820,820,820,820,820,820,820,820,820,820,835.3333740234375,837.3333740234375,838,838.6666870117188,839.3333740234375,840,840,840,839.3333740234375,839.3333740234375,839.3333740234375,839.3333740234375,839.3333740234375,839.3333740234375,839.3333740234375,839.3333740234375,839.3333740234375,839.3333740234375,839.3333740234375,838,838,838,838,838,838,838,812,806.6666870117188,801.3333740234375,799.3333740234375,793.3333740234375,780,774,763.3333740234375,757.3333740234375,746,726,718.6666870117188,704.6666870117188,697.3333740234375,680.6666870117188,665.3333740234375,641.3333740234375,631.3333740234375,603.3333740234375,587.3333740234375,554.6666870117188,501.3333740234375,483.3333435058594,449.3333435058594,418,404,364.66668701171875,337.3333435058594,324.66668701171875,296,282.66668701171875,240,214,202,180.6666717529297,149.33334350585938,139.33334350585938,122,106,98],"timestamp_mouse":[2,22,43,63,82,103,123,143,163,182,203,222,243,263,282,303,322,342,362,383,403,422,443,463,483,502,523,543,563,583,602,623,643,663,683,703,722,742,763,782,803,823,842,862,882,903,923,943,963,983,1002,1023,1043,1063,1083,1102,1123,1143,1163,1183,1203,1223,1242,1263,1283,1303,1322,1342,1363,1382,1402,1423,1445,1463,1483,1503,1523,1544,1563,1582,1603,1622,1645,1662,1683,1702,1723,1743,1764,1783,1803,1822,1842,1864,1882,1902,1922,1942,1965,1982,2003,2023,2042,2063,2083,2103,2123,2144,2163,2182,2202,2223],"xSR":350,"ySR":768,"xT1":30,"yT1":0,"xT2":670,"yT2":0,"toosoon":0,"cond_shown":"Congruent","ratio_trial":500,"L_num":3,"L_den":12,"R_num":15,"R_den":20,"correct_side":2,"subjID":"45wm","gender":"No_gender","school":"No_school","age":"No_age"},{"start_time":1452340988955,"click_time":1452340991267,"finger_time":1452340990707,"fix_duration":1340.3643929573486,"trial":2,"RT":1752,"MT":560,"sideResp":1,"stimulus":[],"xmouse":[397,397,397,397,397,397,397,397,397,397,397,397,397,397,397,397,397,397,397,397,397,397,397,397,397,397,397,397,397,397,397,397,397,397,397,397,397,397,397,397,397,397,397,397,397,397,397,397,397,397,397,397,397,397,397,397,397,397,397,397,397,397,397,397,397,397,397,397,397,397,397,397,397,397,397,397,397,397,397,397,397,397,397,397,397,399.3333435058594,397.3333435058594,392.66668701171875,385.3333435058594,374.66668701171875,358.66668701171875,351.3333435058594,336.66668701171875,315.3333435058594,308.66668701171875,293.3333435058594,286,270.66668701171875,250,241.33334350585938,228,221.33334350585938,207.33334350585938,196.6666717529297,178,172,159.33334350585938,153.33334350585938,143.33334350585938,130,124.66667175292969,115.33333587646484,113.33333587646484,105.33333587646484,95.33333587646484,92],"ymouse":[811,811,811,811,811,811,811,811,811,811,811,811,811,811,811,811,811,811,811,811,811,811,811,811,811,811,811,811,811,811,811,811,811,811,811,811,811,811,811,811,811,811,811,811,811,811,811,811,811,811,811,811,811,811,811,811,811,811,811,811,811,811,811,811,811,811,811,811,811,811,811,811,811,811,811,811,811,811,811,811,811,811,811,811,811,788,770.6666870117188,754.6666870117188,739.3333740234375,718.6666870117188,686.6666870117188,668.6666870117188,636.6666870117188,590.6666870117188,576,546,530.6666870117188,500,456,440,411.3333435058594,397.3333435058594,370,344,307.3333435058594,295.3333435058594,271.3333435058594,259.3333435058594,234,204.6666717529297,193.33334350585938,172,161.33334350585938,138,108.66667175292969,97.33333587646484],"timestamp_mouse":[20,35,52,73,93,113,133,153,173,193,212,233,252,272,292,313,332,353,373,392,413,433,453,473,492,512,532,553,573,593,613,632,653,673,693,713,733,753,773,793,813,833,852,873,893,913,932,952,973,992,1012,1032,1053,1073,1093,1112,1133,1153,1173,1193,1213,1233,1252,1272,1293,1313,1333,1352,1373,1393,1413,1433,1453,1473,1493,1512,1532,1553,1573,1593,1612,1633,1652,1673,1693,1713,1733,1752,1774,1792,1813,1832,1853,1874,1893,1913,1932,1952,1974,1993,2013,2033,2052,2073,2094,2113,2133,2153,2173,2193,2212,2232,2252,2273,2292,2312],"xSR":350,"ySR":768,"xT1":30,"yT1":0,"xT2":670,"yT2":0,"toosoon":0,"cond_shown":"Incongruent","ratio_trial":200,"L_num":4,"L_den":30,"R_num":1,"R_den":3,"correct_side":2,"subjID":"45wm","gender":"No_gender","school":"No_school","age":"No_age"},{"start_time":1452340995588,"click_time":1452340997548,"finger_time":1452340997148,"fix_duration":1278.9325532673522,"trial":3,"RT":1560,"MT":400,"sideResp":1,"stimulus":[],"xmouse":[404.66668701171875,404.66668701171875,404.66668701171875,404,404,404,403.3333435058594,403.3333435058594,403.3333435058594,403.3333435058594,403.3333435058594,403.3333435058594,403.3333435058594,403.3333435058594,403.3333435058594,403.3333435058594,402.66668701171875,402.66668701171875,402.66668701171875,402.66668701171875,402.66668701171875,402.66668701171875,402.66668701171875,402.66668701171875,402.66668701171875,402.66668701171875,398.66668701171875,398.66668701171875,398.66668701171875,398.66668701171875,398.66668701171875,398.66668701171875,398.66668701171875,398.66668701171875,398.66668701171875,398.66668701171875,398,398,398,398,398,398,398,398,398,398,397.3333435058594,397.3333435058594,397.3333435058594,397.3333435058594,397.3333435058594,397.3333435058594,397.3333435058594,397.3333435058594,397.3333435058594,397.3333435058594,396.66668701171875,396.66668701171875,396.66668701171875,396.66668701171875,396.66668701171875,396.66668701171875,396.66668701171875,396.66668701171875,396.66668701171875,396.66668701171875,395.3333435058594,395.3333435058594,395.3333435058594,395.3333435058594,395.3333435058594,395.3333435058594,395.3333435058594,395.3333435058594,369.3333435058594,362.66668701171875,359.3333435058594,356.66668701171875,352,346,338,332.66668701171875,319.3333435058594,312.66668701171875,290,276.66668701171875,268,252.6666717529297,243.33334350585938,227.33334350585938,201.33334350585938,182,174,154,145.33334350585938,116.66667175292969,98.66667175292969,91.33333587646484,80],"ymouse":[826.6666870117188,826.6666870117188,826.6666870117188,826.6666870117188,826,826,824.6666870117188,824.6666870117188,824.6666870117188,824.6666870117188,824.6666870117188,824.6666870117188,824.6666870117188,824.6666870117188,824.6666870117188,824.6666870117188,818.6666870117188,818.6666870117188,818.6666870117188,818.6666870117188,818.6666870117188,818.6666870117188,818.6666870117188,818.6666870117188,818.6666870117188,818.6666870117188,817.3333740234375,817.3333740234375,817.3333740234375,817.3333740234375,817.3333740234375,817.3333740234375,817.3333740234375,817.3333740234375,817.3333740234375,817.3333740234375,818,818,818,818,818,818,818,818,818,818,818.6666870117188,818.6666870117188,818.6666870117188,818.6666870117188,818.6666870117188,818.6666870117188,818.6666870117188,818.6666870117188,818.6666870117188,818.6666870117188,818.6666870117188,818.6666870117188,818.6666870117188,818.6666870117188,818.6666870117188,818.6666870117188,818.6666870117188,818.6666870117188,818.6666870117188,818.6666870117188,818,818,818,818,818,818,818,818,791.3333740234375,781.3333740234375,776.6666870117188,772,763.3333740234375,750.6666870117188,738,729.3333740234375,704,687.3333740234375,632,592,571.3333740234375,527.3333740234375,504.66668701171875,454.66668701171875,373.3333435058594,317.3333435058594,292.66668701171875,246.66668701171875,225.33334350585938,169.33334350585938,136,123.33334350585938,99.33333587646484],"timestamp_mouse":[7,26,40,59,81,99,120,139,160,180,199,219,240,260,280,300,320,340,360,379,400,420,440,460,480,500,520,540,559,580,600,620,640,660,679,700,720,740,760,780,800,820,840,860,880,900,919,939,959,979,1000,1019,1040,1059,1080,1099,1119,1140,1160,1182,1200,1219,1239,1260,1279,1300,1319,1340,1359,1381,1400,1420,1440,1459,1482,1510,1520,1540,1559,1581,1599,1620,1640,1660,1682,1700,1720,1740,1760,1780,1801,1819,1840,1860,1879,1901,1919,1940,1960],"xSR":350,"ySR":768,"xT1":30,"yT1":0,"xT2":670,"yT2":0,"toosoon":0,"cond_shown":"Incongruent","ratio_trial":300,"L_num":2,"L_den":4,"R_num":6,"R_den":30,"correct_side":1,"subjID":"45wm","gender":"No_gender","school":"No_school","age":"No_age"},{"start_time":1452341012866,"click_time":1452341014568,"finger_time":1452341014228,"fix_duration":1276.2688780248766,"trial":4,"RT":1362,"MT":340,"sideResp":1,"stimulus":[],"xmouse":[400,400,400,400,400,400,400,400,400,400,400,400,400,400,400,400,400,400,400,400,400,400,400,400,400,400,400,400,400,400,400,400,400,400,400,400,400,400,400,400,400,400,400,400,400,396,395.3333435058594,395.3333435058594,395.3333435058594,395.3333435058594,394.66668701171875,394.66668701171875,395.3333435058594,395.3333435058594,395.3333435058594,395.3333435058594,395.3333435058594,395.3333435058594,395.3333435058594,395.3333435058594,395.3333435058594,394,394,394,394,394,394,381.3333435058594,371.3333435058594,366.66668701171875,357.3333435058594,336.66668701171875,327.3333435058594,308,286,278.66668701171875,258,225.33334350585938,214,190.6666717529297,179.33334350585938,157.33334350585938,124.66667175292969,115.33333587646484,100.66667175292969,90.66667175292969],"ymouse":[833,833,833,833,833,833,833,833,833,833,833,833,833,833,833,833,833,833,833,833,833,833,833,833,833,833,833,833,833,833,833,833,833,833,833,833,833,833,833,833,833,833,833,833,833,822.6666870117188,823.3333740234375,823.3333740234375,824,824,824,824,823.3333740234375,823.3333740234375,823.3333740234375,823.3333740234375,823.3333740234375,823.3333740234375,823.3333740234375,823.3333740234375,823.3333740234375,822,822,822,822,822,822,794,755.3333740234375,733.3333740234375,688,612,587.3333740234375,536.6666870117188,486.66668701171875,464,414.66668701171875,343.3333435058594,323.3333435058594,280.66668701171875,260,220.6666717529297,168,150,118,92.66667175292969],"timestamp_mouse":[1,37,42,61,81,101,122,141,162,182,201,221,242,261,281,301,321,342,362,381,401,421,442,461,482,501,522,542,562,582,602,622,641,662,682,701,722,742,761,782,802,822,842,862,881,902,921,942,961,981,1002,1022,1043,1062,1081,1102,1122,1142,1162,1182,1201,1222,1242,1262,1281,1301,1322,1341,1362,1382,1401,1423,1442,1462,1482,1502,1522,1541,1561,1581,1602,1622,1643,1662,1681,1702],"xSR":350,"ySR":768,"xT1":30,"yT1":0,"xT2":670,"yT2":0,"toosoon":0,"cond_shown":"Congruent","ratio_trial":200,"L_num":15,"L_den":25,"R_num":4,"R_den":10,"correct_side":1,"subjID":"45wm","gender":"No_gender","school":"No_school","age":"No_age"},{"start_time":1452341017668,"click_time":1452341019248,"finger_time":1452341018988,"fix_duration":1398.5082380981657,"trial":5,"RT":1320,"MT":260,"sideResp":1,"stimulus":[],"xmouse":[400.66668701171875,401.3333435058594,401.3333435058594,401.3333435058594,401.3333435058594,401.3333435058594,401.3333435058594,401.3333435058594,401.3333435058594,401.3333435058594,401.3333435058594,400.66668701171875,400.66668701171875,400.66668701171875,400.66668701171875,400.66668701171875,400.66668701171875,400.66668701171875,400.66668701171875,400.66668701171875,400.66668701171875,396.66668701171875,396.66668701171875,396.66668701171875,396.66668701171875,396.66668701171875,396.66668701171875,396.66668701171875,394,394,393.3333435058594,393.3333435058594,392.66668701171875,392.66668701171875,392.66668701171875,392.66668701171875,392,392,392.66668701171875,392.66668701171875,392.66668701171875,392.66668701171875,392.66668701171875,392.66668701171875,392.66668701171875,392.66668701171875,392.66668701171875,392.66668701171875,392.66668701171875,392.66668701171875,393.3333435058594,393.3333435058594,393.3333435058594,393.3333435058594,393.3333435058594,393.3333435058594,393.3333435058594,393.3333435058594,390.66668701171875,390,389.3333435058594,388.66668701171875,388,384.66668701171875,379.3333435058594,373.3333435058594,359.3333435058594,343.3333435058594,335.3333435058594,305.3333435058594,281.3333435058594,266.66668701171875,234.6666717529297,189.33334350585938,178,153.33334350585938,143.33334350585938,128,110.66667175292969,100],"ymouse":[811.3333740234375,810.6666870117188,810.6666870117188,810.6666870117188,810.6666870117188,810.6666870117188,810.6666870117188,810.6666870117188,810.6666870117188,810.6666870117188,810.6666870117188,816.6666870117188,816.6666870117188,816.6666870117188,816.6666870117188,816.6666870117188,816.6666870117188,816.6666870117188,816.6666870117188,816.6666870117188,816.6666870117188,818.6666870117188,818.6666870117188,818.6666870117188,818.6666870117188,818.6666870117188,818.6666870117188,818.6666870117188,814.6666870117188,814.6666870117188,814,814,814,814,814,814,814,814.6666870117188,814.6666870117188,814.6666870117188,814.6666870117188,814.6666870117188,814.6666870117188,814.6666870117188,814.6666870117188,814.6666870117188,814.6666870117188,814.6666870117188,814.6666870117188,814.6666870117188,812.6666870117188,812.6666870117188,812.6666870117188,812.6666870117188,812.6666870117188,812.6666870117188,812.6666870117188,812.6666870117188,808.6666870117188,806.6666870117188,806,803.3333740234375,802,795.3333740234375,783.3333740234375,771.3333740234375,738,696.6666870117188,675.3333740234375,596,533.3333740234375,499.3333740234375,431.3333435058594,334.66668701171875,308,254,226.6666717529297,177.33334350585938,111.33333587646484,80.66667175292969],"timestamp_mouse":[1,29,41,59,80,100,120,140,159,179,200,219,240,259,280,300,319,339,359,380,400,419,440,459,479,500,520,540,560,580,599,620,639,660,679,700,720,739,760,780,800,819,839,859,880,899,920,940,960,979,999,1019,1040,1060,1079,1099,1119,1139,1162,1180,1199,1220,1239,1261,1279,1300,1320,1340,1360,1380,1400,1419,1440,1461,1480,1500,1520,1540,1562,1579],"xSR":350,"ySR":768,"xT1":30,"yT1":0,"xT2":670,"yT2":0,"toosoon":0,"cond_shown":"Congruent","ratio_trial":500,"L_num":12,"L_den":18,"R_num":4,"R_den":24,"correct_side":1,"subjID":"45wm","gender":"No_gender","school":"No_school","age":"No_age"},{"start_time":1452341021839,"click_time":1452341023469,"finger_time":1452341023168,"fix_duration":930.572307908319,"trial":6,"RT":1329,"MT":301,"sideResp":2,"stimulus":[],"xmouse":[392,392,392,392,392,392,392,392,392,392,392,392,392,392,392,392,392,392,392,392,392,392,392,392,392,392,392,392,392,392,392,392,392,392,392,392,392,392,392,392,392,392,392,392,392,392,392,392,392,392,392,392,392,392,392,392,392,392,392,392,392,392,392,392,396,398.66668701171875,415.3333435058594,428,434.66668701171875,454,476,519.3333740234375,537.3333740234375,572.6666870117188,591.3333740234375,626.6666870117188,676,690.6666870117188,714,722,731.3333740234375,734.6666870117188],"ymouse":[818,818,818,818,818,818,818,818,818,818,818,818,818,818,818,818,818,818,818,818,818,818,818,818,818,818,818,818,818,818,818,818,818,818,818,818,818,818,818,818,818,818,818,818,818,818,818,818,818,818,818,818,818,818,818,818,818,818,818,818,818,818,818,818,801.3333740234375,796,756.6666870117188,718,697.3333740234375,649.3333740234375,595.3333740234375,498.66668701171875,462.66668701171875,399.3333435058594,365.3333435058594,306.66668701171875,215.33334350585938,190,149.33334350585938,132.6666717529297,110,93.33333587646484],"timestamp_mouse":[27,29,49,69,88,109,128,149,169,188,208,228,249,268,288,309,329,348,369,389,408,428,449,469,489,508,529,548,569,588,609,629,649,669,689,709,729,749,769,789,809,829,848,869,889,911,929,948,968,989,1009,1029,1048,1069,1088,1109,1129,1149,1169,1189,1209,1228,1249,1269,1288,1308,1329,1349,1369,1389,1409,1428,1449,1468,1488,1508,1528,1549,1568,1589,1608,1629],"xSR":350,"ySR":768,"xT1":30,"yT1":0,"xT2":670,"yT2":0,"toosoon":0,"cond_shown":"Incongruent","ratio_trial":200,"L_num":7,"L_den":10,"R_num":8,"R_den":16,"correct_side":1,"subjID":"45wm","gender":"No_gender","school":"No_school","age":"No_age"},{"start_time":1452341026360,"click_time":1452341028107,"finger_time":1452341027847,"fix_duration":851.4690645646241,"trial":7,"RT":1487,"MT":260,"sideResp":1,"stimulus":[],"xmouse":[384.66668701171875,384.66668701171875,384.66668701171875,384.66668701171875,384.66668701171875,384.66668701171875,384,384,383.3333435058594,383.3333435058594,382.66668701171875,382.66668701171875,382.66668701171875,382.66668701171875,382.66668701171875,382.66668701171875,382.66668701171875,382.66668701171875,382.66668701171875,382.66668701171875,382.66668701171875,383.3333435058594,383.3333435058594,383.3333435058594,383.3333435058594,383.3333435058594,383.3333435058594,383.3333435058594,383.3333435058594,383.3333435058594,383.3333435058594,384,384,384,384,384,384,384,384,384,384,383.3333435058594,383.3333435058594,383.3333435058594,383.3333435058594,383.3333435058594,383.3333435058594,383.3333435058594,383.3333435058594,383.3333435058594,383.3333435058594,382.66668701171875,382.66668701171875,382.66668701171875,382.66668701171875,382.66668701171875,382.66668701171875,382.66668701171875,382.66668701171875,382.66668701171875,382.66668701171875,382,382,382,382,382,380.66668701171875,380,380,379.3333435058594,379.3333435058594,376.66668701171875,372.66668701171875,372.66668701171875,348,331.3333435058594,303.3333435058594,292.66668701171875,268.66668701171875,255.33334350585938,228.6666717529297,188,176.6666717529297,152,128.6666717529297,118.66667175292969,96.66667175292969,73.33333587646484],"ymouse":[828,829.3333740234375,829.3333740234375,829.3333740234375,829.3333740234375,829.3333740234375,829.3333740234375,829.3333740234375,829.3333740234375,829.3333740234375,830,829.3333740234375,829.3333740234375,829.3333740234375,829.3333740234375,829.3333740234375,829.3333740234375,829.3333740234375,829.3333740234375,829.3333740234375,829.3333740234375,829.3333740234375,829.3333740234375,829.3333740234375,829.3333740234375,830,830,830,830,830,830,829.3333740234375,829.3333740234375,829.3333740234375,829.3333740234375,829.3333740234375,829.3333740234375,829.3333740234375,829.3333740234375,829.3333740234375,829.3333740234375,829.3333740234375,829.3333740234375,829.3333740234375,829.3333740234375,829.3333740234375,829.3333740234375,829.3333740234375,829.3333740234375,829.3333740234375,829.3333740234375,829.3333740234375,829.3333740234375,829.3333740234375,829.3333740234375,829.3333740234375,829.3333740234375,829.3333740234375,829.3333740234375,829.3333740234375,829.3333740234375,828.6666870117188,828.6666870117188,828.6666870117188,828.6666870117188,828.6666870117188,825.3333740234375,822,820,815.3333740234375,812.6666870117188,790.6666870117188,776.6666870117188,776.6666870117188,717.3333740234375,674.6666870117188,606,580.6666870117188,527.3333740234375,500,448.66668701171875,364.66668701171875,336,275.3333435058594,211.33334350585938,178.6666717529297,113.33334350585938,50.66667175292969],"timestamp_mouse":[8,28,48,68,88,108,128,148,168,188,207,228,247,267,287,308,328,347,367,388,408,428,448,468,488,507,528,548,568,588,607,627,648,668,687,708,727,748,768,788,808,829,848,867,888,908,928,947,968,987,1008,1028,1047,1068,1088,1107,1127,1148,1167,1187,1207,1229,1247,1268,1288,1308,1328,1348,1368,1388,1408,1430,1447,1468,1487,1508,1529,1548,1568,1587,1608,1629,1648,1668,1688,1708,1728,1747],"xSR":350,"ySR":768,"xT1":30,"yT1":0,"xT2":670,"yT2":0,"toosoon":0,"cond_shown":"Incongruent","ratio_trial":100,"L_num":8,"L_den":20,"R_num":1,"R_den":2,"correct_side":2,"subjID":"45wm","gender":"No_gender","school":"No_school","age":"No_age"},{"start_time":1452341030584,"click_time":1452341032148,"finger_time":1452341031948,"fix_duration":695.8693590525646,"trial":8,"RT":1364,"MT":200,"sideResp":1,"stimulus":[],"xmouse":[412,412,412,412,412,412,412,412,412,412,412,412,412,412,412,412,412,412,412,412,412,412,412,412,412,412,412,412,412,412,412,412,412,412,412,412,412,412,412,412,412,412,412,412,412,412,412,412,412,412,412,412,412,412,412,412,412,412,412,412,412,412,412,412,397.3333435058594,397.3333435058594,384.66668701171875,384.66668701171875,336,325.3333435058594,300,286,236,200,183.33334350585938,148,133.33334350585938,100.66667175292969,86],"ymouse":[820,820,820,820,820,820,820,820,820,820,820,820,820,820,820,820,820,820,820,820,820,820,820,820,820,820,820,820,820,820,820,820,820,820,820,820,820,820,820,820,820,820,820,820,820,820,820,820,820,820,820,820,820,820,820,820,820,820,820,820,820,820,820,820,808.6666870117188,808.6666870117188,772,772,632.6666870117188,600.6666870117188,529.3333740234375,490.66668701171875,378,312,282.66668701171875,216,184,102,62],"timestamp_mouse":[3,27,44,64,84,103,123,144,164,183,203,224,244,263,283,304,324,344,364,384,404,424,443,463,484,504,524,543,564,584,604,624,643,664,684,704,724,744,764,784,804,824,843,864,884,904,924,944,963,984,1003,1024,1043,1063,1084,1104,1124,1143,1163,1184,1204,1223,1243,1264,1285,1303,1323,1344,1364,1384,1403,1423,1444,1464,1484,1504,1524,1544,1564],"xSR":350,"ySR":768,"xT1":30,"yT1":0,"xT2":670,"yT2":0,"toosoon":0,"cond_shown":"Incongruent","ratio_trial":100,"L_num":4,"L_den":8,"R_num":8,"R_den":20,"correct_side":1,"subjID":"45wm","gender":"No_gender","school":"No_school","age":"No_age"},{"start_time":1452341035252,"click_time":1452341036668,"finger_time":1452341036449,"fix_duration":1143.0593561784724,"trial":9,"RT":1197,"MT":219,"sideResp":1,"stimulus":[],"xmouse":[403,403,403,403,403,403,403,403,403,403,403,403,403,403,403,403,403,403,403,403,403,403,403,403,403,403,403,403,403,403,403,403,403,403,403,403,403,403,403,403,403,403,403,403,403,403,403,403,403,403,403,403,403,403,403,403,403,401.3333435058594,389.3333435058594,361.3333435058594,335.3333435058594,320.66668701171875,290,274,241.33334350585938,196.6666717529297,185.33334350585938,162.6666717529297,152,135.33334350585938,116],"ymouse":[820,820,820,820,820,820,820,820,820,820,820,820,820,820,820,820,820,820,820,820,820,820,820,820,820,820,820,820,820,820,820,820,820,820,820,820,820,820,820,820,820,820,820,820,820,820,820,820,820,820,820,820,820,820,820,820,820,802.6666870117188,768,682.6666870117188,614.6666870117188,578.6666870117188,505.3333740234375,466.66668701171875,388.66668701171875,270.66668701171875,236.6666717529297,169.33334350585938,138,81.33333587646484,20],"timestamp_mouse":[30,36,56,75,95,116,136,155,176,196,215,236,255,276,295,315,335,356,375,396,416,436,455,475,496,516,536,555,576,596,615,635,655,676,696,716,735,755,776,796,815,835,855,876,895,915,935,956,975,996,1016,1036,1056,1076,1096,1115,1136,1156,1176,1197,1216,1235,1255,1275,1296,1316,1335,1356,1375,1396,1416],"xSR":350,"ySR":768,"xT1":30,"yT1":0,"xT2":670,"yT2":0,"toosoon":0,"cond_shown":"Incongruent","ratio_trial":200,"L_num":7,"L_den":10,"R_num":8,"R_den":16,"correct_side":1,"subjID":"45wm","gender":"No_gender","school":"No_school","age":"No_age"},{"start_time":1452341039390,"click_time":1452341041368,"finger_time":1452341041127,"fix_duration":1101.3645683807977,"trial":10,"RT":1737,"MT":241,"sideResp":2,"stimulus":[],"xmouse":[420,420,420,420,420,420,420,420,420,410,410,410,410,410,410,409.3333435058594,409.3333435058594,409.3333435058594,409.3333435058594,409.3333435058594,408.66668701171875,408.66668701171875,408.66668701171875,408.66668701171875,408.66668701171875,408.66668701171875,408.66668701171875,408.66668701171875,408.66668701171875,408.66668701171875,408,408,408,408,408,408,408,408,408,408,408.66668701171875,408.66668701171875,408.66668701171875,408.66668701171875,408.66668701171875,408.66668701171875,408.66668701171875,408.66668701171875,408.66668701171875,408.66668701171875,408.66668701171875,408.66668701171875,408.66668701171875,408.66668701171875,408.66668701171875,408.66668701171875,408.66668701171875,408.66668701171875,408.66668701171875,408.66668701171875,408,408,408,408,408,408,408,408,408,408,407.3333435058594,407.3333435058594,407.3333435058594,407.3333435058594,407.3333435058594,407.3333435058594,407.3333435058594,407.3333435058594,407.3333435058594,407.3333435058594,407.3333435058594,407.3333435058594,407.3333435058594,407.3333435058594,407.3333435058594,432.66668701171875,439.3333435058594,439.3333435058594,460,502,515.3333740234375,530.6666870117188,558,571.3333740234375,624.6666870117188,638.6666870117188,665.3333740234375,677.3333740234375,701.3333740234375],"ymouse":[824,824,824,824,824,824,824,824,824,836,836,836,836,836,836,836,836,836,836,836,836,836,836,836,836,836,836,836,836,836,836,836,836,836,836,836,836,836,836,836,836,836,836,836,836,836,836,836,836,836,835.3333740234375,835.3333740234375,835.3333740234375,835.3333740234375,835.3333740234375,835.3333740234375,835.3333740234375,835.3333740234375,835.3333740234375,835.3333740234375,835.3333740234375,835.3333740234375,835.3333740234375,835.3333740234375,835.3333740234375,835.3333740234375,835.3333740234375,835.3333740234375,835.3333740234375,835.3333740234375,833.3333740234375,833.3333740234375,833.3333740234375,833.3333740234375,833.3333740234375,833.3333740234375,833.3333740234375,833.3333740234375,833.3333740234375,833.3333740234375,832.6666870117188,832.6666870117188,832.6666870117188,832.6666870117188,832.6666870117188,776.6666870117188,756.6666870117188,756.6666870117188,686,560,525.3333740234375,490.66668701171875,420.66668701171875,390.66668701171875,253.33334350585938,222,165.33334350585938,140,99.33333587646484],"timestamp_mouse":[28,38,57,78,98,118,137,158,177,197,218,238,257,278,298,317,338,358,377,398,417,437,458,478,498,518,538,558,578,598,618,638,657,678,698,718,737,758,778,797,818,838,858,878,898,918,937,958,978,997,1017,1038,1058,1078,1097,1117,1138,1158,1178,1198,1217,1238,1258,1278,1298,1318,1338,1358,1378,1398,1417,1437,1457,1478,1497,1518,1538,1558,1578,1598,1617,1638,1657,1678,1698,1718,1737,1758,1778,1801,1818,1837,1857,1878,1899,1918,1938,1958,1977],"xSR":350,"ySR":768,"xT1":30,"yT1":0,"xT2":670,"yT2":0,"toosoon":0,"cond_shown":"Incongruent","ratio_trial":100,"L_num":8,"L_den":20,"R_num":1,"R_den":2,"correct_side":2,"subjID":"45wm","gender":"No_gender","school":"No_school","age":"No_age"},{"start_time":1452341043187,"click_time":1452341044948,"finger_time":1452341044367,"fix_duration":395.3978925025222,"trial":11,"RT":1180,"MT":581,"sideResp":2,"stimulus":[],"xmouse":[391.3333435058594,389.3333435058594,389.3333435058594,389.3333435058594,388,387.3333435058594,384.66668701171875,384,382.66668701171875,382,381.3333435058594,381.3333435058594,381.3333435058594,381.3333435058594,381.3333435058594,381.3333435058594,381.3333435058594,381.3333435058594,381.3333435058594,380.66668701171875,380.66668701171875,380,380,380,379.3333435058594,379.3333435058594,380,380,380,380,380,380,380,380,380,380,380,380,380,380,380,380.66668701171875,380.66668701171875,380.66668701171875,380.66668701171875,380.66668701171875,380.66668701171875,380.66668701171875,380.66668701171875,380.66668701171875,380.66668701171875,380.66668701171875,382.66668701171875,382.66668701171875,382.66668701171875,382.66668701171875,382.66668701171875,382.66668701171875,382.66668701171875,413.3333435058594,413.3333435058594,446.66668701171875,493.3333435058594,531.3333740234375,550.6666870117188,591.3333740234375,655.3333740234375,679.3333740234375,718,752.6666870117188,762.6666870117188,772.6666870117188,773.3333740234375,773.3333740234375,774,774.6666870117188,776,777.3333740234375,776.6666870117188,776.6666870117188,775.3333740234375,775.3333740234375,775.3333740234375,775.3333740234375,775.3333740234375,775.3333740234375,775.3333740234375,775.3333740234375,766],"ymouse":[832.6666870117188,832,832,832,830.6666870117188,830,828,828,826.6666870117188,826.6666870117188,826.6666870117188,826,826,826,826,826,826,826,826.6666870117188,826.6666870117188,827.3333740234375,828,828,828.6666870117188,828.6666870117188,828.6666870117188,828,828,828,828,828,828,828,828,828,828,828,828,828,828,828,828.6666870117188,828.6666870117188,828.6666870117188,828.6666870117188,828.6666870117188,828.6666870117188,828.6666870117188,828.6666870117188,828.6666870117188,828.6666870117188,828.6666870117188,829.3333740234375,829.3333740234375,829.3333740234375,829.3333740234375,829.3333740234375,829.3333740234375,829.3333740234375,761.3333740234375,761.3333740234375,678,568,490.66668701171875,450.66668701171875,370,260.66668701171875,222.6666717529297,162.6666717529297,118,102.66667175292969,82.66667175292969,74.66667175292969,71.33333587646484,62.66667175292969,58.66667175292969,49.333335876464844,40,38.66666793823242,36.66666793823242,36,36,36,36,36,36,36,36,38.66666793823242],"timestamp_mouse":[1,38,41,60,81,100,121,140,161,181,202,222,241,261,280,301,320,341,361,380,401,421,440,460,480,500,523,541,561,581,601,621,641,661,681,701,720,740,761,781,801,821,840,861,880,900,920,941,961,980,1000,1021,1040,1061,1081,1101,1120,1141,1160,1180,1201,1221,1241,1261,1281,1301,1322,1341,1360,1381,1400,1422,1441,1461,1481,1501,1521,1541,1561,1581,1601,1620,1643,1660,1681,1701,1721,1740,1761],"xSR":350,"ySR":768,"xT1":30,"yT1":0,"xT2":670,"yT2":0,"toosoon":0,"cond_shown":"Incongruent","ratio_trial":300,"L_num":13,"L_den":26,"R_num":12,"R_den":15,"correct_side":2,"subjID":"45wm","gender":"No_gender","school":"No_school","age":"No_age"},{"start_time":1452341047436,"click_time":1452341049089,"finger_time":1452341048848,"fix_duration":607.4630547382299,"trial":12,"RT":1412,"MT":241,"sideResp":1,"stimulus":[],"xmouse":[405,405,405,405,405,405,405,405,405,405,405,405,405,405,405,405,405,405,405,405,405,405,405,405,405,405,405,405,405,405,405,405,405,405,405,405,405,405,405,405,405,405,405,405,405,405,405,405,405,405,405,405,400,400,400,400,399.3333435058594,399.3333435058594,398.66668701171875,398,398,398,398,394.66668701171875,394.66668701171875,394.66668701171875,394.66668701171875,392,391.3333435058594,389.3333435058594,380,373.3333435058594,367.3333435058594,351.3333435058594,340.66668701171875,294.66668701171875,257.3333435058594,236,196,158,111.33333587646484,99.33333587646484,80],"ymouse":[807,807,807,807,807,807,807,807,807,807,807,807,807,807,807,807,807,807,807,807,807,807,807,807,807,807,807,807,807,807,807,807,807,807,807,807,807,807,807,807,807,807,807,807,807,807,807,807,807,807,807,807,822.6666870117188,824.6666870117188,824.6666870117188,829.3333740234375,829.3333740234375,829.3333740234375,829.3333740234375,829.3333740234375,828.6666870117188,828.6666870117188,828.6666870117188,824.6666870117188,824.6666870117188,824.6666870117188,824.6666870117188,804,789.3333740234375,773.3333740234375,706.6666870117188,650,620,555.3333740234375,522,426,365.3333435058594,331.3333435058594,272,213.33334350585938,128,100.66667175292969,52],"timestamp_mouse":[12,31,52,72,92,112,131,151,172,191,212,232,252,272,292,312,331,352,372,392,412,432,452,472,492,511,532,552,571,592,612,632,652,672,692,711,731,752,772,792,812,832,851,872,891,912,931,952,972,992,1012,1032,1052,1072,1093,1111,1133,1152,1172,1191,1212,1231,1252,1271,1292,1312,1332,1351,1372,1392,1412,1431,1452,1471,1492,1512,1531,1551,1572,1591,1611,1632,1652],"xSR":350,"ySR":768,"xT1":30,"yT1":0,"xT2":670,"yT2":0,"toosoon":0,"cond_shown":"Incongruent","ratio_trial":200,"L_num":1,"L_den":2,"R_num":3,"R_den":10,"correct_side":1,"subjID":"45wm","gender":"No_gender","school":"No_school","age":"No_age"},{"start_time":1452341051837,"click_time":1452341053348,"finger_time":1452341053089,"fix_duration":828.3919664435996,"trial":13,"RT":1252,"MT":259,"sideResp":2,"stimulus":[],"xmouse":[404,404,404,404,404,404,404,404,404,404,404,404,404,404,404,404,404,404,404,404,404,404,404,404,404,404,404,404,404,404,404,404,404,404,404,404,404,404,404,404,404,404,404,404,404,404,404,404,404,404,404,404,404,404,404,404,404,404,404,404,406,406,422,448,474,487.3333435058594,532,557.3333740234375,568.6666870117188,590.6666870117188,602,632.6666870117188,648.6666870117188,656,667.3333740234375,682.6666870117188],"ymouse":[819,819,819,819,819,819,819,819,819,819,819,819,819,819,819,819,819,819,819,819,819,819,819,819,819,819,819,819,819,819,819,819,819,819,819,819,819,819,819,819,819,819,819,819,819,819,819,819,819,819,819,819,819,819,819,819,819,819,819,802.6666870117188,796,796,740,662.6666870117188,596.6666870117188,561.3333740234375,454,386.66668701171875,356.66668701171875,292,260.66668701171875,183.33334350585938,148,136.6666717529297,115.33334350585938,94],"timestamp_mouse":[11,30,51,71,91,111,130,151,171,191,211,230,250,271,291,311,331,350,371,391,411,431,450,471,491,510,531,550,570,590,611,630,650,671,691,710,731,751,771,791,811,831,851,871,890,911,931,950,971,991,1011,1030,1051,1071,1091,1111,1130,1151,1171,1191,1211,1231,1251,1271,1290,1310,1332,1351,1371,1391,1410,1432,1451,1471,1491,1510],"xSR":350,"ySR":768,"xT1":30,"yT1":0,"xT2":670,"yT2":0,"toosoon":0,"cond_shown":"Congruent","ratio_trial":200,"L_num":3,"L_den":12,"R_num":9,"R_den":20,"correct_side":2,"subjID":"45wm","gender":"No_gender","school":"No_school","age":"No_age"},{"start_time":1452341056124,"click_time":1452341057388,"finger_time":1452341057187,"fix_duration":1054.7819232063357,"trial":14,"RT":1063,"MT":201,"sideResp":2,"stimulus":[],"xmouse":[393,393,393,393,393,393,393,393,393,393,393,393,393,393,393,393,393,393,393,393,393,393,393,393,393,393,393,393,393,393,393,393,393,393,393,393,393,393,393,393,393,393,393,393,393,393,393,393,393,393,408,414.66668701171875,414.66668701171875,438.66668701171875,469.3333435058594,498,514.6666870117188,554,571.3333740234375,620.6666870117188,648.6666870117188,662,688,708.6666870117188],"ymouse":[824,824,824,824,824,824,824,824,824,824,824,824,824,824,824,824,824,824,824,824,824,824,824,824,824,824,824,824,824,824,824,824,824,824,824,824,824,824,824,824,824,824,824,824,824,824,824,824,824,824,802,788,788,726.6666870117188,640,564.6666870117188,524,441.3333435058594,398.66668701171875,286.66668701171875,220.6666717529297,190.6666717529297,134,92.66667175292969],"timestamp_mouse":[5,30,44,64,83,104,124,144,164,184,203,223,244,263,284,303,324,344,363,383,404,423,443,464,483,503,524,544,564,584,604,623,643,664,684,704,724,744,763,783,804,824,843,864,884,904,923,943,964,984,1004,1024,1044,1063,1084,1104,1123,1144,1163,1184,1203,1223,1243,1264],"xSR":350,"ySR":768,"xT1":30,"yT1":0,"xT2":670,"yT2":0,"toosoon":0,"cond_shown":"Incongruent","ratio_trial":300,"L_num":4,"L_den":20,"R_num":2,"R_den":4,"correct_side":2,"subjID":"45wm","gender":"No_gender","school":"No_school","age":"No_age"},{"start_time":1452341059910,"click_time":1452341062007,"finger_time":1452341061749,"fix_duration":820.1131933945542,"trial":15,"RT":1839,"MT":258,"sideResp":2,"stimulus":[],"xmouse":[404,404,404,404,404,404,404,404,404,404,404,404,404,404,404,404,404,404,404,404,404,404,404,404,404,404,404,404,404,404,404,404,404,404,404,404,404,404,404,404,404,404,404,404,404,404,404,404,404,404,404,404,404,404,404,404,404,404,404,404,404,404,404,404,404,404,404,404,404,404,404,404,404,404,404,404,404,404,404,404,404,404,404,404,404,404,404,404,404,404,413.3333435058594,422,422,444.66668701171875,454,476.66668701171875,522,538.6666870117188,574,590.6666870117188,624,665.3333740234375,685.3333740234375,692,700.6666870117188],"ymouse":[803,803,803,803,803,803,803,803,803,803,803,803,803,803,803,803,803,803,803,803,803,803,803,803,803,803,803,803,803,803,803,803,803,803,803,803,803,803,803,803,803,803,803,803,803,803,803,803,803,803,803,803,803,803,803,803,803,803,803,803,803,803,803,803,803,803,803,803,803,803,803,803,803,803,803,803,803,803,803,803,803,803,803,803,803,803,803,803,803,803,784.6666870117188,760,760,688,660.6666870117188,599.3333740234375,495.3333435058594,460,390.66668701171875,355.3333435058594,283.3333435058594,182.6666717529297,127.33334350585938,108.66667175292969,90.66667175292969],"timestamp_mouse":[31,37,57,78,98,118,137,157,177,198,218,238,257,278,298,317,338,358,378,398,417,438,458,478,498,517,537,558,578,598,617,637,657,678,698,718,738,758,777,797,817,837,858,878,898,917,938,957,978,998,1018,1037,1058,1078,1098,1118,1138,1157,1177,1198,1217,1238,1258,1277,1297,1317,1337,1358,1377,1398,1418,1438,1458,1477,1497,1517,1538,1557,1577,1598,1618,1638,1658,1678,1698,1717,1737,1757,1778,1798,1818,1839,1858,1877,1897,1917,1940,1958,1978,1997,2017,2037,2058,2077,2097],"xSR":350,"ySR":768,"xT1":30,"yT1":0,"xT2":670,"yT2":0,"toosoon":0,"cond_shown":"Congruent","ratio_trial":100,"L_num":6,"L_den":20,"R_num":5,"R_den":25,"correct_side":1,"subjID":"45wm","gender":"No_gender","school":"No_school","age":"No_age"},{"start_time":1452341064524,"click_time":1452341065848,"finger_time":1452341065648,"fix_duration":295.14156643657685,"trial":16,"RT":1124,"MT":200,"sideResp":2,"stimulus":[],"xmouse":[402.66668701171875,402.66668701171875,402.66668701171875,402.66668701171875,403.3333435058594,403.3333435058594,402.66668701171875,402.66668701171875,402,401.3333435058594,400.66668701171875,400.66668701171875,400,400,400,399.3333435058594,399.3333435058594,398,398,398,398,398,398,398,398,398,398,392,392,392,392,392,392,392,392,392,392,390.66668701171875,390.66668701171875,390.66668701171875,390.66668701171875,390.66668701171875,390.66668701171875,390.66668701171875,390.66668701171875,390.66668701171875,390.66668701171875,389.3333435058594,389.3333435058594,389.3333435058594,389.3333435058594,389.3333435058594,390.66668701171875,391.3333435058594,392.66668701171875,394,398.66668701171875,420,431.3333435058594,465.3333435058594,486,535.3333740234375,612.6666870117188,636.6666870117188,675.3333740234375,690.6666870117188,716.6666870117188],"ymouse":[796,797.3333740234375,799.3333740234375,800,801.3333740234375,802,803.3333740234375,804,804.6666870117188,805.3333740234375,806,806.6666870117188,807.3333740234375,808,808,807.3333740234375,807.3333740234375,806.6666870117188,806.6666870117188,806.6666870117188,806.6666870117188,806.6666870117188,806.6666870117188,806.6666870117188,806.6666870117188,806.6666870117188,806.6666870117188,794,794,794,794,794,794,794,794,794,794,792,792,792,792,792,792,792,792,792,792,792,792,792,792,791.3333740234375,788.6666870117188,786,782,777.3333740234375,747.3333740234375,654,620,544.6666870117188,503.3333740234375,411.3333435058594,278,237.33334350585938,163.33334350585938,133.33334350585938,77.33333587646484],"timestamp_mouse":[5,23,43,63,84,104,125,144,164,183,204,223,244,263,284,303,324,344,364,384,403,424,444,464,483,503,524,544,564,583,603,624,644,664,684,703,724,744,764,783,804,824,844,863,884,903,924,944,963,983,1004,1024,1044,1064,1084,1104,1124,1145,1164,1184,1204,1223,1244,1264,1284,1303,1324],"xSR":350,"ySR":768,"xT1":30,"yT1":0,"xT2":670,"yT2":0,"toosoon":0,"cond_shown":"Incongruent","ratio_trial":300,"L_num":4,"L_den":20,"R_num":2,"R_den":4,"correct_side":2,"subjID":"45wm","gender":"No_gender","school":"No_school","age":"No_age"},{"start_time":1452341068159,"click_time":1452341069490,"finger_time":1452341069168,"fix_duration":250,"trial":17,"RT":1009,"MT":322,"sideResp":1,"stimulus":[],"xmouse":[402,402,402,402,402,402,402,402,402,402,402,402,402,402,402,402,402,402,402,402,402,402,402,402,402,402,402,402,402,402,402,402,402,402,402,402,402,402,402,402,402,402,402,402,402,402,402,399.3333435058594,399.3333435058594,380,370.66668701171875,348,330.66668701171875,310,298.66668701171875,276,238.6666717529297,227.33334350585938,206,195.33334350585938,174.6666717529297,146.6666717529297,139.33334350585938,126.66667175292969,121.33333587646484,113.33333587646484,104],"ymouse":[833,833,833,833,833,833,833,833,833,833,833,833,833,833,833,833,833,833,833,833,833,833,833,833,833,833,833,833,833,833,833,833,833,833,833,833,833,833,833,833,833,833,833,833,833,833,833,812,812,775.3333740234375,756,696,645.3333740234375,590,562.6666870117188,506,419.3333435058594,386,330.66668701171875,305.3333435058594,254,193.33334350585938,176.6666717529297,146,131.33334350585938,100.66667175292969,65.33333587646484],"timestamp_mouse":[26,28,49,68,89,108,128,149,169,189,208,229,248,268,289,309,329,348,369,389,409,429,449,468,489,509,529,549,569,588,609,629,649,669,689,709,728,748,769,789,809,829,848,868,889,909,929,949,968,988,1009,1030,1049,1069,1089,1108,1129,1148,1169,1188,1209,1229,1249,1269,1289,1308,1331],"xSR":350,"ySR":768,"xT1":30,"yT1":0,"xT2":670,"yT2":0,"toosoon":0,"cond_shown":"Congruent","ratio_trial":500,"L_num":6,"L_den":9,"R_num":1,"R_den":6,"correct_side":1,"subjID":"45wm","gender":"No_gender","school":"No_school","age":"No_age"},{"start_time":1452341071736,"click_time":1452341073448,"finger_time":1452341073167,"fix_duration":466.38775157449044,"trial":18,"RT":1431,"MT":281,"sideResp":2,"stimulus":[],"xmouse":[418,418,418,418,418,418,418,418,418,418,418,418,418,418,418,418,418,418,418,418,418,418,418,418,418,418,418,418,418,418,418,418,418,418,418,418,418,418,418,418,418,418,418,418,418,418,418,418,418,418,418,418,418,418,418,418,418,418,418,418,418,418,418,418,418,418,418,418,418,420,423.3333435058594,434.66668701171875,442,462,496.66668701171875,521.3333740234375,533.3333740234375,557.3333740234375,587.3333740234375,599.3333740234375,616,626,640,662,667.3333740234375,678],"ymouse":[828,828,828,828,828,828,828,828,828,828,828,828,828,828,828,828,828,828,828,828,828,828,828,828,828,828,828,828,828,828,828,828,828,828,828,828,828,828,828,828,828,828,828,828,828,828,828,828,828,828,828,828,828,828,828,828,828,828,828,828,828,828,828,828,828,828,828,828,828,808,794.6666870117188,756,731.3333740234375,680,595.3333740234375,536,506.66668701171875,446.66668701171875,362.66668701171875,332,275.3333435058594,248.66668701171875,194.6666717529297,128,108.66667175292969,79.33333587646484],"timestamp_mouse":[12,32,51,71,92,112,132,152,172,191,212,232,251,272,292,312,331,351,371,391,412,432,452,472,492,512,532,552,571,591,611,631,651,672,692,711,732,752,771,792,811,831,852,872,892,911,932,951,971,991,1012,1032,1052,1072,1092,1111,1131,1151,1172,1191,1212,1232,1251,1272,1291,1312,1331,1351,1371,1392,1411,1431,1452,1471,1491,1512,1532,1551,1574,1592,1611,1632,1652,1673,1692,1712],"xSR":350,"ySR":768,"xT1":30,"yT1":0,"xT2":670,"yT2":0,"toosoon":0,"cond_shown":"Incongruent","ratio_trial":100,"L_num":8,"L_den":20,"R_num":1,"R_den":2,"correct_side":2,"subjID":"45wm","gender":"No_gender","school":"No_school","age":"No_age"},{"start_time":1452341076740,"click_time":1452341078368,"finger_time":1452341078049,"fix_duration":1471.5150655275304,"trial":19,"RT":1309,"MT":319,"sideResp":2,"stimulus":[],"xmouse":[414,414,414,414,414,414,414,414,414,414,414,414,414,414,414,414,414,414,414,414,414,414,414,414,414,414,414,414,414,414,414,414,414,414,414,414,414,414,414,414,414,414,414,414,414,414,414,414,414,414,414,414,414,414,414,414,414,414,414,414,414,414,415.3333435058594,417.3333435058594,417.3333435058594,444.66668701171875,453.3333435058594,472.66668701171875,484.66668701171875,510.66668701171875,552,566.6666870117188,592,604.6666870117188,626.6666870117188,654.6666870117188,669.3333740234375,677.3333740234375,690,696.6666870117188,709.3333740234375,714],"ymouse":[826,826,826,826,826,826,826,826,826,826,826,826,826,826,826,826,826,826,826,826,826,826,826,826,826,826,826,826,826,826,826,826,826,826,826,826,826,826,826,826,826,826,826,826,826,826,826,826,826,826,826,826,826,826,826,826,826,826,826,826,826,826,808.6666870117188,805.3333740234375,805.3333740234375,731.3333740234375,707.3333740234375,656.6666870117188,628,567.3333740234375,478.66668701171875,448,389.3333435058594,358,304,232,192,176,148,136,106.66667175292969,96],"timestamp_mouse":[11,37,48,68,88,108,127,148,168,188,207,228,247,268,288,308,328,348,367,387,408,428,448,467,488,507,527,547,567,587,607,628,647,668,688,708,728,748,767,787,808,827,848,868,887,907,927,948,968,987,1008,1027,1048,1068,1088,1108,1127,1148,1168,1187,1208,1228,1247,1268,1288,1309,1328,1347,1368,1388,1408,1428,1448,1468,1487,1511,1528,1548,1567,1588,1611,1628],"xSR":350,"ySR":768,"xT1":30,"yT1":0,"xT2":670,"yT2":0,"toosoon":0,"cond_shown":"Incongruent","ratio_trial":200,"L_num":4,"L_den":30,"R_num":1,"R_den":3,"correct_side":2,"subjID":"45wm","gender":"No_gender","school":"No_school","age":"No_age"},{"start_time":1452341080462,"click_time":1452341081808,"finger_time":1452341081469,"fix_duration":250,"trial":20,"RT":1007,"MT":339,"sideResp":1,"stimulus":[],"xmouse":[402,402,402,402,402,402,402,402,402,402,402,402,402,402,402,402,402,402,402,402,402,402,402,402,402,402,402,402,402,402,402,402,402,402,402,402,402,402,402,402,402,402,402,402,402,402,400.66668701171875,400.66668701171875,400.66668701171875,400.66668701171875,382.66668701171875,374.66668701171875,370,359.3333435058594,352.66668701171875,337.3333435058594,308,285.3333435058594,274,247.33334350585938,234.6666717529297,196.6666717529297,171.33334350585938,160.6666717529297,143.33334350585938,135.33334350585938,122,120],"ymouse":[826,826,826,826,826,826,826,826,826,826,826,826,826,826,826,826,826,826,826,826,826,826,826,826,826,826,826,826,826,826,826,826,826,826,826,826,826,826,826,826,826,826,826,826,826,826,809.3333740234375,805.3333740234375,805.3333740234375,805.3333740234375,732.6666870117188,692.6666870117188,669.3333740234375,619.3333740234375,594,538.6666870117188,455.3333435058594,406,382.66668701171875,332,306.66668701171875,240,196.6666717529297,178.6666717529297,142,128,100.66667175292969,92],"timestamp_mouse":[10,36,46,65,86,106,126,145,166,186,206,226,246,265,286,306,326,346,366,386,406,426,446,465,486,506,526,546,566,585,606,626,646,665,685,705,726,746,766,785,806,826,846,866,886,906,926,946,966,985,1007,1026,1045,1065,1085,1106,1126,1146,1165,1186,1206,1226,1246,1266,1286,1306,1326,1346],"xSR":350,"ySR":768,"xT1":30,"yT1":0,"xT2":670,"yT2":0,"toosoon":0,"cond_shown":"Incongruent","ratio_trial":300,"L_num":7,"L_den":10,"R_num":8,"R_den":20,"correct_side":1,"subjID":"45wm","gender":"No_gender","school":"No_school","age":"No_age"},{"start_time":1452341087453,"click_time":1452341088808,"finger_time":1452341088508,"fix_duration":584.5456554299122,"trial":21,"RT":1055,"MT":300,"sideResp":1,"stimulus":[],"xmouse":[396,396,396,396,396,396,396,396,396,396,396,396,396,396,396,396,396,396,396,396,396,396,396,396,396,396,396,396,396,396,396,396,396,396,396,396,396,396,396,396,396,396,396,396,396,396,396,396,396,382.66668701171875,379.3333435058594,379.3333435058594,364.66668701171875,348,334.66668701171875,326.66668701171875,326.66668701171875,291.3333435058594,242,204.6666717529297,187.33334350585938,156,130.6666717529297,103.33333587646484,96,89.33333587646484,87.33333587646484,85.33333587646484],"ymouse":[826,826,826,826,826,826,826,826,826,826,826,826,826,826,826,826,826,826,826,826,826,826,826,826,826,826,826,826,826,826,826,826,826,826,826,826,826,826,826,826,826,826,826,826,826,826,826,826,826,811.3333740234375,802,802,743.3333740234375,674.6666870117188,620,590,590,492,400.66668701171875,348,326,286,248,188.6666717529297,168,134,118,92],"timestamp_mouse":[15,36,55,75,95,115,134,154,175,194,215,235,254,275,295,314,335,355,375,395,415,434,455,474,495,515,535,555,574,594,614,634,655,674,694,715,734,754,775,795,814,835,855,875,894,915,935,955,974,994,1015,1034,1055,1075,1095,1116,1135,1155,1175,1195,1215,1235,1255,1275,1295,1315,1335,1355],"xSR":350,"ySR":768,"xT1":30,"yT1":0,"xT2":670,"yT2":0,"toosoon":0,"cond_shown":"Incongruent","ratio_trial":500,"L_num":7,"L_den":8,"R_num":9,"R_den":24,"correct_side":1,"subjID":"45wm","gender":"No_gender","school":"No_school","age":"No_age"},{"start_time":1452341091541,"click_time":1452341093248,"finger_time":1452341092850,"fix_duration":912.7383509995059,"trial":22,"RT":1309,"MT":398,"sideResp":2,"stimulus":[],"xmouse":[405,405,405,405,405,405,405,405,405,405,405,405,405,405,405,405,405,405,405,405,405,405,405,405,405,405,405,405,405,405,405,405,405,405,405,405,405,405,405,405,405,405,405,405,405,405,405,405,405,405,405,405,405,405,405,405,405,405,405,405,405,405,405,402,404,412.66668701171875,424,430.66668701171875,444,459.3333435058594,466.66668701171875,489.3333435058594,504,512,527.3333740234375,554,564.6666870117188,584,594.6666870117188,613.3333740234375,632,657.3333740234375,666,683.3333740234375,690.6666870117188,706],"ymouse":[848,848,848,848,848,848,848,848,848,848,848,848,848,848,848,848,848,848,848,848,848,848,848,848,848,848,848,848,848,848,848,848,848,848,848,848,848,848,848,848,848,848,848,848,848,848,848,848,848,848,848,848,848,848,848,848,848,848,848,848,848,848,848,828,814,752,713.3333740234375,693.3333740234375,656,616.6666870117188,596,538.6666870117188,505.3333740234375,484.66668701171875,449.3333435058594,390,369.3333435058594,330.66668701171875,308,268.66668701171875,229.33334350585938,176.6666717529297,159.33334350585938,122,104.66667175292969,76],"timestamp_mouse":[10,37,46,67,87,106,127,147,166,187,207,226,246,267,287,307,327,347,367,386,407,426,447,466,487,507,527,546,567,587,606,627,646,667,687,706,726,747,766,787,806,827,846,867,887,907,927,947,966,986,1007,1027,1046,1067,1087,1107,1127,1147,1167,1187,1207,1227,1247,1267,1286,1309,1326,1346,1367,1386,1406,1426,1447,1467,1487,1509,1526,1547,1566,1586,1606,1626,1646,1666,1687,1707],"xSR":350,"ySR":768,"xT1":30,"yT1":0,"xT2":670,"yT2":0,"toosoon":0,"cond_shown":"Incongruent","ratio_trial":100,"L_num":13,"L_den":26,"R_num":12,"R_den":20,"correct_side":2,"subjID":"45wm","gender":"No_gender","school":"No_school","age":"No_age"},{"start_time":1452341095237,"click_time":1452341096668,"finger_time":1452341096288,"fix_duration":488.821260961683,"trial":23,"RT":1051,"MT":380,"sideResp":2,"stimulus":[],"xmouse":[381.3333435058594,381.3333435058594,380,380,379.3333435058594,378.66668701171875,378,377.3333435058594,377.3333435058594,377.3333435058594,377.3333435058594,376.66668701171875,376.66668701171875,376.66668701171875,376.66668701171875,376.66668701171875,376.66668701171875,376.66668701171875,376.66668701171875,376,376,375.3333435058594,375.3333435058594,374.66668701171875,374,373.3333435058594,372,372,371.3333435058594,370.66668701171875,370.66668701171875,370.66668701171875,371.3333435058594,371.3333435058594,371.3333435058594,371.3333435058594,371.3333435058594,371.3333435058594,371.3333435058594,371.3333435058594,371.3333435058594,371.3333435058594,371.3333435058594,371.3333435058594,371.3333435058594,371.3333435058594,371.3333435058594,372.66668701171875,372.66668701171875,372.66668701171875,372.66668701171875,372.66668701171875,392.66668701171875,411.3333435058594,425.3333435058594,432,448.66668701171875,478.66668701171875,490,510,519.3333740234375,540,568,586.6666870117188,596,612,622,645.3333740234375,659.3333740234375,664,677.3333740234375,689.3333740234375],"ymouse":[818,818,818,818,818,818,818.6666870117188,818,818,818,818,818,817.3333740234375,817.3333740234375,816.6666870117188,816.6666870117188,816,816,815.3333740234375,815.3333740234375,814.6666870117188,814,814,812.6666870117188,812,811.3333740234375,810,809.3333740234375,809.3333740234375,808.6666870117188,808,808,808,808,808,808,808,807.3333740234375,807.3333740234375,807.3333740234375,807.3333740234375,807.3333740234375,807.3333740234375,807.3333740234375,807.3333740234375,807.3333740234375,807.3333740234375,805.3333740234375,805.3333740234375,805.3333740234375,805.3333740234375,805.3333740234375,751.3333740234375,700,666,647.3333740234375,607.3333740234375,546,527.3333740234375,487.3333435058594,471.3333435058594,436,382,344,327.3333435058594,288.66668701171875,270.66668701171875,213.33334350585938,177.33334350585938,161.33334350585938,128,96.66667175292969],"timestamp_mouse":[10,31,51,71,90,110,132,151,170,190,210,231,250,271,291,311,330,350,371,391,411,432,451,471,491,510,531,551,570,591,611,631,652,671,691,711,731,750,771,790,811,831,851,871,891,911,930,951,971,991,1011,1031,1050,1070,1091,1111,1131,1151,1171,1191,1211,1231,1251,1271,1291,1310,1331,1352,1370,1390,1410,1431],"xSR":350,"ySR":768,"xT1":30,"yT1":0,"xT2":670,"yT2":0,"toosoon":0,"cond_shown":"Congruent","ratio_trial":300,"L_num":2,"L_den":20,"R_num":10,"R_den":25,"correct_side":2,"subjID":"45wm","gender":"No_gender","school":"No_school","age":"No_age"},{"start_time":1452341099966,"click_time":1452341101668,"finger_time":1452341101230,"fix_duration":1096.1472624596124,"trial":24,"RT":1264,"MT":438,"sideResp":2,"stimulus":[],"xmouse":[399,399,399,399,399,399,399,399,399,399,399,399,399,399,399,399,399,399,399,399,399,399,399,399,399,399,399,399,399,399,399,399,399,399,399,399,399,399,399,399,399,399,399,399,399,399,399,399,399,399,399,399,399,399,399,399,399,399,399,399,399,399,406,418.66668701171875,418.66668701171875,450,476.66668701171875,491.3333435058594,533.3333740234375,558,570,588.6666870117188,598.6666870117188,628,643.3333740234375,652,665.3333740234375,682,684.6666870117188,690.6666870117188,698.6666870117188,703.3333740234375,708.6666870117188,717.3333740234375,719.3333740234375,724],"ymouse":[810,810,810,810,810,810,810,810,810,810,810,810,810,810,810,810,810,810,810,810,810,810,810,810,810,810,810,810,810,810,810,810,810,810,810,810,810,810,810,810,810,810,810,810,810,810,810,810,810,810,810,810,810,810,810,810,810,810,810,810,810,810,792,754,754,664.6666870117188,604,572,469.3333435058594,411.3333435058594,384.66668701171875,332.66668701171875,308,245.33334350585938,215.33334350585938,203.33334350585938,184,165.33334350585938,160.6666717529297,152,140,132,122,107.33333587646484,102.66667175292969,94.66667175292969],"timestamp_mouse":[2,26,42,61,82,101,122,141,162,181,201,222,242,262,282,302,321,342,361,382,401,422,442,462,481,502,521,541,562,582,602,622,641,662,682,702,722,741,762,782,802,821,842,862,881,902,922,942,961,982,1001,1022,1042,1061,1082,1102,1122,1142,1162,1181,1202,1221,1243,1263,1282,1301,1322,1342,1362,1381,1402,1422,1442,1461,1481,1502,1522,1543,1562,1581,1602,1621,1642,1662,1682,1701],"xSR":350,"ySR":768,"xT1":30,"yT1":0,"xT2":670,"yT2":0,"toosoon":0,"cond_shown":"Congruent","ratio_trial":200,"L_num":13,"L_den":26,"R_num":14,"R_den":20,"correct_side":2,"subjID":"45wm","gender":"No_gender","school":"No_school","age":"No_age"},{"start_time":1452341103623,"click_time":1452341105368,"finger_time":1452341105068,"fix_duration":273.2356892762086,"trial":25,"RT":1445,"MT":300,"sideResp":1,"stimulus":[],"xmouse":[396,396,396,396,396,396,396,396,396,396,396,396,396,396,396,396,396,396,396,396,396,396,396,396,396,396,396,396,396,396,396,396,396,396,396,396,396,396,396,396,396,396,396,396,396,396,396,396,396,396,396,396,396,396,396,396,396,396,396,396,396,396,396,396,396,396,396,396,396,396,388.66668701171875,376,362,354.66668701171875,340,330,287.3333435058594,276.66668701171875,255.33334350585938,243.33334350585938,225.33334350585938,198.6666717529297,188,170.6666717529297,162.6666717529297,148,129.33334350585938,123.33334350585938],"ymouse":[823,823,823,823,823,823,823,823,823,823,823,823,823,823,823,823,823,823,823,823,823,823,823,823,823,823,823,823,823,823,823,823,823,823,823,823,823,823,823,823,823,823,823,823,823,823,823,823,823,823,823,823,823,823,823,823,823,823,823,823,823,823,823,823,823,823,823,823,823,823,803.3333740234375,769.3333740234375,726.6666870117188,706,668,647.3333740234375,541.3333740234375,512,454.66668701171875,421.3333435058594,360,277.3333435058594,252.66668701171875,210,188.6666717529297,149.33334350585938,102,90],"timestamp_mouse":[9,37,45,64,85,104,125,145,164,185,204,225,244,264,284,304,325,344,364,385,404,425,445,465,485,505,525,545,565,584,604,625,644,664,684,704,725,744,764,785,804,825,844,864,884,906,925,944,964,985,1005,1025,1044,1065,1085,1105,1124,1144,1164,1185,1205,1225,1244,1264,1284,1304,1325,1344,1365,1385,1405,1425,1445,1465,1484,1505,1525,1545,1565,1585,1604,1625,1645,1665,1685,1705,1726,1744],"xSR":350,"ySR":768,"xT1":30,"yT1":0,"xT2":670,"yT2":0,"toosoon":0,"cond_shown":"Incongruent","ratio_trial":100,"L_num":4,"L_den":8,"R_num":8,"R_den":20,"correct_side":1,"subjID":"45wm","gender":"No_gender","school":"No_school","age":"No_age"},{"start_time":1452341107891,"click_time":1452341109788,"finger_time":1452341109448,"fix_duration":921.3708849892091,"trial":26,"RT":1557,"MT":340,"sideResp":1,"stimulus":[],"xmouse":[401.3333435058594,401.3333435058594,401.3333435058594,401.3333435058594,401.3333435058594,401.3333435058594,401.3333435058594,401.3333435058594,401.3333435058594,400,400.66668701171875,400.66668701171875,401.3333435058594,401.3333435058594,401.3333435058594,401.3333435058594,401.3333435058594,401.3333435058594,401.3333435058594,401.3333435058594,401.3333435058594,401.3333435058594,406,406,406,406,406,406,406,406,406,406,406.66668701171875,406.66668701171875,406.66668701171875,406.66668701171875,406.66668701171875,406.66668701171875,406.66668701171875,406.66668701171875,406.66668701171875,406.66668701171875,406.66668701171875,406.66668701171875,406.66668701171875,406.66668701171875,406.66668701171875,406.66668701171875,406.66668701171875,406.66668701171875,406.66668701171875,406.66668701171875,408,408,408,408,408,408,408,408,408,408,408,408,408,408,408,406.66668701171875,406.66668701171875,406.66668701171875,406.66668701171875,406.66668701171875,399.3333435058594,398,395.3333435058594,395.3333435058594,395.3333435058594,364,348.66668701171875,344,332,325.3333435058594,311.3333435058594,280.66668701171875,257.3333435058594,244.6666717529297,219.33334350585938,205.33334350585938,168,147.33334350585938,138,119.33333587646484,111.33333587646484,97.33333587646484,86],"ymouse":[824,828.6666870117188,828.6666870117188,828.6666870117188,828.6666870117188,828.6666870117188,828.6666870117188,828.6666870117188,828.6666870117188,829.3333740234375,829.3333740234375,829.3333740234375,829.3333740234375,829.3333740234375,829.3333740234375,829.3333740234375,829.3333740234375,829.3333740234375,829.3333740234375,829.3333740234375,829.3333740234375,829.3333740234375,828,828,828,828,828,828,828,828,828,828,828.6666870117188,828.6666870117188,828.6666870117188,828.6666870117188,828.6666870117188,828.6666870117188,828.6666870117188,828.6666870117188,828.6666870117188,828.6666870117188,828.6666870117188,828.6666870117188,828.6666870117188,828.6666870117188,828.6666870117188,828.6666870117188,828.6666870117188,828.6666870117188,828.6666870117188,828.6666870117188,827.3333740234375,827.3333740234375,827.3333740234375,827.3333740234375,827.3333740234375,827.3333740234375,827.3333740234375,827.3333740234375,827.3333740234375,827.3333740234375,828,828,828,828,828,826.6666870117188,826.6666870117188,826.6666870117188,826.6666870117188,826.6666870117188,817.3333740234375,813.3333740234375,808.6666870117188,808.6666870117188,808.6666870117188,744.6666870117188,702,686,649.3333740234375,626.6666870117188,575.3333740234375,496.66668701171875,438.66668701171875,410,352.66668701171875,324,242.66668701171875,194.6666717529297,176.6666717529297,144.6666717529297,132.6666717529297,109.33333587646484,84],"timestamp_mouse":[26,36,56,77,96,116,136,157,177,196,217,237,256,277,297,316,337,356,378,396,417,437,456,477,497,516,537,557,577,597,617,636,657,677,697,716,737,757,776,796,817,837,857,877,897,917,937,957,976,997,1017,1036,1057,1076,1097,1117,1136,1157,1176,1196,1217,1236,1257,1276,1297,1316,1336,1357,1377,1397,1417,1436,1457,1478,1497,1517,1536,1557,1578,1596,1617,1637,1657,1678,1697,1717,1737,1757,1779,1796,1817,1837,1857,1877,1896],"xSR":350,"ySR":768,"xT1":30,"yT1":0,"xT2":670,"yT2":0,"toosoon":0,"cond_shown":"Congruent","ratio_trial":100,"L_num":10,"L_den":25,"R_num":3,"R_den":10,"correct_side":1,"subjID":"45wm","gender":"No_gender","school":"No_school","age":"No_age"},{"start_time":1452341111832,"click_time":1452341113510,"finger_time":1452341113167,"fix_duration":302.5411919781281,"trial":27,"RT":1335,"MT":343,"sideResp":2,"stimulus":[],"xmouse":[422.66668701171875,422.66668701171875,422.66668701171875,422.66668701171875,422.66668701171875,422.66668701171875,422.66668701171875,420,420,420,420,420,420,420,420,420,420,416.66668701171875,416.66668701171875,416.66668701171875,416.66668701171875,416.66668701171875,416,416,416,416,416,415.3333435058594,415.3333435058594,415.3333435058594,415.3333435058594,415.3333435058594,415.3333435058594,415.3333435058594,415.3333435058594,415.3333435058594,415.3333435058594,415.3333435058594,415.3333435058594,414.66668701171875,414.66668701171875,414.66668701171875,414.66668701171875,414.66668701171875,414.66668701171875,414.66668701171875,414.66668701171875,414.66668701171875,414.66668701171875,414.66668701171875,419.3333435058594,419.3333435058594,420.66668701171875,420,420,419.3333435058594,418.66668701171875,418.66668701171875,418,418,418,418,418,418,416.66668701171875,416.66668701171875,420.66668701171875,438,448.66668701171875,472,483.3333435058594,506,528.6666870117188,560.6666870117188,572.6666870117188,594.6666870117188,605.3333740234375,625.3333740234375,653.3333740234375,663.3333740234375,686,694.6666870117188,711.3333740234375,723.3333740234375],"ymouse":[802,802,802,802,802,802,802,808,808,808,808,808,808,808,808,808,808,812.6666870117188,812.6666870117188,812.6666870117188,812.6666870117188,812.6666870117188,813.3333740234375,813.3333740234375,813.3333740234375,813.3333740234375,813.3333740234375,813.3333740234375,813.3333740234375,814,814,814,814,814,814,814,814,814.6666870117188,814.6666870117188,814.6666870117188,814.6666870117188,814,814,813.3333740234375,813.3333740234375,813.3333740234375,813.3333740234375,813.3333740234375,813.3333740234375,813.3333740234375,792,790,785.3333740234375,783.3333740234375,782.6666870117188,782.6666870117188,783.3333740234375,783.3333740234375,783.3333740234375,783.3333740234375,783.3333740234375,783.3333740234375,783.3333740234375,783.3333740234375,778.6666870117188,775.3333740234375,756,692.6666870117188,668,620.6666870117188,597.3333740234375,550,503.3333740234375,425.3333435058594,396.66668701171875,347.3333435058594,324.66668701171875,280.66668701171875,220,199.33334350585938,161.33334350585938,145.33334350585938,118,94],"timestamp_mouse":[16,38,56,76,95,115,136,157,176,196,216,235,256,276,296,315,336,356,376,396,415,435,456,476,496,516,536,555,575,596,616,635,656,676,696,716,736,756,775,795,816,835,855,876,896,916,935,956,977,996,1016,1036,1057,1076,1096,1116,1136,1156,1176,1196,1216,1236,1256,1276,1296,1316,1335,1357,1376,1396,1415,1436,1455,1475,1495,1515,1535,1555,1576,1596,1616,1636,1657,1678],"xSR":350,"ySR":768,"xT1":30,"yT1":0,"xT2":670,"yT2":0,"toosoon":0,"cond_shown":"Incongruent","ratio_trial":500,"L_num":7,"L_den":21,"R_num":5,"R_den":6,"correct_side":2,"subjID":"45wm","gender":"No_gender","school":"No_school","age":"No_age"},{"start_time":1452341116174,"click_time":1452341117987,"finger_time":1452341117707,"fix_duration":905.5516755315687,"trial":28,"RT":1533,"MT":280,"sideResp":2,"stimulus":[],"xmouse":[407,407,407,407,407,407,407,407,407,407,407,407,407,407,407,407,407,407,407,407,407,407,407,407,407,407,407,407,407,407,407,407,407,407,407,407,407,407,407,407,407,407,407,407,407,407,407,407,407,407,407,407,407,407,407,407,407,407,407,398,397.3333435058594,397.3333435058594,397.3333435058594,397.3333435058594,397.3333435058594,397.3333435058594,397.3333435058594,397.3333435058594,397.3333435058594,397.3333435058594,397.3333435058594,397.3333435058594,397.3333435058594,397.3333435058594,397.3333435058594,421.3333435058594,441.3333435058594,472,482.66668701171875,504.66668701171875,516.6666870117188,538.6666870117188,575.3333740234375,588.6666870117188,612.6666870117188,634.6666870117188,643.3333740234375,673.3333740234375,689.3333740234375,695.3333740234375,704.6666870117188],"ymouse":[821,821,821,821,821,821,821,821,821,821,821,821,821,821,821,821,821,821,821,821,821,821,821,821,821,821,821,821,821,821,821,821,821,821,821,821,821,821,821,821,821,821,821,821,821,821,821,821,821,821,821,821,821,821,821,821,821,821,821,808,808,808,808,808,808,808,808,808,808,808,804,804,804,804,804,770.6666870117188,730.6666870117188,663.3333740234375,637.3333740234375,584.6666870117188,559.3333740234375,508.66668701171875,423.3333435058594,391.3333435058594,336.66668701171875,286,260.66668701171875,182.6666717529297,138.6666717529297,122,94.66667175292969],"timestamp_mouse":[14,34,54,73,93,114,133,153,173,194,214,234,253,273,293,314,334,353,374,394,414,434,453,473,494,513,534,553,573,593,614,634,654,674,693,714,734,754,773,794,814,834,854,874,894,913,934,953,973,993,1013,1033,1053,1074,1094,1114,1133,1153,1173,1194,1213,1234,1253,1274,1293,1313,1334,1353,1374,1394,1414,1434,1454,1474,1494,1513,1533,1555,1574,1594,1613,1633,1655,1674,1693,1714,1734,1756,1773,1793,1813],"xSR":350,"ySR":768,"xT1":30,"yT1":0,"xT2":670,"yT2":0,"toosoon":0,"cond_shown":"Incongruent","ratio_trial":200,"L_num":14,"L_den":30,"R_num":12,"R_den":18,"correct_side":2,"subjID":"45wm","gender":"No_gender","school":"No_school","age":"No_age"},{"start_time":1452341120013,"click_time":1452341121848,"finger_time":1452341121567,"fix_duration":744.8846061484808,"trial":29,"RT":1554,"MT":281,"sideResp":1,"stimulus":[],"xmouse":[384,384,384,384,384,383.3333435058594,384,384,384.66668701171875,384.66668701171875,384.66668701171875,384.66668701171875,384.66668701171875,384.66668701171875,384.66668701171875,384.66668701171875,384.66668701171875,387.3333435058594,387.3333435058594,387.3333435058594,387.3333435058594,387.3333435058594,387.3333435058594,387.3333435058594,387.3333435058594,387.3333435058594,387.3333435058594,388.66668701171875,388.66668701171875,388.66668701171875,388.66668701171875,388.66668701171875,388.66668701171875,388.66668701171875,388.66668701171875,388.66668701171875,388.66668701171875,388.66668701171875,388.66668701171875,388.66668701171875,388.66668701171875,388.66668701171875,388.66668701171875,388.66668701171875,388.66668701171875,388.66668701171875,388,388,388,388,388,388,388,388,388,388,388,388,388,388,388,388,388,388,388,388,388,388,388,388,388,388,380,378.66668701171875,377.3333435058594,373.3333435058594,370.66668701171875,354.66668701171875,341.3333435058594,334,318,290,269.3333435058594,258.66668701171875,237.33334350585938,226,204.6666717529297,173.33334350585938,162,142,133.33334350585938,120],"ymouse":[815.3333740234375,814.6666870117188,813.3333740234375,812.6666870117188,812.6666870117188,813.3333740234375,813.3333740234375,813.3333740234375,813.3333740234375,813.3333740234375,813.3333740234375,813.3333740234375,813.3333740234375,813.3333740234375,813.3333740234375,813.3333740234375,813.3333740234375,815.3333740234375,815.3333740234375,815.3333740234375,815.3333740234375,815.3333740234375,815.3333740234375,815.3333740234375,815.3333740234375,815.3333740234375,815.3333740234375,814.6666870117188,814.6666870117188,814.6666870117188,814.6666870117188,814.6666870117188,814.6666870117188,814.6666870117188,814.6666870117188,814.6666870117188,814.6666870117188,814.6666870117188,814.6666870117188,814.6666870117188,814.6666870117188,814.6666870117188,814.6666870117188,814.6666870117188,814.6666870117188,814.6666870117188,814.6666870117188,814.6666870117188,814.6666870117188,814.6666870117188,814.6666870117188,814.6666870117188,814.6666870117188,814.6666870117188,814.6666870117188,814.6666870117188,814.6666870117188,814.6666870117188,814.6666870117188,814.6666870117188,814.6666870117188,814.6666870117188,814.6666870117188,814.6666870117188,814.6666870117188,814.6666870117188,813.3333740234375,813.3333740234375,813.3333740234375,813.3333740234375,813.3333740234375,813.3333740234375,802.6666870117188,799.3333740234375,796.6666870117188,784,775.3333740234375,725.3333740234375,682,659.3333740234375,610,525.3333740234375,462,427.3333435058594,360.66668701171875,321.3333435058594,252,161.33334350585938,135.33334350585938,91.33333587646484,74,47.333335876464844],"timestamp_mouse":[15,35,55,75,94,115,134,155,175,195,214,235,254,275,295,315,334,355,375,395,414,434,455,475,495,514,534,554,575,595,615,634,654,675,695,715,735,755,775,795,815,835,855,874,895,914,935,955,975,995,1015,1034,1054,1075,1095,1115,1135,1155,1174,1194,1214,1235,1254,1274,1295,1315,1336,1356,1375,1395,1415,1435,1454,1475,1495,1515,1534,1554,1574,1595,1614,1638,1656,1675,1695,1715,1735,1754,1775,1794,1815,1835],"xSR":350,"ySR":768,"xT1":30,"yT1":0,"xT2":670,"yT2":0,"toosoon":0,"cond_shown":"Congruent","ratio_trial":200,"L_num":9,"L_den":20,"R_num":4,"R_den":16,"correct_side":1,"subjID":"45wm","gender":"No_gender","school":"No_school","age":"No_age"},{"start_time":1452341124163,"click_time":1452341125508,"finger_time":1452341125188,"fix_duration":714.1417986125664,"trial":30,"RT":1025,"MT":320,"sideResp":1,"stimulus":[],"xmouse":[382,382,382,382,382,382,382,382,382,382,382,382,382,382,382,382,382,382,382,382,382,382,382,382,382,382,382,382,382,382,382,382,382,382,382,382,382,382,382,382,382,382,382,382,382,382,382,382,374,372,372,341.3333435058594,335.3333435058594,320.66668701171875,312.66668701171875,293.3333435058594,260.66668701171875,248.6666717529297,226.6666717529297,216,194,162.6666717529297,152.6666717529297,134,124.66667175292969,108,87.33333587646484,78],"ymouse":[828,828,828,828,828,828,828,828,828,828,828,828,828,828,828,828,828,828,828,828,828,828,828,828,828,828,828,828,828,828,828,828,828,828,828,828,828,828,828,828,828,828,828,828,828,828,828,828,811.3333740234375,806.6666870117188,806.6666870117188,736,718,677.3333740234375,654.6666870117188,608,537.3333740234375,512,461.3333435058594,437.3333435058594,384.66668701171875,305.3333435058594,278,225.33334350585938,202.6666717529297,162,107.33333587646484,79.33333587646484],"timestamp_mouse":[9,35,45,64,85,105,125,145,164,185,205,225,245,265,285,304,325,344,365,384,405,424,445,465,485,505,525,544,564,585,604,625,645,665,685,704,724,744,765,785,805,824,845,864,884,905,924,945,965,985,1005,1025,1045,1065,1084,1105,1124,1145,1164,1185,1204,1224,1245,1265,1284,1305,1326,1345],"xSR":350,"ySR":768,"xT1":30,"yT1":0,"xT2":670,"yT2":0,"toosoon":0,"cond_shown":"Incongruent","ratio_trial":500,"L_num":7,"L_den":8,"R_num":9,"R_den":24,"correct_side":1,"subjID":"45wm","gender":"No_gender","school":"No_school","age":"No_age"},{"start_time":1452341128886,"click_time":1452341130128,"finger_time":1452341129848,"fix_duration":1253.0510072414666,"trial":31,"RT":962,"MT":280,"sideResp":2,"stimulus":[],"xmouse":[402,402,402,402,402,402,402,402,402,402,402,402,402,402,402,402,402,402,402,402,402,402,402,402,402,402,402,402,402,402,402,402,402,402,402,402,402,402,402,402,402,402,402,402,402,402,402,413.3333435058594,426.66668701171875,426.66668701171875,451.3333435058594,469.3333435058594,496.66668701171875,506.66668701171875,527.3333740234375,537.3333740234375,570,594,608,632.6666870117188,658,670,695.3333740234375],"ymouse":[816,816,816,816,816,816,816,816,816,816,816,816,816,816,816,816,816,816,816,816,816,816,816,816,816,816,816,816,816,816,816,816,816,816,816,816,816,816,816,816,816,816,816,816,816,816,816,795.3333740234375,756.6666870117188,756.6666870117188,674,618.6666870117188,530,502,445.3333435058594,417.3333435058594,335.3333435058594,278.66668701171875,250,197.33334350585938,149.33334350585938,127.33334350585938,80.66667175292969],"timestamp_mouse":[2,35,42,62,81,102,122,141,162,181,202,222,242,262,282,302,322,341,362,382,401,421,442,461,482,502,522,542,561,581,601,622,642,662,682,702,722,742,761,781,801,821,841,862,881,901,922,942,962,982,1002,1022,1041,1062,1082,1114,1122,1142,1162,1182,1202,1222,1241],"xSR":350,"ySR":768,"xT1":30,"yT1":0,"xT2":670,"yT2":0,"toosoon":0,"cond_shown":"Congruent","ratio_trial":500,"L_num":2,"L_den":12,"R_num":4,"R_den":6,"correct_side":2,"subjID":"45wm","gender":"No_gender","school":"No_school","age":"No_age"},{"start_time":1452341133424,"click_time":1452341135051,"finger_time":1452341134768,"fix_duration":1335.023700925077,"trial":32,"RT":1344,"MT":283,"sideResp":1,"stimulus":[],"xmouse":[416,416,416,416.66668701171875,416.66668701171875,416.66668701171875,416.66668701171875,416.66668701171875,416.66668701171875,416.66668701171875,417.3333435058594,417.3333435058594,417.3333435058594,417.3333435058594,417.3333435058594,417.3333435058594,417.3333435058594,417.3333435058594,418,418,418,418,418,418,418,418,418,418,418,418.66668701171875,418.66668701171875,418.66668701171875,418.66668701171875,418.66668701171875,418.66668701171875,418.66668701171875,418.66668701171875,418.66668701171875,418.66668701171875,418,418,418,418,417.3333435058594,417.3333435058594,417.3333435058594,417.3333435058594,417.3333435058594,417.3333435058594,417.3333435058594,417.3333435058594,417.3333435058594,417.3333435058594,417.3333435058594,417.3333435058594,417.3333435058594,417.3333435058594,417.3333435058594,416.66668701171875,416,416,414,413.3333435058594,412.66668701171875,412,410.66668701171875,410.66668701171875,388.66668701171875,374,367.3333435058594,349.3333435058594,319.3333435058594,308.66668701171875,285.3333435058594,273.3333435058594,249.33334350585938,210.6666717529297,198,169.33334350585938,145.33334350585938,133.33334350585938,102.66667175292969],"ymouse":[822.6666870117188,822,822,822,822,822,822,822,822,822,822,822.6666870117188,822.6666870117188,822.6666870117188,822.6666870117188,822.6666870117188,822.6666870117188,822.6666870117188,822.6666870117188,822.6666870117188,822.6666870117188,822.6666870117188,822.6666870117188,822.6666870117188,822.6666870117188,822.6666870117188,822.6666870117188,823.3333740234375,823.3333740234375,823.3333740234375,823.3333740234375,823.3333740234375,823.3333740234375,823.3333740234375,823.3333740234375,823.3333740234375,823.3333740234375,823.3333740234375,823.3333740234375,823.3333740234375,822.6666870117188,822.6666870117188,822.6666870117188,822,822,822,821.3333740234375,821.3333740234375,821.3333740234375,821.3333740234375,821.3333740234375,821.3333740234375,821.3333740234375,820.6666870117188,820.6666870117188,820.6666870117188,820.6666870117188,820.6666870117188,820.6666870117188,820,820,817.3333740234375,815.3333740234375,814,811.3333740234375,808.6666870117188,808.6666870117188,756.6666870117188,716,693.3333740234375,644.6666870117188,566,538,480,451.3333435058594,392.66668701171875,305.3333435058594,276,220.6666717529297,166.6666717529297,140,62.66667175292969],"timestamp_mouse":[3,36,43,64,84,104,123,144,164,184,203,223,244,264,284,304,324,344,364,384,404,423,444,464,483,504,523,543,564,583,604,623,644,663,683,704,724,744,764,784,803,824,843,864,884,903,924,944,963,984,1004,1024,1044,1064,1084,1104,1124,1143,1164,1184,1204,1225,1243,1264,1284,1303,1324,1344,1364,1383,1403,1425,1443,1464,1483,1503,1525,1543,1563,1584,1603,1626],"xSR":350,"ySR":768,"xT1":30,"yT1":0,"xT2":670,"yT2":0,"toosoon":0,"cond_shown":"Incongruent","ratio_trial":300,"L_num":7,"L_den":10,"R_num":8,"R_den":20,"correct_side":1,"subjID":"45wm","gender":"No_gender","school":"No_school","age":"No_age"},{"start_time":1452341138271,"click_time":1452341139989,"finger_time":1452341139688,"fix_duration":1461.0554314969831,"trial":33,"RT":1417,"MT":301,"sideResp":1,"stimulus":[],"xmouse":[410,410,410,410,410,410,410,410,410,410,410,410,410,410,410,410,410,410,410,410,410,410,410,410,410,410,410,410,410,410,410,410,410,410,410,410,410,410,410,410,410,410,410,410,410,410,410,410,410,410,410,410,410,410,410,410,410,410,410,410,410,410,410,410,410,410,410,410,402,400,391.3333435058594,382.66668701171875,376.66668701171875,363.3333435058594,354,321.3333435058594,294,266,250,222.6666717529297,185.33334350585938,173.33334350585938,152,144,132,122],"ymouse":[813,813,813,813,813,813,813,813,813,813,813,813,813,813,813,813,813,813,813,813,813,813,813,813,813,813,813,813,813,813,813,813,813,813,813,813,813,813,813,813,813,813,813,813,813,813,813,813,813,813,813,813,813,813,813,813,813,813,813,813,813,813,813,813,813,813,813,813,794,786,737.3333740234375,698,678,636,612.6666870117188,539.3333740234375,484,426,392.66668701171875,327.3333435058594,227.33334350585938,196,143.33334350585938,122.66667175292969,88,52],"timestamp_mouse":[30,37,56,77,97,117,137,156,177,197,217,237,257,277,297,317,336,356,377,396,417,437,457,476,497,517,537,557,577,597,617,637,657,677,696,716,737,756,777,796,817,837,857,877,897,916,937,957,977,997,1016,1036,1057,1077,1097,1116,1137,1157,1176,1197,1217,1237,1257,1276,1297,1317,1336,1357,1376,1397,1417,1437,1457,1477,1497,1517,1537,1557,1576,1597,1617,1637,1657,1676,1697,1718],"xSR":350,"ySR":768,"xT1":30,"yT1":0,"xT2":670,"yT2":0,"toosoon":0,"cond_shown":"Incongruent","ratio_trial":100,"L_num":2,"L_den":4,"R_num":8,"R_den":20,"correct_side":1,"subjID":"45wm","gender":"No_gender","school":"No_school","age":"No_age"},{"start_time":1452341143124,"click_time":1452341144729,"finger_time":1452341144368,"fix_duration":1434.7560059204272,"trial":34,"RT":1244,"MT":361,"sideResp":2,"stimulus":[],"xmouse":[418.66668701171875,418,418,418,418,418,418,418,418,416.66668701171875,416,414.66668701171875,414,412.66668701171875,412,412,412,412.66668701171875,412.66668701171875,413.3333435058594,414,414,414.66668701171875,414.66668701171875,416,416.66668701171875,417.3333435058594,418.66668701171875,418.66668701171875,418.66668701171875,418.66668701171875,418.66668701171875,418.66668701171875,418.66668701171875,418,418,418,418,418.66668701171875,419.3333435058594,419.3333435058594,420,420,419.3333435058594,418.66668701171875,418,418,417.3333435058594,416.66668701171875,416.66668701171875,417.3333435058594,418,418,418.66668701171875,419.3333435058594,420,420,420,420,421.3333435058594,421.3333435058594,421.3333435058594,437.3333435058594,450.66668701171875,459.3333435058594,490,514,540.6666870117188,552.666687