[{"start_time":1549381498693,"click_time":1549381499648,"finger_time":1549381498704,"fix_duration":1478.4238987969186,"trial":0,"RT":11,"MT":944,"sideResp":2,"stimulus":[],"xmouse":[401,401,401,401,401,401,401,401,401,401,401,401,401,399,399,399,399,399,399,399,399,399,399,399,399,399,399,399,399,399,399,399,399,399,399,399,399,399,399,399,399,399,399,399,399,399,399,399,710],"ymouse":[509,509,509,509,509,509,509,509,509,509,509,509,509,508,508,508,508,508,508,508,508,508,508,508,508,508,508,508,508,508,508,508,508,508,508,508,508,508,508,508,508,508,508,508,508,508,508,508,55],"timestamp_mouse":[11,18,34,55,74,94,114,134,155,175,194,214,234,255,274,294,314,334,354,374,394,414,435,454,475,494,514,534,555,574,594,614,635,655,674,694,714,734,755,774,794,815,835,854,874,895,914,934,954],"xSR":350,"ySR":451.2,"xT1":30,"yT1":0,"xT2":670,"yT2":0,"toosoon":0,"cond_shown":"Congruent","ratio_trial":500,"L_num":1,"L_den":4,"R_num":12,"R_den":16,"correct_side":2,"subjID":"46wm","gender":"No_gender","age":"No_age","school":"No_school","test":{"fix_dur":[250,1500],"timestim":900,"targets_dim":[100,100],"targets_relative_coord":[0.1,0.9],"size_stim":[880,420],"start_dim":[100,100],"size_start":[300,300],"size_fix":60,"samplingrate":20,"img_types":["Congruent","Incongruent"],"ratios":[100,200,300,500],"rep_conds":15,"nTrials":128,"trials_to_rest":500,"Trials_order":[110,91,88,63,17,121,30,3,127,109,73,74,50,85,41,96,90,92,37,108,15,111,4,32,40,120,7,36,42,48,94,39,104,75,101,54,98,35,10,107,87,53,82,119,44,72,80,125,20,76,0,115,103,28,114,34,99,38,46,51,68,16,24,69,61,29,58,102,1,116,118,71,18,43,100,70,52,13,66,6,47,55,2,26,25,95,23,124,105,122,11,22,62,79,19,78,45,123,9,117,97,83,33,113,65,14,89,126,81,31,56,60,77,93,59,64,12,8,86,21,106,67,27,84,49,112,5,57],"cond_shown":["Congruent","Incongruent","Congruent","Incongruent","Incongruent","Incongruent","Congruent","Incongruent","Incongruent","Incongruent","Incongruent","Congruent","Congruent","Incongruent","Incongruent","Congruent","Congruent","Congruent","Incongruent","Congruent","Incongruent","Incongruent","Congruent","Congruent","Congruent","Congruent","Incongruent","Congruent","Congruent","Congruent","Congruent","Incongruent","Congruent","Incongruent","Incongruent","Congruent","Congruent","Incongruent","Congruent","Incongruent","Incongruent","Incongruent","Congruent","Incongruent","Congruent","Congruent","Congruent","Incongruent","Congruent","Congruent","Congruent","Incongruent","Incongruent","Congruent","Congruent","Congruent","Incongruent","Congruent","Congruent","Incongruent","Congruent","Congruent","Congruent","Incongruent","Incongruent","Incongruent","Congruent","Congruent","Incongruent","Congruent","Congruent","Incongruent","Congruent","Incongruent","Congruent","Congruent","Congruent","Incongruent","Congruent","Congruent","Incongruent","Incongruent","Congruent","Congruent","Incongruent","Incongruent","Incongruent","Congruent","Incongruent","Congruent","Incongruent","Congruent","Congruent","Incongruent","Incongruent","Congruent","Incongruent","Incongruent","Incongruent","Incongruent","Incongruent","Incongruent","Incongruent","Incongruent","Incongruent","Congruent","Incongruent","Congruent","Incongruent","Incongruent","Congruent","Congruent","Incongruent","Incongruent","Incongruent","Congruent","Congruent","Congruent","Congruent","Incongruent","Congruent","Incongruent","Incongruent","Congruent","Incongruent","Congruent","Incongruent","Incongruent"],"ratio_trial":[500,200,100,500,100,100,500,200,500,300,100,200,200,300,100,100,200,300,300,300,500,500,300,100,100,100,500,300,200,100,500,500,100,200,300,500,200,200,200,200,500,300,200,500,300,100,100,300,300,300,100,200,500,300,200,200,200,500,500,200,300,100,100,300,300,300,200,500,100,300,500,500,200,200,300,500,300,300,200,500,500,500,200,200,100,500,500,300,100,200,200,500,500,500,200,500,300,200,100,300,100,200,100,100,100,500,100,500,100,500,100,300,300,300,200,100,300,100,500,300,200,200,200,300,100,100,300,100],"left_num":[1,11,10,7,3,12,3,14,7,4,12,12,3,2,6,4,3,20,13,5,7,7,11,10,4,8,7,8,9,12,10,7,11,3,4,10,13,3,3,9,7,4,16,7,20,4,3,4,1,20,3,7,7,3,7,14,7,5,21,14,8,1,3,4,4,2,3,15,3,11,18,7,16,4,9,3,1,1,3,7,7,7,7,8,13,5,7,8,6,8,11,2,7,7,3,2,13,1,6,4,3,4,13,4,3,1,12,1,2,7,1,1,13,13,1,6,1,11,1,4,1,7,7,1,10,7,3,8],"right_num":[12,3,3,5,7,9,4,6,5,2,2,6,14,6,13,6,9,9,12,6,5,5,2,3,6,2,5,10,13,13,7,5,4,1,6,22,14,11,14,8,5,2,9,9,14,6,2,2,11,5,2,8,9,11,18,6,8,2,6,12,10,18,4,2,8,6,11,5,4,2,1,5,9,14,3,15,7,2,7,1,5,5,18,3,12,6,9,10,3,7,3,12,1,5,1,10,12,2,13,2,11,14,6,8,7,12,9,12,8,5,3,7,12,12,2,15,11,4,11,6,21,14,14,8,8,15,4,6],"left_den":[4,20,25,21,9,24,10,30,21,20,30,15,6,4,10,8,12,25,26,25,21,21,22,25,8,16,21,15,30,30,13,21,22,10,5,24,26,4,6,15,21,20,30,8,25,8,6,20,5,25,6,10,8,12,15,28,10,6,28,30,15,2,20,20,5,4,10,18,6,22,27,21,30,6,10,12,20,2,10,10,21,21,15,15,26,6,8,15,12,15,20,8,10,21,10,12,26,3,10,20,5,6,26,8,9,4,24,4,4,21,2,20,26,26,3,12,5,22,9,5,2,10,10,30,25,14,6,16],"right_den":[16,4,10,6,30,15,5,9,6,4,4,10,20,30,26,10,20,18,15,12,6,6,10,10,10,5,6,12,26,26,26,6,10,2,12,24,20,20,20,10,6,4,27,24,28,10,5,4,22,10,5,16,24,20,27,20,16,6,24,18,12,30,16,4,16,30,22,15,10,10,6,6,27,30,5,20,20,10,14,5,6,6,27,9,20,18,24,12,5,21,4,16,5,6,2,15,15,15,26,4,22,30,10,20,30,16,15,16,20,6,5,20,15,15,15,25,22,10,18,12,30,28,28,24,16,25,20,10],"correct_side":[2,2,1,2,1,2,2,2,2,2,2,1,2,1,1,2,2,1,2,2,2,2,1,1,2,1,2,2,2,2,1,2,1,2,1,2,2,1,2,2,2,2,1,1,1,2,1,2,2,1,1,1,1,2,2,1,1,1,1,2,2,2,2,2,1,1,2,1,1,1,1,2,1,1,1,2,2,1,2,1,2,2,2,1,2,1,1,2,2,1,2,2,1,2,2,2,2,1,1,2,1,1,2,1,1,2,2,2,1,2,2,2,2,2,1,2,2,1,2,1,2,1,1,2,2,2,1,2],"img_shown":["img2/500/Congruent/R/C_Dist_500_LN_1_LD_4_RN_12_RD_16_1.png","img2/200/Incongruent/R/I_Dist_200_LN_11_LD_20_RN_3_RD_4_1.png","img2/100/Congruent/L/C_Dist_100_LN_10_LD_25_RN_3_RD_10_0.png","img2/500/Incongruent/R/I_Dist_500_LN_7_LD_21_RN_5_RD_6_1.png","img2/100/Incongruent/L/I_Dist_100_LN_3_LD_9_RN_7_RD_30_0.png","img2/100/Incongruent/R/I_Dist_100_LN_12_LD_24_RN_9_RD_15_1.png","img2/500/Congruent/R/C_Dist_500_LN_3_LD_10_RN_4_RD_5_1.png","img2/200/Incongruent/R/I_Dist_200_LN_14_LD_30_RN_6_RD_9_1.png","img2/500/Incongruent/R/I_Dist_500_LN_7_LD_21_RN_5_RD_6_1.png","img2/300/Incongruent/R/I_Dist_300_LN_4_LD_20_RN_2_RD_4_1.png","img2/100/Incongruent/R/I_Dist_100_LN_12_LD_30_RN_2_RD_4_1.png","img2/200/Congruent/L/C_Dist_200_LN_12_LD_15_RN_6_RD_10_0.png","img2/200/Congruent/R/C_Dist_200_LN_3_LD_6_RN_14_RD_20_1.png","img2/300/Incongruent/L/I_Dist_300_LN_2_LD_4_RN_6_RD_30_0.png","img2/100/Incongruent/L/I_Dist_100_LN_6_LD_10_RN_13_RD_26_0.png","img2/100/Congruent/R/C_Dist_100_LN_4_LD_8_RN_6_RD_10_1.png","img2/200/Congruent/R/C_Dist_200_LN_3_LD_12_RN_9_RD_20_1.png","img2/300/Congruent/L/C_Dist_300_LN_20_LD_25_RN_9_RD_18_0.png","img2/300/Incongruent/R/I_Dist_300_LN_13_LD_26_RN_12_RD_15_1.png","img2/300/Congruent/R/C_Dist_300_LN_5_LD_25_RN_6_RD_12_1.png","img2/500/Incongruent/R/I_Dist_500_LN_7_LD_21_RN_5_RD_6_1.png","img2/500/Incongruent/R/I_Dist_500_LN_7_LD_21_RN_5_RD_6_1.png","img2/300/Congruent/L/C_Dist_300_LN_11_LD_22_RN_2_RD_10_0.png","img2/100/Congruent/L/C_Dist_100_LN_10_LD_25_RN_3_RD_10_0.png","img2/100/Congruent/R/C_Dist_100_LN_4_LD_8_RN_6_RD_10_1.png","img2/100/Congruent/L/C_Dist_100_LN_8_LD_16_RN_2_RD_5_0.png","img2/500/Incongruent/R/I_Dist_500_LN_7_LD_21_RN_5_RD_6_1.png","img2/300/Congruent/R/C_Dist_300_LN_8_LD_15_RN_10_RD_12_1.png","img2/200/Congruent/R/C_Dist_200_LN_9_LD_30_RN_13_RD_26_1.png","img2/100/Congruent/R/C_Dist_100_LN_12_LD_30_RN_13_RD_26_1.png","img2/500/Congruent/L/C_Dist_500_LN_10_LD_13_RN_7_RD_26_0.png","img2/500/Incongruent/R/I_Dist_500_LN_7_LD_21_RN_5_RD_6_1.png","img2/100/Congruent/L/C_Dist_100_LN_11_LD_22_RN_4_RD_10_0.png","img2/200/Incongruent/R/I_Dist_200_LN_3_LD_10_RN_1_RD_2_1.png","img2/300/Incongruent/L/I_Dist_300_LN_4_LD_5_RN_6_RD_12_0.png","img2/500/Congruent/R/C_Dist_500_LN_10_LD_24_RN_22_RD_24_1.png","img2/200/Congruent/R/C_Dist_200_LN_13_LD_26_RN_14_RD_20_1.png","img2/200/Incongruent/L/I_Dist_200_LN_3_LD_4_RN_11_RD_20_0.png","img2/200/Congruent/R/C_Dist_200_LN_3_LD_6_RN_14_RD_20_1.png","img2/200/Incongruent/R/I_Dist_200_LN_9_LD_15_RN_8_RD_10_1.png","img2/500/Incongruent/R/I_Dist_500_LN_7_LD_21_RN_5_RD_6_1.png","img2/300/Incongruent/R/I_Dist_300_LN_4_LD_20_RN_2_RD_4_1.png","img2/200/Congruent/L/C_Dist_200_LN_16_LD_30_RN_9_RD_27_0.png","img2/500/Incongruent/L/I_Dist_500_LN_7_LD_8_RN_9_RD_24_0.png","img2/300/Congruent/L/C_Dist_300_LN_20_LD_25_RN_14_RD_28_0.png","img2/100/Congruent/R/C_Dist_100_LN_4_LD_8_RN_6_RD_10_1.png","img2/100/Congruent/L/C_Dist_100_LN_3_LD_6_RN_2_RD_5_0.png","img2/300/Incongruent/R/I_Dist_300_LN_4_LD_20_RN_2_RD_4_1.png","img2/300/Congruent/R/C_Dist_300_LN_1_LD_5_RN_11_RD_22_1.png","img2/300/Congruent/L/C_Dist_300_LN_20_LD_25_RN_5_RD_10_0.png","img2/100/Congruent/L/C_Dist_100_LN_3_LD_6_RN_2_RD_5_0.png","img2/200/Incongruent/L/I_Dist_200_LN_7_LD_10_RN_8_RD_16_0.png","img2/500/Incongruent/L/I_Dist_500_LN_7_LD_8_RN_9_RD_24_0.png","img2/300/Congruent/R/C_Dist_300_LN_3_LD_12_RN_11_RD_20_1.png","img2/200/Congruent/R/C_Dist_200_LN_7_LD_15_RN_18_RD_27_1.png","img2/200/Congruent/L/C_Dist_200_LN_14_LD_28_RN_6_RD_20_0.png","img2/200/Incongruent/L/I_Dist_200_LN_7_LD_10_RN_8_RD_16_0.png","img2/500/Congruent/L/C_Dist_500_LN_5_LD_6_RN_2_RD_6_0.png","img2/500/Congruent/L/C_Dist_500_LN_21_LD_28_RN_6_RD_24_0.png","img2/200/Incongruent/R/I_Dist_200_LN_14_LD_30_RN_12_RD_18_1.png","img2/300/Congruent/R/C_Dist_300_LN_8_LD_15_RN_10_RD_12_1.png","img2/100/Congruent/R/C_Dist_100_LN_1_LD_2_RN_18_RD_30_1.png","img2/100/Congruent/R/C_Dist_100_LN_3_LD_20_RN_4_RD_16_1.png","img2/300/Incongruent/R/I_Dist_300_LN_4_LD_20_RN_2_RD_4_1.png","img2/300/Incongruent/L/I_Dist_300_LN_4_LD_5_RN_8_RD_16_0.png","img2/300/Incongruent/L/I_Dist_300_LN_2_LD_4_RN_6_RD_30_0.png","img2/200/Congruent/R/C_Dist_200_LN_3_LD_10_RN_11_RD_22_1.png","img2/500/Congruent/L/C_Dist_500_LN_15_LD_18_RN_5_RD_15_0.png","img2/100/Incongruent/L/I_Dist_100_LN_3_LD_6_RN_4_RD_10_0.png","img2/300/Congruent/L/C_Dist_300_LN_11_LD_22_RN_2_RD_10_0.png","img2/500/Congruent/L/C_Dist_500_LN_18_LD_27_RN_1_RD_6_0.png","img2/500/Incongruent/R/I_Dist_500_LN_7_LD_21_RN_5_RD_6_1.png","img2/200/Congruent/L/C_Dist_200_LN_16_LD_30_RN_9_RD_27_0.png","img2/200/Incongruent/L/I_Dist_200_LN_4_LD_6_RN_14_RD_30_0.png","img2/300/Congruent/L/C_Dist_300_LN_9_LD_10_RN_3_RD_5_0.png","img2/500/Congruent/R/C_Dist_500_LN_3_LD_12_RN_15_RD_20_1.png","img2/300/Congruent/R/C_Dist_300_LN_1_LD_20_RN_7_RD_20_1.png","img2/300/Incongruent/L/I_Dist_300_LN_1_LD_2_RN_2_RD_10_0.png","img2/200/Congruent/R/C_Dist_200_LN_3_LD_10_RN_7_RD_14_1.png","img2/500/Congruent/L/C_Dist_500_LN_7_LD_10_RN_1_RD_5_0.png","img2/500/Incongruent/R/I_Dist_500_LN_7_LD_21_RN_5_RD_6_1.png","img2/500/Incongruent/R/I_Dist_500_LN_7_LD_21_RN_5_RD_6_1.png","img2/200/Congruent/R/C_Dist_200_LN_7_LD_15_RN_18_RD_27_1.png","img2/200/Congruent/L/C_Dist_200_LN_8_LD_15_RN_3_RD_9_0.png","img2/100/Incongruent/R/I_Dist_100_LN_13_LD_26_RN_12_RD_20_1.png","img2/500/Incongruent/L/I_Dist_500_LN_5_LD_6_RN_6_RD_18_0.png","img2/500/Incongruent/L/I_Dist_500_LN_7_LD_8_RN_9_RD_24_0.png","img2/300/Congruent/R/C_Dist_300_LN_8_LD_15_RN_10_RD_12_1.png","img2/100/Incongruent/R/I_Dist_100_LN_6_LD_12_RN_3_RD_5_1.png","img2/200/Congruent/L/C_Dist_200_LN_8_LD_15_RN_7_RD_21_0.png","img2/200/Incongruent/R/I_Dist_200_LN_11_LD_20_RN_3_RD_4_1.png","img2/500/Congruent/R/C_Dist_500_LN_2_LD_8_RN_12_RD_16_1.png","img2/500/Congruent/L/C_Dist_500_LN_7_LD_10_RN_1_RD_5_0.png","img2/500/Incongruent/R/I_Dist_500_LN_7_LD_21_RN_5_RD_6_1.png","img2/200/Incongruent/R/I_Dist_200_LN_3_LD_10_RN_1_RD_2_1.png","img2/500/Congruent/R/C_Dist_500_LN_2_LD_12_RN_10_RD_15_1.png","img2/300/Incongruent/R/I_Dist_300_LN_13_LD_26_RN_12_RD_15_1.png","img2/200/Incongruent/L/I_Dist_200_LN_1_LD_3_RN_2_RD_15_0.png","img2/100/Incongruent/L/I_Dist_100_LN_6_LD_10_RN_13_RD_26_0.png","img2/300/Incongruent/R/I_Dist_300_LN_4_LD_20_RN_2_RD_4_1.png","img2/100/Incongruent/L/I_Dist_100_LN_3_LD_5_RN_11_RD_22_0.png","img2/200/Incongruent/L/I_Dist_200_LN_4_LD_6_RN_14_RD_30_0.png","img2/100/Incongruent/R/I_Dist_100_LN_13_LD_26_RN_6_RD_10_1.png","img2/100/Incongruent/L/I_Dist_100_LN_4_LD_8_RN_8_RD_20_0.png","img2/100/Incongruent/L/I_Dist_100_LN_3_LD_9_RN_7_RD_30_0.png","img2/500/Congruent/R/C_Dist_500_LN_1_LD_4_RN_12_RD_16_1.png","img2/100/Incongruent/R/I_Dist_100_LN_12_LD_24_RN_9_RD_15_1.png","img2/500/Congruent/R/C_Dist_500_LN_1_LD_4_RN_12_RD_16_1.png","img2/100/Incongruent/L/I_Dist_100_LN_2_LD_4_RN_8_RD_20_0.png","img2/500/Incongruent/R/I_Dist_500_LN_7_LD_21_RN_5_RD_6_1.png","img2/100/Congruent/R/C_Dist_100_LN_1_LD_2_RN_3_RD_5_1.png","img2/300/Congruent/R/C_Dist_300_LN_1_LD_20_RN_7_RD_20_1.png","img2/300/Incongruent/R/I_Dist_300_LN_13_LD_26_RN_12_RD_15_1.png","img2/300/Incongruent/R/I_Dist_300_LN_13_LD_26_RN_12_RD_15_1.png","img2/200/Incongruent/L/I_Dist_200_LN_1_LD_3_RN_2_RD_15_0.png","img2/100/Congruent/R/C_Dist_100_LN_6_LD_12_RN_15_RD_25_1.png","img2/300/Congruent/R/C_Dist_300_LN_1_LD_5_RN_11_RD_22_1.png","img2/100/Congruent/L/C_Dist_100_LN_11_LD_22_RN_4_RD_10_0.png","img2/500/Congruent/R/C_Dist_500_LN_1_LD_9_RN_11_RD_18_1.png","img2/300/Incongruent/L/I_Dist_300_LN_4_LD_5_RN_6_RD_12_0.png","img2/200/Congruent/R/C_Dist_200_LN_1_LD_2_RN_21_RD_30_1.png","img2/200/Incongruent/L/I_Dist_200_LN_7_LD_10_RN_14_RD_28_0.png","img2/200/Incongruent/L/I_Dist_200_LN_7_LD_10_RN_14_RD_28_0.png","img2/300/Congruent/R/C_Dist_300_LN_1_LD_30_RN_8_RD_24_1.png","img2/100/Incongruent/R/I_Dist_100_LN_10_LD_25_RN_8_RD_16_1.png","img2/100/Congruent/R/C_Dist_100_LN_7_LD_14_RN_15_RD_25_1.png","img2/300/Incongruent/L/I_Dist_300_LN_3_LD_6_RN_4_RD_20_0.png","img2/100/Incongruent/R/I_Dist_100_LN_8_LD_16_RN_6_RD_10_1.png"],"dist100_C":[["C_Dist_100_LN_10_LD_25_RN_3_RD_10_0.png","C_Dist_100_LN_11_LD_22_RN_4_RD_10_0.png","C_Dist_100_LN_11_LD_22_RN_6_RD_15_0.png","C_Dist_100_LN_15_LD_25_RN_13_RD_26_0.png","C_Dist_100_LN_3_LD_6_RN_2_RD_5_0.png","C_Dist_100_LN_6_LD_20_RN_5_RD_25_0.png","C_Dist_100_LN_8_LD_16_RN_2_RD_5_0.png","C_Dist_100_LN_9_LD_15_RN_8_RD_16_0.png"],["C_Dist_100_LN_1_LD_2_RN_18_RD_30_1.png","C_Dist_100_LN_1_LD_2_RN_3_RD_5_1.png","C_Dist_100_LN_12_LD_30_RN_13_RD_26_1.png","C_Dist_100_LN_2_LD_5_RN_11_RD_22_1.png","C_Dist_100_LN_2_LD_5_RN_6_RD_12_1.png","C_Dist_100_LN_3_LD_20_RN_4_RD_16_1.png","C_Dist_100_LN_4_LD_10_RN_15_RD_30_1.png","C_Dist_100_LN_4_LD_8_RN_6_RD_10_1.png","C_Dist_100_LN_6_LD_12_RN_15_RD_25_1.png","C_Dist_100_LN_7_LD_14_RN_15_RD_25_1.png","C_Dist_100_LN_7_LD_14_RN_9_RD_15_1.png"]],"dist100_I":[["I_Dist_100_LN_1_LD_2_RN_8_RD_20_0.png","I_Dist_100_LN_2_LD_4_RN_6_RD_15_0.png","I_Dist_100_LN_2_LD_4_RN_8_RD_20_0.png","I_Dist_100_LN_3_LD_5_RN_11_RD_22_0.png","I_Dist_100_LN_3_LD_5_RN_8_RD_16_0.png","I_Dist_100_LN_3_LD_6_RN_4_RD_10_0.png","I_Dist_100_LN_3_LD_9_RN_7_RD_30_0.png","I_Dist_100_LN_4_LD_8_RN_8_RD_20_0.png","I_Dist_100_LN_6_LD_10_RN_11_RD_22_0.png","I_Dist_100_LN_6_LD_10_RN_13_RD_26_0.png","I_Dist_100_LN_6_LD_10_RN_7_RD_14_0.png","I_Dist_100_LN_9_LD_10_RN_20_RD_25_0.png","I_Dist_100_LN_9_LD_15_RN_13_RD_26_0.png","I_Dist_100_LN_9_LD_15_RN_14_RD_28_0.png"],["I_Dist_100_LN_10_LD_25_RN_8_RD_16_1.png","I_Dist_100_LN_10_LD_25_RN_9_RD_18_1.png","I_Dist_100_LN_11_LD_22_RN_9_RD_15_1.png","I_Dist_100_LN_12_LD_24_RN_9_RD_15_1.png","I_Dist_100_LN_12_LD_30_RN_2_RD_4_1.png","I_Dist_100_LN_13_LD_26_RN_12_RD_20_1.png","I_Dist_100_LN_13_LD_26_RN_6_RD_10_1.png","I_Dist_100_LN_17_LD_30_RN_10_RD_15_1.png","I_Dist_100_LN_6_LD_12_RN_3_RD_5_1.png","I_Dist_100_LN_8_LD_16_RN_6_RD_10_1.png","I_Dist_100_LN_8_LD_20_RN_1_RD_2_1.png","I_Dist_100_LN_9_LD_18_RN_6_RD_10_1.png"]],"dist100_S":[["E_Dist_100_LN_2_LD_12_RN_2_RD_30_0.png","E_Dist_100_LN_6_LD_10_RN_6_RD_12_0.png"],["E_Dist_100_LN_6_LD_12_RN_6_RD_10_1.png"]],"dist200_C":[["C_Dist_200_LN_11_LD_22_RN_3_RD_10_0.png","C_Dist_200_LN_12_LD_15_RN_6_RD_10_0.png","C_Dist_200_LN_12_LD_20_RN_6_RD_15_0.png","C_Dist_200_LN_14_LD_28_RN_6_RD_20_0.png","C_Dist_200_LN_15_LD_25_RN_4_RD_10_0.png","C_Dist_200_LN_16_LD_20_RN_12_RD_20_0.png","C_Dist_200_LN_16_LD_30_RN_9_RD_27_0.png","C_Dist_200_LN_20_LD_25_RN_9_RD_15_0.png","C_Dist_200_LN_21_LD_30_RN_2_RD_4_0.png","C_Dist_200_LN_4_LD_10_RN_3_RD_15_0.png","C_Dist_200_LN_4_LD_8_RN_3_RD_10_0.png","C_Dist_200_LN_6_LD_15_RN_3_RD_15_0.png","C_Dist_200_LN_7_LD_21_RN_2_RD_15_0.png","C_Dist_200_LN_8_LD_15_RN_2_RD_6_0.png","C_Dist_200_LN_8_LD_15_RN_3_RD_9_0.png","C_Dist_200_LN_8_LD_15_RN_7_RD_21_0.png","C_Dist_200_LN_9_LD_20_RN_4_RD_16_0.png"],["C_Dist_200_LN_1_LD_2_RN_21_RD_30_1.png","C_Dist_200_LN_13_LD_26_RN_14_RD_20_1.png","C_Dist_200_LN_3_LD_10_RN_11_RD_22_1.png","C_Dist_200_LN_3_LD_10_RN_14_RD_28_1.png","C_Dist_200_LN_3_LD_10_RN_7_RD_14_1.png","C_Dist_200_LN_3_LD_12_RN_9_RD_20_1.png","C_Dist_200_LN_3_LD_6_RN_14_RD_20_1.png","C_Dist_200_LN_5_LD_10_RN_14_RD_20_1.png","C_Dist_200_LN_6_LD_12_RN_7_RD_10_1.png","C_Dist_200_LN_6_LD_20_RN_11_RD_22_1.png","C_Dist_200_LN_7_LD_15_RN_18_RD_27_1.png","C_Dist_200_LN_9_LD_30_RN_13_RD_26_1.png"]],"dist200_I":[["I_Dist_200_LN_1_LD_2_RN_3_RD_10_0.png","I_Dist_200_LN_1_LD_3_RN_2_RD_15_0.png","I_Dist_200_LN_3_LD_4_RN_11_RD_20_0.png","I_Dist_200_LN_4_LD_5_RN_6_RD_10_0.png","I_Dist_200_LN_4_LD_6_RN_14_RD_30_0.png","I_Dist_200_LN_7_LD_10_RN_12_RD_24_0.png","I_Dist_200_LN_7_LD_10_RN_14_RD_28_0.png","I_Dist_200_LN_7_LD_10_RN_8_RD_16_0.png"],["I_Dist_200_LN_11_LD_20_RN_3_RD_4_1.png","I_Dist_200_LN_14_LD_30_RN_12_RD_18_1.png","I_Dist_200_LN_14_LD_30_RN_6_RD_9_1.png","I_Dist_200_LN_3_LD_10_RN_1_RD_2_1.png","I_Dist_200_LN_4_LD_30_RN_1_RD_3_1.png","I_Dist_200_LN_6_LD_20_RN_3_RD_6_1.png","I_Dist_200_LN_7_LD_15_RN_4_RD_6_1.png","I_Dist_200_LN_7_LD_15_RN_6_RD_9_1.png","I_Dist_200_LN_9_LD_15_RN_8_RD_10_1.png"]],"dist200_S":[["E_Dist_200_LN_3_LD_6_RN_3_RD_10_0.png"],["E_Dist_200_LN_3_LD_10_RN_3_RD_6_1.png"]],"dist300_C":[["C_Dist_300_LN_11_LD_22_RN_1_RD_5_0.png","C_Dist_300_LN_11_LD_22_RN_2_RD_10_0.png","C_Dist_300_LN_11_LD_22_RN_4_RD_20_0.png","C_Dist_300_LN_12_LD_24_RN_2_RD_10_0.png","C_Dist_300_LN_18_LD_20_RN_9_RD_15_0.png","C_Dist_300_LN_20_LD_25_RN_13_RD_26_0.png","C_Dist_300_LN_20_LD_25_RN_14_RD_28_0.png","C_Dist_300_LN_20_LD_25_RN_5_RD_10_0.png","C_Dist_300_LN_20_LD_25_RN_8_RD_16_0.png","C_Dist_300_LN_20_LD_25_RN_9_RD_18_0.png","C_Dist_300_LN_24_LD_30_RN_2_RD_4_0.png","C_Dist_300_LN_24_LD_30_RN_8_RD_16_0.png","C_Dist_300_LN_3_LD_6_RN_2_RD_10_0.png","C_Dist_300_LN_4_LD_10_RN_1_RD_10_0.png","C_Dist_300_LN_4_LD_5_RN_2_RD_4_0.png","C_Dist_300_LN_8_LD_16_RN_1_RD_5_0.png","C_Dist_300_LN_9_LD_10_RN_3_RD_5_0.png"],["C_Dist_300_LN_1_LD_20_RN_7_RD_20_1.png","C_Dist_300_LN_1_LD_3_RN_19_RD_30_1.png","C_Dist_300_LN_1_LD_30_RN_8_RD_24_1.png","C_Dist_300_LN_1_LD_5_RN_11_RD_22_1.png","C_Dist_300_LN_1_LD_5_RN_3_RD_6_1.png","C_Dist_300_LN_1_LD_5_RN_6_RD_12_1.png","C_Dist_300_LN_2_LD_10_RN_12_RD_24_1.png","C_Dist_300_LN_2_LD_20_RN_10_RD_25_1.png","C_Dist_300_LN_3_LD_12_RN_11_RD_20_1.png","C_Dist_300_LN_3_LD_6_RN_4_RD_5_1.png","C_Dist_300_LN_4_LD_20_RN_13_RD_26_1.png","C_Dist_300_LN_5_LD_25_RN_6_RD_12_1.png","C_Dist_300_LN_5_LD_25_RN_7_RD_14_1.png","C_Dist_300_LN_7_LD_14_RN_20_RD_25_1.png","C_Dist_300_LN_8_LD_15_RN_10_RD_12_1.png"]],"dist300_I":[["I_Dist_300_LN_1_LD_2_RN_2_RD_10_0.png","I_Dist_300_LN_1_LD_2_RN_3_RD_15_0.png","I_Dist_300_LN_2_LD_4_RN_6_RD_30_0.png","I_Dist_300_LN_3_LD_6_RN_4_RD_20_0.png","I_Dist_300_LN_4_LD_5_RN_6_RD_12_0.png","I_Dist_300_LN_4_LD_5_RN_8_RD_16_0.png","I_Dist_300_LN_7_LD_10_RN_8_RD_20_0.png","I_Dist_300_LN_8_LD_10_RN_14_RD_28_0.png","I_Dist_300_LN_8_LD_10_RN_9_RD_18_0.png"],["I_Dist_300_LN_13_LD_26_RN_12_RD_15_1.png","I_Dist_300_LN_4_LD_20_RN_2_RD_4_1.png"]],"dist300_S":[["E_Dist_300_LN_9_LD_12_RN_9_RD_20_0.png"],["E_Dist_300_LN_18_LD_30_RN_18_RD_20_1.png","E_Dist_300_LN_3_LD_10_RN_3_RD_5_1.png","E_Dist_300_LN_9_LD_20_RN_9_RD_12_1.png"]],"dist500_C":[["C_Dist_500_LN_10_LD_13_RN_7_RD_26_0.png","C_Dist_500_LN_10_LD_15_RN_4_RD_24_0.png","C_Dist_500_LN_12_LD_16_RN_3_RD_12_0.png","C_Dist_500_LN_12_LD_18_RN_4_RD_24_0.png","C_Dist_500_LN_15_LD_18_RN_5_RD_15_0.png","C_Dist_500_LN_15_LD_20_RN_1_RD_4_0.png","C_Dist_500_LN_18_LD_27_RN_1_RD_6_0.png","C_Dist_500_LN_20_LD_24_RN_1_RD_3_0.png","C_Dist_500_LN_20_LD_24_RN_3_RD_9_0.png","C_Dist_500_LN_20_LD_24_RN_7_RD_21_0.png","C_Dist_500_LN_20_LD_28_RN_3_RD_14_0.png","C_Dist_500_LN_21_LD_28_RN_6_RD_24_0.png","C_Dist_500_LN_22_LD_28_RN_2_RD_7_0.png","C_Dist_500_LN_25_LD_30_RN_9_RD_27_0.png","C_Dist_500_LN_4_LD_6_RN_1_RD_6_0.png","C_Dist_500_LN_5_LD_6_RN_2_RD_6_0.png","C_Dist_500_LN_6_LD_9_RN_1_RD_6_0.png","C_Dist_500_LN_7_LD_10_RN_1_RD_5_0.png","C_Dist_500_LN_8_LD_12_RN_1_RD_6_0.png","C_Dist_500_LN_8_LD_12_RN_4_RD_24_0.png"],["C_Dist_500_LN_1_LD_4_RN_12_RD_16_1.png","C_Dist_500_LN_1_LD_4_RN_9_RD_12_1.png","C_Dist_500_LN_1_LD_9_RN_11_RD_18_1.png","C_Dist_500_LN_10_LD_24_RN_22_RD_24_1.png","C_Dist_500_LN_2_LD_12_RN_10_RD_15_1.png","C_Dist_500_LN_2_LD_12_RN_12_RD_18_1.png","C_Dist_500_LN_2_LD_12_RN_4_RD_6_1.png","C_Dist_500_LN_2_LD_24_RN_7_RD_12_1.png","C_Dist_500_LN_2_LD_5_RN_18_RD_20_1.png","C_Dist_500_LN_2_LD_5_RN_9_RD_10_1.png","C_Dist_500_LN_2_LD_8_RN_12_RD_16_1.png","C_Dist_500_LN_2_LD_8_RN_21_RD_28_1.png","C_Dist_500_LN_3_LD_10_RN_4_RD_5_1.png","C_Dist_500_LN_3_LD_12_RN_15_RD_20_1.png","C_Dist_500_LN_3_LD_30_RN_6_RD_10_1.png","C_Dist_500_LN_3_LD_8_RN_14_RD_16_1.png","C_Dist_500_LN_4_LD_16_RN_15_RD_20_1.png","C_Dist_500_LN_4_LD_24_RN_12_RD_18_1.png","C_Dist_500_LN_5_LD_14_RN_6_RD_7_1.png","C_Dist_500_LN_7_LD_21_RN_20_RD_24_1.png","C_Dist_500_LN_7_LD_28_RN_12_RD_16_1.png","C_Dist_500_LN_7_LD_28_RN_9_RD_12_1.png","C_Dist_500_LN_9_LD_27_RN_20_RD_24_1.png"]],"dist500_I":[["I_Dist_500_LN_2_LD_3_RN_4_RD_24_0.png","I_Dist_500_LN_5_LD_6_RN_6_RD_18_0.png","I_Dist_500_LN_7_LD_8_RN_9_RD_24_0.png"],["I_Dist_500_LN_7_LD_21_RN_5_RD_6_1.png"]],"dist500_S":[["E_Dist_500_LN_6_LD_8_RN_6_RD_24_0.png"],["E_Dist_500_LN_2_LD_12_RN_2_RD_3_1.png","E_Dist_500_LN_6_LD_24_RN_6_RD_8_1.png"]]}},{"start_time":1549381502660,"click_time":1549381505168,"finger_time":1549381504327,"fix_duration":352.1108688763951,"trial":1,"RT":1667,"MT":841,"sideResp":1,"stimulus":[],"xmouse":[404.66668701171875,404.66668701171875,404.66668701171875,402.66668701171875,402.66668701171875,402.66668701171875,402.66668701171875,402.66668701171875,402.66668701171875,402.66668701171875,402.66668701171875,402.66668701171875,402.66668701171875,401.3333435058594,401.3333435058594,401.3333435058594,401.3333435058594,401.3333435058594,401.3333435058594,401.3333435058594,401.3333435058594,401.3333435058594,401.3333435058594,404,404,404,404,404,404,404,404,404,404,404.66668701171875,404.66668701171875,404.66668701171875,404.66668701171875,404.66668701171875,405.3333435058594,405.3333435058594,405.3333435058594,405.3333435058594,405.3333435058594,405.3333435058594,405.3333435058594,405.3333435058594,405.3333435058594,405.3333435058594,405.3333435058594,405.3333435058594,405.3333435058594,405.3333435058594,405.3333435058594,404,404,404,404,404,404,404,404,404,404,403.3333435058594,403.3333435058594,403.3333435058594,403.3333435058594,403.3333435058594,403.3333435058594,403.3333435058594,403.3333435058594,403.3333435058594,403.3333435058594,402.66668701171875,402.66668701171875,402,402,402,401.3333435058594,400.66668701171875,400.66668701171875,400.66668701171875,400.66668701171875,376.66668701171875,370,353.3333435058594,344.66668701171875,326,320,317.3333435058594,313.3333435058594,311.3333435058594,308,301.3333435058594,298.66668701171875,290,286,278,265.3333435058594,260,247.33334350585938,240,226.6666717529297,210.6666717529297,204.6666717529297,194.6666717529297,190,180,168,164,156,153.33334350585938,147.33334350585938,138.6666717529297,136,132,129.33334350585938,125.33334350585938,118.66667175292969,117.33333587646484,115.33333587646484,112.66667175292969,111.33333587646484,106.66667175292969,103.33333587646484,101.33333587646484],"ymouse":[820.6666870117188,820.6666870117188,820.6666870117188,818,818,818,818,818,818,818,818,818,818,818.6666870117188,818.6666870117188,818.6666870117188,818.6666870117188,818.6666870117188,818.6666870117188,818.6666870117188,818.6666870117188,818.6666870117188,818.6666870117188,824,824,824,824,824,824,824,824,824,824,826.6666870117188,826.6666870117188,826.6666870117188,826.6666870117188,826.6666870117188,828.6666870117188,828.6666870117188,828,828,828,827.3333740234375,827.3333740234375,827.3333740234375,827.3333740234375,827.3333740234375,827.3333740234375,827.3333740234375,827.3333740234375,827.3333740234375,827.3333740234375,822.6666870117188,822.6666870117188,822.6666870117188,822.6666870117188,822.6666870117188,822.6666870117188,822.6666870117188,822.6666870117188,822.6666870117188,822.6666870117188,821.3333740234375,821.3333740234375,821.3333740234375,821.3333740234375,821.3333740234375,821.3333740234375,821.3333740234375,821.3333740234375,821.3333740234375,821.3333740234375,811.3333740234375,810.6666870117188,808,808,808,802,797.3333740234375,797.3333740234375,797.3333740234375,797.3333740234375,742,730,701.3333740234375,686,650.6666870117188,640,636,628,624,617.3333740234375,605.3333740234375,599.3333740234375,585.3333740234375,578,563.3333740234375,536.6666870117188,525.3333740234375,495.3333435058594,479.3333435058594,450.66668701171875,412,399.3333435058594,371.3333435058594,358,330,288.66668701171875,277.3333435058594,252.66668701171875,240,216,187.33334350585938,180,168.6666717529297,164,153.33334350585938,140,135.33334350585938,132,124.66667175292969,121.33334350585938,110.66667175292969,102.66667175292969,97.33333587646484],"timestamp_mouse":[12,41,47,67,87,107,127,148,167,187,207,227,247,267,288,308,327,348,367,387,408,427,447,468,487,508,527,547,567,587,607,627,647,667,688,707,728,747,767,787,807,827,850,867,887,907,927,948,967,987,1008,1027,1048,1067,1087,1107,1127,1147,1167,1187,1207,1227,1247,1268,1288,1308,1327,1347,1369,1388,1407,1427,1447,1467,1487,1507,1527,1547,1567,1588,1607,1627,1647,1667,1687,1707,1727,1750,1767,1787,1807,1827,1847,1868,1887,1907,1927,1948,1968,1987,2007,2027,2047,2069,2087,2107,2127,2148,2167,2187,2207,2227,2247,2270,2287,2307,2327,2348,2368,2388,2408,2427,2447,2467,2488,2507],"xSR":350,"ySR":768,"xT1":30,"yT1":0,"xT2":670,"yT2":0,"toosoon":0,"cond_shown":"Incongruent","ratio_trial":200,"L_num":11,"L_den":20,"R_num":3,"R_den":4,"correct_side":2,"subjID":"46wm","gender":"No_gender","school":"No_school","age":"No_age"},{"start_time":1549381508256,"click_time":1549381510448,"finger_time":1549381510049,"fix_duration":1495.6284903543742,"trial":2,"RT":1793,"MT":399,"sideResp":1,"stimulus":[],"xmouse":[396.66668701171875,396.66668701171875,396.66668701171875,396.66668701171875,396.66668701171875,396.66668701171875,396.66668701171875,396.66668701171875,396.66668701171875,396.66668701171875,396.66668701171875,396.66668701171875,396.66668701171875,396.66668701171875,396.66668701171875,396.66668701171875,396.66668701171875,396.66668701171875,396.66668701171875,396.66668701171875,396.66668701171875,396.66668701171875,396.66668701171875,396.66668701171875,396.66668701171875,396.66668701171875,396.66668701171875,396.66668701171875,397.3333435058594,397.3333435058594,397.3333435058594,397.3333435058594,397.3333435058594,397.3333435058594,397.3333435058594,397.3333435058594,397.3333435058594,397.3333435058594,397.3333435058594,397.3333435058594,397.3333435058594,397.3333435058594,397.3333435058594,397.3333435058594,397.3333435058594,397.3333435058594,397.3333435058594,397.3333435058594,398,398,398,398,398,398,398,398,398,398,398,398,398,398,398,398,398,398,398,398,398.66668701171875,398.66668701171875,398.66668701171875,398.66668701171875,398.66668701171875,398.66668701171875,398.66668701171875,398.66668701171875,398.66668701171875,398.66668701171875,398,397.3333435058594,396.66668701171875,396,395.3333435058594,395.3333435058594,394.66668701171875,394,392.66668701171875,392,390,384.66668701171875,352.66668701171875,344,331.3333435058594,324,302,290.66668701171875,258.66668701171875,236,224,201.33334350585938,190.6666717529297,164.6666717529297,148,140.6666717529297,127.33334350585938,120.66667175292969,107.33333587646484,101.33333587646484,99.33333587646484,92.66667175292969,92],"ymouse":[848.6666870117188,848.6666870117188,848.6666870117188,848.6666870117188,848.6666870117188,848.6666870117188,848.6666870117188,848.6666870117188,843.3333740234375,843.3333740234375,843.3333740234375,843.3333740234375,843.3333740234375,843.3333740234375,843.3333740234375,843.3333740234375,843.3333740234375,843.3333740234375,844,844,844,844,844,844,844,844,844,844,844,844,844,844,844,844,844,844,844,844,844.6666870117188,844.6666870117188,844.6666870117188,844.6666870117188,844.6666870117188,844.6666870117188,844.6666870117188,844.6666870117188,844.6666870117188,844.6666870117188,844.6666870117188,844.6666870117188,844.6666870117188,844.6666870117188,844.6666870117188,844.6666870117188,844.6666870117188,844.6666870117188,844.6666870117188,844.6666870117188,844,844,844,844,844,844,844,844,844,844,844,844,844,844,844,844,844,844,844,844,841.3333740234375,840,837.3333740234375,834.6666870117188,833.3333740234375,832.6666870117188,830.6666870117188,827.3333740234375,824,822.6666870117188,819.3333740234375,808.6666870117188,742.6666870117188,725.3333740234375,702,688,646,622.6666870117188,553.3333740234375,506,480.66668701171875,432,408,336,290.66668701171875,270,229.33334350585938,210.6666717529297,159.33334350585938,132.6666717529297,122,104,96.66667175292969],"timestamp_mouse":[7,14,43,51,71,91,111,131,151,171,191,212,231,251,272,291,311,331,351,371,391,411,431,451,471,491,511,531,552,571,591,611,632,651,672,691,711,731,752,771,792,811,831,851,872,891,911,932,951,971,991,1012,1031,1051,1072,1091,1111,1131,1151,1171,1191,1211,1231,1251,1271,1291,1311,1332,1352,1371,1391,1411,1431,1451,1471,1491,1511,1531,1551,1571,1593,1611,1631,1651,1671,1693,1711,1732,1751,1771,1793,1812,1831,1851,1871,1891,1912,1931,1951,1971,1992,2013,2031,2052,2071,2091,2113,2131,2151,2171,2192],"xSR":350,"ySR":768,"xT1":30,"yT1":0,"xT2":670,"yT2":0,"toosoon":0,"cond_shown":"Congruent","ratio_trial":100,"L_num":10,"L_den":25,"R_num":3,"R_den":10,"correct_side":1,"subjID":"46wm","gender":"No_gender","school":"No_school","age":"No_age"},{"start_time":1549381513774,"click_time":1549381515390,"finger_time":1549381514907,"fix_duration":1465.1855999904149,"trial":3,"RT":1133,"MT":483,"sideResp":2,"stimulus":[],"xmouse":[395.3333435058594,396,396,396,396,396,396,396,396,396,396,396,396,396,396,396,396,396,396.66668701171875,396.66668701171875,396,396,396,396.66668701171875,396.66668701171875,396.66668701171875,396.66668701171875,396.66668701171875,396.66668701171875,396.66668701171875,396.66668701171875,396.66668701171875,396.66668701171875,396.66668701171875,396.66668701171875,396.66668701171875,396.66668701171875,396.66668701171875,396.66668701171875,396.66668701171875,396.66668701171875,396.66668701171875,396.66668701171875,396.66668701171875,396.66668701171875,396.66668701171875,396.66668701171875,396.66668701171875,396.66668701171875,396.66668701171875,396.66668701171875,396.66668701171875,397.3333435058594,398,398,410.66668701171875,433.3333435058594,456,489.3333435058594,500.66668701171875,535.3333740234375,565.3333740234375,581.3333740234375,613.3333740234375,625.3333740234375,642,647.3333740234375,650,656.6666870117188,661.3333740234375,672.6666870117188,677.3333740234375,679.3333740234375,681.3333740234375,682,683.3333740234375,684,684.6666870117188,685.3333740234375,685.3333740234375,686],"ymouse":[838.6666870117188,838.6666870117188,838,838,838,838,837.3333740234375,837.3333740234375,837.3333740234375,837.3333740234375,837.3333740234375,837.3333740234375,837.3333740234375,836.6666870117188,836.6666870117188,836.6666870117188,836.6666870117188,836.6666870117188,836.6666870117188,836.6666870117188,836.6666870117188,836.6666870117188,836.6666870117188,836.6666870117188,836,836,836,836,836,836,836,836,835.3333740234375,835.3333740234375,835.3333740234375,834.6666870117188,834.6666870117188,834.6666870117188,834.6666870117188,834.6666870117188,834,834,834,834,834,834,834,833.3333740234375,833.3333740234375,833.3333740234375,832.6666870117188,832,830.6666870117188,830,829.3333740234375,798.6666870117188,742.6666870117188,699.3333740234375,636,613.3333740234375,536.6666870117188,476,445.3333435058594,384,354.66668701171875,286,248,230.6666717529297,196.6666717529297,180,139.33334350585938,123.33334350585938,119.33334350585938,112.66667175292969,110.66667175292969,106.66667175292969,105.33333587646484,104,102,101.33333587646484,99.33333587646484],"timestamp_mouse":[28,33,53,73,93,113,133,153,173,193,213,233,253,273,293,313,333,353,373,393,413,433,453,473,493,513,533,553,574,594,613,633,653,673,693,714,733,753,773,794,814,833,853,873,893,913,934,954,973,993,1013,1033,1053,1073,1093,1115,1133,1153,1173,1193,1214,1233,1254,1273,1293,1315,1333,1353,1373,1393,1415,1433,1453,1474,1493,1515,1533,1553,1573,1593,1615],"xSR":350,"ySR":768,"xT1":30,"yT1":0,"xT2":670,"yT2":0,"toosoon":0,"cond_shown":"Incongruent","ratio_trial":500,"L_num":7,"L_den":21,"R_num":5,"R_den":6,"correct_side":2,"subjID":"46wm","gender":"No_gender","school":"No_school","age":"No_age"},{"start_time":1549381517430,"click_time":1549381519130,"finger_time":1549381518727,"fix_duration":461.41606468872277,"trial":4,"RT":1297,"MT":403,"sideResp":1,"stimulus":[],"xmouse":[396.66668701171875,396.66668701171875,396.66668701171875,396.66668701171875,396.66668701171875,396.66668701171875,396.66668701171875,396.66668701171875,396.66668701171875,396.66668701171875,396,396,396,396,396,396,396,396,396,396,398,398,398,398.66668701171875,398.66668701171875,398.66668701171875,398.66668701171875,398.66668701171875,398.66668701171875,398.66668701171875,398.66668701171875,398.66668701171875,398.66668701171875,398.66668701171875,398.66668701171875,398.66668701171875,398.66668701171875,398.66668701171875,398.66668701171875,398.66668701171875,398.66668701171875,398.66668701171875,398.66668701171875,398.66668701171875,398.66668701171875,398.66668701171875,398.66668701171875,398.66668701171875,399.3333435058594,399.3333435058594,399.3333435058594,399.3333435058594,399.3333435058594,399.3333435058594,399.3333435058594,399.3333435058594,399.3333435058594,399.3333435058594,398,398,396,395.3333435058594,392.66668701171875,378,368.66668701171875,349.3333435058594,338,314.66668701171875,300.66668701171875,254.6666717529297,225.33334350585938,214,202,180.6666717529297,152,142.6666717529297,128,115.33333587646484,111.33333587646484,100,97.33333587646484,90.66667175292969,88,84.66667175292969,80.66667175292969],"ymouse":[842.6666870117188,842.6666870117188,842.6666870117188,842.6666870117188,842.6666870117188,842.6666870117188,842.6666870117188,842.6666870117188,842.6666870117188,842.6666870117188,838,838,838,838,838,838,838,838,838,838,834,834,834,832.6666870117188,832,832,831.3333740234375,831.3333740234375,831.3333740234375,831.3333740234375,831.3333740234375,831.3333740234375,831.3333740234375,831.3333740234375,831.3333740234375,831.3333740234375,832,832,831.3333740234375,831.3333740234375,831.3333740234375,831.3333740234375,831.3333740234375,831.3333740234375,831.3333740234375,831.3333740234375,831.3333740234375,831.3333740234375,833.3333740234375,833.3333740234375,833.3333740234375,833.3333740234375,833.3333740234375,833.3333740234375,833.3333740234375,833.3333740234375,833.3333740234375,833.3333740234375,832.6666870117188,832.6666870117188,827.3333740234375,826,820,784,763.3333740234375,718.6666870117188,694,646,620.6666870117188,540,484.66668701171875,460,431.3333435058594,377.3333435058594,303.3333435058594,282,240,204.6666717529297,188,148.6666717529297,139.33334350585938,122,114,104.66667175292969,97.33333587646484],"timestamp_mouse":[31,37,58,77,97,117,137,157,177,198,217,237,257,278,297,317,337,357,377,397,417,438,457,478,497,517,538,557,577,597,617,637,657,677,697,717,738,757,778,798,823,841,857,877,897,917,937,957,978,997,1017,1037,1057,1077,1097,1117,1137,1157,1177,1197,1217,1237,1257,1279,1297,1317,1337,1357,1377,1397,1417,1437,1457,1477,1498,1517,1537,1557,1578,1598,1617,1637,1658,1678,1700],"xSR":350,"ySR":768,"xT1":30,"yT1":0,"xT2":670,"yT2":0,"toosoon":0,"cond_shown":"Incongruent","ratio_trial":100,"L_num":3,"L_den":9,"R_num":7,"R_den":30,"correct_side":1,"subjID":"46wm","gender":"No_gender","school":"No_school","age":"No_age"},{"start_time":1549381525576,"click_time":1549381527367,"finger_time":1549381527127,"fix_duration":927.5171903473473,"trial":5,"RT":1551,"MT":240,"sideResp":2,"stimulus":[],"xmouse":[386,386,386,386,386,386,386,386,386,386,386,386,386,386,386,386,386,386,386,386,386,386,386,386,386,386,382.66668701171875,382.66668701171875,382.66668701171875,382.66668701171875,382.66668701171875,382.66668701171875,382.66668701171875,382.66668701171875,382.66668701171875,382.66668701171875,382.66668701171875,382.66668701171875,382.66668701171875,382.66668701171875,382.66668701171875,383.3333435058594,383.3333435058594,383.3333435058594,383.3333435058594,383.3333435058594,383.3333435058594,383.3333435058594,382.66668701171875,382.66668701171875,382.66668701171875,382.66668701171875,382.66668701171875,382.66668701171875,382.66668701171875,382.66668701171875,382.66668701171875,382.66668701171875,382.66668701171875,382.66668701171875,384,384,384,384,384.66668701171875,384.66668701171875,384.66668701171875,384.66668701171875,384.66668701171875,384.66668701171875,384.66668701171875,385.3333435058594,385.3333435058594,385.3333435058594,382.66668701171875,382.66668701171875,391.3333435058594,412.66668701171875,422.66668701171875,445.3333435058594,459.3333435058594,468,488.66668701171875,500,548,587.3333740234375,608,648.6666870117188,667.3333740234375,697.3333740234375],"ymouse":[834,834,834,834,834,834,834,834,834,834,834,834,834,834,834,834,834,834,834,834,834,834,834,834,834,834,827.3333740234375,827.3333740234375,827.3333740234375,827.3333740234375,826.6666870117188,826.6666870117188,826.6666870117188,826.6666870117188,826.6666870117188,826.6666870117188,826.6666870117188,826.6666870117188,826.6666870117188,826.6666870117188,826.6666870117188,826.6666870117188,826.6666870117188,826.6666870117188,826.6666870117188,826.6666870117188,826.6666870117188,826.6666870117188,825.3333740234375,824.6666870117188,824.6666870117188,824.6666870117188,824.6666870117188,825.3333740234375,825.3333740234375,825.3333740234375,825.3333740234375,825.3333740234375,825.3333740234375,825.3333740234375,826.6666870117188,826.6666870117188,826.6666870117188,826.6666870117188,828.6666870117188,828.6666870117188,828.6666870117188,828.6666870117188,828.6666870117188,828.6666870117188,828.6666870117188,834.6666870117188,834.6666870117188,834.6666870117188,830,830,780.6666870117188,706.6666870117188,667.3333740234375,558.6666870117188,488.66668701171875,452.66668701171875,383.3333435058594,350.66668701171875,266.66668701171875,214.6666717529297,189.33334350585938,141.33334350585938,119.33334350585938,79.33333587646484],"timestamp_mouse":[11,31,51,71,91,112,131,152,171,191,211,231,251,271,291,312,331,352,371,391,411,431,455,471,491,512,531,552,571,591,612,631,651,671,691,711,731,751,771,791,811,831,851,871,892,911,931,951,971,991,1011,1031,1051,1071,1091,1112,1131,1151,1171,1191,1211,1231,1251,1271,1291,1312,1331,1351,1371,1391,1411,1431,1451,1471,1491,1511,1531,1551,1571,1594,1611,1631,1651,1671,1693,1712,1732,1751,1771,1791],"xSR":350,"ySR":768,"xT1":30,"yT1":0,"xT2":670,"yT2":0,"toosoon":0,"cond_shown":"Incongruent","ratio_trial":100,"L_num":12,"L_den":24,"R_num":9,"R_den":15,"correct_side":2,"subjID":"46wm","gender":"No_gender","school":"No_school","age":"No_age"},{"start_time":1549381529489,"click_time":1549381531267,"finger_time":1549381530968,"fix_duration":861.2193682694597,"trial":6,"RT":1479,"MT":299,"sideResp":2,"stimulus":[],"xmouse":[380.66668701171875,380.66668701171875,380.66668701171875,380.66668701171875,380.66668701171875,380.66668701171875,380.66668701171875,380.66668701171875,380.66668701171875,380.66668701171875,380.66668701171875,380.66668701171875,380.66668701171875,380.66668701171875,380.66668701171875,380.66668701171875,380.66668701171875,380.66668701171875,380.66668701171875,380.66668701171875,379.3333435058594,379.3333435058594,379.3333435058594,379.3333435058594,379.3333435058594,379.3333435058594,379.3333435058594,379.3333435058594,378.66668701171875,378,378.66668701171875,378.66668701171875,378.66668701171875,378.66668701171875,378.66668701171875,378.66668701171875,378.66668701171875,378.66668701171875,378.66668701171875,378.66668701171875,378.66668701171875,379.3333435058594,379.3333435058594,379.3333435058594,379.3333435058594,379.3333435058594,379.3333435058594,379.3333435058594,379.3333435058594,379.3333435058594,379.3333435058594,380.66668701171875,380.66668701171875,380.66668701171875,380.66668701171875,380.66668701171875,380.66668701171875,380.66668701171875,380.66668701171875,380.66668701171875,380.66668701171875,382.66668701171875,382.66668701171875,382.66668701171875,382.66668701171875,382.66668701171875,382.66668701171875,383.3333435058594,383.3333435058594,383.3333435058594,383.3333435058594,396.66668701171875,396.66668701171875,419.3333435058594,442,468.66668701171875,477.3333435058594,498,508.66668701171875,533.3333740234375,568,579.3333740234375,604,616.6666870117188,642,674,683.3333740234375,695.3333740234375,701.3333740234375],"ymouse":[858,858,858,858,858,858,858,858,858,858,858.6666870117188,858.6666870117188,858.6666870117188,858.6666870117188,858.6666870117188,858.6666870117188,858.6666870117188,858.6666870117188,858.6666870117188,858.6666870117188,860,860,860,860,860,860,860,860,857.3333740234375,856.6666870117188,856.6666870117188,857.3333740234375,857.3333740234375,857.3333740234375,857.3333740234375,857.3333740234375,857.3333740234375,857.3333740234375,857.3333740234375,857.3333740234375,857.3333740234375,859.3333740234375,859.3333740234375,859.3333740234375,859.3333740234375,859.3333740234375,859.3333740234375,859.3333740234375,859.3333740234375,859.3333740234375,859.3333740234375,860,860,860,860,860,860,860,860,860,860,861.3333740234375,861.3333740234375,861.3333740234375,861.3333740234375,861.3333740234375,861.3333740234375,860,860,860,860,814.6666870117188,814.6666870117188,750.6666870117188,691.3333740234375,621.3333740234375,596,539.3333740234375,509.3333740234375,446,359.3333435058594,328.66668701171875,270.66668701171875,241.33334350585938,188.6666717529297,134,121.33334350585938,103.33333587646484,96],"timestamp_mouse":[26,39,58,79,98,118,138,158,179,199,218,238,258,279,299,319,338,358,378,398,418,438,458,478,498,518,539,558,578,598,618,639,658,678,698,718,738,758,778,798,819,838,858,878,898,918,938,958,978,998,1019,1038,1058,1078,1098,1118,1138,1158,1178,1198,1218,1238,1258,1278,1298,1320,1338,1359,1378,1399,1418,1441,1458,1479,1498,1519,1538,1558,1578,1598,1618,1638,1658,1678,1698,1718,1739,1758,1778],"xSR":350,"ySR":768,"xT1":30,"yT1":0,"xT2":670,"yT2":0,"toosoon":0,"cond_shown":"Congruent","ratio_trial":500,"L_num":3,"L_den":10,"R_num":4,"R_den":5,"correct_side":2,"subjID":"46wm","gender":"No_gender","school":"No_school","age":"No_age"},{"start_time":1549381532980,"click_time":1549381533908,"finger_time":1549381533487,"fix_duration":751.8692485486238,"trial":7,"RT":507,"MT":421,"sideResp":1,"stimulus":[],"xmouse":[394.66668701171875,394,394,394,394,394.66668701171875,394.66668701171875,394.66668701171875,394.66668701171875,394.66668701171875,394.66668701171875,394.66668701171875,394.66668701171875,394.66668701171875,394.66668701171875,394.66668701171875,394.66668701171875,391.3333435058594,390.66668701171875,390,388.66668701171875,387.3333435058594,382,380,378.66668701171875,376.66668701171875,375.3333435058594,366,355.3333435058594,350.66668701171875,340,333.3333435058594,311.3333435058594,292,284,266.66668701171875,258,230.6666717529297,212.6666717529297,204,184.6666717529297,175.33334350585938,144.6666717529297,134,115.33333587646484,107.33333587646484,92],"ymouse":[829.3333740234375,845.3333740234375,854,856,859.3333740234375,860,860.6666870117188,860,860,859.3333740234375,859.3333740234375,859.3333740234375,859.3333740234375,859.3333740234375,859.3333740234375,859.3333740234375,859.3333740234375,839.3333740234375,836,834,831.3333740234375,828.6666870117188,806,787.3333740234375,779.3333740234375,760.6666870117188,750,702,660.6666870117188,639.3333740234375,594.6666870117188,572,504.66668701171875,458,436.66668701171875,395.3333435058594,376,316.66668701171875,280,262,228.6666717529297,211.33334350585938,163.33334350585938,150,124.66667175292969,114,93.33333587646484],"timestamp_mouse":[7,32,61,69,88,107,127,147,167,187,207,228,249,268,287,307,327,349,367,387,407,427,448,467,487,507,527,547,567,587,607,627,648,667,687,707,728,748,767,787,807,827,848,867,887,907,928],"xSR":350,"ySR":768,"xT1":30,"yT1":0,"xT2":670,"yT2":0,"toosoon":0,"cond_shown":"Incongruent","ratio_trial":200,"L_num":14,"L_den":30,"R_num":6,"R_den":9,"correct_side":2,"subjID":"46wm","gender":"No_gender","school":"No_school","age":"No_age"},{"start_time":1549381536562,"click_time":1549381537551,"finger_time":1549381537267,"fix_duration":1193.6531370489954,"trial":8,"RT":705,"MT":284,"sideResp":2,"stimulus":[],"xmouse":[404,404,404,404,404,404,404,404,404,404,404,404,404,404,404,404,404,404,399.3333435058594,399.3333435058594,400,400,400,400,400,400,400,399.3333435058594,399.3333435058594,399.3333435058594,399.3333435058594,399.3333435058594,399.3333435058594,399.3333435058594,402,412.66668701171875,418.66668701171875,428.66668701171875,434,466.66668701171875,500,517.3333740234375,548,566.6666870117188,618,653.3333740234375,667.3333740234375,692,699.3333740234375,716.6666870117188],"ymouse":[823,823,823,823,823,823,823,823,823,823,823,823,823,823,823,823,823,823,830,831.3333740234375,832.6666870117188,834,835.3333740234375,836.6666870117188,838,838.6666870117188,838.6666870117188,838,838,838,838,838,838,838,788.6666870117188,742.6666870117188,718.6666870117188,668.6666870117188,639.3333740234375,536,460,423.3333435058594,358,322.66668701171875,230.6666717529297,178.6666717529297,155.33334350585938,118,104,77.33333587646484],"timestamp_mouse":[10,32,45,65,85,105,125,145,165,186,205,225,245,265,285,305,325,345,365,385,405,425,445,465,486,505,525,545,565,585,605,625,645,665,687,705,725,745,765,787,805,825,846,865,886,906,925,945,965,988],"xSR":350,"ySR":768,"xT1":30,"yT1":0,"xT2":670,"yT2":0,"toosoon":0,"cond_shown":"Incongruent","ratio_trial":500,"L_num":7,"L_den":21,"R_num":5,"R_den":6,"correct_side":2,"subjID":"46wm","gender":"No_gender","school":"No_school","age":"No_age"},{"start_time":1549381539279,"click_time":1549381540567,"finger_time":1549381540036,"fix_duration":250,"trial":9,"RT":757,"MT":531,"sideResp":1,"stimulus":[],"xmouse":[420,420,420,420,420,420,420,420,420,420,420,420,420,420,420,420,420,420,420,419.3333435058594,419.3333435058594,419.3333435058594,419.3333435058594,419.3333435058594,419.3333435058594,419.3333435058594,419.3333435058594,419.3333435058594,419.3333435058594,413.3333435058594,413.3333435058594,413.3333435058594,413.3333435058594,413.3333435058594,406.66668701171875,406,399.3333435058594,372.66668701171875,372.66668701171875,344,334,312,300.66668701171875,276.66668701171875,240.6666717529297,228.6666717529297,209.33334350585938,200.6666717529297,186,178.6666717529297,166,161.33334350585938,158.6666717529297,156.6666717529297,155.33334350585938,152,148,146,140.6666717529297,138,130.6666717529297,128,122,119.33333587646484,113.33333587646484],"ymouse":[829.3333740234375,829.3333740234375,829.3333740234375,829.3333740234375,829.3333740234375,829.3333740234375,829.3333740234375,829.3333740234375,829.3333740234375,831.3333740234375,831.3333740234375,831.3333740234375,831.3333740234375,831.3333740234375,831.3333740234375,831.3333740234375,831.3333740234375,831.3333740234375,831.3333740234375,830,830,830,830,830,830,830,830,830,830,823.3333740234375,823.3333740234375,823.3333740234375,823.3333740234375,823.3333740234375,815.3333740234375,814,802,752,752,682.6666870117188,657.3333740234375,600,570.6666870117188,510.66668701171875,426.66668701171875,396.66668701171875,342.66668701171875,318,272.66668701171875,251.33334350585938,203.33334350585938,183.33334350585938,174.6666717529297,165.33334350585938,160.6666717529297,150,143.33334350585938,140,132.6666717529297,128.6666717529297,118,114.66667175292969,106,101.33333587646484,92],"timestamp_mouse":[9,36,48,68,88,108,138,148,168,188,209,229,248,268,288,308,328,348,369,388,408,428,448,468,489,509,529,548,568,590,608,628,648,669,688,708,729,757,768,790,808,828,848,868,889,908,929,948,968,988,1008,1028,1048,1068,1088,1109,1128,1148,1168,1189,1209,1228,1249,1268,1288],"xSR":350,"ySR":768,"xT1":30,"yT1":0,"xT2":670,"yT2":0,"toosoon":0,"cond_shown":"Incongruent","ratio_trial":300,"L_num":4,"L_den":20,"R_num":2,"R_den":4,"correct_side":2,"subjID":"46wm","gender":"No_gender","school":"No_school","age":"No_age"},{"start_time":1549381543379,"click_time":1549381544328,"finger_time":1549381543967,"fix_duration":1310.1588607670626,"trial":10,"RT":588,"MT":361,"sideResp":2,"stimulus":[],"xmouse":[400.66668701171875,400.66668701171875,400.66668701171875,400.66668701171875,400.66668701171875,400.66668701171875,400.66668701171875,400.66668701171875,400.66668701171875,400.66668701171875,400.66668701171875,400.66668701171875,400,400,400,400,400,400,400,400,400,400,400.66668701171875,400.66668701171875,400.66668701171875,402,402.66668701171875,405.3333435058594,407.3333435058594,417.3333435058594,428.66668701171875,435.3333435058594,453.3333435058594,462.66668701171875,482,508.66668701171875,516.6666870117188,532.6666870117188,542.6666870117188,561.3333740234375,596,608.6666870117188,635.3333740234375,648.6666870117188,671.3333740234375,694.6666870117188,701.3333740234375],"ymouse":[830,830,830,830,830,830,830,830,830,830,830,830,829.3333740234375,829.3333740234375,829.3333740234375,829.3333740234375,829.3333740234375,829.3333740234375,829.3333740234375,829.3333740234375,829.3333740234375,829.3333740234375,826,826,826,800.6666870117188,792,771.3333740234375,756.6666870117188,704.6666870117188,668.6666870117188,648,600.6666870117188,574,518,430.66668701171875,406.66668701171875,353.3333435058594,326,276,214.6666717529297,198,167.33334350585938,153.33334350585938,130,105.33333587646484,98.66667175292969],"timestamp_mouse":[29,48,68,88,108,128,148,169,188,208,228,248,268,288,308,328,349,368,388,409,429,448,468,488,508,528,548,568,588,610,628,649,668,688,708,728,748,768,788,808,829,848,868,888,908,928,948],"xSR":350,"ySR":768,"xT1":30,"yT1":0,"xT2":670,"yT2":0,"toosoon":0,"cond_shown":"Incongruent","ratio_trial":100,"L_num":12,"L_den":30,"R_num":2,"R_den":4,"correct_side":2,"subjID":"46wm","gender":"No_gender","school":"No_school","age":"No_age"},{"start_time":1549381546260,"click_time":1549381547429,"finger_time":1549381547109,"fix_duration":849.6546617130492,"trial":11,"RT":849,"MT":320,"sideResp":1,"stimulus":[],"xmouse":[391.3333435058594,391.3333435058594,391.3333435058594,391.3333435058594,391.3333435058594,391.3333435058594,391.3333435058594,391.3333435058594,391.3333435058594,391.3333435058594,391.3333435058594,391.3333435058594,391.3333435058594,391.3333435058594,391.3333435058594,391.3333435058594,391.3333435058594,391.3333435058594,391.3333435058594,391.3333435058594,391.3333435058594,391.3333435058594,391.3333435058594,391.3333435058594,391.3333435058594,391.3333435058594,391.3333435058594,391.3333435058594,391.3333435058594,391.3333435058594,391.3333435058594,391.3333435058594,391.3333435058594,391.3333435058594,390,390,389.3333435058594,389.3333435058594,389.3333435058594,389.3333435058594,389.3333435058594,389.3333435058594,343.3333435058594,320.66668701171875,307.3333435058594,277.3333435058594,261.3333435058594,229.33334350585938,186.6666717529297,171.33334350585938,158.6666717529297,135.33334350585938,105.33333587646484,96.66667175292969,82,75.33333587646484,60,54.66666793823242,42],"ymouse":[834,834,834,834,834,834,834,834,834,834,834,834,834,834,834,834,834,833.3333740234375,833.3333740234375,833.3333740234375,833.3333740234375,833.3333740234375,833.3333740234375,833.3333740234375,832.6666870117188,832.6666870117188,832.6666870117188,832.6666870117188,832.6666870117188,832.6666870117188,832.6666870117188,832.6666870117188,832.6666870117188,832.6666870117188,830.6666870117188,830.6666870117188,829.3333740234375,829.3333740234375,829.3333740234375,829.3333740234375,829.3333740234375,829.3333740234375,743.3333740234375,698,672.6666870117188,616,585.3333740234375,521.3333740234375,429.3333435058594,396,368,308.66668701171875,226.6666717529297,204,168,152.6666717529297,128,116.66667175292969,88.66667175292969],"timestamp_mouse":[7,28,47,67,87,108,127,147,167,187,207,227,247,267,288,307,327,347,368,387,407,427,447,467,487,507,527,547,567,587,607,627,647,667,688,707,727,747,768,787,807,828,849,867,887,908,927,947,968,987,1007,1027,1050,1068,1087,1108,1128,1148,1169],"xSR":350,"ySR":768,"xT1":30,"yT1":0,"xT2":670,"yT2":0,"toosoon":0,"cond_shown":"Congruent","ratio_trial":200,"L_num":12,"L_den":15,"R_num":6,"R_den":10,"correct_side":1,"subjID":"46wm","gender":"No_gender","school":"No_school","age":"No_age"},{"start_time":1549381548803,"click_time":1549381550048,"finger_time":1549381549748,"fix_duration":250,"trial":12,"RT":945,"MT":300,"sideResp":2,"stimulus":[],"xmouse":[382,383.3333435058594,383.3333435058594,383.3333435058594,383.3333435058594,383.3333435058594,383.3333435058594,383.3333435058594,383.3333435058594,383.3333435058594,383.3333435058594,384,384,384,384,384,384,384,384,384,384,384,384,384,384,384,384,384,384,384,384,384,384,384,384,384,384,384,384,384,384,384.66668701171875,384.66668701171875,384.66668701171875,384.66668701171875,384.66668701171875,384.66668701171875,412.66668701171875,427.3333435058594,435.3333435058594,450,473.3333435058594,482.66668701171875,498,508,529.3333740234375,542,586.6666870117188,620.6666870117188,638.6666870117188,670.6666870117188,684.6666870117188,715.3333740234375],"ymouse":[809.3333740234375,809.3333740234375,809.3333740234375,809.3333740234375,809.3333740234375,809.3333740234375,809.3333740234375,809.3333740234375,809.3333740234375,809.3333740234375,809.3333740234375,806.6666870117188,806.6666870117188,806.6666870117188,806.6666870117188,806.6666870117188,806.6666870117188,806.6666870117188,806.6666870117188,806.6666870117188,806.6666870117188,807.3333740234375,807.3333740234375,807.3333740234375,807.3333740234375,807.3333740234375,807.3333740234375,807.3333740234375,807.3333740234375,807.3333740234375,807.3333740234375,808,808,808,808,808,808,808,808,806,806,804,804,804,804,804,804,694.6666870117188,652.6666870117188,630,583.3333740234375,508.66668701171875,482,426.66668701171875,394,330.66668701171875,300,216,169.33334350585938,148.6666717529297,115.33334350585938,102.66667175292969,74.66667175292969],"timestamp_mouse":[15,38,44,64,84,104,125,144,164,184,204,224,244,264,284,304,324,344,364,384,405,424,444,464,484,504,524,544,564,584,604,626,644,664,685,705,725,744,765,784,804,825,844,864,884,904,924,944,964,984,1004,1026,1044,1064,1084,1104,1125,1144,1165,1184,1204,1224,1245],"xSR":350,"ySR":768,"xT1":30,"yT1":0,"xT2":670,"yT2":0,"toosoon":0,"cond_shown":"Congruent","ratio_trial":200,"L_num":3,"L_den":6,"R_num":14,"R_den":20,"correct_side":2,"subjID":"46wm","gender":"No_gender","school":"No_school","age":"No_age"},{"start_time":1549381552363,"click_time":1549381553347,"finger_time":1549381552968,"fix_duration":794.0991075852867,"trial":13,"RT":605,"MT":379,"sideResp":1,"stimulus":[],"xmouse":[373.3333435058594,373.3333435058594,373.3333435058594,375.3333435058594,375.3333435058594,375.3333435058594,375.3333435058594,375.3333435058594,375.3333435058594,375.3333435058594,375.3333435058594,375.3333435058594,375.3333435058594,377.3333435058594,377.3333435058594,377.3333435058594,377.3333435058594,377.3333435058594,377.3333435058594,377.3333435058594,377.3333435058594,377.3333435058594,377.3333435058594,372.66668701171875,372.66668701171875,372.66668701171875,372.66668701171875,372.66668701171875,372.66668701171875,372.66668701171875,351.3333435058594,344.66668701171875,326.66668701171875,317.3333435058594,296,276,255.33334350585938,244.6666717529297,223.33334350585938,212.6666717529297,178,154.6666717529297,143.33334350585938,123.33334350585938,114,88.66667175292969,72.66667175292969,63.333335876464844,47.333335876464844,38.66666793823242],"ymouse":[846.6666870117188,846.6666870117188,846.6666870117188,846.6666870117188,846.6666870117188,846.6666870117188,846.6666870117188,846.6666870117188,846.6666870117188,846.6666870117188,846.6666870117188,846.6666870117188,846.6666870117188,847.3333740234375,847.3333740234375,847.3333740234375,847.3333740234375,847.3333740234375,847.3333740234375,847.3333740234375,847.3333740234375,847.3333740234375,847.3333740234375,798.6666870117188,798.6666870117188,798.6666870117188,798.6666870117188,798.6666870117188,798.6666870117188,798.6666870117188,601.3333740234375,586,551.3333740234375,532.6666870117188,493.3333435058594,451.3333435058594,412,391.3333435058594,353.3333435058594,336,286.66668701171875,256,241.33334350585938,211.33334350585938,196.6666717529297,156,131.33334350585938,120,101.33333587646484,92.66667175292969],"timestamp_mouse":[9,34,44,64,85,104,124,144,164,185,204,224,244,264,285,304,324,344,365,384,404,424,444,464,484,505,524,544,565,584,605,624,645,664,684,706,725,744,764,784,804,824,844,864,884,908,925,944,965,984],"xSR":350,"ySR":768,"xT1":30,"yT1":0,"xT2":670,"yT2":0,"toosoon":0,"cond_shown":"Incongruent","ratio_trial":300,"L_num":2,"L_den":4,"R_num":6,"R_den":30,"correct_side":1,"subjID":"46wm","gender":"No_gender","school":"No_school","age":"No_age"},{"start_time":1549381555747,"click_time":1549381558228,"finger_time":1549381557807,"fix_duration":918.1793566252652,"trial":14,"RT":2060,"MT":421,"sideResp":1,"stimulus":[],"xmouse":[373,373,373,373,373,373,373,373,373,373,373,373,373,373,373,373,373,373,373,373,373,373,373,373,378,378,378,378,378,378,378,378,377.3333435058594,377.3333435058594,378,378.66668701171875,378.66668701171875,380,380.66668701171875,381.3333435058594,382.66668701171875,383.3333435058594,384.66668701171875,384.66668701171875,384.66668701171875,384.66668701171875,384.66668701171875,385.3333435058594,386,386,385.3333435058594,385.3333435058594,384,383.3333435058594,383.3333435058594,383.3333435058594,384,384,384,384.66668701171875,384.66668701171875,384.66668701171875,384.66668701171875,384.66668701171875,384.66668701171875,385.3333435058594,385.3333435058594,385.3333435058594,386,386,386,386,386,386,386,386,386,386.66668701171875,386.66668701171875,386.66668701171875,386.66668701171875,386.66668701171875,386.66668701171875,386.66668701171875,386.66668701171875,386.66668701171875,387.3333435058594,387.3333435058594,386.66668701171875,386.66668701171875,386.66668701171875,386.66668701171875,387.3333435058594,387.3333435058594,387.3333435058594,387.3333435058594,387.3333435058594,387.3333435058594,387.3333435058594,386,384.66668701171875,383.3333435058594,374.66668701171875,364.66668701171875,361.3333435058594,356.66668701171875,354,346,330,318.66668701171875,290,260,234.6666717529297,225.33334350585938,212.6666717529297,204,200.6666717529297,190.6666717529297,170,163.33334350585938,155.33334350585938,152.6666717529297,146.6666717529297,133.33334350585938,128],"ymouse":[818,818,818,818,818,818,818,818,818,818,818,818,818,818,818,818,818,818,818,818,818,818,818,818,812,811.3333740234375,811.3333740234375,811.3333740234375,811.3333740234375,811.3333740234375,811.3333740234375,811.3333740234375,819.3333740234375,820.6666870117188,822.6666870117188,823.3333740234375,824,824.6666870117188,824.6666870117188,824.6666870117188,824.6666870117188,824.6666870117188,824.6666870117188,824.6666870117188,824.6666870117188,824.6666870117188,824.6666870117188,825.3333740234375,826.6666870117188,826.6666870117188,827.3333740234375,827.3333740234375,827.3333740234375,826.6666870117188,826.6666870117188,826.6666870117188,826.6666870117188,826.6666870117188,826.6666870117188,828.6666870117188,828.6666870117188,828.6666870117188,828.6666870117188,828.6666870117188,828.6666870117188,829.3333740234375,829.3333740234375,829.3333740234375,830,830,830.6666870117188,830.6666870117188,831.3333740234375,832,832,832.6666870117188,832.6666870117188,833.3333740234375,833.3333740234375,833.3333740234375,833.3333740234375,832.6666870117188,832.6666870117188,832.6666870117188,832.6666870117188,832.6666870117188,832.6666870117188,832.6666870117188,832,832,832,832,830,830,830,830,830,830,830,818.6666870117188,814,810,773.3333740234375,726.6666870117188,712,696,690,668.6666870117188,628.6666870117188,601.3333740234375,547.3333740234375,490.66668701171875,430,400,340,279.3333435058594,256,208.6666717529297,160.6666717529297,148.6666717529297,126.66667175292969,118,96,71.33333587646484,64],"timestamp_mouse":[5,20,40,61,80,100,121,140,160,180,200,220,240,260,280,300,321,340,360,380,400,420,440,460,480,500,522,540,561,580,600,620,640,660,680,700,721,740,761,781,801,820,840,860,880,900,920,940,960,980,1000,1020,1040,1061,1080,1100,1120,1140,1160,1194,1200,1220,1240,1260,1280,1300,1321,1340,1360,1380,1400,1420,1442,1460,1480,1500,1520,1540,1561,1580,1600,1620,1640,1660,1680,1700,1720,1741,1760,1780,1812,1820,1840,1860,1881,1901,1920,1940,1960,1980,2000,2020,2042,2060,2081,2100,2120,2143,2161,2180,2200,2221,2241,2260,2280,2300,2321,2340,2361,2380,2400,2420,2440,2463,2480],"xSR":350,"ySR":768,"xT1":30,"yT1":0,"xT2":670,"yT2":0,"toosoon":0,"cond_shown":"Incongruent","ratio_trial":100,"L_num":6,"L_den":10,"R_num":13,"R_den":26,"correct_side":1,"subjID":"46wm","gender":"No_gender","school":"No_school","age":"No_age"},{"start_time":1549381559699,"click_time":1549381562068,"finger_time":1549381560888,"fix_duration":250,"trial":15,"RT":1189,"MT":1180,"sideResp":2,"stimulus":[],"xmouse":[390.66668701171875,390.66668701171875,390.66668701171875,390.66668701171875,390.66668701171875,390.66668701171875,390.66668701171875,390.66668701171875,390.66668701171875,388,388,388,388,388,388,388,388,388,388,387.3333435058594,387.3333435058594,387.3333435058594,387.3333435058594,387.3333435058594,387.3333435058594,387.3333435058594,387.3333435058594,387.3333435058594,387.3333435058594,385.3333435058594,385.3333435058594,385.3333435058594,385.3333435058594,385.3333435058594,385.3333435058594,385.3333435058594,385.3333435058594,385.3333435058594,385.3333435058594,384,384,384,384,384,384,384.66668701171875,384.66668701171875,385.3333435058594,386.66668701171875,388.66668701171875,389.3333435058594,390.66668701171875,390.66668701171875,390.66668701171875,390.66668701171875,390.66668701171875,390.66668701171875,398,407.3333435058594,412.66668701171875,439.3333435058594,452.66668701171875,490,510.66668701171875,548,596,610.6666870117188,637.3333740234375,647.3333740234375,660.6666870117188,665.3333740234375,666,668,672.6666870117188,684,695.3333740234375,698.6666870117188,703.3333740234375,704.6666870117188,706.6666870117188,707.3333740234375,707.3333740234375,706.6666870117188,706.6666870117188,706.6666870117188,705.3333740234375,705.3333740234375,705.3333740234375,705.3333740234375,705.3333740234375,705.3333740234375,705.3333740234375,705.3333740234375,712.6666870117188,712.6666870117188,712.6666870117188,694.6666870117188,694.6666870117188,694.6666870117188,694.6666870117188,694.6666870117188,694.6666870117188,694.6666870117188,694.6666870117188,694.6666870117188,694.6666870117188,694.6666870117188,694.6666870117188,694.6666870117188,694.6666870117188,694.6666870117188,694.6666870117188,694.6666870117188,694.6666870117188,694.6666870117188,694.6666870117188,694.6666870117188,700],"ymouse":[824.6666870117188,824.6666870117188,824.6666870117188,824.6666870117188,824.6666870117188,824.6666870117188,824.6666870117188,824.6666870117188,824.6666870117188,826.6666870117188,826.6666870117188,826.6666870117188,826.6666870117188,826.6666870117188,826.6666870117188,826.6666870117188,826.6666870117188,826.6666870117188,826.6666870117188,828,828,828,828,828,828,828,828,828,828,830.6666870117188,830.6666870117188,830.6666870117188,830.6666870117188,830.6666870117188,830.6666870117188,830.6666870117188,830.6666870117188,830.6666870117188,830.6666870117188,833.3333740234375,834,835.3333740234375,836,836.6666870117188,839.3333740234375,840,842.6666870117188,844,846.6666870117188,848.6666870117188,848,846.6666870117188,846.6666870117188,846.6666870117188,846.6666870117188,846.6666870117188,846.6666870117188,777.3333740234375,722.6666870117188,696.6666870117188,606,569.3333740234375,483.3333435058594,442.66668701171875,374.66668701171875,298.66668701171875,274,234.6666717529297,218,192,178.6666717529297,175.33334350585938,168,160.6666717529297,144,128.6666717529297,124,118.66667175292969,116.66667175292969,114.66667175292969,112.66667175292969,112,108.66667175292969,107.33333587646484,107.33333587646484,101.33333587646484,101.33333587646484,101.33333587646484,101.33333587646484,101.33333587646484,101.33333587646484,101.33333587646484,101.33333587646484,100.66667175292969,100.66667175292969,100.66667175292969,139.33334350585938,139.33334350585938,139.33334350585938,139.33334350585938,139.33334350585938,139.33334350585938,139.33334350585938,139.33334350585938,139.33334350585938,139.33334350585938,139.33334350585938,139.33334350585938,139.33334350585938,139.33334350585938,139.33334350585938,139.33334350585938,139.33334350585938,139.33334350585938,139.33334350585938,139.33334350585938,139.33334350585938,92.66667175292969],"timestamp_mouse":[28,48,68,88,108,129,148,168,188,208,228,248,268,288,310,328,348,368,388,414,430,448,468,488,508,528,548,568,589,609,628,648,668,688,709,729,748,769,788,809,828,848,868,888,911,928,948,968,989,1010,1029,1048,1068,1089,1108,1128,1149,1168,1188,1208,1229,1249,1268,1288,1309,1328,1348,1369,1388,1408,1428,1448,1468,1489,1509,1529,1548,1568,1588,1608,1629,1648,1668,1688,1709,1729,1748,1768,1788,1808,1830,1848,1869,1888,1908,1929,1948,1968,1988,2008,2028,2048,2068,2088,2108,2128,2148,2168,2189,2209,2228,2248,2268,2288,2308,2329,2348,2369],"xSR":350,"ySR":768,"xT1":30,"yT1":0,"xT2":670,"yT2":0,"toosoon":0,"cond_shown":"Congruent","ratio_trial":100,"L_num":4,"L_den":8,"R_num":6,"R_den":10,"correct_side":2,"subjID":"46wm","gender":"No_gender","school":"No_school","age":"No_age"},{"start_time":1549381564330,"click_time":1549381565967,"finger_time":1549381565767,"fix_duration":1022.2107397988306,"trial":16,"RT":1437,"MT":200,"sideResp":2,"stimulus":[],"xmouse":[374.66668701171875,374,374,374,374,374,374,374,373.3333435058594,373.3333435058594,373.3333435058594,373.3333435058594,373.3333435058594,373.3333435058594,372.66668701171875,372.66668701171875,372.66668701171875,372.66668701171875,372.66668701171875,372.66668701171875,372,372,372,372,372,371.3333435058594,371.3333435058594,371.3333435058594,371.3333435058594,371.3333435058594,371.3333435058594,371.3333435058594,371.3333435058594,371.3333435058594,370.66668701171875,370.66668701171875,370.66668701171875,370.66668701171875,370.66668701171875,370.66668701171875,370.66668701171875,370.66668701171875,370.66668701171875,370,370,370,370,370,370,369.3333435058594,369.3333435058594,369.3333435058594,369.3333435058594,369.3333435058594,369.3333435058594,369.3333435058594,369.3333435058594,368.66668701171875,368.66668701171875,368.66668701171875,368.66668701171875,368,368,368,368,368,368,368,368.66668701171875,368.66668701171875,368.66668701171875,408,420,448.66668701171875,466,533.3333740234375,580.6666870117188,602.6666870117188,640,658.6666870117188,704.6666870117188,732],"ymouse":[823.3333740234375,823.3333740234375,822.6666870117188,822.6666870117188,822.6666870117188,822.6666870117188,822.6666870117188,822.6666870117188,822.6666870117188,822,822,822,822,822,822,822,822,821.3333740234375,821.3333740234375,821.3333740234375,821.3333740234375,821.3333740234375,821.3333740234375,821.3333740234375,821.3333740234375,821.3333740234375,820.6666870117188,820.6666870117188,820.6666870117188,820,820,820,820,820,820,820,820,820,820,820,820,819.3333740234375,819.3333740234375,819.3333740234375,819.3333740234375,819.3333740234375,819.3333740234375,819.3333740234375,819.3333740234375,819.3333740234375,819.3333740234375,819.3333740234375,819.3333740234375,819.3333740234375,819.3333740234375,819.3333740234375,819.3333740234375,819.3333740234375,819.3333740234375,819.3333740234375,818.6666870117188,818.6666870117188,818.6666870117188,818.6666870117188,818,818,816.6666870117188,815.3333740234375,812.6666870117188,812.6666870117188,812.6666870117188,692,653.3333740234375,576.6666870117188,536,411.3333435058594,332.66668701171875,296.66668701171875,233.33334350585938,202,130,90.66667175292969],"timestamp_mouse":[27,37,57,77,97,117,137,157,178,197,217,237,257,277,297,317,337,357,377,397,418,438,457,477,498,517,537,557,577,597,617,637,657,677,698,717,737,757,777,797,817,838,857,877,897,917,938,957,978,997,1017,1037,1057,1077,1097,1117,1137,1157,1178,1197,1217,1237,1257,1277,1298,1317,1337,1357,1378,1397,1417,1437,1457,1477,1497,1519,1537,1558,1577,1597,1618,1637],"xSR":350,"ySR":768,"xT1":30,"yT1":0,"xT2":670,"yT2":0,"toosoon":0,"cond_shown":"Congruent","ratio_trial":200,"L_num":3,"L_den":12,"R_num":9,"R_den":20,"correct_side":2,"subjID":"46wm","gender":"No_gender","school":"No_school","age":"No_age"},{"start_time":1549381568560,"click_time":1549381570068,"finger_time":1549381569488,"fix_duration":250,"trial":17,"RT":928,"MT":580,"sideResp":1,"stimulus":[],"xmouse":[397.3333435058594,397.3333435058594,397.3333435058594,397.3333435058594,397.3333435058594,397.3333435058594,397.3333435058594,397.3333435058594,397.3333435058594,397.3333435058594,397.3333435058594,397.3333435058594,397.3333435058594,397.3333435058594,397.3333435058594,397.3333435058594,397.3333435058594,397.3333435058594,397.3333435058594,397.3333435058594,397.3333435058594,397.3333435058594,397.3333435058594,397.3333435058594,397.3333435058594,397.3333435058594,397.3333435058594,397.3333435058594,397.3333435058594,397.3333435058594,397.3333435058594,397.3333435058594,397.3333435058594,397.3333435058594,397.3333435058594,397.3333435058594,397.3333435058594,397.3333435058594,397.3333435058594,397.3333435058594,397.3333435058594,396,395.3333435058594,395.3333435058594,395.3333435058594,358.66668701171875,347.3333435058594,323.3333435058594,308.66668701171875,276,226,208.6666717529297,178.6666717529297,162,134.6666717529297,103.33333587646484,94.66667175292969,84.66667175292969,82,78.66667175292969,80,80,80,80,80,80,80,80,80,82,82,83.33333587646484,83.33333587646484,83.33333587646484,82],"ymouse":[836.6666870117188,836.6666870117188,836.6666870117188,836.6666870117188,836.6666870117188,836.6666870117188,836.6666870117188,836.6666870117188,836.6666870117188,836.6666870117188,836.6666870117188,836.6666870117188,836.6666870117188,836.6666870117188,836.6666870117188,836.6666870117188,836.6666870117188,836.6666870117188,836.6666870117188,836.6666870117188,836.6666870117188,836.6666870117188,836.6666870117188,836.6666870117188,836.6666870117188,836.6666870117188,836.6666870117188,836.6666870117188,836.6666870117188,836.6666870117188,836.6666870117188,836.6666870117188,836.6666870117188,836.6666870117188,836.6666870117188,836.6666870117188,836.6666870117188,836.6666870117188,836.6666870117188,836.6666870117188,836.6666870117188,833.3333740234375,831.3333740234375,831.3333740234375,831.3333740234375,754.6666870117188,729.3333740234375,675.3333740234375,645.3333740234375,572,447.3333435058594,408,338,302.66668701171875,244,173.33334350585938,156,130,124,116,106.66667175292969,106.66667175292969,106.66667175292969,101.33333587646484,101.33333587646484,101.33333587646484,101.33333587646484,101.33333587646484,101.33333587646484,100.66667175292969,100.66667175292969,101.33333587646484,101.33333587646484,101.33333587646484,98],"timestamp_mouse":[15,47,67,87,107,127,147,167,187,207,227,247,267,287,307,328,347,367,387,407,427,447,467,487,507,527,547,567,587,607,628,647,667,687,707,727,747,767,788,807,827,847,867,887,908,928,947,967,987,1007,1027,1047,1067,1087,1107,1127,1147,1167,1187,1207,1231,1247,1267,1287,1308,1327,1347,1367,1388,1407,1427,1448,1467,1487,1507],"xSR":350,"ySR":768,"xT1":30,"yT1":0,"xT2":670,"yT2":0,"toosoon":0,"cond_shown":"Congruent","ratio_trial":300,"L_num":20,"L_den":25,"R_num":9,"R_den":18,"correct_side":1,"subjID":"46wm","gender":"No_gender","school":"No_school","age":"No_age"},{"start_time":1549381572136,"click_time":1549381573610,"finger_time":1549381573108,"fix_duration":467.0421500815982,"trial":18,"RT":972,"MT":502,"sideResp":2,"stimulus":[],"xmouse":[420.66668701171875,420.66668701171875,420.66668701171875,420.66668701171875,420.66668701171875,420.66668701171875,420.66668701171875,420.66668701171875,415.3333435058594,415.3333435058594,415.3333435058594,415.3333435058594,413.3333435058594,413.3333435058594,413.3333435058594,413.3333435058594,413.3333435058594,412.66668701171875,412,412,412,412,412,412,412,412,412,412,412,412,412,411.3333435058594,411.3333435058594,411.3333435058594,411.3333435058594,412,412,412,412,412,412,412,412,412,412,410.66668701171875,412.66668701171875,412.66668701171875,480,500.66668701171875,536,554,588,642,656.6666870117188,684,695.3333740234375,712,720.6666870117188,722,723.3333740234375,725.3333740234375,726.6666870117188,727.3333740234375,726.6666870117188,726,726,726,724.6666870117188,725.3333740234375,725.3333740234375,725.3333740234375,725.3333740234375,737.3333740234375],"ymouse":[830.6666870117188,830.6666870117188,830.6666870117188,830.6666870117188,830.6666870117188,830.6666870117188,830.6666870117188,830.6666870117188,830,830,830,830,828.6666870117188,828.6666870117188,828,828,828,828,828,828,828,827.3333740234375,827.3333740234375,827.3333740234375,826.6666870117188,826.6666870117188,826.6666870117188,826,826,826,826,826,826,826,826,826,826,826,826,826,826,826,826,826,826,827.3333740234375,821.3333740234375,821.3333740234375,652,607.3333740234375,533.3333740234375,498,432,338,315.3333435058594,274,254.66668701171875,224,192.6666717529297,186.6666717529297,181.33334350585938,170.6666717529297,164.6666717529297,153.33334350585938,140.6666717529297,133.33334350585938,133.33334350585938,133.33334350585938,113.33334350585938,104.66667175292969,104.66667175292969,104.66667175292969,104.66667175292969,71.33333587646484],"timestamp_mouse":[11,37,51,71,92,111,132,152,171,191,211,231,253,272,291,311,331,352,371,391,411,431,451,471,491,511,531,551,571,592,611,632,651,671,691,711,731,751,771,792,811,831,851,871,891,911,931,951,971,991,1011,1031,1051,1072,1091,1111,1131,1151,1173,1191,1211,1231,1252,1271,1293,1311,1332,1351,1374,1391,1411,1431,1452,1473],"xSR":350,"ySR":768,"xT1":30,"yT1":0,"xT2":670,"yT2":0,"toosoon":0,"cond_shown":"Incongruent","ratio_trial":300,"L_num":13,"L_den":26,"R_num":12,"R_den":15,"correct_side":2,"subjID":"46wm","gender":"No_gender","school":"No_school","age":"No_age"},{"start_time":1549381575399,"click_time":1549381577130,"finger_time":1549381576028,"fix_duration":250,"trial":19,"RT":629,"MT":1102,"sideResp":2,"stimulus":[],"xmouse":[417.3333435058594,417.3333435058594,417.3333435058594,417.3333435058594,417.3333435058594,416,416,416,416,416,416,416,416,416,416,415.3333435058594,415.3333435058594,415.3333435058594,415.3333435058594,415.3333435058594,415.3333435058594,415.3333435058594,415.3333435058594,415.3333435058594,415.3333435058594,415.3333435058594,415.3333435058594,415.3333435058594,415.3333435058594,415.3333435058594,436,448,455.3333435058594,469.3333435058594,476,488.66668701171875,490.66668701171875,490.66668701171875,488.66668701171875,488.66668701171875,488.66668701171875,469.3333435058594,464,450.66668701171875,441.3333435058594,411.3333435058594,389.3333435058594,378,355.3333435058594,343.3333435058594,309.3333435058594,285.3333435058594,272,258.66668701171875,233.33334350585938,204,196,187.33334350585938,183.33334350585938,176.6666717529297,169.33334350585938,166.6666717529297,162,160,156,154,149.33334350585938,146.6666717529297,146,144,143.33334350585938,143.33334350585938,144,144,144,144,144,144,144,144,144,481.3333435058594,515.3333740234375,577.3333740234375,605.3333740234375,674],"ymouse":[828,828,828,828,828,826,826,826,826,826,826,826,826,826,826,826.6666870117188,826.6666870117188,826.6666870117188,826.6666870117188,826.6666870117188,826.6666870117188,826.6666870117188,826.6666870117188,826.6666870117188,826.6666870117188,812.6666870117188,812.6666870117188,812.6666870117188,812.6666870117188,812.6666870117188,658,621.3333740234375,602.6666870117188,566.6666870117188,549.3333740234375,505.3333740234375,480.66668701171875,468.66668701171875,446,446,446,375.3333435058594,360,325.3333435058594,305.3333435058594,246,207.33334350585938,190,158,145.33334350585938,120,108.66667175292969,104,99.33333587646484,89.33333587646484,75.33333587646484,69.33333587646484,62,59.333335876464844,52,40.66666793823242,37.333335876464844,32,30.666667938232422,28,27.333335876464844,26,26,26,26,26,26,26,26,26,26,26,26,26,26,26,50,55.333335876464844,67.33333587646484,70.66667175292969,78],"timestamp_mouse":[29,48,68,89,110,129,148,169,188,209,228,248,269,288,308,328,348,368,388,409,428,448,468,488,509,528,549,568,588,608,629,648,668,688,708,728,748,768,788,809,828,848,868,888,908,928,948,968,988,1009,1029,1048,1068,1088,1108,1129,1148,1168,1189,1208,1230,1248,1268,1289,1308,1328,1349,1368,1388,1408,1428,1451,1468,1489,1508,1528,1548,1568,1589,1608,1628,1648,1668,1688,1708,1730],"xSR":350,"ySR":768,"xT1":30,"yT1":0,"xT2":670,"yT2":0,"toosoon":0,"cond_shown":"Congruent","ratio_trial":300,"L_num":5,"L_den":25,"R_num":6,"R_den":12,"correct_side":2,"subjID":"46wm","gender":"No_gender","school":"No_school","age":"No_age"},{"start_time":1549381579228,"click_time":1549381580327,"finger_time":1549381580027,"fix_duration":479.49822748610717,"trial":20,"RT":799,"MT":300,"sideResp":2,"stimulus":[],"xmouse":[402.66668701171875,402.66668701171875,402.66668701171875,402.66668701171875,402.66668701171875,402,402,402,402,402,402,402,402,402,402,401.3333435058594,401.3333435058594,401.3333435058594,401.3333435058594,401.3333435058594,401.3333435058594,401.3333435058594,401.3333435058594,401.3333435058594,401.3333435058594,401.3333435058594,401.3333435058594,401.3333435058594,401.3333435058594,401.3333435058594,401.3333435058594,401.3333435058594,401.3333435058594,401.3333435058594,401.3333435058594,402.66668701171875,402.66668701171875,402.66668701171875,402.66668701171875,402.66668701171875,436.66668701171875,457.3333435058594,464,482.66668701171875,492.66668701171875,514.6666870117188,525.3333740234375,557.3333740234375,578,589.3333740234375,600.6666870117188,623.3333740234375,658.6666870117188,668.6666870117188,687.3333740234375,704.6666870117188],"ymouse":[820.6666870117188,820.6666870117188,820.6666870117188,820.6666870117188,820.6666870117188,820.6666870117188,820.6666870117188,820.6666870117188,820.6666870117188,820.6666870117188,820.6666870117188,820.6666870117188,820.6666870117188,820.6666870117188,820.6666870117188,819.3333740234375,819.3333740234375,819.3333740234375,819.3333740234375,819.3333740234375,819.3333740234375,819.3333740234375,819.3333740234375,819.3333740234375,819.3333740234375,819.3333740234375,819.3333740234375,819.3333740234375,819.3333740234375,819.3333740234375,819.3333740234375,819.3333740234375,819.3333740234375,819.3333740234375,819.3333740234375,810.6666870117188,810.6666870117188,810.6666870117188,810.6666870117188,810.6666870117188,713.3333740234375,660.6666870117188,640,593.3333740234375,566,510.66668701171875,485.3333435058594,398,340.66668701171875,312.66668701171875,284,230.6666717529297,160,140,106,79.33333587646484],"timestamp_mouse":[6,33,39,59,79,99,119,139,159,180,199,219,239,260,280,299,319,339,359,379,399,419,439,460,479,499,519,539,559,579,600,620,639,659,679,699,721,740,759,779,799,821,840,860,880,899,920,939,959,979,999,1019,1039,1059,1079,1099],"xSR":350,"ySR":768,"xT1":30,"yT1":0,"xT2":670,"yT2":0,"toosoon":0,"cond_shown":"Incongruent","ratio_trial":500,"L_num":7,"L_den":21,"R_num":5,"R_den":6,"correct_side":2,"subjID":"46wm","gender":"No_gender","school":"No_school","age":"No_age"},{"start_time":1549381582868,"click_time":1549381583771,"finger_time":1549381583569,"fix_duration":1098.9733655040234,"trial":21,"RT":701,"MT":202,"sideResp":2,"stimulus":[],"xmouse":[402,402,402,402,402,402,402,402,402,402,402,401.3333435058594,401.3333435058594,401.3333435058594,401.3333435058594,401.3333435058594,401.3333435058594,401.3333435058594,401.3333435058594,401.3333435058594,401.3333435058594,401.3333435058594,401.3333435058594,401.3333435058594,401.3333435058594,401.3333435058594,401.3333435058594,401.3333435058594,401.3333435058594,401.3333435058594,401.3333435058594,401.3333435058594,401.3333435058594,401.3333435058594,401.3333435058594,434,459.3333435058594,472.66668701171875,503.3333435058594,523.3333740234375,567.3333740234375,636.6666870117188,660.6666870117188,696.6666870117188,710,732.6666870117188],"ymouse":[826.6666870117188,826,826,826,826,826,826,826,826,826,826,826,826,826,826,826,826,826,826,826,826,824.6666870117188,824.6666870117188,824.6666870117188,824.6666870117188,824.6666870117188,824.6666870117188,824.6666870117188,824.6666870117188,824.6666870117188,824.6666870117188,818.6666870117188,818.6666870117188,818.6666870117188,818.6666870117188,703.3333740234375,631.3333740234375,595.3333740234375,516.6666870117188,474,387.3333435058594,268,227.33334350585938,160,132.6666717529297,71.33333587646484],"timestamp_mouse":[4,20,40,59,79,99,119,139,160,179,199,219,239,259,280,299,319,339,359,379,401,419,439,459,479,499,519,540,559,579,600,623,640,659,679,701,720,739,760,780,799,819,840,859,879,903],"xSR":350,"ySR":768,"xT1":30,"yT1":0,"xT2":670,"yT2":0,"toosoon":0,"cond_shown":"Incongruent","ratio_trial":500,"L_num":7,"L_den":21,"R_num":5,"R_den":6,"correct_side":2,"subjID":"46wm","gender":"No_gender","school":"No_school","age":"No_age"},{"start_time":1549381585999,"click_time":1549381587188,"finger_time":1549381586948,"fix_duration":250,"trial":22,"RT":949,"MT":240,"sideResp":1,"stimulus":[],"xmouse":[394,394,394,394,394,394,394,394,394,394,394,394,394,394,394,394,394,394,394,394,394,394,394,394,394,394,394,394,394,394,394,394,394,394,394,394,394,394,394,394,390,390,390,390,390,390,390,348,337.3333435058594,312.66668701171875,266.66668701171875,251.33334350585938,237.33334350585938,213.33334350585938,204.6666717529297,174,152,142,126.66667175292969,120.66667175292969],"ymouse":[858,858,858,858,858,858,858,858,858,858,858,858,858,858,858,858,858,858,858,858,858,858,858,858,858,858,858,858,858,858,858,858,858,858,858,858,858,858,858,858,851.3333740234375,851.3333740234375,851.3333740234375,851.3333740234375,851.3333740234375,851.3333740234375,851.3333740234375,724,684.6666870117188,605.3333740234375,483.3333435058594,444,402.66668701171875,320.66668701171875,285.3333435058594,184,138,122,100,94],"timestamp_mouse":[10,36,48,68,88,108,128,148,168,188,209,229,248,268,288,308,329,349,368,388,408,428,448,468,488,508,528,548,568,588,608,628,648,669,688,708,728,748,768,788,808,828,848,869,888,911,929,948,968,988,1008,1028,1048,1069,1088,1109,1128,1148,1168,1189],"xSR":350,"ySR":768,"xT1":30,"yT1":0,"xT2":670,"yT2":0,"toosoon":0,"cond_shown":"Congruent","ratio_trial":300,"L_num":11,"L_den":22,"R_num":2,"R_den":10,"correct_side":1,"subjID":"46wm","gender":"No_gender","school":"No_school","age":"No_age"},{"start_time":1549381590121,"click_time":1549381591728,"finger_time":1549381591428,"fix_duration":1472.1240151904096,"trial":23,"RT":1307,"MT":300,"sideResp":1,"stimulus":[],"xmouse":[395,395,395,395,395,395,395,395,395,395,395,395,395,395,395,395,395,395,395,395,395,395,395,395,395,395,395,395,395,395,395,395,395,395,395,395,395,395,395,395,395,395,395,395,395,395,395,395,395,395,395,395,395,395,395,395,395,395,392,391.3333435058594,391.3333435058594,391.3333435058594,391.3333435058594,391.3333435058594,391.3333435058594,348.66668701171875,337.3333435058594,314.66668701171875,303.3333435058594,278,265.3333435058594,221.33334350585938,189.33334350585938,174.6666717529297,152.6666717529297,146,124.66667175292969,117.33333587646484,102,94,79.33333587646484],"ymouse":[834,834,834,834,834,834,834,834,834,834,834,834,834,834,834,834,834,834,834,834,834,834,834,834,834,834,834,834,834,834,834,834,834,834,834,834,834,834,834,834,834,834,834,834,834,834,834,834,834,834,834,834,834,834,834,834,834,834,826,825.3333740234375,825.3333740234375,825.3333740234375,825.3333740234375,825.3333740234375,825.3333740234375,749.3333740234375,731.3333740234375,692,670,618.6666870117188,589.3333740234375,495.3333435058594,428,394,328.66668701171875,296.66668701171875,211.33334350585938,189.33334350585938,148.6666717529297,129.33334350585938,94.66667175292969],"timestamp_mouse":[9,36,46,66,86,106,126,147,166,186,206,226,246,267,286,307,327,346,366,386,406,426,447,467,486,506,527,546,566,586,606,626,646,666,686,706,727,746,766,787,807,826,846,866,886,907,926,947,966,987,1007,1026,1046,1067,1086,1106,1126,1147,1167,1186,1206,1226,1246,1266,1286,1307,1327,1347,1366,1386,1406,1427,1446,1466,1486,1506,1526,1546,1566,1586,1607],"xSR":350,"ySR":768,"xT1":30,"yT1":0,"xT2":670,"yT2":0,"toosoon":0,"cond_shown":"Congruent","ratio_trial":100,"L_num":10,"L_den":25,"R_num":3,"R_den":10,"correct_side":1,"subjID":"46wm","gender":"No_gender","school":"No_school","age":"No_age"},{"start_time":1549381594652,"click_time":1549381595528,"finger_time":1549381595288,"fix_duration":1443.7912696967085,"trial":24,"RT":636,"MT":240,"sideResp":2,"stimulus":[],"xmouse":[406.66668701171875,406.66668701171875,406.66668701171875,406.66668701171875,404.66668701171875,404.66668701171875,404.66668701171875,404.66668701171875,404.66668701171875,404.66668701171875,404.66668701171875,404.66668701171875,404.66668701171875,404.66668701171875,403.3333435058594,403.3333435058594,402.66668701171875,402.66668701171875,402.66668701171875,402.66668701171875,402,402,401.3333435058594,401.3333435058594,401.3333435058594,401.3333435058594,401.3333435058594,402,402,402,402,422,428.66668701171875,450,464,511.3333435058594,541.3333740234375,554.6666870117188,577.3333740234375,587.3333740234375,620.6666870117188,647.3333740234375,661.3333740234375,686],"ymouse":[846,846,846,846,845.3333740234375,845.3333740234375,845.3333740234375,845.3333740234375,845.3333740234375,845.3333740234375,845.3333740234375,845.3333740234375,845.3333740234375,845.3333740234375,845.3333740234375,845.3333740234375,845.3333740234375,845.3333740234375,844.6666870117188,844.6666870117188,844.6666870117188,844.6666870117188,844,843.3333740234375,843.3333740234375,841.3333740234375,840,838,835.3333740234375,835.3333740234375,835.3333740234375,720,685.3333740234375,609.3333740234375,570,451.3333435058594,382.66668701171875,349.3333435058594,292,266.66668701171875,189.33334350585938,144.6666717529297,125.33334350585938,95.33333587646484],"timestamp_mouse":[31,36,55,75,98,115,136,155,176,196,215,235,255,275,297,316,335,356,375,396,416,436,455,476,495,516,535,555,575,595,617,636,655,676,695,715,735,755,776,795,815,836,855,875],"xSR":350,"ySR":768,"xT1":30,"yT1":0,"xT2":670,"yT2":0,"toosoon":0,"cond_shown":"Congruent","ratio_trial":100,"L_num":4,"L_den":8,"R_num":6,"R_den":10,"correct_side":2,"subjID":"46wm","gender":"No_gender","school":"No_school","age":"No_age"},{"start_time":1549381597738,"click_time":1549381598668,"finger_time":1549381598287,"fix_duration":770.4530250614271,"trial":25,"RT":549,"MT":381,"sideResp":1,"stimulus":[],"xmouse":[400,400,400,400,400,400,400,399.3333435058594,399.3333435058594,399.3333435058594,399.3333435058594,399.3333435058594,399.3333435058594,399.3333435058594,399.3333435058594,399.3333435058594,399.3333435058594,398.66668701171875,398.66668701171875,398.66668701171875,398.66668701171875,398.66668701171875,398.66668701171875,398.66668701171875,398.66668701171875,398.66668701171875,389.3333435058594,373.3333435058594,361.3333435058594,352.66668701171875,333.3333435058594,333.3333435058594,293.3333435058594,275.3333435058594,263.3333435058594,242,230,193.33334350585938,169.33334350585938,158.6666717529297,147.33334350585938,125.33334350585938,100,94,82,77.33333587646484,70.66667175292969],"ymouse":[834,834,834,834,834,834,834,834.6666870117188,834.6666870117188,834.6666870117188,834.6666870117188,834.6666870117188,834.6666870117188,834.6666870117188,834.6666870117188,834.6666870117188,834.6666870117188,834.6666870117188,834.6666870117188,834.6666870117188,834.6666870117188,834.6666870117188,834.6666870117188,834.6666870117188,834.6666870117188,834.6666870117188,804.6666870117188,736,689.3333740234375,667.3333740234375,621.3333740234375,621.3333740234375,517.3333740234375,466.66668701171875,438,383.3333435058594,356.66668701171875,278,234,214.6666717529297,196.6666717529297,167.33334350585938,131.33334350585938,124,108,102.66667175292969,94.66667175292969],"timestamp_mouse":[9,30,49,69,89,109,129,149,170,190,209,229,249,270,289,309,330,349,369,389,409,430,450,469,489,509,529,549,569,590,609,629,649,669,689,709,730,749,769,789,809,829,851,869,889,909,929],"xSR":350,"ySR":768,"xT1":30,"yT1":0,"xT2":670,"yT2":0,"toosoon":0,"cond_shown":"Congruent","ratio_trial":100,"L_num":8,"L_den":16,"R_num":2,"R_den":5,"correct_side":1,"subjID":"46wm","gender":"No_gender","school":"No_school","age":"No_age"},{"start_time":1549381600818,"click_time":1549381601687,"finger_time":1549381601487,"fix_duration":789.5227136741122,"trial":26,"RT":669,"MT":200,"sideResp":2,"stimulus":[],"xmouse":[400,400,400,400,400,400,400,400,400,400,400,400,400,400,400,400,400,400,400,400,400,400,400,400,400,400,400,400,406.66668701171875,407.3333435058594,407.3333435058594,407.3333435058594,439.3333435058594,447.3333435058594,463.3333435058594,472,479.3333435058594,507.3333435058594,528.6666870117188,601.3333740234375,646,664.6666870117188,698,710.6666870117188],"ymouse":[854,854,854,854,854,854,854,854,854,854,854,854,854,854,854,854,854,854,854,854,854,854,854,854,854,854,854,854,849.3333740234375,848.6666870117188,848.6666870117188,848.6666870117188,768,740,653.3333740234375,596.6666870117188,564.6666870117188,484.66668701171875,438,302,222.6666717529297,188,124,96.66667175292969],"timestamp_mouse":[10,35,50,69,89,109,129,149,169,190,209,229,249,270,289,309,329,350,369,389,409,429,450,470,489,509,529,549,570,590,609,629,649,669,689,709,729,749,769,789,809,829,849,869],"xSR":350,"ySR":768,"xT1":30,"yT1":0,"xT2":670,"yT2":0,"toosoon":0,"cond_shown":"Incongruent","ratio_trial":500,"L_num":7,"L_den":21,"R_num":5,"R_den":6,"correct_side":2,"subjID":"46wm","gender":"No_gender","school":"No_school","age":"No_age"},{"start_time":1549381604236,"click_time":1549381605367,"finger_time":1549381605187,"fix_duration":1087.7766960187134,"trial":27,"RT":951,"MT":180,"sideResp":2,"stimulus":[],"xmouse":[410,410,410,409.3333435058594,409.3333435058594,409.3333435058594,409.3333435058594,409.3333435058594,409.3333435058594,409.3333435058594,409.3333435058594,408.66668701171875,408.66668701171875,408.66668701171875,408.66668701171875,408.66668701171875,408.66668701171875,408.66668701171875,408,408,408,407.3333435058594,407.3333435058594,407.3333435058594,407.3333435058594,406.66668701171875,406.66668701171875,406.66668701171875,406,406,406,405.3333435058594,404.66668701171875,404.66668701171875,404.66668701171875,404.66668701171875,404,404,404,404,404,404,404,404,404.66668701171875,408,408,430,442.66668701171875,488,516,532.6666870117188,568.6666870117188,589.3333740234375,652.6666870117188,690,704.6666870117188],"ymouse":[818,818,818,817.3333740234375,817.3333740234375,817.3333740234375,817.3333740234375,817.3333740234375,817.3333740234375,817.3333740234375,817.3333740234375,817.3333740234375,817.3333740234375,817.3333740234375,816.6666870117188,816.6666870117188,816.6666870117188,816.6666870117188,816,816,816,815.3333740234375,815.3333740234375,814.6666870117188,814,813.3333740234375,812.6666870117188,812.6666870117188,812.6666870117188,812,812,811.3333740234375,811.3333740234375,810.6666870117188,810.6666870117188,810,810,810,810,809.3333740234375,809.3333740234375,809.3333740234375,808.6666870117188,808,806,796.6666870117188,796.6666870117188,714,678.6666870117188,566,488.66668701171875,446,353.3333435058594,306.66668701171875,175.33334350585938,104,74],"timestamp_mouse":[11,37,51,72,91,111,131,152,171,192,211,231,252,271,292,311,331,351,371,392,411,431,451,471,492,511,531,551,571,591,611,631,651,671,691,711,731,751,771,792,811,831,851,871,894,912,931,951,971,993,1012,1031,1052,1071,1094,1111,1131],"xSR":350,"ySR":768,"xT1":30,"yT1":0,"xT2":670,"yT2":0,"toosoon":0,"cond_shown":"Congruent","ratio_trial":300,"L_num":8,"L_den":15,"R_num":10,"R_den":12,"correct_side":2,"subjID":"46wm","gender":"No_gender","school":"No_school","age":"No_age"},{"start_time":1549381606931,"click_time":1549381607788,"finger_time":1549381607387,"fix_duration":582.4303013911637,"trial":28,"RT":456,"MT":401,"sideResp":1,"stimulus":[],"xmouse":[424.66668701171875,424.66668701171875,424.66668701171875,424.66668701171875,424.66668701171875,424.66668701171875,424.66668701171875,424.66668701171875,424.66668701171875,422.66668701171875,422.66668701171875,422.66668701171875,422.66668701171875,422.66668701171875,422.66668701171875,422.66668701171875,420,420,420,417.3333435058594,415.3333435058594,410.66668701171875,408.66668701171875,404.66668701171875,394.66668701171875,394.66668701171875,372.66668701171875,364,342.66668701171875,306.66668701171875,292.66668701171875,266.66668701171875,252,225.33334350585938,187.33334350585938,174.6666717529297,150.6666717529297,139.33334350585938,128.6666717529297,92.66667175292969,85.33333587646484,78.66667175292969],"ymouse":[847.3333740234375,847.3333740234375,847.3333740234375,847.3333740234375,847.3333740234375,847.3333740234375,847.3333740234375,847.3333740234375,847.3333740234375,846.6666870117188,846.6666870117188,846.6666870117188,846.6666870117188,846.6666870117188,846.6666870117188,846.6666870117188,841.3333740234375,841.3333740234375,841.3333740234375,802.6666870117188,790.6666870117188,752.6666870117188,734.6666870117188,706.6666870117188,656,656,596.6666870117188,576,534.6666870117188,469.3333435058594,444.66668701171875,394.66668701171875,370.66668701171875,328,270.66668701171875,252,219.33334350585938,202.6666717529297,186.6666717529297,121.33334350585938,107.33333587646484,92.66667175292969],"timestamp_mouse":[47,56,76,96,116,136,156,176,196,218,237,256,276,296,317,336,357,376,397,419,436,456,477,496,516,536,557,577,596,617,636,656,676,696,719,737,756,776,796,819,836,856],"xSR":350,"ySR":768,"xT1":30,"yT1":0,"xT2":670,"yT2":0,"toosoon":0,"cond_shown":"Congruent","ratio_trial":200,"L_num":9,"L_den":30,"R_num":13,"R_den":26,"correct_side":2,"subjID":"46wm","gender":"No_gender","school":"No_school","age":"No_age"},{"start_time":1549381610214,"click_time":1549381611067,"finger_time":1549381610607,"fix_duration":1164.0300973653164,"trial":29,"RT":393,"MT":460,"sideResp":2,"stimulus":[],"xmouse":[389.3333435058594,389.3333435058594,389.3333435058594,389.3333435058594,389.3333435058594,389.3333435058594,389.3333435058594,389.3333435058594,389.3333435058594,389.3333435058594,389.3333435058594,389.3333435058594,389.3333435058594,389.3333435058594,389.3333435058594,389.3333435058594,394,394,406,424.66668701171875,436,458,496.66668701171875,512,545.3333740234375,564,582,630.6666870117188,661.3333740234375,674,695.3333740234375,704.6666870117188,720,722.6666870117188,722.6666870117188,722.6666870117188,726,726,726,726,726,726,728],"ymouse":[797.3333740234375,797.3333740234375,797.3333740234375,797.3333740234375,797.3333740234375,797.3333740234375,799.3333740234375,799.3333740234375,799.3333740234375,799.3333740234375,799.3333740234375,799.3333740234375,799.3333740234375,799.3333740234375,799.3333740234375,799.3333740234375,796.6666870117188,796.6666870117188,775.3333740234375,737.3333740234375,715.3333740234375,668,582.6666870117188,548.6666870117188,472,433.3333435058594,394,288.66668701171875,226.6666717529297,199.33334350585938,156,139.33334350585938,110,104.66667175292969,104.66667175292969,104.66667175292969,101.33333587646484,102,102,102,102,102,99.33333587646484],"timestamp_mouse":[14,34,54,73,93,113,133,155,173,193,213,234,254,273,293,314,333,353,374,393,413,433,455,473,493,513,533,554,573,593,613,633,655,706,708,713,733,753,774,793,813,834,853],"xSR":350,"ySR":768,"xT1":30,"yT1":0,"xT2":670,"yT2":0,"toosoon":0,"cond_shown":"Congruent","ratio_trial":100,"L_num":12,"L_den":30,"R_num":13,"R_den":26,"correct_side":2,"subjID":"46wm","gender":"No_gender","school":"No_school","age":"No_age"},{"start_time":1549381612964,"click_time":1549381614547,"finger_time":1549381613947,"fix_duration":356.9753945209244,"trial":30,"RT":983,"MT":600,"sideResp":1,"stimulus":[],"xmouse":[399.3333435058594,399.3333435058594,399.3333435058594,399.3333435058594,398.66668701171875,398.66668701171875,398.66668701171875,398.66668701171875,398.66668701171875,398.66668701171875,398.66668701171875,398.66668701171875,398.66668701171875,398.66668701171875,398.66668701171875,398.66668701171875,398.66668701171875,398.66668701171875,398.66668701171875,398.66668701171875,398.66668701171875,398.66668701171875,398.66668701171875,398.66668701171875,398,398,398,398,398,398,398,398,398,398,397.3333435058594,397.3333435058594,397.3333435058594,397.3333435058594,397.3333435058594,397.3333435058594,397.3333435058594,397.3333435058594,397.3333435058594,397.3333435058594,395.3333435058594,395.3333435058594,394,379.3333435058594,366.66668701171875,336,320,266.66668701171875,226,205.33334350585938,166.6666717529297,148.6666717529297,118,80,66.66667175292969,41.333335876464844,30,16,9.333333969116211,7.333333969116211,5.333333969116211,4.6666669845581055,4.6666669845581055,6,6,6,6,6,6,6,6,14.666666984558105,14.666666984558105,14.666666984558105,24.666667938232422,34],"ymouse":[848.6666870117188,848.6666870117188,848.6666870117188,848.6666870117188,848.6666870117188,848.6666870117188,848.6666870117188,848.6666870117188,848.6666870117188,848.6666870117188,848.6666870117188,848.6666870117188,848.6666870117188,848.6666870117188,849.3333740234375,849.3333740234375,849.3333740234375,849.3333740234375,849.3333740234375,849.3333740234375,849.3333740234375,849.3333740234375,849.3333740234375,849.3333740234375,849.3333740234375,849.3333740234375,849.3333740234375,849.3333740234375,849.3333740234375,849.3333740234375,849.3333740234375,849.3333740234375,849.3333740234375,849.3333740234375,849.3333740234375,849.3333740234375,849.3333740234375,849.3333740234375,849.3333740234375,849.3333740234375,849.3333740234375,849.3333740234375,849.3333740234375,849.3333740234375,846,846,843.3333740234375,826,809.3333740234375,760,730,624,542,498.66668701171875,414,371.3333435058594,299.3333435058594,211.33334350585938,186,142.6666717529297,124,92,58,49.333335876464844,40.66666793823242,38.66666793823242,34.66666793823242,33.333335876464844,33.333335876464844,33.333335876464844,33.333335876464844,33.333335876464844,33.333335876464844,33.333335876464844,33.333335876464844,46,46,46,54,58],"timestamp_mouse":[3,23,43,63,83,103,123,144,163,183,204,223,243,263,284,304,323,344,364,383,403,423,443,463,483,503,523,543,563,583,603,623,643,663,683,703,723,743,763,784,803,823,843,863,883,903,923,943,963,983,1003,1025,1044,1063,1083,1103,1123,1144,1163,1183,1203,1223,1243,1264,1283,1303,1323,1344,1363,1383,1403,1423,1445,1463,1483,1503,1523,1544,1563,1583],"xSR":350,"ySR":768,"xT1":30,"yT1":0,"xT2":670,"yT2":0,"toosoon":0,"cond_shown":"Congruent","ratio_trial":500,"L_num":10,"L_den":13,"R_num":7,"R_den":26,"correct_side":1,"subjID":"46wm","gender":"No_gender","school":"No_school","age":"No_age"},{"start_time":1549381615896,"click_time":1549381616827,"finger_time":1549381616547,"fix_duration":368.2363115684948,"trial":31,"RT":651,"MT":280,"sideResp":2,"stimulus":[],"xmouse":[404,404.66668701171875,404.66668701171875,404.66668701171875