[{"start_time":1549382066971,"click_time":1549382068082,"finger_time":1549382066981,"fix_duration":1445.773311827753,"trial":0,"RT":10,"MT":1101,"sideResp":2,"stimulus":"img/500/equaldotanddens/R/6_Ratio_500_L_9_R_18.png","xmouse":[418,418,418,418,418,418,418,418,418.66668701171875,419.3333435058594,419.3333435058594,418.66668701171875,418.66668701171875,418.66668701171875,418.66668701171875,418.66668701171875,418.66668701171875,418.66668701171875,419.3333435058594,419.3333435058594,419.3333435058594,419.3333435058594,419.3333435058594,419.3333435058594,419.3333435058594,419.3333435058594,419.3333435058594,419.3333435058594,419.3333435058594,419.3333435058594,419.3333435058594,419.3333435058594,419.3333435058594,419.3333435058594,419.3333435058594,393.3333435058594,394,394,410,416.66668701171875,432,440,456.66668701171875,485.3333435058594,493.3333435058594,507.3333435058594,513.3333740234375,527.3333740234375,549.3333740234375,557.3333740234375,574.6666870117188,586,608,641.3333740234375,653.3333740234375,672],"ymouse":[506.66668701171875,506.66668701171875,506.66668701171875,506.66668701171875,501.3333740234375,500.66668701171875,500,500,500,500,500,500.66668701171875,500.66668701171875,501.3333740234375,501.3333740234375,501.3333740234375,501.3333740234375,501.3333740234375,505.3333740234375,505.3333740234375,505.3333740234375,505.3333740234375,505.3333740234375,505.3333740234375,505.3333740234375,505.3333740234375,505.3333740234375,505.3333740234375,505.3333740234375,505.3333740234375,505.3333740234375,505.3333740234375,505.3333740234375,505.3333740234375,505.3333740234375,828,826,826,778.6666870117188,760,721.3333740234375,701.3333740234375,658.6666870117188,586,561.3333740234375,510.66668701171875,488,438,359.3333435058594,333.3333435058594,283.3333435058594,258,211.33334350585938,148,128.6666717529297,94.66667175292969],"timestamp_mouse":[10,30,50,70,90,110,130,151,170,190,210,230,251,271,290,310,330,350,370,391,410,430,450,470,490,511,530,550,571,590,610,630,650,670,690,710,730,750,770,790,810,830,850,870,890,910,930,950,970,990,1010,1030,1050,1072,1090,1110],"xSR":350,"ySR":451.2,"xT1":30,"yT1":0,"xT2":670,"yT2":0,"toosoon":0,"cond_shown":"equaldotanddens","ratio_trial":500,"smaller_num":"9","larger_num":"18","correct_side":2,"subjID":"46wmb","gender":"No_gender","age":"No_age","school":"No_school","test":{"fix_dur":[250,1500],"timestim":400,"targets_dim":[100,100],"targets_relative_coord":[0.1,0.9],"size_stim":[880,420],"start_dim":[100,100],"size_start":[300,300],"size_fix":60,"samplingrate":20,"img_types":["equaldotsize","equaldotanddens","randomdotsize","randomdotsizeEA"],"ratios":[250,500,750,900],"rep_conds":7,"nTrials":128,"trials_to_rest":500,"Trials_order":[53,80,45,49,89,73,85,36,88,21,60,39,95,13,75,79,115,6,54,2,99,77,120,127,59,98,91,17,108,114,119,18,50,7,124,116,56,123,101,8,27,92,20,47,78,46,102,16,30,72,5,84,14,40,62,43,87,97,90,38,126,113,76,66,23,44,3,11,86,15,69,26,104,19,83,58,32,51,22,81,70,33,10,34,103,110,125,63,57,24,52,61,67,41,28,42,107,71,55,100,106,37,35,25,82,65,9,109,105,118,64,1,117,96,121,94,122,12,48,112,29,111,31,68,4,93,0,74],"cond_shown":["equaldotanddens","equaldotsize","equaldotanddens","equaldotanddens","equaldotanddens","equaldotanddens","equaldotanddens","equaldotsize","equaldotsize","equaldotanddens","equaldotsize","randomdotsizeEA","randomdotsizeEA","equaldotanddens","randomdotsizeEA","randomdotsizeEA","randomdotsizeEA","randomdotsize","randomdotsize","randomdotsize","randomdotsizeEA","equaldotanddens","equaldotsize","randomdotsizeEA","randomdotsizeEA","randomdotsize","randomdotsizeEA","equaldotanddens","equaldotsize","randomdotsize","randomdotsizeEA","randomdotsize","randomdotsize","randomdotsizeEA","equaldotsize","equaldotsize","equaldotsize","randomdotsizeEA","equaldotanddens","equaldotsize","randomdotsizeEA","equaldotsize","equaldotsize","randomdotsizeEA","randomdotsize","randomdotsize","randomdotsize","equaldotsize","randomdotsize","equaldotsize","equaldotanddens","equaldotsize","randomdotsize","equaldotsize","randomdotsize","randomdotsizeEA","randomdotsizeEA","equaldotanddens","randomdotsize","randomdotsize","randomdotsize","equaldotanddens","equaldotsize","randomdotsize","randomdotsizeEA","equaldotsize","randomdotsizeEA","randomdotsizeEA","randomdotsize","randomdotsizeEA","equaldotanddens","randomdotsize","equaldotsize","randomdotsizeEA","randomdotsizeEA","randomdotsize","equaldotsize","randomdotsizeEA","randomdotsize","equaldotanddens","randomdotsize","equaldotanddens","randomdotsize","randomdotsize","randomdotsizeEA","randomdotsize","equaldotanddens","randomdotsizeEA","equaldotanddens","equaldotsize","equaldotsize","equaldotanddens","randomdotsizeEA","equaldotanddens","equaldotsize","randomdotsize","randomdotsizeEA","randomdotsizeEA","randomdotsizeEA","equaldotsize","randomdotsize","equaldotanddens","randomdotsizeEA","equaldotanddens","randomdotsize","equaldotanddens","equaldotanddens","equaldotanddens","equaldotanddens","randomdotsize","equaldotsize","equaldotanddens","equaldotanddens","equaldotsize","equaldotanddens","randomdotsize","randomdotsize","equaldotsize","equaldotsize","equaldotsize","equaldotanddens","randomdotsizeEA","randomdotsizeEA","equaldotsize","equaldotsize","equaldotanddens","equaldotsize","randomdotsize"],"ratio_trial":[500,250,900,250,750,750,500,500,750,500,900,500,900,900,750,900,250,500,500,250,250,900,750,900,750,250,750,250,900,250,500,250,250,500,900,500,750,750,500,750,750,900,500,900,900,900,500,250,900,750,500,500,900,750,900,750,500,250,750,500,900,250,900,250,500,900,250,750,500,900,500,750,750,250,250,750,250,250,500,250,500,250,750,250,500,900,900,900,750,750,500,900,250,750,900,750,750,500,500,500,750,500,250,750,250,250,750,900,750,500,250,250,500,250,750,900,750,900,250,250,900,900,900,500,500,900,250,750],"smaller_num":["9","6","18","1","9","12","4","2","12","9","9","1","18","18","6","9","2","3","1","2","3","18","6","9","15","1","9","1","9","3","6","3","2","9","9","6","3","3","6","6","3","18","9","18","9","18","3","5","18","18","2","9","18","15","18","9","2","3","6","9","9","3","18","4","5","9","3","6","6","9","9","9","15","2","6","6","3","2","1","3","6","2","6","3","9","18","18","18","6","15","5","18","1","15","9","9","18","10","9","4","15","1","2","6","1","1","6","9","3","5","2","2","9","2","3","18","6","9","5","6","9","18","18","9","2","9","3","6"],"larger_num":["18","24","20","4","12","16","8","4","16","18","10","2","20","20","8","10","8","6","2","8","12","20","8","10","20","4","12","4","10","12","12","12","8","18","10","12","4","4","12","8","4","20","18","20","10","20","6","20","20","24","4","18","20","20","20","12","4","12","8","18","10","12","20","16","10","10","12","8","12","10","18","12","20","8","24","8","12","8","2","12","12","8","8","12","18","20","20","20","8","20","10","20","4","20","10","12","24","20","18","8","20","2","8","8","4","4","8","10","4","10","8","8","18","8","4","20","8","10","20","24","10","20","20","18","4","10","12","8"],"correct_side":[2,1,1,2,2,2,1,2,2,1,2,2,2,1,1,2,1,2,2,1,2,2,2,1,1,2,2,2,1,1,1,2,1,2,2,1,1,1,1,1,2,2,2,1,1,1,2,2,1,1,1,2,1,2,1,2,2,2,1,2,2,2,2,2,2,2,1,1,1,1,2,2,2,1,1,1,1,1,2,2,1,1,1,1,2,1,1,1,1,1,2,2,2,2,2,2,1,2,2,1,2,2,1,1,2,2,2,2,2,2,1,1,2,2,1,1,1,2,2,2,1,1,2,1,2,2,2,1],"img_shown":["img/500/equaldotanddens/R/6_Ratio_500_L_9_R_18.png","img/250/equaldotsize/L/5_Ratio_250_L_24_R_6.png","img/900/equaldotanddens/L/10_Ratio_900_L_20_R_18.png","img/250/equaldotanddens/R/8_Ratio_250_L_1_R_4.png","img/750/equaldotanddens/R/15_Ratio_750_L_9_R_12.png","img/750/equaldotanddens/R/11_Ratio_750_L_12_R_16.png","img/500/equaldotanddens/L/8_Ratio_500_L_8_R_4.png","img/500/equaldotsize/R/9_Ratio_500_L_2_R_4.png","img/750/equaldotsize/R/11_Ratio_750_L_12_R_16.png","img/500/equaldotanddens/L/4_Ratio_500_L_18_R_9.png","img/900/equaldotsize/R/6_Ratio_900_L_9_R_10.png","img/500/randomdotsizeEA/R/15_Ratio_500_L_1_R_2.png","img/900/randomdotsizeEA/R/9_Ratio_900_L_18_R_20.png","img/900/equaldotanddens/L/2_Ratio_900_L_20_R_18.png","img/750/randomdotsizeEA/L/14_Ratio_750_L_8_R_6.png","img/900/randomdotsizeEA/R/5_Ratio_900_L_9_R_10.png","img/250/randomdotsizeEA/L/1_Ratio_250_L_8_R_2.png","img/500/randomdotsize/R/2_Ratio_500_L_3_R_6.png","img/500/randomdotsize/R/12_Ratio_500_L_1_R_2.png","img/250/randomdotsize/L/3_Ratio_250_L_8_R_2.png","img/250/randomdotsizeEA/R/4_Ratio_250_L_3_R_12.png","img/900/equaldotanddens/R/9_Ratio_900_L_18_R_20.png","img/750/equaldotsize/R/2_Ratio_750_L_6_R_8.png","img/900/randomdotsizeEA/L/1_Ratio_900_L_10_R_9.png","img/750/randomdotsizeEA/L/1_Ratio_750_L_20_R_15.png","img/250/randomdotsize/R/8_Ratio_250_L_1_R_4.png","img/750/randomdotsizeEA/R/15_Ratio_750_L_9_R_12.png","img/250/equaldotanddens/R/8_Ratio_250_L_1_R_4.png","img/900/equaldotsize/L/1_Ratio_900_L_10_R_9.png","img/250/randomdotsize/L/15_Ratio_250_L_12_R_3.png","img/500/randomdotsizeEA/L/13_Ratio_500_L_12_R_6.png","img/250/randomdotsize/R/11_Ratio_250_L_3_R_12.png","img/250/randomdotsize/L/7_Ratio_250_L_8_R_2.png","img/500/randomdotsizeEA/R/6_Ratio_500_L_9_R_18.png","img/900/equaldotsize/R/3_Ratio_900_L_9_R_10.png","img/500/equaldotsize/L/13_Ratio_500_L_12_R_6.png","img/750/equaldotsize/L/8_Ratio_750_L_4_R_3.png","img/750/randomdotsizeEA/L/8_Ratio_750_L_4_R_3.png","img/500/equaldotanddens/L/13_Ratio_500_L_12_R_6.png","img/750/equaldotsize/L/14_Ratio_750_L_8_R_6.png","img/750/randomdotsizeEA/R/7_Ratio_750_L_3_R_4.png","img/900/equaldotsize/R/14_Ratio_900_L_18_R_20.png","img/500/equaldotsize/R/1_Ratio_500_L_9_R_18.png","img/900/randomdotsizeEA/L/4_Ratio_900_L_20_R_18.png","img/900/randomdotsize/L/1_Ratio_900_L_10_R_9.png","img/900/randomdotsize/L/8_Ratio_900_L_20_R_18.png","img/500/randomdotsize/R/2_Ratio_500_L_3_R_6.png","img/250/equaldotsize/R/12_Ratio_250_L_5_R_20.png","img/900/randomdotsize/L/10_Ratio_900_L_20_R_18.png","img/750/equaldotsize/L/6_Ratio_750_L_24_R_18.png","img/500/equaldotanddens/L/5_Ratio_500_L_4_R_2.png","img/500/equaldotsize/R/6_Ratio_500_L_9_R_18.png","img/900/randomdotsize/L/8_Ratio_900_L_20_R_18.png","img/750/equaldotsize/R/4_Ratio_750_L_15_R_20.png","img/900/randomdotsize/L/8_Ratio_900_L_20_R_18.png","img/750/randomdotsizeEA/R/15_Ratio_750_L_9_R_12.png","img/500/randomdotsizeEA/R/9_Ratio_500_L_2_R_4.png","img/250/equaldotanddens/R/9_Ratio_250_L_3_R_12.png","img/750/randomdotsize/L/13_Ratio_750_L_8_R_6.png","img/500/randomdotsize/R/1_Ratio_500_L_9_R_18.png","img/900/randomdotsize/R/3_Ratio_900_L_9_R_10.png","img/250/equaldotanddens/R/4_Ratio_250_L_3_R_12.png","img/900/equaldotsize/R/13_Ratio_900_L_18_R_20.png","img/250/randomdotsize/R/10_Ratio_250_L_4_R_16.png","img/500/randomdotsizeEA/R/14_Ratio_500_L_5_R_10.png","img/900/equaldotsize/R/6_Ratio_900_L_9_R_10.png","img/250/randomdotsizeEA/L/15_Ratio_250_L_12_R_3.png","img/750/randomdotsizeEA/L/13_Ratio_750_L_8_R_6.png","img/500/randomdotsize/L/11_Ratio_500_L_12_R_6.png","img/900/randomdotsizeEA/L/1_Ratio_900_L_10_R_9.png","img/500/equaldotanddens/R/1_Ratio_500_L_9_R_18.png","img/750/randomdotsize/R/15_Ratio_750_L_9_R_12.png","img/750/equaldotsize/R/4_Ratio_750_L_15_R_20.png","img/250/randomdotsizeEA/L/7_Ratio_250_L_8_R_2.png","img/250/randomdotsizeEA/L/5_Ratio_250_L_24_R_6.png","img/750/randomdotsize/L/13_Ratio_750_L_8_R_6.png","img/250/equaldotsize/L/15_Ratio_250_L_12_R_3.png","img/250/randomdotsizeEA/L/1_Ratio_250_L_8_R_2.png","img/500/randomdotsize/R/15_Ratio_500_L_1_R_2.png","img/250/equaldotanddens/R/4_Ratio_250_L_3_R_12.png","img/500/randomdotsize/L/11_Ratio_500_L_12_R_6.png","img/250/equaldotanddens/L/3_Ratio_250_L_8_R_2.png","img/750/randomdotsize/L/14_Ratio_750_L_8_R_6.png","img/250/randomdotsize/L/14_Ratio_250_L_12_R_3.png","img/500/randomdotsizeEA/R/1_Ratio_500_L_9_R_18.png","img/900/randomdotsize/L/2_Ratio_900_L_20_R_18.png","img/900/equaldotanddens/L/10_Ratio_900_L_20_R_18.png","img/900/randomdotsizeEA/L/8_Ratio_900_L_20_R_18.png","img/750/equaldotanddens/L/13_Ratio_750_L_8_R_6.png","img/750/equaldotsize/L/1_Ratio_750_L_20_R_15.png","img/500/equaldotsize/R/14_Ratio_500_L_5_R_10.png","img/900/equaldotanddens/R/13_Ratio_900_L_18_R_20.png","img/250/randomdotsizeEA/R/8_Ratio_250_L_1_R_4.png","img/750/equaldotanddens/R/4_Ratio_750_L_15_R_20.png","img/900/equaldotsize/R/5_Ratio_900_L_9_R_10.png","img/750/randomdotsize/R/15_Ratio_750_L_9_R_12.png","img/750/randomdotsizeEA/L/6_Ratio_750_L_24_R_18.png","img/500/randomdotsizeEA/R/3_Ratio_500_L_10_R_20.png","img/500/randomdotsizeEA/R/1_Ratio_500_L_9_R_18.png","img/500/equaldotsize/L/8_Ratio_500_L_8_R_4.png","img/750/randomdotsize/R/5_Ratio_750_L_15_R_20.png","img/500/equaldotanddens/R/12_Ratio_500_L_1_R_2.png","img/250/randomdotsizeEA/L/1_Ratio_250_L_8_R_2.png","img/750/equaldotanddens/L/14_Ratio_750_L_8_R_6.png","img/250/randomdotsize/R/8_Ratio_250_L_1_R_4.png","img/250/equaldotanddens/R/8_Ratio_250_L_1_R_4.png","img/750/equaldotanddens/R/2_Ratio_750_L_6_R_8.png","img/900/equaldotanddens/R/6_Ratio_900_L_9_R_10.png","img/750/equaldotanddens/R/7_Ratio_750_L_3_R_4.png","img/500/randomdotsize/R/14_Ratio_500_L_5_R_10.png","img/250/equaldotsize/L/3_Ratio_250_L_8_R_2.png","img/250/equaldotanddens/L/3_Ratio_250_L_8_R_2.png","img/500/equaldotanddens/R/6_Ratio_500_L_9_R_18.png","img/250/equaldotsize/R/13_Ratio_250_L_2_R_8.png","img/750/equaldotanddens/L/10_Ratio_750_L_4_R_3.png","img/900/randomdotsize/L/8_Ratio_900_L_20_R_18.png","img/750/randomdotsize/L/13_Ratio_750_L_8_R_6.png","img/900/equaldotsize/R/6_Ratio_900_L_9_R_10.png","img/250/equaldotsize/R/12_Ratio_250_L_5_R_20.png","img/250/equaldotsize/R/6_Ratio_250_L_6_R_24.png","img/900/equaldotanddens/L/1_Ratio_900_L_10_R_9.png","img/900/randomdotsizeEA/L/2_Ratio_900_L_20_R_18.png","img/900/randomdotsizeEA/R/9_Ratio_900_L_18_R_20.png","img/500/equaldotsize/L/4_Ratio_500_L_18_R_9.png","img/500/equaldotsize/R/9_Ratio_500_L_2_R_4.png","img/900/equaldotanddens/R/7_Ratio_900_L_9_R_10.png","img/250/equaldotsize/R/11_Ratio_250_L_3_R_12.png","img/750/randomdotsize/L/13_Ratio_750_L_8_R_6.png"],"Rat0":[["12_Ratio_0_L_9_R_0.png","13_Ratio_0_L_6_R_0.png","5_Ratio_0_L_2_R_0.png","6_Ratio_0_L_4_R_0.png","8_Ratio_0_L_6_R_0.png"],["1_Ratio_0_L_0_R_17.png","10_Ratio_0_L_0_R_22.png","11_Ratio_0_L_0_R_1.png","14_Ratio_0_L_0_R_24.png","15_Ratio_0_L_0_R_4.png","2_Ratio_0_L_0_R_5.png","3_Ratio_0_L_0_R_17.png","4_Ratio_0_L_0_R_7.png","7_Ratio_0_L_0_R_19.png","9_Ratio_0_L_0_R_15.png"]],"Rat250":[["1_Ratio_250_L_8_R_2.png","14_Ratio_250_L_12_R_3.png","15_Ratio_250_L_12_R_3.png","2_Ratio_250_L_16_R_4.png","3_Ratio_250_L_8_R_2.png","5_Ratio_250_L_24_R_6.png","7_Ratio_250_L_8_R_2.png"],["10_Ratio_250_L_4_R_16.png","11_Ratio_250_L_3_R_12.png","12_Ratio_250_L_5_R_20.png","13_Ratio_250_L_2_R_8.png","4_Ratio_250_L_3_R_12.png","6_Ratio_250_L_6_R_24.png","8_Ratio_250_L_1_R_4.png","9_Ratio_250_L_3_R_12.png"]],"Rat500":[["10_Ratio_500_L_4_R_2.png","11_Ratio_500_L_12_R_6.png","13_Ratio_500_L_12_R_6.png","4_Ratio_500_L_18_R_9.png","5_Ratio_500_L_4_R_2.png","7_Ratio_500_L_10_R_5.png","8_Ratio_500_L_8_R_4.png"],["1_Ratio_500_L_9_R_18.png","12_Ratio_500_L_1_R_2.png","14_Ratio_500_L_5_R_10.png","15_Ratio_500_L_1_R_2.png","2_Ratio_500_L_3_R_6.png","3_Ratio_500_L_10_R_20.png","6_Ratio_500_L_9_R_18.png","9_Ratio_500_L_2_R_4.png"]],"Rat750":[["1_Ratio_750_L_20_R_15.png","10_Ratio_750_L_4_R_3.png","13_Ratio_750_L_8_R_6.png","14_Ratio_750_L_8_R_6.png","6_Ratio_750_L_24_R_18.png","8_Ratio_750_L_4_R_3.png","9_Ratio_750_L_4_R_3.png"],["11_Ratio_750_L_12_R_16.png","12_Ratio_750_L_3_R_4.png","15_Ratio_750_L_9_R_12.png","2_Ratio_750_L_6_R_8.png","3_Ratio_750_L_15_R_20.png","4_Ratio_750_L_15_R_20.png","5_Ratio_750_L_15_R_20.png","7_Ratio_750_L_3_R_4.png"]],"Rat900":[["1_Ratio_900_L_10_R_9.png","10_Ratio_900_L_20_R_18.png","2_Ratio_900_L_20_R_18.png","4_Ratio_900_L_20_R_18.png","8_Ratio_900_L_20_R_18.png"],["11_Ratio_900_L_18_R_20.png","12_Ratio_900_L_18_R_20.png","13_Ratio_900_L_18_R_20.png","14_Ratio_900_L_18_R_20.png","15_Ratio_900_L_9_R_10.png","3_Ratio_900_L_9_R_10.png","5_Ratio_900_L_9_R_10.png","6_Ratio_900_L_9_R_10.png","7_Ratio_900_L_9_R_10.png","9_Ratio_900_L_18_R_20.png"]],"Rat1000":[["10_Ratio_1000_L_16_R_16.png","11_Ratio_1000_L_6_R_6.png","12_Ratio_1000_L_14_R_14.png","13_Ratio_1000_L_20_R_20.png","15_Ratio_1000_L_15_R_15.png","2_Ratio_1000_L_17_R_17.png","4_Ratio_1000_L_9_R_9.png","5_Ratio_1000_L_6_R_6.png","6_Ratio_1000_L_19_R_19.png","8_Ratio_1000_L_14_R_14.png","9_Ratio_1000_L_25_R_25.png"],["1_Ratio_1000_L_1_R_1.png","14_Ratio_1000_L_17_R_17.png","3_Ratio_1000_L_17_R_17.png","7_Ratio_1000_L_6_R_6.png"]]}},{"start_time":1549382071629,"click_time":1549382073885,"finger_time":1549382073241,"fix_duration":1422.7269213191298,"trial":1,"RT":1612,"MT":644,"sideResp":1,"stimulus":"img/250/equaldotsize/L/5_Ratio_250_L_24_R_6.png","xmouse":[389.3333435058594,389.3333435058594,389.3333435058594,389.3333435058594,389.3333435058594,389.3333435058594,389.3333435058594,389.3333435058594,389.3333435058594,389.3333435058594,389.3333435058594,389.3333435058594,389.3333435058594,389.3333435058594,389.3333435058594,389.3333435058594,389.3333435058594,389.3333435058594,389.3333435058594,389.3333435058594,389.3333435058594,389.3333435058594,389.3333435058594,389.3333435058594,390,390,390,390,390,390,390,390,390,390,390,390,390,390,390,390,390,390,390,390,391.3333435058594,391.3333435058594,391.3333435058594,391.3333435058594,391.3333435058594,391.3333435058594,391.3333435058594,391.3333435058594,391.3333435058594,391.3333435058594,391.3333435058594,391.3333435058594,391.3333435058594,391.3333435058594,391.3333435058594,391.3333435058594,391.3333435058594,391.3333435058594,391.3333435058594,391.3333435058594,391.3333435058594,391.3333435058594,391.3333435058594,391.3333435058594,391.3333435058594,391.3333435058594,389.3333435058594,388.66668701171875,387.3333435058594,386,385.3333435058594,383.3333435058594,382.66668701171875,380,378,377.3333435058594,375.3333435058594,374,368.66668701171875,367.3333435058594,362,359.3333435058594,352,340,333.3333435058594,320,314,300.66668701171875,282,276,264,258,245.33334350585938,224.6666717529297,217.33334350585938,202,194.6666717529297,178.6666717529297,152.6666717529297,144.6666717529297,128.6666717529297,121.33333587646484,109.33333587646484,98,89.33333587646484,86,78.66667175292969,76,68],"ymouse":[830.6666870117188,830.6666870117188,830.6666870117188,830.6666870117188,830.6666870117188,830.6666870117188,830.6666870117188,830.6666870117188,830.6666870117188,830.6666870117188,830.6666870117188,830.6666870117188,830.6666870117188,830.6666870117188,829.3333740234375,829.3333740234375,829.3333740234375,829.3333740234375,829.3333740234375,829.3333740234375,829.3333740234375,829.3333740234375,829.3333740234375,829.3333740234375,830,830,830,830,830,830,830,830,830,830,829.3333740234375,829.3333740234375,829.3333740234375,829.3333740234375,829.3333740234375,829.3333740234375,829.3333740234375,829.3333740234375,829.3333740234375,829.3333740234375,829.3333740234375,829.3333740234375,829.3333740234375,829.3333740234375,829.3333740234375,829.3333740234375,829.3333740234375,829.3333740234375,829.3333740234375,829.3333740234375,828,828,828,828,828,828,828,828,828,828,825.3333740234375,825.3333740234375,825.3333740234375,825.3333740234375,825.3333740234375,825.3333740234375,812,810,804,799.3333740234375,797.3333740234375,792.6666870117188,789.3333740234375,780.6666870117188,774,770,762,758,743.3333740234375,738,725.3333740234375,716,698,666.6666870117188,650.6666870117188,618,602.6666870117188,574,532,519.3333740234375,491.3333435058594,477.3333435058594,450.66668701171875,408.66668701171875,394.66668701171875,366,352.66668701171875,322.66668701171875,278,263.3333435058594,235.33334350585938,222,194.6666717529297,169.33334350585938,146,136,118,110,88],"timestamp_mouse":[13,33,52,72,92,112,133,152,173,192,212,232,252,273,292,312,332,352,373,392,412,432,452,472,492,513,532,552,572,592,612,632,652,672,692,713,732,752,772,793,812,832,852,873,893,912,933,952,972,992,1012,1033,1052,1072,1092,1112,1133,1152,1173,1192,1212,1233,1252,1272,1292,1312,1332,1353,1373,1392,1412,1432,1452,1472,1492,1512,1532,1552,1572,1592,1612,1633,1652,1672,1692,1712,1732,1754,1772,1792,1813,1833,1853,1872,1892,1912,1932,1954,1972,1992,2012,2032,2054,2072,2092,2112,2132,2154,2172,2192,2212,2232,2254],"xSR":350,"ySR":768,"xT1":30,"yT1":0,"xT2":670,"yT2":0,"toosoon":0,"cond_shown":"equaldotsize","ratio_trial":250,"smaller_num":"6","larger_num":"24","correct_side":1,"subjID":"46wmb","gender":"No_gender","age":"No_age","school":"No_school"},{"start_time":1549382076438,"click_time":1549382078361,"finger_time":1549382078103,"fix_duration":795.7086560980856,"trial":2,"RT":1665,"MT":258,"sideResp":2,"stimulus":"img/900/equaldotanddens/L/10_Ratio_900_L_20_R_18.png","xmouse":[394.66668701171875,394.66668701171875,394.66668701171875,394.66668701171875,394.66668701171875,392,392,391.3333435058594,391.3333435058594,391.3333435058594,391.3333435058594,391.3333435058594,391.3333435058594,391.3333435058594,391.3333435058594,391.3333435058594,391.3333435058594,392,392,392,392,392,392,392,392,392,392,385.3333435058594,385.3333435058594,385.3333435058594,385.3333435058594,385.3333435058594,385.3333435058594,385.3333435058594,385.3333435058594,385.3333435058594,385.3333435058594,389.3333435058594,389.3333435058594,389.3333435058594,389.3333435058594,389.3333435058594,389.3333435058594,389.3333435058594,389.3333435058594,389.3333435058594,389.3333435058594,383.3333435058594,383.3333435058594,383.3333435058594,383.3333435058594,383.3333435058594,383.3333435058594,383.3333435058594,383.3333435058594,383.3333435058594,383.3333435058594,384,384.66668701171875,384.66668701171875,385.3333435058594,385.3333435058594,386,386,387.3333435058594,387.3333435058594,387.3333435058594,390,390,390,390,390,390,390,390,390,390,383.3333435058594,383.3333435058594,383.3333435058594,383.3333435058594,383.3333435058594,403.3333435058594,435.3333435058594,462,532,532,591.3333740234375,614,621.3333740234375,634,640.6666870117188,668.6666870117188,689.3333740234375,698,710],"ymouse":[842.6666870117188,842.6666870117188,842.6666870117188,842.6666870117188,842.6666870117188,852.6666870117188,852.6666870117188,854,854.6666870117188,854.6666870117188,854.6666870117188,854.6666870117188,854.6666870117188,854.6666870117188,854.6666870117188,854.6666870117188,854.6666870117188,856,856,856,856,856,856,856,856,856,856,851.3333740234375,851.3333740234375,850.6666870117188,850.6666870117188,850.6666870117188,850.6666870117188,850.6666870117188,850.6666870117188,850.6666870117188,850.6666870117188,853.3333740234375,853.3333740234375,853.3333740234375,853.3333740234375,853.3333740234375,853.3333740234375,853.3333740234375,853.3333740234375,853.3333740234375,853.3333740234375,843.3333740234375,843.3333740234375,843.3333740234375,843.3333740234375,843.3333740234375,843.3333740234375,843.3333740234375,843.3333740234375,843.3333740234375,838,837.3333740234375,836.6666870117188,836.6666870117188,832.6666870117188,831.3333740234375,828.6666870117188,828.6666870117188,826,826,826,828.6666870117188,828.6666870117188,828.6666870117188,828.6666870117188,828.6666870117188,828.6666870117188,828.6666870117188,828.6666870117188,828.6666870117188,828.6666870117188,832,832,832,832,832,773.3333740234375,672.6666870117188,600,438,438,310,250.66668701171875,232,197.33334350585938,182.6666717529297,144,122.66667175292969,112.66667175292969,98],"timestamp_mouse":[3,33,43,64,84,103,124,144,163,183,203,223,243,263,283,303,323,343,363,383,403,423,443,466,484,504,524,543,564,583,603,624,644,663,683,703,723,743,763,784,803,823,843,864,884,903,923,943,963,983,1003,1023,1043,1063,1084,1103,1123,1143,1165,1184,1203,1223,1243,1263,1286,1303,1323,1343,1364,1383,1403,1423,1444,1463,1483,1504,1523,1543,1563,1583,1603,1623,1643,1665,1683,1726,1743,1765,1783,1803,1823,1843,1865,1883,1903,1923],"xSR":350,"ySR":768,"xT1":30,"yT1":0,"xT2":670,"yT2":0,"toosoon":0,"cond_shown":"equaldotanddens","ratio_trial":900,"smaller_num":"18","larger_num":"20","correct_side":1,"subjID":"46wmb","gender":"No_gender","age":"No_age","school":"No_school"},{"start_time":1549382083553,"click_time":1549382085121,"finger_time":1549382084882,"fix_duration":250,"trial":3,"RT":1329,"MT":239,"sideResp":2,"stimulus":"img/250/equaldotanddens/R/8_Ratio_250_L_1_R_4.png","xmouse":[408.66668701171875,408.66668701171875,408.66668701171875,408.66668701171875,408.66668701171875,408.66668701171875,408.66668701171875,408.66668701171875,408.66668701171875,408.66668701171875,409.3333435058594,409.3333435058594,409.3333435058594,409.3333435058594,409.3333435058594,409.3333435058594,409.3333435058594,409.3333435058594,409.3333435058594,409.3333435058594,409.3333435058594,409.3333435058594,409.3333435058594,409.3333435058594,409.3333435058594,409.3333435058594,409.3333435058594,409.3333435058594,409.3333435058594,409.3333435058594,409.3333435058594,409.3333435058594,409.3333435058594,409.3333435058594,409.3333435058594,409.3333435058594,409.3333435058594,409.3333435058594,409.3333435058594,409.3333435058594,409.3333435058594,409.3333435058594,409.3333435058594,409.3333435058594,409.3333435058594,409.3333435058594,409.3333435058594,409.3333435058594,409.3333435058594,409.3333435058594,410.66668701171875,410.66668701171875,410.66668701171875,410.66668701171875,410.66668701171875,410.66668701171875,410.66668701171875,410.66668701171875,410.66668701171875,410.66668701171875,410.66668701171875,410.66668701171875,410.66668701171875,410.66668701171875,410.66668701171875,410.66668701171875,435.3333435058594,447.3333435058594,480.66668701171875,498,542.6666870117188,576,595.3333740234375,630,649.3333740234375,706,739.3333740234375,746,749.3333740234375],"ymouse":[830.6666870117188,830.6666870117188,830.6666870117188,830.6666870117188,830.6666870117188,830.6666870117188,830.6666870117188,830.6666870117188,830.6666870117188,830.6666870117188,831.3333740234375,831.3333740234375,831.3333740234375,831.3333740234375,831.3333740234375,831.3333740234375,831.3333740234375,831.3333740234375,831.3333740234375,834,834,834,834,834,834,834,834,834,834,834,835.3333740234375,835.3333740234375,835.3333740234375,835.3333740234375,835.3333740234375,835.3333740234375,835.3333740234375,835.3333740234375,835.3333740234375,835.3333740234375,837.3333740234375,837.3333740234375,837.3333740234375,837.3333740234375,837.3333740234375,837.3333740234375,837.3333740234375,837.3333740234375,837.3333740234375,837.3333740234375,834.6666870117188,834.6666870117188,834.6666870117188,834.6666870117188,834.6666870117188,834.6666870117188,834.6666870117188,834.6666870117188,834.6666870117188,834.6666870117188,832.6666870117188,832.6666870117188,832.6666870117188,832.6666870117188,832.6666870117188,832.6666870117188,734.6666870117188,694,596,546.6666870117188,422.66668701171875,344,307.3333435058594,245.33334350585938,217.33334350585938,150,112.66667175292969,103.33333587646484,94],"timestamp_mouse":[12,35,48,68,88,108,128,148,168,189,208,228,248,268,288,308,328,348,369,391,408,428,448,468,489,508,528,548,569,588,608,629,648,668,688,708,728,748,768,789,808,828,848,869,888,908,928,949,968,988,1008,1028,1049,1068,1089,1108,1128,1148,1168,1188,1208,1228,1248,1268,1288,1311,1329,1348,1368,1388,1410,1428,1448,1469,1488,1509,1528,1548,1568],"xSR":350,"ySR":768,"xT1":30,"yT1":0,"xT2":670,"yT2":0,"toosoon":0,"cond_shown":"equaldotanddens","ratio_trial":250,"smaller_num":"1","larger_num":"4","correct_side":2,"subjID":"46wmb","gender":"No_gender","age":"No_age","school":"No_school"},{"start_time":1549382086936,"click_time":1549382088282,"finger_time":1549382088122,"fix_duration":573.2574050076109,"trial":4,"RT":1186,"MT":160,"sideResp":2,"stimulus":"img/750/equaldotanddens/R/15_Ratio_750_L_9_R_12.png","xmouse":[413.3333435058594,413.3333435058594,413.3333435058594,413.3333435058594,413.3333435058594,413.3333435058594,413.3333435058594,413.3333435058594,413.3333435058594,413.3333435058594,413.3333435058594,413.3333435058594,413.3333435058594,413.3333435058594,413.3333435058594,414,414,414,414,414,414,414,414,414,414,413.3333435058594,412.66668701171875,412.66668701171875,412.66668701171875,412,412,412,412,412,412,412,412,412,412,412,412,412,412,412,412,411.3333435058594,411.3333435058594,411.3333435058594,411.3333435058594,411.3333435058594,411.3333435058594,411.3333435058594,411.3333435058594,411.3333435058594,411.3333435058594,413.3333435058594,413.3333435058594,418.66668701171875,436,450.66668701171875,490.66668701171875,541.3333740234375,557.3333740234375,590.6666870117188,611.3333740234375,654.6666870117188,698.6666870117188],"ymouse":[831.3333740234375,831.3333740234375,831.3333740234375,831.3333740234375,831.3333740234375,830,830,830,830,830,830,830,830,830,830,830,830,830,830,830,830,831.3333740234375,831.3333740234375,831.3333740234375,831.3333740234375,833.3333740234375,834,834,834,834,834,834,834,834,834,833.3333740234375,833.3333740234375,833.3333740234375,833.3333740234375,833.3333740234375,833.3333740234375,833.3333740234375,833.3333740234375,833.3333740234375,833.3333740234375,832.6666870117188,832.6666870117188,832.6666870117188,832.6666870117188,832.6666870117188,832.6666870117188,832.6666870117188,832.6666870117188,832.6666870117188,832.6666870117188,824.6666870117188,824.6666870117188,798.6666870117188,741.3333740234375,698,601.3333740234375,462,415.3333435058594,319.3333435058594,270,175.33334350585938,75.33333587646484],"timestamp_mouse":[30,45,65,85,105,125,145,165,185,205,225,245,266,285,305,327,345,365,385,405,425,445,465,485,505,525,545,565,585,605,625,645,666,685,705,725,745,765,785,805,825,845,865,885,905,925,945,965,985,1005,1025,1045,1065,1085,1105,1125,1145,1165,1186,1205,1225,1246,1265,1285,1305,1325,1345],"xSR":350,"ySR":768,"xT1":30,"yT1":0,"xT2":670,"yT2":0,"toosoon":0,"cond_shown":"equaldotanddens","ratio_trial":750,"smaller_num":"9","larger_num":"12","correct_side":2,"subjID":"46wmb","gender":"No_gender","age":"No_age","school":"No_school"},{"start_time":1549382090133,"click_time":1549382091404,"finger_time":1549382091203,"fix_duration":790.8772752551054,"trial":5,"RT":1070,"MT":201,"sideResp":1,"stimulus":"img/750/equaldotanddens/R/11_Ratio_750_L_12_R_16.png","xmouse":[390,390,390,389.3333435058594,389.3333435058594,389.3333435058594,389.3333435058594,389.3333435058594,389.3333435058594,389.3333435058594,390,390,390,390,390,390,390,390,390,390,394.66668701171875,394.66668701171875,394.66668701171875,394.66668701171875,394.66668701171875,394.66668701171875,394.66668701171875,394.66668701171875,394.66668701171875,394.66668701171875,396,396,396,396,396,396,396,396,396,396,398,398,398,398,398,398,398,398,398.66668701171875,398.66668701171875,398,396,393.3333435058594,366,358.66668701171875,351.3333435058594,330,316.66668701171875,268.66668701171875,233.33334350585938,218.6666717529297,187.33334350585938,171.33334350585938,112.66667175292969],"ymouse":[855.3333740234375,855.3333740234375,855.3333740234375,856.6666870117188,856.6666870117188,856,856,856,856,856,851.3333740234375,851.3333740234375,851.3333740234375,851.3333740234375,851.3333740234375,851.3333740234375,851.3333740234375,851.3333740234375,851.3333740234375,851.3333740234375,849.3333740234375,849.3333740234375,849.3333740234375,849.3333740234375,849.3333740234375,849.3333740234375,849.3333740234375,849.3333740234375,849.3333740234375,849.3333740234375,848,848,848,848,848,848,848,848,848,848,846.6666870117188,846.6666870117188,846.6666870117188,846.6666870117188,846.6666870117188,846.6666870117188,846.6666870117188,846.6666870117188,837.3333740234375,836,832.6666870117188,829.3333740234375,821.3333740234375,712.6666870117188,673.3333740234375,631.3333740234375,549.3333740234375,511.3333740234375,396,316,280.66668701171875,211.33334350585938,178,92.66667175292969],"timestamp_mouse":[11,31,48,68,88,108,128,149,170,188,208,228,248,268,288,308,328,348,369,388,408,428,448,468,489,508,528,549,568,588,608,629,648,668,688,708,728,748,768,788,808,828,848,869,888,908,928,948,970,988,1008,1028,1048,1070,1088,1108,1128,1148,1170,1188,1208,1228,1248,1270],"xSR":350,"ySR":768,"xT1":30,"yT1":0,"xT2":670,"yT2":0,"toosoon":0,"cond_shown":"equaldotanddens","ratio_trial":750,"smaller_num":"12","larger_num":"16","correct_side":2,"subjID":"46wmb","gender":"No_gender","age":"No_age","school":"No_school"},{"start_time":1549382092856,"click_time":1549382093461,"finger_time":1549382093321,"fix_duration":632.568377945096,"trial":6,"RT":465,"MT":140,"sideResp":2,"stimulus":"img/500/equaldotanddens/L/8_Ratio_500_L_8_R_4.png","xmouse":[400,400,400,400,400,400,400,400,400,400,400,400,400,400,400,400,400,400,400,400,400,400,400,435.3333435058594,456,508,536.6666870117188,592.6666870117188,674,700,753.3333740234375],"ymouse":[842,842,842,842,842,842,842,842,839.3333740234375,839.3333740234375,839.3333740234375,839.3333740234375,839.3333740234375,839.3333740234375,839.3333740234375,839.3333740234375,839.3333740234375,839.3333740234375,838.6666870117188,838.6666870117188,838.6666870117188,838.6666870117188,838.6666870117188,713.3333740234375,652.6666870117188,519.3333740234375,452.66668701171875,326.66668701171875,162,116.66667175292969,37.333335876464844],"timestamp_mouse":[6,29,46,65,85,105,125,145,165,185,205,225,245,265,285,305,325,345,365,385,405,425,446,465,485,505,525,545,565,585,605],"xSR":350,"ySR":768,"xT1":30,"yT1":0,"xT2":670,"yT2":0,"toosoon":0,"cond_shown":"equaldotanddens","ratio_trial":500,"smaller_num":"4","larger_num":"8","correct_side":1,"subjID":"46wmb","gender":"No_gender","age":"No_age","school":"No_school"},{"start_time":1549382095521,"click_time":1549382096582,"finger_time":1549382096461,"fix_duration":633.957358007624,"trial":7,"RT":940,"MT":121,"sideResp":2,"stimulus":"img/500/equaldotsize/R/9_Ratio_500_L_2_R_4.png","xmouse":[405.3333435058594,405.3333435058594,405.3333435058594,405.3333435058594,405.3333435058594,405.3333435058594,405.3333435058594,405.3333435058594,405.3333435058594,405.3333435058594,404.66668701171875,404.66668701171875,404.66668701171875,404.66668701171875,404.66668701171875,404.66668701171875,404.66668701171875,404.66668701171875,404.66668701171875,404.66668701171875,404,404,404,404,404,404,404,404,404,404,403.3333435058594,403.3333435058594,403.3333435058594,403.3333435058594,403.3333435058594,403.3333435058594,403.3333435058594,403.3333435058594,403.3333435058594,403.3333435058594,402.66668701171875,402.66668701171875,402.66668701171875,402.66668701171875,402.66668701171875,402.66668701171875,402.66668701171875,458,479.3333435058594,533.3333740234375,564,644.6666870117188,689.3333740234375,710.6666870117188],"ymouse":[822.6666870117188,822.6666870117188,822.6666870117188,822.6666870117188,822.6666870117188,822.6666870117188,822.6666870117188,822.6666870117188,822.6666870117188,822.6666870117188,823.3333740234375,823.3333740234375,823.3333740234375,823.3333740234375,823.3333740234375,823.3333740234375,823.3333740234375,823.3333740234375,823.3333740234375,823.3333740234375,824.6666870117188,824.6666870117188,824.6666870117188,824.6666870117188,824.6666870117188,824.6666870117188,824.6666870117188,824.6666870117188,824.6666870117188,824.6666870117188,825.3333740234375,825.3333740234375,825.3333740234375,825.3333740234375,825.3333740234375,825.3333740234375,825.3333740234375,825.3333740234375,825.3333740234375,825.3333740234375,825.3333740234375,825.3333740234375,825.3333740234375,825.3333740234375,825.3333740234375,825.3333740234375,825.3333740234375,622.6666870117188,562,434.66668701171875,370.66668701171875,207.33334350585938,122,85.33333587646484],"timestamp_mouse":[3,23,40,60,80,100,120,140,160,180,200,220,240,260,280,300,320,340,360,380,400,420,440,460,480,500,520,540,560,580,600,620,641,661,680,700,720,740,760,780,800,820,840,860,880,900,921,940,960,980,1000,1021,1040,1060],"xSR":350,"ySR":768,"xT1":30,"yT1":0,"xT2":670,"yT2":0,"toosoon":0,"cond_shown":"equaldotsize","ratio_trial":500,"smaller_num":"2","larger_num":"4","correct_side":2,"subjID":"46wmb","gender":"No_gender","age":"No_age","school":"No_school"},{"start_time":1549382098781,"click_time":1549382099402,"finger_time":1549382099281,"fix_duration":858.5112976878223,"trial":8,"RT":500,"MT":121,"sideResp":2,"stimulus":"img/750/equaldotsize/R/11_Ratio_750_L_12_R_16.png","xmouse":[412.66668701171875,412.66668701171875,412.66668701171875,412.66668701171875,412.66668701171875,412.66668701171875,412.66668701171875,412.66668701171875,412.66668701171875,412.66668701171875,412.66668701171875,412.66668701171875,412.66668701171875,412.66668701171875,412.66668701171875,412.66668701171875,412.66668701171875,412.66668701171875,412.66668701171875,412.66668701171875,412.66668701171875,412.66668701171875,412.66668701171875,412.66668701171875,412.66668701171875,451.3333435058594,487.3333435058594,510,536,654,679.3333740234375,720],"ymouse":[816.6666870117188,816.6666870117188,816.6666870117188,816.6666870117188,816.6666870117188,816.6666870117188,816.6666870117188,816.6666870117188,816.6666870117188,816.6666870117188,817.3333740234375,817.3333740234375,817.3333740234375,817.3333740234375,817.3333740234375,817.3333740234375,817.3333740234375,817.3333740234375,817.3333740234375,817.3333740234375,818,818,818,818,818,673.3333740234375,543.3333740234375,473.3333435058594,406,184.6666717529297,148.6666717529297,98.66667175292969],"timestamp_mouse":[1,30,40,61,80,100,120,140,160,180,200,220,240,260,281,300,320,340,360,380,400,420,440,460,480,500,520,540,560,581,600,620],"xSR":350,"ySR":768,"xT1":30,"yT1":0,"xT2":670,"yT2":0,"toosoon":0,"cond_shown":"equaldotsize","ratio_trial":750,"smaller_num":"12","larger_num":"16","correct_side":2,"subjID":"46wmb","gender":"No_gender","age":"No_age","school":"No_school"},{"start_time":1549382101884,"click_time":1549382102901,"finger_time":1549382102741,"fix_duration":982.2711639045853,"trial":9,"RT":857,"MT":160,"sideResp":1,"stimulus":"img/500/equaldotanddens/L/4_Ratio_500_L_18_R_9.png","xmouse":[399.3333435058594,399.3333435058594,399.3333435058594,399.3333435058594,398.66668701171875,398.66668701171875,398.66668701171875,398.66668701171875,398.66668701171875,398.66668701171875,398.66668701171875,398.66668701171875,398.66668701171875,398.66668701171875,399.3333435058594,399.3333435058594,399.3333435058594,399.3333435058594,399.3333435058594,399.3333435058594,399.3333435058594,399.3333435058594,399.3333435058594,399.3333435058594,398.66668701171875,398.66668701171875,398.66668701171875,398.66668701171875,398.66668701171875,398.66668701171875,398.66668701171875,398.66668701171875,398.66668701171875,398.66668701171875,398,398,398,398,396.66668701171875,395.3333435058594,385.3333435058594,385.3333435058594,349.3333435058594,330,274,231.33334350585938,214,176.6666717529297,158,118.66667175292969,102],"ymouse":[838.6666870117188,838.6666870117188,838.6666870117188,838.6666870117188,840,840,840,840,840,840,840,840,840,840,841.3333740234375,841.3333740234375,841.3333740234375,841.3333740234375,841.3333740234375,841.3333740234375,841.3333740234375,841.3333740234375,841.3333740234375,841.3333740234375,839.3333740234375,839.3333740234375,839.3333740234375,839.3333740234375,839.3333740234375,839.3333740234375,839.3333740234375,839.3333740234375,839.3333740234375,839.3333740234375,836,836,836,836,835.3333740234375,832,814.6666870117188,814.6666870117188,738.6666870117188,689.3333740234375,567.3333740234375,465.3333435058594,443.3333435058594,358.66668701171875,314.66668701171875,177.33334350585938,93.33333587646484],"timestamp_mouse":[26,37,57,77,97,117,137,157,177,197,218,237,257,277,297,317,337,357,377,397,417,437,457,477,497,517,537,558,577,597,617,637,657,677,697,718,737,757,777,799,817,837,857,877,898,917,937,957,977,999,1017],"xSR":350,"ySR":768,"xT1":30,"yT1":0,"xT2":670,"yT2":0,"toosoon":0,"cond_shown":"equaldotanddens","ratio_trial":500,"smaller_num":"9","larger_num":"18","correct_side":1,"subjID":"46wmb","gender":"No_gender","age":"No_age","school":"No_school"},{"start_time":1549382103990,"click_time":1549382105705,"finger_time":1549382104901,"fix_duration":328.84819447447234,"trial":10,"RT":911,"MT":804,"sideResp":2,"stimulus":"img/900/equaldotsize/R/6_Ratio_900_L_9_R_10.png","xmouse":[401.3333435058594,401.3333435058594,401.3333435058594,401.3333435058594,401.3333435058594,401.3333435058594,400,400,400,400,400,400,400,400,400,400,400,400,400,400,400,400,400,400,400,400,399.3333435058594,399.3333435058594,399.3333435058594,396,396,396,396,388,387.3333435058594,386,386,386.66668701171875,386.66668701171875,387.3333435058594,388.66668701171875,390.66668701171875,390.66668701171875,390.66668701171875,396.66668701171875,414.66668701171875,432,442,459.3333435058594,471.3333435058594,540,602.6666870117188,629.3333740234375,682.6666870117188,708,766.6666870117188,782.6666870117188,784,786,786.6666870117188,788.6666870117188,788.6666870117188,788.6666870117188,788,788,785.3333740234375,785.3333740234375,785.3333740234375,785.3333740234375,785.3333740234375,785.3333740234375,785.3333740234375,785.3333740234375,785.3333740234375,785.3333740234375,785.3333740234375,785.3333740234375,785.3333740234375,785.3333740234375,785.3333740234375,785.3333740234375,785.3333740234375,785.3333740234375,785.3333740234375,785.3333740234375,716],"ymouse":[835.3333740234375,835.3333740234375,835.3333740234375,835.3333740234375,835.3333740234375,835.3333740234375,837.3333740234375,837.3333740234375,837.3333740234375,837.3333740234375,837.3333740234375,837.3333740234375,837.3333740234375,837.3333740234375,837.3333740234375,837.3333740234375,838,838,838,838,838,838,838,838,838,838,837.3333740234375,837.3333740234375,837.3333740234375,836,836,836,836,826.6666870117188,824.6666870117188,820,818,816.6666870117188,816,816,816.6666870117188,816.6666870117188,816.6666870117188,816.6666870117188,804.6666870117188,715.3333740234375,640,603.3333740234375,541.3333740234375,506,374.66668701171875,286,254.66668701171875,191.33334350585938,163.33334350585938,104.66667175292969,80,74.66667175292969,67.33333587646484,65.33333587646484,64.66667175292969,64.66667175292969,64.66667175292969,75.33333587646484,75.33333587646484,82,82,82,82,82,82,82,82,82,82,82,82,82,82,82,82,82,82,82,82,53.333335876464844],"timestamp_mouse":[28,32,51,71,91,111,131,151,171,191,212,231,251,272,291,311,331,351,371,391,411,431,452,471,491,511,531,551,571,593,611,631,651,671,691,712,731,751,771,791,813,831,851,871,891,911,931,951,971,992,1011,1031,1051,1071,1091,1113,1132,1151,1171,1191,1213,1232,1252,1271,1291,1311,1331,1351,1372,1392,1412,1431,1452,1471,1491,1511,1531,1551,1571,1592,1611,1631,1651,1671,1691,1715],"xSR":350,"ySR":768,"xT1":30,"yT1":0,"xT2":670,"yT2":0,"toosoon":0,"cond_shown":"equaldotsize","ratio_trial":900,"smaller_num":"9","larger_num":"10","correct_side":2,"subjID":"46wmb","gender":"No_gender","age":"No_age","school":"No_school"},{"start_time":1549382107313,"click_time":1549382108524,"finger_time":1549382108241,"fix_duration":530.9129083943272,"trial":11,"RT":928,"MT":283,"sideResp":2,"stimulus":"img/500/randomdotsizeEA/R/15_Ratio_500_L_1_R_2.png","xmouse":[400,400,400,400,400,398,398,398,398,398,397.3333435058594,397.3333435058594,397.3333435058594,397.3333435058594,397.3333435058594,397.3333435058594,396.66668701171875,396.66668701171875,396,396,396,396,396,396,396,396,396,396,395.3333435058594,395.3333435058594,395.3333435058594,395.3333435058594,395.3333435058594,395.3333435058594,395.3333435058594,395.3333435058594,395.3333435058594,395.3333435058594,394,394,394,394,394,394,394,394,376.66668701171875,374,373.3333435058594,375.3333435058594,384,404.66668701171875,420.66668701171875,458.66668701171875,475.3333435058594,531.3333740234375,574,598,646,665.3333740234375,704],"ymouse":[820.6666870117188,820.6666870117188,820.6666870117188,820.6666870117188,820.6666870117188,820.6666870117188,820.6666870117188,820.6666870117188,820.6666870117188,820.6666870117188,822,822.6666870117188,823.3333740234375,823.3333740234375,824,824.6666870117188,824.6666870117188,824.6666870117188,825.3333740234375,825.3333740234375,826,826,826.6666870117188,826.6666870117188,827.3333740234375,828,827.3333740234375,827.3333740234375,827.3333740234375,827.3333740234375,827.3333740234375,827.3333740234375,827.3333740234375,827.3333740234375,827.3333740234375,827.3333740234375,827.3333740234375,827.3333740234375,825.3333740234375,825.3333740234375,825.3333740234375,825.3333740234375,825.3333740234375,825.3333740234375,825.3333740234375,825.3333740234375,758.6666870117188,732.6666870117188,690,674,630.6666870117188,582,547.3333740234375,464.66668701171875,432,320.66668701171875,243.33334350585938,200.6666717529297,119.33334350585938,84,9.333333969116211],"timestamp_mouse":[11,36,48,68,88,108,128,148,168,188,208,228,250,268,288,308,328,349,368,388,408,429,448,468,488,508,528,548,568,588,608,629,648,668,688,708,728,748,769,788,808,829,848,868,888,909,928,948,968,988,1009,1028,1048,1068,1088,1110,1128,1148,1168,1189,1210],"xSR":350,"ySR":768,"xT1":30,"yT1":0,"xT2":670,"yT2":0,"toosoon":0,"cond_shown":"randomdotsizeEA","ratio_trial":500,"smaller_num":"1","larger_num":"2","correct_side":2,"subjID":"46wmb","gender":"No_gender","age":"No_age","school":"No_school"},{"start_time":1549382110579,"click_time":1549382112063,"finger_time":1549382111761,"fix_duration":1216.9485090990065,"trial":12,"RT":1182,"MT":302,"sideResp":1,"stimulus":"img/900/randomdotsizeEA/R/9_Ratio_900_L_18_R_20.png","xmouse":[383.3333435058594,383.3333435058594,383.3333435058594,383.3333435058594,383.3333435058594,383.3333435058594,383.3333435058594,383.3333435058594,383.3333435058594,383.3333435058594,380.66668701171875,380.66668701171875,380.66668701171875,380.66668701171875,380.66668701171875,380.66668701171875,380.66668701171875,380.66668701171875,380.66668701171875,380.66668701171875,378.66668701171875,378.66668701171875,378.66668701171875,378.66668701171875,378.66668701171875,378.66668701171875,378.66668701171875,378.66668701171875,378.66668701171875,378.66668701171875,378.66668701171875,378.66668701171875,378.66668701171875,378.66668701171875,378.66668701171875,378.66668701171875,378.66668701171875,378.66668701171875,378.66668701171875,378.66668701171875,377.3333435058594,377.3333435058594,377.3333435058594,377.3333435058594,377.3333435058594,376,376,376,376,376,375.3333435058594,375.3333435058594,375.3333435058594,375.3333435058594,375.3333435058594,375.3333435058594,375.3333435058594,375.3333435058594,354,343.3333435058594,338.66668701171875,329.3333435058594,324,312.66668701171875,297.3333435058594,290,278,254.66668701171875,220.6666717529297,209.33334350585938,188,177.33334350585938,155.33334350585938,145.33334350585938,120.66667175292969],"ymouse":[839.3333740234375,839.3333740234375,839.3333740234375,839.3333740234375,839.3333740234375,839.3333740234375,839.3333740234375,839.3333740234375,839.3333740234375,839.3333740234375,837.3333740234375,837.3333740234375,837.3333740234375,837.3333740234375,837.3333740234375,837.3333740234375,837.3333740234375,837.3333740234375,837.3333740234375,837.3333740234375,834.6666870117188,834.6666870117188,834.6666870117188,834.6666870117188,834.6666870117188,834.6666870117188,834.6666870117188,834.6666870117188,834.6666870117188,834.6666870117188,835.3333740234375,835.3333740234375,835.3333740234375,835.3333740234375,835.3333740234375,835.3333740234375,835.3333740234375,835.3333740234375,835.3333740234375,835.3333740234375,834.6666870117188,834.6666870117188,834.6666870117188,834.6666870117188,834.6666870117188,834,834,834,834,834,830,830,830,830,830,830,830,830,780.6666870117188,748,729.3333740234375,680.6666870117188,650,546,483.3333435058594,455.3333435058594,422,360,263.3333435058594,234,182.6666717529297,161.33334350585938,122.66667175292969,106,70.66667175292969],"timestamp_mouse":[2,29,42,65,82,102,122,142,162,182,202,222,242,263,282,302,322,342,362,382,402,422,442,462,482,502,522,542,563,582,603,622,642,664,682,702,722,742,762,782,802,822,842,862,882,902,922,943,963,982,1002,1022,1043,1062,1082,1102,1122,1142,1163,1182,1202,1222,1242,1264,1283,1302,1322,1342,1363,1383,1403,1422,1442,1462,1483],"xSR":350,"ySR":768,"xT1":30,"yT1":0,"xT2":670,"yT2":0,"toosoon":0,"cond_shown":"randomdotsizeEA","ratio_trial":900,"smaller_num":"18","larger_num":"20","correct_side":2,"subjID":"46wmb","gender":"No_gender","age":"No_age","school":"No_school"},{"start_time":1549382113648,"click_time":1549382114684,"finger_time":1549382114462,"fix_duration":339.8429043921123,"trial":13,"RT":814,"MT":222,"sideResp":2,"stimulus":"img/900/equaldotanddens/L/2_Ratio_900_L_20_R_18.png","xmouse":[383.3333435058594,383.3333435058594,381.3333435058594,381.3333435058594,381.3333435058594,381.3333435058594,381.3333435058594,381.3333435058594,381.3333435058594,381.3333435058594,381.3333435058594,380.66668701171875,380.66668701171875,380.66668701171875,380.66668701171875,380.66668701171875,380.66668701171875,380.66668701171875,380.66668701171875,380.66668701171875,380.66668701171875,384,384,384,384,384,384,384,384,384,384,384.66668701171875,384.66668701171875,384.66668701171875,385.3333435058594,385.3333435058594,385.3333435058594,386,386.66668701171875,394,399.3333435058594,417.3333435058594,432,444,474,492,548.6666870117188,580,593.3333740234375,623.3333740234375,640,672.6666870117188,712.6666870117188],"ymouse":[852.6666870117188,852.6666870117188,850,850,850,850,850,850,850,850.6666870117188,850.6666870117188,850,850,850,850,850,850,850,850,850,850,839.3333740234375,839.3333740234375,839.3333740234375,839.3333740234375,839.3333740234375,839.3333740234375,839.3333740234375,839.3333740234375,839.3333740234375,839.3333740234375,835.3333740234375,835.3333740234375,835.3333740234375,833.3333740234375,832.6666870117188,830.6666870117188,828.6666870117188,825.3333740234375,798.6666870117188,777.3333740234375,712.6666870117188,661.3333740234375,630,564.6666870117188,531.3333740234375,423.3333435058594,354.66668701171875,322.66668701171875,254,220,161.33334350585938,85.33333587646484],"timestamp_mouse":[9,26,48,53,73,93,113,133,153,173,193,213,234,253,273,293,315,333,353,373,393,413,433,453,473,493,514,533,553,573,593,613,633,653,673,694,714,733,753,773,793,814,834,854,873,893,915,933,953,973,993,1014,1036],"xSR":350,"ySR":768,"xT1":30,"yT1":0,"xT2":670,"yT2":0,"toosoon":0,"cond_shown":"equaldotanddens","ratio_trial":900,"smaller_num":"18","larger_num":"20","correct_side":1,"subjID":"46wmb","gender":"No_gender","age":"No_age","school":"No_school"},{"start_time":1549382117712,"click_time":1549382119305,"finger_time":1549382118904,"fix_duration":250,"trial":14,"RT":1192,"MT":401,"sideResp":2,"stimulus":"img/750/randomdotsizeEA/L/14_Ratio_750_L_8_R_6.png","xmouse":[400.66668701171875,400.66668701171875,400.66668701171875,400,399.3333435058594,398.66668701171875,398,398,398,398.66668701171875,398.66668701171875,398.66668701171875,398.66668701171875,398.66668701171875,398.66668701171875,398.66668701171875,398.66668701171875,398.66668701171875,398.66668701171875,398.66668701171875,399.3333435058594,399.3333435058594,399.3333435058594,399.3333435058594,399.3333435058594,399.3333435058594,399.3333435058594,399.3333435058594,399.3333435058594,399.3333435058594,400,400,400,400,400,400,400,400,400,400,400.66668701171875,400.66668701171875,400.66668701171875,400.66668701171875,400.66668701171875,400.66668701171875,400.66668701171875,400.66668701171875,400.66668701171875,400.66668701171875,400,400,400,400,400,400,400,404,405.3333435058594,423.3333435058594,439.3333435058594,448,472.66668701171875,491.3333435058594,546.6666870117188,574.6666870117188,585.3333740234375,612,624,640.6666870117188,646.6666870117188,650.6666870117188,658,660.6666870117188,666.6666870117188,672,675.3333740234375,682,686,704.6666870117188],"ymouse":[849.3333740234375,848,848,847.3333740234375,847.3333740234375,846.6666870117188,846.6666870117188,846,846.6666870117188,846.6666870117188,847.3333740234375,847.3333740234375,847.3333740234375,847.3333740234375,847.3333740234375,847.3333740234375,847.3333740234375,847.3333740234375,847.3333740234375,847.3333740234375,850,850,850,850,850,850,850,850,850,850,856.6666870117188,856.6666870117188,856.6666870117188,856.6666870117188,856.6666870117188,856.6666870117188,856.6666870117188,856.6666870117188,856.6666870117188,856.6666870117188,852.6666870117188,852.6666870117188,852.6666870117188,852.6666870117188,852.6666870117188,852.6666870117188,852.6666870117188,852.6666870117188,852.6666870117188,852.6666870117188,848.6666870117188,848.6666870117188,848.6666870117188,848.6666870117188,848.6666870117188,848.6666870117188,848.6666870117188,833.3333740234375,824.6666870117188,761.3333740234375,717.3333740234375,698.6666870117188,646,607.3333740234375,473.3333435058594,396.66668701171875,368.66668701171875,311.3333435058594,284.66668701171875,226.6666717529297,195.33334350585938,183.33334350585938,165.33334350585938,158,144.6666717529297,138.6666717529297,136,129.33334350585938,124.66667175292969,88],"timestamp_mouse":[10,33,50,69,89,109,129,149,172,189,209,229,249,269,289,309,329,350,370,389,409,429,450,470,489,509,529,549,569,589,609,629,649,669,689,709,729,749,769,789,809,830,849,869,889,909,929,949,969,990,1011,1029,1049,1069,1091,1109,1129,1149,1169,1192,1209,1229,1249,1269,1290,1309,1329,1349,1369,1390,1409,1429,1449,1469,1492,1509,1529,1549,1570,1592],"xSR":350,"ySR":768,"xT1":30,"yT1":0,"xT2":670,"yT2":0,"toosoon":0,"cond_shown":"randomdotsizeEA","ratio_trial":750,"smaller_num":"6","larger_num":"8","correct_side":1,"subjID":"46wmb","gender":"No_gender","age":"No_age","school":"No_school"},{"start_time":1549382121482,"click_time":1549382122601,"finger_time":1549382122409,"fix_duration":960.5788436613994,"trial":15,"RT":927,"MT":192,"sideResp":2,"stimulus":"img/900/randomdotsizeEA/R/5_Ratio_900_L_9_R_10.png","xmouse":[368.66668701171875,368.66668701171875,368.66668701171875,368.66668701171875,366,366,366,366,366,366,366.66668701171875,366.66668701171875,366.66668701171875,367.3333435058594,368,368,368.66668701171875,368.66668701171875,369.3333435058594,370,370,371.3333435058594,371.3333435058594,371.3333435058594,371.3333435058594,371.3333435058594,371.3333435058594,371.3333435058594,371.3333435058594,371.3333435058594,371.3333435058594,371.3333435058594,374,374,374,374,374,374,374,374,374,374,374,374,374,402,413.3333435058594,428.66668701171875,464.66668701171875,486.66668701171875,532.6666870117188,606,628.6666870117188,678,700,736],"ymouse":[836.6666870117188,836.6666870117188,836.6666870117188,836.6666870117188,834,834,834,834,834,834,836,836,836,837.3333740234375,839.3333740234375,839.3333740234375,840,840.6666870117188,841.3333740234375,841.3333740234375,841.3333740234375,840.6666870117188,840,840,840,840,840,840,840,840,840,840,830.6666870117188,830.6666870117188,830.6666870117188,830.6666870117188,830.6666870117188,830.6666870117188,830.6666870117188,830.6666870117188,830.6666870117188,830.6666870117188,826.6666870117188,826.6666870117188,826.6666870117188,694,652.6666870117188,610,522.6666870117188,474.66668701171875,382,248,209.33334350585938,138,108.66667175292969,68.66667175292969],"timestamp_mouse":[19,40,59,79,99,119,141,160,179,199,220,240,259,279,311,319,339,359,379,399,419,441,459,479,499,519,539,559,579,599,619,639,659,679,699,719,739,759,779,799,819,840,863,879,899,927,942,959,979,999,1019,1041,1059,1079,1099,1119],"xSR":350,"ySR":768,"xT1":30,"yT1":0,"xT2":670,"yT2":0,"toosoon":0,"cond_shown":"randomdotsizeEA","ratio_trial":900,"smaller_num":"9","larger_num":"10","correct_side":2,"subjID":"46wmb","gender":"No_gender","age":"No_age","school":"No_school"},{"start_time":1549382124733,"click_time":1549382126042,"finger_time":1549382125681,"fix_duration":771.5029194370418,"trial":16,"RT":948,"MT":361,"sideResp":1,"stimulus":"img/250/randomdotsizeEA/L/1_Ratio_250_L_8_R_2.png","xmouse":[400.66668701171875,401.3333435058594,402,402,402.66668701171875,403.3333435058594,404,404.66668701171875,405.3333435058594,406,406,407.3333435058594,407.3333435058594,407.3333435058594,407.3333435058594,407.3333435058594,407.3333435058594,407.3333435058594,407.3333435058594,407.3333435058594,407.3333435058594,406,406,406,406,406,406,406,406,406,406,400.66668701171875,400.66668701171875,400.66668701171875,397.3333435058594,396.66668701171875,396,396,395.3333435058594,395.3333435058594,395.3333435058594,395.3333435058594,395.3333435058594,395.3333435058594,394,393.3333435058594,392,391.3333435058594,391.3333435058594,390.66668701171875,384,376,370,353.3333435058594,333.3333435058594,310.66668701171875,287.3333435058594,275.3333435058594,246.6666717529297,230.6666717529297,180,148,134.6666717529297,110.66667175292969,101.33333587646484],"ymouse":[837.3333740234375,838.6666870117188,839.3333740234375,840,840,840.6666870117188,840.6666870117188,840.6666870117188,840.6666870117188,841.3333740234375,841.3333740234375,840.6666870117188,840,840,840,840,840,840,840,840,840,837.3333740234375,837.3333740234375,837.3333740234375,837.3333740234375,837.3333740234375,837.3333740234375,837.3333740234375,837.3333740234375,837.3333740234375,837.3333740234375,825.3333740234375,825.3333740234375,825.3333740234375,820,818,817.3333740234375,816,813.3333740234375,809.3333740234375,808,805.3333740234375,804.6666870117188,802,789.3333740234375,782,752.6666870117188,735.3333740234375,701.3333740234375,683.3333740234375,620.6666870117188,576.6666870117188,554,506,456,400.66668701171875,342,312.66668701171875,258,232.6666717529297,172,140,126,102.66667175292969,92.66667175292969],"timestamp_mouse":[29,48,68,88,108,128,148,168,188,209,228,249,268,288,311,328,348,368,388,411,428,448,468,488,508,528,549,568,589,608,629,648,668,688,710,728,748,768,788,809,828,848,868,888,909,928,948,968,988,1008,1028,1048,1068,1088,1108,1129,1148,1168,1188,1208,1229,1248,1268,1288,1308],"xSR":350,"ySR":768,"xT1":30,"yT1":0,"xT2":670,"yT2":0,"toosoon":0,"cond_shown":"randomdotsizeEA","ratio_trial":250,"smaller_num":"2","larger_num":"8","correct_side":1,"subjID":"46wmb","gender":"No_gender","age":"No_age","school":"No_school"},{"start_time":1549382128328,"click_time":1549382128982,"finger_time":1549382128801,"fix_duration":1144.1499227762772,"trial":17,"RT":473,"MT":181,"sideResp":2,"stimulus":"img/500/randomdotsize/R/2_Ratio_500_L_3_R_6.png","xmouse":[406.66668701171875,406.66668701171875,406,406,405.3333435058594,405.3333435058594,404.66668701171875,404.66668701171875,404.66668701171875,404.66668701171875,405.3333435058594,405.3333435058594,405.3333435058594,405.3333435058594,405.3333435058594,405.3333435058594,405.3333435058594,405.3333435058594,405.3333435058594,405.3333435058594,405.3333435058594,405.3333435058594,405.3333435058594,410.66668701171875,410.66668701171875,410.66668701171875,449.3333435058594,499.3333435058594,525.3333740234375,576,602.6666870117188,662.6666870117188,688],"ymouse":[840.6666870117188,840.6666870117188,840,839.3333740234375,838.6666870117188,838.6666870117188,837.3333740234375,836.6666870117188,836.6666870117188,836,836,836,836,835.3333740234375,835.3333740234375,835.3333740234375,835.3333740234375,835.3333740234375,835.3333740234375,835.3333740234375,835.3333740234375,835.3333740234375,835.3333740234375,750.6666870117188,750.6666870117188,750.6666870117188,580.6666870117188,430.66668701171875,373.3333435058594,263.3333435058594,207.33334350585938,94.66667175292969,54],"timestamp_mouse":[13,33,53,73,93,113,135,153,173,193,214,233,253,273,294,313,333,353,373,393,413,436,453,473,493,513,533,555,573,593,613,635,653],"xSR":350,"ySR":768,"xT1":30,"yT1":0,"xT2":670,"yT2":0,"toosoon":0,"cond_shown":"randomdotsize","ratio_trial":500,"smaller_num":"3","larger_num":"6","correct_side":2,"subjID":"46wmb","gender":"No_gender","age":"No_age","school":"No_school"},{"start_time":1549382131402,"click_time":1549382132162,"finger_time":1549382132001,"fix_duration":1130.408672358257,"trial":18,"RT":599,"MT":161,"sideResp":2,"stimulus":"img/500/randomdotsize/R/12_Ratio_500_L_1_R_2.png","xmouse":[383,383,383,383,383,383,383,383,383,383,383,383,383,383,383,383,383,383,383,383,383,383,383,383,383,383,383,386.66668701171875,394.66668701171875,394.66668701171875,453.3333435058594,485.3333435058594,501.3333435058594,542,566.6666870117188,644.6666870117188,686.6666870117188,686.6666870117188,725.3333740234375],"ymouse":[837,837,837,837,837,837,837,837,837,837,837,837,837,837,837,837,837,837,837,837,837,837,837,837,837,837,837,828,800,800,641.3333740234375,544,488.66668701171875,373.3333435058594,316.66668701171875,168,103.33333587646484,103.33333587646484,49.333335876464844],"timestamp_mouse":[6,39,39,59,79,99,119,139,160,180,199,219,240,259,279,299,319,339,359,379,399,419,439,459,479,499,519,539,559,579,599,620,639,659,679,699,719,739,759],"xSR":350,"ySR":768,"xT1":30,"yT1":0,"xT2":670,"yT2":0,"toosoon":0,"cond_shown":"randomdotsize","ratio_trial":500,"smaller_num":"1","larger_num":"2","correct_side":2,"subjID":"46wmb","gender":"No_gender","age":"No_age","school":"No_school"},{"start_time":1549382133734,"click_time":1549382134461,"finger_time":1549382134261,"fix_duration":251.30856351209175,"trial":19,"RT":527,"MT":200,"sideResp":1,"stimulus":"img/250/randomdotsize/L/3_Ratio_250_L_8_R_2.png","xmouse":[400.66668701171875,400.66668701171875,400.66668701171875,400.66668701171875,400.66668701171875,400.66668701171875,401.3333435058594,401.3333435058594,401.3333435058594,401.3333435058594,401.3333435058594,401.3333435058594,401.3333435058594,401.3333435058594,401.3333435058594,401.3333435058594,401.3333435058594,401.3333435058594,401.3333435058594,400.66668701171875,400.66668701171875,400.66668701171875,400.66668701171875,400.66668701171875,400.66668701171875,400.66668701171875,345.3333435058594,330.66668701171875,298.66668701171875,242,223.33334350585938,190,176,138,114.66667175292969,105.33333587646484,92],"ymouse":[829.3333740234375,829.3333740234375,829.3333740234375,829.3333740234375,829.3333740234375,829.3333740234375,829.3333740234375,829.3333740234375,829.3333740234375,829.3333740234375,829.3333740234375,829.3333740234375,829.3333740234375,829.3333740234375,829.3333740234375,829.3333740234375,829.3333740234375,829.3333740234375,829.3333740234375,829.3333740234375,829.3333740234375,829.3333740234375,829.3333740234375,829.3333740234375,829.3333740234375,829.3333740234375,708,672.6666870117188,591.3333740234375,458.66668701171875,412.66668701171875,319.3333435058594,274.66668701171875,170,120.66667175292969,101.33333587646484,75.33333587646484],"timestamp_mouse":[8,33,47,67,87,107,128,147,167,187,207,228,247,268,288,307,327,347,367,388,407,427,448,467,487,507,527,547,567,587,607,627,647,670,688,708,727],"xSR":350,"ySR":768,"xT1":30,"yT1":0,"xT2":670,"yT2":0,"toosoon":0,"cond_shown":"randomdotsize","ratio_trial":250,"smaller_num":"2","larger_num":"8","correct_side":1,"subjID":"46wmb","gender":"No_gender","age":"No_age","school":"No_school"},{"start_time":1549382136161,"click_time":1549382136801,"finger_time":1549382136701,"fix_duration":1018.9839475735616,"trial":20,"RT":540,"MT":100,"sideResp":2,"stimulus":"img/250/randomdotsizeEA/R/4_Ratio_250_L_3_R_12.png","xmouse":[403.3333435058594,403.3333435058594,403.3333435058594,403.3333435058594,403.3333435058594,403.3333435058594,403.3333435058594,403.3333435058594,400.66668701171875,400.66668701171875,400.66668701171875,400.66668701171875,400.66668701171875,400.66668701171875,400.66668701171875,400.66668701171875,400.66668701171875,400.66668701171875,400,400,400,400,400,400,400,400,400,457.3333435058594,478.66668701171875,556,608,633.3333740234375,679.3333740234375],"ymouse":[827.3333740234375,827.3333740234375,827.3333740234375,827.3333740234375,827.3333740234375,827.3333740234375,827.3333740234375,827.3333740234375,824,824,824,823.3333740234375,823.3333740234375,823.3333740234375,823.3333740234375,823.3333740234375,823.3333740234375,823.3333740234375,824,824,823.3333740234375,823.3333740234375,823.3333740234375,823.3333740234375,823.3333740234375,823.3333740234375,823.3333740234375,605.3333740234375,550.6666870117188,364.66668701171875,234.6666717529297,171.33334350585938,59.333335876464844],"timestamp_mouse":[2,29,40,62,80,100,120,141,162,180,200,220,240,260,280,300,320,340,362,380,400,420,441,460,480,500,520,540,561,580,600,621,640],"xSR":350,"ySR":768,"xT1":30,"yT1":0,"xT2":670,"yT2":0,"toosoon":0,"cond_shown":"randomdotsizeEA","ratio_trial":250,"smaller_num":"3","larger_num":"12","correct_side":2,"subjID":"46wmb","gender":"No_gender","age":"No_age","school":"No_school"},{"start_time":1549382139713,"click_time":1549382140762,"finger_time":1549382140642,"fix_duration":1430.5242695108452,"trial":21,"RT":929,"MT":120,"sideResp":2,"stimulus":"img/900/equaldotanddens/R/9_Ratio_900_L_18_R_20.png","xmouse":[408.66668701171875,407.3333435058594,407.3333435058594,407.3333435058594,407.3333435058594,407.3333435058594,407.3333435058594,407.3333435058594,407.3333435058594,407.3333435058594,407.3333435058594,406.66668701171875,406.66668701171875,406.66668701171875,406.66668701171875,406.66668701171875,406.66668701171875,406.66668701171875,406.66668701171875,406.66668701171875,406.66668701171875,405.3333435058594,405.3333435058594,405.3333435058594,405.3333435058594,405.3333435058594,405.3333435058594,405.3333435058594,405.3333435058594,405.3333435058594,405.3333435058594,404.66668701171875,404.66668701171875,404.66668701171875,404.66668701171875,404.66668701171875,404.66668701171875,404.66668701171875,404.66668701171875,404.66668701171875,404.66668701171875,403.3333435058594,403.3333435058594,403.3333435058594,403.3333435058594,403.3333435058594,440.66668701171875,494.66668701171875,539.3333740234375,564,616.6666870117188,642,712],"ymouse":[825.3333740234375,825.3333740234375,825.3333740234375,825.3333740234375,825.3333740234375,825.3333740234375,825.3333740234375,825.3333740234375,825.3333740234375,825.3333740234375,825.3333740234375,826,826,826,826,826,826,826,826,826,826,826.6666870117188,826.6666870117188,826.6666870117188,826.6666870117188,826.6666870117188,826.6666870117188,826.6666870117188,826.6666870117188,826.6666870117188,826.6666870117188,827.3333740234375,827.3333740234375,827.3333740234375,827.3333740234375,827.3333740234375,827.3333740234375,827.3333740234375,827.3333740234375,827.3333740234375,827.3333740234375,826,826,826,826,826,692.6666870117188,553.3333740234375,440.66668701171875,377.3333435058594,249.33334350585938,189.33334350585938,36],"timestamp_mouse":[11,31,48,68,89,109,128,148,168,188,208,228,249,268,288,308,328,348,368,389,408,428,451,469,488,508,529,548,568,589,608,628,648,668,688,708,728,748,768,788,808,828,848,868,888,908,929,948,968,988,1008,1028,1048],"xSR":350,"ySR":768,"xT1":30,"yT1":0,"xT2":670,"yT2":0,"toosoon":0,"cond_shown":"equaldotanddens","ratio_trial":900,"smaller_num":"18","larger_num":"20","correct_side":2,"subjID":"46wmb","gender":"No_gender","age":"No_age","school":"No_school"},{"start_time":1549382144295,"click_time":1549382145322,"finger_time":1549382144982,"fix_duration":893.8182238354678,"trial":22,"RT":687,"MT":340,"sideResp":1,"stimulus":"img/750/equaldotsize/R/2_Ratio_750_L_6_R_8.png","xmouse":[400,400,400,400,400,400,400,400,400,400,400,400,400,400,400,400,400,400,400,400,400,400,400,400,400,400,400,400,400,400,400,400,400,360.66668701171875,342.66668701171875,333.3333435058594,314,303.3333435058594,266.66668701171875,254.6666717529297,242,234.6666717529297,214.6666717529297,193.33334350585938,172.6666717529297,148,136.6666717529297,96,93.33333587646484,83.33333587646484,74],"ymouse":[827.3333740234375,827.3333740234375,827.3333740234375,827.3333740234375,827.3333740234375,826,826,826,826,826,826,826,826,826,826,826,826,826,826,826,826,826,826,826,826,825.3333740234375,825.3333740234375,825.3333740234375,825.3333740234375,825.3333740234375,825.3333740234375,825.3333740234375,825.3333740234375,746,712,689.3333740234375,639.3333740234375,618.6666870117188,547.3333740234375,518,418.66668701171875,398.66668701171875,333.3333435058594,264.66668701171875,230,188.6666717529297,176,120.66667175292969,116,100.66667175292969,85.33333587646484],"timestamp_mouse":[6,54,67,87,106,126,147,166,186,206,226,246,266,287,306,326,346,366,386,406,426,446,466,486,506,527,546,566,589,606,627,646,667,687,706,727,746,766,787,806,826,847,866,888,906,926,947,966,986,1006,1026],"xSR":350,"ySR":768,"xT1":30,"yT1":0,"xT2":670,"yT2":0,"toosoon":0,"cond_shown":"equaldotsize","ratio_trial":750,"smaller_num":"6","larger_num":"8","correct_side":2,"subjID":"46wmb","gender":"No_gender","age":"No_age","school":"No_school"},{"start_time":1549382147893,"click_time":1549382149042,"finger_time":1549382148761,"fix_duration":1211.0369791277822,"trial":23,"RT":868,"MT":281,"sideResp":1,"stimulus":"img/900/randomdotsizeEA/L/1_Ratio_900_L_10_R_9.png","xmouse":[394.66668701171875,394.66668701171875,394.66668701171875,389.3333435058594,389.3333435058594,389.3333435058594,389.3333435058594,389.3333435058594,389.3333435058594,389.3333435058594,389.3333435058594,389.3333435058594,389.3333435058594,386,386,386,386,384.66668701171875,384,383.3333435058594,383.3333435058594,382.66668701171875,382.66668701171875,382,382,382,382,382,382,382,382,382,382,382,382,382,382,381.3333435058594,381.3333435058594,380,379.3333435058594,376,362,352,333.3333435058594,304,293.3333435058594,271.3333435058594,259.3333435058594,219.33334350585938,192,178.6666717529297,158,148,124.66667175292969,117.33333587646484,110],"ymouse":[817.3333740234375,817.3333740234375,817.3333740234375,808.6666870117188,808.6666870117188,808.6666870117188,808.6666870117188,808.6666870117188,808.6666870117188,808.6666870117188,808.6666870117188,808.6666870117188,808.6666870117188,804,804,804,804,800.6666870117188,800,798,797.3333740234375,797.3333740234375,796.6666870117188,796.6666870117188,796,796,796,796,796,796,796,796,796,796,796,796,796,795.3333740234375,795.3333740234375,794,791.3333740234375,785.3333740234375,758,739.3333740234375,694,609.3333740234375,576.6666870117188,507.3333740234375,470.66668701171875,368,302.66668701171875,268,206.6666717529297,179.33334350585938,116.66667175292969,102,84],"timestamp_mouse":[29,49,68,88,108,128,148,168,188,211,228,248,268,288,308,328,348,368,388,411,428,448,468,489,508,528,548,568,588,608,628,648,668,688,708,728,748,768,788,810,828,848,868,888,909,931,948,968,988,1010,1030,1048,1068,1088,1110,1130,1149],"xSR":350,"ySR":768,"xT1":30,"yT1":0,"xT2":670,"yT2":0,"toosoon":0,"cond_shown":"randomdotsizeEA","ratio_trial":900,"smaller_num":"9","larger_num":"10","correct_side":1,"subjID":"46wmb","gender":"No_gender","age":"No_age","school":"No_school"},{"start_time":1549382154581,"click_time":1549382155402,"finger_time":1549382155102,"fix_duration":518.1420267047662,"trial":24,"RT":521,"MT":300,"sideResp":2,"stimulus":"img/750/randomdotsizeEA/L/1_Ratio_750_L_20_R_15.png","xmouse":[391.3333435058594,391.3333435058594,391.3333435058594,391.3333435058594,391.3333435058594,391.3333435058594,391.3333435058594,392,392,392,392,392,392,392,392,392,392,390,390,390,390,390,390,388,395.3333435058594,401.3333435058594,414,418,424,434.66668701171875,440,453.3333435058594,460.66668701171875,478,514.6666870117188,532,568,585.3333740234375,622,670.6666870117188,684,708],"ymouse":[839.3333740234375,839.3333740234375,838.6666870117188,838.6666870117188,838.6666870117188,838,838.6666870117188,838.6666870117188,838.6666870117188,838.6666870117188,838.6666870117188,838.6666870117188,838.6666870117188,838.6666870117188,838.6666870117188,838.6666870117188,838.6666870117188,842,842,842,842,842,842,833.3333740234375,807.3333740234375,789.3333740234375,756,746,731.3333740234375,693.3333740234375,675.3333740234375,634,608,553.3333740234375,456.66668701171875,420.66668701171875,349.3333435058594,318.66668701171875,252,162,135.33334350585938,88],"timestamp_mouse":[7,28,40,60,80,100,120,140,160,180,200,220,240,260,280,300,320,340,361,380,400,420,440,460,480,500,521,540,560,580,600,620,640,660,680,700,720,740,760,781,800,821],"xSR":350,"ySR":768,"xT1":30,"yT1":0,"xT2":670,"yT2":0,"toosoon":0,"cond_shown":"randomdotsizeEA","ratio_trial":750,"smaller_num":"15","larger_num":"20","correct_side":1,"subjID":"46wmb","gender":"No_gender","age":"No_age","school":"No_school"},{"start_time":1549382157861,"click_time":1549382158902,"finger_time":1549382158482,"fix_duration":1319.5861862385702,"trial":25,"RT":621,"MT":420,"sideResp":2,"stimulus":"img/250/randomdotsize/R/8_Ratio_250_L_1_R_4.png","xmouse":[400,400,400.66668701171875,400.66668701171875,400.66668701171875,400.66668701171875,400.66668701171875,400.66668701171875,400.66668701171875,400.66668701171875,406,405.3333435058594,405.3333435058594,405.3333435058594,405.3333435058594,404.66668701171875,404.66668701171875,404.66668701171875,404.66668701171875,404.66668701171875,404.66668701171875,404.66668701171875,404.66668701171875,404.66668701171875,404.66668701171875,402.66668701171875,402.66668701171875,402.66668701171875,402.66668701171875,402.66668701171875,404.66668701171875,428,458,476,514.6666870117188,535.3333740234375,600.6666870117188,635.3333740234375,650,668,674.6666870117188,698.6666870117188,704.6666870117188,706.6666870117188,709.3333740234375,708.6666870117188,707.3333740234375,707.3333740234375,707.3333740234375,702,702,700.6666870117188,700],"ymouse":[818.6666870117188,818.6666870117188,819.3333740234375,819.3333740234375,819.3333740234375,819.3333740234375,819.3333740234375,819.3333740234375,819.3333740234375,819.3333740234375,827.3333740234375,828.6666870117188,828.6666870117188,828.6666870117188,828.6666870117188,828.6666870117188,828.6666870117188,828.6666870117188,828.6666870117188,828.6666870117188,828.6666870117188,828.6666870117188,828.6666870117188,828.6666870117188,828.6666870117188,822.6666870117188,822.6666870117188,822.6666870117188,822.6666870117188,822.6666870117188,805.3333740234375,748,686.6666870117188,654,582.6666870117188,544,427.3333435058594,357.3333435058594,327.3333435058594,275.3333435058594,254.66668701171875,181.33334350585938,168,155.33334350585938,138.6666717529297,134,125.33334350585938,125.33334350585938,125.33334350585938,106.66667175292969,106.66667175292969,100.66667175292969,97.33333587646484],"timestamp_mouse":[9,32,44,60,80,101,122,140,160,180,200,220,240,260,280,300,320,340,360,380,400,423,440,460,480,500,520,540,560,580,600,621,640,661,680,700,721,740,760,780,801,828,840,860,880,900,921,940,960,980,1000,1020,1040],"xSR":350,"ySR":768,"xT1":30,"yT1":0,"xT2":670,"yT2":0,"toosoon":0,"cond_shown":"randomdotsize","ratio_trial":250,"smaller_num":"1","larger_num":"4","correct_side":2,"subjID":"46wmb","gender":"No_gender","age":"No_age","school":"No_school"},{"start_time":1549382165643,"click_time":1549382166801,"finger_time":1549382166541,"fix_duration":1361.7422902178425,"trial":26,"RT":898,"MT":260,"sideResp":2,"stimulus":"img/750/randomdotsizeEA/R/15_Ratio_750_L_9_R_12.png","xmouse":[382,382,382,382,382,382,382,382,382,387.3333435058594,388,388.66668701171875,388.66668701171875,388.66668701171875,388.66668701171875,388,388,387.3333435058594,387.3333435058594,387.3333435058594,387.3333435058594,387.3333435058594,387.3333435058594,386,386.66668701171875,387.3333435058594,387.3333435058594,387.3333435058594,387.3333435058594,387.3333435058594,386.66668701171875,386.66668701171875,386,386,386,386,385.3333435058594,385.3333435058594,385.3333435058594,385.3333435058594,386,386,387.3333435058594,390.66668701171875,417.3333435058594,444,456,480,513.3333740234375,578,599.3333740234375,616,642,654,676,687.3333740234375,693.3333740234375,708.6666870117188],"ymouse":[852,852,852,852,852,852,852,852,852,834.6666870117188,833.3333740234375,833.3333740234375,832,831.3333740234375,831.3333740234375,832,832,832,832,832,832,832,832,830,828,827.3333740234375,826.6666870117188,826,825.3333740234375,824.6666870117188,824.6666870117188,824.6666870117188,824.6666870117188,824.6666870117188,824.6666870117188,824.6666870117188,824.6666870117188,824.6666870117188,824,823.3333740234375,822.6666870117188,820.6666870117188,818,810,744,691.3333740234375,668.6666870117188,619.3333740234375,552.6666870117188,426.66668701171875,382.66668701171875,348,276.66668701171875,242,164,125.33334350585938,108,82],"timestamp_mouse":[32,38,58,78,98,118,139,158,178,199,218,238,258,278,298,318,338,358,380,398,418,438,458,478,498,518,538,558,578,598,618,638,658,678,698,718,738,758,778,798,818,838,858,878,898,918,938,958,978,1002,1018,1038,1058,1078,1099,1118,1139,1158],"xSR":350,"ySR":768,"xT1":30,"yT1":0,"xT2":670,"yT2":0,"toosoon":0,"cond_shown":"randomdotsizeEA","ratio_trial":750,"smaller_num":"9","larger_num":"12","correct_side":2,"subjID":"46wmb","gender":"No_gender","age":"No_age","school":"No_school"},{"start_time":1549382172310,"click_time":1549382173401,"finger_time":1549382173142,"fix_duration":1381.6335573778701,"trial":27,"RT":832,"MT":259,"sideResp":2,"stimulus":"img/250/equaldotanddens/R/8_Ratio_250_L_1_R_4.png","xmouse":[383.3333435058594,383.3333435058594,383.3333435058594,383.3333435058594,383.3333435058594,383.3333435058594,383.3333435058594,383.3333435058594,383.3333435058594,383.3333435058594,384.66668701171875,384.66668701171875,384.66668701171875,384.66668701171875,384.66668701171875,384.66668701171875,384.66668701171875,384.66668701171875,384.66668701171875,384.66668701171875,383.3333435058594,383.3333435058594,383.3333435058594,383.3333435058594,383.3333435058594,383.3333435058594,383.3333435058594,383.3333435058594,383.3333435058594,383.3333435058594,384,384,384,384,384,384,384,384,384,384,391.3333435058594,403.3333435058594,410,424,432,440.66668701171875,470.66668701171875,504.66668701171875,576,576,624.6666870117188,654,658.6666870117188,670,675.3333740234375],"ymouse":[813.3333740234375,813.3333740234375,813.3333740234375,813.3333740234375,813.3333740234375,813.3333740234375,813.3333740234375,813.3333740234375,813.3333740234375,813.3333740234375,818,818,818,818,818,818,818,818,818,818,818,818,818,818,818,818,818,818,818,818,817.3333740234375,817.3333740234375,817.3333740234375,817.3333740234375,817.3333740234375,817.3333740234375,817.3333740234375,817.3333740234375,817.3333740234375,817.3333740234375,778.6666870117188,728,700.6666870117188,618.6666870117188,549.3333740234375,506.66668701171875,408,319.3333435058594,182,182,110.66667175292969,80.66667175292969,79.33333587646484,75.33333587646484,76.66667175292969],"timestamp_mouse":[27,31,52,73,91,111,131,151,171,191,211,231,252,271,291,311,331,351,371,391,412,431,451,471,492,511,531,551,571,591,611,631,652,671,691,711,731,751,771,791,811,832,851,872,891,911,931,951,972,991,1011,1032,1051,1073,1091],"xSR":350,"ySR":768,"xT1":30,"yT1":0,"xT2":670,"yT2":0,"toosoon":0,"cond_shown":"equaldotanddens","ratio_trial":250,"smaller_num":"1","larger_num":"4","correct_side":2,"subjID":"46wmb","gender":"No_gender","age":"No_age","school":"No_school"},{"start_time":1549382174953,"click_time":1549382176005,"finger_time":1549382175721,"fix_duration":250,"trial":28,"RT":768,"MT":284,"sideResp":2,"stimulus":"img/900/equaldotsize/L/1_Ratio_900_L_10_R_9.png","xmouse":[402.66668701171875,402.66668701171875,402.66668701171875,402.66668701171875,402.66668701171875,402.66668701171875,402.66668701171875,402.66668701171875,403.3333435058594,403.3333435058594,403.3333435058594,403.3333435058594,403.3333435058594,403.3333435058594,403.3333435058594,403.3333435058594,403.3333435058594,403.3333435058594,402.66668701171875,402.66668701171875,402.66668701171875,402.66668701171875,402.66668701171875,402.66668701171875,402.66668701171875,402.66668701171875,402.66668701171875,402.66668701171875,400.66668701171875,400.66668701171875,400.66668701171875,400.66668701171875,400.66668701171875,400.66668701171875,400.66668701171875,400.66668701171875,400.66668701171875,406.66668701171875,416.66668701171875,421.3333435058594,432,438,458.66668701171875,480,491.3333435058594,520,536,585.3333740234375,620.6666870117188,640.6666870117188,679.3333740234375,716,759.3333740234375],"ymouse":[836.6666870117188,836.6666870117188,836.6666870117188,836.6666870117188,836.6666870117188,836.6666870117188,836.6666870117188,836.6666870117188,838.6666870117188,838.6666870117188,838.6666870117188,838.6666870117188,838.6666870117188,838.6666870117188,838.6666870117188,838.6666870117188,838.6666870117188,838.6666870117188,844,844,844,844,844,844,844,844,844,844,844,844,844,844,844,844,844,844,844,778.6666870117188,744.6666870117188,728.6666870117188,696.6666870117188,679.3333740234375,618,566.6666870117188,540.6666870117188,479.3333435058594,446,340,268.66668701171875,233.33334350585938,168.6666717529297,114.66667175292969,58],"timestamp_mouse":[11,30,48,68,88,108,128,148,168,188,208,228,248,268,288,308,328,348,369,389,408,428,448,468,488,508,528,549,568,588,608,628,651,668,688,708,728,749,768,788,808,828,849,868,888,908,928,949,968,988,1008,1029,1052],"xSR":350,"ySR":768,"xT1":30,"yT1":0,"xT2":670,"yT2":0,"toosoon":0,"cond_shown":"equaldotsize","ratio_trial":900,"smaller_num":"9","larger_num":"10","correct_side":1,"subjID":"46wmb","gender":"No_gender","age":"No_age","school":"No_school"},{"start_time":1549382177203,"click_time":1549382178122,"finger_time":1549382177881,"fix_duration":321.4372809530356,"trial":29,"RT":678,"MT":241,"sideResp":1,"stimulus":"img/250/randomdotsize/L/15_Ratio_250_L_12_R_3.png","xmouse":[378,378,378,378,378,381.3333435058594,381.3333435058594,382,382,382,382.66668701171875,382.66668701171875,382.66668701171875,382.66668701171875,382.66668701171875,382.66668701171875,382.66668701171875,382.66668701171875,382.66668701171875,382.66668701171875,382.66668701171875,382.66668701171875,382.66668701171875,382.66668701171875,382.66668701171875,382,382,382,382,382,382,382,382,334,322.66668701171875,278.66668701171875,251.33334350585938,238,210.6666717529297,199.33334350585938,162,142.6666717529297,134.6666717529297,119.33333587646484,112,92],"ymouse":[831.3333740234375,831.3333740234375,831.3333740234375,831.3333740234375,831.3333740234375,831.3333740234375,831.3333740234375,831.3333740234375,831.3333740234375,831.3333740234375,831.3333740234375,831.3333740234375,831.3333740234375,831.3333740234375,831.3333740234375,831.3333740234375,831.3333740234375,831.3333740234375,831.3333740234375,831.3333740234375,832,832,832,831.3333740234375,831.3333740234375,831.3333740234375,830.6666870117188,830.6666870117188,830.6666870117188,830.6666870117188,830.6666870117188,830.6666870117188,830.6666870117188,678.6666870117188,652,560,482.66668701171875,443.3333435058594,366.66668701171875,336.66668701171875,240,188,165.33334350585938,128,112,74],"timestamp_mouse":[33,38,58,78,99,119,138,158,178,199,220,238,258,278,298,318,338,358,378,399,418,439,458,479,498,520,538,558,578,598,620,638,658,678,698,718,738,758,778,798,819,838,858,878,898,918],"xSR":350,"ySR":768,"xT1":30,"yT1":0,"xT2":670,"yT2":0,"toosoon":0,"cond_shown":"randomdotsize","ratio_trial":250,"smaller_num":"3","larger_num":"12","correct_side":1,"subjID":"46wmb","gender":"No_gender","age":"No_age","school":"No_school"},{"start_time":1549382180562,"click_time":1549382181781,"finger_time":1549382181443,"fix_duration":1436.5765847387806,"trial":30,"RT":881,"MT":338,"sideResp":2,"stimulus":"img/500/randomdotsizeEA/L/13_Ratio_500_L_12_R_6.png","xmouse":[392.66668701171875,392.66668701171875,392.66668701171875,392.66668701171875,392.66668701171875,392.66668701171875,392.66668701171875,392.66668701171875,392.66668701171875,392,392,392,392,392,392,392,392,392,392,392,392,392,392,392,392,392,392,392,392,392,392,392,392,392,392,392,392,392,392,392.66668701171875,392.66668701171875,392.66668701171875,394.66668701171875,396.66668701171875,412.66668701171875,435.3333435058594,447.3333435058594,469.3333435058594,480,513.3333740234375,536,548,570,581.3333740234375,620.6666870117188,643.3333740234375,653.3333740234375,663.3333740234375,668.6666870117188,676.6666870117188,685.3333740234375,694],"ymouse":[825.3333740234375,825.3333740234375,825.3333740234375,825.3333740234375,825.3333740234375,825.3333740234375,825.3333740234375,825.3333740234375,825.3333740234375,824.6666870117188,824.6666870117188,824.6666870117188,824.6666870117188,824.6666870117188,824.6666870117188,824.6666870117188,824.6666870117188,824.6666870117188,824.6666870117188,824,824,824,824,824,824,824,824,824,824,824,824,824,824,824,824,824,824,824,824,818.6666870117188,818.6666870117188,818.6666870117188,807.3333740234375,803.3333740234375,754,701.3333740234375,676,630,604.6666870117188,524.6666870117188,474,450.66668701171875,406.66668701171875,386,318.66668701171875,274.66668701171875,254,214,178,140,107.33333587646484,81.33333587646484],"timestamp_mouse":[1,31,39,59,79,99,119,139,159,179,199,219,239,259,279,299,319,339,359,379,399,420,439,459,479,501,521,539,560,579,599,620,640,659,679,699,719,739,759,779,799,819,839,859,881,899,919,939,959,980,1000,1019,1039,1059,1081,1099,1120,1139,1159,1182,1199,1219],"xSR":350,"ySR":768,"xT1":30,"yT1":0,"xT2":670,"yT2":0,"toosoon":0,"cond_shown":"randomdotsizeEA","ratio_trial":500,"smaller_num":"6","larger_num":"12","correct_side":1,"subjID":"46wmb","gender":"No_gender","age":"No_age","school":"No_school"},{"start_time":1549382187287,"click_time":1549382188403,"finger_time":1549382188103,"fix_duration":1324.638401537627,"trial":31,"RT":816,"MT":300,"sideResp":2,"stimulus":"img/250/randomdotsize/R/11_Ratio_250_L_3_R_12.png","xmouse":[402.66668701171875,402.66668701171875,402.66668701171875,402.66668701171875,403.3333435058594,404,404,404,404.66668701171875,404.66668701171875,405.3333435058594,406,406,406,406.66668701171875,406.66668701171875,407.3333435058594,407.3333435058594,407.3333435058594,408,407.3333435058594,407.3333435058594,407.3333435058594,407.3333435058594,407.3333435058594,407.3333435058594,407.3333435058594,407.3333435058594,407.3333435058594,407.3333435058594,407.3333435058594,407.3333435058594,407.3333435058594,405.3333435058594,405.3333435058594,405.3333435058594,405.3333435058594,405.3333435058594,405.3333435058594,405.3333435058594,431.3333435058594,438.66668701171875,446,465.3333435058594,476,508.66668701171875,525.3333740234375,536.6666870117188,558,604,620.6666870117188,653.3333740234375,670,700.6666870117188,715.3333740234375,754.6666870117188],"ymouse":[833.3333740234375,833.3333740234375,834,834,834,834,834.6666870117188,834.6666870117188,834.6666870117188,834,834,833.3333740234375,832.6666870117188,832,831.3333740234375,830.6666870117188,830.6666870117188,830,830,830,829.3333740234375,829.3333740234375,828.6666870117188,828.6666870117188,828.6666870117188,828.6666870117188,828.6666870117188,828.6666870117188,828.6666870117188,828.6666870117188,828.6666870117188,828.6666870117188,828.6666870117188,813.3333740234375,813.3333740234375,813.3333740234375,813.3333740234375,813.3333740234375,813.3333740234375,813.3333740234375,696.6666870117188,677.3333740234375,656.6666870117188,607.3333740234375,580.6666870117188,496,444,415.3333435058594,360,278,251.33334350585938,201.33334350585938,177.33334350585938,133.33334350585938,114.66667175292969,68.66667175292969],"timestamp_mouse":[29,35,54,74,94,114,134,154,174,194,214,234,254,275,294,314,335,354,374,394,415,435,454,474,496,514,534,554,574,594,614,634,654,674,694,714,735,754,774,794,816,834,854,874,894,914,934,954,974,996,1015,1035,1054,1074,1094,1116],"xSR":350,"ySR":768,"xT1":30,"yT1":0,"xT2":670,"yT2":0,"toosoon":0,"cond_shown":"randomdotsize","ratio_trial":250,"smaller_num":"3","larger_num":"12","correct_side":2,"subjID":"46wmb","gender":"No_gender","age":"No_age","school":"No_school"},{"start_time":1549382190093,"click_time":1549382191141,"finger_time":1549382190803,"fix_duration":250,"trial":32,"RT":710,"MT":338,"sideResp":1,"stimulus":"img/250/randomdotsize/L/7_Ratio_250_L_8_R_2.png","xmouse":[400.66668701171875,400.66668701171875,400.66668701171875,400.66668701171875,400.66668701171875,400.66668701171875,400.66668701171875,400.66668701171875,400.66668701171875,399.3333435058594,399.3333435058594,399.3333435058594,399.3333435058594,399.3333435058594,399.3333435058594,399.3333435058594,399.3333435058594,399.3333435058594,399.3333435058594,399.3333435058594,399.3333435058594,399.3333435058594,399.3333435058594,399.3333435058594,399.3333435058594,399.3333435058594,399.3333435058594,399.3333435058594,399.3333435058594,398,397.3333435058594,397.3333435058594,397.3333435058594,397.3333435058594,382.66668701171875,380,372,366.66668701171875,353.3333435058594,324.66668701171875,313.3333435058594,290,278,254.66668701171875,244.6666717529297,212.6666717529297,202,182,164,156,131.33334350585938,124],"ymouse":[822,822,822,822,822,822,822,822,822,820,820,820,820,820,820,820,820,820,820,818,818,818,818,818,818,818,818,818,818,804,800,800,800,800,706,689.3333740234375,655.3333740234375,636.6666870117188,596.6666870117188,531.3333740234375,507.3333740234375,459.3333435058594,432.66668701171875,379.3333435058594,354,274,248.66668701171875,202.6666717529297,162,144.6666717529297,103.33333587646484,93.33333587646484],"timestamp_mouse":[29,48,68,89,108,128,148,168,188,209,228,248,268,288,308,328,348,368,388,411,428,448,469,488,508,528,548,568,588,610,628,648,669,688,710,728,748,768,788,810,828,848,868,888,908,928,948,968,988,1009,1031,1048],"xSR":350,"ySR":768,"xT1":30,"yT1":0,"xT2":670,"yT2":0,"toosoon":0,"cond_shown":"randomdotsize","ratio_trial":250,"smaller_num":"2","larger_num":"8","correct_side":1,"subjID":"46wmb","gender":"No_gender","age":"No_age","school":"No_school"},{"start_time":1549382193956,"click_time":1549382195382,"finger_time":1549382194961,"fix_duration":1325.8355146723095,"trial":33,"RT":1005,"MT":421,"sideResp":2,"stimulus":"img/500/randomdotsizeEA/R/6_Ratio_500_L_9_R_18.png","xmouse":[385,385,385,385,385,385,385,385,385,385,385,385,385,385,385,385,385,385,385,385,385,385,385,385,385,385,385,385,385,385,385,385,385,385,385,385,383.3333435058594,383.3333435058594,383.3333435058594,383.3333435058594,383.3333435058594,383.3333435058594,383.3333435058594,383.3333435058594,383.3333435058594,383.3333435058594,383.3333435058594,383.3333435058594,383.3333435058594,389.3333435058594,396,412,422.66668701171875,444.66668701171875,486.66668701171875,502.66668701171875,520,556.6666870117188,590,621.3333740234375,651.3333740234375,663.3333740234375,686.6666870117188,694.6666870117188,712,716.6666870117188,717.3333740234375,719.3333740234375,720,720.6666870117188,720.6666870117188,720.6666870117188],"ymouse":[829,829,829,829,829,829,829,829,829,829,829,829,829,829,829,829,829,829,829,829,829,829,829,829,829,829,829,829,829,829,829,829,829,829,829,829,821.3333740234375,821.3333740234375,821.3333740234375,821.3333740234375,821.3333740234375,821.3333740234375,821.3333740234375,821.3333740234375,820.6666870117188,820.6666870117188,820.6666870117188,820.6666870117188,820.6666870117188,786,761.3333740234375,706.6666870117188,681.3333740234375,631.3333740234375,540,506,471.3333435058594,400,337.3333435058594,280.66668701171875,232.6666717529297,212,176.6666717529297,163.33334350585938,132,121.33334350585938,118,112,108.66667175292969,102.66667175292969,100,98.66667175292969],"timestamp_mouse":[22,52,62,65,85,105,125,146,165,185,205,225,245,265,285,305,325,345,366,385,405,426,446,465,485,505,526,545,565,585,605,625,645,665,685,705,725,745,765,785,805,825,845,865,885,905,926,945,965,987,1005,1025,1045,1065,1086,1105,1125,1145,1165,1187,1205,1225,1245,1265,1286,1305,1325,1345,1365,1387,1406,1425],"xSR":350,"ySR":768,"xT1":30,"yT1":0,"xT2":670,"yT2":0,"toosoon":0,"cond_shown":"randomdotsizeEA","ratio_trial":500,"smaller_num":"9","larger_num":"18","correct_side":2,"subjID":"46wmb","gender":"No_gender","age":"No_age","school":"No_school"},{"start_time":1549382198117,"click_time":1549382203381,"finger_time":1549382203201,"fix_duration":1113.3302397340865,"trial":34,"RT":5084,"MT":180,"sideResp":2,"stimulus":"img/900/equaldotsize/R/3_Ratio_900_L_9_R_10.png","xmouse":[374,374,374,374,374,374,374,372.66668701171875,372.66668701171875,372,372,372,372,372,372,372,372,372,372,372,372,372,372,372,372,372,372,372,372,372,372,372,372,372,372,372,372,372,372,372,372,372,372.66668701171875,373.3333435058594,373.3333435058594,373.3333435058594,373.3333435058594,373.3333435058594,373.3333435058594,373.3333435058594,373.3333435058594,373.3333435058594,373.3333435058594,373.3333435058594,373.3333435058594,373.3333435058594,373.3333435058594,373.3333435058594,374,374,374,374,374,374.66668701171875,374.66668701171875,374.66668701171875,374.66668701171875,374.66668701171875,374.66668701171875,374.66668701171875,374.66668701171875,374.66668701171875,374.66668701171875,374.66668701171875,374.66668701171875,374.66668701171875,374.66668701171875,374.66668701171875,374.66668701171875,374.66668701171875,374.66668701171875,374.66668701171875,374.66668701171875,374.66668701171875,374.66668701171875,374.66668701171875,374.66668701171875,374.66668701171875,374.66668701171875,374.66668701171875,374.66668701171875,375.3333435058594,375.3333435058594,375.3333435058594,375.3333435058594,375.3333435058594,375.3333435058594,375.3333435058594,375.3333435058594,375.3333435058594,375.3333435058594,375.3333435058594,375.3333435058594,375.3333435058594,375.3333435058594,375.3333435058594,378,378,378,378,378,378,378,378,378,378,380.66668701171875,380.66668701171875,380.66668701171875,380.66668701171875,380.66668701171875,380.66668701171875,380.66668701171875,380.66668701171875,380.66668701171875,380.66668701171875,387.3333435058594,387.3333435058594,387.3333435058594,388.66668701171875,388.66668701171875,389.3333435058594,389.3333435058594,390,390,390.66668701171875,390.66668701171875,390.66668701171875,390.66668701171875,390.66668701171875,391.3333435058594,391.3333435058594,391.3333435058594,391.3333435058594,391.3333435058594,391.3333435058594,391.3333435058594,391.3333435058594,391.3333435058594,391.3333435058594,391.3333435058594,391.3333435058594,391.3333435058594,391.3333435058594,390,390,390,390,390,390,390,390,390,390,390,390,390,390,390,390,390,390,390,390,390.66668701171875,390.66668701171875,390.66668701171875,390.66668701171875,390.66668701171875,390.66668701171875,390.66668701171875,390.66668701171875,390.66668701171875,390.66668701171875,390.66668701171875,390.66668701171875,390.66668701171875,390.66668701171875,390.66668701171875,390.66668701171875,390.66668701171875,390.66668701171875,390.66668701171875,390.66668701171875,390.66668701171875,390.66668701171875,390.66668701171875,390.66668701171875,390.66668701171875,390.66668701171875,390.66668701171875,390.66668701171875,390.66668701171875,390.66668701171875,391.3333435058594,391.3333435058594,391.3333435058594,391.3333435058594,391.3333435058594,391.3333435058594,391.3333435058594,391.3333435058594,391.3333435058594,391.3333435058594,391.3333435058594,391.3333435058594,391.3333435058594,391.3333435058594,391.3333435058594,391.3333435058594,391.3333435058594,391.3333435058594,391.3333435058594,391.3333435058594,392,392,392,392,392,392,392,392,392,392,391.3333435058594,391.3333435058594,391.3333435058594,391.3333435058594,391.3333435058594,391.3333435058594,391.3333435058594,391.3333435058594,391.3333435058594,391.3333435058594,390,390,390,390,390,390,390,390,390,390,424,438,472.66668701171875,494,540,612.6666870117188,638,685.3333740234375,706,746.6666870117188],"ymouse":[822,822,822,822,822,822,822,820,820,819.3333740234375,819.3333740234375,819.3333740234375,818.6666870117188,818.6666870117188,818.6666870117188,818.6666870117188,818.6666870117188,819.3333740234375,819.3333740234375,819.3333740234375,819.3333740234375,819.3333740234375,819.3333740234375,819.3333740234375,819.3333740234375,819.3333740234375,819.3333740234375,818.6666870117188,818.6666870117188,818.6666870117188,818.6666870117188,818.6666870117188,818.6666870117188,818,817.3333740234375,817.3333740234375,816.6666870117188,816.6666870117188,816.6666870117188,816.6666870117188,816.6666870117188,816.6666870117188,817.3333740234375,817.3333740234375,817.3333740234375,817.3333740234375,817.3333740234375,817.3333740234375,817.3333740234375,817.3333740234375,817.3333740234375,817.3333740234375,817.3333740234375,816.6666870117188,816.6666870117188,816.6666870117188,816.6666870117188,816.6666870117188,816.6666870117188,816.6666870117188,816.6666870117188,816.6666870117188,816.6666870117188,816,816,816,816,816,816,816,816,816,814.6666870117188,814.6666870117188,814.6666870117188,814.6666870117188,814.6666870117188,814.6666870117188,814.6666870117188,814.6666870117188,814.6666870117188,814.6666870117188,814.6666870117188,814.6666870117188,814.6666870117188,814.6666870117188,814.6666870117188,814.6666870117188,814.6666870117188,814.6666870117188,814.6666870117188,814.6666870117188,814,814,814.6666870117188,814.6666870117188,815.3333740234375,815.3333740234375,815.3333740234375,815.3333740234375,815.3333740234375,815.3333740234375,815.3333740234375,815.3333740234375,815.3333740234375,815.3333740234375,816.6666870117188,816.6666870117188,816.6666870117188,816.6666870117188,816.6666870117188,816.6666870117188,816.6666870117188,816.6666870117188,816.6666870117188,816.6666870117188,821.3333740234375,821.3333740234375,821.3333740234375,821.3333740234375,821.3333740234375,821.3333740234375,821.3333740234375,821.3333740234375,821.3333740234375,821.3333740234375,815.3333740234375,815.3333740234375,815.3333740234375,812,811.3333740234375,810.6666870117188,810,810,810,810,810,810,810,810,810,810,810.6666870117188,810.6666870117188,811.3333740234375,811.3333740234375,811.3333740234375,811.3333740234375,811.3333740234375,811.3333740234375,811.3333740234375,811.3333740234375,811.3333740234375,811.3333740234375,814,814,814,814,814,814,813.3333740234375,813.3333740234375,813.3333740234375,813.3333740234375,812,812,812,812,812,812,812,812,812,812,812,812,812,812,812,812,812,812,812,812,812.6666870117188,812.6666870117188,812.6666870117188,812.6666870117188,812.6666870117188,812.6666870117188,812.6666870117188,812.6666870117188,812.6666870117188,812.6666870117188,813.3333740234375,813.3333740234375,813.3333740234375,813.3333740234375,813.3333740234375,813.3333740234375,813.3333740234375,813.3333740234375,813.3333740234375,813.3333740234375,813.3333740234375,813.3333740234375,813.3333740234375,813.3333740234375,813.3333740234375,813.3333740234375,813.3333740234375,813.3333740234375,813.3333740234375,813.3333740234375,814,814,814,814,814,814,814,814,814,814,817.3333740234375,817.3333740234375,817.3333740234375,817.3333740234375,817.3333740234375,817.3333740234375,817.3333740234375,817.3333740234375,817.3333740234375,817.3333740234375,819.3333740234375,819.3333740234375,819.3333740234375,819.3333740234375,819.3333740234375,819.3333740234375,819.3333740234375,819.3333740234375,819.3333740234375,819.3333740234375,821.3333740234375,821.3333740234375,821.3333740234375,821.3333740234375,821.3333740234375,821.3333740234375,821.3333740234375,821.3333740234375,821.3333740234375,821.3333740234375,684.6666870117188,644,556,507.3333740234375,406,259.3333435058594,214,137.33334350585938,106.66667175292969,51.333335876464844],"timestamp_mouse":[4,31,44,64,84,105,124,144,164,184,204,224,244,264,284,304,324,344,364,384,404,424,444,464,484,504,524,544,564,584,604,624,644,664,684,704,724,744,764,784,805,824,844,865,884,904,924,944,964,984,1004,1024,1044,1064,1084,1104,1124,1144,1164,1184,1205,1224,1245,1266,1284,1305,1324,1344,1364,1384,1405,1424,1447,1464,1485,1504,1524,1544,1564,1584,1604,1624,1644,1664,1684,1705,1724,1744,1764,1784,1804,1824,1845,1864,1884,1904,1924,1944,1964,1984,2004,2024,2044,2064,2084,2104,2124,2144,2164,2185,2204,2224,2244,2265,2285,2304,2325,2344,2366,2384,2404,2424,2444,2467,2485,2504,2524,2544,2564,2584,2604,2624,2644,2666,2684,2705,2724,2744,2764,2784,2804,2824,2844,2864,2884,2904,2924,2944,2964,2984,3004,3024,3044,3064,3085,3104,3124,3144,3164,3184,3204,3224,3244,3264,3284,3304,3324,3344,3365,3384,3404,3424,3444,3466,3485,3505,3524,3544,3564,3584,3604,3624,3644,3663,3684,3704,3724,3744,3764,3784,3804,3824,3844,3865,3884,3904,3925,3944,3968,3990,4004,4024,4044,4066,4084,4104,4124,4145,4164,4184,4204,4224,4244,4264,4284,4304,4324,4344,4364,4384,4404,4425,4444,4464,4486,4504,4524,4544,4564,4584,4614,4624,4644,4664,4685,4704,4724,4744,4764,4784,4804,4824,4844,4864,4884,4904,4924,4