[{"start_time":1549381300001,"click_time":1549381301668,"finger_time":1549381300010,"fix_duration":1370.3547157617058,"trial":0,"RT":9,"MT":1658,"sideResp":2,"stimulus":[],"xmouse":[416,416,416,416,416,416,416,416,416,416,416,416,416,416,416,416,416,416,416,416,416,416,416,416,416,416,416,416,416,416,416,416,416,416,416,416,416,416,416,416,416,416,416,416,416,416,416,416,416,416,416,416,416,416,416,416,386.66668701171875,386.66668701171875,387.3333435058594,387.3333435058594,387.3333435058594,387.3333435058594,398.66668701171875,409.3333435058594,416.66668701171875,420.66668701171875,430.66668701171875,436.66668701171875,464,471.3333435058594,489.3333435058594,499.3333435058594,522,555.3333740234375,577.3333740234375,586.6666870117188,609.3333740234375,631.3333740234375,658,673.3333740234375,681.3333740234375,694,700.6666870117188,715.3333740234375],"ymouse":[752,752,752,752,752,752,752,752,752,752,752,752,752,752,752,752,752,752,752,752,752,752,752,752,752,752,752,752,752,752,752,752,752,752,752,752,752,752,752,752,752,752,752,752,752,752,752,752,752,752,752,752,752,752,752,752,815.3333740234375,815.3333740234375,810.6666870117188,810.6666870117188,810.6666870117188,810.6666870117188,780.6666870117188,760,745.3333740234375,737.3333740234375,714,698,632,616,579.3333740234375,560,518.6666870117188,453.3333435058594,408.66668701171875,386.66668701171875,342,295.3333435058594,231.33334350585938,192.6666717529297,174.6666717529297,140,124.66667175292969,74.66667175292969],"timestamp_mouse":[8,25,45,64,85,105,125,145,165,185,205,225,245,264,285,305,325,345,364,384,405,425,445,465,485,505,525,545,565,585,605,625,645,665,685,705,725,745,765,785,805,825,845,864,885,904,925,946,965,985,1005,1025,1045,1065,1085,1105,1126,1145,1165,1185,1205,1225,1245,1265,1285,1305,1325,1345,1365,1385,1405,1425,1445,1465,1485,1505,1525,1544,1566,1585,1605,1624,1645,1667],"xSR":350,"ySR":696,"xT1":30,"yT1":0,"xT2":670,"yT2":0,"toosoon":0,"cond_shown":"Congruent","ratio_trial":200,"L_num":12,"L_den":20,"R_num":6,"R_den":15,"correct_side":1,"subjID":"47wm","gender":"No_gender","age":"No_age","school":"No_school","test":{"fix_dur":[250,1500],"timestim":900,"targets_dim":[100,100],"targets_relative_coord":[0.1,0.9],"size_stim":[880,420],"start_dim":[100,100],"size_start":[300,300],"size_fix":60,"samplingrate":20,"img_types":["Congruent","Incongruent"],"ratios":[100,200,300,500],"rep_conds":15,"nTrials":128,"trials_to_rest":500,"Trials_order":[10,92,78,120,0,17,6,86,116,61,37,67,24,62,40,107,124,126,79,53,57,69,108,76,18,56,122,101,110,11,60,100,8,105,7,44,47,46,127,31,9,52,19,119,114,51,65,88,75,85,41,77,83,20,98,39,2,94,80,42,82,87,36,74,121,95,84,26,15,112,64,34,30,3,81,103,106,14,35,21,28,68,93,113,33,72,71,32,50,66,13,45,16,102,73,12,115,96,43,49,117,123,89,25,58,118,29,111,38,104,63,1,125,23,109,27,5,55,70,59,4,90,91,48,22,97,54,99],"cond_shown":["Congruent","Congruent","Congruent","Congruent","Congruent","Incongruent","Congruent","Congruent","Congruent","Incongruent","Incongruent","Incongruent","Congruent","Congruent","Congruent","Incongruent","Congruent","Congruent","Incongruent","Incongruent","Incongruent","Incongruent","Congruent","Congruent","Congruent","Congruent","Congruent","Incongruent","Congruent","Incongruent","Congruent","Congruent","Congruent","Incongruent","Incongruent","Congruent","Incongruent","Congruent","Incongruent","Incongruent","Incongruent","Congruent","Incongruent","Incongruent","Congruent","Incongruent","Incongruent","Congruent","Incongruent","Incongruent","Incongruent","Incongruent","Incongruent","Congruent","Congruent","Incongruent","Congruent","Congruent","Congruent","Congruent","Congruent","Incongruent","Congruent","Congruent","Incongruent","Incongruent","Congruent","Congruent","Incongruent","Congruent","Congruent","Congruent","Congruent","Incongruent","Incongruent","Incongruent","Congruent","Congruent","Incongruent","Incongruent","Congruent","Congruent","Incongruent","Incongruent","Incongruent","Congruent","Incongruent","Congruent","Congruent","Congruent","Incongruent","Incongruent","Congruent","Congruent","Incongruent","Congruent","Incongruent","Congruent","Incongruent","Incongruent","Incongruent","Incongruent","Incongruent","Incongruent","Congruent","Congruent","Incongruent","Incongruent","Congruent","Congruent","Incongruent","Incongruent","Incongruent","Incongruent","Incongruent","Incongruent","Incongruent","Incongruent","Congruent","Incongruent","Congruent","Congruent","Incongruent","Congruent","Congruent","Incongruent","Congruent","Incongruent"],"ratio_trial":[200,300,500,100,100,100,500,500,300,300,300,200,100,500,100,200,300,500,500,300,100,300,300,300,200,100,200,300,500,200,300,300,100,100,500,300,500,500,500,500,100,300,200,500,200,200,100,100,200,300,100,300,200,300,200,500,200,500,100,200,200,500,300,200,100,500,300,200,500,100,100,200,500,200,100,500,200,500,200,300,300,300,300,100,100,100,500,100,200,200,300,300,100,500,100,300,200,100,200,100,300,200,100,100,200,500,300,500,500,100,500,100,300,500,300,200,300,500,500,200,300,200,200,100,500,100,500,200],"left_num":[12,20,2,3,15,9,2,2,2,13,13,14,7,4,7,7,1,8,5,4,6,1,2,1,8,11,1,4,7,14,11,7,2,8,7,1,7,7,5,5,9,4,3,7,8,7,10,12,3,4,2,13,1,1,11,7,1,9,9,5,4,7,20,1,12,7,24,8,7,8,15,16,12,7,9,5,6,18,6,4,7,1,4,9,6,3,7,11,6,6,1,4,6,5,8,2,14,4,4,12,13,7,10,3,16,10,8,7,20,9,7,9,7,7,2,7,7,2,2,7,1,6,7,11,10,8,21,7],"right_num":[6,14,10,2,13,20,12,9,12,12,12,6,9,15,15,14,11,4,6,2,11,3,12,7,3,4,21,2,20,6,2,20,11,6,5,19,5,9,6,6,14,2,1,9,3,4,8,13,1,8,8,12,3,3,3,5,21,20,8,14,3,5,13,21,2,5,8,7,5,2,13,9,4,14,13,6,11,1,3,8,20,6,2,6,3,2,5,6,11,7,2,8,15,2,1,12,6,6,6,2,12,14,8,7,12,4,9,5,3,8,5,6,8,5,6,6,8,4,9,12,6,11,14,6,7,6,6,4],"left_den":[20,25,12,6,25,10,8,5,10,26,26,30,14,16,14,10,5,12,6,20,10,2,10,20,15,22,2,20,21,30,22,14,5,16,21,3,21,28,6,6,15,5,10,8,15,15,25,30,10,5,4,26,2,5,22,21,2,27,15,10,10,21,25,2,30,21,30,15,21,16,25,30,18,10,15,6,20,27,20,5,14,5,20,18,12,6,21,22,20,12,2,5,12,6,20,10,30,8,5,30,26,10,25,9,20,15,10,21,24,15,21,18,10,21,4,15,10,3,5,10,5,20,10,22,13,16,28,15],"right_den":[15,28,15,5,26,25,16,10,24,15,15,9,15,20,25,28,22,24,18,4,22,15,24,20,9,10,30,4,24,9,10,25,22,10,6,30,6,12,18,18,28,4,2,24,9,6,16,26,2,16,20,15,10,6,10,6,30,24,16,20,15,6,26,30,4,6,16,21,6,5,26,27,24,28,26,18,22,6,6,16,25,12,4,10,5,5,6,15,22,10,10,16,25,6,2,24,9,10,10,4,15,28,16,30,20,24,18,6,9,16,6,10,20,6,30,9,20,24,10,24,12,22,28,15,26,10,24,6],"correct_side":[1,1,2,1,1,1,2,2,2,2,2,2,2,2,2,1,2,1,1,2,1,1,2,2,1,1,2,2,2,2,1,2,2,2,2,2,2,2,1,1,1,1,2,1,1,2,2,2,2,1,1,2,1,2,1,2,2,2,1,2,1,2,1,2,2,2,1,1,2,1,1,1,1,1,1,1,2,1,2,1,2,2,2,2,2,1,2,1,2,2,1,1,2,1,2,2,2,2,1,2,2,1,2,1,1,1,1,2,1,1,2,2,1,2,1,2,1,1,2,1,2,2,1,1,1,2,1,2],"img_shown":["img2/200/Congruent/L/C_Dist_200_LN_12_LD_20_RN_6_RD_15_0.png","img2/300/Congruent/L/C_Dist_300_LN_20_LD_25_RN_14_RD_28_0.png","img2/500/Congruent/R/C_Dist_500_LN_2_LD_12_RN_10_RD_15_1.png","img2/100/Congruent/L/C_Dist_100_LN_3_LD_6_RN_2_RD_5_0.png","img2/100/Congruent/L/C_Dist_100_LN_15_LD_25_RN_13_RD_26_0.png","img2/100/Incongruent/L/I_Dist_100_LN_9_LD_10_RN_20_RD_25_0.png","img2/500/Congruent/R/C_Dist_500_LN_2_LD_8_RN_12_RD_16_1.png","img2/500/Congruent/R/C_Dist_500_LN_2_LD_5_RN_9_RD_10_1.png","img2/300/Congruent/R/C_Dist_300_LN_2_LD_10_RN_12_RD_24_1.png","img2/300/Incongruent/R/I_Dist_300_LN_13_LD_26_RN_12_RD_15_1.png","img2/300/Incongruent/R/I_Dist_300_LN_13_LD_26_RN_12_RD_15_1.png","img2/200/Incongruent/R/I_Dist_200_LN_14_LD_30_RN_6_RD_9_1.png","img2/100/Congruent/R/C_Dist_100_LN_7_LD_14_RN_9_RD_15_1.png","img2/500/Congruent/R/C_Dist_500_LN_4_LD_16_RN_15_RD_20_1.png","img2/100/Congruent/R/C_Dist_100_LN_7_LD_14_RN_15_RD_25_1.png","img2/200/Incongruent/L/I_Dist_200_LN_7_LD_10_RN_14_RD_28_0.png","img2/300/Congruent/R/C_Dist_300_LN_1_LD_5_RN_11_RD_22_1.png","img2/500/Congruent/L/C_Dist_500_LN_8_LD_12_RN_4_RD_24_0.png","img2/500/Incongruent/L/I_Dist_500_LN_5_LD_6_RN_6_RD_18_0.png","img2/300/Incongruent/R/I_Dist_300_LN_4_LD_20_RN_2_RD_4_1.png","img2/100/Incongruent/L/I_Dist_100_LN_6_LD_10_RN_11_RD_22_0.png","img2/300/Incongruent/L/I_Dist_300_LN_1_LD_2_RN_3_RD_15_0.png","img2/300/Congruent/R/C_Dist_300_LN_2_LD_10_RN_12_RD_24_1.png","img2/300/Congruent/R/C_Dist_300_LN_1_LD_20_RN_7_RD_20_1.png","img2/200/Congruent/L/C_Dist_200_LN_8_LD_15_RN_3_RD_9_0.png","img2/100/Congruent/L/C_Dist_100_LN_11_LD_22_RN_4_RD_10_0.png","img2/200/Congruent/R/C_Dist_200_LN_1_LD_2_RN_21_RD_30_1.png","img2/300/Incongruent/R/I_Dist_300_LN_4_LD_20_RN_2_RD_4_1.png","img2/500/Congruent/R/C_Dist_500_LN_7_LD_21_RN_20_RD_24_1.png","img2/200/Incongruent/R/I_Dist_200_LN_14_LD_30_RN_6_RD_9_1.png","img2/300/Congruent/L/C_Dist_300_LN_11_LD_22_RN_2_RD_10_0.png","img2/300/Congruent/R/C_Dist_300_LN_7_LD_14_RN_20_RD_25_1.png","img2/100/Congruent/R/C_Dist_100_LN_2_LD_5_RN_11_RD_22_1.png","img2/100/Incongruent/R/I_Dist_100_LN_8_LD_16_RN_6_RD_10_1.png","img2/500/Incongruent/R/I_Dist_500_LN_7_LD_21_RN_5_RD_6_1.png","img2/300/Congruent/R/C_Dist_300_LN_1_LD_3_RN_19_RD_30_1.png","img2/500/Incongruent/R/I_Dist_500_LN_7_LD_21_RN_5_RD_6_1.png","img2/500/Congruent/R/C_Dist_500_LN_7_LD_28_RN_9_RD_12_1.png","img2/500/Incongruent/L/I_Dist_500_LN_5_LD_6_RN_6_RD_18_0.png","img2/500/Incongruent/L/I_Dist_500_LN_5_LD_6_RN_6_RD_18_0.png","img2/100/Incongruent/L/I_Dist_100_LN_9_LD_15_RN_14_RD_28_0.png","img2/300/Congruent/L/C_Dist_300_LN_4_LD_5_RN_2_RD_4_0.png","img2/200/Incongruent/R/I_Dist_200_LN_3_LD_10_RN_1_RD_2_1.png","img2/500/Incongruent/L/I_Dist_500_LN_7_LD_8_RN_9_RD_24_0.png","img2/200/Congruent/L/C_Dist_200_LN_8_LD_15_RN_3_RD_9_0.png","img2/200/Incongruent/R/I_Dist_200_LN_7_LD_15_RN_4_RD_6_1.png","img2/100/Incongruent/R/I_Dist_100_LN_10_LD_25_RN_8_RD_16_1.png","img2/100/Congruent/R/C_Dist_100_LN_12_LD_30_RN_13_RD_26_1.png","img2/200/Incongruent/R/I_Dist_200_LN_3_LD_10_RN_1_RD_2_1.png","img2/300/Incongruent/L/I_Dist_300_LN_4_LD_5_RN_8_RD_16_0.png","img2/100/Incongruent/L/I_Dist_100_LN_2_LD_4_RN_8_RD_20_0.png","img2/300/Incongruent/R/I_Dist_300_LN_13_LD_26_RN_12_RD_15_1.png","img2/200/Incongruent/L/I_Dist_200_LN_1_LD_2_RN_3_RD_10_0.png","img2/300/Congruent/R/C_Dist_300_LN_1_LD_5_RN_3_RD_6_1.png","img2/200/Congruent/L/C_Dist_200_LN_11_LD_22_RN_3_RD_10_0.png","img2/500/Incongruent/R/I_Dist_500_LN_7_LD_21_RN_5_RD_6_1.png","img2/200/Congruent/R/C_Dist_200_LN_1_LD_2_RN_21_RD_30_1.png","img2/500/Congruent/R/C_Dist_500_LN_9_LD_27_RN_20_RD_24_1.png","img2/100/Congruent/L/C_Dist_100_LN_9_LD_15_RN_8_RD_16_0.png","img2/200/Congruent/R/C_Dist_200_LN_5_LD_10_RN_14_RD_20_1.png","img2/200/Congruent/L/C_Dist_200_LN_4_LD_10_RN_3_RD_15_0.png","img2/500/Incongruent/R/I_Dist_500_LN_7_LD_21_RN_5_RD_6_1.png","img2/300/Congruent/L/C_Dist_300_LN_20_LD_25_RN_13_RD_26_0.png","img2/200/Congruent/R/C_Dist_200_LN_1_LD_2_RN_21_RD_30_1.png","img2/100/Incongruent/R/I_Dist_100_LN_12_LD_30_RN_2_RD_4_1.png","img2/500/Incongruent/R/I_Dist_500_LN_7_LD_21_RN_5_RD_6_1.png","img2/300/Congruent/L/C_Dist_300_LN_24_LD_30_RN_8_RD_16_0.png","img2/200/Congruent/L/C_Dist_200_LN_8_LD_15_RN_7_RD_21_0.png","img2/500/Incongruent/R/I_Dist_500_LN_7_LD_21_RN_5_RD_6_1.png","img2/100/Congruent/L/C_Dist_100_LN_8_LD_16_RN_2_RD_5_0.png","img2/100/Congruent/L/C_Dist_100_LN_15_LD_25_RN_13_RD_26_0.png","img2/200/Congruent/L/C_Dist_200_LN_16_LD_30_RN_9_RD_27_0.png","img2/500/Congruent/L/C_Dist_500_LN_12_LD_18_RN_4_RD_24_0.png","img2/200/Incongruent/L/I_Dist_200_LN_7_LD_10_RN_14_RD_28_0.png","img2/100/Incongruent/L/I_Dist_100_LN_9_LD_15_RN_13_RD_26_0.png","img2/500/Incongruent/L/I_Dist_500_LN_5_LD_6_RN_6_RD_18_0.png","img2/200/Congruent/R/C_Dist_200_LN_6_LD_20_RN_11_RD_22_1.png","img2/500/Congruent/L/C_Dist_500_LN_18_LD_27_RN_1_RD_6_0.png","img2/200/Incongruent/R/I_Dist_200_LN_6_LD_20_RN_3_RD_6_1.png","img2/300/Incongruent/L/I_Dist_300_LN_4_LD_5_RN_8_RD_16_0.png","img2/300/Congruent/R/C_Dist_300_LN_7_LD_14_RN_20_RD_25_1.png","img2/300/Congruent/R/C_Dist_300_LN_1_LD_5_RN_6_RD_12_1.png","img2/300/Incongruent/R/I_Dist_300_LN_4_LD_20_RN_2_RD_4_1.png","img2/100/Incongruent/R/I_Dist_100_LN_9_LD_18_RN_6_RD_10_1.png","img2/100/Incongruent/R/I_Dist_100_LN_6_LD_12_RN_3_RD_5_1.png","img2/100/Congruent/L/C_Dist_100_LN_3_LD_6_RN_2_RD_5_0.png","img2/500/Incongruent/R/I_Dist_500_LN_7_LD_21_RN_5_RD_6_1.png","img2/100/Congruent/L/C_Dist_100_LN_11_LD_22_RN_6_RD_15_0.png","img2/200/Congruent/R/C_Dist_200_LN_6_LD_20_RN_11_RD_22_1.png","img2/200/Congruent/R/C_Dist_200_LN_6_LD_12_RN_7_RD_10_1.png","img2/300/Incongruent/L/I_Dist_300_LN_1_LD_2_RN_2_RD_10_0.png","img2/300/Incongruent/L/I_Dist_300_LN_4_LD_5_RN_8_RD_16_0.png","img2/100/Congruent/R/C_Dist_100_LN_6_LD_12_RN_15_RD_25_1.png","img2/500/Congruent/L/C_Dist_500_LN_5_LD_6_RN_2_RD_6_0.png","img2/100/Incongruent/R/I_Dist_100_LN_8_LD_20_RN_1_RD_2_1.png","img2/300/Congruent/R/C_Dist_300_LN_2_LD_10_RN_12_RD_24_1.png","img2/200/Incongruent/R/I_Dist_200_LN_14_LD_30_RN_6_RD_9_1.png","img2/100/Congruent/R/C_Dist_100_LN_4_LD_8_RN_6_RD_10_1.png","img2/200/Incongruent/L/I_Dist_200_LN_4_LD_5_RN_6_RD_10_0.png","img2/100/Incongruent/R/I_Dist_100_LN_12_LD_30_RN_2_RD_4_1.png","img2/300/Incongruent/R/I_Dist_300_LN_13_LD_26_RN_12_RD_15_1.png","img2/200/Incongruent/L/I_Dist_200_LN_7_LD_10_RN_14_RD_28_0.png","img2/100/Incongruent/R/I_Dist_100_LN_10_LD_25_RN_8_RD_16_1.png","img2/100/Incongruent/L/I_Dist_100_LN_3_LD_9_RN_7_RD_30_0.png","img2/200/Congruent/L/C_Dist_200_LN_16_LD_20_RN_12_RD_20_0.png","img2/500/Congruent/L/C_Dist_500_LN_10_LD_15_RN_4_RD_24_0.png","img2/300/Incongruent/L/I_Dist_300_LN_8_LD_10_RN_9_RD_18_0.png","img2/500/Incongruent/R/I_Dist_500_LN_7_LD_21_RN_5_RD_6_1.png","img2/500/Congruent/L/C_Dist_500_LN_20_LD_24_RN_3_RD_9_0.png","img2/100/Congruent/L/C_Dist_100_LN_9_LD_15_RN_8_RD_16_0.png","img2/500/Incongruent/R/I_Dist_500_LN_7_LD_21_RN_5_RD_6_1.png","img2/100/Incongruent/R/I_Dist_100_LN_9_LD_18_RN_6_RD_10_1.png","img2/300/Incongruent/L/I_Dist_300_LN_7_LD_10_RN_8_RD_20_0.png","img2/500/Incongruent/R/I_Dist_500_LN_7_LD_21_RN_5_RD_6_1.png","img2/300/Incongruent/L/I_Dist_300_LN_2_LD_4_RN_6_RD_30_0.png","img2/200/Incongruent/R/I_Dist_200_LN_7_LD_15_RN_6_RD_9_1.png","img2/300/Incongruent/L/I_Dist_300_LN_7_LD_10_RN_8_RD_20_0.png","img2/500/Incongruent/L/I_Dist_500_LN_2_LD_3_RN_4_RD_24_0.png","img2/500/Congruent/R/C_Dist_500_LN_2_LD_5_RN_9_RD_10_1.png","img2/200/Incongruent/L/I_Dist_200_LN_7_LD_10_RN_12_RD_24_0.png","img2/300/Congruent/R/C_Dist_300_LN_1_LD_5_RN_6_RD_12_1.png","img2/200/Congruent/R/C_Dist_200_LN_6_LD_20_RN_11_RD_22_1.png","img2/200/Incongruent/L/I_Dist_200_LN_7_LD_10_RN_14_RD_28_0.png","img2/100/Congruent/L/C_Dist_100_LN_11_LD_22_RN_6_RD_15_0.png","img2/500/Congruent/L/C_Dist_500_LN_10_LD_13_RN_7_RD_26_0.png","img2/100/Incongruent/R/I_Dist_100_LN_8_LD_16_RN_6_RD_10_1.png","img2/500/Congruent/L/C_Dist_500_LN_21_LD_28_RN_6_RD_24_0.png","img2/200/Incongruent/R/I_Dist_200_LN_7_LD_15_RN_4_RD_6_1.png"],"dist100_C":[["C_Dist_100_LN_10_LD_25_RN_3_RD_10_0.png","C_Dist_100_LN_11_LD_22_RN_4_RD_10_0.png","C_Dist_100_LN_11_LD_22_RN_6_RD_15_0.png","C_Dist_100_LN_15_LD_25_RN_13_RD_26_0.png","C_Dist_100_LN_3_LD_6_RN_2_RD_5_0.png","C_Dist_100_LN_6_LD_20_RN_5_RD_25_0.png","C_Dist_100_LN_8_LD_16_RN_2_RD_5_0.png","C_Dist_100_LN_9_LD_15_RN_8_RD_16_0.png"],["C_Dist_100_LN_1_LD_2_RN_18_RD_30_1.png","C_Dist_100_LN_1_LD_2_RN_3_RD_5_1.png","C_Dist_100_LN_12_LD_30_RN_13_RD_26_1.png","C_Dist_100_LN_2_LD_5_RN_11_RD_22_1.png","C_Dist_100_LN_2_LD_5_RN_6_RD_12_1.png","C_Dist_100_LN_3_LD_20_RN_4_RD_16_1.png","C_Dist_100_LN_4_LD_10_RN_15_RD_30_1.png","C_Dist_100_LN_4_LD_8_RN_6_RD_10_1.png","C_Dist_100_LN_6_LD_12_RN_15_RD_25_1.png","C_Dist_100_LN_7_LD_14_RN_15_RD_25_1.png","C_Dist_100_LN_7_LD_14_RN_9_RD_15_1.png"]],"dist100_I":[["I_Dist_100_LN_1_LD_2_RN_8_RD_20_0.png","I_Dist_100_LN_2_LD_4_RN_6_RD_15_0.png","I_Dist_100_LN_2_LD_4_RN_8_RD_20_0.png","I_Dist_100_LN_3_LD_5_RN_11_RD_22_0.png","I_Dist_100_LN_3_LD_5_RN_8_RD_16_0.png","I_Dist_100_LN_3_LD_6_RN_4_RD_10_0.png","I_Dist_100_LN_3_LD_9_RN_7_RD_30_0.png","I_Dist_100_LN_4_LD_8_RN_8_RD_20_0.png","I_Dist_100_LN_6_LD_10_RN_11_RD_22_0.png","I_Dist_100_LN_6_LD_10_RN_13_RD_26_0.png","I_Dist_100_LN_6_LD_10_RN_7_RD_14_0.png","I_Dist_100_LN_9_LD_10_RN_20_RD_25_0.png","I_Dist_100_LN_9_LD_15_RN_13_RD_26_0.png","I_Dist_100_LN_9_LD_15_RN_14_RD_28_0.png"],["I_Dist_100_LN_10_LD_25_RN_8_RD_16_1.png","I_Dist_100_LN_10_LD_25_RN_9_RD_18_1.png","I_Dist_100_LN_11_LD_22_RN_9_RD_15_1.png","I_Dist_100_LN_12_LD_24_RN_9_RD_15_1.png","I_Dist_100_LN_12_LD_30_RN_2_RD_4_1.png","I_Dist_100_LN_13_LD_26_RN_12_RD_20_1.png","I_Dist_100_LN_13_LD_26_RN_6_RD_10_1.png","I_Dist_100_LN_17_LD_30_RN_10_RD_15_1.png","I_Dist_100_LN_6_LD_12_RN_3_RD_5_1.png","I_Dist_100_LN_8_LD_16_RN_6_RD_10_1.png","I_Dist_100_LN_8_LD_20_RN_1_RD_2_1.png","I_Dist_100_LN_9_LD_18_RN_6_RD_10_1.png"]],"dist100_S":[["E_Dist_100_LN_2_LD_12_RN_2_RD_30_0.png","E_Dist_100_LN_6_LD_10_RN_6_RD_12_0.png"],["E_Dist_100_LN_6_LD_12_RN_6_RD_10_1.png"]],"dist200_C":[["C_Dist_200_LN_11_LD_22_RN_3_RD_10_0.png","C_Dist_200_LN_12_LD_15_RN_6_RD_10_0.png","C_Dist_200_LN_12_LD_20_RN_6_RD_15_0.png","C_Dist_200_LN_14_LD_28_RN_6_RD_20_0.png","C_Dist_200_LN_15_LD_25_RN_4_RD_10_0.png","C_Dist_200_LN_16_LD_20_RN_12_RD_20_0.png","C_Dist_200_LN_16_LD_30_RN_9_RD_27_0.png","C_Dist_200_LN_20_LD_25_RN_9_RD_15_0.png","C_Dist_200_LN_21_LD_30_RN_2_RD_4_0.png","C_Dist_200_LN_4_LD_10_RN_3_RD_15_0.png","C_Dist_200_LN_4_LD_8_RN_3_RD_10_0.png","C_Dist_200_LN_6_LD_15_RN_3_RD_15_0.png","C_Dist_200_LN_7_LD_21_RN_2_RD_15_0.png","C_Dist_200_LN_8_LD_15_RN_2_RD_6_0.png","C_Dist_200_LN_8_LD_15_RN_3_RD_9_0.png","C_Dist_200_LN_8_LD_15_RN_7_RD_21_0.png","C_Dist_200_LN_9_LD_20_RN_4_RD_16_0.png"],["C_Dist_200_LN_1_LD_2_RN_21_RD_30_1.png","C_Dist_200_LN_13_LD_26_RN_14_RD_20_1.png","C_Dist_200_LN_3_LD_10_RN_11_RD_22_1.png","C_Dist_200_LN_3_LD_10_RN_14_RD_28_1.png","C_Dist_200_LN_3_LD_10_RN_7_RD_14_1.png","C_Dist_200_LN_3_LD_12_RN_9_RD_20_1.png","C_Dist_200_LN_3_LD_6_RN_14_RD_20_1.png","C_Dist_200_LN_5_LD_10_RN_14_RD_20_1.png","C_Dist_200_LN_6_LD_12_RN_7_RD_10_1.png","C_Dist_200_LN_6_LD_20_RN_11_RD_22_1.png","C_Dist_200_LN_7_LD_15_RN_18_RD_27_1.png","C_Dist_200_LN_9_LD_30_RN_13_RD_26_1.png"]],"dist200_I":[["I_Dist_200_LN_1_LD_2_RN_3_RD_10_0.png","I_Dist_200_LN_1_LD_3_RN_2_RD_15_0.png","I_Dist_200_LN_3_LD_4_RN_11_RD_20_0.png","I_Dist_200_LN_4_LD_5_RN_6_RD_10_0.png","I_Dist_200_LN_4_LD_6_RN_14_RD_30_0.png","I_Dist_200_LN_7_LD_10_RN_12_RD_24_0.png","I_Dist_200_LN_7_LD_10_RN_14_RD_28_0.png","I_Dist_200_LN_7_LD_10_RN_8_RD_16_0.png"],["I_Dist_200_LN_11_LD_20_RN_3_RD_4_1.png","I_Dist_200_LN_14_LD_30_RN_12_RD_18_1.png","I_Dist_200_LN_14_LD_30_RN_6_RD_9_1.png","I_Dist_200_LN_3_LD_10_RN_1_RD_2_1.png","I_Dist_200_LN_4_LD_30_RN_1_RD_3_1.png","I_Dist_200_LN_6_LD_20_RN_3_RD_6_1.png","I_Dist_200_LN_7_LD_15_RN_4_RD_6_1.png","I_Dist_200_LN_7_LD_15_RN_6_RD_9_1.png","I_Dist_200_LN_9_LD_15_RN_8_RD_10_1.png"]],"dist200_S":[["E_Dist_200_LN_3_LD_6_RN_3_RD_10_0.png"],["E_Dist_200_LN_3_LD_10_RN_3_RD_6_1.png"]],"dist300_C":[["C_Dist_300_LN_11_LD_22_RN_1_RD_5_0.png","C_Dist_300_LN_11_LD_22_RN_2_RD_10_0.png","C_Dist_300_LN_11_LD_22_RN_4_RD_20_0.png","C_Dist_300_LN_12_LD_24_RN_2_RD_10_0.png","C_Dist_300_LN_18_LD_20_RN_9_RD_15_0.png","C_Dist_300_LN_20_LD_25_RN_13_RD_26_0.png","C_Dist_300_LN_20_LD_25_RN_14_RD_28_0.png","C_Dist_300_LN_20_LD_25_RN_5_RD_10_0.png","C_Dist_300_LN_20_LD_25_RN_8_RD_16_0.png","C_Dist_300_LN_20_LD_25_RN_9_RD_18_0.png","C_Dist_300_LN_24_LD_30_RN_2_RD_4_0.png","C_Dist_300_LN_24_LD_30_RN_8_RD_16_0.png","C_Dist_300_LN_3_LD_6_RN_2_RD_10_0.png","C_Dist_300_LN_4_LD_10_RN_1_RD_10_0.png","C_Dist_300_LN_4_LD_5_RN_2_RD_4_0.png","C_Dist_300_LN_8_LD_16_RN_1_RD_5_0.png","C_Dist_300_LN_9_LD_10_RN_3_RD_5_0.png"],["C_Dist_300_LN_1_LD_20_RN_7_RD_20_1.png","C_Dist_300_LN_1_LD_3_RN_19_RD_30_1.png","C_Dist_300_LN_1_LD_30_RN_8_RD_24_1.png","C_Dist_300_LN_1_LD_5_RN_11_RD_22_1.png","C_Dist_300_LN_1_LD_5_RN_3_RD_6_1.png","C_Dist_300_LN_1_LD_5_RN_6_RD_12_1.png","C_Dist_300_LN_2_LD_10_RN_12_RD_24_1.png","C_Dist_300_LN_2_LD_20_RN_10_RD_25_1.png","C_Dist_300_LN_3_LD_12_RN_11_RD_20_1.png","C_Dist_300_LN_3_LD_6_RN_4_RD_5_1.png","C_Dist_300_LN_4_LD_20_RN_13_RD_26_1.png","C_Dist_300_LN_5_LD_25_RN_6_RD_12_1.png","C_Dist_300_LN_5_LD_25_RN_7_RD_14_1.png","C_Dist_300_LN_7_LD_14_RN_20_RD_25_1.png","C_Dist_300_LN_8_LD_15_RN_10_RD_12_1.png"]],"dist300_I":[["I_Dist_300_LN_1_LD_2_RN_2_RD_10_0.png","I_Dist_300_LN_1_LD_2_RN_3_RD_15_0.png","I_Dist_300_LN_2_LD_4_RN_6_RD_30_0.png","I_Dist_300_LN_3_LD_6_RN_4_RD_20_0.png","I_Dist_300_LN_4_LD_5_RN_6_RD_12_0.png","I_Dist_300_LN_4_LD_5_RN_8_RD_16_0.png","I_Dist_300_LN_7_LD_10_RN_8_RD_20_0.png","I_Dist_300_LN_8_LD_10_RN_14_RD_28_0.png","I_Dist_300_LN_8_LD_10_RN_9_RD_18_0.png"],["I_Dist_300_LN_13_LD_26_RN_12_RD_15_1.png","I_Dist_300_LN_4_LD_20_RN_2_RD_4_1.png"]],"dist300_S":[["E_Dist_300_LN_9_LD_12_RN_9_RD_20_0.png"],["E_Dist_300_LN_18_LD_30_RN_18_RD_20_1.png","E_Dist_300_LN_3_LD_10_RN_3_RD_5_1.png","E_Dist_300_LN_9_LD_20_RN_9_RD_12_1.png"]],"dist500_C":[["C_Dist_500_LN_10_LD_13_RN_7_RD_26_0.png","C_Dist_500_LN_10_LD_15_RN_4_RD_24_0.png","C_Dist_500_LN_12_LD_16_RN_3_RD_12_0.png","C_Dist_500_LN_12_LD_18_RN_4_RD_24_0.png","C_Dist_500_LN_15_LD_18_RN_5_RD_15_0.png","C_Dist_500_LN_15_LD_20_RN_1_RD_4_0.png","C_Dist_500_LN_18_LD_27_RN_1_RD_6_0.png","C_Dist_500_LN_20_LD_24_RN_1_RD_3_0.png","C_Dist_500_LN_20_LD_24_RN_3_RD_9_0.png","C_Dist_500_LN_20_LD_24_RN_7_RD_21_0.png","C_Dist_500_LN_20_LD_28_RN_3_RD_14_0.png","C_Dist_500_LN_21_LD_28_RN_6_RD_24_0.png","C_Dist_500_LN_22_LD_28_RN_2_RD_7_0.png","C_Dist_500_LN_25_LD_30_RN_9_RD_27_0.png","C_Dist_500_LN_4_LD_6_RN_1_RD_6_0.png","C_Dist_500_LN_5_LD_6_RN_2_RD_6_0.png","C_Dist_500_LN_6_LD_9_RN_1_RD_6_0.png","C_Dist_500_LN_7_LD_10_RN_1_RD_5_0.png","C_Dist_500_LN_8_LD_12_RN_1_RD_6_0.png","C_Dist_500_LN_8_LD_12_RN_4_RD_24_0.png"],["C_Dist_500_LN_1_LD_4_RN_12_RD_16_1.png","C_Dist_500_LN_1_LD_4_RN_9_RD_12_1.png","C_Dist_500_LN_1_LD_9_RN_11_RD_18_1.png","C_Dist_500_LN_10_LD_24_RN_22_RD_24_1.png","C_Dist_500_LN_2_LD_12_RN_10_RD_15_1.png","C_Dist_500_LN_2_LD_12_RN_12_RD_18_1.png","C_Dist_500_LN_2_LD_12_RN_4_RD_6_1.png","C_Dist_500_LN_2_LD_24_RN_7_RD_12_1.png","C_Dist_500_LN_2_LD_5_RN_18_RD_20_1.png","C_Dist_500_LN_2_LD_5_RN_9_RD_10_1.png","C_Dist_500_LN_2_LD_8_RN_12_RD_16_1.png","C_Dist_500_LN_2_LD_8_RN_21_RD_28_1.png","C_Dist_500_LN_3_LD_10_RN_4_RD_5_1.png","C_Dist_500_LN_3_LD_12_RN_15_RD_20_1.png","C_Dist_500_LN_3_LD_30_RN_6_RD_10_1.png","C_Dist_500_LN_3_LD_8_RN_14_RD_16_1.png","C_Dist_500_LN_4_LD_16_RN_15_RD_20_1.png","C_Dist_500_LN_4_LD_24_RN_12_RD_18_1.png","C_Dist_500_LN_5_LD_14_RN_6_RD_7_1.png","C_Dist_500_LN_7_LD_21_RN_20_RD_24_1.png","C_Dist_500_LN_7_LD_28_RN_12_RD_16_1.png","C_Dist_500_LN_7_LD_28_RN_9_RD_12_1.png","C_Dist_500_LN_9_LD_27_RN_20_RD_24_1.png"]],"dist500_I":[["I_Dist_500_LN_2_LD_3_RN_4_RD_24_0.png","I_Dist_500_LN_5_LD_6_RN_6_RD_18_0.png","I_Dist_500_LN_7_LD_8_RN_9_RD_24_0.png"],["I_Dist_500_LN_7_LD_21_RN_5_RD_6_1.png"]],"dist500_S":[["E_Dist_500_LN_6_LD_8_RN_6_RD_24_0.png"],["E_Dist_500_LN_2_LD_12_RN_2_RD_3_1.png","E_Dist_500_LN_6_LD_24_RN_6_RD_8_1.png"]]}},{"start_time":1549381305255,"click_time":1549381307547,"finger_time":1549381307006,"fix_duration":1127.8485851794076,"trial":1,"RT":1751,"MT":541,"sideResp":1,"stimulus":[],"xmouse":[412,412,412,412,412,412,412,412,412,412,409.3333435058594,409.3333435058594,409.3333435058594,411.3333435058594,410.66668701171875,410.66668701171875,410.66668701171875,410.66668701171875,410.66668701171875,410.66668701171875,410,410,410,410,410,410,410,410,410,410,406.66668701171875,406.66668701171875,406.66668701171875,406.66668701171875,406.66668701171875,406.66668701171875,406.66668701171875,406.66668701171875,406.66668701171875,406.66668701171875,408,408,408,408,408,408,408,408,408,408,412.66668701171875,412.66668701171875,414,414,414,414.66668701171875,414.66668701171875,415.3333435058594,415.3333435058594,416,416.66668701171875,417.3333435058594,417.3333435058594,418,418,418,418,418,418,417.3333435058594,417.3333435058594,416.66668701171875,416.66668701171875,416.66668701171875,416.66668701171875,416.66668701171875,416.66668701171875,416.66668701171875,416.66668701171875,416.66668701171875,399.3333435058594,397.3333435058594,393.3333435058594,392,388,384,381.3333435058594,373.3333435058594,366,358,353.3333435058594,340.66668701171875,320.66668701171875,311.3333435058594,306,295.3333435058594,286,268.66668701171875,263.3333435058594,252.66668701171875,239.33334350585938,232.6666717529297,216,202.6666717529297,192,185.33334350585938,172.6666717529297,154.6666717529297,149.33334350585938,137.33334350585938,126.66667175292969,121.33334350585938,108.66667175292969,98.66667175292969,91.33333587646484],"ymouse":[825.3333129882812,825.3333129882812,825.3333129882812,825.3333129882812,825.3333129882812,825.3333129882812,825.3333129882812,825.3333129882812,825.3333129882812,825.3333129882812,826,826,826,826.6666870117188,827.3333740234375,826.6666870117188,826.6666870117188,826.6666870117188,826.6666870117188,826.6666870117188,826.6666870117188,826.6666870117188,826.6666870117188,826.6666870117188,826.6666870117188,826.6666870117188,826.6666870117188,826.6666870117188,826.6666870117188,826.6666870117188,824.0000610351562,824.0000610351562,824.0000610351562,824.0000610351562,824.0000610351562,824.0000610351562,824.0000610351562,824.0000610351562,824.0000610351562,824.0000610351562,824.6666870117188,824.6666870117188,824.6666870117188,824.6666870117188,824.6666870117188,824.6666870117188,824.6666870117188,824.6666870117188,824.6666870117188,824.6666870117188,827.3333740234375,827.3333740234375,828.6666870117188,828.6666870117188,828.6666870117188,828.6666870117188,829.3333740234375,829.3333740234375,830,830,830.6666870117188,831.3333740234375,831.3333740234375,832,832,832,832,832,832,831.3333129882812,831.3333129882812,831.3333129882812,831.3333129882812,831.3333129882812,831.3333129882812,831.3333129882812,831.3333129882812,831.3333129882812,831.3333129882812,831.3333129882812,812,808,801.3333740234375,798.6666870117188,791.3333740234375,783.3333740234375,778.6666870117188,763.3333740234375,747.3333740234375,730,720,692.6666870117188,646.6666870117188,618.6666870117188,605.3333740234375,579.3333740234375,552.6666870117188,508.66668701171875,496,468.66668701171875,439.3333435058594,424,378,348.66668701171875,320.66668701171875,306,278.66668701171875,238,225.33334350585938,200,176,164,130.6666717529297,110,92.66667175292969],"timestamp_mouse":[13,43,51,71,91,111,131,151,171,191,211,231,251,271,291,311,331,351,371,391,410,431,451,471,491,511,533,551,571,591,610,632,651,671,691,711,731,751,771,790,810,831,851,871,891,910,931,951,971,991,1011,1031,1051,1071,1091,1111,1131,1151,1171,1191,1211,1232,1250,1271,1291,1311,1331,1351,1371,1391,1411,1431,1451,1470,1491,1511,1531,1552,1571,1591,1611,1630,1650,1671,1691,1711,1731,1751,1771,1791,1810,1831,1851,1871,1891,1911,1931,1953,1971,1991,2010,2032,2053,2071,2091,2111,2131,2153,2171,2191,2211,2231,2253,2271,2291],"xSR":350,"ySR":768,"xT1":30,"yT1":0,"xT2":670,"yT2":0,"toosoon":0,"cond_shown":"Congruent","ratio_trial":300,"L_num":20,"L_den":25,"R_num":14,"R_den":28,"correct_side":1,"subjID":"47wm","gender":"No_gender","school":"No_school","age":"No_age"},{"start_time":1549381310778,"click_time":1549381311986,"finger_time":1549381311327,"fix_duration":1450.8543970854116,"trial":2,"RT":549,"MT":659,"sideResp":2,"stimulus":[],"xmouse":[402.66668701171875,404.66668701171875,404.66668701171875,404.66668701171875,404.66668701171875,404.66668701171875,404.66668701171875,404.66668701171875,404.66668701171875,405.3333435058594,405.3333435058594,406,406,406,406,405.3333435058594,405.3333435058594,404.66668701171875,404.66668701171875,404.66668701171875,404,404,404.66668701171875,405.3333435058594,408.66668701171875,410,414,420.66668701171875,426,428.66668701171875,432.66668701171875,437.3333435058594,440,451.3333435058594,454.66668701171875,462,465.3333435058594,470.66668701171875,480,484.66668701171875,487.3333435058594,492,498,508.66668701171875,514.6666870117188,528.6666870117188,543.3333740234375,564,571.3333740234375,585.3333740234375,601.3333740234375,608.6666870117188,632,646,656,660,667.3333740234375,679.3333740234375,689.3333740234375,695.3333740234375,706.6666870117188],"ymouse":[819.3333740234375,820.6666870117188,820.6666870117188,820.6666870117188,820.6666870117188,820.6666870117188,820.6666870117188,820.6666870117188,820.6666870117188,817.3333740234375,816,815.3333740234375,814,813.3333740234375,813.3333740234375,813.3333740234375,813.3333740234375,813.3333740234375,812.6666870117188,812,810,809.3333740234375,803.3333740234375,800.6666870117188,794,790,780,762.6666870117188,750.6666870117188,746,736,725.3333740234375,718.6666870117188,690.6666870117188,682.6666870117188,667.3333740234375,660,648.6666870117188,630.6666870117188,620,614.6666870117188,604.6666870117188,590.6666870117188,565.3333740234375,552.6666870117188,520.6666870117188,490,442,425.3333435058594,390,353.3333435058594,334,278.66668701171875,244.66668701171875,215.33334350585938,202.6666717529297,178.6666717529297,148,126.66667175292969,115.33334350585938,96],"timestamp_mouse":[12,31,47,68,88,108,128,149,168,188,208,228,248,268,288,308,328,348,368,388,408,428,449,468,487,508,528,549,568,588,608,628,648,669,688,707,727,748,768,788,807,828,847,868,887,908,928,950,967,988,1007,1028,1051,1068,1088,1108,1128,1149,1168,1188,1208],"xSR":350,"ySR":768,"xT1":30,"yT1":0,"xT2":670,"yT2":0,"toosoon":0,"cond_shown":"Congruent","ratio_trial":500,"L_num":2,"L_den":12,"R_num":10,"R_den":15,"correct_side":2,"subjID":"47wm","gender":"No_gender","school":"No_school","age":"No_age"},{"start_time":1549381314357,"click_time":1549381316426,"finger_time":1549381316065,"fix_duration":710.8480287909916,"trial":3,"RT":1708,"MT":361,"sideResp":1,"stimulus":[],"xmouse":[400,400,400,400,400,400,400,400,404,404,404,404,404,404,404,404,404,404,404.66668701171875,404.66668701171875,404.66668701171875,404.66668701171875,404.66668701171875,404.66668701171875,404.66668701171875,404.66668701171875,404.66668701171875,404.66668701171875,404,404,404,404,404,404,404,404,404,404,402.66668701171875,402.66668701171875,402.66668701171875,402.66668701171875,402.66668701171875,402.66668701171875,402.66668701171875,402.66668701171875,402.66668701171875,402.66668701171875,402.66668701171875,402.66668701171875,402.66668701171875,402.66668701171875,402.66668701171875,402.66668701171875,402.66668701171875,402.66668701171875,402.66668701171875,402.66668701171875,402.66668701171875,402.66668701171875,402.66668701171875,402.66668701171875,402.66668701171875,402.66668701171875,402.66668701171875,402.66668701171875,402.66668701171875,402.66668701171875,402.66668701171875,395.3333435058594,395.3333435058594,392.66668701171875,392,391.3333435058594,390.66668701171875,389.3333435058594,388.66668701171875,388,387.3333435058594,386.66668701171875,384,383.3333435058594,382,380.66668701171875,378.66668701171875,378.66668701171875,375.3333435058594,371.3333435058594,359.3333435058594,341.3333435058594,313.3333435058594,306,288,270.66668701171875,262,233.33334350585938,213.33334350585938,195.33334350585938,186.6666717529297,168,140,122.66667175292969,115.33333587646484,104],"ymouse":[831.3333129882812,831.3333129882812,831.3333129882812,831.3333129882812,831.3333129882812,831.3333129882812,831.3333129882812,831.3333129882812,838.6666870117188,838.6666870117188,838.6666870117188,838.6666870117188,838.6666870117188,838.6666870117188,838.6666870117188,838.6666870117188,838.6666870117188,838.6666870117188,840,840,840,840,840,840,840,840,840,840,839.3333129882812,839.3333129882812,839.3333129882812,839.3333129882812,839.3333129882812,839.3333129882812,839.3333129882812,839.3333129882812,839.3333129882812,839.3333129882812,836.6666870117188,836.6666870117188,836.6666870117188,836.6666870117188,836.6666870117188,836.6666870117188,836.6666870117188,836.6666870117188,836.6666870117188,836.6666870117188,836,836,836,836,836,836,836,836,836,836,836,836,836,836,836,836,836,836,836,836,836,826,826,821.3333740234375,820.6666870117188,820,820,819.3333740234375,818.6666870117188,818,816.6666870117188,815.3333740234375,810.6666870117188,809.3333740234375,804.6666870117188,801.3333740234375,780,714,667.3333740234375,643.3333740234375,594,543.3333740234375,470,449.3333435058594,404.66668701171875,363.3333435058594,343.3333435058594,287.3333435058594,254.66668701171875,223.33334350585938,207.33334350585938,176.6666717529297,137.33334350585938,112.66667175292969,100.66667175292969,78.66667175292969],"timestamp_mouse":[11,30,49,69,89,109,129,149,169,189,209,229,249,269,290,309,329,349,369,389,409,429,449,468,489,508,529,549,569,589,609,629,649,669,689,709,729,748,769,789,808,829,848,869,888,909,928,949,969,989,1008,1029,1049,1069,1089,1109,1129,1149,1169,1189,1209,1229,1249,1269,1289,1309,1329,1349,1369,1389,1408,1429,1449,1469,1489,1508,1529,1549,1569,1589,1610,1629,1649,1669,1689,1708,1728,1749,1769,1788,1810,1828,1849,1868,1889,1912,1929,1948,1969,1989,2011,2029,2049,2069],"xSR":350,"ySR":768,"xT1":30,"yT1":0,"xT2":670,"yT2":0,"toosoon":0,"cond_shown":"Congruent","ratio_trial":100,"L_num":3,"L_den":6,"R_num":2,"R_den":5,"correct_side":1,"subjID":"47wm","gender":"No_gender","school":"No_school","age":"No_age"},{"start_time":1549381318825,"click_time":1549381320807,"finger_time":1549381320326,"fix_duration":757.0222131885585,"trial":4,"RT":1501,"MT":481,"sideResp":2,"stimulus":[],"xmouse":[416,416,416,416,416,416,416,416.66668701171875,416.66668701171875,416.66668701171875,416.66668701171875,417.3333435058594,417.3333435058594,417.3333435058594,417.3333435058594,417.3333435058594,417.3333435058594,417.3333435058594,417.3333435058594,417.3333435058594,417.3333435058594,417.3333435058594,417.3333435058594,417.3333435058594,416.66668701171875,416.66668701171875,416.66668701171875,416.66668701171875,416.66668701171875,416.66668701171875,416.66668701171875,416.66668701171875,416.66668701171875,416.66668701171875,417.3333435058594,417.3333435058594,417.3333435058594,417.3333435058594,417.3333435058594,417.3333435058594,417.3333435058594,417.3333435058594,417.3333435058594,417.3333435058594,416.66668701171875,416.66668701171875,416.66668701171875,416.66668701171875,416.66668701171875,416.66668701171875,416.66668701171875,416.66668701171875,416.66668701171875,416.66668701171875,416.66668701171875,416.66668701171875,416.66668701171875,416.66668701171875,416.66668701171875,416.66668701171875,416.66668701171875,416.66668701171875,416.66668701171875,416.66668701171875,416,416,416,416,416,416,416,416,416,416,422.66668701171875,431.3333435058594,436.66668701171875,448.66668701171875,469.3333435058594,486.66668701171875,496,511.3333435058594,531.3333740234375,557.3333740234375,565.3333740234375,584.6666870117188,610,631.3333740234375,644.6666870117188,670,680.6666870117188,683.3333740234375,689.3333740234375,699.3333740234375,709.3333740234375,712,716,719.3333740234375,720,724.6666870117188],"ymouse":[818.6666870117188,818.6666870117188,818.6666870117188,818.6666870117188,819.3333740234375,820,820,820.6666870117188,821.3333740234375,821.3333740234375,821.3333740234375,822,822,822.6666870117188,822.6666870117188,822.6666870117188,822.6666870117188,822.6666870117188,822.6666870117188,822.6666870117188,822.6666870117188,822.6666870117188,822.6666870117188,822,822,822,822,822,822,822,822,822,822,822,822,822,822,822,822,822,822,822,822,822,822,822,822,822,822,822,822,822,822,822,823.3333740234375,823.3333740234375,822.6666870117188,822.6666870117188,822.6666870117188,822.6666870117188,822.6666870117188,822.6666870117188,822.6666870117188,822.6666870117188,822.6666870117188,822.6666870117188,822.6666870117188,822.6666870117188,822.6666870117188,822.6666870117188,822.6666870117188,822.6666870117188,822.6666870117188,822.6666870117188,785.3333740234375,752,734,696.6666870117188,629.3333740234375,574.6666870117188,548,504,461.3333435058594,400.66668701171875,384.66668701171875,346,302.66668701171875,268,241.33334350585938,204,184,178.6666717529297,166.6666717529297,148.6666717529297,129.33334350585938,124.66667175292969,116,106.66667175292969,103.33333587646484,91.33333587646484],"timestamp_mouse":[2,28,41,61,80,101,121,141,161,181,201,221,241,261,281,301,321,341,361,381,401,421,441,461,480,501,520,540,561,581,601,621,641,661,681,701,721,741,761,780,801,821,841,862,881,901,920,941,962,981,1001,1021,1041,1061,1081,1101,1121,1141,1161,1181,1201,1221,1241,1262,1281,1301,1320,1341,1360,1381,1401,1420,1441,1461,1481,1501,1521,1541,1562,1581,1601,1621,1641,1663,1682,1701,1721,1741,1761,1783,1801,1821,1841,1861,1881,1901,1921,1940,1961,1982],"xSR":350,"ySR":768,"xT1":30,"yT1":0,"xT2":670,"yT2":0,"toosoon":0,"cond_shown":"Congruent","ratio_trial":100,"L_num":15,"L_den":25,"R_num":13,"R_den":26,"correct_side":1,"subjID":"47wm","gender":"No_gender","school":"No_school","age":"No_age"},{"start_time":1549381322978,"click_time":1549381324829,"finger_time":1549381324445,"fix_duration":250,"trial":5,"RT":1467,"MT":384,"sideResp":2,"stimulus":[],"xmouse":[404.66668701171875,404.66668701171875,404.66668701171875,404.66668701171875,404.66668701171875,404.66668701171875,404.66668701171875,404,404,404,404.66668701171875,404.66668701171875,405.3333435058594,405.3333435058594,405.3333435058594,405.3333435058594,405.3333435058594,405.3333435058594,405.3333435058594,405.3333435058594,405.3333435058594,405.3333435058594,406,406,406,406,406,406,406,406,406,406,404,404,404,404,404,404,404,404,404,404,404,404,404,404,404,404,404,404,404,404,403.3333435058594,403.3333435058594,403.3333435058594,403.3333435058594,403.3333435058594,403.3333435058594,403.3333435058594,403.3333435058594,403.3333435058594,403.3333435058594,401.3333435058594,401.3333435058594,401.3333435058594,401.3333435058594,401.3333435058594,401.3333435058594,401.3333435058594,401.3333435058594,401.3333435058594,401.3333435058594,414,425.3333435058594,448.66668701171875,460.66668701171875,478,498,507.3333435058594,514,525.3333740234375,540.6666870117188,560.6666870117188,562.6666870117188,583.3333740234375,586,594.6666870117188,635.3333740234375,660.6666870117188,684,686,710.6666870117188,732.6666870117188],"ymouse":[827.3333740234375,827.3333740234375,827.3333740234375,827.3333740234375,827.3333740234375,827.3333740234375,827.3333740234375,816.6666870117188,815.3333740234375,815.3333740234375,816,816,816.6666870117188,816.6666870117188,816.6666870117188,816.6666870117188,816.6666870117188,816.6666870117188,816.6666870117188,816.6666870117188,816.6666870117188,816.6666870117188,822.0000610351562,822.0000610351562,822.0000610351562,822.0000610351562,822.0000610351562,822.0000610351562,822.0000610351562,822.0000610351562,822.0000610351562,822.0000610351562,824.0000610351562,824.0000610351562,824.0000610351562,824.0000610351562,824.0000610351562,824.0000610351562,824.0000610351562,824.0000610351562,824.0000610351562,824.0000610351562,822.6666870117188,822.6666870117188,822.6666870117188,822.6666870117188,822.6666870117188,822.6666870117188,822.6666870117188,822.6666870117188,822.6666870117188,822.6666870117188,821.3333740234375,821.3333740234375,821.3333740234375,821.3333740234375,821.3333740234375,821.3333740234375,821.3333740234375,821.3333740234375,821.3333740234375,821.3333740234375,823.3333740234375,823.3333740234375,823.3333740234375,823.3333740234375,823.3333740234375,823.3333740234375,823.3333740234375,823.3333740234375,823.3333740234375,823.3333740234375,770.6666870117188,740.6666870117188,670.6666870117188,637.3333740234375,592,542.6666870117188,513.3333740234375,497.3333740234375,461.3333435058594,420,364,359.3333435058594,318,305.3333435058594,289.3333435058594,214,174.6666717529297,131.33334350585938,126,101.33333587646484,67.33333587646484],"timestamp_mouse":[10,34,49,68,88,108,128,148,168,187,208,228,249,268,288,307,328,349,368,387,408,428,449,467,488,508,528,548,568,588,608,627,648,668,688,708,729,748,768,788,808,828,847,868,887,908,928,948,969,988,1008,1028,1047,1068,1088,1107,1128,1148,1168,1188,1208,1228,1252,1268,1288,1308,1328,1348,1368,1388,1408,1428,1448,1467,1488,1508,1528,1549,1568,1587,1608,1627,1647,1668,1688,1707,1728,1750,1768,1788,1808,1828,1850],"xSR":350,"ySR":768,"xT1":30,"yT1":0,"xT2":670,"yT2":0,"toosoon":0,"cond_shown":"Incongruent","ratio_trial":100,"L_num":9,"L_den":10,"R_num":20,"R_den":25,"correct_side":1,"subjID":"47wm","gender":"No_gender","school":"No_school","age":"No_age"},{"start_time":1549381327342,"click_time":1549381328971,"finger_time":1549381328706,"fix_duration":1134.6688852164216,"trial":6,"RT":1364,"MT":265,"sideResp":2,"stimulus":[],"xmouse":[388,388,388,388,388,388,395.3333435058594,395.3333435058594,395.3333435058594,395.3333435058594,395.3333435058594,395.3333435058594,395.3333435058594,395.3333435058594,395.3333435058594,395.3333435058594,396,396,396,396,395.3333435058594,395.3333435058594,395.3333435058594,395.3333435058594,395.3333435058594,395.3333435058594,391.3333435058594,391.3333435058594,391.3333435058594,391.3333435058594,391.3333435058594,391.3333435058594,391.3333435058594,391.3333435058594,391.3333435058594,391.3333435058594,387.3333435058594,387.3333435058594,387.3333435058594,387.3333435058594,387.3333435058594,387.3333435058594,387.3333435058594,387.3333435058594,387.3333435058594,387.3333435058594,386,386,386,386,386,386,386,386,386,386,384.6666564941406,384.6666564941406,384.6666564941406,384.6666564941406,384.6666564941406,384.6666564941406,384.6666564941406,384.6666564941406,384.6666564941406,384.6666564941406,388.6666564941406,388.6666564941406,405.3333435058594,424,433.3333435058594,476,486,509.3333435058594,534.6666870117188,572.6666870117188,587.3334350585938,612.0000610351562,636.6666870117188,648.0000610351562,666.6666870117188,686.0000610351562],"ymouse":[810,810,810,810,810,810,820.6666870117188,820.6666870117188,820.6666870117188,820.6666870117188,820.6666870117188,820.6666870117188,820.6666870117188,820.6666870117188,820.6666870117188,820.6666870117188,823.3333129882812,823.3333129882812,823.3333129882812,823.3333129882812,822.6666870117188,822.6666870117188,822.6666870117188,822.6666870117188,822.6666870117188,822.6666870117188,820,820,820,820,820,820,820,820,820,820,817.3333129882812,817.3333129882812,817.3333129882812,817.3333129882812,817.3333129882812,817.3333129882812,817.3333129882812,817.3333129882812,817.3333129882812,817.3333129882812,816.6666870117188,816.6666870117188,816.6666870117188,816.6666870117188,816.6666870117188,816.6666870117188,816.6666870117188,816.6666870117188,816.6666870117188,816.6666870117188,816.6666870117188,816.6666870117188,816.6666870117188,816.6666870117188,816.6666870117188,816.6666870117188,816,816,816,816,807.3333740234375,807.3333740234375,755.3333740234375,703.3333740234375,678,566.6666870117188,536,470,400,302.66668701171875,268,211.33334350585938,158,137.33334350585938,99.33333587646484,64.66667175292969],"timestamp_mouse":[10,37,44,64,84,104,126,144,164,184,204,224,244,264,284,304,324,344,364,383,403,424,444,464,484,504,524,544,564,584,605,624,644,664,684,703,725,744,764,784,804,824,844,864,884,905,925,944,964,984,1004,1024,1044,1064,1084,1104,1124,1144,1164,1184,1204,1224,1244,1264,1284,1304,1326,1344,1364,1384,1404,1424,1444,1464,1484,1506,1524,1544,1564,1584,1605,1629],"xSR":350,"ySR":768,"xT1":30,"yT1":0,"xT2":670,"yT2":0,"toosoon":0,"cond_shown":"Congruent","ratio_trial":500,"L_num":2,"L_den":8,"R_num":12,"R_den":16,"correct_side":2,"subjID":"47wm","gender":"No_gender","school":"No_school","age":"No_age"},{"start_time":1549381330760,"click_time":1549381333006,"finger_time":1549381332306,"fix_duration":653.9244786269301,"trial":7,"RT":1546,"MT":700,"sideResp":2,"stimulus":[],"xmouse":[407.3333435058594,407.3333435058594,407.3333435058594,407.3333435058594,407.3333435058594,407.3333435058594,407.3333435058594,407.3333435058594,405.3333435058594,405.3333435058594,405.3333435058594,406,406,406.66668701171875,406.66668701171875,406.66668701171875,406.66668701171875,406.66668701171875,406.66668701171875,406.66668701171875,406.66668701171875,406.66668701171875,406.66668701171875,406,406,406,406,404.66668701171875,404,404,403.3333435058594,403.3333435058594,403.3333435058594,403.3333435058594,402.66668701171875,402.66668701171875,402.66668701171875,402,402,402,402,402.6666564941406,402.6666564941406,402.6666564941406,402.6666564941406,402.6666564941406,402.6666564941406,402.6666564941406,402.6666564941406,402.6666564941406,402.6666564941406,402.6666564941406,408.6666564941406,408.6666564941406,408.6666564941406,408.6666564941406,408.6666564941406,408.6666564941406,408.6666564941406,408.6666564941406,408.6666564941406,408.6666564941406,408.6666564941406,408.6666564941406,408.6666564941406,408,408,408,408,408,408,408,408,408,408,394.66668701171875,380,376,368.66668701171875,364.66668701171875,358,350.66668701171875,345.3333435058594,342.66668701171875,338,334.66668701171875,330.66668701171875,330,329.3333435058594,330,330,330.6667175292969,330.6667175292969,330.6667175292969,330.6667175292969,330.6667175292969,330.6667175292969,356,365.3333435058594,386,397.3333435058594,448,461.3333435058594,486.66668701171875,510.66668701171875,524,561.3333740234375,586.6666870117188,613.3333740234375,627.3333740234375,653.3333740234375,690.6666870117188,712],"ymouse":[820,820,820,820,820,820,820,820,818.6666870117188,818.6666870117188,819.3333129882812,819.3333129882812,819.3333129882812,820,820,820,820,820,820,820,820,820,820,816.6666870117188,816.6666870117188,816.6666870117188,816.6666870117188,818.6666870117188,818,818,818,818,817.3333129882812,817.3333129882812,817.3333129882812,816.6666870117188,816.6666870117188,816,815.3333129882812,815.3333129882812,815.3333129882812,814.6666870117188,815.3333129882812,815.3333129882812,815.3333129882812,815.3333129882812,815.3333129882812,815.3333129882812,815.3333129882812,815.3333129882812,815.3333129882812,815.3333129882812,817.3333129882812,817.3333129882812,817.3333129882812,817.3333129882812,817.3333129882812,817.3333129882812,817.3333129882812,817.3333129882812,817.3333129882812,817.3333129882812,817.3333129882812,817.3333129882812,817.3333129882812,817.3333129882812,817.3333129882812,817.3333129882812,817.3333129882812,817.3333129882812,817.3333129882812,817.3333129882812,817.3333129882812,817.3333129882812,817.3333129882812,795.3333740234375,768,760,743.3333740234375,734.6666870117188,716.6666870117188,696,682.6666870117188,676,664.6666870117188,656,648.6666870117188,647.3333740234375,644.6666870117188,644,643.3333740234375,642,642,642,642,642,642,580.6666870117188,563.3333740234375,526.6666870117188,507.3333740234375,426.66668701171875,406,366.66668701171875,333.3333435058594,312.66668701171875,264,232,201.33334350585938,185.33334350585938,155.33334350585938,116,92.66667175292969],"timestamp_mouse":[6,37,46,66,86,106,126,146,166,186,207,226,246,266,286,306,326,346,366,386,407,426,446,466,486,506,526,546,566,586,608,626,646,665,686,706,726,746,766,786,806,826,846,866,886,907,927,946,966,986,1006,1025,1045,1066,1086,1105,1126,1146,1166,1186,1206,1226,1246,1266,1286,1306,1326,1346,1366,1386,1406,1427,1446,1465,1486,1506,1526,1546,1566,1586,1606,1626,1645,1666,1685,1706,1726,1746,1765,1786,1806,1827,1846,1865,1886,1906,1927,1946,1966,1986,2006,2028,2046,2066,2086,2106,2127,2146,2166,2186,2206,2226,2245],"xSR":350,"ySR":768,"xT1":30,"yT1":0,"xT2":670,"yT2":0,"toosoon":0,"cond_shown":"Congruent","ratio_trial":500,"L_num":2,"L_den":5,"R_num":9,"R_den":10,"correct_side":2,"subjID":"47wm","gender":"No_gender","school":"No_school","age":"No_age"},{"start_time":1549381334677,"click_time":1549381336786,"finger_time":1549381336426,"fix_duration":250,"trial":8,"RT":1749,"MT":360,"sideResp":1,"stimulus":[],"xmouse":[389.3333435058594,389.3333435058594,389.3333435058594,389.3333435058594,389.3333435058594,392,392,392,392,392,392,392,392,392,392,391.3333435058594,391.3333435058594,391.3333435058594,391.3333435058594,391.3333435058594,391.3333435058594,391.3333435058594,391.3333435058594,391.3333435058594,391.3333435058594,393.3333435058594,393.3333435058594,393.3333435058594,393.3333435058594,393.3333435058594,393.3333435058594,393.3333435058594,393.3333435058594,393.3333435058594,393.3333435058594,396,396.66668701171875,396.66668701171875,396.66668701171875,396.66668701171875,396.66668701171875,396.66668701171875,396.66668701171875,396.66668701171875,397.3333435058594,397.3333435058594,397.3333435058594,397.3333435058594,397.3333435058594,397.3333435058594,397.3333435058594,397.3333435058594,397.3333435058594,397.3333435058594,397.3333435058594,397.3333435058594,397.3333435058594,397.3333435058594,396.66668701171875,396.66668701171875,396.66668701171875,396.66668701171875,396.66668701171875,396.66668701171875,396.66668701171875,396.66668701171875,396.66668701171875,396.66668701171875,396.66668701171875,396.66668701171875,396.66668701171875,396.66668701171875,396.66668701171875,396.66668701171875,396.66668701171875,396.66668701171875,396.66668701171875,396.66668701171875,396,396,396,396,396,396,396,396,396,373.3333435058594,360.66668701171875,354,339.3333435058594,310.66668701171875,290,279.3333435058594,259.3333435058594,250.66668701171875,212,202.6666717529297,187.33334350585938,179.33334350585938,164,140.6666717529297,124,109.33333587646484,102.66667175292969,88.66667175292969],"ymouse":[812,812,812,812,812,810,810,810,810,810,810,810,810,810,810,810,810,810,810,810,810,810,810,810,810,809.3333740234375,809.3333740234375,809.3333740234375,809.3333740234375,809.3333740234375,809.3333740234375,809.3333740234375,809.3333740234375,809.3333740234375,809.3333740234375,806.6666870117188,806,806,806,806,806,806,806,806,804.6666870117188,804.6666870117188,804.6666870117188,804.6666870117188,804,804,804,804,804,804,804,804,804,804,804,804,804,804,804,804,804,804,804,804,803.3333740234375,803.3333740234375,803.3333740234375,803.3333740234375,803.3333740234375,803.3333740234375,803.3333740234375,803.3333740234375,803.3333740234375,803.3333740234375,803.3333740234375,803.3333740234375,803.3333740234375,803.3333740234375,803.3333740234375,803.3333740234375,803.3333740234375,803.3333740234375,803.3333740234375,716.6666870117188,684,668,631.3333740234375,576,538.6666870117188,518.6666870117188,480.66668701171875,462.66668701171875,379.3333435058594,358,318.66668701171875,300,262.66668701171875,210.6666717529297,176,142.6666717529297,126.66667175292969,96],"timestamp_mouse":[11,29,49,69,89,109,129,150,169,188,208,229,248,269,289,309,329,349,369,389,409,429,449,469,489,509,528,549,569,589,609,629,649,668,689,709,731,749,769,788,809,829,849,869,889,909,929,949,969,989,1009,1029,1049,1069,1088,1109,1129,1148,1169,1189,1209,1229,1249,1269,1289,1309,1329,1348,1369,1389,1409,1430,1449,1469,1489,1509,1529,1548,1569,1589,1609,1628,1649,1669,1689,1709,1729,1749,1769,1789,1809,1830,1849,1869,1889,1909,1930,1949,1969,1988,2008,2032,2049,2069,2089,2109],"xSR":350,"ySR":768,"xT1":30,"yT1":0,"xT2":670,"yT2":0,"toosoon":0,"cond_shown":"Congruent","ratio_trial":300,"L_num":2,"L_den":10,"R_num":12,"R_den":24,"correct_side":2,"subjID":"47wm","gender":"No_gender","school":"No_school","age":"No_age"},{"start_time":1549381338942,"click_time":1549381340546,"finger_time":1549381340245,"fix_duration":554.8990186709025,"trial":9,"RT":1303,"MT":301,"sideResp":1,"stimulus":[],"xmouse":[418,418,418,418,418,418,418,418,418,418,418,418,418,418,418,418,418,418,418,418,418,418,418,418,418,418,418,418,418,418,418,418,418,418,418,418,418,418,418,418,418,418,418,418,418,418,418,418,418,418,418,418,418,418,418,418,418,418,418,418,418,418,413.3333435058594,409.3333435058594,409.3333435058594,394.66668701171875,389.3333435058594,376,359.3333435058594,323.3333435058594,308,279.3333435058594,249.33334350585938,234,203.33334350585938,162,137.33334350585938,126,106,79.33333587646484,64.66667175292969],"ymouse":[826,826,826,826,826,826,826,826,826,826,826,826,826,826,826,826,826,826,826,826,826,826,826,826,826,826,826,826,826,826,826,826,826,826,826,826,826,826,826,826,826,826,826,826,826,826,826,826,826,826,826,826,826,826,826,826,826,826,826,826,826,826,819.3333740234375,809.3333129882812,809.3333129882812,727.3333740234375,707.3333740234375,658.6666870117188,606,528,503.3333740234375,460.66668701171875,418.66668701171875,398,355.3333435058594,290.66668701171875,247.33334350585938,224,182,126,94.66667175292969],"timestamp_mouse":[9,32,43,63,84,104,124,143,164,184,204,224,244,263,284,304,324,343,364,383,404,424,444,464,484,504,524,544,564,584,604,623,644,664,684,703,724,744,764,784,804,824,844,863,884,904,924,943,964,984,1004,1024,1044,1064,1084,1104,1124,1144,1164,1184,1204,1224,1244,1264,1284,1303,1324,1343,1364,1386,1404,1424,1444,1464,1484,1504,1524,1544,1564,1586,1603],"xSR":350,"ySR":768,"xT1":30,"yT1":0,"xT2":670,"yT2":0,"toosoon":0,"cond_shown":"Incongruent","ratio_trial":300,"L_num":13,"L_den":26,"R_num":12,"R_den":15,"correct_side":2,"subjID":"47wm","gender":"No_gender","school":"No_school","age":"No_age"},{"start_time":1549381342545,"click_time":1549381343667,"finger_time":1549381343126,"fix_duration":476.38607415269917,"trial":10,"RT":581,"MT":541,"sideResp":2,"stimulus":[],"xmouse":[412,412,412,412,412,412,412,412,412,412,412,412,412,412,412,412,412,412,412,412,412,412,412,412,412,418,419.3333435058594,420.66668701171875,430.66668701171875,446.66668701171875,462,476,484.66668701171875,490.66668701171875,493.3333435058594,498.66668701171875,502.66668701171875,508.66668701171875,514,527.3333740234375,535.3333740234375,562,568.6666870117188,579.3333740234375,586,599.3333740234375,617.3333740234375,628,638,644,652.6666870117188,664.6666870117188,671.3333740234375,674,678.6666870117188,681.3333740234375,698.6666870117188],"ymouse":[820.0000610351562,820.0000610351562,820.0000610351562,820.0000610351562,820.0000610351562,820.0000610351562,820.0000610351562,820.0000610351562,820.0000610351562,820.0000610351562,820.6666870117188,820.6666870117188,820.6666870117188,820.6666870117188,820.6666870117188,820.6666870117188,820.6666870117188,820.6666870117188,820.6666870117188,820.6666870117188,818.0000610351562,818.0000610351562,818.0000610351562,818.0000610351562,818.0000610351562,806,803.3333740234375,800.6666870117188,778,742,712.6666870117188,688.6666870117188,672,658,652,639.3333740234375,624,603.3333740234375,587.3333740234375,546.6666870117188,524.6666870117188,447.3333435058594,427.3333435058594,390,367.3333435058594,322.66668701171875,256,218.6666717529297,184.6666717529297,171.33334350585938,152,127.33334350585938,118.66667175292969,114,104.66667175292969,100.66667175292969,70],"timestamp_mouse":[5,21,41,61,81,101,121,141,161,181,201,220,241,261,281,302,321,341,361,381,401,422,441,461,481,502,521,541,561,581,602,621,641,661,681,701,721,742,761,781,801,823,841,861,881,901,923,940,961,981,1002,1022,1041,1061,1081,1101,1122],"xSR":350,"ySR":768,"xT1":30,"yT1":0,"xT2":670,"yT2":0,"toosoon":0,"cond_shown":"Incongruent","ratio_trial":300,"L_num":13,"L_den":26,"R_num":12,"R_den":15,"correct_side":2,"subjID":"47wm","gender":"No_gender","school":"No_school","age":"No_age"},{"start_time":1549381346228,"click_time":1549381347026,"finger_time":1549381346686,"fix_duration":1357.973439784149,"trial":11,"RT":458,"MT":340,"sideResp":2,"stimulus":[],"xmouse":[401.3333435058594,401.3333435058594,401.3333435058594,400.6666564941406,400.6666564941406,400.6666564941406,400.6666564941406,400.6666564941406,400.6666564941406,400.6666564941406,400.6666564941406,400.6666564941406,400.6666564941406,402.66668701171875,402.66668701171875,402.66668701171875,402.66668701171875,403.3333435058594,404,406,414,414,466,478.66668701171875,504,532.6666870117188,548,590.6666870117188,620,647.3333740234375,659.3333740234375,682,706,714.6666870117188,717.3333740234375,720,721.3333740234375,724,724.6666870117188,726.6666870117188],"ymouse":[795.3333740234375,795.3333740234375,795.3333740234375,796.0000610351562,796.0000610351562,796.0000610351562,796.0000610351562,796.0000610351562,796.0000610351562,796.0000610351562,796.0000610351562,796.0000610351562,796.0000610351562,794.0000610351562,794.0000610351562,793.3333740234375,793.3333740234375,792.6666870117188,791.3333740234375,788.6666870117188,769.3333740234375,769.3333740234375,646.6666870117188,622.6666870117188,572.6666870117188,515.3333740234375,486,398.66668701171875,340,286,262,220,168,143.33334350585938,134.6666717529297,124,116.66667175292969,104.66667175292969,100.66667175292969,95.33333587646484],"timestamp_mouse":[18,38,58,78,98,117,138,158,178,198,218,238,258,277,298,318,337,358,377,398,418,438,458,478,499,518,538,558,578,598,618,638,658,678,698,718,738,760,778,798],"xSR":350,"ySR":768,"xT1":30,"yT1":0,"xT2":670,"yT2":0,"toosoon":0,"cond_shown":"Incongruent","ratio_trial":200,"L_num":14,"L_den":30,"R_num":6,"R_den":9,"correct_side":2,"subjID":"47wm","gender":"No_gender","school":"No_school","age":"No_age"},{"start_time":1549381349717,"click_time":1549381350526,"finger_time":1549381350225,"fix_duration":1469.4117840499696,"trial":12,"RT":508,"MT":301,"sideResp":1,"stimulus":[],"xmouse":[400.0000305175781,400.0000305175781,400.0000305175781,400.0000305175781,400.0000305175781,402.0000305175781,402.0000305175781,402.0000305175781,402.0000305175781,402.0000305175781,402.0000305175781,402.0000305175781,402.0000305175781,402.0000305175781,404.66668701171875,404.66668701171875,404.66668701171875,404.66668701171875,404.66668701171875,404.66668701171875,404.66668701171875,404.66668701171875,404.66668701171875,404.66668701171875,404.66668701171875,349.3333435058594,334,326.66668701171875,313.3333435058594,288.66668701171875,270.66668701171875,262,244,235.33334350585938,202,195.33334350585938,177.33334350585938,170,153.33334350585938,133.33334350585938,120.66667175292969],"ymouse":[796.6666870117188,796.6666870117188,796.6666870117188,796.6666870117188,796.6666870117188,797.3333740234375,797.3333740234375,797.3333740234375,797.3333740234375,797.3333740234375,797.3333740234375,797.3333740234375,797.3333740234375,797.3333740234375,800.6666870117188,800.6666870117188,800.6666870117188,800.6666870117188,800.6666870117188,800.6666870117188,800.6666870117188,800.6666870117188,800.6666870117188,800.6666870117188,800.6666870117188,688,642.6666870117188,618,566.6666870117188,474,414,386.66668701171875,333.3333435058594,309.3333435058594,224,208,176,160.6666717529297,133.33334350585938,98.66667175292969,77.33333587646484],"timestamp_mouse":[10,36,48,69,89,109,129,149,169,189,209,229,249,269,289,309,329,349,369,389,409,429,449,469,489,508,529,549,569,590,609,629,648,669,690,709,729,749,769,791,809],"xSR":350,"ySR":768,"xT1":30,"yT1":0,"xT2":670,"yT2":0,"toosoon":0,"cond_shown":"Congruent","ratio_trial":100,"L_num":7,"L_den":14,"R_num":9,"R_den":15,"correct_side":2,"subjID":"47wm","gender":"No_gender","school":"No_school","age":"No_age"},{"start_time":1549381352298,"click_time":1549381353286,"finger_time":1549381352906,"fix_duration":250,"trial":13,"RT":608,"MT":380,"sideResp":2,"stimulus":[],"xmouse":[400.66668701171875,400.66668701171875,400.66668701171875,400.66668701171875,400.66668701171875,400.66668701171875,400.66668701171875,400.66668701171875,404,404,404,404,404,404,404,404,404,404,403.3333435058594,403.3333435058594,403.3333435058594,404.66668701171875,405.3333435058594,406.66668701171875,407.3333435058594,409.3333435058594,415.3333435058594,420.66668701171875,427.3333435058594,430,436.66668701171875,452,460.66668701171875,464,474,484,490.66668701171875,512,526.6666870117188,536,555.3333740234375,590,610,627.3333740234375,635.3333740234375,653.3333740234375,674.6666870117188,687.3333740234375,692,702.6666870117188],"ymouse":[827.3333129882812,827.3333129882812,827.3333129882812,827.3333129882812,827.3333129882812,827.3333129882812,827.3333129882812,827.3333129882812,826,826,826,826,826,826,826,826,826,826,824,824,824,822.6666870117188,822,820.6666870117188,819.3333740234375,816,806.6666870117188,794.6666870117188,780.6666870117188,772.6666870117188,756.6666870117188,721.3333740234375,702,693.3333740234375,672.6666870117188,650.6666870117188,636,584,544.6666870117188,524,476.66668701171875,392.66668701171875,344.66668701171875,302.66668701171875,281.3333435058594,237.33334350585938,172,132,114,83.33333587646484],"timestamp_mouse":[11,29,48,68,88,108,128,147,168,187,208,228,248,268,288,308,327,348,368,388,408,427,448,468,487,508,528,548,567,588,608,628,648,668,688,708,727,749,768,788,808,831,848,868,888,908,930,948,968,988],"xSR":350,"ySR":768,"xT1":30,"yT1":0,"xT2":670,"yT2":0,"toosoon":0,"cond_shown":"Congruent","ratio_trial":500,"L_num":4,"L_den":16,"R_num":15,"R_den":20,"correct_side":2,"subjID":"47wm","gender":"No_gender","school":"No_school","age":"No_age"},{"start_time":1549381355035,"click_time":1549381355986,"finger_time":1549381355566,"fix_duration":688.8686138339913,"trial":14,"RT":531,"MT":420,"sideResp":2,"stimulus":[],"xmouse":[396,396.66668701171875,396.66668701171875,396.66668701171875,397.3333435058594,397.3333435058594,397.3333435058594,397.3333435058594,397.3333435058594,398,398,398,398,398,398,398,398,398,398,398,398.66668701171875,398.66668701171875,400,401.3333435058594,410.66668701171875,413.3333435058594,420.66668701171875,428.66668701171875,432.66668701171875,446.66668701171875,457.3333435058594,468.66668701171875,475.3333435058594,490,510.66668701171875,526.6666870117188,534.6666870117188,550.6666870117188,558.6666870117188,585.3333740234375,592.6666870117188,605.3333740234375,612.6666870117188,625.3333740234375,644.6666870117188,661.3333740234375,672],"ymouse":[821.3333740234375,821.3333740234375,821.3333740234375,821.3333740234375,820.6666870117188,820.6666870117188,820.6666870117188,820.6666870117188,820.6666870117188,820,819.3333740234375,818.6666870117188,818.6666870117188,818.6666870117188,818,817.3333740234375,816.6666870117188,816.6666870117188,815.3333740234375,813.3333740234375,810,808,802.6666870117188,798.6666870117188,772,764.6666870117188,748.6666870117188,728.6666870117188,719.3333740234375,688.6666870117188,664.6666870117188,638,622,584.6666870117188,526,481.3333435058594,457.3333435058594,409.3333435058594,388,304,280,241.33334350585938,219.33334350585938,179.33334350585938,119.33334350585938,76.66667175292969,54.66667175292969],"timestamp_mouse":[30,50,71,91,111,131,151,171,191,211,231,251,271,291,311,331,351,371,390,411,431,451,470,491,511,531,551,571,591,612,630,651,671,691,711,731,751,770,791,811,831,851,871,891,914,931,951],"xSR":350,"ySR":768,"xT1":30,"yT1":0,"xT2":670,"yT2":0,"toosoon":0,"cond_shown":"Congruent","ratio_trial":100,"L_num":7,"L_den":14,"R_num":15,"R_den":25,"correct_side":2,"subjID":"47wm","gender":"No_gender","school":"No_school","age":"No_age"},{"start_time":1549381360557,"click_time":1549381361606,"finger_time":1549381361387,"fix_duration":788.7983314004665,"trial":15,"RT":830,"MT":219,"sideResp":2,"stimulus":[],"xmouse":[440.0000305175781,440.0000305175781,440.0000305175781,440.0000305175781,431.3333435058594,429.3333435058594,428,427.3333435058594,427.3333435058594,427.3333435058594,427.3333435058594,427.3333435058594,427.3333435058594,427.3333435058594,427.3333435058594,426.66668701171875,426.66668701171875,426.66668701171875,426.66668701171875,426.66668701171875,426.66668701171875,427.3333435058594,427.3333435058594,427.3333435058594,427.3333435058594,427.3333435058594,427.3333435058594,427.3333435058594,427.3333435058594,427.3333435058594,427.3333435058594,427.3333435058594,435.3333435058594,436.66668701171875,437.3333435058594,437.3333435058594,437.3333435058594,437.3333435058594,437.3333435058594,437.3333435058594,437.3333435058594,494.66668701171875,506,530,542.6666870117188,568,605.3333740234375,632,643.3333740234375,668.6666870117188,690.6666870117188,712.6666870117188,718],"ymouse":[810.6666870117188,810.6666870117188,810.6666870117188,810.6666870117188,809.3333129882812,809.3333129882812,809.3333129882812,808.6666870117188,808.6666870117188,808,807.3333129882812,806.6666870117188,806.6666870117188,806,805.3333129882812,805.3333129882812,804,803.3333129882812,802.6666870117188,802,800.6666870117188,798,798,798,798,798,798,798,798,798,798,798,780.6666870117188,780.6666870117188,780,780,780,780,780,780,780,608,576.6666870117188,508,474,412.66668701171875,328.66668701171875,270,242.66668701171875,190,146.6666717529297,106.66667175292969,96.66667175292969],"timestamp_mouse":[11,30,49,69,89,109,129,149,169,189,209,229,249,269,289,309,329,349,369,389,409,431,449,469,489,509,529,549,569,589,609,629,649,669,689,709,729,749,769,789,809,830,849,869,889,909,929,948,968,988,1009,1030,1049],"xSR":350,"ySR":768,"xT1":30,"yT1":0,"xT2":670,"yT2":0,"toosoon":0,"cond_shown":"Incongruent","ratio_trial":200,"L_num":7,"L_den":10,"R_num":14,"R_den":28,"correct_side":1,"subjID":"47wm","gender":"No_gender","school":"No_school","age":"No_age"},{"start_time":1549381367242,"click_time":1549381369147,"finger_time":1549381368127,"fix_duration":874.6102665425167,"trial":16,"RT":885,"MT":1020,"sideResp":1,"stimulus":[],"xmouse":[419.3333435058594,419.3333435058594,419.3333435058594,419.3333435058594,418.66668701171875,418.66668701171875,418.66668701171875,418.66668701171875,418.66668701171875,418.66668701171875,418.66668701171875,418.66668701171875,418.66668701171875,418.66668701171875,420,420,420,420,420,420,420,420,420,420,420,420.66668701171875,420.66668701171875,420.66668701171875,420.66668701171875,420.66668701171875,420.66668701171875,420.66668701171875,420.66668701171875,420.66668701171875,420.66668701171875,429.3333435058594,430.66668701171875,432,432.66668701171875,435.3333435058594,436,436,435.3333435058594,435.3333435058594,433.3333435058594,432,431.3333435058594,430.66668701171875,430,428.66668701171875,427.3333435058594,426.66668701171875,426,425.3333435058594,424.66668701171875,424.66668701171875,424.66668701171875,425.3333435058594,425.3333435058594,428.66668701171875,432,433.3333435058594,433.3333435058594,433.3333435058594,433.3333435058594,433.3333435058594,433.3333435058594,433.3333435058594,433.3333435058594,433.3333435058594,433.3333435058594,436.66668701171875,436.66668701171875,436.66668701171875,432,427.3333435058594,426,417.3333435058594,404,386,380,367.3333435058594,351.3333435058594,340.66668701171875,316,281.3333435058594,257.3333435058594,243.33334350585938,218,192.6666717529297,155.33334350585938,142,116,92,81.33333587646484,55.333335876464844],"ymouse":[789.3333740234375,789.3333740234375,789.3333740234375,789.3333740234375,789.3333740234375,789.3333740234375,789.3333740234375,789.3333740234375,789.3333740234375,789.3333740234375,789.3333740234375,789.3333740234375,789.3333740234375,789.3333740234375,787.3333740234375,787.3333740234375,787.3333740234375,787.3333740234375,787.3333740234375,787.3333740234375,787.3333740234375,787.3333740234375,787.3333740234375,787.3333740234375,787.3333740234375,788.6666870117188,788.6666870117188,788.6666870117188,788.6666870117188,788.6666870117188,788.6666870117188,788.6666870117188,788.6666870117188,788.6666870117188,788.6666870117188,796,797.3333740234375,800,801.3333740234375,820.6666870117188,826.6666870117188,839.3333740234375,846.6666870117188,858.6666870117188,870,874.6666870117188,876.6666870117188,877.3333740234375,878,878,878.6666870117188,879.3333740234375,880.6666870117188,881.3333740234375,883.3333740234375,886,887.3333740234375,888,888.6666870117188,890,890,890,890,890,890,890,890,890,890,890,890,877.3333740234375,877.3333740234375,877.3333740234375,870,866.6666870117188,864.6666870117188,846,796.6666870117188,718.6666870117188,692.6666870117188,632.6666870117188,571.3333740234375,543.3333740234375,491.3333435058594,417.3333435058594,368,344.66668701171875,301.3333435058594,262.66668701171875,209.33334350585938,191.33334350585938,156,121.33334350585938,106,68.66667175292969],"timestamp_mouse":[7,31,44,64,84,103,124,144,164,185,204,224,244,264,286,304,323,344,364,385,404,424,444,464,484,504,524,544,564,584,604,624,644,664,684,703,724,744,764,785,804,824,844,864,885,906,924,943,964,985,1004,1029,1044,1064,1083,1104,1124,1143,1164,1184,1206,1224,1244,1264,1284,1304,1324,1343,1364,1384,1405,1423,1444,1464,1484,1505,1524,1544,1564,1585,1605,1624,1644,1663,1684,1704,1724,1744,1763,1784,1806,1824,1844,1863,1884,1905],"xSR":350,"ySR":768,"xT1":30,"yT1":0,"xT2":670,"yT2":0,"toosoon":0,"cond_shown":"Congruent","ratio_trial":300,"L_num":1,"L_den":5,"R_num":11,"R_den":22,"correct_side":2,"subjID":"47wm","gender":"No_gender","school":"No_school","age":"No_age"},{"start_time":1549381372197,"click_time":1549381373746,"finger_time":1549381372566,"fix_duration":569.29474594324,"trial":17,"RT":369,"MT":1180,"sideResp":1,"stimulus":[],"xmouse":[412,412,412,411.3333435058594,411.3333435058594,411.3333435058594,410.66668701171875,410.66668701171875,410.66668701171875,411.3333435058594,411.3333435058594,412,412.66668701171875,416,417.3333435058594,420.66668701171875,422.66668701171875,428,451.3333435058594,474.66668701171875,489.3333435058594,522,547.3333740234375,583.3333740234375,603.3333740234375,609.3333740234375,625.3333740234375,632,661.3333740234375,666,678.6666870117188,682.6666870117188,687.3333740234375,690.6666870117188,692.6666870117188,693.3333740234375,696,698.6666870117188,704,706,707.3333740234375,709.3333740234375,710.6666870117188,713.3333740234375,713.3333740234375,712.6666870117188,712.6666870117188,712.6666870117188,712.6666870117188,712.6666870117188,704,700.6666870117188,681.3333740234375,666.6666870117188,634,585.3333740234375,556,543.3333740234375,498,489.3333435058594,470,461.3333435058594,446,430,422.66668701171875,418,418,418,418,328,310,274.66668701171875,255.33334350585938,207.33334350585938,180,155.33334350585938,144.6666717529297,124.66667175292969],"ymouse":[822.6666870117188,822.6666870117188,822.6666870117188,822,821.3333740234375,821.3333740234375,821.3333740234375,820.6666870117188,820,819.3333740234375,819.3333740234375,818,816.6666870117188,810.6666870117188,808,797.3333740234375,791.3333740234375,774.6666870117188,704.6666870117188,646,616,554,504,440.66668701171875,402,388.66668701171875,356,339.3333435058594,272,256.66668701171875,228,215.33334350585938,201.33334350585938,185.33334350585938,177.33334350585938,173.33334350585938,164.6666717529297,156,146.6666717529297,140.6666717529297,138.6666717529297,133.33334350585938,132,128,128.6666717529297,130,130,130,130,130,151.33334350585938,156.6666717529297,178,194,232,288,321.3333435058594,336.66668701171875,386,396,417.3333435058594,425.3333435058594,440.66668701171875,450.66668701171875,450.0000305175781,448.0000305175781,448.0000305175781,448.0000305175781,448.0000305175781,364,345.3333435058594,311.3333435058594,295.3333435058594,240.66668701171875,196.6666717529297,151.33334350585938,127.33334350585938,84.66667175292969],"timestamp_mouse":[11,32,49,69,89,108,129,149,169,188,209,229,248,269,289,309,329,349,369,389,409,429,449,470,489,509,529,548,571,589,609,629,649,669,689,709,729,749,769,789,808,829,849,870,889,909,929,949,969,989,1009,1029,1049,1069,1088,1108,1129,1149,1171,1189,1209,1229,1248,1271,1289,1308,1329,1349,1369,1389,1408,1429,1449,1471,1490,1508,1529,1549],"xSR":350,"ySR":768,"xT1":30,"yT1":0,"xT2":670,"yT2":0,"toosoon":0,"cond_shown":"Congruent","ratio_trial":500,"L_num":8,"L_den":12,"R_num":4,"R_den":24,"correct_side":1,"subjID":"47wm","gender":"No_gender","school":"No_school","age":"No_age"},{"start_time":1549381375037,"click_time":1549381376866,"finger_time":1549381375688,"fix_duration":250,"trial":18,"RT":651,"MT":1178,"sideResp":1,"stimulus":[],"xmouse":[384,384,384,384.66668701171875,384.66668701171875,384.66668701171875,384.66668701171875,384.66668701171875,384.66668701171875,384.66668701171875,384.66668701171875,385.3333435058594,385.3333435058594,385.3333435058594,385.3333435058594,385.3333435058594,385.3333435058594,385.3333435058594,385.3333435058594,386,386,386.66668701171875,386.66668701171875,387.3333435058594,388,388,389.3333435058594,394,396,403.3333435058594,411.3333435058594,411.3333435058594,427.3333435058594,430.66668701171875,437.3333435058594,439.3333435058594,446.66668701171875,458.66668701171875,470,474,481.3333435058594,485.3333435058594,491.3333435058594,493.3333435058594,494,492.6666564941406,492.6666564941406,492.6666564941406,492.6666564941406,492.6666564941406,492.6666564941406,492.6666564941406,492.6666564941406,440.66668701171875,434,427.3333435058594,424,418,415.3333435058594,410,405.3333435058594,403.3333435058594,396.66668701171875,392,387.3333435058594,385.3333435058594,382,379.3333435058594,379.3333435058594,379.3333435058594,359.3333435058594,348,328.66668701171875,319.3333435058594,298,270,254,207.33334350585938,176.6666717529297,146.6666717529297,132,103.33333587646484,66.66667175292969,44,36.66666793823242,27.333335876464844,25.333335876464844,24,25.333332061767578,25.333332061767578,25.333332061767578,33.333335876464844],"ymouse":[815.3333740234375,816,816,816,816.6666870117188,816.6666870117188,816.6666870117188,816.6666870117188,816.6666870117188,816.6666870117188,816.6666870117188,817.3333740234375,817.3333740234375,817.3333740234375,818,818,818,818,818,817.3333740234375,817.3333740234375,817.3333740234375,816.6666870117188,816,814.6666870117188,814,812,805.3333740234375,801.3333740234375,788.0000610351562,774,774,744,738,727.3333740234375,722,708.6666870117188,682.6666870117188,660,651.3333740234375,636.6666870117188,625.3333740234375,608,603.3333740234375,595.3333740234375,590.6666870117188,590.6666870117188,590.6666870117188,590.6666870117188,590.6666870117188,590.6666870117188,590.6666870117188,590.6666870117188,701.3333740234375,720.6666870117188,741.3333740234375,753.3333740234375,771.3333740234375,778.6666870117188,796.6666870117188,810,814.6666870117188,830,838,842,843.3333740234375,842.6666870117188,839.3333740234375,839.3333740234375,839.3333740234375,764.6666870117188,715.3333740234375,632,601.3333740234375,540,480,449.3333435058594,367.3333435058594,315.3333435058594,268,246,204.6666717529297,155.33334350585938,129.33334350585938,118,103.33333587646484,99.33333587646484,92.66667175292969,88,88,88,92],"timestamp_mouse":[12,32,49,69,89,109,129,149,169,189,209,229,249,269,289,309,329,349,369,389,409,429,449,469,489,509,529,549,569,589,608,628,651,669,689,709,729,749,769,789,808,829,850,869,889,909,929,949,969,989,1009,1028,1049,1069,1089,1109,1129,1149,1168,1189,1208,1229,1250,1269,1289,1309,1329,1349,1369,1389,1408,1429,1450,1469,1489,1509,1529,1551,1570,1589,1609,1628,1651,1671,1689,1708,1729,1749,1771,1789,1809,1829],"xSR":350,"ySR":768,"xT1":30,"yT1":0,"xT2":670,"yT2":0,"toosoon":0,"cond_shown":"Incongruent","ratio_trial":500,"L_num":5,"L_den":6,"R_num":6,"R_den":18,"correct_side":1,"subjID":"47wm","gender":"No_gender","school":"No_school","age":"No_age"},{"start_time":1549381379672,"click_time":1549381383248,"finger_time":1549381382928,"fix_duration":984.646950061967,"trial":19,"RT":3256,"MT":320,"sideResp":1,"stimulus":[],"xmouse":[395,395,395,395,395,395,395,395,395,395,395,395,395,395,395,395,395,395,395,395,395,395,395,395,395,395,395,395,395,395,395,395,395,395,395,395,395,395,395,395,395,395,395,395,395,395,395,395,395,395,395,395,395,395,395,395,395,395,395,395,395,395,395,395,395,395,395,395,395,395,395,395,395,395,395,392,392,392,392,391.3333435058594,391.3333435058594,391.3333435058594,391.3333435058594,391.3333435058594,391.3333435058594,391.3333435058594,390.66668701171875,390.66668701171875,390.66668701171875,390.66668701171875,390.66668701171875,390,390,390,390,390,390,390,390,390,390,390,390,390,390,390,390,390,390,390,390,390,390,390,390,390,390,390,390.66668701171875,390.66668701171875,390.66668701171875,390.66668701171875,390.66668701171875,390.66668701171875,390.66668701171875,390.66668701171875,390.66668701171875,390.66668701171875,391.3333435058594,391.3333435058594,391.3333435058594,391.3333435058594,391.3333435058594,391.3333435058594,391.3333435058594,391.3333435058594,391.3333435058594,391.3333435058594,403.3333435058594,404,404.66668701171875,405.3333435058594,405.3333435058594,405.3333435058594,405.3333435058594,405.3333435058594,404.66668701171875,405.3333435058594,405.3333435058594,405.3333435058594,405.3333435058594,405.3333435058594,405.3333435058594,405.3333435058594,405.3333435058594,405.3333435058594,405.3333435058594,405.3333435058594,405.3333435058594,404.66668701171875,404,402,394,388.66668701171875,374.66668701171875,357.3333435058594,349.3333435058594,332.66668701171875,306,288,280,259.3333435058594,252,208.6666717529297,198,177.33334350585938,168,148.6666717529297,122.66667175292969],"ymouse":[820,820,820,820,820,820,820,820,820,820,820,820,820,820,820,820,820,820,820,820,820,820,820,820,820,820,820,820,820,820,820,820,820,820,820,820,820,820,820,820,820,820,820,820,820,820,820,820,820,820,820,820,820,820,820,820,820,820,820,820,820,820,820,820,820,820,820,820,820,820,820,820,820,820,820,812.6666870117188,812.6666870117188,812.6666870117188,812.6666870117188,812.6666870117188,812.6666870117188,812.6666870117188,812.6666870117188,812.6666870117188,812.6666870117188,812.6666870117188,812.6666870117188,812.6666870117188,812.6666870117188,812.6666870117188,812.6666870117188,812.6666870117188,812.6666870117188,812.6666870117188,812.6666870117188,812,812,812,811.3333740234375,811.3333740234375,811.3333740234375,811.3333740234375,811.3333740234375,811.3333740234375,811.3333740234375,811.3333740234375,811.3333740234375,811.3333740234375,810,810,810,810,810,810,810,810,810,810,809.3333740234375,809.3333740234375,809.3333740234375,809.3333740234375,809.3333740234375,809.3333740234375,809.3333740234375,809.3333740234375,809.3333740234375,809.3333740234375,808,808,808,808,808,808,808,808,808,808,787.3333740234375,784.6666870117188,784,782,780,779.3333740234375,778.6666870117188,778,777.3333740234375,777.3333740234375,777.3333740234375,777.3333740234375,777.3333740234375,777.3333740234375,776.6666870117188,776.6666870117188,776.6666870117188,776.6666870117188,776,775.3333740234375,774.6666870117188,774,772.6666870117188,770.6666870117188,758.6666870117188,751.3333740234375,722.6666870117188,680,654.6666870117188,596.6666870117188,492.66668701171875,420,384.66668701171875,318,290.66668701171875,193.33334350585938,175.33334350585938,146.6666717529297,135.33334350585938,114.66667175292969,92],"timestamp_mouse":[13,34,54,74,94,114,134,154,174,194,214,234,254,274,294,314,334,355,374,394,414,434,454,474,494,513,534,554,574,594,614,634,654,674,694,714,734,754,774,793,814,834,854,874,894,914,934,954,974,993,1014,1034,1054,1074,1094,1114,1134,1154,1174,1194,1214,1233,1254,1274,1294,1313,1333,1354,1374,1394,1414,1434,1454,1473,1494,1513,1534,1554,1574,1594,1614,1634,1654,1674,1694,1715,1734,1754,1774,1794,1814,1834,1854,1874,1894,1913,1934,1954,1974,1994,2014,2034,2054,2074,2094,2114,2134,2154,2174,2194,2214,2234,2254,2274,2294,2314,2334,2354,2374,2394,2413,2434,2454,2474,2494,2514,2534,2554,2574,2594,2614,2634,2654,2676,2694,2714,2734,2754,2774,2794,2814,2834,2855,2874,2894,2914,2934,2953,2974,2994,3014,3034,3054,3074,3094,3114,3134,3154,3174,3193,3214,3234,3256,3274,3295,3314,3334,3354,3375,3394,3414,3434,3454,3474,3494,3514,3533,3554,3576],"xSR":350,"ySR":768,"xT1":30,"yT1":0,"xT2":670,"yT2":0,"toosoon":0,"cond_shown":"Incongruent","ratio_trial":300,"L_num":4,"L_den":20,"R_num":2,"R_den":4,"correct_side":2,"subjID":"47wm","gender":"No_gender","school":"No_school","age":"No_age"},{"start_time":1549381386116,"click_time":1549381387869,"finger_time":1549381387646,"fix_duration":688.2540833936963,"trial":20,"RT":1530,"MT":223,"sideResp":2,"stimulus":[],"xmouse":[409.3333435058594,409.3333435058594,410,409.3333435058594,409.3333435058594,409.3333435058594,409.3333435058594,409.3333435058594,409.3333435058594,409.3333435058594,409.3333435058594,409.3333435058594,409.3333435058594,409.3333435058594,409.3333435058594,409.3333435058594,409.3333435058594,409.3333435058594,409.3333435058594,409.3333435058594,409.3333435058594,409.3333435058594,409.3333435058594,409.3333435058594,410.66668701171875,411.3333435058594,411.3333435058594,412,412.66668701171875,412.66668701171875,412.66668701171875,413.3333435058594,413.3333435058594,413.3333435058594,413.3333435058594,413.3333435058594,413.3333435058594,413.3333435058594,413.3333435058594,413.3333435058594,413.3333435058594,414,414,414,414,414,413.3333435058594,413.3333435058594,413.3333435058594,413.3333435058594,413.3333435058594,413.3333435058594,413.3333435058594,413.3333435058594,413.3333435058594,413.3333435058594,413.3333435058594,413.3333435058594,413.3333435058594,413.3333435058594,413.3333435058594,413.3333435058594,413.3333435058594,413.3333435058594,413.3333435058594,413.3333435058594,413.3333435058594,413.3333435058594,413.3333435058594,413.3333435058594,413.3333435058594,413.3333435058594,415.3333435058594,422,422,422,468.66668701171875,503.3333435058594,528,540.6666870117188,568,582.6666870117188,643.3333740234375,657.3333740234375,687.3333740234375,700.6666870117188,722.6666870117188,747.3333740234375],"ymouse":[840.6666870117188,840.6666870117188,840.6666870117188,840.6666870117188,840,840,840,840,840,840,840,840,840,840,839.3333740234375,839.3333740234375,839.3333740234375,839.3333740234375,839.3333740234375,839.3333740234375,839.3333740234375,839.3333740234375,839.3333740234375,839.3333740234375,834,832.6666870117188,832,829.3333740234375,828.6666870117188,828,827.3333740234375,826.6666870117188,826.6666870117188,826,825.3333740234375,825.3333740234375,825.3333740234375,824.6666870117188,824.6666870117188,824.6666870117188,824.6666870117188,824,824,824,823.3333740234375,823.3333740234375,823.3333740234375,822.6666870117188,822.6666870117188,822.6666870117188,822.6666870117188,822.6666870117188,822.6666870117188,822.6666870117188,822.6666870117188,822.6666870117188,822.6666870117188,820,820,820,820,820,820,820,820,820,820,818.6666870117188,818.6666870117188,818.6666870117188,818.6666870117188,818.6666870117188,814,802.6666870117188,802.6666870117188,802.6666870117188,706,632.6666870117188,580,554,496.66668701171875,461.3333435058594,319.3333435058594,285.3333435058594,218.6666717529297,186.6666717529297,130,62],"timestamp_mouse":[10,31,49,70,90,110,130,150,170,190,210,230,250,270,289,310,330,350,370,390,410,430,450,470,490,510,530,550,571,590,610,630,649,669,690,710,729,750,770,790,809,830,850,870,890,910,929,950,970,990,1010,1030,1050,1070,1090,1110,1130,1150,1170,1190,1210,1230,1250,1270,1290,1310,1330,1350,1370,1390,1410,1430,1452,1470,1490,1509,1529,1551,1570,1591,1610,1630,1651,1670,1690,1710,1730,1752],"xSR":350,"ySR":768,"xT1":30,"yT1":0,"xT2":670,"yT2":0,"toosoon":0,"cond_shown":"Incongruent","ratio_trial":100,"L_num":6,"L_den":10,"R_num":11,"R_den":22,"correct_side":1,"subjID":"47wm","gender":"No_gender","school":"No_school","age":"No_age"},{"start_time":1549381390498,"click_time":1549381392386,"finger_time":1549381391926,"fix_duration":1369.42545286774,"trial":21,"RT":1428,"MT":460,"sideResp":1,"stimulus":[],"xmouse":[375.3333435058594,375.3333435058594,375.3333435058594,375.3333435058594,375.3333435058594,379.3333435058594,379.3333435058594,379.3333435058594,379.3333435058594,379.3333435058594,379.3333435058594,379.3333435058594,379.3333435058594,379.3333435058594,379.3333435058594,381.3333435058594,381.3333435058594,381.3333435058594,381.3333435058594,381.3333435058594,381.3333435058594,381.3333435058594,381.3333435058594,381.3333435058594,381.3333435058594,382,382,382,382,382,382,382,382,382,382,382,382,382,382,382,382,382,382,382,382,381.3333435058594,381.3333435058594,381.3333435058594,381.3333435058594,381.3333435058594,381.3333435058594,381.3333435058594,381.3333435058594,381.3333435058594,381.3333435058594,380.66668701171875,380.66668701171875,380.66668701171875,380.66668701171875,380.66668701171875,376.66668701171875,376,375.3333435058594,374,374,372.66668701171875,372,372,371.3333435058594,370.66668701171875,368.66668701171875,365.3333435058594,364,361.3333435058594,359.3333435058594,357.3333435058594,356.66668701171875,356,356,355.3333435058594,349.3333435058594,344.66668701171875,332.66668701171875,324.66668701171875,308,276.66668701171875,253.33334350585938,240.6666717529297,214.6666717529297,190.6666717529297,157.33334350585938,146.6666717529297,128.6666717529297,112,106],"ymouse":[801.3333740234375,801.3333740234375,801.3333740234375,801.3333740234375,801.3333740234375,802.0000610351562,802.0000610351562,802.0000610351562,802.0000610351562,802.0000610351562,802.0000610351562,802.0000610351562,802.0000610351562,802.0000610351562,802.0000610351562,803.3333740234375,803.3333740234375,803.3333740234375,803.3333740234375,803.3333740234375,803.3333740234375,803.3333740234375,803.3333740234375,803.3333740234375,803.3333740234375,803.3333740234375,803.3333740234375,803.3333740234375,803.3333740234375,803.3333740234375,803.3333740234375,803.3333740234375,803.3333740234375,803.3333740234375,803.3333740234375,802.6666870117188,802.6666870117188,802.6666870117188,802.6666870117188,802.6666870117188,802.6666870117188,802.6666870117188,802.6666870117188,802.6666870117188,802.6666870117188,802.6666870117188,802.6666870117188,802.6666870117188,802.6666870117188,802.6666870117188,802.6666870117188,802.6666870117188,802.6666870117188,802.6666870117188,802.6666870117188,801.3333740234375,801.3333740234375,801.3333740234375,801.3333740234375,801.3333740234375,792.6666870117188,791.3333740234375,788.6666870117188,786.6666870117188,786,784.6666870117188,783.3333740234375,782,781.3333740234375,779.3333740234375,772.6666870117188,763.3333740234375,758.6666870117188,748,738.6666870117188,728.6666870117188,726.6666870117188,722.6666870117188,720,718.6666870117188,698.6666870117188,684.6666870117188,647.3333740234375,626.6666870117188,585.3333740234375,512,456.66668701171875,427.3333435058594,368.66668701171875,314,234,206,152,100,76.66667175292969],"timestamp_mouse":[10,36,48,68,87,109,128,148,168,188,208,228,248,268,288,308,327,348,368,389,408,428,448,468,488,507,528,548,568,588,608,628,648,668,688,708,728,748,768,788,808,828,848,868,889,908,927,948,968,987,1008,1027,1048,1068,1088,1110,1127,1148,1168,1187,1208,1228,1248,1268,1288,1308,1328,1348,1368,1388,1408,1428,1448,1468,1488,1509,1528,1548,1568,1588,1611,1628,1647,1668,1688,1711,1728,1747,1768,1788,1810,1827,1847,1868,1888],"xSR":350,"ySR":768,"xT1":30,"yT1":0,"xT2":670,"yT2":0,"toosoon":0,"cond_shown":"Incongruent","ratio_trial":300,"L_num":1,"L_den":2,"R_num":3,"R_den":15,"correct_side":1,"subjID":"47wm","gender":"No_gender","school":"No_school","age":"No_age"},{"start_time":1549381394137,"click_time":1549381396428,"finger_time":1549381395646,"fix_duration":250,"trial":22,"RT":1509,"MT":782,"sideResp":2,"stimulus":[],"xmouse":[425.3333435058594,425.3333435058594,425.3333435058594,424.66668701171875,424.66668701171875,424.66668701171875,424,424,424,422.66668701171875,422.66668701171875,422,422,421.3333435058594,421.3333435058594,421.3333435058594,421.3333435058594,420.66668701171875,420.66668701171875,420.66668701171875,420,420,420,420,420,419.3333435058594,419.3333435058594,419.3333435058594,419.3333435058594,419.3333435058594,419.3333435058594,419.3333435058594,419.3333435058594,419.3333435058594,419.3333435058594,416,416,416,416,416,416,416,416,416,416,414.66668701171875,414.66668701171875,414.66668701171875,414.66668701171875,414.66668701171875,414.66668701171875,414.66668701171875,414.66668701171875,414.66668701171875,414.66668701171875,414.66668701171875,414.66668701171875,414.66668701171875,414.66668701171875,414.66668701171875,414.66668701171875,414.66668701171875,414.66668701171875,414.66668701171875,414.66668701171875,415.3333435058594,415.3333435058594,415.3333435058594,415.3333435058594,415.3333435058594,415.3333435058594,415.3333435058594,415.3333435058594,415.3333435058594,415.3333435058594,390.66668701171875,372.66668701171875,363.3333435058594,342,304.66668701171875,275.3333435058594,245.33334350585938,233.33334350585938,207.33334350585938,196,170.6666717529297,168.6666717529297,164.6666717529297,163.33334350585938,164.00001525878906,164.00001525878906,164.00001525878906,164.00001525878906,194,224.6666717529297,276,292,324.66668701171875,358,402.66668701171875,414.66668701171875,444.66668701171875,444.66668701171875,496,533.3333740234375,590,620,633.3333740234375,656,679.3333740234375,687.3333740234375,690.6666870117188,699.3333740234375,707.3333740234375,722],"ymouse":[809.3333740234375,810,810,810.6666870117188,811.3333740234375,812,812.6666870117188,813.3333740234375,813.3333740234375,814.6666870117188,814.6666870117188,815.3333740234375,815.3333740234375,816,816.6666870117188,816.6666870117188,817.3333740234375,817.3333740234375,818,818,818,818,818,818,817.3333129882812,816.6666870117188,816.6666870117188,816.6666870117188,816.6666870117188,816.6666870117188,816.6666870117188,816.6666870117188,816.6666870117188,816.6666870117188,816.6666870117188,813.3333129882812,813.3333129882812,813.3333129882812,813.3333129882812,813.3333129882812,813.3333129882812,813.3333129882812,813.3333129882812,813.3333129882812,813.3333129882812,811.3333129882812,811.3333129882812,811.3333129882812,811.3333129882812,811.3333129882812,811.3333129882812,811.3333129882812,811.3333129882812,811.3333129882812,811.3333129882812,810.6666870117188,810.6666870117188,810.6666870117188,810.6666870117188,810.6666870117188,810.6666870117188,810.6666870117188,810.6666870117188,810.6666870117188,810.6666870117188,812,812,812,812,812,812,812,812,812,812,762,722.6666870117188,700.6666870117188,650.6666870117188,580.6666870117188,540.6666870117188,511.3333740234375,500,482.66668701171875,476,461.3333435058594,460.66668701171875,458.66668701171875,458,458,458,458,458,476,499.3333435058594,547.3333740234375,563.3333740234375,592.6666870117188,618,638.6666870117188,642.6666870117188,644.6666870117188,644.6666870117188,625.3333740234375,592,512.6666870117188,450,418.66668701171875,356,272,218.6666717529297,193.33334350585938,144.6666717529297,103.33333587646484,56.66667175292969],"timestamp_mouse":[11,39,48,69,89,108,129,149,169,189,209,229,248,269,289,309,329,349,370,389,409,429,449,469,489,508,528,549,569,590,609,629,649,669,689,708,729,748,769,789,809,829,849,869,889,909,929,948,969,989,1009,1029,1048,1069,1089,1109,1129,1149,1169,1188,1209,1229,1249,1269,1289,1309,1329,1349,1368,1390,1409,1429,1449,1468,1489,1509,1529,1549,1569,1590,1609,1629,1649,1669,1689,1709,1729,1749,1768,1788,1809,1829,1849,1869,1890,1909,1929,1949,1969,1991,2009,2029,2048,2069,2089,2110,2129,2149,2169,2192,2209,2229,2249,2269,2290],"xSR":350,"ySR":768,"xT1":30,"yT1":0,"xT2":670,"yT2":0,"toosoon":0,"cond_shown":"Congruent","ratio_trial":300,"L_num":2,"L_den":10,"R_num":12,"R_den":24,"correct_side":2,"subjID":"47wm","gender":"No_gender","school":"No_school","age":"No_age"},{"start_time":1549381398081,"click_time":1549381399966,"finger_time":1549381399806,"fix_duration":254.20437843216948,"trial":23,"RT":1725,"MT":160,"sideResp":2,"stimulus":[],"xmouse":[439.3333435058594,437.3333435058594,437.3333435058594,436,435.3333435058594,435.3333435058594,435.3333435058594,435.3333435058594,435.3333435058594,434.66668701171875,434.66668701171875,434.66668701171875,434.66668701171875,434,434,433.3333435058594,433.3333435058594,433.3333435058594,433.3333435058594,433.3333435058594,433.3333435058594,433.3333435058594,433.3333435058594,433.3333435058594,433.3333435058594,433.3333435058594,433.3333435058594,433.3333435058594,433.3333435058594,433.3333435058594,433.3333435058594,433.3333435058594,433.3333435058594,433.3333435058594,433.3333435058594,433.3333435058594,433.3333435058594,433.3333435058594,433.3333435058594,433.3333435058594,433.3333435058594,433.3333435058594,433.3333435058594,433.3333435058594,432.66668701171875,432.66668701171875,432.66668701171875,432.66668701171875,432.66668701171875,432.66668701171875,432.66668701171875,432.66668701171875,432.66668701171875,432.66668701171875,432.66668701171875,432.66668701171875,432.66668701171875,432.66668701171875,432.66668701171875,432.66668701171875,432.66668701171875,432.66668701171875,432.66668701171875,433.3333435058594,433.3333435058594,433.3333435058594,433.3333435058594,433.3333435058594,433.3333435058594,433.3333435058594,433.3333435058594,433.3333435058594,433.3333435058594,433.3333435058594,433.3333435058594,433.3333435058594,433.3333435058594,433.3333435058594,433.3333435058594,433.3333435058594,433.3333435058594,433.3333435058594,433.3333435058594,434.66668701171875,434.66668701171875,434.66668701171875,469.3333435058594,484,514,565.3333740234375,600,617.3333740234375,654.6666870117188,684,714],"ymouse":[794.6666870117188,795.3333740234375,795.3333740234375,796,796.6666870117188,797.3333740234375,797.3333740234375,797.3333740234375,797.3333740234375,797.3333740234375,797.3333740234375,798,798,798.6666870117188,798.6666870117188,798.6666870117188,798.6666870117188,798.6666870117188,798.6666870117188,798.6666870117188,798.6666870117188,798.6666870117188,799.3333740234375,799.3333740234375,799.3333740234375,799.3333740234375,799.3333740234375,799.3333740234375,799.3333740234375,799.3333740234375,799.3333740234375,800,800,800,800,800,800,800,800,800.6666870117188,800.6666870117188,800.6666870117188,800.6666870117188,800.6666870117188,800.6666870117188,800,800,800,800,800,800,800,800,800,800,800,800,800,800,800,800,800,800,800,800,800,800,800,800,800,800,800,800,800,800,800,800,800,800,800,800,800,800,796.6666870117188,796.6666870117188,796.6666870117188,673.3333740234375,630.6666870117188,548,424,343.3333435058594,302,207.33334350585938,146,86],"timestamp_mouse":[4,32,45,64,85,105,125,145,165,184,205,225,245,265,284,305,325,345,365,385,405,425,445,465,485,505,525,545,565,584,605,625,645,665,685,705,725,745,765,785,805,825,845,865,885,905,924,945,965,985,1005,1024,1044,1065,1085,1105,1125,1145,1165,1184,1205,1225,1244,1265,1285,1305,1324,1345,1365,1385,1404,1425,1445,1464,1485,1505,1525,1545,1565,1585,1605,1625,1645,1665,1686,1705,1725,1745,1765,1785,1805,1824,1844,1865,1885],"xSR":350,"ySR":768,"xT1":30,"yT1":0,"xT2":670,"yT2":0,"toosoon":0,"cond_shown":"Congruent","ratio_trial":300,"L_num":1,"L_den":20,"R_num":7,"R_den":20,"correct_side":2,"subjID":"47wm","gender":"No_gender","school":"No_school","age":"No_age"},{"start_time":1549381402613,"click_time":1549381405346,"finger_time":1549381405187,"fix_duration":1105.4468296343555,"trial":24,"RT":2574,"MT":159,"sideResp":2,"stimulus":[],"xmouse":[385.3333435058594,385.3333435058594,385.3333435058594,385.3333435058594,385.3333435058594,385.3333435058594,385.3333435058594,385.3333435058594,385.3333435058594,385.3333435058594,385.3333435058594,385.3333435058594,385.3333435058594,385.3333435058594,385.3333435058594,385.3333435058594,386,386,386,386,386,386,386,386,386,386,386,386,386,386,386,386,386,386,386,386,386,386,386,386,386,386,386,386,386,386,386,386,386,386.66668701171875,386.66668701171875,386.66668701171875,386.66668701171875,386.66668701171875,386.66668701171875,386.66668701171875,386.66668701171875,386.66668701171875,386.66668701171875,386.66668701171875,386.66668701171875,386.66668701171875,386.66668701171875,386.66668701171875,386.66668701171875,386,386,386,386,386,386,386,386,386,386,380.66668701171875,380.66668701171875,380.66668701171875,376,375.3333435058594,374.66668701171875,374,374,374,374,374,374,373.3333435058594,373.3333435058594,373.3333435058594,373.3333435058594,373.3333435058594,374,376,376.66668701171875,377.3333435058594,378,378,378.66668701171875,379.3333435058594,380.66668701171875,380.66668701171875,381.3333435058594,382,382,382.66668701171875,382.66668701171875,383.3333435058594,384,384.66668701171875,385.3333435058594,385.3333435058594,385.3333435058594,385.3333435058594,385.3333435058594,385.3333435058594,385.3333435058594,386,386,386,386,386,386,386,386,386,386,387.3333435058594,406.66668701171875,433.3333435058594,449.3333435058594,492,544,570,641.3333740234375,676,708.6666870117188],"ymouse":[831.3333740234375,831.3333740234375,831.3333740234375,831.3333740234375,831.3333740234375,831.3333740234375,832.0000610351562,832.0000610351562,832.0000610351562,832.0000610351562,832.0000610351562,832.0000610351562,832.0000610351562,832.0000610351562,832.0000610351562,832.0000610351562,834.0000610351562,834.0000610351562,834.0000610351562,834.0000610351562,834.0000610351562,834.0000610351562,834.0000610351562,834.0000610351562,834.0000610351562,834.0000610351562,834.6666870117188,834.6666870117188,834.6666870117188,834.6666870117188,834.6666870117188,834.6666870117188,834.6666870117188,834.6666870117188,834.6666870117188,834.6666870117188,834.6666870117188,834.6666870117188,834.6666870117188,834.6666870117188,834.6666870117188,834.6666870117188,834.6666870117188,834.6666870117188,834.6666870117188,834.6666870117188,834.6666870117188,834.6666870117188,834.6666870117188,834.6666870117188,834.6666870117188,834.6666870117188,834.6666870117188,834.6666870117188,834.6666870117188,834.6666870117188,834.6666870117188,834.6666870117188,834.6666870117188,834.6666870117188,834.6666870117188,834.6666870117188,834.6666870117188,834.6666870117188,834.6666870117188,834.6666870117188,834.6666870117188,834.6666870117188,834.6666870117188,834.6666870117188,834.6666870117188,834.6666870117188,834.6666870117188,834.6666870117188,834.6666870117188,828.6666870117188,828.6666870117188,828.6666870117188,824.6666870117188,824,822.6666870117188,822.6666870117188,822,822,822,822.6666870117188,822.6666870117188,822.6666870117188,822.6666870117188,822.6666870117188,822.6666870117188,822.6666870117188,820.6666870117188,819.3333740234375,819.3333740234375,819.3333740234375,819.3333740234375,819.3333740234375,819.3333740234375,818.6666870117188,818.6666870117188,818,818,817.3333740234375,817.3333740234375,816.6666870117188,816,816,815.3333740234375,814.6666870117188,814.6666870117188,814.6666870117188,814.6666870117188,814.6666870117188,814.6666870117188,814.6666870117188,814.6666870117188,814.6666870117188,814,814,813.3333740234375,813.3333740234375,813.3333740234375,812,811.3333740234375,810,808.6666870117188,803.3333740234375,749.3333740234375,676.6666870117188,635.3333740234375,535.3333740234375,428.66668701171875,376,230,155.33334350585938,87.33333587646484],"timestamp_mouse":[12,34,54,72,93,113,133,153,173,193,213,233,253,273,293,313,333,353,373,392,413,432,453,472,492,512,533,553,573,593,614,633,653,673,693,713,733,753,773,793,813,833,853,873,893,913,933,953,973,993,1013,1033,1053,1073,1093,1113,1133,1183,1183,1193,1213,1233,1254,1272,1293,1312,1333,1353,1373,1393,1413,1433,1453,1474,1493,1513,1533,1553,1574,1593,1613,1633,1653,1673,1693,1712,1733,1753,1773,1792,1813,1833,1853,1874,1895,1913,1933,1953,1976,1993,2013,2033,2053,2074,2093,2113,2133,2153,2173,2193,2213,2232,2253,2273,2293,2313,2333,2353,2374,2393,2413,2433,2453,2473,2493,2513,2533,2553,2574,2600,2613,2633,2652,2673,2693,2713,2733],"xSR":350,"ySR":768,"xT1":30,"yT1":0,"xT2":670,"yT2":0,"toosoon":0,"cond_shown":"Congruent","ratio_trial":200,"L_num":8,"L_den":15,"R_num":3,"R_den":9,"correct_side":1,"subjID":"47wm","gender":"No_gender","school":"No_school","age":"No_age"},{"start_time":1549381407362,"click_time":1549381409728,"finger_time":1549381409446,"fix_duration":515.545204432288,"trial":25,"RT":2084,"MT":282,"sideResp":2,"stimulus":[],"xmouse":[387.3333435058594,387.3333435058594,387.3333435058594,387.3333435058594,387.3333435058594,387.3333435058594,387.3333435058594,387.3333435058594,388,388,388,388.66668701171875,389.3333435058594,390,390.66668701171875,390.66668701171875,391.3333435058594,391.3333435058594,391.3333435058594,391.3333435058594,391.3333435058594,391.3333435058594,391.3333435058594,391.3333435058594,391.3333435058594,391.3333435058594,391.3333435058594,391.3333435058594,391.3333435058594,391.3333435058594,391.3333435058594,388.66668701171875,388.66668701171875,388.66668701171875,388.66668701171875,388.66668701171875,388.66668701171875,388.66668701171875,388.66668701171875,388.66668701171875,388.66668701171875,386.66668701171875,386.66668701171875,386.66668701171875,386.66668701171875,386.66668701171875,386.66668701171875,386.66668701171875,386.66668701171875,386.66668701171875,386.66668701171875,386,386,386,386,386,386,386,386,386,386,385.333343505859