[{"start_time":1549381976068,"click_time":1549381977466,"finger_time":1549381976077,"fix_duration":318.06533306471187,"trial":0,"RT":9,"MT":1389,"sideResp":2,"stimulus":"img/250/equaldotsize/R/11_Ratio_250_L_3_R_12.png","xmouse":[394,394,394,394.66668701171875,394.66668701171875,395.3333435058594,395.3333435058594,396,396.66668701171875,397.3333435058594,397.3333435058594,398,398.66668701171875,399.3333435058594,399.3333435058594,400,401.3333435058594,401.3333435058594,402,402.66668701171875,403.3333435058594,403.3333435058594,403.3333435058594,403.3333435058594,403.3333435058594,402.66668701171875,402.66668701171875,402.66668701171875,402.66668701171875,402.66668701171875,402.66668701171875,400,400.66668701171875,400.66668701171875,400.66668701171875,401.3333435058594,401.3333435058594,401.3333435058594,401.3333435058594,401.3333435058594,401.3333435058594,401.3333435058594,401.3333435058594,401.3333435058594,401.3333435058594,401.3333435058594,391.3333435058594,392,392,392,415.3333435058594,422,434.6666564941406,447.3333435058594,466.6666564941406,474,489.3333435058594,508.6666564941406,515.3334350585938,533.3334350585938,559.3334350585938,576.6666870117188,585.3334350585938,600.6666870117188,613.3334350585938,636.6666870117188,646.6666870117188,662.6666870117188,680.0000610351562,687.3333740234375,710.0000610351562],"ymouse":[751.3333740234375,751.3333740234375,751.3333740234375,751.3333740234375,750.6666870117188,750,750,748.6666870117188,748,746.6666870117188,746.6666870117188,746,744.6666870117188,744.6666870117188,743.3333740234375,741.3333740234375,740,738.6666870117188,736.6666870117188,734,732,731.3333740234375,730.6666870117188,731.3333740234375,733.3333740234375,734.6666870117188,737.3333740234375,737.3333740234375,737.3333740234375,737.3333740234375,737.3333740234375,748.6666870117188,748,748,748,746,746,746,746,746,746,746,746,746,746,746,820.6666870117188,818,818,818,762,744.6666870117188,711.3333740234375,678.6666870117188,624.6666870117188,604.6666870117188,562,519.3333740234375,499.3333740234375,458,393.3333435058594,352,334,300.66668701171875,268,220.6666717529297,206,175.33334350585938,143.33334350585938,129.33334350585938,86.66667175292969],"timestamp_mouse":[8,17,36,57,77,96,117,137,157,178,197,216,236,256,276,297,317,337,356,378,397,416,436,457,477,497,516,537,557,576,596,617,636,656,676,696,716,736,756,776,796,817,836,857,877,896,916,937,956,976,997,1017,1036,1056,1078,1097,1116,1136,1156,1177,1197,1217,1236,1257,1276,1298,1316,1336,1357,1376,1397],"xSR":350,"ySR":696,"xT1":30,"yT1":0,"xT2":670,"yT2":0,"toosoon":0,"cond_shown":"equaldotsize","ratio_trial":250,"smaller_num":"3","larger_num":"12","correct_side":2,"subjID":"47wm","gender":"No_gender","age":"No_age","school":"No_school","test":{"fix_dur":[250,1500],"timestim":400,"targets_dim":[100,100],"targets_relative_coord":[0.1,0.9],"size_stim":[880,420],"start_dim":[100,100],"size_start":[300,300],"size_fix":60,"samplingrate":20,"img_types":["equaldotsize","equaldotanddens","randomdotsize","randomdotsizeEA"],"ratios":[250,500,750,900],"rep_conds":7,"nTrials":128,"trials_to_rest":500,"Trials_order":[32,30,120,67,45,59,102,14,126,31,51,11,98,29,108,66,87,73,27,52,8,72,91,105,70,110,78,62,61,86,104,20,75,3,33,38,47,56,116,64,60,125,2,19,24,84,42,25,103,69,34,83,26,22,76,71,44,81,85,68,119,15,48,28,57,53,96,39,54,112,95,55,40,121,99,37,93,0,82,21,79,16,124,1,127,101,118,111,80,35,90,88,23,106,6,41,12,5,92,10,97,7,94,107,63,89,17,58,74,65,4,113,100,18,77,46,115,122,9,43,50,117,13,109,36,49,114,123],"cond_shown":["equaldotsize","randomdotsize","equaldotsize","randomdotsizeEA","equaldotanddens","randomdotsizeEA","randomdotsize","randomdotsize","randomdotsize","randomdotsizeEA","randomdotsizeEA","randomdotsizeEA","randomdotsize","equaldotanddens","equaldotsize","randomdotsize","randomdotsizeEA","equaldotanddens","randomdotsizeEA","equaldotsize","equaldotsize","equaldotsize","randomdotsizeEA","equaldotanddens","randomdotsize","randomdotsize","randomdotsize","randomdotsize","equaldotanddens","randomdotsize","equaldotsize","equaldotsize","randomdotsizeEA","randomdotsizeEA","equaldotanddens","randomdotsize","randomdotsizeEA","equaldotsize","equaldotsize","equaldotsize","equaldotsize","equaldotanddens","randomdotsize","randomdotsizeEA","equaldotsize","equaldotsize","randomdotsize","equaldotanddens","randomdotsizeEA","equaldotanddens","randomdotsize","randomdotsizeEA","randomdotsize","randomdotsize","equaldotsize","randomdotsizeEA","equaldotsize","equaldotanddens","equaldotanddens","equaldotsize","randomdotsizeEA","randomdotsizeEA","equaldotsize","equaldotsize","equaldotanddens","equaldotanddens","equaldotsize","randomdotsizeEA","randomdotsize","equaldotsize","randomdotsizeEA","randomdotsizeEA","equaldotsize","equaldotanddens","randomdotsizeEA","equaldotanddens","equaldotanddens","equaldotsize","randomdotsize","equaldotanddens","randomdotsizeEA","equaldotsize","equaldotsize","equaldotanddens","randomdotsizeEA","equaldotanddens","randomdotsize","randomdotsizeEA","equaldotsize","randomdotsizeEA","randomdotsize","equaldotsize","randomdotsizeEA","randomdotsize","randomdotsize","equaldotanddens","equaldotsize","equaldotanddens","equaldotsize","randomdotsize","equaldotanddens","randomdotsizeEA","randomdotsize","randomdotsizeEA","randomdotsizeEA","equaldotanddens","equaldotanddens","randomdotsize","randomdotsize","equaldotanddens","equaldotsize","equaldotanddens","equaldotsize","randomdotsize","equaldotanddens","randomdotsize","randomdotsizeEA","randomdotsize","equaldotanddens","randomdotsizeEA","randomdotsize","equaldotanddens","equaldotanddens","equaldotanddens","equaldotsize","equaldotanddens","randomdotsize","randomdotsizeEA"],"ratio_trial":[250,900,750,250,900,750,500,900,900,900,250,750,250,900,900,250,500,750,750,500,750,750,750,750,500,900,900,900,900,500,750,500,750,250,250,500,900,750,500,250,900,900,250,250,750,500,750,750,500,500,250,250,750,500,900,500,900,250,500,500,500,900,250,900,750,500,250,500,500,250,900,500,750,750,250,500,900,250,250,500,900,250,900,250,900,500,500,900,250,250,750,750,500,750,500,750,900,500,900,750,250,500,900,750,900,750,250,750,750,250,500,250,500,250,900,900,250,750,750,750,250,500,900,900,500,250,250,750],"smaller_num":["3","18","9","3","18","6","6","9","18","18","6","15","3","18","18","3","6","3","15","1","3","3","3","6","6","18","9","18","18","6","3","5","12","3","1","3","9","15","6","5","18","9","6","6","9","4","6","18","4","6","2","2","6","1","18","5","18","6","2","10","4","9","2","18","6","3","4","9","6","2","18","9","6","3","3","9","18","6","3","6","9","3","9","2","9","6","9","9","6","4","15","3","6","6","10","15","9","1","18","3","3","10","18","3","18","15","6","15","6","6","9","4","5","3","18","9","2","12","15","3","6","9","18","18","4","2","3","3"],"larger_num":["12","20","12","12","20","8","12","10","20","20","24","20","12","20","20","12","12","4","20","2","4","4","4","8","12","20","10","20","20","12","4","10","16","12","4","6","10","20","12","20","20","10","24","24","12","8","8","24","8","12","8","8","8","2","20","10","20","24","4","20","8","10","8","20","8","6","16","18","12","8","20","18","8","4","12","18","20","24","12","12","10","12","10","8","10","12","18","10","24","16","20","4","12","8","20","20","10","2","20","4","12","20","20","4","20","20","24","20","8","24","18","16","10","12","20","10","8","16","20","4","24","18","20","20","8","8","12","4"],"correct_side":[2,1,2,2,2,1,1,2,2,2,2,2,2,1,1,2,1,1,1,2,1,1,2,1,1,1,1,1,1,1,1,1,2,2,2,2,2,1,1,2,1,1,1,2,2,1,2,1,1,1,1,2,1,2,2,1,1,2,1,2,1,2,1,1,2,2,2,2,1,1,2,1,1,1,2,1,2,2,1,1,2,1,2,1,1,1,1,1,2,2,2,1,1,1,2,1,1,2,1,2,2,2,2,2,2,2,2,1,1,1,2,1,1,2,1,1,1,2,2,2,1,1,1,1,1,2,1,1],"img_shown":["img/250/equaldotsize/R/11_Ratio_250_L_3_R_12.png","img/900/randomdotsize/L/10_Ratio_900_L_20_R_18.png","img/750/equaldotsize/R/15_Ratio_750_L_9_R_12.png","img/250/randomdotsizeEA/R/11_Ratio_250_L_3_R_12.png","img/900/equaldotanddens/R/9_Ratio_900_L_18_R_20.png","img/750/randomdotsizeEA/L/14_Ratio_750_L_8_R_6.png","img/500/randomdotsize/L/11_Ratio_500_L_12_R_6.png","img/900/randomdotsize/R/6_Ratio_900_L_9_R_10.png","img/900/randomdotsize/R/13_Ratio_900_L_18_R_20.png","img/900/randomdotsizeEA/R/13_Ratio_900_L_18_R_20.png","img/250/randomdotsizeEA/R/6_Ratio_250_L_6_R_24.png","img/750/randomdotsizeEA/R/5_Ratio_750_L_15_R_20.png","img/250/randomdotsize/R/4_Ratio_250_L_3_R_12.png","img/900/equaldotanddens/L/10_Ratio_900_L_20_R_18.png","img/900/equaldotsize/L/2_Ratio_900_L_20_R_18.png","img/250/randomdotsize/R/9_Ratio_250_L_3_R_12.png","img/500/randomdotsizeEA/L/13_Ratio_500_L_12_R_6.png","img/750/equaldotanddens/L/10_Ratio_750_L_4_R_3.png","img/750/randomdotsizeEA/L/1_Ratio_750_L_20_R_15.png","img/500/equaldotsize/R/12_Ratio_500_L_1_R_2.png","img/750/equaldotsize/L/10_Ratio_750_L_4_R_3.png","img/750/equaldotsize/L/9_Ratio_750_L_4_R_3.png","img/750/randomdotsizeEA/R/12_Ratio_750_L_3_R_4.png","img/750/equaldotanddens/L/13_Ratio_750_L_8_R_6.png","img/500/randomdotsize/L/13_Ratio_500_L_12_R_6.png","img/900/randomdotsize/L/8_Ratio_900_L_20_R_18.png","img/900/randomdotsize/L/1_Ratio_900_L_10_R_9.png","img/900/randomdotsize/L/2_Ratio_900_L_20_R_18.png","img/900/equaldotanddens/L/2_Ratio_900_L_20_R_18.png","img/500/randomdotsize/L/13_Ratio_500_L_12_R_6.png","img/750/equaldotsize/L/8_Ratio_750_L_4_R_3.png","img/500/equaldotsize/L/7_Ratio_500_L_10_R_5.png","img/750/randomdotsizeEA/R/11_Ratio_750_L_12_R_16.png","img/250/randomdotsizeEA/R/4_Ratio_250_L_3_R_12.png","img/250/equaldotanddens/R/8_Ratio_250_L_1_R_4.png","img/500/randomdotsize/R/2_Ratio_500_L_3_R_6.png","img/900/randomdotsizeEA/R/3_Ratio_900_L_9_R_10.png","img/750/equaldotsize/L/1_Ratio_750_L_20_R_15.png","img/500/equaldotsize/L/11_Ratio_500_L_12_R_6.png","img/250/equaldotsize/R/12_Ratio_250_L_5_R_20.png","img/900/equaldotsize/L/2_Ratio_900_L_20_R_18.png","img/900/equaldotanddens/L/1_Ratio_900_L_10_R_9.png","img/250/randomdotsize/L/5_Ratio_250_L_24_R_6.png","img/250/randomdotsizeEA/R/6_Ratio_250_L_6_R_24.png","img/750/equaldotsize/R/15_Ratio_750_L_9_R_12.png","img/500/equaldotsize/L/8_Ratio_500_L_8_R_4.png","img/750/randomdotsize/R/2_Ratio_750_L_6_R_8.png","img/750/equaldotanddens/L/6_Ratio_750_L_24_R_18.png","img/500/randomdotsizeEA/L/8_Ratio_500_L_8_R_4.png","img/500/equaldotanddens/L/11_Ratio_500_L_12_R_6.png","img/250/randomdotsize/L/7_Ratio_250_L_8_R_2.png","img/250/randomdotsizeEA/R/13_Ratio_250_L_2_R_8.png","img/750/randomdotsize/L/14_Ratio_750_L_8_R_6.png","img/500/randomdotsize/R/12_Ratio_500_L_1_R_2.png","img/900/equaldotsize/R/9_Ratio_900_L_18_R_20.png","img/500/randomdotsizeEA/L/7_Ratio_500_L_10_R_5.png","img/900/equaldotsize/L/2_Ratio_900_L_20_R_18.png","img/250/equaldotanddens/R/6_Ratio_250_L_6_R_24.png","img/500/equaldotanddens/L/10_Ratio_500_L_4_R_2.png","img/500/equaldotsize/R/3_Ratio_500_L_10_R_20.png","img/500/randomdotsizeEA/L/8_Ratio_500_L_8_R_4.png","img/900/randomdotsizeEA/R/15_Ratio_900_L_9_R_10.png","img/250/equaldotsize/L/3_Ratio_250_L_8_R_2.png","img/900/equaldotsize/L/10_Ratio_900_L_20_R_18.png","img/750/equaldotanddens/R/2_Ratio_750_L_6_R_8.png","img/500/equaldotanddens/R/2_Ratio_500_L_3_R_6.png","img/250/equaldotsize/R/10_Ratio_250_L_4_R_16.png","img/500/randomdotsizeEA/R/6_Ratio_500_L_9_R_18.png","img/500/randomdotsize/L/13_Ratio_500_L_12_R_6.png","img/250/equaldotsize/L/7_Ratio_250_L_8_R_2.png","img/900/randomdotsizeEA/R/14_Ratio_900_L_18_R_20.png","img/500/randomdotsizeEA/L/4_Ratio_500_L_18_R_9.png","img/750/equaldotsize/L/13_Ratio_750_L_8_R_6.png","img/750/equaldotanddens/L/9_Ratio_750_L_4_R_3.png","img/250/randomdotsizeEA/R/4_Ratio_250_L_3_R_12.png","img/500/equaldotanddens/L/4_Ratio_500_L_18_R_9.png","img/900/equaldotanddens/R/9_Ratio_900_L_18_R_20.png","img/250/equaldotsize/R/6_Ratio_250_L_6_R_24.png","img/250/randomdotsize/L/14_Ratio_250_L_12_R_3.png","img/500/equaldotanddens/L/13_Ratio_500_L_12_R_6.png","img/900/randomdotsizeEA/R/15_Ratio_900_L_9_R_10.png","img/250/equaldotsize/L/15_Ratio_250_L_12_R_3.png","img/900/equaldotsize/R/5_Ratio_900_L_9_R_10.png","img/250/equaldotanddens/L/7_Ratio_250_L_8_R_2.png","img/900/randomdotsizeEA/L/1_Ratio_900_L_10_R_9.png","img/500/equaldotanddens/L/13_Ratio_500_L_12_R_6.png","img/500/randomdotsize/L/4_Ratio_500_L_18_R_9.png","img/900/randomdotsizeEA/L/1_Ratio_900_L_10_R_9.png","img/250/equaldotsize/R/6_Ratio_250_L_6_R_24.png","img/250/randomdotsizeEA/R/10_Ratio_250_L_4_R_16.png","img/750/randomdotsize/R/5_Ratio_750_L_15_R_20.png","img/750/equaldotsize/L/10_Ratio_750_L_4_R_3.png","img/500/randomdotsizeEA/L/11_Ratio_500_L_12_R_6.png","img/750/randomdotsize/L/13_Ratio_750_L_8_R_6.png","img/500/randomdotsize/R/3_Ratio_500_L_10_R_20.png","img/750/equaldotanddens/L/1_Ratio_750_L_20_R_15.png","img/900/equaldotsize/L/1_Ratio_900_L_10_R_9.png","img/500/equaldotanddens/R/12_Ratio_500_L_1_R_2.png","img/900/equaldotsize/L/4_Ratio_900_L_20_R_18.png","img/750/randomdotsize/R/7_Ratio_750_L_3_R_4.png","img/250/equaldotanddens/R/9_Ratio_250_L_3_R_12.png","img/500/randomdotsizeEA/R/3_Ratio_500_L_10_R_20.png","img/900/randomdotsize/R/14_Ratio_900_L_18_R_20.png","img/750/randomdotsizeEA/R/7_Ratio_750_L_3_R_4.png","img/900/randomdotsizeEA/R/9_Ratio_900_L_18_R_20.png","img/750/equaldotanddens/R/3_Ratio_750_L_15_R_20.png","img/250/equaldotanddens/R/6_Ratio_250_L_6_R_24.png","img/750/randomdotsize/L/1_Ratio_750_L_20_R_15.png","img/750/randomdotsize/L/14_Ratio_750_L_8_R_6.png","img/250/equaldotanddens/L/5_Ratio_250_L_24_R_6.png","img/500/equaldotsize/R/1_Ratio_500_L_9_R_18.png","img/250/equaldotanddens/L/2_Ratio_250_L_16_R_4.png","img/500/equaldotsize/L/7_Ratio_500_L_10_R_5.png","img/250/randomdotsize/R/11_Ratio_250_L_3_R_12.png","img/900/equaldotanddens/L/8_Ratio_900_L_20_R_18.png","img/900/randomdotsize/L/1_Ratio_900_L_10_R_9.png","img/250/randomdotsizeEA/L/7_Ratio_250_L_8_R_2.png","img/750/randomdotsize/R/11_Ratio_750_L_12_R_16.png","img/750/equaldotanddens/R/4_Ratio_750_L_15_R_20.png","img/750/randomdotsizeEA/R/7_Ratio_750_L_3_R_4.png","img/250/randomdotsize/L/5_Ratio_250_L_24_R_6.png","img/500/equaldotanddens/L/4_Ratio_500_L_18_R_9.png","img/900/equaldotanddens/L/4_Ratio_900_L_20_R_18.png","img/900/equaldotanddens/L/10_Ratio_900_L_20_R_18.png","img/500/equaldotsize/L/8_Ratio_500_L_8_R_4.png","img/250/equaldotanddens/R/13_Ratio_250_L_2_R_8.png","img/250/randomdotsize/L/15_Ratio_250_L_12_R_3.png","img/750/randomdotsizeEA/L/9_Ratio_750_L_4_R_3.png"],"Rat0":[["12_Ratio_0_L_9_R_0.png","13_Ratio_0_L_6_R_0.png","5_Ratio_0_L_2_R_0.png","6_Ratio_0_L_4_R_0.png","8_Ratio_0_L_6_R_0.png"],["1_Ratio_0_L_0_R_17.png","10_Ratio_0_L_0_R_22.png","11_Ratio_0_L_0_R_1.png","14_Ratio_0_L_0_R_24.png","15_Ratio_0_L_0_R_4.png","2_Ratio_0_L_0_R_5.png","3_Ratio_0_L_0_R_17.png","4_Ratio_0_L_0_R_7.png","7_Ratio_0_L_0_R_19.png","9_Ratio_0_L_0_R_15.png"]],"Rat250":[["1_Ratio_250_L_8_R_2.png","14_Ratio_250_L_12_R_3.png","15_Ratio_250_L_12_R_3.png","2_Ratio_250_L_16_R_4.png","3_Ratio_250_L_8_R_2.png","5_Ratio_250_L_24_R_6.png","7_Ratio_250_L_8_R_2.png"],["10_Ratio_250_L_4_R_16.png","11_Ratio_250_L_3_R_12.png","12_Ratio_250_L_5_R_20.png","13_Ratio_250_L_2_R_8.png","4_Ratio_250_L_3_R_12.png","6_Ratio_250_L_6_R_24.png","8_Ratio_250_L_1_R_4.png","9_Ratio_250_L_3_R_12.png"]],"Rat500":[["10_Ratio_500_L_4_R_2.png","11_Ratio_500_L_12_R_6.png","13_Ratio_500_L_12_R_6.png","4_Ratio_500_L_18_R_9.png","5_Ratio_500_L_4_R_2.png","7_Ratio_500_L_10_R_5.png","8_Ratio_500_L_8_R_4.png"],["1_Ratio_500_L_9_R_18.png","12_Ratio_500_L_1_R_2.png","14_Ratio_500_L_5_R_10.png","15_Ratio_500_L_1_R_2.png","2_Ratio_500_L_3_R_6.png","3_Ratio_500_L_10_R_20.png","6_Ratio_500_L_9_R_18.png","9_Ratio_500_L_2_R_4.png"]],"Rat750":[["1_Ratio_750_L_20_R_15.png","10_Ratio_750_L_4_R_3.png","13_Ratio_750_L_8_R_6.png","14_Ratio_750_L_8_R_6.png","6_Ratio_750_L_24_R_18.png","8_Ratio_750_L_4_R_3.png","9_Ratio_750_L_4_R_3.png"],["11_Ratio_750_L_12_R_16.png","12_Ratio_750_L_3_R_4.png","15_Ratio_750_L_9_R_12.png","2_Ratio_750_L_6_R_8.png","3_Ratio_750_L_15_R_20.png","4_Ratio_750_L_15_R_20.png","5_Ratio_750_L_15_R_20.png","7_Ratio_750_L_3_R_4.png"]],"Rat900":[["1_Ratio_900_L_10_R_9.png","10_Ratio_900_L_20_R_18.png","2_Ratio_900_L_20_R_18.png","4_Ratio_900_L_20_R_18.png","8_Ratio_900_L_20_R_18.png"],["11_Ratio_900_L_18_R_20.png","12_Ratio_900_L_18_R_20.png","13_Ratio_900_L_18_R_20.png","14_Ratio_900_L_18_R_20.png","15_Ratio_900_L_9_R_10.png","3_Ratio_900_L_9_R_10.png","5_Ratio_900_L_9_R_10.png","6_Ratio_900_L_9_R_10.png","7_Ratio_900_L_9_R_10.png","9_Ratio_900_L_18_R_20.png"]],"Rat1000":[["10_Ratio_1000_L_16_R_16.png","11_Ratio_1000_L_6_R_6.png","12_Ratio_1000_L_14_R_14.png","13_Ratio_1000_L_20_R_20.png","15_Ratio_1000_L_15_R_15.png","2_Ratio_1000_L_17_R_17.png","4_Ratio_1000_L_9_R_9.png","5_Ratio_1000_L_6_R_6.png","6_Ratio_1000_L_19_R_19.png","8_Ratio_1000_L_14_R_14.png","9_Ratio_1000_L_25_R_25.png"],["1_Ratio_1000_L_1_R_1.png","14_Ratio_1000_L_17_R_17.png","3_Ratio_1000_L_17_R_17.png","7_Ratio_1000_L_6_R_6.png"]]}},{"start_time":1549381985255,"click_time":1549381986805,"finger_time":1549381986185,"fix_duration":1227.0011969841905,"trial":1,"RT":930,"MT":620,"sideResp":2,"stimulus":"img/900/randomdotsize/L/10_Ratio_900_L_20_R_18.png","xmouse":[410,410,410,413.3333435058594,413.3333435058594,413.3333435058594,413.3333435058594,413.3333435058594,413.3333435058594,413.3333435058594,413.3333435058594,413.3333435058594,413.3333435058594,414,414,414,414,414,414,414,414,414,414,414,414,414,414,414,414,413.3333435058594,413.3333435058594,413.3333435058594,413.3333435058594,413.3333435058594,413.3333435058594,413.3333435058594,413.3333435058594,413.3333435058594,413.3333435058594,412.66668701171875,412.66668701171875,412.66668701171875,412.66668701171875,408,408,408,435.3333435058594,475.3333435058594,510,532.6666870117188,584,636.6666870117188,661.3333740234375,722.6666870117188,757.3333740234375,776.6666870117188,780,782.6666870117188,783.3333129882812,782.6666870117188,782.6666870117188,782.6666870117188,782.6666870117188,782.6666870117188,782.6666870117188,778,778,778,778,777.3333740234375,776.6666870117188,776.6666870117188,776.6666870117188,774,772.6666870117188,772.6666870117188,770.6666870117188,768.6666870117188],"ymouse":[826,826,826,827.3333129882812,827.3333129882812,827.3333129882812,827.3333129882812,827.3333129882812,827.3333129882812,827.3333129882812,827.3333129882812,827.3333129882812,827.3333129882812,825.3333129882812,825.3333129882812,825.3333129882812,825.3333129882812,825.3333129882812,825.3333129882812,825.3333129882812,825.3333129882812,825.3333129882812,825.3333129882812,825.3333129882812,825.3333129882812,825.3333129882812,825.3333129882812,825.3333129882812,825.3333129882812,825.3333129882812,825.3333129882812,825.3333129882812,825.3333129882812,825.3333129882812,825.3333129882812,825.3333129882812,825.3333129882812,825.3333129882812,825.3333129882812,822.6666870117188,822.6666870117188,822.6666870117188,822.6666870117188,808,808,808,710,616,549.3333740234375,510,415.3333435058594,322.66668701171875,279.3333435058594,174,122,87.33333587646484,79.33333587646484,68.66667175292969,64,62.66667175292969,62.66667175292969,62.66667175292969,62.66667175292969,62.66667175292969,62.66667175292969,58.66667175292969,58.66667175292969,56,54,52,50.66667175292969,50.66667175292969,50.66667175292969,51.333335876464844,52.000003814697266,52.000003814697266,52.000003814697266,52.000003814697266],"timestamp_mouse":[10,43,49,71,89,110,129,149,169,190,210,229,250,269,289,310,333,349,370,390,410,429,450,470,490,509,530,550,570,589,610,630,650,669,689,710,729,750,769,789,809,830,849,871,890,910,930,949,971,990,1010,1029,1049,1070,1090,1110,1130,1150,1172,1190,1209,1230,1250,1272,1289,1310,1329,1349,1370,1390,1410,1429,1450,1471,1489,1510,1529,1550],"xSR":350,"ySR":768,"xT1":30,"yT1":0,"xT2":670,"yT2":0,"toosoon":0,"cond_shown":"randomdotsize","ratio_trial":900,"smaller_num":"18","larger_num":"20","correct_side":1,"subjID":"47wm","gender":"No_gender","age":"No_age","school":"No_school"},{"start_time":1549381992661,"click_time":1549381994025,"finger_time":1549381993645,"fix_duration":415.3085288751204,"trial":2,"RT":984,"MT":380,"sideResp":1,"stimulus":"img/750/equaldotsize/R/15_Ratio_750_L_9_R_12.png","xmouse":[419.3333435058594,419.3333435058594,419.3333435058594,419.3333435058594,419.3333435058594,420.0000305175781,419.3333435058594,419.3333435058594,419.3333435058594,418.66668701171875,417.3333435058594,416.66668701171875,416.66668701171875,416.0000305175781,415.3333435058594,414.0000305175781,414.0000305175781,414.0000305175781,414.0000305175781,414.0000305175781,414.0000305175781,414.0000305175781,414.0000305175781,414.0000305175781,414.0000305175781,414.0000305175781,414.0000305175781,414.0000305175781,414.0000305175781,415.3333435058594,415.3333435058594,415.3333435058594,415.3333435058594,415.3333435058594,415.3333435058594,415.3333435058594,415.3333435058594,415.3333435058594,415.3333435058594,414.0000305175781,413.3333435058594,412.66668701171875,412.0000305175781,410.66668701171875,410.0000305175781,408.0000305175781,403.3333435058594,400.66668701171875,397.3333435058594,381.3333435058594,346.66668701171875,328.0000305175781,318.6667175292969,301.3333435058594,270.6667175292969,262.0000305175781,230.6666717529297,221.3333282470703,204.6666717529297,196,177.3333282470703,154,140,134.6666717529297,123.33333587646484,114.00000762939453,103.33333587646484,100.00000762939453,94.66667175292969],"ymouse":[842.6666870117188,842.6666870117188,842.6666870117188,842.6666870117188,830,828.6666870117188,828.6666870117188,828.6666870117188,828.6666870117188,828.6666870117188,828,827.3333740234375,826.6666870117188,826,825.3333740234375,824,824,824.6666870117188,824.6666870117188,825.3333129882812,825.3333129882812,825.3333129882812,825.3333129882812,825.3333129882812,825.3333129882812,825.3333129882812,825.3333129882812,825.3333129882812,825.3333129882812,828.6666870117188,828.6666870117188,828.6666870117188,828.6666870117188,828.6666870117188,828.6666870117188,828.6666870117188,828.6666870117188,828.6666870117188,828.6666870117188,823.3333740234375,821.3333740234375,820.6666870117188,820,818,816.6666870117188,813.3333740234375,806.6666870117188,803.3333740234375,795.3333740234375,737.3333740234375,658,636.6666870117188,623.3333740234375,597.3333740234375,532,496,434,401.3333435058594,364,342.66668701171875,314,268,240,224.6666717529297,193.33334350585938,163.33334350585938,123.33334350585938,111.33333587646484,92.66667175292969],"timestamp_mouse":[4,36,43,64,83,103,123,144,164,183,204,224,243,263,283,304,324,343,363,384,403,423,444,463,483,504,523,544,564,584,603,624,644,663,684,705,724,743,763,783,805,823,844,864,883,903,924,944,964,984,1005,1024,1043,1063,1083,1104,1127,1144,1164,1183,1204,1225,1244,1263,1283,1303,1323,1343,1364],"xSR":350,"ySR":768,"xT1":30,"yT1":0,"xT2":670,"yT2":0,"toosoon":0,"cond_shown":"equaldotsize","ratio_trial":750,"smaller_num":"9","larger_num":"12","correct_side":2,"subjID":"47wm","gender":"No_gender","age":"No_age","school":"No_school"},{"start_time":1549381998099,"click_time":1549381999525,"finger_time":1549381999327,"fix_duration":1073.5699166721356,"trial":3,"RT":1228,"MT":198,"sideResp":2,"stimulus":"img/250/randomdotsizeEA/R/11_Ratio_250_L_3_R_12.png","xmouse":[412,412,412,412,412,412,412,412,412,412,412,413.3333435058594,413.3333435058594,413.3333435058594,413.3333435058594,413.3333435058594,413.3333435058594,413.3333435058594,413.3333435058594,413.3333435058594,422,423.3333435058594,424.66668701171875,425.3333435058594,426.66668701171875,428,428.66668701171875,428.66668701171875,428.66668701171875,428.66668701171875,428.0000305175781,428.0000305175781,428.0000305175781,427.3333435058594,427.3333435058594,427.3333435058594,427.3333435058594,427.3333435058594,427.3333435058594,427.3333435058594,427.3333435058594,427.3333435058594,427.3333435058594,424.66668701171875,424.66668701171875,424.66668701171875,424.66668701171875,424.66668701171875,424.66668701171875,424.66668701171875,424.66668701171875,424.66668701171875,424.66668701171875,422.0000305175781,422.0000305175781,422.0000305175781,422.0000305175781,422.0000305175781,422.0000305175781,422.0000305175781,422.0000305175781,458.66668701171875,482.66668701171875,504,515.3333740234375,556.6666870117188,584.6666870117188,609.3333740234375,620,636.6666870117188,660,683.3333740234375],"ymouse":[829.3333740234375,829.3333740234375,830,830,830,830,830,830,830,830,830,830.6666870117188,830.6666870117188,830.6666870117188,830.6666870117188,830.6666870117188,830.6666870117188,830.6666870117188,830.6666870117188,830.6666870117188,831.3333740234375,831.3333740234375,832,832,832.6666870117188,833.3333740234375,833.3333740234375,834,833.3333740234375,833.3333740234375,832.6666870117188,832.6666870117188,832.6666870117188,832.6666870117188,832.6666870117188,832.6666870117188,832.6666870117188,832.6666870117188,832.6666870117188,832.6666870117188,832.6666870117188,832.6666870117188,832.6666870117188,830.6666870117188,830.6666870117188,830.6666870117188,830.6666870117188,830.6666870117188,830.6666870117188,830.6666870117188,830.6666870117188,830.6666870117188,830.6666870117188,828,828,828,828,828,828,828,828,628.6666870117188,535.3333740234375,450,409.3333435058594,297.3333435058594,236.6666717529297,189.33334350585938,168.6666717529297,134.6666717529297,88.66667175292969,49.333335876464844],"timestamp_mouse":[12,29,45,65,85,105,126,146,166,185,206,226,245,265,285,306,326,346,366,385,408,425,445,466,486,506,526,545,565,585,608,625,645,665,685,705,725,746,766,785,805,826,845,866,886,905,926,945,965,986,1005,1025,1046,1066,1085,1106,1126,1146,1166,1186,1205,1228,1246,1266,1285,1307,1325,1346,1365,1385,1408,1425],"xSR":350,"ySR":768,"xT1":30,"yT1":0,"xT2":670,"yT2":0,"toosoon":0,"cond_shown":"randomdotsizeEA","ratio_trial":250,"smaller_num":"3","larger_num":"12","correct_side":2,"subjID":"47wm","gender":"No_gender","age":"No_age","school":"No_school"},{"start_time":1549382002555,"click_time":1549382003846,"finger_time":1549382003564,"fix_duration":1429.1446224283648,"trial":4,"RT":1009,"MT":282,"sideResp":1,"stimulus":"img/900/equaldotanddens/R/9_Ratio_900_L_18_R_20.png","xmouse":[392.6666564941406,392.6666564941406,392.6666564941406,392.6666564941406,392.6666564941406,392.6666564941406,392.6666564941406,392.6666564941406,392.6666564941406,392.6666564941406,392.6666564941406,392.6666564941406,392.6666564941406,392.6666564941406,392.6666564941406,392.6666564941406,392.6666564941406,392.6666564941406,392.6666564941406,392.6666564941406,392.6666564941406,392.6666564941406,392.6666564941406,392.6666564941406,392.6666564941406,392.6666564941406,394,394,394,394,394,394,394,394,394,394,394.6666564941406,394.6666564941406,394.6666564941406,394.6666564941406,394.6666564941406,394.6666564941406,394.6666564941406,394.6666564941406,394.6666564941406,394.6666564941406,386.6666564941406,382,379.3333435058594,365.3333435058594,331.3333435058594,306.66668701171875,294,268.66668701171875,228,202,189.33334350585938,164,139.33334350585938,106,95.33333587646484,76.66667175292969,58,50.66666793823242,31.333335876464844],"ymouse":[808,808,808,808,808,808,808,808,808,808,808,808,808,808,808,808,806.6666870117188,806.6666870117188,806.6666870117188,806.6666870117188,806.6666870117188,806.6666870117188,806.6666870117188,806.6666870117188,806.6666870117188,806.6666870117188,802,802,802,802,802,802,802,802,802,802,803.3333740234375,803.3333740234375,803.3333740234375,803.3333740234375,803.3333740234375,803.3333740234375,803.3333740234375,803.3333740234375,803.3333740234375,803.3333740234375,797.3333740234375,794,791.3333740234375,773.3333740234375,720.6666870117188,675.3333740234375,651.3333740234375,602,529.3333740234375,480,456,405.3333435058594,353.3333435058594,280,256.66668701171875,211.33334350585938,171.33334350585938,152.6666717529297,88.66667175292969],"timestamp_mouse":[12,34,49,70,89,110,129,150,169,189,209,229,250,269,290,309,330,350,370,391,409,430,449,469,489,509,530,550,569,589,609,629,650,670,689,709,729,749,769,789,809,830,849,869,891,910,929,949,970,990,1009,1030,1050,1069,1089,1109,1129,1150,1169,1190,1209,1229,1250,1269,1291],"xSR":350,"ySR":768,"xT1":30,"yT1":0,"xT2":670,"yT2":0,"toosoon":0,"cond_shown":"equaldotanddens","ratio_trial":900,"smaller_num":"18","larger_num":"20","correct_side":2,"subjID":"47wm","gender":"No_gender","age":"No_age","school":"No_school"},{"start_time":1549382005612,"click_time":1549382006645,"finger_time":1549382006365,"fix_duration":726.239248503032,"trial":5,"RT":753,"MT":280,"sideResp":2,"stimulus":"img/750/randomdotsizeEA/L/14_Ratio_750_L_8_R_6.png","xmouse":[418,419.3333435058594,420,420,419.3333435058594,418.66668701171875,418.66668701171875,417.3333435058594,417.3333435058594,417.3333435058594,417.3333435058594,418,418,423.3333435058594,424.6666564941406,424.6666564941406,426.0000305175781,426.0000305175781,426.0000305175781,426.0000305175781,426.0000305175781,426.0000305175781,426.0000305175781,426.0000305175781,426.0000305175781,426.0000305175781,428,428,428,428,428,428,428,428,428,428,441.3333435058594,491.3333435058594,524,539.3333740234375,565.3333740234375,578,626.6666870117188,638,663.3333740234375,676.6666870117188,698.6666870117188,722.6666870117188,735.3333740234375,744,746.6666870117188,750],"ymouse":[820.6666870117188,824,827.3333740234375,828,829.3333740234375,829.3333740234375,829.3333740234375,829.3333740234375,829.3333740234375,829.3333740234375,829.3333740234375,829.3333129882812,829.3333129882812,834,835.3333740234375,835.3333740234375,836,836,836,836,836,836,836,836,836,836,825.3333740234375,825.3333740234375,825.3333740234375,825.3333740234375,825.3333740234375,825.3333740234375,825.3333740234375,825.3333740234375,825.3333740234375,825.3333740234375,772.6666870117188,670,595.3333740234375,560,494,464,357.3333435058594,334,280.66668701171875,255.33334350585938,212.6666717529297,160,134,114.66667175292969,107.33333587646484,96.66667175292969],"timestamp_mouse":[13,33,53,72,92,112,133,153,173,192,212,232,253,273,292,312,333,353,372,392,413,432,454,473,492,512,533,554,573,592,612,633,653,673,692,712,732,753,772,793,812,832,853,873,892,912,932,953,972,993,1012,1032],"xSR":350,"ySR":768,"xT1":30,"yT1":0,"xT2":670,"yT2":0,"toosoon":0,"cond_shown":"randomdotsizeEA","ratio_trial":750,"smaller_num":"6","larger_num":"8","correct_side":1,"subjID":"47wm","gender":"No_gender","age":"No_age","school":"No_school"},{"start_time":1549382011935,"click_time":1549382013365,"finger_time":1549382013007,"fix_duration":1449.7339545061946,"trial":6,"RT":1072,"MT":358,"sideResp":1,"stimulus":"img/500/randomdotsize/L/11_Ratio_500_L_12_R_6.png","xmouse":[416,416,416,416,416,416,416,416,414.6666564941406,414.6666564941406,414.6666564941406,414.6666564941406,414.6666564941406,414.6666564941406,414.6666564941406,414.6666564941406,414.6666564941406,414.6666564941406,414,414,414,414,414,414,414,414,414,414,413.3333435058594,413.3333435058594,413.3333435058594,413.3333435058594,413.3333435058594,413.3333435058594,413.3333435058594,413.3333435058594,411.3333435058594,411.3333435058594,410.6666564941406,410.6666564941406,410.6666564941406,410.6666564941406,410,409.3333435058594,408,407.3333435058594,406,405.3333435058594,402.66668701171875,402,400.66668701171875,399.3333435058594,396.66668701171875,381.3333435058594,368,349.3333435058594,338.66668701171875,315.3333435058594,278.66668701171875,252.66668701171875,241.33334350585938,218,195.33334350585938,184,152.6666717529297,134.6666717529297,126,110.66667175292969,97.33333587646484,85.33333587646484,82,76],"ymouse":[843.3333129882812,843.3333129882812,843.3333129882812,843.3333129882812,843.3333129882812,843.3333129882812,843.3333129882812,843.3333129882812,838.6666870117188,838.6666870117188,838.6666870117188,838.6666870117188,838.6666870117188,838.6666870117188,838.6666870117188,838.6666870117188,838.6666870117188,838.6666870117188,838.6666870117188,838.6666870117188,838.6666870117188,838.6666870117188,838.6666870117188,838.6666870117188,838.6666870117188,838.6666870117188,838.6666870117188,838.6666870117188,834.6666870117188,834.6666870117188,834.6666870117188,834.6666870117188,834.6666870117188,834.6666870117188,834.6666870117188,834.6666870117188,832.6666870117188,832.6666870117188,832,832,832,832,831.3333740234375,830,829.3333740234375,828,826.6666870117188,825.3333740234375,819.3333740234375,817.3333740234375,812.6666870117188,810.6666870117188,803.3333740234375,766,730.6666870117188,689.3333740234375,666,615.3333740234375,532,475.3333435058594,452,400.66668701171875,354,332,274.66668701171875,240.66668701171875,224.6666717529297,195.33334350585938,170.6666717529297,132,119.33334350585938,98.66667175292969],"timestamp_mouse":[10,33,50,71,90,110,129,150,170,190,209,230,249,271,290,309,330,350,369,390,409,430,450,470,489,509,529,550,569,590,610,630,650,669,690,710,730,750,771,790,809,829,849,871,889,910,930,949,970,990,1009,1030,1049,1072,1089,1109,1130,1150,1172,1190,1209,1230,1249,1270,1290,1310,1329,1350,1370,1390,1410,1429],"xSR":350,"ySR":768,"xT1":30,"yT1":0,"xT2":670,"yT2":0,"toosoon":0,"cond_shown":"randomdotsize","ratio_trial":500,"smaller_num":"6","larger_num":"12","correct_side":1,"subjID":"47wm","gender":"No_gender","age":"No_age","school":"No_school"},{"start_time":1549382014656,"click_time":1549382015845,"finger_time":1549382015564,"fix_duration":250,"trial":7,"RT":908,"MT":281,"sideResp":1,"stimulus":"img/900/randomdotsize/R/6_Ratio_900_L_9_R_10.png","xmouse":[400,400,400,400,400,400,400,400,400.66668701171875,400.66668701171875,400.66668701171875,400.66668701171875,400.66668701171875,400.66668701171875,400.66668701171875,400.66668701171875,400.66668701171875,400.66668701171875,402,402,402,402,402,402,402,402,402,402,400,400,400,400,400,400,400,400,400,400,400,397.3333435058594,397.3333435058594,397.3333435058594,397.3333435058594,377.3333435058594,372,353.3333435058594,342,317.3333435058594,281.3333435058594,258,246,224,206,182,175.33334350585938,164,152,147.33334350585938,134,116.66667175292969],"ymouse":[819.3333129882812,819.3333129882812,819.3333129882812,819.3333129882812,819.3333129882812,819.3333129882812,819.3333129882812,819.3333129882812,814,814,814,814,814,814,814,814,814,814,819.3333129882812,819.3333129882812,819.3333129882812,819.3333129882812,819.3333129882812,819.3333129882812,819.3333129882812,819.3333129882812,819.3333129882812,819.3333129882812,818.6666870117188,818.6666870117188,818.6666870117188,818.6666870117188,818.6666870117188,818.6666870117188,818.6666870117188,818.6666870117188,818.6666870117188,818.6666870117188,818.6666870117188,814.6666870117188,814.6666870117188,814.6666870117188,814.6666870117188,785.3333740234375,774,731.3333740234375,703.3333740234375,644,548,478.66668701171875,444,376.66668701171875,320,238.6666717529297,214.6666717529297,171.33334350585938,135.33334350585938,121.33334350585938,98,68],"timestamp_mouse":[11,30,49,68,89,108,128,149,169,188,209,228,248,270,289,309,329,348,369,388,408,428,448,468,489,508,529,549,568,588,609,629,648,668,689,708,728,749,769,789,809,829,849,870,888,908,929,948,969,988,1008,1029,1049,1070,1088,1109,1129,1148,1169,1189],"xSR":350,"ySR":768,"xT1":30,"yT1":0,"xT2":670,"yT2":0,"toosoon":0,"cond_shown":"randomdotsize","ratio_trial":900,"smaller_num":"9","larger_num":"10","correct_side":2,"subjID":"47wm","gender":"No_gender","age":"No_age","school":"No_school"},{"start_time":1549382017096,"click_time":1549382018085,"finger_time":1549382017924,"fix_duration":250,"trial":8,"RT":828,"MT":161,"sideResp":2,"stimulus":"img/900/randomdotsize/R/13_Ratio_900_L_18_R_20.png","xmouse":[410,410,406,406,406,406,406,406,406,404.66668701171875,404.66668701171875,404.66668701171875,404.66668701171875,404.66668701171875,404.66668701171875,404.66668701171875,404.66668701171875,404.66668701171875,404.66668701171875,404.66668701171875,404.66668701171875,401.3333435058594,401.3333435058594,401.3333435058594,401.3333435058594,401.3333435058594,401.3333435058594,401.3333435058594,401.3333435058594,401.3333435058594,401.3333435058594,407.3333435058594,407.3333435058594,407.3333435058594,407.3333435058594,406.66668701171875,406.66668701171875,406.66668701171875,406.66668701171875,406.66668701171875,406.66668701171875,432.66668701171875,488.66668701171875,505.3333435058594,540.6666870117188,580.6666870117188,601.3333740234375,670,717.3333740234375,762],"ymouse":[816.6666870117188,816.6666870117188,818,817.3333740234375,817.3333740234375,817.3333740234375,817.3333740234375,817.3333740234375,817.3333740234375,816.6666870117188,816.6666870117188,816,816,816,816,816,816,816,816,816,816,812.6666870117188,812.6666870117188,812.6666870117188,812.6666870117188,812.6666870117188,812.6666870117188,812.6666870117188,812.6666870117188,812.6666870117188,812.6666870117188,804.6666870117188,804.6666870117188,804.6666870117188,804.6666870117188,799.3333740234375,799.3333740234375,799.3333740234375,799.3333740234375,799.3333740234375,799.3333740234375,680,532,494,418,342,304,194.6666717529297,124,67.33333587646484],"timestamp_mouse":[11,31,49,69,88,109,129,149,169,189,208,228,248,269,288,308,328,348,368,388,408,428,451,468,489,508,528,549,569,589,608,628,649,669,688,709,728,749,768,789,809,828,849,870,888,909,929,949,969,988],"xSR":350,"ySR":768,"xT1":30,"yT1":0,"xT2":670,"yT2":0,"toosoon":0,"cond_shown":"randomdotsize","ratio_trial":900,"smaller_num":"18","larger_num":"20","correct_side":2,"subjID":"47wm","gender":"No_gender","age":"No_age","school":"No_school"},{"start_time":1549382019871,"click_time":1549382021145,"finger_time":1549382020765,"fix_duration":724.2950418939212,"trial":9,"RT":894,"MT":380,"sideResp":2,"stimulus":"img/900/randomdotsizeEA/R/13_Ratio_900_L_18_R_20.png","xmouse":[410,410,411.3333435058594,411.3333435058594,411.3333435058594,410.66668701171875,410,410,410,410,410,410,410,400.66668701171875,400,400,402.6666564941406,402.6666564941406,402.6666564941406,402.6666564941406,402.6666564941406,402.6666564941406,402.6666564941406,415.3333435058594,416,416,416,415.3333435058594,415.3333435058594,414.66668701171875,414.66668701171875,414.66668701171875,414.66668701171875,414.66668701171875,414.66668701171875,414.66668701171875,414.66668701171875,414.66668701171875,414.66668701171875,412.6666564941406,412.6666564941406,412.6666564941406,412.6666564941406,404,398,394.66668701171875,389.3333435058594,387.3333435058594,388,394.66668701171875,411.3333435058594,427.3333435058594,438,462.66668701171875,514,553.3333740234375,573.3333740234375,608,640,677.3333740234375,687.3333740234375,702.6666870117188,709.3333740234375,712],"ymouse":[801.3333740234375,801.3333740234375,804,804.6666870117188,806,806,806,806,806,806,806,806,806,796.6666870117188,797.3333740234375,797.3333740234375,798.6666870117188,798.6666870117188,798.6666870117188,798.6666870117188,798.6666870117188,798.6666870117188,798.6666870117188,806,808,808.6666870117188,808.6666870117188,808.6666870117188,808.6666870117188,808.6666870117188,808.6666870117188,808.6666870117188,808.6666870117188,808.6666870117188,808.6666870117188,808.6666870117188,808.6666870117188,808.6666870117188,808.6666870117188,801.3333740234375,801.3333740234375,801.3333740234375,801.3333740234375,780.6666870117188,760.6666870117188,746.6666870117188,714,677.3333740234375,658,618.6666870117188,561.3333740234375,521.3333740234375,500.66668701171875,452.66668701171875,370,317.3333435058594,293.3333435058594,248.66668701171875,212,162.6666717529297,146.6666717529297,116,100,96],"timestamp_mouse":[31,34,54,74,93,113,134,153,174,193,214,233,253,273,293,313,334,353,373,394,414,433,453,474,493,514,533,553,573,593,614,634,653,674,694,713,734,754,773,794,814,834,853,873,894,913,934,953,974,993,1013,1034,1054,1074,1094,1114,1134,1154,1173,1194,1213,1234,1254,1274],"xSR":350,"ySR":768,"xT1":30,"yT1":0,"xT2":670,"yT2":0,"toosoon":0,"cond_shown":"randomdotsizeEA","ratio_trial":900,"smaller_num":"18","larger_num":"20","correct_side":2,"subjID":"47wm","gender":"No_gender","age":"No_age","school":"No_school"},{"start_time":1549382022457,"click_time":1549382023944,"finger_time":1549382022965,"fix_duration":250,"trial":10,"RT":508,"MT":979,"sideResp":2,"stimulus":"img/250/randomdotsizeEA/R/6_Ratio_250_L_6_R_24.png","xmouse":[418.66668701171875,418.66668701171875,418.66668701171875,418.66668701171875,418.66668701171875,418.66668701171875,418.66668701171875,418.66668701171875,418.66668701171875,417.3333435058594,417.3333435058594,417.3333435058594,417.3333435058594,417.3333435058594,417.3333435058594,417.3333435058594,417.3333435058594,417.3333435058594,417.3333435058594,414.66668701171875,414.66668701171875,414.66668701171875,414.66668701171875,414.66668701171875,414.66668701171875,388.66668701171875,366,349.3333435058594,342,324,316,287.3333435058594,280.66668701171875,268.66668701171875,262,253.33334350585938,238,229.33334350585938,218.6666717529297,214.6666717529297,205.33334350585938,193.33334350585938,186.6666717529297,184,180,177.33334350585938,175.33334350585938,174.6666717529297,175.33334350585938,176,176.6666717529297,176.6666717529297,176.6666717529297,176.6666717529297,176.6666717529297,176.6666717529297,282.66668701171875,315.3333435058594,332,366,382.66668701171875,444.66668701171875,460.66668701171875,490,520,520,520,601.3333740234375,612.6666870117188,630,639.3333740234375,646,653.3333740234375,658,676],"ymouse":[819.3333129882812,819.3333129882812,819.3333129882812,819.3333129882812,819.3333129882812,819.3333129882812,819.3333129882812,819.3333129882812,819.3333129882812,820.6666870117188,820.6666870117188,820.6666870117188,820.6666870117188,820.6666870117188,820.6666870117188,820.6666870117188,820.6666870117188,820.6666870117188,820.6666870117188,816.6666870117188,816.6666870117188,816.6666870117188,816.6666870117188,816.6666870117188,816.6666870117188,756,708.6666870117188,673.3333740234375,654,613.3333740234375,591.3333740234375,498.66668701171875,476.66668701171875,429.3333435058594,405.3333435058594,358.66668701171875,294,253.33334350585938,216.6666717529297,200,169.33334350585938,130.6666717529297,114.66667175292969,107.33333587646484,98,92.66667175292969,87.33333587646484,86,85.33333587646484,86,86,86,86,86,86,86,164.6666717529297,195.33334350585938,211.33334350585938,242,256.66668701171875,296,302.66668701171875,302.66668701171875,293.3333435058594,293.3333435058594,293.3333435058594,212.6666717529297,192.6666717529297,152,119.33334350585938,88,72,64.66667175292969,43.333335876464844],"timestamp_mouse":[13,29,48,67,87,108,127,148,167,188,208,228,248,268,287,308,328,348,367,388,408,430,447,468,487,508,528,548,568,588,608,627,648,668,687,708,728,748,767,787,807,830,847,867,888,908,930,948,967,987,1008,1028,1048,1067,1088,1108,1130,1147,1168,1188,1207,1228,1247,1267,1288,1308,1327,1347,1367,1387,1408,1427,1447,1468,1487],"xSR":350,"ySR":768,"xT1":30,"yT1":0,"xT2":670,"yT2":0,"toosoon":0,"cond_shown":"randomdotsizeEA","ratio_trial":250,"smaller_num":"6","larger_num":"24","correct_side":2,"subjID":"47wm","gender":"No_gender","age":"No_age","school":"No_school"},{"start_time":1549382025382,"click_time":1549382026745,"finger_time":1549382026405,"fix_duration":537.3584392742605,"trial":11,"RT":1023,"MT":340,"sideResp":1,"stimulus":"img/750/randomdotsizeEA/R/5_Ratio_750_L_15_R_20.png","xmouse":[414,414,414,414,414,414,414,413.3333435058594,413.3333435058594,413.3333435058594,413.3333435058594,413.3333435058594,413.3333435058594,413.3333435058594,413.3333435058594,413.3333435058594,413.3333435058594,413.3333435058594,413.3333435058594,413.3333435058594,413.3333435058594,413.3333435058594,413.3333435058594,413.3333435058594,413.3333435058594,413.3333435058594,413.3333435058594,414,414,414,414,414,414,414,414,414,414,414,414,414.66668701171875,414.66668701171875,414.66668701171875,414.66668701171875,414.66668701171875,414.66668701171875,414.66668701171875,412.66668701171875,412.66668701171875,412.66668701171875,412.66668701171875,408,384.66668701171875,366,357.3333435058594,336.66668701171875,317.3333435058594,290,271.3333435058594,260.66668701171875,239.33334350585938,229.33334350585938,187.33334350585938,177.33334350585938,162,154,139.33334350585938,119.33333587646484,109.33333587646484,99.33333587646484],"ymouse":[816,816,816,816,816,816,816,816,816,816,816,816.6666870117188,816.6666870117188,816.6666870117188,816.6666870117188,816.6666870117188,816.6666870117188,816,816,816,816,815.3333129882812,815.3333129882812,815.3333129882812,814.6666870117188,814.6666870117188,814.6666870117188,814.6666870117188,814.6666870117188,815.3333129882812,815.3333129882812,815.3333129882812,815.3333129882812,815.3333129882812,815.3333129882812,815.3333129882812,815.3333129882812,815.3333129882812,815.3333129882812,814.6666870117188,814.6666870117188,814.6666870117188,814.6666870117188,814.6666870117188,814.6666870117188,814.6666870117188,808.6666870117188,808,806,804.6666870117188,796,758.6666870117188,730.6666870117188,715.3333740234375,682.6666870117188,644,578.6666870117188,532.6666870117188,506.66668701171875,457.3333435058594,433.3333435058594,333.3333435058594,308.66668701171875,262,240,196.6666717529297,142.6666717529297,112,86],"timestamp_mouse":[8,36,43,62,83,102,123,142,163,182,203,223,243,262,282,303,322,343,362,383,402,422,442,462,482,503,522,542,562,582,602,622,643,663,683,702,722,742,762,783,803,822,842,862,882,903,923,943,962,982,1002,1023,1042,1063,1083,1103,1123,1143,1162,1182,1202,1224,1243,1262,1282,1302,1325,1342,1362],"xSR":350,"ySR":768,"xT1":30,"yT1":0,"xT2":670,"yT2":0,"toosoon":0,"cond_shown":"randomdotsizeEA","ratio_trial":750,"smaller_num":"15","larger_num":"20","correct_side":2,"subjID":"47wm","gender":"No_gender","age":"No_age","school":"No_school"},{"start_time":1549382028334,"click_time":1549382028926,"finger_time":1549382028745,"fix_duration":348.24468799547867,"trial":12,"RT":411,"MT":181,"sideResp":2,"stimulus":"img/250/randomdotsize/R/4_Ratio_250_L_3_R_12.png","xmouse":[390,390,390,390,388.66668701171875,388.66668701171875,388.66668701171875,388.66668701171875,388.66668701171875,388.66668701171875,388.66668701171875,388.66668701171875,388.66668701171875,388.66668701171875,388.66668701171875,388.66668701171875,388.66668701171875,390,391.3333435058594,396,408,417.3333435058594,441.3333435058594,472,524,541.3333740234375,578,607.3333740234375,624,670.6666870117188],"ymouse":[814.0000610351562,814.0000610351562,814.0000610351562,814.0000610351562,814.6666870117188,814.6666870117188,814.6666870117188,814.6666870117188,814.6666870117188,814.6666870117188,814.6666870117188,814.6666870117188,814.6666870117188,814.6666870117188,813.3333740234375,813.3333740234375,813.3333740234375,811.3333740234375,809.3333740234375,798.6666870117188,761.3333740234375,736,678,604,465.3333435058594,416.66668701171875,320.66668701171875,236.6666717529297,195.33334350585938,70.66667175292969],"timestamp_mouse":[11,36,50,70,90,110,130,151,170,191,211,230,251,271,293,310,331,351,371,390,411,430,451,471,491,511,531,551,571,591],"xSR":350,"ySR":768,"xT1":30,"yT1":0,"xT2":670,"yT2":0,"toosoon":0,"cond_shown":"randomdotsize","ratio_trial":250,"smaller_num":"3","larger_num":"12","correct_side":2,"subjID":"47wm","gender":"No_gender","age":"No_age","school":"No_school"},{"start_time":1549382033699,"click_time":1549382034886,"finger_time":1549382034644,"fix_duration":713.1383492914002,"trial":13,"RT":945,"MT":242,"sideResp":2,"stimulus":"img/900/equaldotanddens/L/10_Ratio_900_L_20_R_18.png","xmouse":[386.66668701171875,386.66668701171875,386.66668701171875,386.66668701171875,386.66668701171875,386.66668701171875,386.66668701171875,386.66668701171875,386.66668701171875,386.66668701171875,386.66668701171875,386.66668701171875,386.66668701171875,386.66668701171875,386.66668701171875,386.66668701171875,386.66668701171875,386.66668701171875,386.66668701171875,386.66668701171875,386.66668701171875,386.66668701171875,386.66668701171875,386.66668701171875,387.3333435058594,387.3333435058594,387.3333435058594,386.66668701171875,386.66668701171875,386.66668701171875,386.66668701171875,386.66668701171875,386.66668701171875,386.66668701171875,386.66668701171875,386.66668701171875,386.66668701171875,386.66668701171875,386.66668701171875,386.66668701171875,386.66668701171875,386.66668701171875,386,386,386,386,386,444.66668701171875,497.3333435058594,532.6666870117188,562.6666870117188,577.3333740234375,606,642.6666870117188,665.3333740234375,674,688,695.3333740234375,698,698.6666870117188],"ymouse":[829.3333740234375,829.3333740234375,829.3333740234375,829.3333740234375,828.6666870117188,828.6666870117188,828.6666870117188,828.6666870117188,828.6666870117188,828.6666870117188,828.6666870117188,828.6666870117188,828.6666870117188,828.6666870117188,827.3333740234375,827.3333740234375,827.3333740234375,827.3333740234375,827.3333740234375,827.3333740234375,827.3333740234375,827.3333740234375,827.3333740234375,827.3333740234375,826,826,826,826,826,826,826,826,825.3333740234375,825.3333740234375,825.3333740234375,825.3333740234375,825.3333740234375,825.3333740234375,825.3333740234375,825.3333740234375,825.3333740234375,825.3333740234375,822,822,822,822,822,688.6666870117188,590.6666870117188,520.6666870117188,456.66668701171875,425.3333435058594,363.3333435058594,280,228,204,164,131.33334350585938,100,90],"timestamp_mouse":[5,29,45,66,86,106,126,146,165,185,205,226,246,265,286,305,325,345,365,386,406,425,446,466,485,505,526,546,566,586,605,626,645,665,685,705,726,746,765,786,806,825,846,866,886,906,925,945,967,986,1005,1026,1045,1066,1086,1106,1125,1145,1166,1187],"xSR":350,"ySR":768,"xT1":30,"yT1":0,"xT2":670,"yT2":0,"toosoon":0,"cond_shown":"equaldotanddens","ratio_trial":900,"smaller_num":"18","larger_num":"20","correct_side":1,"subjID":"47wm","gender":"No_gender","age":"No_age","school":"No_school"},{"start_time":1549382036275,"click_time":1549382037125,"finger_time":1549382036625,"fix_duration":289.345755607869,"trial":14,"RT":350,"MT":500,"sideResp":1,"stimulus":"img/900/equaldotsize/L/2_Ratio_900_L_20_R_18.png","xmouse":[411.3333435058594,412,412,411.3333435058594,411.3333435058594,411.3333435058594,411.3333435058594,411.3333435058594,411.3333435058594,411.3333435058594,410.66668701171875,410.66668701171875,410,409.3333435058594,406.66668701171875,402,400,395.3333435058594,390.66668701171875,387.3333435058594,372,366.66668701171875,354.66668701171875,348,334.66668701171875,314,299.3333435058594,292.66668701171875,282,271.3333435058594,255.33334350585938,250,238,228,222,198.6666717529297,193.33334350585938,178.6666717529297,172,138,138,124,118.66667175292969],"ymouse":[810,810,810,809.3333740234375,809.3333740234375,808,808,807.3333740234375,806.6666870117188,806,806,805.3333740234375,804.6666870117188,802.6666870117188,796,778,768,746.6666870117188,716,697.3333740234375,621.3333740234375,601.3333740234375,560.6666870117188,540,501.3333740234375,448.66668701171875,417.3333435058594,401.3333435058594,374.66668701171875,349.3333435058594,314,302.66668701171875,279.3333435058594,258.66668701171875,248,206.6666717529297,198.6666717529297,180,168,119.33334350585938,119.33334350585938,101.33333587646484,94],"timestamp_mouse":[13,40,49,69,89,110,129,149,169,189,210,230,250,269,290,309,329,349,370,390,411,430,450,469,490,510,529,549,569,589,610,630,650,670,689,711,730,749,770,805,809,829,850],"xSR":350,"ySR":768,"xT1":30,"yT1":0,"xT2":670,"yT2":0,"toosoon":0,"cond_shown":"equaldotsize","ratio_trial":900,"smaller_num":"18","larger_num":"20","correct_side":1,"subjID":"47wm","gender":"No_gender","age":"No_age","school":"No_school"},{"start_time":1549382038236,"click_time":1549382039104,"finger_time":1549382038944,"fix_duration":250,"trial":15,"RT":708,"MT":160,"sideResp":2,"stimulus":"img/250/randomdotsize/R/9_Ratio_250_L_3_R_12.png","xmouse":[382,382,382,382,382,382,382,382,382,382,382,382,382,381.3333435058594,381.3333435058594,381.3333435058594,381.3333435058594,381.3333435058594,381.3333435058594,381.3333435058594,381.3333435058594,381.3333435058594,381.3333435058594,381.3333435058594,381.3333435058594,381.3333435058594,381.3333435058594,381.3333435058594,381.3333435058594,381.3333435058594,381.3333435058594,381.3333435058594,381.3333435058594,385.3333435058594,399.3333435058594,428.66668701171875,446.66668701171875,489.3333435058594,554,594,612,645.3333740234375,686,710.6666870117188],"ymouse":[815.3333740234375,815.3333740234375,816,816,816,816,816,816,816,816,816,816,816,816,815.3333740234375,815.3333740234375,815.3333740234375,815.3333740234375,815.3333740234375,815.3333740234375,815.3333740234375,815.3333740234375,815.3333740234375,815.3333740234375,816,816,816,816,816,816,816,816,816,808.6666870117188,780.6666870117188,716,675.3333740234375,582.6666870117188,435.3333435058594,344.66668701171875,304,225.33334350585938,129.33334350585938,74.66667175292969],"timestamp_mouse":[10,30,49,69,88,108,129,148,168,189,208,229,248,268,288,308,329,349,368,389,408,429,449,469,488,509,528,548,569,589,608,629,648,669,689,708,729,749,769,788,809,828,851,868],"xSR":350,"ySR":768,"xT1":30,"yT1":0,"xT2":670,"yT2":0,"toosoon":0,"cond_shown":"randomdotsize","ratio_trial":250,"smaller_num":"3","larger_num":"12","correct_side":2,"subjID":"47wm","gender":"No_gender","age":"No_age","school":"No_school"},{"start_time":1549382041027,"click_time":1549382042326,"finger_time":1549382041924,"fix_duration":461.80548480578767,"trial":16,"RT":897,"MT":402,"sideResp":1,"stimulus":"img/500/randomdotsizeEA/L/13_Ratio_500_L_12_R_6.png","xmouse":[407.3333435058594,407.3333435058594,408,408.66668701171875,408.66668701171875,409.3333435058594,409.3333435058594,409.3333435058594,410,410,410.66668701171875,410.66668701171875,410.66668701171875,411.3333435058594,412,412,412,412,412.66668701171875,412.66668701171875,412.66668701171875,412.66668701171875,412.66668701171875,412,412,412,412,412,412,412,412,412,412,412,412,405.3333435058594,405.3333435058594,402,398.66668701171875,398,397.3333435058594,396.66668701171875,396,394.66668701171875,393.3333435058594,387.3333435058594,378,373.3333435058594,360,336.66668701171875,318.66668701171875,310,290,271.3333435058594,244,235.33334350585938,217.33334350585938,198.6666717529297,190,156.6666717529297,148,132,124.66667175292969,110,89.33333587646484],"ymouse":[829.3333740234375,829.3333740234375,830,831.3333740234375,832,833.3333740234375,834.6666870117188,835.3333740234375,836.6666870117188,837.3333740234375,838,838,838.6666870117188,839.3333740234375,840,840,841.3333740234375,841.3333740234375,842.6666870117188,843.3333740234375,844,844,844,843.3333129882812,843.3333129882812,842.6666870117188,842.6666870117188,842.6666870117188,842.6666870117188,842.6666870117188,842.6666870117188,842.6666870117188,842.6666870117188,842.6666870117188,842.6666870117188,828,828,821.3333740234375,814.6666870117188,809.3333740234375,806.6666870117188,801.3333740234375,796,780,765.3333740234375,730.6666870117188,696,678.6666870117188,642,581.3333740234375,538,516.6666870117188,472.66668701171875,430,366.66668701171875,348,310,274,256,190,174,145.33334350585938,131.33334350585938,107.33333587646484,74.66667175292969],"timestamp_mouse":[26,38,58,78,97,117,137,157,177,197,218,237,258,278,297,317,338,358,378,397,417,438,457,481,498,518,537,558,577,599,617,637,657,677,698,717,738,757,779,797,817,837,858,879,897,918,937,958,978,998,1017,1038,1057,1077,1099,1117,1138,1158,1177,1200,1217,1237,1257,1278,1299],"xSR":350,"ySR":768,"xT1":30,"yT1":0,"xT2":670,"yT2":0,"toosoon":0,"cond_shown":"randomdotsizeEA","ratio_trial":500,"smaller_num":"6","larger_num":"12","correct_side":1,"subjID":"47wm","gender":"No_gender","age":"No_age","school":"No_school"},{"start_time":1549382043907,"click_time":1549382045146,"finger_time":1549382044844,"fix_duration":301.6783233049365,"trial":17,"RT":937,"MT":302,"sideResp":2,"stimulus":"img/750/equaldotanddens/L/10_Ratio_750_L_4_R_3.png","xmouse":[402,402,404.66668701171875,406,406.66668701171875,409.3333435058594,410,410.66668701171875,411.3333435058594,411.3333435058594,411.3333435058594,411.3333435058594,411.3333435058594,411.3333435058594,411.3333435058594,410.66668701171875,410.66668701171875,410.66668701171875,410.66668701171875,410.66668701171875,410.66668701171875,410.66668701171875,410.66668701171875,410.66668701171875,410.66668701171875,410.66668701171875,410,410,410,410,410,410,410,410,410,410,408,408,408,408,408,408,408,408,408,408,448,475.3333435058594,491.3333435058594,527.3333740234375,546,608.6666870117188,621.3333740234375,642,648.6666870117188,656.6666870117188,663.3333740234375,665.3333740234375,666,668,669.3333740234375,671.3333740234375],"ymouse":[807.3333740234375,807.3333740234375,810,812,813.3333740234375,815.3333740234375,816,816.6666870117188,816.6666870117188,816.6666870117188,816.6666870117188,816.6666870117188,816.6666870117188,816.6666870117188,816.6666870117188,816.6666870117188,816,816,816,816,816,816,816,816,816,816,815.3333740234375,815.3333740234375,815.3333740234375,815.3333740234375,815.3333740234375,815.3333740234375,815.3333740234375,815.3333740234375,815.3333740234375,815.3333740234375,813.3333740234375,813.3333740234375,813.3333740234375,813.3333740234375,813.3333740234375,813.3333740234375,813.3333740234375,813.3333740234375,813.3333740234375,813.3333740234375,582.6666870117188,491.3333435058594,442.66668701171875,347.3333435058594,302,156.6666717529297,127.33334350585938,86,72,50,38,35.333335876464844,35.333335876464844,35.333335876464844,36,38],"timestamp_mouse":[33,38,57,77,97,119,138,158,178,197,218,237,257,277,298,317,337,357,377,398,418,438,458,478,498,518,539,557,578,597,617,638,658,678,698,717,739,757,777,797,817,838,858,878,898,918,937,958,978,997,1018,1037,1057,1077,1097,1117,1138,1158,1178,1197,1217,1238],"xSR":350,"ySR":768,"xT1":30,"yT1":0,"xT2":670,"yT2":0,"toosoon":0,"cond_shown":"equaldotanddens","ratio_trial":750,"smaller_num":"3","larger_num":"4","correct_side":1,"subjID":"47wm","gender":"No_gender","age":"No_age","school":"No_school"},{"start_time":1549382047184,"click_time":1549382048205,"finger_time":1549382047946,"fix_duration":839.7737054576796,"trial":18,"RT":762,"MT":259,"sideResp":1,"stimulus":"img/750/randomdotsizeEA/L/1_Ratio_750_L_20_R_15.png","xmouse":[389.3333435058594,389.3333435058594,389.3333435058594,389.3333435058594,389.3333435058594,389.3333435058594,389.3333435058594,389.3333435058594,389.3333435058594,392,392,392,392,392,392,392,392,392,392,392.66668701171875,392.66668701171875,392,392,391.3333435058594,390.66668701171875,390.66668701171875,390,390,390,389.3333435058594,388.66668701171875,388,388,386.66668701171875,385.3333435058594,384,380.66668701171875,372,349.3333435058594,340.66668701171875,319.3333435058594,293.3333435058594,279.3333435058594,252,214,192.6666717529297,182,162,142.6666717529297,118.66667175292969,112,100],"ymouse":[825.3333740234375,825.3333740234375,825.3333740234375,825.3333740234375,825.3333740234375,825.3333740234375,825.3333740234375,825.3333740234375,825.3333740234375,826,826,826,826,826,826,826,826,826,826,824.6666870117188,824.6666870117188,823.3333740234375,822.6666870117188,822,821.3333740234375,821.3333740234375,820.6666870117188,820.6666870117188,820.6666870117188,820.6666870117188,820,820,820,819.3333740234375,817.3333740234375,815.3333740234375,807.3333740234375,787.3333740234375,734,714,670,618,588,525.3333740234375,423.3333435058594,358,328.66668701171875,265.3333435058594,208.6666717529297,134.6666717529297,113.33334350585938,78.66667175292969],"timestamp_mouse":[3,28,41,61,81,101,120,140,160,180,201,220,240,261,280,300,321,340,362,381,401,420,440,462,481,500,520,540,560,580,600,620,640,662,680,701,721,740,762,781,801,820,840,861,881,900,920,941,960,981,1001,1020],"xSR":350,"ySR":768,"xT1":30,"yT1":0,"xT2":670,"yT2":0,"toosoon":0,"cond_shown":"randomdotsizeEA","ratio_trial":750,"smaller_num":"15","larger_num":"20","correct_side":1,"subjID":"47wm","gender":"No_gender","age":"No_age","school":"No_school"},{"start_time":1549382049874,"click_time":1549382051087,"finger_time":1549382050705,"fix_duration":527.3462353612388,"trial":19,"RT":831,"MT":382,"sideResp":2,"stimulus":"img/500/equaldotsize/R/12_Ratio_500_L_1_R_2.png","xmouse":[384,384,384,384,384,384,384,384,384,383.3333435058594,383.3333435058594,383.3333435058594,383.3333435058594,383.3333435058594,383.3333435058594,383.3333435058594,383.3333435058594,383.3333435058594,383.3333435058594,383.3333435058594,384,384,384,384,384,384,384,384,384,386.66668701171875,386.66668701171875,387.3333435058594,387.3333435058594,388,388.66668701171875,388.66668701171875,389.3333435058594,390,390.66668701171875,391.3333435058594,392,394.66668701171875,402.66668701171875,409.3333435058594,425.3333435058594,450.66668701171875,467.3333435058594,475.3333435058594,492,508.66668701171875,530.6666870117188,539.3333740234375,554,570,578.6666870117188,604,622.6666870117188,642,651.3333740234375,670,695.3333740234375],"ymouse":[808.6666870117188,808.6666870117188,808.6666870117188,808.6666870117188,808.6666870117188,808.6666870117188,808.6666870117188,808.6666870117188,808.6666870117188,808,808,808,808,808,808,808,808,808,808,808,804.6666870117188,804.6666870117188,804.6666870117188,804.6666870117188,804.6666870117188,804.6666870117188,804.6666870117188,804.6666870117188,804.6666870117188,790.6666870117188,788.6666870117188,787.3333740234375,786.6666870117188,784.6666870117188,782,780,779.3333740234375,777.3333740234375,775.3333740234375,771.3333740234375,769.3333740234375,761.3333740234375,737.3333740234375,718.6666870117188,676.6666870117188,618.6666870117188,581.3333740234375,564,529.3333740234375,494,446,426,392,356.66668701171875,336.66668701171875,282.66668701171875,246,208,188.6666717529297,151.33334350585938,99.33333587646484],"timestamp_mouse":[11,30,51,70,91,110,131,151,171,192,210,230,251,271,290,311,330,351,371,390,411,431,451,471,490,511,531,550,571,591,610,631,650,670,692,710,730,750,771,793,810,831,851,871,890,911,930,951,971,991,1012,1031,1050,1071,1090,1112,1131,1151,1171,1191,1212],"xSR":350,"ySR":768,"xT1":30,"yT1":0,"xT2":670,"yT2":0,"toosoon":0,"cond_shown":"equaldotsize","ratio_trial":500,"smaller_num":"1","larger_num":"2","correct_side":2,"subjID":"47wm","gender":"No_gender","age":"No_age","school":"No_school"},{"start_time":1549382052437,"click_time":1549382053506,"finger_time":1549382053205,"fix_duration":250,"trial":20,"RT":768,"MT":301,"sideResp":1,"stimulus":"img/750/equaldotsize/L/10_Ratio_750_L_4_R_3.png","xmouse":[379.3333435058594,379.3333435058594,379.3333435058594,379.3333435058594,379.3333435058594,381.3333435058594,381.3333435058594,381.3333435058594,381.3333435058594,381.3333435058594,381.3333435058594,381.3333435058594,382,382,382,382,382,382,382,382.66668701171875,382.66668701171875,382.66668701171875,382.66668701171875,382.66668701171875,382.66668701171875,382.66668701171875,382.66668701171875,382.66668701171875,382.0000305175781,380.66668701171875,380.66668701171875,379.3333435058594,378.66668701171875,378.66668701171875,378.66668701171875,378.66668701171875,376,376,366.66668701171875,360,343.3333435058594,333.3333435058594,314.66668701171875,292.66668701171875,269.3333435058594,246,220.6666717529297,198,168,159.33334350585938,142.6666717529297,128,120.66667175292969,100.66667175292969],"ymouse":[823.3333740234375,823.3333740234375,823.3333740234375,823.3333740234375,823.3333740234375,822.0000610351562,822.0000610351562,822.0000610351562,822.0000610351562,822.0000610351562,822.0000610351562,822.0000610351562,821.3333740234375,821.3333740234375,821.3333740234375,821.3333740234375,821.3333740234375,821.3333740234375,821.3333740234375,821.3333740234375,820.6666870117188,820.6666870117188,820.6666870117188,820.6666870117188,820.6666870117188,820.6666870117188,811.3333740234375,811.3333740234375,807.3333740234375,803.3333740234375,803.3333740234375,799.3333740234375,797.3333740234375,797.3333740234375,797.3333740234375,797.3333740234375,780,780,734,716,670,644.6666870117188,592,534.6666870117188,476.66668701171875,420,363.3333435058594,313.3333435058594,244.66668701171875,222.6666717529297,180.6666717529297,143.33334350585938,126.66667175292969,72.66667175292969],"timestamp_mouse":[10,28,49,68,88,107,127,148,167,187,208,227,247,268,287,308,328,347,367,387,408,428,448,468,488,507,528,548,568,588,607,627,651,668,688,707,727,747,768,787,807,827,848,874,887,908,927,947,967,988,1007,1028,1047,1069],"xSR":350,"ySR":768,"xT1":30,"yT1":0,"xT2":670,"yT2":0,"toosoon":0,"cond_shown":"equaldotsize","ratio_trial":750,"smaller_num":"3","larger_num":"4","correct_side":1,"subjID":"47wm","gender":"No_gender","age":"No_age","school":"No_school"},{"start_time":1549382054917,"click_time":1549382055785,"finger_time":1549382055385,"fix_duration":491.7680093917064,"trial":21,"RT":468,"MT":400,"sideResp":2,"stimulus":"img/750/equaldotsize/L/9_Ratio_750_L_4_R_3.png","xmouse":[408,406.66668701171875,406.66668701171875,406.66668701171875,406.66668701171875,406.66668701171875,406.66668701171875,406.66668701171875,406.66668701171875,406.66668701171875,406.66668701171875,404.66668701171875,404.66668701171875,404.66668701171875,404.66668701171875,404.66668701171875,404.66668701171875,404.66668701171875,404.66668701171875,404.66668701171875,404.66668701171875,409.3333435058594,409.3333435058594,424,448,467.3333435058594,477.3333435058594,498,517.3333740234375,544,552.6666870117188,569.3333740234375,584.6666870117188,592,606,623.3333740234375,632,636.6666870117188,644,650,658,660.6666870117188,668.6666870117188,680.6666870117188],"ymouse":[832,828,828,828,828,828,828,828,828,828,828,825.3333129882812,825.3333129882812,825.3333129882812,825.3333129882812,825.3333129882812,825.3333129882812,825.3333129882812,825.3333129882812,825.3333129882812,825.3333129882812,802,802,752.6666870117188,676.6666870117188,625.3333740234375,599.3333740234375,542.6666870117188,488,416,390,345.3333435058594,304.66668701171875,284.66668701171875,249.33334350585938,204.6666717529297,178.6666717529297,166.6666717529297,144,124.66667175292969,96.66667175292969,88.66667175292969,68.66667175292969,44.66666793823242],"timestamp_mouse":[11,39,47,68,88,108,127,147,167,187,207,227,247,268,288,308,327,347,368,388,408,427,447,468,489,507,527,548,567,589,608,627,647,668,688,708,728,748,767,787,808,828,848,868],"xSR":350,"ySR":768,"xT1":30,"yT1":0,"xT2":670,"yT2":0,"toosoon":0,"cond_shown":"equaldotsize","ratio_trial":750,"smaller_num":"3","larger_num":"4","correct_side":1,"subjID":"47wm","gender":"No_gender","age":"No_age","school":"No_school"},{"start_time":1549382065005,"click_time":1549382066425,"finger_time":1549382065887,"fix_duration":799.8720747513197,"trial":22,"RT":882,"MT":538,"sideResp":2,"stimulus":"img/750/randomdotsizeEA/R/12_Ratio_750_L_3_R_4.png","xmouse":[386.66668701171875,386.66668701171875,386.66668701171875,386.66668701171875,386,386,386,386,386,386,386,386,386,386,385.3333435058594,385.3333435058594,385.3333435058594,385.3333435058594,385.3333435058594,385.3333435058594,385.3333435058594,385.3333435058594,385.3333435058594,385.3333435058594,384,384,384,384,384,384,384,384,384,384,383.3333435058594,383.3333435058594,383.3333435058594,383.3333435058594,383.3333435058594,383.3333435058594,383.3333435058594,383.3333435058594,383.3333435058594,386,438.66668701171875,459.3333435058594,507.3333435058594,560.6666870117188,588.6666870117188,662.6666870117188,700,734.6666870117188,752,777.3333740234375,794,799.3333740234375,799.3333740234375,799.3333740234375,799.3333740234375,799.3333740234375,798.6666870117188,796.6666870117188,796.6666870117188,796.6666870117188,796.6666870117188,784.6666870117188,781.3333740234375,779.3333740234375,779.3333740234375,779.3333740234375,779.3333740234375,762.6666870117188],"ymouse":[820,820,820,820,818.6666870117188,818.6666870117188,818.6666870117188,818.6666870117188,818.6666870117188,818.6666870117188,818.6666870117188,818.6666870117188,818.6666870117188,818.6666870117188,822,822,822,822,822,822,822,822,822,822,820,820,820,820,820,820,820,820,820,820,819.3333740234375,819.3333740234375,819.3333740234375,819.3333740234375,819.3333740234375,819.3333740234375,819.3333740234375,819.3333740234375,819.3333740234375,808.6666870117188,678.6666870117188,632.6666870117188,544.6666870117188,458.66668701171875,419.3333435058594,320,270.66668701171875,222,198.6666717529297,161.33334350585938,118.66667175292969,102,97.33333587646484,87.33333587646484,82.66667175292969,61.333335876464844,49.333335876464844,33.333335876464844,33.333335876464844,33.333335876464844,33.333335876464844,16.666667938232422,15.333333969116211,15.333333969116211,15.333333969116211,15.333333969116211,15.333333969116211,25.33333396911621],"timestamp_mouse":[2,26,40,59,79,100,119,140,159,180,200,220,240,260,279,300,319,340,359,380,399,420,439,460,480,500,520,540,559,579,600,619,639,659,679,700,720,739,760,779,799,819,839,860,882,899,920,939,959,981,999,1020,1039,1060,1080,1100,1119,1139,1160,1181,1200,1219,1239,1259,1280,1300,1320,1339,1359,1379,1399,1420],"xSR":350,"ySR":768,"xT1":30,"yT1":0,"xT2":670,"yT2":0,"toosoon":0,"cond_shown":"randomdotsizeEA","ratio_trial":750,"smaller_num":"3","larger_num":"4","correct_side":2,"subjID":"47wm","gender":"No_gender","age":"No_age","school":"No_school"},{"start_time":1549382075521,"click_time":1549382076505,"finger_time":1549382076244,"fix_duration":770.9724332548458,"trial":23,"RT":723,"MT":261,"sideResp":1,"stimulus":"img/750/equaldotanddens/L/13_Ratio_750_L_8_R_6.png","xmouse":[418.66668701171875,419.3333435058594,419.3333435058594,419.3333435058594,419.3333435058594,419.3333435058594,420,420,420,420,419.3333435058594,419.3333435058594,419.3333435058594,419.3333435058594,419.3333435058594,419.3333435058594,419.3333435058594,419.3333435058594,419.3333435058594,419.3333435058594,417.3333435058594,417.3333435058594,417.3333435058594,417.3333435058594,417.3333435058594,417.3333435058594,417.3333435058594,417.3333435058594,417.3333435058594,417.3333435058594,410.66668701171875,410.66668701171875,410.66668701171875,400,391.3333435058594,384.66668701171875,368.66668701171875,330,304.66668701171875,292.66668701171875,274,265.3333435058594,234,225.33334350585938,207.33334350585938,198.6666717529297,179.33334350585938,152,133.33334350585938,115.33333587646484],"ymouse":[820.6666870117188,820,820,819.3333740234375,819.3333740234375,818.6666870117188,818.6666870117188,818.6666870117188,818,818,816.6666870117188,816.6666870117188,816.6666870117188,816.6666870117188,816.6666870117188,816.6666870117188,816.6666870117188,816.6666870117188,816.6666870117188,816.6666870117188,813.3333129882812,813.3333129882812,813.3333129882812,813.3333129882812,813.3333129882812,813.3333129882812,813.3333129882812,813.3333129882812,813.3333129882812,813.3333129882812,805.3333740234375,805.3333740234375,805.3333740234375,798,789.3333740234375,777.3333740234375,744.6666870117188,688.6666870117188,645.3333740234375,619.3333740234375,558,523.3333740234375,386,355.3333435058594,292,260,202,132,96.66667175292969,70.66667175292969],"timestamp_mouse":[3,39,44,63,83,103,123,144,163,184,203,223,245,264,284,303,323,344,364,383,404,424,444,463,483,504,524,544,564,583,603,624,645,664,684,704,723,743,763,783,803,823,844,864,884,903,924,944,964,983],"xSR":350,"ySR":768,"xT1":30,"yT1":0,"xT2":670,"yT2":0,"toosoon":0,"cond_shown":"equaldotanddens","ratio_trial":750,"smaller_num":"6","larger_num":"8","correct_side":1,"subjID":"47wm","gender":"No_gender","age":"No_age","school":"No_school"},{"start_time":1549382078930,"click_time":1549382080087,"finger_time":1549382079724,"fix_duration":1043.0185895509167,"trial":24,"RT":794,"MT":363,"sideResp":1,"stimulus":"img/500/randomdotsize/L/13_Ratio_500_L_12_R_6.png","xmouse":[380,380,380,378.66668701171875,378.66668701171875,378.66668701171875,378.66668701171875,378.66668701171875,378.66668701171875,378.66668701171875,378.66668701171875,378.66668701171875,378.66668701171875,378.66668701171875,378.66668701171875,378.66668701171875,378.66668701171875,378.66668701171875,378.66668701171875,378.66668701171875,378.66668701171875,378.66668701171875,374.66668701171875,374.66668701171875,374.66668701171875,374.66668701171875,374.66668701171875,374.66668701171875,374.66668701171875,374.66668701171875,374.66668701171875,374.66668701171875,375.3333435058594,375.3333435058594,375.3333435058594,375.3333435058594,375.3333435058594,363.3333435058594,354.66668701171875,331.3333435058594,307.3333435058594,272,260.66668701171875,240,220,210,181.33334350585938,163.33334350585938,148.6666717529297,141.33334350585938,128.6666717529297,113.33333587646484,105.33333587646484,101.33333587646484,96,94,92],"ymouse":[812,812,812,811.3333129882812,811.3333129882812,811.3333129882812,811.3333129882812,811.3333129882812,811.3333129882812,811.3333129882812,811.3333129882812,811.3333129882812,811.3333129882812,814.6666870117188,814.6666870117188,814.6666870117188,814.6666870117188,814.6666870117188,814.6666870117188,814.6666870117188,814.6666870117188,814.6666870117188,812.6666870117188,812.6666870117188,812.6666870117188,812.6666870117188,812.6666870117188,812.6666870117188,812.6666870117188,812.6666870117188,812.6666870117188,812.6666870117188,806.6666870117188,806.6666870117188,806.6666870117188,806.6666870117188,806.6666870117188,782.6666870117188,762,714.6666870117188,668.6666870117188,602,579.3333740234375,531.3333740234375,479.3333435058594,456,380,331.3333435058594,284.66668701171875,263.3333435058594,222.6666717529297,170.6666717529297,140.6666717529297,128.6666717529297,110.66667175292969,100,90],"timestamp_mouse":[15,34,55,74,94,114,135,156,175,194,215,235,255,275,294,314,378,378,394,415,435,455,474,495,514,534,554,574,594,615,635,656,676,694,715,735,755,774,794,814,835,855,875,895,914,934,956,975,995,1014,1035,1057,1074,1094,1115,1135,1157],"xSR":350,"ySR":768,"xT1":30,"yT1":0,"xT2":670,"yT2":0,"toosoon":0,"cond_shown":"randomdotsize","ratio_trial":500,"smaller_num":"6","larger_num":"12","correct_side":1,"subjID":"47wm","gender":"No_gender","age":"No_age","school":"No_school"},{"start_time":1549382081436,"click_time":1549382082525,"finger_time":1549382081924,"fix_duration":510.9126092695025,"trial":25,"RT":488,"MT":601,"sideResp":2,"stimulus":"img/900/randomdotsize/L/8_Ratio_900_L_20_R_18.png","xmouse":[388,388,389.3333435058594,389.3333435058594,389.3333435058594,389.3333435058594,389.3333435058594,389.3333435058594,389.3333435058594,389.3333435058594,389.3333435058594,389.3333435058594,388.66668701171875,388.66668701171875,388.66668701171875,388.66668701171875,388.66668701171875,388.66668701171875,388.66668701171875,388.66668701171875,388.66668701171875,390.66668701171875,390,389.3333435058594,390.66668701171875,390.66668701171875,403.3333435058594,414.66668701171875,433.3333435058594,440,457.3333435058594,477.3333435058594,511.3333435058594,521.3333740234375,546,569.3333740234375,579.3333740234375,598.6666870117188,622,632.6666870117188,636.6666870117188,644,648.6666870117188,653.3333740234375,654.6666870117188,657.3333740234375,659.3333740234375,660,662,663.3333740234375,664.6666870117188,664.6666870117188,666,668.6666870117188,671.3333740234375],"ymouse":[802,802,800,800,800,800,800,800,800,800,800,800,799.3333740234375,799.3333740234375,799.3333740234375,799.3333740234375,799.3333740234375,799.3333740234375,799.3333740234375,799.3333740234375,799.3333740234375,789.3333740234375,783.3333740234375,778,762.6666870117188,762.6666870117188,709.3333740234375,666,598.6666870117188,574.6666870117188,526,475.3333435058594,393.3333435058594,370,318.66668701171875,266.66668701171875,242,193.33334350585938,135.33334350585938,108,98,82.66667175292969,71.33333587646484,62.66667175292969,60,55.333335876464844,52.66667175292969,51.333335876464844,50.66667175292969,50.66667175292969,50.66667175292969,50.66667175292969,50.66667175292969,51.333335876464844,51.333335876464844],"timestamp_mouse":[10,32,50,69,89,109,128,148,169,189,209,229,250,269,288,309,329,349,369,388,408,429,448,468,488,509,529,548,570,588,609,629,651,669,688,708,728,749,769,789,808,828,849,869,888,909,928,948,969,988,1009,1028,1049,1072,1089],"xSR":350,"ySR":768,"xT1":30,"yT1":0,"xT2":670,"yT2":0,"toosoon":0,"cond_shown":"randomdotsize","ratio_trial":900,"smaller_num":"18","larger_num":"20","correct_side":1,"subjID":"47wm","gender":"No_gender","age":"No_age","school":"No_school"},{"start_time":1549382087669,"click_time":1549382088845,"finger_time":1549382088585,"fix_duration":883.3707388463691,"trial":26,"RT":916,"MT":260,"sideResp":1,"stimulus":"img/900/randomdotsize/L/1_Ratio_900_L_10_R_9.png","xmouse":[401.3333435058594,401.3333435058594,401.3333435058594,402,401.3333435058594,401.3333435058594,401.3333435058594,402,402,402,401.3333435058594,401.3333435058594,401.3333435058594,401.3333435058594,401.3333435058594,401.3333435058594,401.3333435058594,401.3333435058594,401.3333435058594,401.3333435058594,401.3333435058594,401.3333435058594,401.3333435058594,401.3333435058594,400.66668701171875,400.66668701171875,400.66668701171875,400,400,399.3333435058594,399.3333435058594,398.66668701171875,397.3333435058594,394.66668701171875,393.3333435058594,393.3333435058594,393.3333435058594,393.3333435058594,393.3333435058594,393.3333435058594,393.3333435058594,393.3333435058594,393.3333435058594,393.3333435058594,386.66668701171875,377.3333435058594,368.66668701171875,345.3333435058594,299.3333435058594,267.3333435058594,250.6666717529297,219.33334350585938,191.33334350585938,155.33334350585938,134.6666717529297,124.66667175292969,107.33333587646484,100,88.66667175292969],"ymouse":[819.3333740234375,819.3333740234375,819.3333740234375,818.6666870117188,818.6666870117188,818,818,817.3333740234375,817.3333740234375,816.6666870117188,816,816,816,814.6666870117188,814.6666870117188,814,814,814,813.3333740234375,813.3333740234375,812.6666870117188,812,812,810.6666870117188,810,809.3333740234375,808.6666870117188,808.6666870117188,807.3333740234375,806.6666870117188,806,805.3333740234375,804.6666870117188,804.6666870117188,804.6666870117188,804.6666870117188,804.6666870117188,804.6666870117188,804.6666870117188,804.6666870117188,804.6666870117188,804.6666870117188,804.6666870117188,804.6666870117188,789.3333740234375,754,732,686.6666870117188,617.3333740234375,563.3333740234375,533.3333740234375,468,400.66668701171875,290.66668701171875,225.33334350585938,194,137.33334350585938,112,67.33333587646484],"timestamp_mouse":[16,37,56,75,96,115,135,156,176,196,215,236,255,275,296,317,336,357,375,396,416,435,455,475,495,516,535,555,576,597,615,635,655,677,695,716,736,755,776,796,816,835,856,876,896,916,935,956,976,995,1016,1035,1055,1075,1096,1115,1136,1156,1176],"xSR":350,"ySR":768,"xT1":30,"yT1":0,"xT2":670,"yT2":0,"toosoon":0,"cond_shown":"randomdotsize","ratio_trial":900,"smaller_num":"9","larger_num":"10","correct_side":1,"subjID":"47wm","gender":"No_gender","age":"No_age","school":"No_school"},{"start_time":1549382090620,"click_time":1549382091645,"finger_time":1549382091304,"fix_duration":894.7672168999095,"trial":27,"RT":684,"MT":341,"sideResp":2,"stimulus":"img/900/randomdotsize/L/2_Ratio_900_L_20_R_18.png","xmouse":[404.6666564941406,404.6666564941406,404.6666564941406,404.6666564941406,404.6666564941406,404.6666564941406,404.6666564941406,404.6666564941406,404.6666564941406,404,404,404,404,404,404,404,404,404,404.6666564941406,405.3333435058594,405.3333435058594,405.3333435058594,405.3333435058594,405.3333435058594,405.3333435058594,405.3333435058594,405.3333435058594,405.3333435058594,405.3333435058594,405.3333435058594,406,406,407.3333435058594,407.3333435058594,432.66668701171875,451.3333435058594,471.3333435058594,500,508.66668701171875,525.3333740234375,538.6666870117188,545.3333740234375,564,576.6666870117188,587.3333740234375,593.3333740234375,606.6666870117188,626.6666870117188,641.3333740234375,648.6666870117188,662,673.3333740234375],"ymouse":[812,812,812,812,812,812,812,812,812,807.3333129882812,807.3333129882812,807.3333129882812,807.3333129882812,807.3333129882812,807.3333129882812,807.3333129882812,807.3333129882812,807.3333129882812,801.3333740234375,800.6666870117188,799.3333740234375,798.6666870117188,796.6666870117188,796,795.3333740234375,794.6666870117188,794,794,793.3333740234375,793.3333740234375,792,792,789.3333740234375,789.3333740234375,718.6666870117188,671.3333740234375,623.3333740234375,548,523.3333740234375,474.66668701171875,428,404,337.3333435058594,293.3333435058594,252.66668701171875,232.6666717529297,194,137.33334350585938,102.66667175292969,87.33333587646484,65.33333587646484,46],"timestamp_mouse":[5,30,44,65,84,105,124,145,164,185,205,224,244,264,284,305,326,344,365,384,405,424,445,464,485,505,525,545,565,585,604,625,645,665,684,704,724,745,764,784,804,824,845,864,884,905,924,945,964,984,1004,1024],"xSR":350,"ySR":768,"xT1":30,"yT1":0,"xT2":670,"yT2":0,"toosoon":0,"cond_shown":"randomdotsize","ratio_trial":900,"smaller_num":"18","larger_num":"20","correct_side":1,"subjID":"47wm","gender":"No_gender","age":"No_age","school":"No_school"},{"start_time":1549382097624,"click_time":1549382098645,"finger_time":1549382098406,"fix_duration":377.2614050661356,"trial":28,"RT":782,"MT":239,"sideResp":1,"stimulus":"img/900/equaldotanddens/L/2_Ratio_900_L_20_R_18.png","xmouse":[410,410,410,410,408.66668701171875,408.66668701171875,408.66668701171875,408.66668701171875,408.66668701171875,408.66668701171875,408.66668701171875,405.3333435058594,405.3333435058594,405.3333435058594,407.3333435058594,407.3333435058594,407.3333435058594,407.3333435058594,407.3333435058594,407.3333435058594,407.3333435058594,407.3333435058594,407.3333435058594,407.3333435058594,405.3333435058594,405.3333435058594,405.3333435058594,405.3333435058594,405.3333435058594,405.3333435058594,405.3333435058594,403.3333435058594,402.66668701171875,402,402,401.3333435058594,398,398,398,374.66668701171875,356,341.3333435058594,312.66668701171875,296.66668701171875,257.3333435058594,244,212,201.33334350585938,181.33334350585938,170.6666717529297,135.33334350585938,128],"ymouse":[838,838,838,838,831.3333740234375,831.3333740234375,831.3333740234375,831.3333740234375,831.3333740234375,831.3333740234375,831.3333740234375,828.6666870117188,828.6666870117188,828.6666870117188,829.3333740234375,829.3333740234375,829.3333740234375,829.3333740234375,829.3333740234375,829.3333740234375,829.3333740234375,829.3333740234375,829.3333740234375,829.3333740234375,823.3333740234375,823.3333740234375,823.3333740234375,823.3333740234375,823.3333740234375,823.3333740234375,823.3333740234375,820.6666870117188,820,819.3333740234375,817.3333740234375,814.6666870117188,800.6666870117188,800.6666870117188,800.6666870117188,652,597.3333740234375,570,518,488,391.3333435058594,356,263.3333435058594,234,184,162.6666717529297,102,91.33333587646484],"timestamp_mouse":[1,29,41,60,81,100,121,140,160,180,200,220,240,261,280,301,320,341,360,380,401,420,441,460,480,500,520,541,561,580,600,620,641,661,682,700,721,741,760,782,801,820,840,860,883,900,920,941,961,981,1000,1020],"xSR":350,"ySR":768,"xT1":30,"yT1":0,"xT2":670,"yT2":0,"toosoon":0,"cond_shown":"equaldotanddens","ratio_trial":900,"smaller_num":"18","larger_num":"20","correct_side":1,"subjID":"47wm","gender":"No_gender","age":"No_age","school":"No_school"},{"start_time":1549382100206,"click_time":1549382101185,"finger_time":1549382100805,"fix_duration":580.2380364648882,"trial":29,"RT":599,"MT":380,"sideResp":1,"stimulus":"img/500/randomdotsize/L/13_Ratio_500_L_12_R_6.png","xmouse":[400,400,400,404.66668701171875,404.66668701171875,404.66668701171875,404.66668701171875,404.66668701171875,404.66668701171875,404.66668701171875,404.66668701171875,404.66668701171875,404.66668701171875,406.66668701171875,406.66668701171875,406.66668701171875,406.66668701171875,406.66668701171875,406.66668701171875,406.66668701171875,405.3333435058594,404.66668701171875,403.3333435058594,402,402,402,404,411.3333435058594,416.66668701171875,422.66668701171875,427.3333435058594,428,428,427.3333435058594,425.3333435058594,424,398,386.66668701171875,364,352.66668701171875,328,288.66668701171875,261.3333435058594,247.33334350585938,218.6666717529297,192,155.33334350585938,144.6666717529297,124.66667175292969],"ymouse":[838.6666870117188,838.6666870117188,838.6666870117188,841.3333129882812,841.3333129882812,841.3333129882812,841.3333129882812,841.3333129882812,841.3333129882812,841.3333129882812,841.3333129882812,841.3333129882812,841.3333129882812,839.3333129882812,839.3333129882812,839.3333129882812,839.3333129882812,839.3333129882812,839.3333129882812,839.3333129882812,837.3333740234375,836.6666870117188,836,834.6666870117188,834,832,827.3333740234375,804,784,756.6666870117188,725.3333740234375,710,705.3333740234375,696,685.3333740234375,678.6666870117188,630,612.6666870117188,571.3333740234375,546.6666870117188,490.66668701171875,390.66668701171875,320,284,218,158,82.66667175292969,60.66667175292969,25.333335876464844],"timestamp_mouse":[29,38,59,78,99,119,138,159,179,199,219,239,259,278,298,319,339,358,379,398,419,438,459,478,498,519,538,558,579,599,619,638,658,678,698,718,741,759,778,799,818,838,858,879,898,919,939,958,979],"xSR":350,"ySR":768,"xT1":30,"yT1":0,"xT2":670,"yT2":0,"toosoon":0,"cond_shown":"randomdotsize","ratio_trial":500,"smaller_num":"6","larger_num":"12","correct_side":1,"subjID":"47wm","gender":"No_gender","age":"No_age","school":"No_school"},{"start_time":1549382103704,"click_time":1549382104605,"finger_time":1549382104325,"fix_duration":1479.469455154137,"trial":30,"RT":621,"MT":280,"sideResp":1,"stimulus":"img/750/equaldotsize/L/8_Ratio_750_L_4_R_3.png","xmouse":[387.3333435058594,387.3333435058594,387.3333435058594,386,386,386,386,386,386,386,386,386,386,380.66668701171875,380.66668701171875,380.66668701171875,380.66668701171875,380.66668701171875,378.66668701171875,378.66668701171875,378.66668701171875,378.66668701171875,378.66668701171875,378.66668701171875,379.3333435058594,379.3333435058594,380,380.66668701171875,380.66668701171875,380,378.66668701171875,376,374,356.66668701171875,334,313.3333435058594,304,284,251.33334350585938,226,212,186.6666717529297,162,128.6666717529297,118.66667175292969,102],"ymouse":[798.0000610351562,798.0000610351562,798.0000610351562,804.6666870117188,804.6666870117188,804.6666870117188,804.6666870117188,804.6666870117188,804.6666870117188,804.6666870117188,804.6666870117188,804.6666870117188,804.6666870117188,801.3333740234375,801.3333740234375,801.3333740234375,801.3333740234375,801.3333740234375,796,796,796,795.3333740234375,795.3333740234375,794.6666870117188,793.3333740234375,792,789.3333740234375,783.3333740234375,776.6666870117188,773.3333740234375,768,764,762,748,715.3333740234375,660,627.3333740234375,554.6666870117188,445.3333435058594,378,346,287.3333435058594,230.6666717529297,149.33334350585938,124.66667175292969,80.66667175292969],"timestamp_mouse":[3,31,41,61,80,100,121,141,160,180,200,221,240,260,281,301,320,341,360,380,401,421,441,461,480,501,520,542,560,580,600,621,641,663,681,700,721,741,761,781,800,820,841,861,880,901],"xSR":350,"ySR":768,"xT1":30,"yT1":0,"xT2":670,"yT2":0,"toosoon":0,"cond_shown":"equaldotsize","ratio_trial":750,"smaller_num":"3","larger_num":"4","correct_side":1,"subjID":"47wm","gender":"No_gender","age":"No_age","school":"No_school"},{"start_time":1549382107313,"click_time":1549382108387,"finger_time":1549382107865,"fix_duration":1187.5125173169608,"trial":31,"RT":552,"MT":522,"sideResp":1,"stimulus":"img/500/equaldotsize/L/7_Ratio_500_L_10_R_5.png","xmouse":[398,398,398,398,398,398,398.0000305175781,398.0000305175781,398.0000305175781,398.0000305175781,398.0000305175781,398.0000305175781,398.0000305175781,398.0000305175781,398.0000305175781,398.0000305175781,397.3333435058594,397.3333435058594,397.3333435058594,397.3333435058594,397.3333435058594,397.3333435058594,397.3333435058594,395.3333435058594,395.3333435058594,394.66668701171875,393.3333435058594,392,389.3333435058594,386.66668701171875,383.3333435058594,380.66668701171875,376,368.66668701171875,363.3333435058594,361.3333435058594,357.3333435058594,352.66668701171875,344,339.3333435058594,325.3333435058594,308,297.3333435058594,264,238,214,202.6666717529297,181.33334350585938,147.33334350585938,125.33334350585938,113.33333587646484,93.33333587646484,80.66667175292969,66],"ymouse":[807.3333740234375,807.3333740234375,807.3333740234375,807.3333740234375,807.3333740234375,807.3333740234375,804.0000610351562,804.0000610351562,804.0000610351562,804.0000610351562,804.0000610351562,804.0000610351562,804.0000610351562,804.0000610351562,804.0000610351562,804.0000610351562,798.0000610351562,798.0000610351562,798.0000610351562,798.0000610351562,798.0000610351562,798.0000610351562,798.0000610351562,786,784,776.6666870117188,768.6666870117188,765.3333740234375,754.6666870117188,748.6666870117188,743.3333740234375,740.6666870117188,735.3333740234375,726,718.6666870117188,715.3333740234375,707.3333740234375,695.3333740234375,660,643.3333740234375,609.3333740234375,576.6666870117188,559.3333740234375,504,462.66668701171875,415.3333435058594,393.3333435058594,341.3333435058594,264.66668701171875,218,194,150,107.33333587646484,57.333335876464844],"timestamp_mouse":[12,36,51,72,92,111,132,152,171,192,212,232,251,271,291,311,331,351,373,392,412,431,451,472,492,512,531,552,571,592,611,632,652,671,691,711,732,752,774,791,811,831,852,874,891,911,931,951,973,992,1012,1031,1051,1074],"xSR":350,"ySR":768,"xT1":30,"yT1":0,"xT2":670,"yT2":0,"toosoon":0,"cond_shown":"equaldotsize","ratio_trial":500,"smaller_num":"5","larger_num":"10","correct_side":1,"subjID":"47wm","gender":"No_gender","age":"No_age","school":"No_school"},{"start_time":1549382109666,"click_time":1549382110784,"finger_time":1549382110544,"fix_duration":280.093806632015,"trial":32,"RT":878,"MT":240,"sideResp":2,"stimulus":"img/750/randomdotsizeEA/R/11_Ratio_750_L_12_R_16.png","xmouse":[395.3333435058594,395.3333435058594,395.3333435058594,395.3333435058594,394.66668701171875,394.66668701171875,394.66668701171875,394.66668701171875,394.66668701171875,394.66668701171875,394.66668701171875,394.66668701171875,394.66668701171875,394.66668701171875,394.66668701171875,394.66668701171875,394.66668701171875,394.66668701171875,394.66668701171875,394.66668701171875,394.66668701171875,394.66668701171875,394.66668701171875,394.66668701171875,393.3333435058594,393.3333435058594,393.3333435058594,393.3333435058594,393.3333435058594,393.3333435058594,393.3333435058594,393.3333435058594,393.3333435058594,393.3333435058594,392,392,392,392,392,392,392,392,392,419.3333435058594,438.66668701171875,460,495.3333435058594,510,540.6666870117188,571.3333740234375,586,622.6666870117188,653.3333740234375,686.6666870117188,704.6666870117188,741.3333740234375],"ymouse":[814,814,813.3333129882812,813.3333129882812,813.3333129882812,813.3333129882812,813.3333129882812,813.3333129882812,813.3333129882812,813.3333129882812,813.3333129882812,813.3333129882812,813.3333129882812,813.3333129882812,812,812,812,812,812,812,812,812,812,812,811.3333129882812,811.3333129882812,811.3333129882812,811.3333129882812,811.3333129882812,811.3333129882812,811.3333129882812,811.3333129882812,811.3333129882812,811.3333129882812,810,810,810,810,810,810,810,810,810,734.6666870117188,677.3333740234375,618.6666870117188,526,491.3333435058594,424,364.66668701171875,334,256.66668701171875,198,141.33334350585938,113.33334350585938,60.66667175292969],"timestamp_mouse":[33,38,59,79,98,119,138,158,178,198,219,239,259,278,298,319,338,359,378,398,419,439,459,478,498,519,539,559,579,599,618,638,659,678,699,718,740,758,779,799,820,841,858,878,899,919,939,959,978,998,1018,1039,1059,1078,1099,1118],"xSR":350,"ySR":768,"xT1":30,"yT1":0,"xT2":670,"yT2":0,"toosoon":0,"cond_shown":"randomdotsizeEA","ratio_trial":750,"smaller_num":"12","larger_num":"16","correct_side":2,"subjID":"47wm","gender":"No_gender","age":"No_age","school":"No_school"},{"start_time":1549382112097,"click_time":1549382112965,"finger_time":1549382112706,"fix_duration":250,"trial":33,"RT":609,"MT":259,"sideResp":2,"stimulus":"img/250/randomdotsizeEA/R/4_Ratio_250_L_3_R_12.png","xmouse":[387.3333435058594,387.3333435058594,387.3333435058594,387.3333435058594,387.3333435058594,388,388,388,388,388,387.3333435058594,387.3333435058594,387.3333435058594,387.3333435058594,387.3333435058594,387.3333435058594,387.3333435058594,387.3333435058594,387.3333435058594,387.3333435058594,387.3333435058594,388,388,388,388,388.66668701171875,389.3333435058594,391.3333435058594,396.66668701171875,404,429.3333435058594,451.3333435058594,463.3333435058594,483.3333435058594,492.66668701171875,510,541.3333740234375,560,570.6666870117188,592,614,652,664.6666870117188,690.6666870117188],"ymouse":[833.3333740234375,833.3333740234375,832.6666870117188,832.6666870117188,832.6666870117188,832,832,832,832,832,831.3333740234375,831.3333740234375,831.3333740234375,831.3333740234375,830.6666870117188,830.6666870117188,830.6666870117188,830.6666870117188,830,830,830,829.3333740234375,829.3333740234375,829.3333740234375,829.3333740234375,828,824,817.3333740234375,796,774.6666870117188,722.6666870117188,670.6666870117188,641.3333740234375,591.3333740234375,566.6666870117188,515.3333740234375,412,352,326,268.66668701171875,214.6666717529297,139.33334350585938,118.66667175292969,78],"timestamp_mouse":[28,28,48,67,87,107,127,148,168,187,207,227,247,267,287,308,327,348,367,387,409,430,447,468,488,509,528,547,567,588,609,628,647,668,687,708,728,747,767,788,807,827,848,868],"xSR":350,"ySR":768,"xT1":30,"yT1":0,"xT2":670,"yT2":0,"toosoon":0,"cond_shown":"randomdotsizeEA","ratio_trial":250,"smaller_num":"3","larger_num":"12","correct_side":2,"subjID":"47wm","gender":"No_gender","age":"No_age","school":"No_school"},{"start_time":1549382114176,"click_time":1549382114945,"finger_time":1549382114684,"fix_duration":250,"trial":34,"RT":508,"MT":261,"sideResp":2,"stimulus":"img/250/equaldotanddens/R/8_Ratio_250_L_1_R_4.png","xmouse":[414.66668701171875,414.66668701171875,414.66668701171875,414.66668701171875,414.66668701171875,414.66668701171875,414.66668701171875,414.66668701171875,414,414,414,414,414,414,414,414,414,414,413.3333435058594,413.3333435058594,413.3333435058594,413.3333435058594,413.3333435058594,413.3333435058594,413.3333435058594,442,460.66668701171875,494.66668701171875,507.3333740234375,536.6666870117188,568.6666870117188,584,612.6666870117188,648.6666870117188,669.3333740234375,680,695.3333740234375,716,723.3333740234375],"ymouse":[810.0000610351562,810.0000610351562,810.0000610351562,810.0000610351562,810.0000610351562,810.0000610351562,810.0000610351562,810.0000610351562,811.3333740234375,811.3333740234375,811.3333740234375,811.3333740234375,811.3333740234375,811.3333740234375,811.3333740234375,811.3333740234375,811.3333740234375,811.3333740234375,810.0000610351562,810.0000610351562,810.0000610351562,810.0000610351562,810.0000610351562,810.0000610351562,810.0000610351562,725.3333740234375,671.3333740234375,573.3333740234375,538,470,404.66668701171875,372.66668701171875,318,250,209.33334350585938,190,156,116.66667175292969,99.33333587646484],"timestamp_mouse":[24,31,60,69,89,108,129,148,168,188,208,228,248,269,289,308,328,348,368,389,408,429,449,468,489,508,529,550,568,588,608,628,648,668,688,708,728,750,768],"xSR":350,"ySR":768,"xT1":30,"yT1":0,"xT2":670,"yT2":0,"toosoon":0,"cond_shown":"equaldotanddens","ratio_trial":250,"smaller_num":"1","larger_num":"4","correct_side":2,"subjID":"47wm","gender":"No_gender","age":"No_age","school":"No_school"},{"start_time":1549382116805,"click_time":1549382117785,"finger_time":1549382117564,"fix_duration":1000.0154378630943,"trial":35,"RT":759,"MT":221,"sideResp":2,"stimulus":"img/500/randomdotsize/R/2_Ratio_500_L_3_R_6.png","xmouse":[406,406,406,405.3333435058594,405.3333435058594,405.3333435058594,404.66668701171875,404.66668701171875,404.66668701171875,404.66668701171875,405.3333435058594,405.3333435058594,405.3333435058594,405.3333435058594,405.3333435058594,405.3333435058594,405.3333435058594,405.3333435058594,405.3333435058594,405.3333435058594,405.3333435058594,406.66668701171875,406.66668701171875,406.66668701171875,406.66668701171875,406.66668701171875,406.66668701171875,406.66668701171875,406.66668701171875,406.66668701171875,406.66668701171875,407.3333435058594,407.3333435058594,407.3333435058594,407.3333435058594,407.3333435058594,407.3333435058594,446,457.3333435058594,484,513.3333740234375,570,590,630.6666870117188,666,680,719.3333740234375,737.3333740234375,748],"ymouse":[816.0000610351562,816.0000610351562,815.3333740234375,814.6666870117188,814.6666870117188,814.0000610351562,814.0000610351562,813.3333740234375,813.3333740234375,813.3333740234375,812.6666870117188,812.6666870117188,812.6666870117188,812.6666870117188,812.6666870117188,812.6666870117188,812.6666870117188,812.6666870117188,812.6666870117188,812.6666870117188,812.6666870117188,806.6666870117188,806.6666870117188,806.6666870117188,806.6666870117188,806.6666870117188,806.6666870117188,806.6666870117188,806.6666870117188,806.6666870117188,806.6666870117188,797.3333740234375,797.3333740234375,797.3333740234375,797.3333740234375,797.3333740234375,797.3333740234375,679.3333740234375,653.3333740234375,595.3333740234375,534.6666870117188,427.3333435058594,392,321.3333435058594,261.3333435058594,235.33334350585938,154.6666717529297,111.33333587646484,75.33333587646484],"timestamp_mouse":[19,40,60,79,99,120,140,160,179,200,219,240,259,279,300,319,339,359,379,399,419,440,459,480,499,520,540,559,580,600,619,640,659,679,699,719,739,759,780,800,819,841,859,880,899,919,941,959,979],"xSR":350,"ySR":768,"xT1":30,"yT1":0,"xT2":670,"yT2":0,"toosoon":0,"cond_shown":"randomdotsize","ratio_trial":500,"smaller_num":"3","larger_num":"6","correct_side":2,"subjID":"47wm","gender":"No_gender","age":"No_age","school":"No_school"},{"start_time":1549382119805,"click_time":1549382120905,"finger_time":1549382120604,"fix_duration":1039.6601984152917,"trial":36,"RT":799,"MT":301,"sideResp":1,"stimulus":"img/900/randomdotsizeEA/R/3_Ratio_900_L_9_R_10.png","xmouse":[413.3333435058594,414.6666564941406,414.6666564941406,414.6666564941406,414.6666564941406,414.6666564941406,414.6666564941406,414.6666564941406,414.6666564941406,414.6666564941406,414.6666564941406,413.3333435058594,413.3333435058594,413.3333435058594,413.3333435058594,413.3333435058594,413.3333435058594,413.3333435058594,413.3333435058594,413.3333435058594,413.3333435058594,412.6666564941406,412.6666564941406,412.6666564941406,410.66668701171875,410,409.3333435058594,408.66668701171875,407.3333435058594,406.66668701171875,406.66668701171875,406,405.3333435058594,404.66668701171875,402.66668701171875,401.3333435058594,400.66668701171875,400.66668701171875,400.66668701171875,390,387.3333435058594,378.66668701171875,371.3333435058594,341.3333435058594,333.3333435058594,315.3333435058594,294,284,250,228,208,198,180.6666717529297,172,135.33334350585938,126],"ymouse":[828,828,828,828,828,828,828,828,828,828,828,826,826,826,826,826,826,826,826,826,826,826.6666870117188,826.6666870117188,826.6666870117188,824.6666870117188,824.6666870117188,824.6666870117188,824,824,824,822.6666870117188,821.3333740234375,820.6666870117188,814,808,801.3333740234375,798.6666870117188,798.6666870117188,798.6666870117188,774.6666870117188,767.3333740234375,746.6666870117188,730,649.3333740234375,626.6666870117188,578.6666870117188,528,500.66668701171875,417.3333435058594,363.3333435058594,311.3333435058594,285.3333435058594,232.6666717529297,206.6666717529297,116,98],"timestamp_mouse":[1,31,40,60,80,100,119,139,160,180,199,220,239,260,279,299,319,340,360,379,399,420,439,459,479,499,519,540,560,579,599,620,639,661,680,699,719,740,760,779,799,819,840,861,880,899,920,940,964,980,999,1019,1039,1060,1079,1100],"xSR":350,"ySR":768,"xT1":30,"yT1":0,"xT2":670,"yT2":0,"toosoon":0,"cond_shown":"randomdotsizeEA","ratio_trial":900,"smaller_num":"9","larger_num":"10","correct_side":2,"subjID":"47wm","gender":"No_gender","age":"No_age","school":"No_school"},{"start_time":1549382122946,"click_time":1549382123965,"finger_time":1549382123586,"fix_duration":909.467787214672,"trial":37,"RT":640,"MT":379,"sideResp":