[{"start_time":1549381581609,"click_time":1549381582451,"finger_time":1549381581617,"fix_duration":872.701447230528,"trial":0,"RT":8,"MT":834,"sideResp":2,"stimulus":[],"xmouse":[391,391,391,391,391,391,391,391,391,391,391,391,391,391,391,391,391,391,391,391,391,391,391,391,391,391,391,391,391,391,391,391,391,391,391,391,391,391,391,391,391,391,712],"ymouse":[521,521,521,521,521,521,521,521,521,521,521,521,521,521,521,521,521,521,521,521,521,521,521,521,521,521,521,521,521,521,521,521,521,521,521,521,521,521,521,521,521,521,27],"timestamp_mouse":[7,21,41,60,80,101,121,140,160,181,201,221,240,261,280,301,321,340,361,381,400,420,441,461,481,501,521,541,561,581,600,621,640,660,681,701,721,741,760,781,801,820,841],"xSR":350,"ySR":451.2,"xT1":30,"yT1":0,"xT2":670,"yT2":0,"toosoon":0,"cond_shown":"Congruent","ratio_trial":500,"L_num":20,"L_den":24,"R_num":7,"R_den":21,"correct_side":1,"subjID":"48wm","gender":"No_gender","age":"No_age","school":"No_school","test":{"fix_dur":[250,1500],"timestim":900,"targets_dim":[100,100],"targets_relative_coord":[0.1,0.9],"size_stim":[880,420],"start_dim":[100,100],"size_start":[300,300],"size_fix":60,"samplingrate":20,"img_types":["Congruent","Incongruent"],"ratios":[100,200,300,500],"rep_conds":15,"nTrials":128,"trials_to_rest":500,"Trials_order":[22,86,125,71,28,57,68,106,113,119,55,0,79,13,58,34,122,124,42,17,26,104,76,41,94,54,120,49,105,123,12,56,63,73,107,37,40,46,126,110,5,114,19,108,92,117,27,93,89,47,61,52,62,65,48,1,16,3,77,50,7,53,24,85,70,23,33,87,98,75,83,43,96,51,4,102,121,103,66,64,109,69,100,6,38,78,90,111,31,67,91,11,14,72,15,95,82,59,2,30,39,81,36,44,29,10,84,9,60,45,88,99,20,74,32,35,112,116,97,115,101,18,25,127,21,8,118,80],"cond_shown":["Congruent","Congruent","Incongruent","Incongruent","Congruent","Incongruent","Congruent","Congruent","Incongruent","Incongruent","Incongruent","Congruent","Incongruent","Incongruent","Congruent","Congruent","Congruent","Congruent","Congruent","Incongruent","Congruent","Congruent","Congruent","Incongruent","Congruent","Congruent","Congruent","Incongruent","Incongruent","Incongruent","Congruent","Congruent","Incongruent","Incongruent","Incongruent","Incongruent","Congruent","Congruent","Congruent","Congruent","Incongruent","Congruent","Incongruent","Congruent","Congruent","Incongruent","Incongruent","Incongruent","Incongruent","Incongruent","Incongruent","Congruent","Congruent","Incongruent","Congruent","Incongruent","Congruent","Incongruent","Incongruent","Congruent","Incongruent","Incongruent","Congruent","Incongruent","Congruent","Incongruent","Incongruent","Incongruent","Congruent","Incongruent","Incongruent","Incongruent","Congruent","Incongruent","Congruent","Congruent","Incongruent","Incongruent","Congruent","Congruent","Incongruent","Incongruent","Congruent","Congruent","Congruent","Congruent","Congruent","Incongruent","Incongruent","Incongruent","Incongruent","Incongruent","Congruent","Congruent","Incongruent","Incongruent","Congruent","Incongruent","Congruent","Congruent","Incongruent","Incongruent","Congruent","Congruent","Incongruent","Congruent","Congruent","Incongruent","Congruent","Incongruent","Congruent","Incongruent","Congruent","Congruent","Congruent","Incongruent","Congruent","Congruent","Incongruent","Incongruent","Incongruent","Congruent","Incongruent","Incongruent","Incongruent","Congruent","Congruent","Congruent"],"ratio_trial":[500,500,300,500,300,100,300,200,100,500,500,100,500,300,200,200,200,300,200,100,200,100,300,100,500,500,100,100,100,200,300,100,500,100,200,300,100,500,500,500,300,200,200,300,300,300,200,300,100,500,300,300,500,100,100,100,100,200,300,200,500,300,100,300,500,500,100,500,200,200,200,200,100,200,300,500,100,500,200,100,300,300,300,500,500,500,200,500,500,200,200,200,500,100,500,500,200,200,200,500,500,100,300,300,300,200,300,100,300,300,100,200,300,200,100,200,100,300,100,200,300,200,100,500,300,100,500,100],"left_num":[20,15,4,7,9,9,20,8,6,7,7,9,7,13,6,15,16,4,3,8,7,7,8,11,15,4,9,9,8,4,18,1,7,2,1,7,6,7,6,5,1,6,4,5,2,4,9,4,10,7,13,4,12,17,1,6,1,3,13,3,2,7,15,4,2,5,6,7,3,11,6,7,11,3,11,15,6,2,12,12,13,7,7,2,2,2,16,7,7,11,1,7,15,7,7,7,5,4,4,4,5,13,18,24,2,6,4,4,24,4,11,7,3,7,6,1,1,1,2,9,13,3,9,7,7,11,10,10],"right_num":[7,1,6,5,3,20,9,2,7,5,5,8,5,12,7,4,12,1,11,6,18,9,10,9,1,1,8,6,6,14,9,3,9,8,3,8,5,20,1,2,3,7,14,6,12,6,8,2,9,5,12,13,3,10,18,3,3,1,12,9,4,8,13,2,9,6,13,5,9,3,3,6,4,11,4,5,7,4,6,13,12,8,20,10,4,12,12,5,5,3,3,14,5,15,9,9,14,6,3,15,6,12,9,2,6,7,1,8,8,2,4,4,2,18,5,3,3,7,6,8,12,7,6,5,8,4,22,3],"left_den":[24,20,5,21,10,10,25,15,10,21,21,15,21,26,12,25,20,10,10,16,15,14,15,22,20,6,15,18,16,6,20,2,8,4,2,10,20,21,9,6,2,12,6,25,10,5,15,20,25,21,26,20,16,30,2,12,2,10,26,12,3,10,25,20,5,6,10,21,12,20,20,15,22,4,22,18,10,3,20,30,26,10,14,12,12,12,20,21,21,20,2,10,18,14,8,8,10,5,8,16,6,26,20,30,4,12,10,8,30,20,22,15,6,15,20,2,2,20,4,15,26,10,18,21,10,22,24,25],"right_den":[21,4,12,6,5,25,18,6,14,6,6,16,6,15,10,10,20,10,22,10,27,15,12,15,4,6,16,10,10,30,15,5,24,20,10,20,25,24,6,6,15,10,30,12,24,12,10,4,18,6,15,26,12,15,30,5,5,2,15,20,24,20,26,4,10,18,26,6,20,4,6,9,10,20,20,15,14,24,15,26,15,20,25,15,6,18,20,6,6,4,10,28,15,25,24,24,20,10,10,20,18,20,15,4,30,10,10,20,16,4,10,6,10,27,25,10,5,20,15,10,15,14,10,6,20,10,24,10],"correct_side":[1,1,1,2,1,1,1,1,1,2,2,1,2,2,2,1,1,1,2,2,2,2,2,2,1,1,1,2,2,1,1,2,1,1,1,1,1,2,1,1,1,2,1,2,2,1,2,2,2,2,2,2,1,2,2,2,2,2,2,2,1,1,1,2,2,1,1,2,2,2,2,2,1,1,1,1,1,1,1,2,2,1,2,2,2,2,1,2,2,2,1,1,1,2,1,1,2,1,1,2,1,2,1,1,1,2,1,1,1,2,1,2,1,2,1,1,2,2,1,2,2,2,2,2,1,1,2,1],"img_shown":["img2/500/Congruent/L/C_Dist_500_LN_20_LD_24_RN_7_RD_21_0.png","img2/500/Congruent/L/C_Dist_500_LN_15_LD_20_RN_1_RD_4_0.png","img2/300/Incongruent/L/I_Dist_300_LN_4_LD_5_RN_6_RD_12_0.png","img2/500/Incongruent/R/I_Dist_500_LN_7_LD_21_RN_5_RD_6_1.png","img2/300/Congruent/L/C_Dist_300_LN_9_LD_10_RN_3_RD_5_0.png","img2/100/Incongruent/L/I_Dist_100_LN_9_LD_10_RN_20_RD_25_0.png","img2/300/Congruent/L/C_Dist_300_LN_20_LD_25_RN_9_RD_18_0.png","img2/200/Congruent/L/C_Dist_200_LN_8_LD_15_RN_2_RD_6_0.png","img2/100/Incongruent/L/I_Dist_100_LN_6_LD_10_RN_7_RD_14_0.png","img2/500/Incongruent/R/I_Dist_500_LN_7_LD_21_RN_5_RD_6_1.png","img2/500/Incongruent/R/I_Dist_500_LN_7_LD_21_RN_5_RD_6_1.png","img2/100/Congruent/L/C_Dist_100_LN_9_LD_15_RN_8_RD_16_0.png","img2/500/Incongruent/R/I_Dist_500_LN_7_LD_21_RN_5_RD_6_1.png","img2/300/Incongruent/R/I_Dist_300_LN_13_LD_26_RN_12_RD_15_1.png","img2/200/Congruent/R/C_Dist_200_LN_6_LD_12_RN_7_RD_10_1.png","img2/200/Congruent/L/C_Dist_200_LN_15_LD_25_RN_4_RD_10_0.png","img2/200/Congruent/L/C_Dist_200_LN_16_LD_20_RN_12_RD_20_0.png","img2/300/Congruent/L/C_Dist_300_LN_4_LD_10_RN_1_RD_10_0.png","img2/200/Congruent/R/C_Dist_200_LN_3_LD_10_RN_11_RD_22_1.png","img2/100/Incongruent/R/I_Dist_100_LN_8_LD_16_RN_6_RD_10_1.png","img2/200/Congruent/R/C_Dist_200_LN_7_LD_15_RN_18_RD_27_1.png","img2/100/Congruent/R/C_Dist_100_LN_7_LD_14_RN_9_RD_15_1.png","img2/300/Congruent/R/C_Dist_300_LN_8_LD_15_RN_10_RD_12_1.png","img2/100/Incongruent/R/I_Dist_100_LN_11_LD_22_RN_9_RD_15_1.png","img2/500/Congruent/L/C_Dist_500_LN_15_LD_20_RN_1_RD_4_0.png","img2/500/Congruent/L/C_Dist_500_LN_4_LD_6_RN_1_RD_6_0.png","img2/100/Congruent/L/C_Dist_100_LN_9_LD_15_RN_8_RD_16_0.png","img2/100/Incongruent/R/I_Dist_100_LN_9_LD_18_RN_6_RD_10_1.png","img2/100/Incongruent/R/I_Dist_100_LN_8_LD_16_RN_6_RD_10_1.png","img2/200/Incongruent/L/I_Dist_200_LN_4_LD_6_RN_14_RD_30_0.png","img2/300/Congruent/L/C_Dist_300_LN_18_LD_20_RN_9_RD_15_0.png","img2/100/Congruent/R/C_Dist_100_LN_1_LD_2_RN_3_RD_5_1.png","img2/500/Incongruent/L/I_Dist_500_LN_7_LD_8_RN_9_RD_24_0.png","img2/100/Incongruent/L/I_Dist_100_LN_2_LD_4_RN_8_RD_20_0.png","img2/200/Incongruent/L/I_Dist_200_LN_1_LD_2_RN_3_RD_10_0.png","img2/300/Incongruent/L/I_Dist_300_LN_7_LD_10_RN_8_RD_20_0.png","img2/100/Congruent/L/C_Dist_100_LN_6_LD_20_RN_5_RD_25_0.png","img2/500/Congruent/R/C_Dist_500_LN_7_LD_21_RN_20_RD_24_1.png","img2/500/Congruent/L/C_Dist_500_LN_6_LD_9_RN_1_RD_6_0.png","img2/500/Congruent/L/C_Dist_500_LN_5_LD_6_RN_2_RD_6_0.png","img2/300/Incongruent/L/I_Dist_300_LN_1_LD_2_RN_3_RD_15_0.png","img2/200/Congruent/R/C_Dist_200_LN_6_LD_12_RN_7_RD_10_1.png","img2/200/Incongruent/L/I_Dist_200_LN_4_LD_6_RN_14_RD_30_0.png","img2/300/Congruent/R/C_Dist_300_LN_5_LD_25_RN_6_RD_12_1.png","img2/300/Congruent/R/C_Dist_300_LN_2_LD_10_RN_12_RD_24_1.png","img2/300/Incongruent/L/I_Dist_300_LN_4_LD_5_RN_6_RD_12_0.png","img2/200/Incongruent/R/I_Dist_200_LN_9_LD_15_RN_8_RD_10_1.png","img2/300/Incongruent/R/I_Dist_300_LN_4_LD_20_RN_2_RD_4_1.png","img2/100/Incongruent/R/I_Dist_100_LN_10_LD_25_RN_9_RD_18_1.png","img2/500/Incongruent/R/I_Dist_500_LN_7_LD_21_RN_5_RD_6_1.png","img2/300/Incongruent/R/I_Dist_300_LN_13_LD_26_RN_12_RD_15_1.png","img2/300/Congruent/R/C_Dist_300_LN_4_LD_20_RN_13_RD_26_1.png","img2/500/Congruent/L/C_Dist_500_LN_12_LD_16_RN_3_RD_12_0.png","img2/100/Incongruent/R/I_Dist_100_LN_17_LD_30_RN_10_RD_15_1.png","img2/100/Congruent/R/C_Dist_100_LN_1_LD_2_RN_18_RD_30_1.png","img2/100/Incongruent/R/I_Dist_100_LN_6_LD_12_RN_3_RD_5_1.png","img2/100/Congruent/R/C_Dist_100_LN_1_LD_2_RN_3_RD_5_1.png","img2/200/Incongruent/R/I_Dist_200_LN_3_LD_10_RN_1_RD_2_1.png","img2/300/Incongruent/R/I_Dist_300_LN_13_LD_26_RN_12_RD_15_1.png","img2/200/Congruent/R/C_Dist_200_LN_3_LD_12_RN_9_RD_20_1.png","img2/500/Incongruent/L/I_Dist_500_LN_2_LD_3_RN_4_RD_24_0.png","img2/300/Incongruent/L/I_Dist_300_LN_7_LD_10_RN_8_RD_20_0.png","img2/100/Congruent/L/C_Dist_100_LN_15_LD_25_RN_13_RD_26_0.png","img2/300/Incongruent/R/I_Dist_300_LN_4_LD_20_RN_2_RD_4_1.png","img2/500/Congruent/R/C_Dist_500_LN_2_LD_5_RN_9_RD_10_1.png","img2/500/Incongruent/L/I_Dist_500_LN_5_LD_6_RN_6_RD_18_0.png","img2/100/Incongruent/L/I_Dist_100_LN_6_LD_10_RN_13_RD_26_0.png","img2/500/Incongruent/R/I_Dist_500_LN_7_LD_21_RN_5_RD_6_1.png","img2/200/Congruent/R/C_Dist_200_LN_3_LD_12_RN_9_RD_20_1.png","img2/200/Incongruent/R/I_Dist_200_LN_11_LD_20_RN_3_RD_4_1.png","img2/200/Incongruent/R/I_Dist_200_LN_6_LD_20_RN_3_RD_6_1.png","img2/200/Incongruent/R/I_Dist_200_LN_7_LD_15_RN_6_RD_9_1.png","img2/100/Congruent/L/C_Dist_100_LN_11_LD_22_RN_4_RD_10_0.png","img2/200/Incongruent/L/I_Dist_200_LN_3_LD_4_RN_11_RD_20_0.png","img2/300/Congruent/L/C_Dist_300_LN_11_LD_22_RN_4_RD_20_0.png","img2/500/Congruent/L/C_Dist_500_LN_15_LD_18_RN_5_RD_15_0.png","img2/100/Incongruent/L/I_Dist_100_LN_6_LD_10_RN_7_RD_14_0.png","img2/500/Incongruent/L/I_Dist_500_LN_2_LD_3_RN_4_RD_24_0.png","img2/200/Congruent/L/C_Dist_200_LN_12_LD_20_RN_6_RD_15_0.png","img2/100/Congruent/R/C_Dist_100_LN_12_LD_30_RN_13_RD_26_1.png","img2/300/Incongruent/R/I_Dist_300_LN_13_LD_26_RN_12_RD_15_1.png","img2/300/Incongruent/L/I_Dist_300_LN_7_LD_10_RN_8_RD_20_0.png","img2/300/Congruent/R/C_Dist_300_LN_7_LD_14_RN_20_RD_25_1.png","img2/500/Congruent/R/C_Dist_500_LN_2_LD_12_RN_10_RD_15_1.png","img2/500/Congruent/R/C_Dist_500_LN_2_LD_12_RN_4_RD_6_1.png","img2/500/Congruent/R/C_Dist_500_LN_2_LD_12_RN_12_RD_18_1.png","img2/200/Congruent/L/C_Dist_200_LN_16_LD_20_RN_12_RD_20_0.png","img2/500/Incongruent/R/I_Dist_500_LN_7_LD_21_RN_5_RD_6_1.png","img2/500/Incongruent/R/I_Dist_500_LN_7_LD_21_RN_5_RD_6_1.png","img2/200/Incongruent/R/I_Dist_200_LN_11_LD_20_RN_3_RD_4_1.png","img2/200/Incongruent/L/I_Dist_200_LN_1_LD_2_RN_3_RD_10_0.png","img2/200/Incongruent/L/I_Dist_200_LN_7_LD_10_RN_14_RD_28_0.png","img2/500/Congruent/L/C_Dist_500_LN_15_LD_18_RN_5_RD_15_0.png","img2/100/Congruent/R/C_Dist_100_LN_7_LD_14_RN_15_RD_25_1.png","img2/500/Incongruent/L/I_Dist_500_LN_7_LD_8_RN_9_RD_24_0.png","img2/500/Incongruent/L/I_Dist_500_LN_7_LD_8_RN_9_RD_24_0.png","img2/200/Congruent/R/C_Dist_200_LN_5_LD_10_RN_14_RD_20_1.png","img2/200/Incongruent/L/I_Dist_200_LN_4_LD_5_RN_6_RD_10_0.png","img2/200/Congruent/L/C_Dist_200_LN_4_LD_8_RN_3_RD_10_0.png","img2/500/Congruent/R/C_Dist_500_LN_4_LD_16_RN_15_RD_20_1.png","img2/500/Incongruent/L/I_Dist_500_LN_5_LD_6_RN_6_RD_18_0.png","img2/100/Incongruent/R/I_Dist_100_LN_13_LD_26_RN_12_RD_20_1.png","img2/300/Congruent/L/C_Dist_300_LN_18_LD_20_RN_9_RD_15_0.png","img2/300/Congruent/L/C_Dist_300_LN_24_LD_30_RN_2_RD_4_0.png","img2/300/Incongruent/L/I_Dist_300_LN_2_LD_4_RN_6_RD_30_0.png","img2/200/Congruent/R/C_Dist_200_LN_6_LD_12_RN_7_RD_10_1.png","img2/300/Congruent/L/C_Dist_300_LN_4_LD_10_RN_1_RD_10_0.png","img2/100/Incongruent/L/I_Dist_100_LN_4_LD_8_RN_8_RD_20_0.png","img2/300/Congruent/L/C_Dist_300_LN_24_LD_30_RN_8_RD_16_0.png","img2/300/Incongruent/R/I_Dist_300_LN_4_LD_20_RN_2_RD_4_1.png","img2/100/Congruent/L/C_Dist_100_LN_11_LD_22_RN_4_RD_10_0.png","img2/200/Incongruent/R/I_Dist_200_LN_7_LD_15_RN_4_RD_6_1.png","img2/300/Congruent/L/C_Dist_300_LN_3_LD_6_RN_2_RD_10_0.png","img2/200/Congruent/R/C_Dist_200_LN_7_LD_15_RN_18_RD_27_1.png","img2/100/Congruent/L/C_Dist_100_LN_6_LD_20_RN_5_RD_25_0.png","img2/200/Incongruent/L/I_Dist_200_LN_1_LD_2_RN_3_RD_10_0.png","img2/100/Congruent/R/C_Dist_100_LN_1_LD_2_RN_3_RD_5_1.png","img2/300/Congruent/R/C_Dist_300_LN_1_LD_20_RN_7_RD_20_1.png","img2/100/Incongruent/L/I_Dist_100_LN_2_LD_4_RN_6_RD_15_0.png","img2/200/Incongruent/R/I_Dist_200_LN_9_LD_15_RN_8_RD_10_1.png","img2/300/Incongruent/R/I_Dist_300_LN_13_LD_26_RN_12_RD_15_1.png","img2/200/Congruent/R/C_Dist_200_LN_3_LD_10_RN_7_RD_14_1.png","img2/100/Incongruent/R/I_Dist_100_LN_9_LD_18_RN_6_RD_10_1.png","img2/500/Incongruent/R/I_Dist_500_LN_7_LD_21_RN_5_RD_6_1.png","img2/300/Incongruent/L/I_Dist_300_LN_7_LD_10_RN_8_RD_20_0.png","img2/100/Congruent/L/C_Dist_100_LN_11_LD_22_RN_4_RD_10_0.png","img2/500/Congruent/R/C_Dist_500_LN_10_LD_24_RN_22_RD_24_1.png","img2/100/Congruent/L/C_Dist_100_LN_10_LD_25_RN_3_RD_10_0.png"],"dist100_C":[["C_Dist_100_LN_10_LD_25_RN_3_RD_10_0.png","C_Dist_100_LN_11_LD_22_RN_4_RD_10_0.png","C_Dist_100_LN_11_LD_22_RN_6_RD_15_0.png","C_Dist_100_LN_15_LD_25_RN_13_RD_26_0.png","C_Dist_100_LN_3_LD_6_RN_2_RD_5_0.png","C_Dist_100_LN_6_LD_20_RN_5_RD_25_0.png","C_Dist_100_LN_8_LD_16_RN_2_RD_5_0.png","C_Dist_100_LN_9_LD_15_RN_8_RD_16_0.png"],["C_Dist_100_LN_1_LD_2_RN_18_RD_30_1.png","C_Dist_100_LN_1_LD_2_RN_3_RD_5_1.png","C_Dist_100_LN_12_LD_30_RN_13_RD_26_1.png","C_Dist_100_LN_2_LD_5_RN_11_RD_22_1.png","C_Dist_100_LN_2_LD_5_RN_6_RD_12_1.png","C_Dist_100_LN_3_LD_20_RN_4_RD_16_1.png","C_Dist_100_LN_4_LD_10_RN_15_RD_30_1.png","C_Dist_100_LN_4_LD_8_RN_6_RD_10_1.png","C_Dist_100_LN_6_LD_12_RN_15_RD_25_1.png","C_Dist_100_LN_7_LD_14_RN_15_RD_25_1.png","C_Dist_100_LN_7_LD_14_RN_9_RD_15_1.png"]],"dist100_I":[["I_Dist_100_LN_1_LD_2_RN_8_RD_20_0.png","I_Dist_100_LN_2_LD_4_RN_6_RD_15_0.png","I_Dist_100_LN_2_LD_4_RN_8_RD_20_0.png","I_Dist_100_LN_3_LD_5_RN_11_RD_22_0.png","I_Dist_100_LN_3_LD_5_RN_8_RD_16_0.png","I_Dist_100_LN_3_LD_6_RN_4_RD_10_0.png","I_Dist_100_LN_3_LD_9_RN_7_RD_30_0.png","I_Dist_100_LN_4_LD_8_RN_8_RD_20_0.png","I_Dist_100_LN_6_LD_10_RN_11_RD_22_0.png","I_Dist_100_LN_6_LD_10_RN_13_RD_26_0.png","I_Dist_100_LN_6_LD_10_RN_7_RD_14_0.png","I_Dist_100_LN_9_LD_10_RN_20_RD_25_0.png","I_Dist_100_LN_9_LD_15_RN_13_RD_26_0.png","I_Dist_100_LN_9_LD_15_RN_14_RD_28_0.png"],["I_Dist_100_LN_10_LD_25_RN_8_RD_16_1.png","I_Dist_100_LN_10_LD_25_RN_9_RD_18_1.png","I_Dist_100_LN_11_LD_22_RN_9_RD_15_1.png","I_Dist_100_LN_12_LD_24_RN_9_RD_15_1.png","I_Dist_100_LN_12_LD_30_RN_2_RD_4_1.png","I_Dist_100_LN_13_LD_26_RN_12_RD_20_1.png","I_Dist_100_LN_13_LD_26_RN_6_RD_10_1.png","I_Dist_100_LN_17_LD_30_RN_10_RD_15_1.png","I_Dist_100_LN_6_LD_12_RN_3_RD_5_1.png","I_Dist_100_LN_8_LD_16_RN_6_RD_10_1.png","I_Dist_100_LN_8_LD_20_RN_1_RD_2_1.png","I_Dist_100_LN_9_LD_18_RN_6_RD_10_1.png"]],"dist100_S":[["E_Dist_100_LN_2_LD_12_RN_2_RD_30_0.png","E_Dist_100_LN_6_LD_10_RN_6_RD_12_0.png"],["E_Dist_100_LN_6_LD_12_RN_6_RD_10_1.png"]],"dist200_C":[["C_Dist_200_LN_11_LD_22_RN_3_RD_10_0.png","C_Dist_200_LN_12_LD_15_RN_6_RD_10_0.png","C_Dist_200_LN_12_LD_20_RN_6_RD_15_0.png","C_Dist_200_LN_14_LD_28_RN_6_RD_20_0.png","C_Dist_200_LN_15_LD_25_RN_4_RD_10_0.png","C_Dist_200_LN_16_LD_20_RN_12_RD_20_0.png","C_Dist_200_LN_16_LD_30_RN_9_RD_27_0.png","C_Dist_200_LN_20_LD_25_RN_9_RD_15_0.png","C_Dist_200_LN_21_LD_30_RN_2_RD_4_0.png","C_Dist_200_LN_4_LD_10_RN_3_RD_15_0.png","C_Dist_200_LN_4_LD_8_RN_3_RD_10_0.png","C_Dist_200_LN_6_LD_15_RN_3_RD_15_0.png","C_Dist_200_LN_7_LD_21_RN_2_RD_15_0.png","C_Dist_200_LN_8_LD_15_RN_2_RD_6_0.png","C_Dist_200_LN_8_LD_15_RN_3_RD_9_0.png","C_Dist_200_LN_8_LD_15_RN_7_RD_21_0.png","C_Dist_200_LN_9_LD_20_RN_4_RD_16_0.png"],["C_Dist_200_LN_1_LD_2_RN_21_RD_30_1.png","C_Dist_200_LN_13_LD_26_RN_14_RD_20_1.png","C_Dist_200_LN_3_LD_10_RN_11_RD_22_1.png","C_Dist_200_LN_3_LD_10_RN_14_RD_28_1.png","C_Dist_200_LN_3_LD_10_RN_7_RD_14_1.png","C_Dist_200_LN_3_LD_12_RN_9_RD_20_1.png","C_Dist_200_LN_3_LD_6_RN_14_RD_20_1.png","C_Dist_200_LN_5_LD_10_RN_14_RD_20_1.png","C_Dist_200_LN_6_LD_12_RN_7_RD_10_1.png","C_Dist_200_LN_6_LD_20_RN_11_RD_22_1.png","C_Dist_200_LN_7_LD_15_RN_18_RD_27_1.png","C_Dist_200_LN_9_LD_30_RN_13_RD_26_1.png"]],"dist200_I":[["I_Dist_200_LN_1_LD_2_RN_3_RD_10_0.png","I_Dist_200_LN_1_LD_3_RN_2_RD_15_0.png","I_Dist_200_LN_3_LD_4_RN_11_RD_20_0.png","I_Dist_200_LN_4_LD_5_RN_6_RD_10_0.png","I_Dist_200_LN_4_LD_6_RN_14_RD_30_0.png","I_Dist_200_LN_7_LD_10_RN_12_RD_24_0.png","I_Dist_200_LN_7_LD_10_RN_14_RD_28_0.png","I_Dist_200_LN_7_LD_10_RN_8_RD_16_0.png"],["I_Dist_200_LN_11_LD_20_RN_3_RD_4_1.png","I_Dist_200_LN_14_LD_30_RN_12_RD_18_1.png","I_Dist_200_LN_14_LD_30_RN_6_RD_9_1.png","I_Dist_200_LN_3_LD_10_RN_1_RD_2_1.png","I_Dist_200_LN_4_LD_30_RN_1_RD_3_1.png","I_Dist_200_LN_6_LD_20_RN_3_RD_6_1.png","I_Dist_200_LN_7_LD_15_RN_4_RD_6_1.png","I_Dist_200_LN_7_LD_15_RN_6_RD_9_1.png","I_Dist_200_LN_9_LD_15_RN_8_RD_10_1.png"]],"dist200_S":[["E_Dist_200_LN_3_LD_6_RN_3_RD_10_0.png"],["E_Dist_200_LN_3_LD_10_RN_3_RD_6_1.png"]],"dist300_C":[["C_Dist_300_LN_11_LD_22_RN_1_RD_5_0.png","C_Dist_300_LN_11_LD_22_RN_2_RD_10_0.png","C_Dist_300_LN_11_LD_22_RN_4_RD_20_0.png","C_Dist_300_LN_12_LD_24_RN_2_RD_10_0.png","C_Dist_300_LN_18_LD_20_RN_9_RD_15_0.png","C_Dist_300_LN_20_LD_25_RN_13_RD_26_0.png","C_Dist_300_LN_20_LD_25_RN_14_RD_28_0.png","C_Dist_300_LN_20_LD_25_RN_5_RD_10_0.png","C_Dist_300_LN_20_LD_25_RN_8_RD_16_0.png","C_Dist_300_LN_20_LD_25_RN_9_RD_18_0.png","C_Dist_300_LN_24_LD_30_RN_2_RD_4_0.png","C_Dist_300_LN_24_LD_30_RN_8_RD_16_0.png","C_Dist_300_LN_3_LD_6_RN_2_RD_10_0.png","C_Dist_300_LN_4_LD_10_RN_1_RD_10_0.png","C_Dist_300_LN_4_LD_5_RN_2_RD_4_0.png","C_Dist_300_LN_8_LD_16_RN_1_RD_5_0.png","C_Dist_300_LN_9_LD_10_RN_3_RD_5_0.png"],["C_Dist_300_LN_1_LD_20_RN_7_RD_20_1.png","C_Dist_300_LN_1_LD_3_RN_19_RD_30_1.png","C_Dist_300_LN_1_LD_30_RN_8_RD_24_1.png","C_Dist_300_LN_1_LD_5_RN_11_RD_22_1.png","C_Dist_300_LN_1_LD_5_RN_3_RD_6_1.png","C_Dist_300_LN_1_LD_5_RN_6_RD_12_1.png","C_Dist_300_LN_2_LD_10_RN_12_RD_24_1.png","C_Dist_300_LN_2_LD_20_RN_10_RD_25_1.png","C_Dist_300_LN_3_LD_12_RN_11_RD_20_1.png","C_Dist_300_LN_3_LD_6_RN_4_RD_5_1.png","C_Dist_300_LN_4_LD_20_RN_13_RD_26_1.png","C_Dist_300_LN_5_LD_25_RN_6_RD_12_1.png","C_Dist_300_LN_5_LD_25_RN_7_RD_14_1.png","C_Dist_300_LN_7_LD_14_RN_20_RD_25_1.png","C_Dist_300_LN_8_LD_15_RN_10_RD_12_1.png"]],"dist300_I":[["I_Dist_300_LN_1_LD_2_RN_2_RD_10_0.png","I_Dist_300_LN_1_LD_2_RN_3_RD_15_0.png","I_Dist_300_LN_2_LD_4_RN_6_RD_30_0.png","I_Dist_300_LN_3_LD_6_RN_4_RD_20_0.png","I_Dist_300_LN_4_LD_5_RN_6_RD_12_0.png","I_Dist_300_LN_4_LD_5_RN_8_RD_16_0.png","I_Dist_300_LN_7_LD_10_RN_8_RD_20_0.png","I_Dist_300_LN_8_LD_10_RN_14_RD_28_0.png","I_Dist_300_LN_8_LD_10_RN_9_RD_18_0.png"],["I_Dist_300_LN_13_LD_26_RN_12_RD_15_1.png","I_Dist_300_LN_4_LD_20_RN_2_RD_4_1.png"]],"dist300_S":[["E_Dist_300_LN_9_LD_12_RN_9_RD_20_0.png"],["E_Dist_300_LN_18_LD_30_RN_18_RD_20_1.png","E_Dist_300_LN_3_LD_10_RN_3_RD_5_1.png","E_Dist_300_LN_9_LD_20_RN_9_RD_12_1.png"]],"dist500_C":[["C_Dist_500_LN_10_LD_13_RN_7_RD_26_0.png","C_Dist_500_LN_10_LD_15_RN_4_RD_24_0.png","C_Dist_500_LN_12_LD_16_RN_3_RD_12_0.png","C_Dist_500_LN_12_LD_18_RN_4_RD_24_0.png","C_Dist_500_LN_15_LD_18_RN_5_RD_15_0.png","C_Dist_500_LN_15_LD_20_RN_1_RD_4_0.png","C_Dist_500_LN_18_LD_27_RN_1_RD_6_0.png","C_Dist_500_LN_20_LD_24_RN_1_RD_3_0.png","C_Dist_500_LN_20_LD_24_RN_3_RD_9_0.png","C_Dist_500_LN_20_LD_24_RN_7_RD_21_0.png","C_Dist_500_LN_20_LD_28_RN_3_RD_14_0.png","C_Dist_500_LN_21_LD_28_RN_6_RD_24_0.png","C_Dist_500_LN_22_LD_28_RN_2_RD_7_0.png","C_Dist_500_LN_25_LD_30_RN_9_RD_27_0.png","C_Dist_500_LN_4_LD_6_RN_1_RD_6_0.png","C_Dist_500_LN_5_LD_6_RN_2_RD_6_0.png","C_Dist_500_LN_6_LD_9_RN_1_RD_6_0.png","C_Dist_500_LN_7_LD_10_RN_1_RD_5_0.png","C_Dist_500_LN_8_LD_12_RN_1_RD_6_0.png","C_Dist_500_LN_8_LD_12_RN_4_RD_24_0.png"],["C_Dist_500_LN_1_LD_4_RN_12_RD_16_1.png","C_Dist_500_LN_1_LD_4_RN_9_RD_12_1.png","C_Dist_500_LN_1_LD_9_RN_11_RD_18_1.png","C_Dist_500_LN_10_LD_24_RN_22_RD_24_1.png","C_Dist_500_LN_2_LD_12_RN_10_RD_15_1.png","C_Dist_500_LN_2_LD_12_RN_12_RD_18_1.png","C_Dist_500_LN_2_LD_12_RN_4_RD_6_1.png","C_Dist_500_LN_2_LD_24_RN_7_RD_12_1.png","C_Dist_500_LN_2_LD_5_RN_18_RD_20_1.png","C_Dist_500_LN_2_LD_5_RN_9_RD_10_1.png","C_Dist_500_LN_2_LD_8_RN_12_RD_16_1.png","C_Dist_500_LN_2_LD_8_RN_21_RD_28_1.png","C_Dist_500_LN_3_LD_10_RN_4_RD_5_1.png","C_Dist_500_LN_3_LD_12_RN_15_RD_20_1.png","C_Dist_500_LN_3_LD_30_RN_6_RD_10_1.png","C_Dist_500_LN_3_LD_8_RN_14_RD_16_1.png","C_Dist_500_LN_4_LD_16_RN_15_RD_20_1.png","C_Dist_500_LN_4_LD_24_RN_12_RD_18_1.png","C_Dist_500_LN_5_LD_14_RN_6_RD_7_1.png","C_Dist_500_LN_7_LD_21_RN_20_RD_24_1.png","C_Dist_500_LN_7_LD_28_RN_12_RD_16_1.png","C_Dist_500_LN_7_LD_28_RN_9_RD_12_1.png","C_Dist_500_LN_9_LD_27_RN_20_RD_24_1.png"]],"dist500_I":[["I_Dist_500_LN_2_LD_3_RN_4_RD_24_0.png","I_Dist_500_LN_5_LD_6_RN_6_RD_18_0.png","I_Dist_500_LN_7_LD_8_RN_9_RD_24_0.png"],["I_Dist_500_LN_7_LD_21_RN_5_RD_6_1.png"]],"dist500_S":[["E_Dist_500_LN_6_LD_8_RN_6_RD_24_0.png"],["E_Dist_500_LN_2_LD_12_RN_2_RD_3_1.png","E_Dist_500_LN_6_LD_24_RN_6_RD_8_1.png"]]}},{"start_time":1549381586210,"click_time":1549381588890,"finger_time":1549381588050,"fix_duration":299.7798398244923,"trial":1,"RT":1840,"MT":840,"sideResp":1,"stimulus":[],"xmouse":[400.66668701171875,400.66668701171875,400.66668701171875,400.66668701171875,400.66668701171875,400.66668701171875,404,404,404,404,404,404,404,404,404,404,404.66668701171875,404.66668701171875,404.66668701171875,404.66668701171875,405.3333435058594,405.3333435058594,405.3333435058594,405.3333435058594,405.3333435058594,405.3333435058594,404.66668701171875,404.66668701171875,404.66668701171875,404.66668701171875,404.66668701171875,404.66668701171875,404.66668701171875,404.66668701171875,404.66668701171875,404.66668701171875,406.66668701171875,406.66668701171875,407.3333435058594,408,408,408.66668701171875,408.66668701171875,408.66668701171875,409.3333435058594,409.3333435058594,409.3333435058594,408.66668701171875,408.66668701171875,408.66668701171875,408.66668701171875,408.66668701171875,409.3333435058594,409.3333435058594,409.3333435058594,409.3333435058594,409.3333435058594,409.3333435058594,409.3333435058594,409.3333435058594,409.3333435058594,409.3333435058594,409.3333435058594,409.3333435058594,410,410,409.3333435058594,409.3333435058594,409.3333435058594,409.3333435058594,409.3333435058594,409.3333435058594,405.3333435058594,405.3333435058594,405.3333435058594,400.66668701171875,400,400,400.66668701171875,400.66668701171875,400.66668701171875,400.66668701171875,405.3333435058594,405.3333435058594,405.3333435058594,405.3333435058594,405.3333435058594,405.3333435058594,405.3333435058594,405.3333435058594,405.3333435058594,405.3333435058594,395.3333435058594,395.3333435058594,386.66668701171875,384,379.3333435058594,376.66668701171875,362.66668701171875,359.3333435058594,352,348.66668701171875,341.3333435058594,329.3333435058594,322,318,310,306,298.66668701171875,286.66668701171875,282,273.3333435058594,264.66668701171875,260.66668701171875,244.6666717529297,230,222,208,195.33334350585938,178,172,160.6666717529297,156,146.6666717529297,133.33334350585938,126,120.66667175292969,114.66667175292969,104,102,98,95.33333587646484,91.33333587646484,86,83.33333587646484],"ymouse":[831.3333740234375,831.3333740234375,831.3333740234375,831.3333740234375,831.3333740234375,831.3333740234375,829.3333740234375,829.3333740234375,829.3333740234375,829.3333740234375,829.3333740234375,829.3333740234375,829.3333740234375,829.3333740234375,829.3333740234375,829.3333740234375,830,829.3333740234375,829.3333740234375,829.3333740234375,829.3333740234375,829.3333740234375,829.3333740234375,829.3333740234375,829.3333740234375,829.3333740234375,830,830,830,830,830,830,830,830,830,830,828.6666870117188,828,828,828.6666870117188,828.6666870117188,828.6666870117188,828.6666870117188,828,828,828,827.3333740234375,827.3333740234375,827.3333740234375,827.3333740234375,827.3333740234375,827.3333740234375,827.3333740234375,827.3333740234375,827.3333740234375,827.3333740234375,827.3333740234375,827.3333740234375,827.3333740234375,827.3333740234375,827.3333740234375,827.3333740234375,826.6666870117188,826.6666870117188,826,826,826,826,826,826,826,826,822,822,822,814,813.3333740234375,812.6666870117188,812.6666870117188,812.6666870117188,812.6666870117188,812.6666870117188,810,810,810,810,810,810,810,810,810,810,764,764,742,736,725.3333740234375,718,685.3333740234375,678.6666870117188,662.6666870117188,654.6666870117188,638.6666870117188,613.3333740234375,596.6666870117188,588,571.3333740234375,563.3333740234375,546.6666870117188,522.6666870117188,512.6666870117188,495.3333435058594,479.3333435058594,470.66668701171875,440,412,396.66668701171875,370,346.66668701171875,310.66668701171875,299.3333435058594,278,266.66668701171875,246.66668701171875,216.6666717529297,197.33334350585938,186.6666717529297,170.6666717529297,148.6666717529297,142.6666717529297,132.6666717529297,126,116,102,94.66667175292969],"timestamp_mouse":[1,19,54,59,79,99,119,139,159,179,200,220,240,260,280,299,320,339,359,379,400,419,439,459,480,500,519,539,559,580,600,619,639,660,680,700,719,740,759,780,800,820,840,859,879,901,920,940,960,980,1000,1020,1039,1060,1079,1099,1120,1140,1160,1179,1200,1220,1240,1259,1280,1300,1319,1339,1360,1380,1399,1420,1439,1460,1479,1500,1519,1539,1559,1580,1600,1620,1639,1660,1681,1699,1719,1739,1759,1780,1799,1819,1840,1860,1880,1899,1920,1939,1961,1980,2000,2019,2039,2060,2081,2099,2119,2139,2160,2180,2199,2220,2240,2259,2281,2300,2319,2340,2359,2380,2399,2420,2439,2460,2480,2500,2520,2539,2561,2580,2599,2619,2640,2661,2680],"xSR":350,"ySR":768,"xT1":30,"yT1":0,"xT2":670,"yT2":0,"toosoon":0,"cond_shown":"Congruent","ratio_trial":500,"L_num":15,"L_den":20,"R_num":1,"R_den":4,"correct_side":1,"subjID":"48wm","gender":"No_gender","school":"No_school","age":"No_age"},{"start_time":1549381590653,"click_time":1549381593050,"finger_time":1549381592489,"fix_duration":322.4831291083681,"trial":2,"RT":1836,"MT":561,"sideResp":2,"stimulus":[],"xmouse":[394.66668701171875,394.66668701171875,394.66668701171875,394.66668701171875,394.66668701171875,394.66668701171875,394.66668701171875,394.66668701171875,398.66668701171875,398.66668701171875,398,398,398.66668701171875,398.66668701171875,398.66668701171875,398.66668701171875,399.3333435058594,399.3333435058594,399.3333435058594,399.3333435058594,399.3333435058594,399.3333435058594,396,396,396,396,396,396,396,396,396,396,394,394,394,394,394,394,394,394,394,394.66668701171875,394.66668701171875,394.66668701171875,394.66668701171875,394.66668701171875,394.66668701171875,394.66668701171875,394.66668701171875,394.66668701171875,394.66668701171875,394.66668701171875,395.3333435058594,395.3333435058594,395.3333435058594,395.3333435058594,395.3333435058594,395.3333435058594,395.3333435058594,395.3333435058594,395.3333435058594,396,396,396,396,396,396,396,396,396,396,396,396,396,396,396,396,396,398,398,398,398.66668701171875,400.66668701171875,403.3333435058594,404.66668701171875,407.3333435058594,408.66668701171875,416,418.66668701171875,424.66668701171875,427.3333435058594,434,444.66668701171875,452.66668701171875,457.3333435058594,470,478.66668701171875,535.3333740234375,552,579.3333740234375,586.6666870117188,596.6666870117188,607.3333740234375,612.6666870117188,614.6666870117188,618.6666870117188,621.3333740234375,636.6666870117188,640,646.6666870117188,650,658.6666870117188,674,684,691.3333740234375,701.3333740234375,704,713.3333740234375,720.6666870117188,724],"ymouse":[835.3333740234375,835.3333740234375,835.3333740234375,835.3333740234375,835.3333740234375,835.3333740234375,835.3333740234375,835.3333740234375,833.3333740234375,834,834.6666870117188,834.6666870117188,835.3333740234375,835.3333740234375,835.3333740234375,835.3333740234375,837.3333740234375,837.3333740234375,837.3333740234375,837.3333740234375,837.3333740234375,837.3333740234375,834.6666870117188,834.6666870117188,834.6666870117188,834.6666870117188,834.6666870117188,834.6666870117188,834.6666870117188,834.6666870117188,834.6666870117188,834.6666870117188,831.3333740234375,831.3333740234375,831.3333740234375,831.3333740234375,831.3333740234375,831.3333740234375,831.3333740234375,831.3333740234375,831.3333740234375,832,832,832,832,832,832,832,832,832,832,832,831.3333740234375,831.3333740234375,831.3333740234375,831.3333740234375,831.3333740234375,831.3333740234375,831.3333740234375,831.3333740234375,831.3333740234375,831.3333740234375,831.3333740234375,831.3333740234375,831.3333740234375,831.3333740234375,831.3333740234375,831.3333740234375,831.3333740234375,831.3333740234375,831.3333740234375,830,830,830,830,830,830,830,814.6666870117188,812,811.3333740234375,810,808.6666870117188,806,805.3333740234375,802.6666870117188,800.6666870117188,792,788,776.6666870117188,772,758.6666870117188,737.3333740234375,721.3333740234375,712,684.6666870117188,668.6666870117188,568.6666870117188,539.3333740234375,492.66668701171875,476,446.66668701171875,408.66668701171875,384.66668701171875,371.3333435058594,346,332.66668701171875,280.66668701171875,268.66668701171875,245.33334350585938,235.33334350585938,214.6666717529297,188,170,158,142.6666717529297,136,114,100,90.66667175292969],"timestamp_mouse":[16,37,57,76,96,116,136,157,177,196,216,237,257,277,296,317,337,356,376,396,416,436,456,477,496,516,537,557,576,597,616,636,656,677,697,717,736,756,776,797,816,838,856,877,897,917,937,956,977,997,1017,1037,1056,1077,1097,1117,1139,1156,1176,1196,1216,1238,1256,1277,1297,1317,1337,1357,1377,1396,1417,1438,1456,1476,1496,1516,1537,1556,1576,1596,1616,1637,1656,1676,1696,1717,1737,1756,1776,1797,1817,1836,1856,1877,1896,1916,1936,1957,1976,1996,2016,2036,2058,2076,2096,2116,2136,2158,2177,2196,2216,2236,2257,2276,2297,2316,2336,2357,2376,2396],"xSR":350,"ySR":768,"xT1":30,"yT1":0,"xT2":670,"yT2":0,"toosoon":0,"cond_shown":"Incongruent","ratio_trial":300,"L_num":4,"L_den":5,"R_num":6,"R_den":12,"correct_side":1,"subjID":"48wm","gender":"No_gender","school":"No_school","age":"No_age"},{"start_time":1549381597494,"click_time":1549381599730,"finger_time":1549381599169,"fix_duration":1203.6286967138794,"trial":3,"RT":1675,"MT":561,"sideResp":2,"stimulus":[],"xmouse":[406,406,406,406,406.66668701171875,406.66668701171875,406.66668701171875,406.66668701171875,406.66668701171875,406.66668701171875,406.66668701171875,406.66668701171875,406.66668701171875,406.66668701171875,403.3333435058594,403.3333435058594,402.66668701171875,402,401.3333435058594,400.66668701171875,400.66668701171875,400.66668701171875,400.66668701171875,400.66668701171875,398,398,398,398,398,396.66668701171875,396,396,396,396,396.66668701171875,396.66668701171875,396.66668701171875,396.66668701171875,396.66668701171875,396.66668701171875,396.66668701171875,396.66668701171875,397.3333435058594,397.3333435058594,397.3333435058594,398,398,398,398,398,398,398,398,398,398,402,402,402,402,402,402,402,402,402,402,402,402,401.3333435058594,400.66668701171875,400.66668701171875,400.66668701171875,401.3333435058594,403.3333435058594,406.66668701171875,408,412,414,420,421.3333435058594,423.3333435058594,424.66668701171875,427.3333435058594,434.66668701171875,442.66668701171875,448,464,472.66668701171875,486,501.3333435058594,508,512.6666870117188,526,542,552.6666870117188,558,569.3333740234375,576,590.6666870117188,612.6666870117188,624.6666870117188,630,641.3333740234375,656.6666870117188,667.3333740234375,671.3333740234375,677.3333740234375,680.6666870117188,686.6666870117188,690,692.6666870117188,694,698.6666870117188],"ymouse":[851.3333740234375,851.3333740234375,851.3333740234375,851.3333740234375,843.3333740234375,843.3333740234375,843.3333740234375,843.3333740234375,843.3333740234375,843.3333740234375,843.3333740234375,843.3333740234375,843.3333740234375,843.3333740234375,835.3333740234375,834.6666870117188,834.6666870117188,834.6666870117188,834.6666870117188,834.6666870117188,834.6666870117188,834.6666870117188,834.6666870117188,834.6666870117188,837.3333740234375,837.3333740234375,837.3333740234375,837.3333740234375,837.3333740234375,831.3333740234375,830,829.3333740234375,827.3333740234375,826.6666870117188,825.3333740234375,825.3333740234375,825.3333740234375,825.3333740234375,825.3333740234375,824.6666870117188,824.6666870117188,824.6666870117188,824.6666870117188,824.6666870117188,825.3333740234375,825.3333740234375,825.3333740234375,825.3333740234375,825.3333740234375,825.3333740234375,825.3333740234375,825.3333740234375,825.3333740234375,825.3333740234375,825.3333740234375,826,826,826,826,826,826,826,826,826,826,825.3333740234375,825.3333740234375,822.6666870117188,821.3333740234375,819.3333740234375,818.6666870117188,815.3333740234375,810.6666870117188,807.3333740234375,806,802.6666870117188,800.6666870117188,794.6666870117188,792.6666870117188,789.3333740234375,787.3333740234375,782,769.3333740234375,756,748.6666870117188,722.6666870117188,708,680,642.6666870117188,621.3333740234375,609.3333740234375,584,541.3333740234375,514,498.66668701171875,468,452.66668701171875,416.66668701171875,362.66668701171875,330,316,288,242,214,201.33334350585938,179.33334350585938,166,140.6666717529297,125.33334350585938,115.33334350585938,110,99.33333587646484],"timestamp_mouse":[15,37,55,75,95,115,135,155,176,195,216,235,255,275,296,316,335,355,376,395,416,436,457,476,495,516,536,556,576,596,615,636,655,675,695,716,736,755,775,795,815,836,856,876,896,916,935,955,976,996,1016,1035,1056,1075,1096,1116,1135,1155,1175,1195,1215,1236,1255,1275,1296,1315,1335,1357,1375,1396,1415,1435,1456,1475,1495,1515,1535,1557,1576,1595,1615,1635,1656,1675,1696,1715,1735,1756,1776,1795,1815,1836,1857,1876,1896,1915,1935,1956,1976,1996,2016,2035,2057,2076,2096,2116,2136,2157,2175,2195,2215,2235],"xSR":350,"ySR":768,"xT1":30,"yT1":0,"xT2":670,"yT2":0,"toosoon":0,"cond_shown":"Incongruent","ratio_trial":500,"L_num":7,"L_den":21,"R_num":5,"R_den":6,"correct_side":2,"subjID":"48wm","gender":"No_gender","school":"No_school","age":"No_age"},{"start_time":1549381601746,"click_time":1549381603950,"finger_time":1549381603309,"fix_duration":815.1672969434693,"trial":4,"RT":1563,"MT":641,"sideResp":1,"stimulus":[],"xmouse":[409.3333435058594,409.3333435058594,409.3333435058594,408.66668701171875,408.66668701171875,408.66668701171875,408.66668701171875,408.66668701171875,408.66668701171875,408.66668701171875,408.66668701171875,408.66668701171875,408.66668701171875,408.66668701171875,408.66668701171875,409.3333435058594,409.3333435058594,409.3333435058594,409.3333435058594,409.3333435058594,409.3333435058594,409.3333435058594,409.3333435058594,409.3333435058594,409.3333435058594,409.3333435058594,409.3333435058594,409.3333435058594,409.3333435058594,409.3333435058594,409.3333435058594,409.3333435058594,409.3333435058594,409.3333435058594,409.3333435058594,409.3333435058594,409.3333435058594,409.3333435058594,409.3333435058594,409.3333435058594,409.3333435058594,409.3333435058594,409.3333435058594,409.3333435058594,409.3333435058594,410,410,410,410,410,410,410,410,410,410,410.66668701171875,410.66668701171875,410.66668701171875,410.66668701171875,410.66668701171875,410.66668701171875,410.66668701171875,410.66668701171875,410.66668701171875,410.66668701171875,408.66668701171875,408.66668701171875,408.66668701171875,406,404,402.66668701171875,398,398,397.3333435058594,397.3333435058594,397.3333435058594,394.66668701171875,391.3333435058594,389.3333435058594,383.3333435058594,379.3333435058594,371.3333435058594,354.66668701171875,340,332.66668701171875,321.3333435058594,311.3333435058594,296,290,278,273.3333435058594,262,246,238,232,222,217.33334350585938,198.6666717529297,194,185.33334350585938,181.33334350585938,172.6666717529297,162,156.6666717529297,149.33334350585938,140,138,128.6666717529297,122.66667175292969,119.33333587646484,114],"ymouse":[815.3333740234375,815.3333740234375,815.3333740234375,816,816,816,816,816,816,816,816,816,816,816,816,819.3333740234375,819.3333740234375,819.3333740234375,819.3333740234375,819.3333740234375,819.3333740234375,819.3333740234375,819.3333740234375,819.3333740234375,819.3333740234375,816,816,816,816,816,816,816,816,816,816,815.3333740234375,815.3333740234375,815.3333740234375,815.3333740234375,815.3333740234375,815.3333740234375,815.3333740234375,815.3333740234375,815.3333740234375,815.3333740234375,816,816,816,816,816,816,816,816,816,816,815.3333740234375,815.3333740234375,815.3333740234375,815.3333740234375,815.3333740234375,815.3333740234375,815.3333740234375,815.3333740234375,815.3333740234375,815.3333740234375,815.3333740234375,815.3333740234375,815.3333740234375,814,813.3333740234375,812.6666870117188,806.6666870117188,804.6666870117188,798.6666870117188,796,788.6666870117188,778,769.3333740234375,763.3333740234375,749.3333740234375,742,726.6666870117188,696,665.3333740234375,652,627.3333740234375,600.6666870117188,560.6666870117188,546.6666870117188,519.3333740234375,506.66668701171875,481.3333435058594,445.3333435058594,420,406.66668701171875,380,368,319.3333435058594,307.3333435058594,285.3333435058594,274.66668701171875,254,224.6666717529297,209.33334350585938,188.6666717529297,168.6666717529297,163.33334350585938,136,120.66667175292969,112.66667175292969,98],"timestamp_mouse":[4,36,44,65,83,104,124,144,164,184,204,223,244,263,284,304,325,343,363,383,403,424,443,464,483,503,523,544,563,583,604,623,643,664,684,703,723,743,764,784,804,826,844,863,883,903,924,943,964,984,1003,1025,1044,1064,1084,1103,1124,1144,1164,1183,1204,1223,1243,1264,1283,1304,1323,1343,1364,1383,1403,1426,1443,1463,1483,1503,1525,1543,1563,1584,1604,1623,1644,1663,1683,1703,1723,1745,1764,1783,1803,1824,1844,1864,1883,1903,1924,1945,1963,1983,2004,2023,2043,2064,2084,2103,2123,2144,2164,2184,2203],"xSR":350,"ySR":768,"xT1":30,"yT1":0,"xT2":670,"yT2":0,"toosoon":0,"cond_shown":"Congruent","ratio_trial":300,"L_num":9,"L_den":10,"R_num":3,"R_den":5,"correct_side":1,"subjID":"48wm","gender":"No_gender","school":"No_school","age":"No_age"},{"start_time":1549381607125,"click_time":1549381609270,"finger_time":1549381608590,"fix_duration":1430.6120956684642,"trial":5,"RT":1465,"MT":680,"sideResp":2,"stimulus":[],"xmouse":[405.3333435058594,405.3333435058594,405.3333435058594,405.3333435058594,405.3333435058594,405.3333435058594,405.3333435058594,405.3333435058594,405.3333435058594,405.3333435058594,405.3333435058594,405.3333435058594,405.3333435058594,405.3333435058594,405.3333435058594,405.3333435058594,405.3333435058594,405.3333435058594,405.3333435058594,405.3333435058594,405.3333435058594,405.3333435058594,405.3333435058594,405.3333435058594,405.3333435058594,405.3333435058594,405.3333435058594,405.3333435058594,405.3333435058594,406.66668701171875,406.66668701171875,406.66668701171875,406.66668701171875,406.66668701171875,406.66668701171875,406.66668701171875,406.66668701171875,406.66668701171875,406.66668701171875,407.3333435058594,407.3333435058594,407.3333435058594,407.3333435058594,407.3333435058594,407.3333435058594,407.3333435058594,407.3333435058594,407.3333435058594,407.3333435058594,407.3333435058594,406.66668701171875,406.66668701171875,406.66668701171875,406.66668701171875,406.66668701171875,406.66668701171875,406.66668701171875,406.66668701171875,406.66668701171875,406.66668701171875,406.66668701171875,406.66668701171875,406.66668701171875,406.66668701171875,406.66668701171875,406.66668701171875,406.66668701171875,406,406,406,419.3333435058594,423.3333435058594,432,436.66668701171875,452,456,468,475.3333435058594,490,512.6666870117188,527.3333740234375,534,547.3333740234375,555.3333740234375,566,582.6666870117188,591.3333740234375,596.6666870117188,606,615.3333740234375,626.6666870117188,630.6666870117188,641.3333740234375,644.6666870117188,653.3333740234375,664.6666870117188,670,672.6666870117188,676.6666870117188,680.6666870117188,685.3333740234375,687.3333740234375,690.6666870117188,692,695.3333740234375,700,703.3333740234375,704.6666870117188],"ymouse":[826.6666870117188,826.6666870117188,826.6666870117188,826.6666870117188,826.6666870117188,826.6666870117188,826.6666870117188,826.6666870117188,826.6666870117188,825.3333740234375,825.3333740234375,825.3333740234375,825.3333740234375,825.3333740234375,825.3333740234375,825.3333740234375,825.3333740234375,825.3333740234375,825.3333740234375,822,822,822,822,822,822,822,822,822,822,822,822,822,822,822,822,822,822,822,822,822,822,822,822,822,822,822,822,822,822,822,824,824,824,824,824,824,824,824,824,824,824,824,824,824,824,824,824,812,812,812,788.6666870117188,781.3333740234375,768.6666870117188,761.3333740234375,728,717.3333740234375,688.6666870117188,672.6666870117188,642,601.3333740234375,574,558.6666870117188,530,515.3333740234375,488,448,421.3333435058594,408,382,356.66668701171875,321.3333435058594,310,286.66668701171875,274.66668701171875,252,225.33334350585938,209.33334350585938,200.6666717529297,188,176,159.33334350585938,154,144,139.33334350585938,130,115.33334350585938,104.66667175292969,99.33333587646484],"timestamp_mouse":[8,32,44,65,85,104,125,144,164,185,205,224,245,265,285,305,325,345,364,384,405,425,445,465,485,505,524,545,564,587,605,624,645,665,685,705,724,744,765,786,804,825,845,865,885,904,925,944,965,984,1004,1024,1045,1065,1086,1105,1124,1144,1164,1186,1204,1224,1245,1265,1284,1305,1324,1345,1364,1384,1405,1424,1444,1465,1486,1504,1524,1545,1564,1586,1604,1624,1645,1665,1685,1706,1725,1744,1764,1784,1805,1825,1844,1865,1885,1905,1924,1944,1965,1985,2006,2025,2045,2065,2085,2104,2125,2145],"xSR":350,"ySR":768,"xT1":30,"yT1":0,"xT2":670,"yT2":0,"toosoon":0,"cond_shown":"Incongruent","ratio_trial":100,"L_num":9,"L_den":10,"R_num":20,"R_den":25,"correct_side":1,"subjID":"48wm","gender":"No_gender","school":"No_school","age":"No_age"},{"start_time":1549381611478,"click_time":1549381613569,"finger_time":1549381613029,"fix_duration":687.7830963046478,"trial":6,"RT":1551,"MT":540,"sideResp":1,"stimulus":[],"xmouse":[388.66668701171875,388.66668701171875,388.66668701171875,388.66668701171875,388.66668701171875,388.66668701171875,388.66668701171875,389.3333435058594,389.3333435058594,389.3333435058594,389.3333435058594,389.3333435058594,389.3333435058594,389.3333435058594,389.3333435058594,389.3333435058594,389.3333435058594,389.3333435058594,389.3333435058594,389.3333435058594,389.3333435058594,389.3333435058594,389.3333435058594,389.3333435058594,389.3333435058594,389.3333435058594,389.3333435058594,390.66668701171875,390.66668701171875,390.66668701171875,390.66668701171875,390.66668701171875,390.66668701171875,390.66668701171875,390.66668701171875,390.66668701171875,390.66668701171875,392,392,392,392,392,392,392,392,392,392,392.66668701171875,392.66668701171875,392.66668701171875,392.66668701171875,392.66668701171875,392.66668701171875,392.66668701171875,392.66668701171875,392.66668701171875,392.66668701171875,392.66668701171875,392.66668701171875,392.66668701171875,392.66668701171875,392.66668701171875,392.66668701171875,392.66668701171875,392.66668701171875,392.66668701171875,392.66668701171875,392,392,392,392,392,392,392,392,392,381.3333435058594,380,374,372,365.3333435058594,362,352,331.3333435058594,320.66668701171875,314.66668701171875,302,296,274.66668701171875,262.66668701171875,249.33334350585938,242.6666717529297,228.6666717529297,207.33334350585938,200.6666717529297,187.33334350585938,175.33334350585938,168,148.6666717529297,133.33334350585938,127.33334350585938,114,103.33333587646484,98.66667175292969,87.33333587646484],"ymouse":[819.3333740234375,819.3333740234375,819.3333740234375,819.3333740234375,819.3333740234375,819.3333740234375,819.3333740234375,818,818,818,818,818,818,818,818,818,818,816,816,816,816,816,816,816,816,816,816,816.6666870117188,816.6666870117188,816.6666870117188,816.6666870117188,816.6666870117188,816.6666870117188,816.6666870117188,816.6666870117188,816.6666870117188,816.6666870117188,816.6666870117188,816.6666870117188,816.6666870117188,816.6666870117188,816.6666870117188,816.6666870117188,816.6666870117188,816.6666870117188,816.6666870117188,816.6666870117188,816,816,816,816,816,816,816,816,816,816,814.6666870117188,814.6666870117188,814.6666870117188,814.6666870117188,814.6666870117188,814.6666870117188,814.6666870117188,814.6666870117188,814.6666870117188,814.6666870117188,814,814,814,814,814,814,814,814,814,777.3333740234375,767.3333740234375,732.6666870117188,724,704.6666870117188,695.3333740234375,672,625.3333740234375,597.3333740234375,582.6666870117188,552,537.3333740234375,492.66668701171875,462.66668701171875,432.66668701171875,418.66668701171875,388.66668701171875,347.3333435058594,333.3333435058594,306,278.66668701171875,264.66668701171875,224.6666717529297,198,184.6666717529297,158,133.33334350585938,121.33334350585938,93.33333587646484],"timestamp_mouse":[11,32,51,72,91,111,132,152,172,191,212,232,251,271,291,312,331,352,371,392,411,432,452,471,491,511,532,552,572,591,612,631,651,671,691,711,732,751,771,792,812,831,852,871,892,911,931,952,971,991,1011,1032,1052,1071,1091,1111,1131,1151,1172,1192,1212,1231,1251,1272,1291,1312,1331,1351,1371,1391,1411,1432,1451,1471,1492,1511,1531,1551,1573,1592,1612,1632,1651,1671,1691,1711,1731,1751,1772,1791,1812,1831,1851,1874,1891,1912,1931,1951,1975,1991,2012,2031,2051,2072,2091],"xSR":350,"ySR":768,"xT1":30,"yT1":0,"xT2":670,"yT2":0,"toosoon":0,"cond_shown":"Congruent","ratio_trial":300,"L_num":20,"L_den":25,"R_num":9,"R_den":18,"correct_side":1,"subjID":"48wm","gender":"No_gender","school":"No_school","age":"No_age"},{"start_time":1549381615568,"click_time":1549381617870,"finger_time":1549381617209,"fix_duration":530.1508023327971,"trial":7,"RT":1641,"MT":661,"sideResp":1,"stimulus":[],"xmouse":[403.3333435058594,403.3333435058594,403.3333435058594,403.3333435058594,405.3333435058594,405.3333435058594,405.3333435058594,405.3333435058594,405.3333435058594,405.3333435058594,405.3333435058594,405.3333435058594,405.3333435058594,405.3333435058594,405.3333435058594,405.3333435058594,405.3333435058594,405.3333435058594,405.3333435058594,405.3333435058594,405.3333435058594,405.3333435058594,405.3333435058594,405.3333435058594,404.66668701171875,404.66668701171875,404.66668701171875,404.66668701171875,404.66668701171875,404.66668701171875,404.66668701171875,404.66668701171875,404.66668701171875,404.66668701171875,401.3333435058594,401.3333435058594,401.3333435058594,401.3333435058594,401.3333435058594,401.3333435058594,401.3333435058594,401.3333435058594,401.3333435058594,401.3333435058594,399.3333435058594,399.3333435058594,399.3333435058594,399.3333435058594,400,400,400,400,400,400,400,400,400,400,400,400,400,400,400,400,400,400,400,400,400,399.3333435058594,399.3333435058594,399.3333435058594,399.3333435058594,399.3333435058594,399.3333435058594,399.3333435058594,394,394.66668701171875,394.66668701171875,395.3333435058594,395.3333435058594,394,393.3333435058594,388.66668701171875,386.66668701171875,379.3333435058594,366.66668701171875,360,356,346.66668701171875,340.66668701171875,321.3333435058594,306.66668701171875,292.66668701171875,284.66668701171875,271.3333435058594,251.33334350585938,245.33334350585938,232.6666717529297,219.33334350585938,213.33334350585938,194.6666717529297,182,175.33334350585938,165.33334350585938,155.33334350585938,140,136.6666717529297,129.33334350585938,126,119.33333587646484,112.66667175292969,110,109.33333587646484,106.66667175292969,105.33333587646484],"ymouse":[812,812,812,812,812,812,812,812,812,812,812,812,812,812,812.6666870117188,812.6666870117188,812.6666870117188,812.6666870117188,812.6666870117188,812.6666870117188,812.6666870117188,812.6666870117188,812.6666870117188,812.6666870117188,814,814,814,814,814,814,814,814,814,814,818.6666870117188,818.6666870117188,818.6666870117188,818.6666870117188,818.6666870117188,818.6666870117188,818.6666870117188,818.6666870117188,818.6666870117188,818.6666870117188,818.6666870117188,818.6666870117188,818.6666870117188,820,820,820,820,820,820,820,820,820,820,820,820,820,820,820,820.6666870117188,820.6666870117188,820.6666870117188,820.6666870117188,820.6666870117188,820,820,819.3333740234375,819.3333740234375,819.3333740234375,819.3333740234375,819.3333740234375,819.3333740234375,819.3333740234375,795.3333740234375,787.3333740234375,784,778.6666870117188,772,768,766,757.3333740234375,750.6666870117188,731.3333740234375,697.3333740234375,680,668.6666870117188,638,620,576.6666870117188,550,524,509.3333740234375,479.3333435058594,435.3333435058594,422.66668701171875,395.3333435058594,368,356,317.3333435058594,291.3333435058594,279.3333435058594,254.66668701171875,231.33334350585938,198.6666717529297,190,173.33334350585938,164.6666717529297,148.6666717529297,128.6666717529297,116,111.33333587646484,101.33333587646484,97.33333587646484],"timestamp_mouse":[7,25,46,61,82,101,122,142,161,182,201,222,241,261,281,302,322,341,362,381,401,422,441,461,481,501,522,541,561,581,602,621,641,662,681,701,722,742,762,781,801,822,842,862,882,902,922,942,961,981,1001,1021,1042,1061,1081,1101,1121,1142,1162,1182,1201,1221,1241,1261,1282,1302,1322,1342,1361,1382,1402,1422,1441,1461,1481,1502,1522,1541,1562,1582,1604,1622,1641,1661,1681,1702,1722,1742,1761,1782,1801,1821,1841,1861,1882,1902,1922,1941,1961,1982,2001,2022,2041,2061,2081,2102,2123,2141,2161,2182,2201,2221,2242,2262,2282,2301],"xSR":350,"ySR":768,"xT1":30,"yT1":0,"xT2":670,"yT2":0,"toosoon":0,"cond_shown":"Congruent","ratio_trial":200,"L_num":8,"L_den":15,"R_num":2,"R_den":6,"correct_side":1,"subjID":"48wm","gender":"No_gender","school":"No_school","age":"No_age"},{"start_time":1549381619416,"click_time":1549381621430,"finger_time":1549381621009,"fix_duration":250,"trial":8,"RT":1593,"MT":421,"sideResp":2,"stimulus":[],"xmouse":[396,396,396,396,396,396,396,396,396,396.66668701171875,396.66668701171875,396.66668701171875,396.66668701171875,396.66668701171875,396.66668701171875,396.66668701171875,396.66668701171875,396.66668701171875,400,400,400,400,400,400,400,400,400,400,400.66668701171875,400.66668701171875,400.66668701171875,400.66668701171875,400.66668701171875,400.66668701171875,400.66668701171875,400.66668701171875,400.66668701171875,400.66668701171875,402,402,402,402,402,402,402,402,402,402,400,400,400,400,400,400,400,400,400,400,400.66668701171875,400.66668701171875,400.66668701171875,400.66668701171875,400.66668701171875,400.66668701171875,400.66668701171875,400.66668701171875,400.66668701171875,400.66668701171875,401.3333435058594,401.3333435058594,401.3333435058594,401.3333435058594,402,402.66668701171875,402.66668701171875,405.3333435058594,406.66668701171875,408.66668701171875,412,429.3333435058594,471.3333435058594,488,492.66668701171875,502,508,532,536,546.6666870117188,553.3333740234375,565.3333740234375,590,604,610.6666870117188,623.3333740234375,630.6666870117188,652,665.3333740234375,675.3333740234375,680,690,705.3333740234375,712],"ymouse":[834,834,834,834,834,834,834,834,829.3333740234375,830,830,830,830,830,830,830,830,830,834.6666870117188,834.6666870117188,834.6666870117188,834.6666870117188,834.6666870117188,834.6666870117188,834.6666870117188,834.6666870117188,834.6666870117188,834.6666870117188,836.6666870117188,836.6666870117188,836.6666870117188,836.6666870117188,836.6666870117188,836.6666870117188,836.6666870117188,836.6666870117188,836.6666870117188,836.6666870117188,834,834,834,834,834,834,834,834,834,834,830,830,830,830,830,830,830,830,830,830,829.3333740234375,829.3333740234375,829.3333740234375,829.3333740234375,829.3333740234375,829.3333740234375,829.3333740234375,829.3333740234375,829.3333740234375,829.3333740234375,829.3333740234375,829.3333740234375,828.6666870117188,827.3333740234375,826.6666870117188,824.6666870117188,824,818,815.3333740234375,808,800.6666870117188,770.6666870117188,704.6666870117188,667.3333740234375,652,625.3333740234375,610,546.6666870117188,533.3333740234375,504.66668701171875,486.66668701171875,453.3333435058594,397.3333435058594,362.66668701171875,345.3333435058594,312.66668701171875,296,245.33334350585938,213.33334350585938,183.33334350585938,170,142,106,87.33333587646484],"timestamp_mouse":[5,14,38,54,73,93,113,133,154,177,193,213,233,254,275,294,313,333,353,373,393,414,434,454,475,494,514,534,553,573,593,613,634,653,675,694,713,733,753,773,794,813,833,853,874,894,913,933,953,974,993,1014,1033,1053,1074,1093,1113,1133,1154,1174,1193,1214,1233,1254,1273,1294,1314,1333,1353,1373,1394,1413,1433,1454,1473,1493,1513,1534,1554,1574,1593,1613,1634,1653,1673,1693,1714,1734,1753,1773,1793,1813,1834,1854,1873,1894,1913,1934,1953,1974,1994,2014],"xSR":350,"ySR":768,"xT1":30,"yT1":0,"xT2":670,"yT2":0,"toosoon":0,"cond_shown":"Incongruent","ratio_trial":100,"L_num":6,"L_den":10,"R_num":7,"R_den":14,"correct_side":1,"subjID":"48wm","gender":"No_gender","school":"No_school","age":"No_age"},{"start_time":1549381623163,"click_time":1549381626110,"finger_time":1549381625489,"fix_duration":250,"trial":9,"RT":2326,"MT":621,"sideResp":2,"stimulus":[],"xmouse":[396,396,396,396,396,396,396,396,389.3333435058594,389.3333435058594,389.3333435058594,389.3333435058594,389.3333435058594,389.3333435058594,389.3333435058594,389.3333435058594,389.3333435058594,389.3333435058594,389.3333435058594,389.3333435058594,389.3333435058594,389.3333435058594,389.3333435058594,389.3333435058594,389.3333435058594,389.3333435058594,389.3333435058594,392,392,392,392,392,392,392,392,392,392,392,395.3333435058594,395.3333435058594,395.3333435058594,395.3333435058594,395.3333435058594,395.3333435058594,395.3333435058594,395.3333435058594,395.3333435058594,395.3333435058594,399.3333435058594,399.3333435058594,399.3333435058594,399.3333435058594,399.3333435058594,399.3333435058594,399.3333435058594,399.3333435058594,399.3333435058594,399.3333435058594,399.3333435058594,399.3333435058594,399.3333435058594,399.3333435058594,399.3333435058594,399.3333435058594,399.3333435058594,399.3333435058594,399.3333435058594,399.3333435058594,398.66668701171875,398.66668701171875,398.66668701171875,398.66668701171875,398.66668701171875,398.66668701171875,398.66668701171875,398.66668701171875,398.66668701171875,398.66668701171875,406.66668701171875,406.66668701171875,406.66668701171875,406.66668701171875,406.66668701171875,406.66668701171875,406.66668701171875,406.66668701171875,406.66668701171875,406.66668701171875,406.66668701171875,406.66668701171875,406.66668701171875,406.66668701171875,409.3333435058594,408.66668701171875,408.66668701171875,408.66668701171875,408.66668701171875,408.66668701171875,408,408,408,408,408,408,408.66668701171875,409.3333435058594,409.3333435058594,410,410,410,410,409.3333435058594,409.3333435058594,410,412.66668701171875,414.66668701171875,417.3333435058594,419.3333435058594,424.66668701171875,428.66668701171875,432,434,436,437.3333435058594,440,442.66668701171875,450,457.3333435058594,477.3333435058594,504.66668701171875,511.3333435058594,522,532,537.3333740234375,555.3333740234375,565.3333740234375,578,585.3333740234375,606.6666870117188,641.3333740234375,651.3333740234375,669.3333740234375,676.6666870117188,690.6666870117188,707.3333740234375,714.6666870117188,718,724],"ymouse":[831.3333740234375,831.3333740234375,831.3333740234375,831.3333740234375,831.3333740234375,831.3333740234375,831.3333740234375,831.3333740234375,829.3333740234375,829.3333740234375,829.3333740234375,829.3333740234375,829.3333740234375,829.3333740234375,829.3333740234375,829.3333740234375,829.3333740234375,829.3333740234375,828.6666870117188,828.6666870117188,828.6666870117188,828.6666870117188,828.6666870117188,828.6666870117188,828.6666870117188,828.6666870117188,828.6666870117188,828.6666870117188,828.6666870117188,828.6666870117188,828.6666870117188,828.6666870117188,828.6666870117188,828.6666870117188,828.6666870117188,828.6666870117188,828.6666870117188,828.6666870117188,830.6666870117188,830.6666870117188,830.6666870117188,830.6666870117188,830.6666870117188,830.6666870117188,830.6666870117188,830.6666870117188,830.6666870117188,830.6666870117188,832.6666870117188,832.6666870117188,832.6666870117188,832.6666870117188,832.6666870117188,832.6666870117188,832.6666870117188,832.6666870117188,832.6666870117188,832.6666870117188,832,832,832,832,832,832,832,832,832,832,830.6666870117188,830.6666870117188,830.6666870117188,830.6666870117188,830.6666870117188,830.6666870117188,830.6666870117188,830.6666870117188,830.6666870117188,830.6666870117188,822,821.3333740234375,822,822,822,822,822,822,822,822,828,828,828,828,829.3333740234375,828.6666870117188,828.6666870117188,828.6666870117188,828.6666870117188,828.6666870117188,828.6666870117188,828.6666870117188,828.6666870117188,828.6666870117188,828.6666870117188,828.6666870117188,808,805.3333740234375,805.3333740234375,799.3333740234375,796,792.6666870117188,792.6666870117188,788,785.3333740234375,783.3333740234375,772.6666870117188,770,762.6666870117188,758.6666870117188,745.3333740234375,734.6666870117188,723.3333740234375,717.3333740234375,705.3333740234375,699.3333740234375,680.6666870117188,662.6666870117188,641.3333740234375,626.6666870117188,586.6666870117188,532,517.3333740234375,490,460,445.3333435058594,401.3333435058594,374.66668701171875,348,334.66668701171875,298.66668701171875,243.33334350585938,226.6666717529297,200,187.33334350585938,163.33334350585938,132,115.33334350585938,108,96],"timestamp_mouse":[10,33,46,66,87,107,127,146,166,187,207,226,246,266,287,306,327,346,366,386,407,426,446,466,486,506,526,551,566,586,606,627,646,666,687,707,726,747,767,786,806,827,847,867,887,907,926,947,966,987,1007,1026,1046,1067,1087,1107,1126,1147,1166,1186,1206,1227,1247,1266,1286,1306,1327,1346,1366,1387,1407,1426,1447,1467,1487,1506,1526,1546,1567,1587,1606,1627,1646,1666,1687,1706,1726,1747,1766,1787,1806,1827,1847,1866,1886,1906,1926,1947,1967,1987,2006,2026,2046,2066,2087,2107,2127,2146,2166,2187,2206,2227,2246,2267,2287,2307,2326,2347,2369,2386,2406,2427,2446,2466,2487,2506,2526,2547,2567,2586,2606,2627,2647,2667,2688,2706,2727,2746,2766,2787,2806,2826,2847,2867,2887,2906,2927,2946],"xSR":350,"ySR":768,"xT1":30,"yT1":0,"xT2":670,"yT2":0,"toosoon":0,"cond_shown":"Incongruent","ratio_trial":500,"L_num":7,"L_den":21,"R_num":5,"R_den":6,"correct_side":2,"subjID":"48wm","gender":"No_gender","school":"No_school","age":"No_age"},{"start_time":1549381627461,"click_time":1549381629670,"finger_time":1549381628853,"fix_duration":250,"trial":10,"RT":1392,"MT":817,"sideResp":2,"stimulus":[],"xmouse":[394,394,394,394,394,394,394,394,389.3333435058594,389.3333435058594,389.3333435058594,389.3333435058594,389.3333435058594,389.3333435058594,389.3333435058594,387.3333435058594,387.3333435058594,387.3333435058594,387.3333435058594,387.3333435058594,388,388,388,388,388,388.66668701171875,388.66668701171875,388.66668701171875,388.66668701171875,388.66668701171875,389.3333435058594,389.3333435058594,389.3333435058594,389.3333435058594,390,390,390,390,390,389.3333435058594,389.3333435058594,389.3333435058594,389.3333435058594,389.3333435058594,390,390,390,390,390,390,390,390,390,390,390,389.3333435058594,389.3333435058594,389.3333435058594,389.3333435058594,389.3333435058594,389.3333435058594,389.3333435058594,389.3333435058594,388.66668701171875,388.66668701171875,389.3333435058594,389.3333435058594,389.3333435058594,389.3333435058594,410.66668701171875,418.66668701171875,422.66668701171875,428.66668701171875,430.66668701171875,435.3333435058594,442,448,452,464.66668701171875,474.66668701171875,484,488.66668701171875,501.3333435058594,509.3333435058594,526.6666870117188,548,560,565.3333740234375,580.6666870117188,586,599.3333740234375,602,603.3333740234375,603.3333740234375,603.3333740234375,604,618,623.3333740234375,637.3333740234375,640,646,646.6666870117188,648.6666870117188,649.3333740234375,652,660,666,668.6666870117188,675.3333740234375,678.6666870117188,691.3333740234375],"ymouse":[831.3333740234375,831.3333740234375,831.3333740234375,831.3333740234375,831.3333740234375,831.3333740234375,831.3333740234375,831.3333740234375,827.3333740234375,827.3333740234375,827.3333740234375,827.3333740234375,827.3333740234375,827.3333740234375,827.3333740234375,822,822,822,822,822,822,822,821.3333740234375,821.3333740234375,821.3333740234375,821.3333740234375,821.3333740234375,821.3333740234375,820.6666870117188,820,819.3333740234375,819.3333740234375,818,817.3333740234375,817.3333740234375,816.6666870117188,816,816,816,815.3333740234375,815.3333740234375,815.3333740234375,815.3333740234375,814,814,814,814,814,814,813.3333740234375,812.6666870117188,812.6666870117188,812,812,811.3333740234375,811.3333740234375,811.3333740234375,810,810,809.3333740234375,808.6666870117188,807.3333740234375,806,802,799.3333740234375,793.3333740234375,793.3333740234375,793.3333740234375,793.3333740234375,754,743.3333740234375,738,728.6666870117188,724,712.6666870117188,688.6666870117188,669.3333740234375,658,629.3333740234375,606.6666870117188,583.3333740234375,572.6666870117188,543.3333740234375,527.3333740234375,496.66668701171875,456.66668701171875,432,418.66668701171875,392.66668701171875,379.3333435058594,336.66668701171875,327.3333435058594,312,306,297.3333435058594,285.3333435058594,252.66668701171875,242,221.33334350585938,213.33334350585938,192.6666717529297,188,179.33334350585938,174,161.33334350585938,140,129.33334350585938,123.33334350585938,111.33333587646484,105.33333587646484,84],"timestamp_mouse":[9,29,48,69,88,108,128,149,168,188,208,228,249,268,288,308,329,349,368,389,410,429,448,469,488,508,529,548,568,588,609,628,648,669,689,709,729,748,768,788,808,829,849,868,888,909,928,949,969,989,1008,1028,1049,1069,1088,1109,1129,1149,1169,1188,1208,1228,1248,1268,1288,1309,1329,1349,1368,1392,1409,1429,1449,1469,1488,1511,1529,1548,1569,1588,1608,1629,1648,1669,1689,1710,1728,1748,1768,1788,1809,1828,1848,1869,1889,1908,1928,1948,1968,1988,2009,2028,2048,2068,2089,2108,2128,2149,2169,2188,2209],"xSR":350,"ySR":768,"xT1":30,"yT1":0,"xT2":670,"yT2":0,"toosoon":0,"cond_shown":"Incongruent","ratio_trial":500,"L_num":7,"L_den":21,"R_num":5,"R_den":6,"correct_side":2,"subjID":"48wm","gender":"No_gender","school":"No_school","age":"No_age"},{"start_time":1549381632482,"click_time":1549381634570,"finger_time":1549381634049,"fix_duration":1410.3439545234125,"trial":11,"RT":1567,"MT":521,"sideResp":1,"stimulus":[],"xmouse":[408.66668701171875,408.66668701171875,408.66668701171875,408.66668701171875,408.66668701171875,408.66668701171875,408.66668701171875,408.66668701171875,408.66668701171875,408.66668701171875,405.3333435058594,405.3333435058594,405.3333435058594,405.3333435058594,405.3333435058594,405.3333435058594,405.3333435058594,405.3333435058594,405.3333435058594,405.3333435058594,403.3333435058594,403.3333435058594,403.3333435058594,403.3333435058594,403.3333435058594,403.3333435058594,403.3333435058594,403.3333435058594,403.3333435058594,403.3333435058594,402,402,402,402,402,402,402,402,402,402,402,402.66668701171875,402.66668701171875,402.66668701171875,402.66668701171875,402.66668701171875,404.66668701171875,404.66668701171875,404.66668701171875,404.66668701171875,404,404,403.3333435058594,403.3333435058594,403.3333435058594,403.3333435058594,403.3333435058594,402.66668701171875,402.66668701171875,402.66668701171875,402,401.3333435058594,401.3333435058594,400.66668701171875,400.66668701171875,400.66668701171875,400.66668701171875,400.66668701171875,400.66668701171875,400.66668701171875,400.66668701171875,400.66668701171875,400.66668701171875,394.66668701171875,394.66668701171875,386.66668701171875,378,373.3333435058594,366.66668701171875,363.3333435058594,361.3333435058594,360.66668701171875,356,350.66668701171875,338.66668701171875,321.3333435058594,307.3333435058594,300.66668701171875,287.3333435058594,280.66668701171875,270.66668701171875,251.33334350585938,237.33334350585938,231.33334350585938,219.33334350585938,207.33334350585938,186.6666717529297,179.33334350585938,162,154,138.6666717529297,120.66667175292969,116,110,106.66667175292969],"ymouse":[818.6666870117188,818.6666870117188,818.6666870117188,818.6666870117188,818.6666870117188,818.6666870117188,818.6666870117188,818.6666870117188,818.6666870117188,818.6666870117188,823.3333740234375,823.3333740234375,823.3333740234375,823.3333740234375,823.3333740234375,823.3333740234375,823.3333740234375,823.3333740234375,823.3333740234375,823.3333740234375,822.6666870117188,822.6666870117188,822.6666870117188,822.6666870117188,822.6666870117188,822.6666870117188,822.6666870117188,822.6666870117188,822.6666870117188,822.6666870117188,822,822,822,822,822,822,822,822,822,822,822,829.3333740234375,829.3333740234375,829.3333740234375,829.3333740234375,829.3333740234375,833.3333740234375,834,834.6666870117188,835.3333740234375,836.6666870117188,836.6666870117188,837.3333740234375,837.3333740234375,837.3333740234375,838,838.6666870117188,840,840.6666870117188,842,842.6666870117188,842.6666870117188,842,842,842,842,842,842,842,842,842,842,842,824.6666870117188,824.6666870117188,803.3333740234375,790,782,766,747.3333740234375,721.3333740234375,710.6666870117188,679.3333740234375,660.6666870117188,625.3333740234375,579.3333740234375,550,535.3333740234375,510,496,472.66668701171875,434,408.66668701171875,394.66668701171875,360.66668701171875,324.66668701171875,272,254.66668701171875,220.6666717529297,204,173.33334350585938,130.6666717529297,120,104,94.66667175292969],"timestamp_mouse":[14,37,48,67,87,107,127,147,168,187,209,228,248,268,287,307,327,347,367,388,408,428,447,467,488,507,527,548,567,588,608,627,648,668,687,708,727,747,768,787,807,827,848,868,887,908,928,947,967,988,1008,1027,1049,1068,1087,1107,1128,1148,1168,1187,1208,1228,1248,1268,1288,1307,1328,1348,1368,1387,1408,1429,1447,1468,1487,1510,1527,1548,1567,1587,1609,1628,1648,1668,1688,1709,1728,1747,1767,1787,1808,1827,1847,1867,1887,1908,1929,1948,1967,1988,2007,2028,2047,2067,2087],"xSR":350,"ySR":768,"xT1":30,"yT1":0,"xT2":670,"yT2":0,"toosoon":0,"cond_shown":"Congruent","ratio_trial":100,"L_num":9,"L_den":15,"R_num":8,"R_den":16,"correct_side":1,"subjID":"48wm","gender":"No_gender","school":"No_school","age":"No_age"},{"start_time":1549381636599,"click_time":1549381638749,"finger_time":1549381638009,"fix_duration":342.4615278291265,"trial":12,"RT":1410,"MT":740,"sideResp":2,"stimulus":[],"xmouse":[396.66668701171875,396.66668701171875,396.66668701171875,396.66668701171875,396.66668701171875,396.66668701171875,396.66668701171875,398,398,398,398,398,398,398,398,398.66668701171875,398.66668701171875,398.66668701171875,398.66668701171875,399.3333435058594,399.3333435058594,399.3333435058594,399.3333435058594,399.3333435058594,399.3333435058594,399.3333435058594,399.3333435058594,399.3333435058594,399.3333435058594,399.3333435058594,399.3333435058594,399.3333435058594,399.3333435058594,399.3333435058594,399.3333435058594,399.3333435058594,399.3333435058594,399.3333435058594,399.3333435058594,399.3333435058594,399.3333435058594,399.3333435058594,399.3333435058594,399.3333435058594,399.3333435058594,398.66668701171875,398.66668701171875,399.3333435058594,399.3333435058594,399.3333435058594,399.3333435058594,400,400,400,400,400,400,400,400,400,400,400,400,400,400,400,400.66668701171875,400.66668701171875,401.3333435058594,404,406.66668701171875,418,430.66668701171875,451.3333435058594,461.3333435058594,478.66668701171875,502,517.3333740234375,524,533.3333740234375,538,546.6666870117188,551.3333740234375,557.3333740234375,560,565.3333740234375,572.6666870117188,578,582,590,595.3333740234375,612,616,624,628,634,645.3333740234375,651.3333740234375,654.6666870117188,660,664,678,681.3333740234375,684.6666870117188,686,690,694.6666870117188,698.6666870117188],"ymouse":[815.3333740234375,815.3333740234375,815.3333740234375,815.3333740234375,815.3333740234375,815.3333740234375,815.3333740234375,814,814,814,814,813.3333740234375,813.3333740234375,812.6666870117188,812.6666870117188,812.6666870117188,812.6666870117188,812.6666870117188,812.6666870117188,812.6666870117188,812.6666870117188,812.6666870117188,812.6666870117188,812.6666870117188,812,812,811.3333740234375,811.3333740234375,811.3333740234375,811.3333740234375,811.3333740234375,811.3333740234375,812,812,812,811.3333740234375,811.3333740234375,811.3333740234375,811.3333740234375,811.3333740234375,811.3333740234375,811.3333740234375,811.3333740234375,811.3333740234375,811.3333740234375,810.6666870117188,810,810,809.3333740234375,809.3333740234375,809.3333740234375,809.3333740234375,808.6666870117188,808.6666870117188,808.6666870117188,808.6666870117188,808.6666870117188,808.6666870117188,808.6666870117188,808,808,805.3333740234375,803.3333740234375,803.3333740234375,798.6666870117188,795.3333740234375,788.6666870117188,786.6666870117188,781.3333740234375,772.6666870117188,767.3333740234375,748.6666870117188,727.3333740234375,698,684.6666870117188,662,628.6666870117188,605.3333740234375,593.3333740234375,575.3333740234375,567.3333740234375,544.6666870117188,530.6666870117188,517.3333740234375,510.66668701171875,498,478,462.66668701171875,452,430,416.66668701171875,365.3333435058594,354,328,314.66668701171875,292.66668701171875,258,240,229.33334350585938,208,196.6666717529297,157.33334350585938,148.6666717529297,135.33334350585938,130,116,104,94.66667175292969],"timestamp_mouse":[25,31,51,70,91,111,130,150,171,191,211,231,251,270,290,310,330,350,371,391,411,430,451,470,491,511,530,550,571,590,610,630,651,670,691,710,731,751,771,790,810,830,850,870,891,910,930,951,971,990,1010,1030,1051,1070,1090,1110,1130,1151,1170,1191,1210,1231,1269,1271,1290,1310,1330,1350,1371,1391,1410,1431,1450,1471,1491,1511,1531,1551,1571,1591,1610,1631,1651,1670,1691,1710,1731,1751,1771,1790,1811,1831,1851,1871,1890,1911,1931,1950,1970,1990,2010,2032,2051,2070,2091,2110,2131,2150],"xSR":350,"ySR":768,"xT1":30,"yT1":0,"xT2":670,"yT2":0,"toosoon":0,"cond_shown":"Incongruent","ratio_trial":500,"L_num":7,"L_den":21,"R_num":5,"R_den":6,"correct_side":2,"subjID":"48wm","gender":"No_gender","school":"No_school","age":"No_age"},{"start_time":1549381641120,"click_time":1549381643690,"finger_time":1549381642949,"fix_duration":1269.0493628494091,"trial":13,"RT":1829,"MT":741,"sideResp":1,"stimulus":[],"xmouse":[404,404,404,404,404,404,404.66668701171875,404.66668701171875,404.66668701171875,404.66668701171875,404,404,404,404,404,404,404,404,404,404,404,404,404,404,404,404,404,404,404,404,404,404,404,404,404,404,404,404,404,404,404,404,404,404,404,404,404.66668701171875,404.66668701171875,404.66668701171875,404.66668701171875,404.66668701171875,404.66668701171875,404.66668701171875,404.66668701171875,404.66668701171875,404.66668701171875,405.3333435058594,405.3333435058594,405.3333435058594,405.3333435058594,405.3333435058594,405.3333435058594,405.3333435058594,405.3333435058594,405.3333435058594,405.3333435058594,405.3333435058594,405.3333435058594,405.3333435058594,405.3333435058594,405.3333435058594,405.3333435058594,405.3333435058594,405.3333435058594,405.3333435058594,405.3333435058594,406.66668701171875,406.66668701171875,406.66668701171875,406.66668701171875,406.66668701171875,406.66668701171875,406.66668701171875,406.66668701171875,406.66668701171875,400,400,399.3333435058594,399.3333435058594,397.3333435058594,396.66668701171875,394,386.66668701171875,378.66668701171875,375.3333435058594,367.3333435058594,363.3333435058594,345.3333435058594,330.66668701171875,318.66668701171875,312.66668701171875,302,285.3333435058594,281.3333435058594,274,267.3333435058594,264,249.33334350585938,246.6666717529297,240.6666717529297,237.33334350585938,228,211.33334350585938,205.33334350585938,194,184.6666717529297,179.33334350585938,164,156,152,143.33334350585938,140,125.33334350585938,122.66667175292969,116,113.33333587646484,108.66667175292969,102,98],"ymouse":[812.6666870117188,812.6666870117188,812.6666870117188,812.6666870117188,812.6666870117188,812.6666870117188,817.3333740234375,817.3333740234375,817.3333740234375,817.3333740234375,816.6666870117188,816.6666870117188,816.6666870117188,816.6666870117188,816.6666870117188,816.6666870117188,816,816,816,816,816,816,816,816,816,816,815.3333740234375,815.3333740234375,815.3333740234375,815.3333740234375,815.3333740234375,815.3333740234375,815.3333740234375,815.3333740234375,815.3333740234375,815.3333740234375,814.6666870117188,814.6666870117188,814.6666870117188,814.6666870117188,814.6666870117188,814.6666870117188,814.6666870117188,814.6666870117188,814.6666870117188,814.6666870117188,814,814,814,814,814,814,814,814,814,814,812.6666870117188,812.6666870117188,812.6666870117188,812.6666870117188,812.6666870117188,812.6666870117188,812.6666870117188,812.6666870117188,812.6666870117188,812.6666870117188,812,812,812,812,812,812,812,812,812,812,810.6666870117188,810.6666870117188,810.6666870117188,810.6666870117188,810.6666870117188,810.6666870117188,810.6666870117188,810.6666870117188,810.6666870117188,797.3333740234375,795.3333740234375,786.6666870117188,784.6666870117188,778.6666870117188,774.6666870117188,766,748,730.6666870117188,723.3333740234375,705.3333740234375,696,657.3333740234375,626.6666870117188,601.3333740234375,589.3333740234375,566.6666870117188,533.3333740234375,526.6666870117188,510.66668701171875,496.66668701171875,490,457.3333435058594,449.3333435058594,434,424.66668701171875,403.3333435058594,368.66668701171875,356.66668701171875,332,307.3333435058594,295.3333435058594,260.66668701171875,240.66668701171875,228.6666717529297,206,194.6666717529297,158.6666717529297,152,138,133.33334350585938,122.66667175292969,106,95.33333587646484],"timestamp_mouse":[10,31,49,70,89,110,129,149,169,190,209,230,249,269,289,309,329,349,370,389,409,429,449,469,490,509,530,549,570,590,609,629,649,670,689,709,729,750,770,789,809,829,849,870,890,909,929,949,970,989,1009,1030,1049,1069,1089,1110,1130,1149,1170,1189,1209,1229,1249,1269,1289,1310,1332,1349,1370,1390,1410,1430,1449,1470,1489,1510,1529,1549,1569,1590,1609,1630,1650,1670,1689,1709,1729,1750,1770,1789,1810,1829,1850,1870,1889,1909,1929,1949,1970,1989,2009,2029,2050,2069,2090,2110,2129,2152,2170,2189,2209,2229,2250,2269,2289,2310,2330,2351,2370,2390,2409,2429,2449,2469,2490,2509,2529,2550,2570],"xSR":350,"ySR":768,"xT1":30,"yT1":0,"xT2":670,"yT2":0,"toosoon":0,"cond_shown":"Incongruent","ratio_trial":300,"L_num":13,"L_den":26,"R_num":12,"R_den":15,"correct_side":2,"subjID":"48wm","gender":"No_gender","school":"No_school","age":"No_age"},{"start_time":1549381646563,"click_time":1549381649049,"finger_time":1549381648291,"fix_duration":792.6503523565412,"trial":14,"RT":1728,"MT":758,"sideResp":2,"stimulus":[],"xmouse":[400,400,400,400,400,400,400,400,400,400,400,400,400,400,400,400,400,400,400,400,400,400,400,400,400,400,400,400,400,400,400,400,400,400,400,400,400,400,400,400,400,400,400,400,400,400,400,400,400,400,400,400,400,400,400,400,400,400,400,400,400,400,400,400,400,400,400,400,400,400,400,400,400,400,400,400,400,400,407.3333435058594,409.3333435058594,409.3333435058594,409.3333435058594,423.3333435058594,428.66668701171875,432.66668701171875,442.66668701171875,462.66668701171875,476.66668701171875,482.66668701171875,494,498.66668701171875,507.3333435058594,519.3333740234375,526,529.3333740234375,536,539.3333740234375,552.6666870117188,556.6666870117188,567.3333740234375,574,587.3333740234375,602.6666870117188,612,616,626.6666870117188,632.6666870117188,653.3333740234375,656,661.3333740234375,663.3333740234375,668,674,677.3333740234375,678.6666870117188,682,684,690,691.3333740234375,694,695.3333740234375,698,702.6666870117188,705.3333740234375,706],"ymouse":[821,821,821,821,821,821,821,821,821,821,821,821,821,821,821,821,821,821,821,821,821,821,821,821,821,821,821,821,821,821,821,821,821,821,821,821,821,821,821,821,821,821,821,821,821,821,821,821,821,821,821,821,821,821,821,821,821,821,821,821,821,821,821,821,821,821,821,821,821,821,821,821,821,821,821,821,821,821,814.6666870117188,813.3333740234375,813.3333740234375,813.3333740234375,801.3333740234375,796.6666870117188,794,785.3333740234375,765.3333740234375,749.3333740234375,740.6666870117188,723.3333740234375,714.6666870117188,698,672,654.6666870117188,645.3333740234375,627.3333740234375,618,581.3333740234375,570.6666870117188,540.6666870117188,524.6666870117188,495.3333435058594,457.3333435058594,434.66668701171875,423.3333435058594,397.3333435058594,381.3333435058594,330.66668701171875,321.3333435058594,303.3333435058594,294,272.66668701171875,243.33334350585938,224.6666717529297,216.6666717529297,200,192.6666717529297,164,156.6666717529297,145.33334350585938,140,129.33334350585938,113.33334350585938,100.66667175292969,94.66667175292969],"timestamp_mouse":[13,39,46,67,87,106,127,147,166,186,207,226,246,266,286,306,326,347,367,386,406,427,446,466,487,507,526,546,566,586,606,627,646,666,687,707,726,746,766,786,806,827,847,867,887,906,927,946,966,986,1007,1027,1047,1067,1086,1107,1126,1146,1167,1187,1206,1227,1247,1266,1287,1307,1326,1346,1366,1386,1407,1427,1446,1466,1487,1506,1527,1546,1567,1587,1607,1626,1647,1666,1687,1706,1728,1746,1767,1787,1807,1826,1847,1866,1886,1906,1927,1947,1967,1987,2006,2027,2048,2066,2086,2107,2127,2148,2166,2186,2207,2226,2247,2267,2286,2306,2326,2346,2366,2386,2407,2426,2447,2466,2486],"xSR":350,"ySR":768,"xT1":30,"yT1":0,"xT2":670,"yT2":0,"toosoon":0,"cond_shown":"Congruent","ratio_trial":200,"L_num":6,"L_den":12,"R_num":7,"R_den":10,"correct_side":2,"subjID":"48wm","gender":"No_gender","school":"No_school","age":"No_age"},{"start_time":1549381651139,"click_time":1549381653432,"finger_time":1549381652469,"fix_duration":328.424071986795,"trial":15,"RT":1330,"MT":963,"sideResp":1,"stimulus":[],"xmouse":[408,408,408,408,408,408,408,408,408,408,408,408,408,408,407.3333435058594,407.3333435058594,407.3333435058594,407.3333435058594,407.3333435058594,407.3333435058594,407.3333435058594,407.3333435058594,407.3333435058594,407.3333435058594,409.3333435058594,409.3333435058594,409.3333435058594,409.3333435058594,409.3333435058594,409.3333435058594,409.3333435058594,409.3333435058594,409.3333435058594,409.3333435058594,408.66668701171875,408.66668701171875,408.66668701171875,408.66668701171875,408.66668701171875,408.66668701171875,408.66668701171875,408.66668701171875,408.66668701171875,408.66668701171875,408.66668701171875,408.66668701171875,408.66668701171875,408.66668701171875,408.66668701171875,408.66668701171875,408.66668701171875,408.66668701171875,406,406,404,404,402.66668701171875,402.66668701171875,402,401.3333435058594,400.66668701171875,400,399.3333435058594,398.66668701171875,396.66668701171875,396,394,392.66668701171875,389.3333435058594,382.66668701171875,376,373.3333435058594,367.3333435058594,364.66668701171875,358.66668701171875,348,341.3333435058594,338.66668701171875,333.3333435058594,324.66668701171875,318,314.66668701171875,308,305.3333435058594,296,289.3333435058594,281.3333435058594,278.66668701171875,270,259.3333435058594,255.33334350585938,249.33334350585938,242,238,228.6666717529297,221.33334350585938,218,211.33334350585938,208,194,190.6666717529297,184,180,174.6666717529297,166,160,157.33334350585938,151.33334350585938,148,142,132,126.66667175292969,123.33333587646484,118,108.66667175292969],"ymouse":[826,826,826,826,825.3333740234375,825.3333740234375,825.3333740234375,825.3333740234375,825.3333740234375,825.3333740234375,825.3333740234375,825.3333740234375,825.3333740234375,825.3333740234375,822.6666870117188,822.6666870117188,822.6666870117188,822.6666870117188,822.6666870117188,822.6666870117188,822.6666870117188,822.6666870117188,822.6666870117188,822.6666870117188,818.6666870117188,818,818,818,818,818,818,818,818,818,817.3333740234375,818,818,818,818,818,818,818,817.3333740234375,817.3333740234375,817.3333740234375,817.3333740234375,817.3333740234375,817.3333740234375,817.3333740234375,817.3333740234375,817.3333740234375,817.3333740234375,817.3333740234375,817.3333740234375,816.6666870117188,816,814.6666870117188,814,812,808,804.6666870117188,802,796.6666870117188,794,777.3333740234375,772,760.6666870117188,754.6666870117188,740,718.6666870117188,699.3333740234375,691.3333740234375,674,666,647.3333740234375,616,594,586,570.6666870117188,548.6666870117188,532,524,506.66668701171875,499.3333740234375,472.66668701171875,456.66668701171875,441.3333435058594,435.3333435058594,418.66668701171875,399.3333435058594,392,380.66668701171875,367.3333435058594,360,342,326.66668701171875,320.66668701171875,307.3333435058594,300.66668701171875,270.66668701171875,265.3333435058594,251.33334350585938,242.66668701171875,230,210,196.6666717529297,190.6666717529297,178.6666717529297,172.6666717529297,161.33334350585938,144,132.6666717529297,127.33334350585938,116,99.33333587646484],"timestamp_mouse":[10,37,50,71,91,110,130,150,170,190,210,230,250,271,290,310,330,351,370,390,410,431,451,470,491,511,531,550,570,591,610,631,651,670,690,710,730,751,770,790,810,831,851,870,890,910,930,950,971,991,1010,1030,1051,1070,1090,1111,1130,1150,1171,1190,1210,1231,1250,1271,1291,1310,1330,1350,1370,1392,1410,1430,1451,1470,1491,1510,1530,1550,1571,1591,1611,1630,1650,1671,1692,1710,1731,1751,1771,1791,1810,1830,1850,1871,1891,1911,1930,1950,1971,1991,2010,2031,2051,2070,2092,2110,2130,2150,2170,2191,2210,2230,2251,2270,2293],"xSR":350,"ySR":768,"xT1":30,"yT1":0,"xT2":670,"yT2":0,"toosoon":0,"cond_shown":"Congruent","ratio_trial":200,"L_num":15,"L_den":25,"R_num":4,"R_den":10,"correct_side":1,"subjID":"48wm","gender":"No_gender","school":"No_school","age":"No_age"},{"start_time":1549381655021,"click_time":1549381657190,"finger_time":1549381656509,"fix_duration":250,"trial":16,"RT":1488,"MT":681,"sideResp":1,"stimulus":[],"xmouse":[390.66668701171875,390.66668701171875,390.66668701171875,390.66668701171875,390.66668701171875,390.66668701171875,390.66668701171875,391.3333435058594,391.3333435058594,391.3333435058594,391.3333435058594,391.3333435058594,391.3333435058594,391.3333435058594,391.3333435058594,391.3333435058594,391.3333435058594,396.66668701171875,396.66668701171875,396.66668701171875,396.66668701171875,396.66668701171875,396.66668701171875,396.66668701171875,396.66668701171875,396.66668701171875,396.66668701171875,396,396,396,396,396,396,396,396,396,396,397.3333435058594,397.3333435058594,397.3333435058594,397.3333435058594,397.3333435058594,397.3333435058594,397.3333435058594,397.3333435058594,397.3333435058594,397.3333435058594,398,398,398,398,398,398,398,398,399.3333435058594,399.3333435058594,399.3333435058594,399.3333435058594,399.3333435058594,399.3333435058594,399.3333435058594,398.66668701171875,398.66668701171875,398.66668701171875,398.66668701171875,398.66668701171875,398.66668701171875,398.66668701171875,395.3333435058594,391.3333435058594,386.66668701171875,384,378.66668701171875,373.3333435058594,370.66668701171875,362.66668701171875,356.66668701171875,353.3333435058594,346,334.66668701171875,326,320,306,294,289.3333435058594,275.3333435058594,267.3333435058594,263.3333435058594,256,252.66668701171875,241.33334350585938,238,232.6666717529297,230,224,216,210.6666717529297,207.33334350585938,199.33334350585938,196,182.6666717529297,172.6666717529297,160.6666717529297,155.33334350585938,145.33334350585938,130,124.66667175292969],"ymouse":[807.3333740234375,807.3333740234375,807.3333740234375,807.3333740234375,807.3333740234375,807.3333740234375,807.3333740234375,813.3333740234375,813.3333740234375,813.3333740234375,813.3333740234375,813.3333740234375,813.3333740234375,813.3333740234375,813.3333740234375,813.3333740234375,813.3333740234375,822.6666870117188,822.6666870117188,822.6666870117188,822.6666870117188,822.6666870117188,822.6666870117188,822.6666870117188,822.6666870117188,822.6666870117188,822.6666870117188,822,822,822,822,822,822,822,822,822,822,822.6666870117188,822.6666870117188,822.6666870117188,822.6666870117188,822.6666870117188,822.6666870117188,822.6666870117188,822.6666870117188,822.6666870117188,822.6666870117188,823.3333740234375,823.3333740234375,823.3333740234375,823.3333740234375,823.3333740234375,823.3333740234375,823.3333740234375,823.3333740234375,824,824,824,824,824,824,823.3333740234375,822.6666870117188,822.6666870117188,822.6666870117188,822.6666870117188,822.6666870117188,822.6666870117188,822.6666870117188,802,791.3333740234375,780.6666870117188,773.3333740234375,758,742.6666870117188,735.3333740234375,713.3333740234375,698.6666870117188,689.3333740234375,673.3333740234375,651.3333740234375,636,626,598.6666870117188,568,554,520,499.3333740234375,486.66668701171875,460,446,393.3333435058594,380.66668701171875,358,346,322,288,265.3333435058594,254,230.6666717529297,222,192,170.6666717529297,150,137.33334350585938,121.33334350585938,97.33333587646484,90],"timestamp_mouse":[29,49,68,88,109,128,149,168,188,208,230,249,268,289,309,328,349,368,388,408,428,449,469,488,508,528,549,569,589,608,628,649,668,688,708,728,748,769,789,809,828,848,868,889,909,928,948,968,989,1009,1029,1048,1069,1088,1109,1128,1148,1169,1188,1208,1228,1250,1268,1288,1308,1329,1350,1369,1388,1408,1430,1448,1469,1488,1508,1528,1548,1569,1588,1609,1631,1648,1668,1688,1709,1729,1749,1768,1788,1809,1828,1850,1868,1888,1908,1928,1949,1968,1988,2008,2028,2050,2068,2089,2109,2129,2148,2168],"xSR":350,"ySR":768,"xT1":30,"yT1":0,"xT2":670,"yT2":0,"toosoon":0,"cond_shown":"Congruent","ratio_trial":200,"L_num":16,"L_den":20,"R_num":12,"R_den":20,"correct_side":1,"subjID":"48wm","gender":"No_gender","school":"No_school","age":"No_age"},{"start_time":1549381658961,"click_time":1549381661129,"finger_time":1549381660449,"fix_duration":250,"trial":17,"RT":1488,"MT":680,"sideResp":1,"stimulus":[],"xmouse":[398,398,398,398,397.3333435058594,397.3333435058594,397.3333435058594,396.66668701171875,396.66668701171875,396.66668701171875,396.66668701171875,396.66668701171875,396.66668701171875,396,395.3333435058594,395.3333435058594,394.66668701171875,394.66668701171875,394,394,393.3333435058594,394,393.3333435058594,393.3333435058594,393.3333435058594,392.66668701171875,392,392,392,392,392,392,392.66668701171875,392.66668701171875,392.66668701171875,392.66668701171875,392.66668701171875,392.66668701171875,392.66668701171875,392.66668701171875,392.66668701171875,392.66668701171875,392,392,392,392,392,392,392,392,392,392,391.3333435058594,391.3333435058594,391.3333435058594,391.3333435058594,391.3333435058594,391.3333435058594,391.3333435058594,391.3333435058594,391.3333435058594,391.3333435058594,392,392,391.3333435058594,391.3333435058594,391.3333435058594,391.3333435058594,391.3333435058594,390.66668701171875,388,384.66668701171875,383.3333435058594,380,377.3333435058594,368,365.3333435058594,359.3333435058594,356.66668701171875,348.66668701171875,337.3333435058594,329.3333435058594,324.66668701171875,315.3333435058594,310.66668701171875,292,286.66668701171875,278.66668701171875,276,270,260.66668701171875,257.3333435058594,250,242,238,222,212,201.33334350585938,196,186,169.33334350585938,164.6666717529297,154.6666717529297,144,138.6666717529297,123.33334350585938,112.66667175292969,107.33333587646484],"ymouse":[825.3333740234375,826,826.6666870117188,828,829.3333740234375,830,830.6666870117188,830.6666870117188,830,829.3333740234375,827.3333740234375,826.6666870117188,824.6666870117188,823.3333740234375,822.6666870117188,823.3333740234375,824,824.6666870117188,825.3333740234375,826,825.3333740234375,825.3333740234375,826,826,826,828,828.6666870117188,829.3333740234375,828.6666870117188,828.6666870117188,828.6666870117188,828.6666870117188,827.3333740234375,827.3333740234375,827.3333740234375,827.3333740234375,827.3333740234375,827.3333740234375,827.3333740234375,827.3333740234375,827.3333740234375,827.3333740234375,826.6666870117188,826.6666870117188,826.6666870117188,826.6666870117188,826.6666870117188,826.6666870117188,826.6666870117188,826.6666870117188,826.6666870117188,826.6666870117188,829.3333740234375,829.3333740234375,829.3333740234375,829.3333740234375,829.3333740234375,829.3333740234375,829.3333740234375,829.3333740234375,829.3333740234375,829.3333740234375,822,820.6666870117188,820,816.6666870117188,816,812,810,802.6666870117188,788.6666870117188,778,772.6666870117188,762.6666870117188,757.3333740234375,734,727.3333740234375,714,705.3333740234375,687.3333740234375,660.6666870117188,641.3333740234375,630.6666870117188,606,594,543.3333740234375,528.6666870117188,500.66668701171875,490,473.3333435058594,452,444,425.3333435058594,401.3333435058594,390,350,326,302.66668701171875,290,265.3333435058594,226.6666717529297,216,191.33334350585938,169.33334350585938,158,128,108,97.33333587646484],"timestamp_mouse":[29,48,68,89,110,128,149,168,188,211,229,248,268,289,310,328,348,369,389,408,429,449,468,488,509,528,549,569,589,608,628,648,669,688,709,728,749,769,789,809,828,848,869,889,909,928,948,969,989,1008,1028,1049,1068,1088,1108,1128,1148,1168,1189,1208,1228,1249,1269,1288,1309,1329,1349,1368,1389,1408,1428,1449,1468,1488,1508,1528,1548,1568,1589,1608,1630,1648,1669,1688,1709,1731,1749,1769,1788,1809,1832,1848,1868,1888,1908,1933,1949,1968,1989,2008,2029,2048,2069,2088,2108,2129,2149,2168],"xSR":350,"ySR":768,"xT1":30,"yT1":0,"xT2":670,"yT2":0,"toosoon":0,"cond_shown":"Congruent","ratio_trial":300,"L_num":4,"L_den":10,"R_num":1,"R_den":10,"correct_side":1,"subjID":"48wm","gender":"No_gender","school":"No_school","age":"No_age"},{"start_time":1549381662643,"click_time":1549381664912,"finger_time":1549381664149,"fix_duration":250,"trial":18,"RT":1506,"MT":763,"sideResp":2,"stimulus":[],"xmouse":[408.66668701171875,408.66668701171875,408.66668701171875,411.3333435058594,411.3333435058594,412,412,412.66668701171875,414.66668701171875,414.66668701171875,415.3333435058594,416,416,416.66668701171875,417.3333435058594,418,418.66668701171875,418.66668701171875,419.3333435058594,420,420,420,420,420,420,420,420.66668701171875,420.66668701171875,420.66668701171875,420.66668701171875,420.66668701171875,420.66668701171875,420.66668701171875,420.66668701171875,420.66668701171875,420.66668701171875,418.66668701171875,418.66668701171875,418.66668701171875,418.66668701171875,418.66668701171875,418.66668701171875,418.66668701171875,418.66668701171875,418.66668701171875,418.66668701171875,419.3333435058594,419.3333435058594,419.3333435058594,419.3333435058594,419.3333435058594,422,422,422,422.66668701171875,422.66668701171875,423.3333435058594,424,424.66668701171875,424.66668701171875,424.66668701171875,424.66668701171875,424.66668701171875,424.66668701171875,424.66668701171875,424.66668701171875,421.3333435058594,420.66668701171875,420,420,420,420,420,431.3333435058594,442,452.66668701171875,470,477.3333435058594,493.3333435058594,507.3333435058594,526,533.3333740234375,547.3333740234375,565.3333740234375,578,584.6666870117188,595.3333740234375,600.6666870117188,613.3333740234375,631.3333740234375,642,646.6666870117188,655.3333740234375,664,674,678,684.6666870117188,686,693.3333740234375,701.3333740234375,706.6666870117188,708.6666870117188,714,716.6666870117188,722,722.6666870117188,724,725.3333740234375,728,730,731.3333740234375,732,733.3333740234375,734],"ymouse":[826.6666870117188,826,826,825.3333740234375,824.6666870117188,824,822,821.3333740234375,819.3333740234375,818.6666870117188,819.3333740234375,819.3333740234375,820,821.3333740234375,822.6666870117188,822.6666870117188,823.3333740234375,823.3333740234375,824.6666870117188,825.3333740234375,826,826.6666870117188,827.3333740234375,828,828,828.6666870117188,828.6666870117188,828.6666870117188,828,828,828,828,828,828,828,828,826,826,826,826,826,826,826,826,826,826,828.6666870117188,828.6666870117188,828.6666870117188,828.6666870117188,828.6666870117188,828.6666870117188,828.6666870117188,828.6666870117188,828.6666870117188,828,828,828,828,828,827.3333740234375,827.3333740234375,827.3333740234375,827.3333740234375,827.3333740234375,827.3333740234375,814.6666870117188,812,806.6666870117188,806.6666870117188,806.6666870117188,806.6666870117188,806.6666870117188,796.6666870117188,787.3333740234375,776,756,747.3333740234375,726.6666870117188,706.6666870117188,679.3333740234375,665.3333740234375,640.6666870117188,604.6666870117188,580,568,542.6666870117188,531.3333740234375,506.66668701171875,469.3333435058594,444.66668701171875,433.3333435058594,410,386.66668701171875,354.66668701171875,340.66668701171875,318,312.66668701171875,290.66668701171875,264.66668701171875,247.33334350585938,239.33334350585938,222.6666717529297,215.33334350585938,187.33334350585938,180.6666717529297,170,164.6666717529297,149.33334350585938,137.33334350585938,124.66667175292969,118,106.66667175292969,92],"timestamp_mouse":[8,33,46,66,86,106,126,146,166,186,206,226,246,266,287,307,327,346,367,386,407,426,446,467,487,506,527,547,568,586,607,626,646,668,687,706,727,747,766,786,807,827,847,866,886,907,926,947,967,986,1007,1026,1046,1067,1087,1107,1126,1146,1167,1186,1207,1227,1246,1267,1286,1306,1326,1346,1367,1386,1406,1427,1446,1468,1486,1506,1527,1546,1567,1587,1607,1626,1646,1667,1686,1706,1726,1746,1767,1787,1806,1826,1846,1866,1888,1906,1926,1947,1967,1989,2007,2027,2046,2067,2087,2106,2126,2146,2169,2187,2206,2226,2246,2269],"xSR":350,"ySR":768,"xT1":30,"yT1":0,"xT2":670,"yT2":0,"toosoon":0,"cond_shown":"Congruent","ratio_trial":200,"L_num":3,"L_den":10,"R_num":11,"R_den":22,"correct_side":2,"subjID":"48wm","gender":"No_gender","school":"No_school","age":"No_age"},{"start_time":1549381666481,"click_time":1549381668590,"finger_time":1549381668070,"fix_duration":250,"trial":19,"RT":1589,"MT":520,"sideResp":1,"stimulus":[],"xmouse":[408,408,408,408,408,408,408,404,403.3333435058594,401.3333435058594,401.3333435058594,401.3333435058594,399.3333435058594,399.3333435058594,399.3333435058594,396.66668701171875,396.66668701171875,395.3333435058594,394.66668701171875,394,394,394,394,393.3333435058594,393.3333435058594,393.3333435058594,393.3333435058594,393.3333435058594,393.3333435058594,393.3333435058594,393.3333435058594,393.3333435058594,393.3333435058594,393.3333435058594,393.3333435058594,393.3333435058594,393.3333435058594,393.3333435058594,393.3333435058594,398.66668701171875,398.66668701171875,398.66668701171875,398.66668701171875,398.66668701171875,398.66668701171875,398.66668701171875,398.66668701171875,398.66668701171875,398.66668701171875,399.3333435058594,399.3333435058594,399.3333435058594,399.3333435058594,399.3333435058594,399.3333435058594,399.3333435058594,399.3333435058594,399.3333435058594,399.3333435058594,400.66668701171875,400.66668701171875,400.66668701171875,400.66668701171875,402,402,402,402,402,402,402.66668701171875,402.66668701171875,402.66668701171875,402.66668701171875,402.66668701171875,402.66668701171875,402.66668701171875,402.66668701171875,402.66668701171875,402.66668701171875,386.66668701171875,384,378,374,360,344,335.3333435058594,318,300.66668701171875,277.3333435058594,270,253.33334350585938,246,234,214.6666717529297,201.33334350585938,194,182.6666717529297,176.6666717529297,152.6666717529297,146.6666717529297,134.6666717529297,129.33334350585938,118,102.66667175292969,93.33333587646484,88.66667175292969],"ymouse":[828,828,828,828,828,828,828,812.6666870117188,810.6666870117188,808.6666870117188,808.6666870117188,808.6666870117188,808,808,808,810,810,809.3333740234375,808,807.3333740234375,807.3333740234375,807.3333740234375,807.3333740234375,804,803.3333740234375,802.6666870117188,802.6666870117188,803.3333740234375,803.3333740234375,804,804,804,804,804,804,804,804,804,804,809.3333740234375,809.3333740234375,809.3333740234375,809.3333740234375,809.3333740234375,809.3333740234375,809.3333740234375,809.3333740234375,809.3333740234375,809.3333740234375,809.3333740234375,809.3333740234375,809.3333740234375,809.3333740234375,809.3333740234375,809.3333740234375,809.3333740234375,809.3333740234375,809.3333740234375,809.3333740234375,807.3333740234375,807.3333740234375,807.3333740234375,807.3333740234375,807.3333740234375,807.3333740234375,807.3333740234375,807.3333740234375,807.3333740234375,807.3333740234375,807.3333740234375,807.3333740234375,807.3333740234375,807.3333740234375,807.3333740234375,807.3333740234375,807.3333740234375,807.3333740234375,807.3333740234375,807.3333740234375,758,752.6666870117188,738,729.3333740234375,700.6666870117188,667.3333740234375,650,620,593.3333740234375,550.6666870117188,534.6666870117188,503.3333740234375,487.3333435058594,456,409.3333435058594,378,362.66668701171875,331.3333435058594,315.3333435058594,252,238,210,197.33334350585938,172.6666717529297,131.33334350585938,107.33333587646484,95.33333587646484],"timestamp_mouse":[11,31,48,69,88,109,128,149,169,188,208,229,248,268,289,308,328,349,368,388,408,428,448,468,489,509,528,551,568,588,609,629,649,668,688,709,728,748,768,788,808,829,849,868,888,908,929,948,968,988,1008,1028,1048,1068,1089,1108,1128,1148,1168,1188,1208,1228,1249,1270,1288,1308,1329,1349,1368,1388,1409,1429,1449,1468,1488,1509,1529,1549,1568,1589,1608,1628,1648,1668,1688,1708,1729,1748,1769,1788,1809,1829,1849,1868,1888,1908,1928,1948,1969,1988,2008,2029,2049,2070,2088,2109],"xSR":350,"ySR":768,"xT1":30,"yT1":0,"xT2":670,"yT2":0,"toosoon":0,"cond_shown":"Incongruent","ratio_trial":100,"L_num":8,"L_den":16,"R_num":6,"R_den":10,"correct_side":2,"subjID":"48wm","gender":"No_gender","school":"No_school","age":"No_age"},{"start_time":1549381670722,"click_time":1549381672773,"finger_time":1549381672190,"fix_duration":250,"trial":20,"RT":1468,"MT":583,"sideResp":2,"stimulus":[],"xmouse":[394,394,394,394,394,394,394,394,394.66668701171875,394.66668701171875,394.66668701171875,394.66668701171875,394.66668701171875,394.66668701171875,394.66668701171875,394.66668701171875,394.66668701171875,394.66668701171875,394.66668701171875,400,400,400,400,400,400,400,400,400,400,404,404,404,404,403.3333435058594,403.3333435058594,402.66668701171875,402,401.3333435058594,400.66668701171875,400.66668701171875,400,400,400,400,400,400,400,400,400,400,400,400,400,401.3333435058594,401.3333435058594,402.66668701171875,403.3333435058594,403.3333435058594,403.3333435058594,403.3333435058594,408.66668701171875,408.66668701171875,408.66668701171875,408.66668701171875,408.66668701171875,408.66668701171875,408.66668701171875,408.66668701171875,408.66668701171875,408.66668701171875,425.3333435058594,425.3333435058594,446,452,462.66668701171875,480.66668701171875,492,522,538,550,556.6666870117188,568,585.3333740234375,590,601.3333740234375,608,612,620,627.3333740234375,630,638,644.6666870117188,656.6666870117188,662,668.6666870117188,674.6666870117188,678.6666870117188,689.3333740234375,696.6666870117188,702.6666870117188,705.3333740234375,710,718],"ymouse":[829.3333740234375,829.3333740234375,829.3333740234375,829.3333740234375,829.3333740234375,829.3333740234375,829.3333740234375,829.3333740234375,824,824,824,824,824,824,824,824,824,824,824,822.6666870117188,822.6666870117188,822.6666870117188,822.6666870117188,822.6666870117188,822.6666870117188,822.6666870117188,822.6666870117188,822.6666870117188,822.6666870117188,822.6666870117188,822.6666870117188,822.6666870117188,822.6666870117188,816.6666870117188,816,815.3333740234375,814.6666870117188,814,814,814.6666870117188,814.6666870117188,814.6666870117188,814.6666870117188,814.6666870117188,814.6666870117188,814.6666870117188,814.6666870117188,814.6666870117188,814.6666870117188,814.6666870117188,816,816,816,808,806.6666870117188,806,806,806,806,806,815.3333740234375,815.3333740234375,815.3333740234375,815.3333740234375,815.3333740234375,815.3333740234375,815.3333740234375,815.3333740234