[{"start_time":1549382165911,"click_time":1549382167093,"finger_time":1549382165916,"fix_duration":250,"trial":0,"RT":5,"MT":1177,"sideResp":2,"stimulus":"img/250/equaldotsize/R/10_Ratio_250_L_4_R_16.png","xmouse":[411,411,411,411,411,411,411,411,411,411,411,411,411,411,411,411,411,411,411,411,411,411,411,411,411,411,411,411,411,411,411,411,411,411,411,411,411,411,411,388,398,398,433.3333435058594,441.3333435058594,461.3333435058594,470.66668701171875,489.3333435058594,514,530,539.3333740234375,557.3333740234375,576,586.6666870117188,620,640,659.3333740234375,667.3333740234375,686,710.6666870117188,720],"ymouse":[587,587,587,587,587,587,587,587,587,587,587,587,587,587,587,587,587,587,587,587,587,587,587,587,587,587,587,587,587,587,587,587,587,587,587,587,587,587,587,844.6666870117188,830,830,768,751.3333740234375,714.6666870117188,696.6666870117188,654.6666870117188,586,537.3333740234375,511.3333740234375,458.66668701171875,406,379.3333435058594,302,255.33334350585938,210.6666717529297,190.6666717529297,154,108,83.33333587646484],"timestamp_mouse":[5,21,41,61,81,101,121,141,161,181,201,221,241,261,282,301,321,341,361,381,401,421,441,461,481,501,521,541,561,582,601,621,641,661,681,702,722,741,761,781,801,821,842,861,881,901,921,943,961,981,1001,1021,1041,1061,1081,1102,1121,1142,1163,1181],"xSR":350,"ySR":508.79999999999995,"xT1":30,"yT1":0,"xT2":670,"yT2":0,"toosoon":0,"cond_shown":"equaldotsize","ratio_trial":250,"smaller_num":"4","larger_num":"16","correct_side":2,"subjID":"48wm","gender":"No_gender","age":"No_age","school":"No_school","test":{"fix_dur":[250,1500],"timestim":400,"targets_dim":[100,100],"targets_relative_coord":[0.1,0.9],"size_stim":[880,420],"start_dim":[100,100],"size_start":[300,300],"size_fix":60,"samplingrate":20,"img_types":["equaldotsize","equaldotanddens","randomdotsize","randomdotsizeEA"],"ratios":[250,500,750,900],"rep_conds":7,"nTrials":128,"trials_to_rest":500,"Trials_order":[48,114,120,61,123,76,85,78,11,20,99,54,43,13,51,89,26,3,83,5,22,70,56,67,127,125,117,7,0,73,32,103,44,87,2,105,45,50,66,58,9,10,104,68,1,86,25,91,92,8,33,16,107,29,97,94,90,60,36,121,6,102,81,84,30,21,52,24,17,14,40,42,47,59,95,112,55,31,80,115,41,46,12,53,71,122,69,88,111,77,38,35,57,126,113,18,62,124,98,63,34,110,108,72,27,19,64,118,75,28,15,65,119,93,39,96,37,74,100,101,82,109,106,23,79,49,116,4],"cond_shown":["equaldotsize","randomdotsize","equaldotsize","equaldotanddens","randomdotsizeEA","equaldotsize","equaldotanddens","randomdotsize","randomdotsizeEA","equaldotsize","randomdotsizeEA","randomdotsize","randomdotsizeEA","equaldotanddens","randomdotsizeEA","equaldotanddens","randomdotsize","randomdotsizeEA","randomdotsizeEA","equaldotanddens","randomdotsize","randomdotsize","equaldotsize","randomdotsizeEA","randomdotsizeEA","equaldotanddens","equaldotanddens","randomdotsizeEA","equaldotsize","equaldotanddens","equaldotsize","randomdotsizeEA","equaldotsize","randomdotsizeEA","randomdotsize","equaldotanddens","equaldotanddens","randomdotsize","randomdotsize","randomdotsize","equaldotanddens","randomdotsize","equaldotsize","equaldotsize","equaldotanddens","randomdotsize","equaldotanddens","randomdotsizeEA","equaldotsize","equaldotsize","equaldotanddens","equaldotsize","randomdotsizeEA","equaldotanddens","equaldotanddens","randomdotsize","randomdotsize","equaldotsize","equaldotsize","equaldotanddens","randomdotsize","randomdotsize","equaldotanddens","equaldotsize","randomdotsize","equaldotanddens","equaldotsize","equaldotsize","equaldotanddens","randomdotsize","equaldotsize","randomdotsize","randomdotsizeEA","randomdotsizeEA","randomdotsizeEA","equaldotsize","randomdotsizeEA","randomdotsizeEA","equaldotsize","randomdotsizeEA","equaldotanddens","randomdotsize","equaldotsize","equaldotanddens","randomdotsizeEA","randomdotsize","equaldotanddens","equaldotsize","randomdotsizeEA","equaldotanddens","randomdotsize","randomdotsizeEA","equaldotanddens","randomdotsize","equaldotanddens","randomdotsize","randomdotsize","equaldotsize","randomdotsize","randomdotsizeEA","randomdotsize","randomdotsize","equaldotsize","equaldotsize","randomdotsizeEA","randomdotsizeEA","equaldotsize","randomdotsize","randomdotsizeEA","equaldotsize","randomdotsizeEA","equaldotanddens","randomdotsizeEA","equaldotanddens","randomdotsizeEA","equaldotsize","equaldotanddens","randomdotsize","equaldotsize","equaldotanddens","randomdotsize","equaldotanddens","randomdotsize","randomdotsizeEA","randomdotsizeEA","equaldotanddens","equaldotsize","equaldotsize"],"ratio_trial":[250,250,750,900,750,900,500,900,750,500,250,500,750,900,250,750,750,250,250,500,500,500,750,250,900,900,500,500,250,750,250,500,900,500,250,750,900,250,250,750,750,750,750,500,250,500,750,750,900,750,250,250,750,900,250,900,750,900,500,750,500,500,250,500,900,500,500,750,250,900,750,750,900,750,900,250,500,900,250,250,750,900,900,500,500,750,500,750,900,900,500,250,750,900,250,250,900,900,250,900,250,900,900,750,750,250,250,500,750,900,900,250,500,900,500,250,500,750,500,500,250,900,750,500,900,250,500,500],"smaller_num":["4","6","3","9","3","18","2","18","15","4","3","5","12","18","2","18","3","4","3","2","1","3","3","4","9","9","6","6","3","9","4","9","18","1","4","9","18","2","3","15","6","12","3","6","3","9","9","12","18","15","2","2","6","18","3","9","3","9","9","18","6","2","4","1","9","3","2","15","2","9","6","9","18","15","18","4","2","18","3","6","3","9","18","1","9","6","5","6","18","9","3","5","3","18","2","2","9","18","4","18","1","9","18","3","15","3","2","6","15","18","9","3","4","18","1","1","10","9","9","2","4","18","6","5","18","2","6","6"],"larger_num":["16","24","4","10","4","20","4","20","20","8","12","10","16","20","8","24","4","16","12","4","2","6","4","16","10","10","12","12","12","12","16","18","20","2","16","12","20","8","12","20","8","16","4","12","12","18","12","16","20","20","8","8","8","20","12","10","4","10","18","24","12","4","16","2","10","6","4","20","8","10","8","12","20","20","20","16","4","20","12","24","4","10","20","2","18","8","10","8","20","10","6","20","4","20","8","8","10","20","16","20","4","10","20","4","20","12","8","12","20","20","10","12","8","20","2","4","20","12","18","4","16","20","8","10","20","8","12","12"],"correct_side":[2,1,2,2,2,2,1,2,2,1,1,2,2,2,2,1,2,2,1,2,2,2,2,1,1,2,1,1,1,2,1,1,1,2,1,2,1,2,1,2,1,2,1,1,1,2,2,2,1,2,2,1,2,1,1,1,2,2,1,1,1,2,1,2,2,2,1,2,1,2,1,2,1,2,2,1,1,1,2,2,1,2,1,2,1,2,1,1,2,2,2,2,1,2,2,1,1,1,1,1,2,2,2,2,2,1,1,1,2,1,2,1,1,2,2,2,2,2,1,1,1,2,1,2,1,1,1,1],"img_shown":["img/250/equaldotsize/R/10_Ratio_250_L_4_R_16.png","img/250/randomdotsize/L/5_Ratio_250_L_24_R_6.png","img/750/equaldotsize/R/7_Ratio_750_L_3_R_4.png","img/900/equaldotanddens/R/7_Ratio_900_L_9_R_10.png","img/750/randomdotsizeEA/R/7_Ratio_750_L_3_R_4.png","img/900/equaldotsize/R/12_Ratio_900_L_18_R_20.png","img/500/equaldotanddens/L/10_Ratio_500_L_4_R_2.png","img/900/randomdotsize/R/12_Ratio_900_L_18_R_20.png","img/750/randomdotsizeEA/R/4_Ratio_750_L_15_R_20.png","img/500/equaldotsize/L/8_Ratio_500_L_8_R_4.png","img/250/randomdotsizeEA/L/14_Ratio_250_L_12_R_3.png","img/500/randomdotsize/R/14_Ratio_500_L_5_R_10.png","img/750/randomdotsizeEA/R/11_Ratio_750_L_12_R_16.png","img/900/equaldotanddens/R/9_Ratio_900_L_18_R_20.png","img/250/randomdotsizeEA/R/13_Ratio_250_L_2_R_8.png","img/750/equaldotanddens/L/6_Ratio_750_L_24_R_18.png","img/750/randomdotsize/R/12_Ratio_750_L_3_R_4.png","img/250/randomdotsizeEA/R/10_Ratio_250_L_4_R_16.png","img/250/randomdotsizeEA/L/15_Ratio_250_L_12_R_3.png","img/500/equaldotanddens/R/9_Ratio_500_L_2_R_4.png","img/500/randomdotsize/R/12_Ratio_500_L_1_R_2.png","img/500/randomdotsize/R/2_Ratio_500_L_3_R_6.png","img/750/equaldotsize/R/12_Ratio_750_L_3_R_4.png","img/250/randomdotsizeEA/L/2_Ratio_250_L_16_R_4.png","img/900/randomdotsizeEA/L/1_Ratio_900_L_10_R_9.png","img/900/equaldotanddens/R/15_Ratio_900_L_9_R_10.png","img/500/equaldotanddens/L/13_Ratio_500_L_12_R_6.png","img/500/randomdotsizeEA/L/11_Ratio_500_L_12_R_6.png","img/250/equaldotsize/L/15_Ratio_250_L_12_R_3.png","img/750/equaldotanddens/R/15_Ratio_750_L_9_R_12.png","img/250/equaldotsize/L/2_Ratio_250_L_16_R_4.png","img/500/randomdotsizeEA/L/4_Ratio_500_L_18_R_9.png","img/900/equaldotsize/L/10_Ratio_900_L_20_R_18.png","img/500/randomdotsizeEA/R/12_Ratio_500_L_1_R_2.png","img/250/randomdotsize/L/2_Ratio_250_L_16_R_4.png","img/750/equaldotanddens/R/15_Ratio_750_L_9_R_12.png","img/900/equaldotanddens/L/8_Ratio_900_L_20_R_18.png","img/250/randomdotsize/R/13_Ratio_250_L_2_R_8.png","img/250/randomdotsize/L/15_Ratio_250_L_12_R_3.png","img/750/randomdotsize/R/3_Ratio_750_L_15_R_20.png","img/750/equaldotanddens/L/14_Ratio_750_L_8_R_6.png","img/750/randomdotsize/R/11_Ratio_750_L_12_R_16.png","img/750/equaldotsize/L/10_Ratio_750_L_4_R_3.png","img/500/equaldotsize/L/11_Ratio_500_L_12_R_6.png","img/250/equaldotanddens/L/14_Ratio_250_L_12_R_3.png","img/500/randomdotsize/R/1_Ratio_500_L_9_R_18.png","img/750/equaldotanddens/R/15_Ratio_750_L_9_R_12.png","img/750/randomdotsizeEA/R/11_Ratio_750_L_12_R_16.png","img/900/equaldotsize/L/10_Ratio_900_L_20_R_18.png","img/750/equaldotsize/R/4_Ratio_750_L_15_R_20.png","img/250/equaldotanddens/R/13_Ratio_250_L_2_R_8.png","img/250/equaldotsize/L/7_Ratio_250_L_8_R_2.png","img/750/randomdotsizeEA/R/2_Ratio_750_L_6_R_8.png","img/900/equaldotanddens/L/10_Ratio_900_L_20_R_18.png","img/250/equaldotanddens/L/15_Ratio_250_L_12_R_3.png","img/900/randomdotsize/L/1_Ratio_900_L_10_R_9.png","img/750/randomdotsize/R/7_Ratio_750_L_3_R_4.png","img/900/equaldotsize/R/3_Ratio_900_L_9_R_10.png","img/500/equaldotsize/L/4_Ratio_500_L_18_R_9.png","img/750/equaldotanddens/L/6_Ratio_750_L_24_R_18.png","img/500/randomdotsize/L/11_Ratio_500_L_12_R_6.png","img/500/randomdotsize/R/9_Ratio_500_L_2_R_4.png","img/250/equaldotanddens/L/2_Ratio_250_L_16_R_4.png","img/500/equaldotsize/R/12_Ratio_500_L_1_R_2.png","img/900/randomdotsize/R/6_Ratio_900_L_9_R_10.png","img/500/equaldotanddens/R/2_Ratio_500_L_3_R_6.png","img/500/equaldotsize/L/10_Ratio_500_L_4_R_2.png","img/750/equaldotsize/R/3_Ratio_750_L_15_R_20.png","img/250/equaldotanddens/L/3_Ratio_250_L_8_R_2.png","img/900/randomdotsize/R/5_Ratio_900_L_9_R_10.png","img/750/equaldotsize/L/14_Ratio_750_L_8_R_6.png","img/750/randomdotsize/R/15_Ratio_750_L_9_R_12.png","img/900/randomdotsizeEA/L/2_Ratio_900_L_20_R_18.png","img/750/randomdotsizeEA/R/4_Ratio_750_L_15_R_20.png","img/900/randomdotsizeEA/R/9_Ratio_900_L_18_R_20.png","img/250/equaldotsize/L/2_Ratio_250_L_16_R_4.png","img/500/randomdotsizeEA/L/5_Ratio_500_L_4_R_2.png","img/900/randomdotsizeEA/L/10_Ratio_900_L_20_R_18.png","img/250/equaldotsize/R/9_Ratio_250_L_3_R_12.png","img/250/randomdotsizeEA/R/6_Ratio_250_L_6_R_24.png","img/750/equaldotanddens/L/10_Ratio_750_L_4_R_3.png","img/900/randomdotsize/R/3_Ratio_900_L_9_R_10.png","img/900/equaldotsize/L/8_Ratio_900_L_20_R_18.png","img/500/equaldotanddens/R/12_Ratio_500_L_1_R_2.png","img/500/randomdotsizeEA/L/4_Ratio_500_L_18_R_9.png","img/750/randomdotsize/R/2_Ratio_750_L_6_R_8.png","img/500/equaldotanddens/L/7_Ratio_500_L_10_R_5.png","img/750/equaldotsize/L/13_Ratio_750_L_8_R_6.png","img/900/randomdotsizeEA/R/14_Ratio_900_L_18_R_20.png","img/900/equaldotanddens/R/7_Ratio_900_L_9_R_10.png","img/500/randomdotsize/R/2_Ratio_500_L_3_R_6.png","img/250/randomdotsizeEA/R/12_Ratio_250_L_5_R_20.png","img/750/equaldotanddens/L/8_Ratio_750_L_4_R_3.png","img/900/randomdotsize/R/9_Ratio_900_L_18_R_20.png","img/250/equaldotanddens/R/13_Ratio_250_L_2_R_8.png","img/250/randomdotsize/L/3_Ratio_250_L_8_R_2.png","img/900/randomdotsize/L/1_Ratio_900_L_10_R_9.png","img/900/equaldotsize/L/10_Ratio_900_L_20_R_18.png","img/250/randomdotsize/L/2_Ratio_250_L_16_R_4.png","img/900/randomdotsizeEA/L/4_Ratio_900_L_20_R_18.png","img/250/randomdotsize/R/8_Ratio_250_L_1_R_4.png","img/900/randomdotsize/R/5_Ratio_900_L_9_R_10.png","img/900/equaldotsize/R/13_Ratio_900_L_18_R_20.png","img/750/equaldotsize/R/7_Ratio_750_L_3_R_4.png","img/750/randomdotsizeEA/R/4_Ratio_750_L_15_R_20.png","img/250/randomdotsizeEA/L/15_Ratio_250_L_12_R_3.png","img/250/equaldotsize/L/3_Ratio_250_L_8_R_2.png","img/500/randomdotsize/L/13_Ratio_500_L_12_R_6.png","img/750/randomdotsizeEA/R/3_Ratio_750_L_15_R_20.png","img/900/equaldotsize/L/2_Ratio_900_L_20_R_18.png","img/900/randomdotsizeEA/R/6_Ratio_900_L_9_R_10.png","img/250/equaldotanddens/L/14_Ratio_250_L_12_R_3.png","img/500/randomdotsizeEA/L/8_Ratio_500_L_8_R_4.png","img/900/equaldotanddens/R/9_Ratio_900_L_18_R_20.png","img/500/randomdotsizeEA/R/12_Ratio_500_L_1_R_2.png","img/250/equaldotsize/R/8_Ratio_250_L_1_R_4.png","img/500/equaldotanddens/R/3_Ratio_500_L_10_R_20.png","img/750/randomdotsize/R/15_Ratio_750_L_9_R_12.png","img/500/equaldotsize/L/4_Ratio_500_L_18_R_9.png","img/500/equaldotanddens/L/5_Ratio_500_L_4_R_2.png","img/250/randomdotsize/L/2_Ratio_250_L_16_R_4.png","img/900/equaldotanddens/R/13_Ratio_900_L_18_R_20.png","img/750/randomdotsize/L/13_Ratio_750_L_8_R_6.png","img/500/randomdotsizeEA/R/14_Ratio_500_L_5_R_10.png","img/900/randomdotsizeEA/L/2_Ratio_900_L_20_R_18.png","img/250/equaldotanddens/L/7_Ratio_250_L_8_R_2.png","img/500/equaldotsize/L/13_Ratio_500_L_12_R_6.png","img/500/equaldotsize/L/13_Ratio_500_L_12_R_6.png"],"Rat0":[["12_Ratio_0_L_9_R_0.png","13_Ratio_0_L_6_R_0.png","5_Ratio_0_L_2_R_0.png","6_Ratio_0_L_4_R_0.png","8_Ratio_0_L_6_R_0.png"],["1_Ratio_0_L_0_R_17.png","10_Ratio_0_L_0_R_22.png","11_Ratio_0_L_0_R_1.png","14_Ratio_0_L_0_R_24.png","15_Ratio_0_L_0_R_4.png","2_Ratio_0_L_0_R_5.png","3_Ratio_0_L_0_R_17.png","4_Ratio_0_L_0_R_7.png","7_Ratio_0_L_0_R_19.png","9_Ratio_0_L_0_R_15.png"]],"Rat250":[["1_Ratio_250_L_8_R_2.png","14_Ratio_250_L_12_R_3.png","15_Ratio_250_L_12_R_3.png","2_Ratio_250_L_16_R_4.png","3_Ratio_250_L_8_R_2.png","5_Ratio_250_L_24_R_6.png","7_Ratio_250_L_8_R_2.png"],["10_Ratio_250_L_4_R_16.png","11_Ratio_250_L_3_R_12.png","12_Ratio_250_L_5_R_20.png","13_Ratio_250_L_2_R_8.png","4_Ratio_250_L_3_R_12.png","6_Ratio_250_L_6_R_24.png","8_Ratio_250_L_1_R_4.png","9_Ratio_250_L_3_R_12.png"]],"Rat500":[["10_Ratio_500_L_4_R_2.png","11_Ratio_500_L_12_R_6.png","13_Ratio_500_L_12_R_6.png","4_Ratio_500_L_18_R_9.png","5_Ratio_500_L_4_R_2.png","7_Ratio_500_L_10_R_5.png","8_Ratio_500_L_8_R_4.png"],["1_Ratio_500_L_9_R_18.png","12_Ratio_500_L_1_R_2.png","14_Ratio_500_L_5_R_10.png","15_Ratio_500_L_1_R_2.png","2_Ratio_500_L_3_R_6.png","3_Ratio_500_L_10_R_20.png","6_Ratio_500_L_9_R_18.png","9_Ratio_500_L_2_R_4.png"]],"Rat750":[["1_Ratio_750_L_20_R_15.png","10_Ratio_750_L_4_R_3.png","13_Ratio_750_L_8_R_6.png","14_Ratio_750_L_8_R_6.png","6_Ratio_750_L_24_R_18.png","8_Ratio_750_L_4_R_3.png","9_Ratio_750_L_4_R_3.png"],["11_Ratio_750_L_12_R_16.png","12_Ratio_750_L_3_R_4.png","15_Ratio_750_L_9_R_12.png","2_Ratio_750_L_6_R_8.png","3_Ratio_750_L_15_R_20.png","4_Ratio_750_L_15_R_20.png","5_Ratio_750_L_15_R_20.png","7_Ratio_750_L_3_R_4.png"]],"Rat900":[["1_Ratio_900_L_10_R_9.png","10_Ratio_900_L_20_R_18.png","2_Ratio_900_L_20_R_18.png","4_Ratio_900_L_20_R_18.png","8_Ratio_900_L_20_R_18.png"],["11_Ratio_900_L_18_R_20.png","12_Ratio_900_L_18_R_20.png","13_Ratio_900_L_18_R_20.png","14_Ratio_900_L_18_R_20.png","15_Ratio_900_L_9_R_10.png","3_Ratio_900_L_9_R_10.png","5_Ratio_900_L_9_R_10.png","6_Ratio_900_L_9_R_10.png","7_Ratio_900_L_9_R_10.png","9_Ratio_900_L_18_R_20.png"]],"Rat1000":[["10_Ratio_1000_L_16_R_16.png","11_Ratio_1000_L_6_R_6.png","12_Ratio_1000_L_14_R_14.png","13_Ratio_1000_L_20_R_20.png","15_Ratio_1000_L_15_R_15.png","2_Ratio_1000_L_17_R_17.png","4_Ratio_1000_L_9_R_9.png","5_Ratio_1000_L_6_R_6.png","6_Ratio_1000_L_19_R_19.png","8_Ratio_1000_L_14_R_14.png","9_Ratio_1000_L_25_R_25.png"],["1_Ratio_1000_L_1_R_1.png","14_Ratio_1000_L_17_R_17.png","3_Ratio_1000_L_17_R_17.png","7_Ratio_1000_L_6_R_6.png"]]}},{"start_time":1549382170664,"click_time":1549382177954,"finger_time":1549382177153,"fix_duration":488.2211441593872,"trial":1,"RT":6489,"MT":801,"sideResp":1,"stimulus":"img/250/randomdotsize/L/5_Ratio_250_L_24_R_6.png","xmouse":[403.3333435058594,403.3333435058594,403.3333435058594,403.3333435058594,403.3333435058594,403.3333435058594,403.3333435058594,403.3333435058594,403.3333435058594,403.3333435058594,403.3333435058594,403.3333435058594,403.3333435058594,403.3333435058594,403.3333435058594,403.3333435058594,403.3333435058594,403.3333435058594,403.3333435058594,403.3333435058594,403.3333435058594,403.3333435058594,403.3333435058594,403.3333435058594,403.3333435058594,403.3333435058594,404,404,404,404,404,404,404,404,404,404,404.66668701171875,404.66668701171875,404.66668701171875,404.66668701171875,404.66668701171875,404.66668701171875,404.66668701171875,404.66668701171875,404.66668701171875,404.66668701171875,404.66668701171875,404.66668701171875,404.66668701171875,404.66668701171875,404.66668701171875,404.66668701171875,404.66668701171875,404.66668701171875,404.66668701171875,404.66668701171875,404,404,404,404,404,404,404,404,404,404,397.3333435058594,396.66668701171875,396.66668701171875,396.66668701171875,396.66668701171875,396.66668701171875,396.66668701171875,397.3333435058594,397.3333435058594,397.3333435058594,397.3333435058594,397.3333435058594,397.3333435058594,397.3333435058594,397.3333435058594,397.3333435058594,397.3333435058594,397.3333435058594,397.3333435058594,397.3333435058594,396.66668701171875,396.66668701171875,396.66668701171875,396,396.66668701171875,396.66668701171875,396.66668701171875,396.66668701171875,396.66668701171875,396.66668701171875,398,398,398,398,398,398,398,398,398,398,398.66668701171875,398.66668701171875,398.66668701171875,398.66668701171875,398.66668701171875,398.66668701171875,398.66668701171875,398.66668701171875,398.66668701171875,398.66668701171875,398,398,398,398,398,398,398,398,398,398,398,398,398,398,398,398,398,398,398,398,398,398,398,398,398,398,398,398,398,398,398.66668701171875,398.66668701171875,398.66668701171875,398.66668701171875,398.66668701171875,398.66668701171875,398.66668701171875,398.66668701171875,398.66668701171875,398.66668701171875,398.66668701171875,398.66668701171875,398.66668701171875,398.66668701171875,398.66668701171875,398.66668701171875,398.66668701171875,398.66668701171875,398.66668701171875,398.66668701171875,400,400,400,400,400,400,400,400,400,400,402,402,402,402,402,402,402,402,402,402,402,403.3333435058594,403.3333435058594,403.3333435058594,403.3333435058594,403.3333435058594,403.3333435058594,403.3333435058594,403.3333435058594,403.3333435058594,403.3333435058594,404.66668701171875,404.66668701171875,404.66668701171875,404.66668701171875,404.66668701171875,404.66668701171875,404.66668701171875,404.66668701171875,404.66668701171875,404.66668701171875,407.3333435058594,407.3333435058594,407.3333435058594,407.3333435058594,407.3333435058594,407.3333435058594,407.3333435058594,407.3333435058594,407.3333435058594,401.3333435058594,401.3333435058594,401.3333435058594,401.3333435058594,401.3333435058594,401.3333435058594,401.3333435058594,401.3333435058594,401.3333435058594,401.3333435058594,401.3333435058594,403.3333435058594,403.3333435058594,403.3333435058594,403.3333435058594,403.3333435058594,403.3333435058594,403.3333435058594,403.3333435058594,403.3333435058594,403.3333435058594,403.3333435058594,403.3333435058594,403.3333435058594,403.3333435058594,403.3333435058594,403.3333435058594,403.3333435058594,403.3333435058594,403.3333435058594,403.3333435058594,402.66668701171875,402.66668701171875,402.66668701171875,402.66668701171875,402.66668701171875,402.66668701171875,402.66668701171875,405.3333435058594,405.3333435058594,405.3333435058594,404,404,403.3333435058594,403.3333435058594,403.3333435058594,403.3333435058594,403.3333435058594,402.66668701171875,402.66668701171875,402.66668701171875,402,402,402,402,401.3333435058594,401.3333435058594,401.3333435058594,402,402,402,403.3333435058594,403.3333435058594,403.3333435058594,403.3333435058594,403.3333435058594,403.3333435058594,403.3333435058594,403.3333435058594,403.3333435058594,403.3333435058594,404,404,404,404,404,404,404,404,404,404,406.66668701171875,406.66668701171875,407.3333435058594,407.3333435058594,407.3333435058594,407.3333435058594,407.3333435058594,407.3333435058594,407.3333435058594,407.3333435058594,402,402,402,402,402,402,402,398,396,394.66668701171875,391.3333435058594,390,388.66668701171875,387.3333435058594,386,382.66668701171875,377.3333435058594,370.66668701171875,367.3333435058594,359.3333435058594,347.3333435058594,344,337.3333435058594,330,326.66668701171875,320.66668701171875,314.66668701171875,313.3333435058594,314,316.66668701171875,316.66668701171875,316.66668701171875,316.66668701171875,316.66668701171875,316.66668701171875,316.66668701171875,316.66668701171875,316.66668701171875,316.66668701171875,298.66668701171875,278,270.66668701171875,255.33334350585938,237.33334350585938,229.33334350585938,201.33334350585938,182,173.33334350585938,155.33334350585938,139.33334350585938,116.66667175292969,110.66667175292969,99.33333587646484,92,89.33333587646484,84.66667175292969,81.33333587646484],"ymouse":[826,826,826,826,826,826,826.6666870117188,826.6666870117188,826.6666870117188,826.6666870117188,826.6666870117188,826.6666870117188,826.6666870117188,826.6666870117188,826.6666870117188,826.6666870117188,828,828,828,828,828,828,828,828,828,828,827.3333740234375,827.3333740234375,827.3333740234375,827.3333740234375,827.3333740234375,827.3333740234375,827.3333740234375,827.3333740234375,827.3333740234375,827.3333740234375,826.6666870117188,826.6666870117188,826.6666870117188,826.6666870117188,826.6666870117188,826.6666870117188,826.6666870117188,826.6666870117188,826.6666870117188,826.6666870117188,826,826,826,826,826,826,826,826,826,826,826,826,826,826,826,826,826,826,826,826,816,815.3333740234375,815.3333740234375,814.6666870117188,814.6666870117188,814.6666870117188,814.6666870117188,814.6666870117188,814.6666870117188,814.6666870117188,815.3333740234375,815.3333740234375,815.3333740234375,815.3333740234375,815.3333740234375,815.3333740234375,815.3333740234375,815.3333740234375,815.3333740234375,815.3333740234375,813.3333740234375,813.3333740234375,813.3333740234375,812.6666870117188,812.6666870117188,812.6666870117188,812.6666870117188,812.6666870117188,812.6666870117188,812.6666870117188,812.6666870117188,812.6666870117188,812.6666870117188,812.6666870117188,812.6666870117188,812.6666870117188,812.6666870117188,812.6666870117188,812.6666870117188,812.6666870117188,814.6666870117188,814.6666870117188,814.6666870117188,814.6666870117188,814.6666870117188,814.6666870117188,814.6666870117188,814.6666870117188,814.6666870117188,814.6666870117188,814,814,814,814,814,814,814,814,814,814,813.3333740234375,813.3333740234375,813.3333740234375,813.3333740234375,813.3333740234375,813.3333740234375,813.3333740234375,813.3333740234375,813.3333740234375,813.3333740234375,814,814,814,814,814,814,814,814,814,814,814.6666870117188,814.6666870117188,814.6666870117188,814.6666870117188,814.6666870117188,814.6666870117188,814.6666870117188,814.6666870117188,814.6666870117188,814.6666870117188,815.3333740234375,815.3333740234375,815.3333740234375,815.3333740234375,815.3333740234375,815.3333740234375,815.3333740234375,815.3333740234375,815.3333740234375,815.3333740234375,816.6666870117188,816.6666870117188,816.6666870117188,816.6666870117188,816.6666870117188,816.6666870117188,816.6666870117188,816.6666870117188,816.6666870117188,816.6666870117188,815.3333740234375,815.3333740234375,815.3333740234375,815.3333740234375,815.3333740234375,815.3333740234375,815.3333740234375,815.3333740234375,815.3333740234375,815.3333740234375,815.3333740234375,812,812,812,812,812,812,812,812,812,812,814,814,814,814,814,814,814,814,814,814,820,820,820,820,820,820,820,820,820,810.6666870117188,810.6666870117188,810.6666870117188,810.6666870117188,810.6666870117188,810.6666870117188,810.6666870117188,810.6666870117188,810.6666870117188,810.6666870117188,810.6666870117188,812,812,812,812,812,812,812,812,812,810,810,810,810,810,810,810,810,810,810,810,807.3333740234375,807.3333740234375,807.3333740234375,807.3333740234375,807.3333740234375,807.3333740234375,807.3333740234375,806,806,806,805.3333740234375,805.3333740234375,803.3333740234375,803.3333740234375,803.3333740234375,803.3333740234375,802.6666870117188,802.6666870117188,802.6666870117188,802.6666870117188,801.3333740234375,800.6666870117188,800.6666870117188,800,800,800,799.3333740234375,799.3333740234375,799.3333740234375,799.3333740234375,798.6666870117188,798.6666870117188,798.6666870117188,798.6666870117188,798.6666870117188,798.6666870117188,798.6666870117188,798.6666870117188,798.6666870117188,798.6666870117188,798.6666870117188,798.6666870117188,798.6666870117188,798.6666870117188,798.6666870117188,798.6666870117188,798.6666870117188,798.6666870117188,798.6666870117188,798.6666870117188,798,798,797.3333740234375,797.3333740234375,797.3333740234375,797.3333740234375,797.3333740234375,797.3333740234375,797.3333740234375,797.3333740234375,796.6666870117188,796.6666870117188,796.6666870117188,796.6666870117188,796.6666870117188,796.6666870117188,796.6666870117188,795.3333740234375,794.6666870117188,793.3333740234375,790.6666870117188,790,786.6666870117188,782.6666870117188,780.6666870117188,772.6666870117188,762.6666870117188,748.6666870117188,740,722,695.3333740234375,688.6666870117188,678,667.3333740234375,662,653.3333740234375,644.6666870117188,641.3333740234375,640,639.3333740234375,639.3333740234375,639.3333740234375,639.3333740234375,639.3333740234375,639.3333740234375,639.3333740234375,639.3333740234375,639.3333740234375,639.3333740234375,596.6666870117188,550.6666870117188,536,505.3333740234375,468.66668701171875,450.66668701171875,398,364,346.66668701171875,314.66668701171875,281.3333435058594,232,216,186,158.6666717529297,146.6666717529297,122,86.66667175292969],"timestamp_mouse":[34,48,69,88,108,128,148,168,188,208,228,248,268,288,308,328,348,368,388,408,428,448,468,488,508,528,548,568,588,608,628,648,668,688,708,728,749,768,788,808,828,848,868,888,909,928,948,968,988,1009,1028,1048,1068,1088,1109,1129,1148,1168,1188,1208,1228,1248,1268,1288,1308,1328,1348,1368,1388,1408,1428,1448,1468,1488,1508,1529,1548,1568,1588,1608,1628,1648,1668,1689,1708,1728,1749,1768,1788,1808,1830,1848,1868,1888,1908,1928,1948,1968,1988,2008,2028,2048,2068,2088,2108,2129,2148,2169,2188,2208,2229,2248,2268,2288,2308,2329,2348,2368,2388,2408,2428,2449,2468,2488,2508,2528,2548,2568,2588,2608,2628,2648,2668,2688,2709,2728,2748,2768,2788,2808,2828,2848,2868,2888,2908,2928,2951,2968,2988,3008,3028,3048,3068,3088,3108,3128,3152,3168,3189,3208,3228,3249,3268,3288,3308,3328,3348,3368,3388,3408,3428,3448,3468,3488,3508,3529,3551,3568,3588,3608,3628,3648,3668,3688,3708,3728,3748,3768,3788,3809,3829,3849,3868,3889,3908,3928,3949,3968,3988,4008,4028,4048,4068,4088,4108,4128,4149,4168,4188,4208,4228,4248,4269,4288,4308,4328,4352,4368,4388,4408,4428,4449,4468,4488,4508,4528,4548,4569,4588,4608,4629,4648,4668,4688,4708,4729,4752,4769,4788,4809,4828,4848,4868,4888,4908,4928,4948,4969,4988,5008,5028,5049,5068,5089,5108,5128,5148,5169,5188,5208,5228,5248,5268,5288,5308,5328,5348,5368,5389,5408,5428,5449,5468,5488,5508,5528,5549,5570,5589,5608,5628,5649,5668,5688,5708,5728,5748,5768,5789,5808,5828,5849,5868,5888,5908,5928,5948,5969,5988,6008,6028,6048,6068,6088,6108,6128,6148,6171,6188,6209,6228,6248,6269,6288,6308,6328,6348,6369,6388,6408,6428,6448,6469,6488,6508,6528,6548,6569,6588,6608,6628,6648,6668,6688,6708,6728,6748,6768,6788,6808,6828,6848,6868,6888,6908,6928,6948,6971,6988,7008,7028,7048,7071,7089,7109,7128,7148,7170,7188,7209,7228,7248,7268,7289],"xSR":350,"ySR":768,"xT1":30,"yT1":0,"xT2":670,"yT2":0,"toosoon":0,"cond_shown":"randomdotsize","ratio_trial":250,"smaller_num":"6","larger_num":"24","correct_side":1,"subjID":"48wm","gender":"No_gender","age":"No_age","school":"No_school"},{"start_time":1549382180077,"click_time":1549382181653,"finger_time":1549382181192,"fix_duration":444.81145404795706,"trial":2,"RT":1115,"MT":461,"sideResp":2,"stimulus":"img/750/equaldotsize/R/7_Ratio_750_L_3_R_4.png","xmouse":[409.3333435058594,409.3333435058594,410,410,409.3333435058594,409.3333435058594,409.3333435058594,409.3333435058594,409.3333435058594,409.3333435058594,409.3333435058594,409.3333435058594,409.3333435058594,409.3333435058594,409.3333435058594,409.3333435058594,409.3333435058594,409.3333435058594,409.3333435058594,409.3333435058594,409.3333435058594,409.3333435058594,409.3333435058594,409.3333435058594,409.3333435058594,409.3333435058594,409.3333435058594,409.3333435058594,409.3333435058594,409.3333435058594,409.3333435058594,409.3333435058594,409.3333435058594,409.3333435058594,409.3333435058594,408.66668701171875,408.66668701171875,408.66668701171875,408.66668701171875,408.66668701171875,408.66668701171875,408.66668701171875,408.66668701171875,408.66668701171875,408.66668701171875,408.66668701171875,408.66668701171875,408.66668701171875,408.66668701171875,408.66668701171875,408.66668701171875,412,416.66668701171875,420,420,443.3333435058594,450.66668701171875,454.66668701171875,460.66668701171875,466.66668701171875,471.3333435058594,474,485.3333435058594,492,521.3333740234375,528,544,554,577.3333740234375,605.3333740234375,618,624.6666870117188,643.3333740234375,668,695.3333740234375,702.6666870117188,714.6666870117188,718.6666870117188,726.6666870117188],"ymouse":[822.6666870117188,822.6666870117188,822.6666870117188,823.3333740234375,823.3333740234375,824,824,824,824,824,824,824,824,824,824,824.6666870117188,824.6666870117188,824.6666870117188,824.6666870117188,824.6666870117188,824.6666870117188,824.6666870117188,824.6666870117188,824.6666870117188,824.6666870117188,824,824,824,824,824,824,824,824,824,824,822.6666870117188,822.6666870117188,822.6666870117188,822.6666870117188,822.6666870117188,822.6666870117188,822.6666870117188,822.6666870117188,822.6666870117188,822.6666870117188,820.6666870117188,820.6666870117188,820.6666870117188,820.6666870117188,820.6666870117188,820.6666870117188,805.3333740234375,798,792.6666870117188,792.6666870117188,757.3333740234375,746,740,728,712,698,688,660.6666870117188,643.3333740234375,577.3333740234375,561.3333740234375,525.3333740234375,504,456,386,345.3333435058594,323.3333435058594,278,230,168.6666717529297,150.6666717529297,122,110,86],"timestamp_mouse":[16,38,55,75,95,116,135,155,176,195,215,235,255,275,295,315,335,356,375,395,415,435,455,475,495,516,535,555,575,595,615,635,655,675,695,715,735,755,775,795,815,835,855,876,896,916,935,956,975,995,1015,1035,1055,1077,1095,1115,1135,1156,1175,1195,1215,1235,1255,1275,1295,1315,1335,1355,1376,1395,1415,1436,1455,1475,1497,1516,1535,1555,1575],"xSR":350,"ySR":768,"xT1":30,"yT1":0,"xT2":670,"yT2":0,"toosoon":0,"cond_shown":"equaldotsize","ratio_trial":750,"smaller_num":"3","larger_num":"4","correct_side":2,"subjID":"48wm","gender":"No_gender","age":"No_age","school":"No_school"},{"start_time":1549382184769,"click_time":1549382187213,"finger_time":1549382186772,"fix_duration":1415.3729168103205,"trial":3,"RT":2003,"MT":441,"sideResp":2,"stimulus":"img/900/equaldotanddens/R/7_Ratio_900_L_9_R_10.png","xmouse":[409.3333435058594,409.3333435058594,409.3333435058594,409.3333435058594,409.3333435058594,409.3333435058594,410,410,409.3333435058594,409.3333435058594,409.3333435058594,409.3333435058594,409.3333435058594,409.3333435058594,409.3333435058594,409.3333435058594,409.3333435058594,409.3333435058594,409.3333435058594,408,408,408,408,408,408,408,408,408,408,407.3333435058594,407.3333435058594,407.3333435058594,407.3333435058594,407.3333435058594,407.3333435058594,407.3333435058594,407.3333435058594,407.3333435058594,407.3333435058594,407.3333435058594,407.3333435058594,407.3333435058594,407.3333435058594,407.3333435058594,407.3333435058594,407.3333435058594,407.3333435058594,407.3333435058594,407.3333435058594,406,406,406,406,406,406,406,406,406,406,406,406,406,406,406,406,406,406,406,406,406,406,406,406,406,406,406,406,406,406,406,406,406,406,406,406,406,406.66668701171875,406.66668701171875,406.66668701171875,406.66668701171875,406.66668701171875,406.66668701171875,406.66668701171875,406.66668701171875,406.66668701171875,406.66668701171875,408.66668701171875,408.66668701171875,408.66668701171875,408.66668701171875,428.66668701171875,436,457.3333435058594,462,470.66668701171875,477.3333435058594,488,508,522.6666870117188,532,550,568,588.6666870117188,595.3333740234375,608.6666870117188,615.3333740234375,628,644.6666870117188,656,659.3333740234375,666.6666870117188,672.6666870117188,680.6666870117188],"ymouse":[816,815.3333740234375,815.3333740234375,814.6666870117188,814.6666870117188,814.6666870117188,814.6666870117188,814,814,814.6666870117188,814.6666870117188,814.6666870117188,814.6666870117188,814.6666870117188,814.6666870117188,814.6666870117188,814.6666870117188,814.6666870117188,814.6666870117188,817.3333740234375,817.3333740234375,817.3333740234375,817.3333740234375,817.3333740234375,817.3333740234375,817.3333740234375,817.3333740234375,817.3333740234375,817.3333740234375,818.6666870117188,818.6666870117188,818.6666870117188,818.6666870117188,818.6666870117188,818.6666870117188,818.6666870117188,818.6666870117188,818.6666870117188,818.6666870117188,818.6666870117188,818.6666870117188,818.6666870117188,818.6666870117188,818.6666870117188,818.6666870117188,818.6666870117188,818.6666870117188,818.6666870117188,818.6666870117188,817.3333740234375,817.3333740234375,817.3333740234375,817.3333740234375,817.3333740234375,817.3333740234375,817.3333740234375,817.3333740234375,817.3333740234375,817.3333740234375,816.6666870117188,816.6666870117188,816.6666870117188,816.6666870117188,816.6666870117188,816.6666870117188,816.6666870117188,816.6666870117188,816.6666870117188,816.6666870117188,816.6666870117188,816.6666870117188,816.6666870117188,816.6666870117188,816.6666870117188,816.6666870117188,816.6666870117188,816.6666870117188,816.6666870117188,816.6666870117188,816.6666870117188,816.6666870117188,816.6666870117188,816.6666870117188,816.6666870117188,816.6666870117188,816.6666870117188,816.6666870117188,816.6666870117188,816.6666870117188,816.6666870117188,816.6666870117188,816.6666870117188,816.6666870117188,816.6666870117188,816.6666870117188,816.6666870117188,792,792,792,792,743.3333740234375,727.3333740234375,673.3333740234375,660,629.3333740234375,613.3333740234375,578.6666870117188,524.6666870117188,486,465.3333435058594,420.66668701171875,376.66668701171875,314.66668701171875,295.3333435058594,260,243.33334350585938,212,173.33334350585938,150,142,126,112.66667175292969,98],"timestamp_mouse":[3,36,43,63,83,103,123,143,163,183,204,223,244,263,283,303,323,343,363,383,404,424,444,463,483,503,523,543,563,583,603,623,643,663,683,703,723,743,763,783,803,823,843,863,884,903,923,943,963,983,1003,1024,1043,1063,1083,1104,1123,1143,1163,1183,1203,1223,1243,1263,1283,1303,1323,1343,1363,1383,1404,1423,1443,1463,1483,1504,1523,1543,1563,1583,1603,1623,1643,1663,1683,1703,1723,1743,1763,1783,1803,1823,1843,1863,1883,1904,1927,1943,1963,1983,2003,2023,2043,2064,2083,2103,2123,2144,2163,2183,2203,2223,2243,2263,2283,2303,2323,2344,2363,2383,2403,2423,2444],"xSR":350,"ySR":768,"xT1":30,"yT1":0,"xT2":670,"yT2":0,"toosoon":0,"cond_shown":"equaldotanddens","ratio_trial":900,"smaller_num":"9","larger_num":"10","correct_side":2,"subjID":"48wm","gender":"No_gender","age":"No_age","school":"No_school"},{"start_time":1549382190020,"click_time":1549382191912,"finger_time":1549382191554,"fix_duration":986.8290591153033,"trial":4,"RT":1534,"MT":358,"sideResp":2,"stimulus":"img/750/randomdotsizeEA/R/7_Ratio_750_L_3_R_4.png","xmouse":[399.3333435058594,399.3333435058594,399.3333435058594,399.3333435058594,399.3333435058594,399.3333435058594,399.3333435058594,399.3333435058594,399.3333435058594,399.3333435058594,399.3333435058594,399.3333435058594,399.3333435058594,399.3333435058594,399.3333435058594,399.3333435058594,399.3333435058594,399.3333435058594,399.3333435058594,397.3333435058594,397.3333435058594,397.3333435058594,397.3333435058594,397.3333435058594,397.3333435058594,397.3333435058594,397.3333435058594,397.3333435058594,397.3333435058594,397.3333435058594,397.3333435058594,397.3333435058594,397.3333435058594,397.3333435058594,397.3333435058594,397.3333435058594,397.3333435058594,397.3333435058594,397.3333435058594,397.3333435058594,397.3333435058594,397.3333435058594,397.3333435058594,397.3333435058594,397.3333435058594,397.3333435058594,397.3333435058594,395.3333435058594,395.3333435058594,395.3333435058594,395.3333435058594,394.66668701171875,394.66668701171875,394.66668701171875,394.66668701171875,395.3333435058594,395.3333435058594,395.3333435058594,395.3333435058594,395.3333435058594,395.3333435058594,395.3333435058594,395.3333435058594,395.3333435058594,395.3333435058594,395.3333435058594,398,398,398,398,398,398,398,398,398,398,406,423.3333435058594,440.66668701171875,450,472,511.3333435058594,525.3333740234375,550.6666870117188,572,600.6666870117188,608,622,637.3333740234375,643.3333740234375,662.6666870117188,673.3333740234375,684.6666870117188,689.3333740234375,700],"ymouse":[817.3333740234375,817.3333740234375,817.3333740234375,817.3333740234375,817.3333740234375,817.3333740234375,817.3333740234375,817.3333740234375,817.3333740234375,816.6666870117188,816.6666870117188,816.6666870117188,816.6666870117188,816.6666870117188,816.6666870117188,816.6666870117188,816.6666870117188,816.6666870117188,816.6666870117188,816.6666870117188,816.6666870117188,816.6666870117188,816.6666870117188,816.6666870117188,816.6666870117188,816.6666870117188,816.6666870117188,816.6666870117188,816.6666870117188,817.3333740234375,817.3333740234375,817.3333740234375,817.3333740234375,817.3333740234375,817.3333740234375,817.3333740234375,817.3333740234375,817.3333740234375,817.3333740234375,818,818,818,818,818,818,818,818,818.6666870117188,818.6666870117188,818.6666870117188,818.6666870117188,819.3333740234375,819.3333740234375,820,820,820.6666870117188,821.3333740234375,821.3333740234375,821.3333740234375,821.3333740234375,821.3333740234375,821.3333740234375,821.3333740234375,821.3333740234375,821.3333740234375,821.3333740234375,812,812,812,812,812,812,812,812,812,812,764.6666870117188,727.3333740234375,688,668.6666870117188,626.6666870117188,552,524.6666870117188,469.3333435058594,418,344,320.66668701171875,278,238.6666717529297,220,171.33334350585938,144.6666717529297,119.33334350585938,107.33333587646484,85.33333587646484],"timestamp_mouse":[26,33,52,72,92,112,132,152,172,192,212,232,252,272,292,312,332,352,372,392,413,433,452,472,493,513,532,552,572,592,612,632,652,672,692,714,732,752,772,792,812,833,852,872,892,912,932,952,972,992,1012,1032,1052,1072,1092,1115,1132,1152,1173,1192,1212,1232,1252,1272,1292,1312,1332,1352,1372,1392,1413,1432,1452,1472,1492,1512,1534,1553,1572,1593,1612,1632,1652,1672,1692,1714,1732,1752,1772,1792,1815,1832,1852,1873,1892],"xSR":350,"ySR":768,"xT1":30,"yT1":0,"xT2":670,"yT2":0,"toosoon":0,"cond_shown":"randomdotsizeEA","ratio_trial":750,"smaller_num":"3","larger_num":"4","correct_side":2,"subjID":"48wm","gender":"No_gender","age":"No_age","school":"No_school"},{"start_time":1549382194361,"click_time":1549382195874,"finger_time":1549382195572,"fix_duration":847.8753866408067,"trial":5,"RT":1211,"MT":302,"sideResp":2,"stimulus":"img/900/equaldotsize/R/12_Ratio_900_L_18_R_20.png","xmouse":[406,406,406,406,404,404,404,404,404,404,404,404,404,404,406,406,406,406,406,406,406,406,408,408,408,408,408,408,408,408,408,408.66668701171875,408.66668701171875,408.66668701171875,408.66668701171875,408.66668701171875,408.66668701171875,408.66668701171875,408.66668701171875,408.66668701171875,408.66668701171875,408,408,408,408,408,408,408,408,408,408,408,408,408,408,408,408,408,416.66668701171875,426,470.66668701171875,500,522,532.6666870117188,555.3333740234375,590,604.6666870117188,608,618.6666870117188,623.3333740234375,648,655.3333740234375,667.3333740234375,672,681.3333740234375,690],"ymouse":[824.6666870117188,824.6666870117188,824.6666870117188,824.6666870117188,826.6666870117188,826.6666870117188,826.6666870117188,826.6666870117188,826.6666870117188,826.6666870117188,826.6666870117188,826.6666870117188,826.6666870117188,826.6666870117188,830,830,830,830,830,830,830,830,830,830.6666870117188,830.6666870117188,830.6666870117188,830.6666870117188,830,830,829.3333740234375,829.3333740234375,828.6666870117188,828.6666870117188,828.6666870117188,828.6666870117188,828.6666870117188,828.6666870117188,828,828,827.3333740234375,827.3333740234375,826.6666870117188,826,826,826,826,826,826,826,826,826,826,820,820,820,820,820,820,786,768,688.6666870117188,641.3333740234375,602.6666870117188,584.6666870117188,542,467.3333435058594,416.66668701171875,394,342,316.66668701171875,223.33334350585938,200.6666717529297,160,141.33334350585938,110.66667175292969,78.66667175292969],"timestamp_mouse":[13,42,51,71,91,112,131,152,171,192,211,231,251,271,291,311,331,351,371,391,411,431,451,472,491,511,531,551,571,593,611,630,651,671,691,711,731,751,771,794,811,831,851,872,891,911,931,951,971,991,1011,1031,1051,1071,1092,1111,1131,1151,1171,1191,1211,1231,1252,1271,1292,1311,1332,1351,1371,1392,1412,1432,1451,1471,1491,1513],"xSR":350,"ySR":768,"xT1":30,"yT1":0,"xT2":670,"yT2":0,"toosoon":0,"cond_shown":"equaldotsize","ratio_trial":900,"smaller_num":"18","larger_num":"20","correct_side":2,"subjID":"48wm","gender":"No_gender","age":"No_age","school":"No_school"},{"start_time":1549382197821,"click_time":1549382199112,"finger_time":1549382198732,"fix_duration":907.5739547278306,"trial":6,"RT":911,"MT":380,"sideResp":1,"stimulus":"img/500/equaldotanddens/L/10_Ratio_500_L_4_R_2.png","xmouse":[410,410,410,410,401.3333435058594,401.3333435058594,401.3333435058594,401.3333435058594,401.3333435058594,401.3333435058594,401.3333435058594,401.3333435058594,401.3333435058594,401.3333435058594,402,402,402,402,402,402,402,402,402,402,404,404,404,404,404,404,404,404,404,404,404.66668701171875,404.66668701171875,404.66668701171875,404.66668701171875,404.66668701171875,404.66668701171875,404.66668701171875,393.3333435058594,389.3333435058594,384,382.66668701171875,377.3333435058594,373.3333435058594,362.66668701171875,338.66668701171875,322.66668701171875,314.66668701171875,296,275.3333435058594,238.6666717529297,224,197.33334350585938,185.33334350585938,165.33334350585938,142.6666717529297,130.6666717529297,124,116,107.33333587646484,96,92.66667175292969],"ymouse":[822.6666870117188,822.6666870117188,822.6666870117188,822.6666870117188,815.3333740234375,815.3333740234375,815.3333740234375,815.3333740234375,815.3333740234375,815.3333740234375,815.3333740234375,815.3333740234375,815.3333740234375,815.3333740234375,817.3333740234375,817.3333740234375,817.3333740234375,817.3333740234375,817.3333740234375,817.3333740234375,817.3333740234375,817.3333740234375,817.3333740234375,817.3333740234375,818,818,818,818,818,818,818,818,818,818,818.6666870117188,818.6666870117188,818.6666870117188,818.6666870117188,818.6666870117188,818.6666870117188,818.6666870117188,802,791.3333740234375,776.6666870117188,772,759.3333740234375,752,731.3333740234375,674,630.6666870117188,611.3333740234375,570,524,445.3333435058594,418.66668701171875,371.3333435058594,352,308.66668701171875,250.66668701171875,216.6666717529297,200.6666717529297,171.33334350585938,142.6666717529297,107.33333587646484,98.66667175292969],"timestamp_mouse":[12,35,51,71,91,111,132,151,171,192,212,231,252,271,291,311,331,351,371,391,411,431,451,471,491,511,531,551,571,591,611,631,652,671,691,711,731,751,772,792,811,831,851,871,891,911,931,952,971,992,1011,1031,1051,1071,1091,1111,1132,1151,1174,1191,1211,1231,1251,1274,1291],"xSR":350,"ySR":768,"xT1":30,"yT1":0,"xT2":670,"yT2":0,"toosoon":0,"cond_shown":"equaldotanddens","ratio_trial":500,"smaller_num":"2","larger_num":"4","correct_side":1,"subjID":"48wm","gender":"No_gender","age":"No_age","school":"No_school"},{"start_time":1549382200603,"click_time":1549382202016,"finger_time":1549382201614,"fix_duration":250,"trial":7,"RT":1011,"MT":402,"sideResp":2,"stimulus":"img/900/randomdotsize/R/12_Ratio_900_L_18_R_20.png","xmouse":[413.3333435058594,413.3333435058594,413.3333435058594,413.3333435058594,413.3333435058594,413.3333435058594,413.3333435058594,413.3333435058594,411.3333435058594,411.3333435058594,411.3333435058594,411.3333435058594,411.3333435058594,411.3333435058594,411.3333435058594,411.3333435058594,411.3333435058594,411.3333435058594,415.3333435058594,415.3333435058594,415.3333435058594,415.3333435058594,415.3333435058594,415.3333435058594,415.3333435058594,415.3333435058594,415.3333435058594,415.3333435058594,414,414,414,414,414,414,414,414,414,414,414,414,414,414,414,414,414,414,414,407.3333435058594,407.3333435058594,407.3333435058594,414,414,414,426,432.66668701171875,442.66668701171875,445.3333435058594,450.66668701171875,454.66668701171875,467.3333435058594,490.66668701171875,505.3333435058594,516.6666870117188,534,555.3333740234375,592,605.3333740234375,637.3333740234375,666,680,712.6666870117188],"ymouse":[828,828,828,828,828,828,828,828,829.3333740234375,829.3333740234375,829.3333740234375,829.3333740234375,829.3333740234375,829.3333740234375,829.3333740234375,829.3333740234375,829.3333740234375,829.3333740234375,832,832,832,832,832,832,832,832,832,832,828.6666870117188,828.6666870117188,828.6666870117188,828.6666870117188,828.6666870117188,828.6666870117188,828.6666870117188,828.6666870117188,828.6666870117188,828.6666870117188,826.6666870117188,826.6666870117188,826.6666870117188,826.6666870117188,826.6666870117188,826.6666870117188,826.6666870117188,826.6666870117188,826.6666870117188,814.6666870117188,814.6666870117188,814.6666870117188,718,718,718,672.6666870117188,649.3333740234375,580,563.3333740234375,530,514,475.3333435058594,426,395.3333435058594,376,343.3333435058594,308,246.66668701171875,226,175.33334350585938,131.33334350585938,110,62],"timestamp_mouse":[14,39,49,71,89,109,129,149,169,190,209,229,249,269,289,310,329,349,369,390,409,429,449,469,490,509,529,549,569,589,609,629,649,669,689,709,729,749,769,789,809,829,849,870,889,910,929,949,969,990,1011,1029,1049,1069,1089,1110,1129,1149,1169,1190,1209,1229,1249,1269,1289,1309,1330,1350,1369,1389,1412],"xSR":350,"ySR":768,"xT1":30,"yT1":0,"xT2":670,"yT2":0,"toosoon":0,"cond_shown":"randomdotsize","ratio_trial":900,"smaller_num":"18","larger_num":"20","correct_side":2,"subjID":"48wm","gender":"No_gender","age":"No_age","school":"No_school"},{"start_time":1549382203694,"click_time":1549382205293,"finger_time":1549382204952,"fix_duration":660.2356109280586,"trial":8,"RT":1258,"MT":341,"sideResp":1,"stimulus":"img/750/randomdotsizeEA/R/4_Ratio_750_L_15_R_20.png","xmouse":[407.3333435058594,407.3333435058594,407.3333435058594,407.3333435058594,407.3333435058594,407.3333435058594,407.3333435058594,406.66668701171875,406.66668701171875,406.66668701171875,406.66668701171875,406.66668701171875,406.66668701171875,406.66668701171875,406.66668701171875,406.66668701171875,406.66668701171875,408,408,408,408,408,408,408,408,408,408,410.66668701171875,410.66668701171875,410.66668701171875,410.66668701171875,410.66668701171875,410.66668701171875,410.66668701171875,410.66668701171875,410.66668701171875,410.66668701171875,409.3333435058594,409.3333435058594,409.3333435058594,409.3333435058594,409.3333435058594,409.3333435058594,409.3333435058594,409.3333435058594,409.3333435058594,409.3333435058594,410,410,410,410,410,410,410,410,410,410,403.3333435058594,403.3333435058594,396.66668701171875,392.66668701171875,386.66668701171875,384,374,367.3333435058594,353.3333435058594,326,304,292.66668701171875,264.66668701171875,234,189.33334350585938,175.33334350585938,152,134,126,106.66667175292969,90,76.66667175292969,71.33333587646484],"ymouse":[807.3333740234375,807.3333740234375,807.3333740234375,807.3333740234375,807.3333740234375,807.3333740234375,807.3333740234375,808.6666870117188,808.6666870117188,808.6666870117188,808.6666870117188,808.6666870117188,808.6666870117188,808.6666870117188,808.6666870117188,808.6666870117188,808.6666870117188,810.6666870117188,810.6666870117188,810.6666870117188,810.6666870117188,810.6666870117188,810.6666870117188,810.6666870117188,810.6666870117188,810.6666870117188,810.6666870117188,816,816,816,816,816,816,816,816,816,816,814,814,814,814,814,814,814,814,814,814,810.6666870117188,810.6666870117188,810.6666870117188,810.6666870117188,810.6666870117188,810.6666870117188,810.6666870117188,810.6666870117188,810.6666870117188,810.6666870117188,803.3333740234375,803.3333740234375,795.3333740234375,788,774.6666870117188,767.3333740234375,742.6666870117188,727.3333740234375,698.6666870117188,650.6666870117188,608.6666870117188,587.3333740234375,542.6666870117188,500,436.66668701171875,412,359.3333435058594,301.3333435058594,271.3333435058594,186.6666717529297,139.33334350585938,100,80.66667175292969],"timestamp_mouse":[33,38,58,78,98,120,138,159,178,198,218,238,258,278,298,318,338,358,378,398,418,438,458,478,498,519,539,558,578,598,618,638,658,678,698,718,738,758,778,798,818,838,858,878,898,918,938,958,979,998,1018,1038,1058,1078,1098,1118,1140,1158,1178,1198,1218,1238,1258,1278,1298,1319,1339,1358,1378,1398,1418,1439,1458,1478,1498,1518,1540,1558,1578,1599],"xSR":350,"ySR":768,"xT1":30,"yT1":0,"xT2":670,"yT2":0,"toosoon":0,"cond_shown":"randomdotsizeEA","ratio_trial":750,"smaller_num":"15","larger_num":"20","correct_side":2,"subjID":"48wm","gender":"No_gender","age":"No_age","school":"No_school"},{"start_time":1549382208464,"click_time":1549382209675,"finger_time":1549382209353,"fix_duration":1451.929004735919,"trial":9,"RT":889,"MT":322,"sideResp":1,"stimulus":"img/500/equaldotsize/L/8_Ratio_500_L_8_R_4.png","xmouse":[412,412,412,412,412,412,412,412,412,409.3333435058594,409.3333435058594,409.3333435058594,409.3333435058594,409.3333435058594,409.3333435058594,409.3333435058594,409.3333435058594,409.3333435058594,409.3333435058594,408,408,408,408,408,408,408,408,408,408,408.66668701171875,409.3333435058594,409.3333435058594,409.3333435058594,409.3333435058594,409.3333435058594,409.3333435058594,409.3333435058594,409.3333435058594,409.3333435058594,408.66668701171875,408.66668701171875,408.66668701171875,408.66668701171875,397.3333435058594,379.3333435058594,368.66668701171875,363.3333435058594,350.66668701171875,344,328,296.66668701171875,273.3333435058594,260,235.33334350585938,209.33334350585938,173.33334350585938,163.33334350585938,144,138.6666717529297,121.33333587646484,108],"ymouse":[818,818,818,818,818,818,818,818,818,817.3333740234375,817.3333740234375,817.3333740234375,817.3333740234375,817.3333740234375,817.3333740234375,817.3333740234375,817.3333740234375,817.3333740234375,817.3333740234375,820.6666870117188,820.6666870117188,820.6666870117188,820.6666870117188,820.6666870117188,820.6666870117188,820.6666870117188,820.6666870117188,820.6666870117188,820.6666870117188,822,822.6666870117188,822.6666870117188,822.6666870117188,822.6666870117188,822.6666870117188,822.6666870117188,822,822,822,820.6666870117188,820.6666870117188,820.6666870117188,820.6666870117188,777.3333740234375,732.6666870117188,692.6666870117188,670,621.3333740234375,597.3333740234375,552,478,430,402.66668701171875,353.3333435058594,308,247.33334350585938,228.6666717529297,188.6666717529297,159.33334350585938,115.33334350585938,85.33333587646484],"timestamp_mouse":[9,35,48,69,88,108,128,148,168,189,209,228,248,268,288,308,329,348,368,389,408,428,448,468,491,508,528,548,568,588,609,629,648,668,689,708,729,748,768,788,809,828,848,868,889,908,928,948,968,988,1009,1028,1048,1068,1088,1108,1129,1148,1168,1189,1211],"xSR":350,"ySR":768,"xT1":30,"yT1":0,"xT2":670,"yT2":0,"toosoon":0,"cond_shown":"equaldotsize","ratio_trial":500,"smaller_num":"4","larger_num":"8","correct_side":1,"subjID":"48wm","gender":"No_gender","age":"No_age","school":"No_school"},{"start_time":1549382211870,"click_time":1549382213393,"finger_time":1549382212992,"fix_duration":630.6050231500831,"trial":10,"RT":1122,"MT":401,"sideResp":1,"stimulus":"img/250/randomdotsizeEA/L/14_Ratio_250_L_12_R_3.png","xmouse":[398,398,398,398,398.66668701171875,398.66668701171875,398.66668701171875,398.66668701171875,398.66668701171875,398.66668701171875,398.66668701171875,398.66668701171875,398.66668701171875,398.66668701171875,398.66668701171875,398.66668701171875,398.66668701171875,398.66668701171875,398.66668701171875,398.66668701171875,398.66668701171875,400,400,400,400,401.3333435058594,401.3333435058594,402,402,402,402.66668701171875,402.66668701171875,402.66668701171875,402.66668701171875,402.66668701171875,403.3333435058594,403.3333435058594,403.3333435058594,403.3333435058594,403.3333435058594,402.66668701171875,402.66668701171875,402.66668701171875,402.66668701171875,402.66668701171875,402.66668701171875,402.66668701171875,402.66668701171875,402.66668701171875,402.66668701171875,402.66668701171875,401.3333435058594,400.66668701171875,400,398.66668701171875,398,388,384.66668701171875,376,372,362,344,330.66668701171875,322.66668701171875,306.66668701171875,296.66668701171875,252,238,211.33334350585938,200.6666717529297,182.6666717529297,162.6666717529297,150,143.33334350585938,130,124.66667175292969,113.33333587646484],"ymouse":[817.3333740234375,817.3333740234375,817.3333740234375,817.3333740234375,817.3333740234375,817.3333740234375,817.3333740234375,818,818,818,818,818,818.6666870117188,818.6666870117188,818.6666870117188,818.6666870117188,818.6666870117188,818.6666870117188,818.6666870117188,818.6666870117188,818.6666870117188,817.3333740234375,817.3333740234375,817.3333740234375,817.3333740234375,816,816,816,815.3333740234375,815.3333740234375,814.6666870117188,814.6666870117188,814,814,814,814,814,813.3333740234375,813.3333740234375,813.3333740234375,813.3333740234375,812.6666870117188,812.6666870117188,812.6666870117188,812,812,811.3333740234375,811.3333740234375,810.6666870117188,810,808.6666870117188,806,802.6666870117188,801.3333740234375,798,795.3333740234375,765.3333740234375,754,727.3333740234375,715.3333740234375,689.3333740234375,644,612.6666870117188,594.6666870117188,552,529.3333740234375,436,413.3333435058594,366,343.3333435058594,292.66668701171875,217.33334350585938,172.6666717529297,154,119.33334350585938,104,60.66667175292969],"timestamp_mouse":[18,34,42,62,82,103,122,142,162,182,202,223,242,262,283,302,322,343,362,382,404,423,442,462,482,504,522,542,562,582,602,622,642,662,682,702,722,743,762,782,802,822,842,862,882,902,922,942,962,983,1002,1022,1042,1062,1082,1102,1122,1143,1162,1182,1202,1223,1242,1262,1282,1302,1322,1342,1362,1382,1402,1422,1443,1462,1483,1502,1523],"xSR":350,"ySR":768,"xT1":30,"yT1":0,"xT2":670,"yT2":0,"toosoon":0,"cond_shown":"randomdotsizeEA","ratio_trial":250,"smaller_num":"3","larger_num":"12","correct_side":1,"subjID":"48wm","gender":"No_gender","age":"No_age","school":"No_school"},{"start_time":1549382215185,"click_time":1549382216313,"finger_time":1549382216072,"fix_duration":250,"trial":11,"RT":887,"MT":241,"sideResp":2,"stimulus":"img/500/randomdotsize/R/14_Ratio_500_L_5_R_10.png","xmouse":[402,402,402,402,402,402,402,402,402,402,402,402,402,402,404.66668701171875,404.66668701171875,405.3333435058594,405.3333435058594,405.3333435058594,405.3333435058594,405.3333435058594,405.3333435058594,405.3333435058594,405.3333435058594,405.3333435058594,405.3333435058594,405.3333435058594,405.3333435058594,405.3333435058594,405.3333435058594,405.3333435058594,405.3333435058594,405.3333435058594,405.3333435058594,405.3333435058594,405.3333435058594,405.3333435058594,405.3333435058594,406,406,406.66668701171875,407.3333435058594,410.66668701171875,418.66668701171875,442.66668701171875,457.3333435058594,528,548,584,600.6666870117188,636,683.3333740234375,710,718,727.3333740234375,733.3333740234375,744],"ymouse":[827,827,827,827,827,827,827,827,827,827,827,827,827,827,819.3333740234375,819.3333740234375,819.3333740234375,819.3333740234375,819.3333740234375,819.3333740234375,819.3333740234375,818.6666870117188,818.6666870117188,818,818,817.3333740234375,817.3333740234375,816.6666870117188,816.6666870117188,816.6666870117188,816.6666870117188,816.6666870117188,816.6666870117188,816.6666870117188,816.6666870117188,816.6666870117188,816.6666870117188,816,816,815.3333740234375,814,810,802,788.6666870117188,741.3333740234375,710.6666870117188,572,537.3333740234375,469.3333435058594,435.3333435058594,367.3333435058594,272.66668701171875,216.6666717529297,191.33334350585938,150.6666717529297,116,77.33333587646484],"timestamp_mouse":[8,27,47,74,87,107,127,147,167,187,207,227,247,268,287,308,327,348,368,387,408,427,447,467,487,507,527,548,567,587,607,627,647,667,687,708,727,747,767,787,807,827,847,867,887,908,931,947,967,987,1007,1029,1047,1068,1087,1107,1128],"xSR":350,"ySR":768,"xT1":30,"yT1":0,"xT2":670,"yT2":0,"toosoon":0,"cond_shown":"randomdotsize","ratio_trial":500,"smaller_num":"5","larger_num":"10","correct_side":2,"subjID":"48wm","gender":"No_gender","age":"No_age","school":"No_school"},{"start_time":1549382218116,"click_time":1549382222293,"finger_time":1549382221712,"fix_duration":361.1834651472642,"trial":12,"RT":3596,"MT":581,"sideResp":2,"stimulus":"img/750/randomdotsizeEA/R/11_Ratio_750_L_12_R_16.png","xmouse":[400,400,400,400,400,400,400,400,400,400,400,400,400,400,400,400,400,400,400,400,400,400,400,400,400,400,400,400,400,400,400,400,400,400,400,400,400,400,400,400,400,400,400,400,400,400,400,400,400,400,400,400,400,400,400,400,400,400,400,400,400,400,400,400,400,400,400,400,400,400,400,400,400,400,400,400,400,402,402,402,404.66668701171875,406.66668701171875,407.3333435058594,408,408.66668701171875,408,408,407.3333435058594,407.3333435058594,408,408,408,408,408,408,408,408,408,408,408,408,408,408,406.66668701171875,406.66668701171875,406.66668701171875,406.66668701171875,406.66668701171875,406.66668701171875,406.66668701171875,406.66668701171875,406.66668701171875,406.66668701171875,406,406,406,406,406,406,406,406,406,406,406,406,406,405.3333435058594,405.3333435058594,405.3333435058594,405.3333435058594,405.3333435058594,405.3333435058594,405.3333435058594,405.3333435058594,405.3333435058594,405.3333435058594,405.3333435058594,405.3333435058594,405.3333435058594,405.3333435058594,405.3333435058594,405.3333435058594,405.3333435058594,405.3333435058594,405.3333435058594,405.3333435058594,404.66668701171875,404.66668701171875,404.66668701171875,404.66668701171875,404.66668701171875,404.66668701171875,404.66668701171875,404.66668701171875,404.66668701171875,404.66668701171875,404.66668701171875,404.66668701171875,404.66668701171875,404.66668701171875,404.66668701171875,404.66668701171875,404.66668701171875,404,404,404,404,404,404,404,404,404,404,404,404,404,404,404,416.66668701171875,440.66668701171875,450.66668701171875,462,462,465.3333435058594,468,468,499.3333435058594,507.3333740234375,525.3333740234375,534.6666870117188,552.6666870117188,576,585.3333740234375,590,598.6666870117188,604,628.6666870117188,634,646,650.6666870117188,657.3333740234375,662.6666870117188,666,668,675.3333740234375,684,691.3333740234375,694,701.3333740234375],"ymouse":[822,822,822,822,822,822,822,822,822,822,822,822,822,822,822,822,822,822,822,822,822,822,822,822,822,822,822,822,822,822,822,822,822,822,822,822,822,822,822,822,822,822,822,822,822,822,822,822,822,822,822,822,822,822,822,822,822,822,822,822,822,822,822,822,822,822,822,822,822,822,822,822,822,822,822,822,822,814,813.3333740234375,813.3333740234375,808,806,804.6666870117188,803.3333740234375,802.6666870117188,802,801.3333740234375,801.3333740234375,801.3333740234375,801.3333740234375,801.3333740234375,802,802,802.6666870117188,802.6666870117188,802.6666870117188,802.6666870117188,802.6666870117188,802.6666870117188,802.6666870117188,802.6666870117188,802.6666870117188,802.6666870117188,809.3333740234375,809.3333740234375,809.3333740234375,809.3333740234375,809.3333740234375,809.3333740234375,809.3333740234375,809.3333740234375,809.3333740234375,809.3333740234375,811.3333740234375,811.3333740234375,811.3333740234375,811.3333740234375,811.3333740234375,811.3333740234375,811.3333740234375,811.3333740234375,811.3333740234375,811.3333740234375,811.3333740234375,811.3333740234375,811.3333740234375,811.3333740234375,811.3333740234375,811.3333740234375,811.3333740234375,811.3333740234375,811.3333740234375,811.3333740234375,811.3333740234375,811.3333740234375,811.3333740234375,812,812,812,812,812,812,812,812,812,812,810.6666870117188,810.6666870117188,810.6666870117188,810.6666870117188,810.6666870117188,810.6666870117188,810.6666870117188,810.6666870117188,810.6666870117188,810.6666870117188,810.6666870117188,810.6666870117188,810.6666870117188,810.6666870117188,810.6666870117188,810.6666870117188,810.6666870117188,810.6666870117188,810.6666870117188,810.6666870117188,810.6666870117188,810.6666870117188,810.6666870117188,810.6666870117188,810.6666870117188,810.6666870117188,810.6666870117188,809.3333740234375,809.3333740234375,809.3333740234375,809.3333740234375,809.3333740234375,773.3333740234375,729.3333740234375,710.6666870117188,682.6666870117188,682.6666870117188,665.3333740234375,652,652,568.6666870117188,551.3333740234375,517.3333740234375,499.3333740234375,463.3333435058594,414.66668701171875,389.3333435058594,377.3333435058594,357.3333435058594,345.3333435058594,298,286,261.3333435058594,250.66668701171875,232,207.33334350585938,191.33334350585938,183.33334350585938,160,136.6666717529297,108,100,82],"timestamp_mouse":[17,37,56,76,96,116,136,156,176,196,216,236,256,276,297,316,336,356,376,396,416,436,456,476,496,517,544,557,576,596,616,636,656,676,696,716,736,756,776,796,816,836,856,876,896,916,936,956,976,996,1016,1036,1056,1076,1096,1117,1136,1156,1176,1196,1216,1236,1256,1276,1296,1316,1337,1356,1376,1396,1416,1437,1456,1476,1496,1516,1536,1556,1576,1596,1617,1636,1656,1676,1696,1717,1736,1756,1776,1796,1816,1836,1856,1877,1896,1916,1936,1957,1976,1996,2016,2038,2056,2076,2096,2116,2136,2156,2176,2196,2216,2236,2256,2276,2296,2316,2336,2357,2376,2396,2416,2436,2456,2476,2497,2516,2536,2556,2576,2596,2616,2636,2656,2676,2696,2717,2736,2756,2777,2796,2816,2836,2856,2876,2896,2917,2938,2956,2976,2996,3017,3036,3056,3076,3096,3116,3136,3156,3176,3196,3216,3236,3256,3276,3297,3317,3336,3356,3376,3396,3416,3436,3456,3476,3496,3516,3536,3556,3576,3596,3616,3636,3656,3676,3696,3716,3737,3756,3777,3796,3816,3836,3856,3876,3896,3917,3938,3956,3976,3996,4016,4039,4056,4076,4096,4116,4137,4156,4176],"xSR":350,"ySR":768,"xT1":30,"yT1":0,"xT2":670,"yT2":0,"toosoon":0,"cond_shown":"randomdotsizeEA","ratio_trial":750,"smaller_num":"12","larger_num":"16","correct_side":2,"subjID":"48wm","gender":"No_gender","age":"No_age","school":"No_school"},{"start_time":1549382224191,"click_time":1549382225476,"finger_time":1549382225073,"fix_duration":754.063419117513,"trial":13,"RT":882,"MT":403,"sideResp":2,"stimulus":"img/900/equaldotanddens/R/9_Ratio_900_L_18_R_20.png","xmouse":[387.3333435058594,387.3333435058594,387.3333435058594,384.66668701171875,384.66668701171875,384.66668701171875,384.66668701171875,384.66668701171875,384.66668701171875,384.66668701171875,384.66668701171875,384.66668701171875,384.66668701171875,386.66668701171875,386.66668701171875,386.66668701171875,386.66668701171875,386.66668701171875,386.66668701171875,386.66668701171875,386.66668701171875,386.66668701171875,386.66668701171875,390,390,390,390,390,390,390,390,390,390,390,390,390,390,390,390,390,391.3333435058594,391.3333435058594,393.3333435058594,398,436.66668701171875,450.66668701171875,454.66668701171875,456.66668701171875,458.66668701171875,474.66668701171875,504,520,546,558,597.3333740234375,604.6666870117188,622,648,661.3333740234375,685.3333740234375,696.6666870117188,696.6666870117188,696,698,711.3333740234375],"ymouse":[812,812,812,806.6666870117188,806.6666870117188,806.6666870117188,806.6666870117188,806.6666870117188,806.6666870117188,806.6666870117188,806.6666870117188,806.6666870117188,806.6666870117188,808,808,808,808,808,808,808,808,808,808,810.6666870117188,810.6666870117188,810.6666870117188,810.6666870117188,810.6666870117188,810.6666870117188,810.6666870117188,810.6666870117188,810.6666870117188,810.6666870117188,808,808,808,808,808,808,808,801.3333740234375,800.6666870117188,797.3333740234375,790.6666870117188,736.6666870117188,714.6666870117188,706,703.3333740234375,697.3333740234375,672,631.3333740234375,606,556,530.6666870117188,430.66668701171875,408.66668701171875,360.66668701171875,309.3333435058594,285.3333435058594,237.33334350585938,180.6666717529297,164,137.33334350585938,117.33334350585938,91.33333587646484],"timestamp_mouse":[7,30,41,61,81,101,121,141,161,181,201,221,241,261,281,301,321,341,361,381,402,422,441,461,481,501,521,542,561,581,601,621,641,661,681,702,721,741,761,782,801,821,841,861,882,901,921,941,961,983,1001,1021,1041,1061,1083,1101,1121,1141,1161,1182,1202,1221,1241,1261,1284],"xSR":350,"ySR":768,"xT1":30,"yT1":0,"xT2":670,"yT2":0,"toosoon":0,"cond_shown":"equaldotanddens","ratio_trial":900,"smaller_num":"18","larger_num":"20","correct_side":2,"subjID":"48wm","gender":"No_gender","age":"No_age","school":"No_school"},{"start_time":1549382228342,"click_time":1549382229613,"finger_time":1549382229293,"fix_duration":1308.6194523514946,"trial":14,"RT":951,"MT":320,"sideResp":2,"stimulus":"img/250/randomdotsizeEA/R/13_Ratio_250_L_2_R_8.png","xmouse":[401,401,401,401,401,401,401,401,401,401,401,401,401,401,401,401,401,401,401,401,401,401,401,401,401,401,401,401,401,401,401,401,401,401,405.3333435058594,404.66668701171875,404.66668701171875,404.66668701171875,404.66668701171875,405.3333435058594,405.3333435058594,405.3333435058594,406,406.66668701171875,407.3333435058594,412.66668701171875,418.66668701171875,458,472.66668701171875,505.3333740234375,522,552.6666870117188,579.3333740234375,615.3333740234375,628,652,672.6666870117188,696.6666870117188,702,711.3333740234375,716,716.6666870117188,717.3333740234375,718.6666870117188],"ymouse":[818,818,818,818,818,818,818,818,818,818,818,818,818,818,818,818,818,818,818,818,818,818,818,818,818,818,818,818,818,818,818,818,818,818,810.6666870117188,810,809.3333740234375,807.3333740234375,807.3333740234375,806,805.3333740234375,804.6666870117188,802.6666870117188,800.6666870117188,798.6666870117188,788,778,703.3333740234375,681.3333740234375,631.3333740234375,603.3333740234375,550.6666870117188,503.3333740234375,434,408,362,318,254.66668701171875,234.6666717529297,196,162,145.33334350585938,118,87.33333587646484],"timestamp_mouse":[10,31,50,70,90,110,130,150,170,190,210,231,250,271,290,310,330,350,370,390,410,430,450,470,490,510,530,550,570,590,610,630,650,670,690,710,730,753,770,790,811,830,851,870,890,910,930,951,970,991,1010,1031,1050,1070,1091,1110,1130,1152,1171,1191,1210,1231,1251,1271],"xSR":350,"ySR":768,"xT1":30,"yT1":0,"xT2":670,"yT2":0,"toosoon":0,"cond_shown":"randomdotsizeEA","ratio_trial":250,"smaller_num":"2","larger_num":"8","correct_side":2,"subjID":"48wm","gender":"No_gender","age":"No_age","school":"No_school"},{"start_time":1549382232445,"click_time":1549382233712,"finger_time":1549382233352,"fix_duration":1241.0426525931293,"trial":15,"RT":907,"MT":360,"sideResp":1,"stimulus":"img/750/equaldotanddens/L/6_Ratio_750_L_24_R_18.png","xmouse":[392.66668701171875,392.66668701171875,392.66668701171875,392.66668701171875,392.66668701171875,393.3333435058594,393.3333435058594,393.3333435058594,393.3333435058594,393.3333435058594,393.3333435058594,393.3333435058594,393.3333435058594,393.3333435058594,393.3333435058594,393.3333435058594,393.3333435058594,393.3333435058594,393.3333435058594,393.3333435058594,393.3333435058594,393.3333435058594,393.3333435058594,393.3333435058594,393.3333435058594,392,392,392,392,392,392,392,392,392,392,392,392,392,392,392,392,392.66668701171875,393.3333435058594,394,392.66668701171875,389.3333435058594,387.3333435058594,375.3333435058594,354.66668701171875,320.66668701171875,309.3333435058594,286,266,257.3333435058594,232,217.33334350585938,200.6666717529297,190.6666717529297,169.33334350585938,142.6666717529297,135.33334350585938,124,115.33333587646484,110],"ymouse":[807.3333740234375,807.3333740234375,807.3333740234375,807.3333740234375,808,808,808,808,808,808,808,808,808,808,808,807.3333740234375,807.3333740234375,807.3333740234375,807.3333740234375,807.3333740234375,807.3333740234375,807.3333740234375,807.3333740234375,807.3333740234375,807.3333740234375,808,808,808,808,808,808,808,808,808,808,808.6666870117188,808.6666870117188,808.6666870117188,808.6666870117188,808.6666870117188,808.6666870117188,805.3333740234375,802.6666870117188,792.6666870117188,768,748,737.3333740234375,708,673.3333740234375,620,602,565.3333740234375,530,512,454,411.3333435058594,363.3333435058594,340,294,222.6666717529297,198.6666717529297,153.33334350585938,112,94.66667175292969],"timestamp_mouse":[10,39,47,67,88,107,127,147,168,187,207,227,248,267,287,307,327,347,367,387,407,428,447,467,487,507,528,547,567,587,607,627,647,667,687,707,727,747,767,787,808,827,847,867,887,907,927,947,967,988,1008,1027,1047,1067,1089,1107,1127,1147,1167,1188,1207,1227,1247,1267],"xSR":350,"ySR":768,"xT1":30,"yT1":0,"xT2":670,"yT2":0,"toosoon":0,"cond_shown":"equaldotanddens","ratio_trial":750,"smaller_num":"18","larger_num":"24","correct_side":1,"subjID":"48wm","gender":"No_gender","age":"No_age","school":"No_school"},{"start_time":1549382235408,"click_time":1549382236512,"finger_time":1549382236232,"fix_duration":614.3135755441891,"trial":16,"RT":824,"MT":280,"sideResp":2,"stimulus":"img/750/randomdotsize/R/12_Ratio_750_L_3_R_4.png","xmouse":[404.66668701171875,403.3333435058594,402.66668701171875,402.66668701171875,402,402.66668701171875,402.66668701171875,402.66668701171875,403.3333435058594,403.3333435058594,403.3333435058594,404,404,404,405.3333435058594,405.3333435058594,405.3333435058594,405.3333435058594,405.3333435058594,405.3333435058594,405.3333435058594,404.66668701171875,405.3333435058594,405.3333435058594,405.3333435058594,405.3333435058594,405.3333435058594,405.3333435058594,405.3333435058594,405.3333435058594,405.3333435058594,406,406,406,406,406,406.66668701171875,406.66668701171875,406.66668701171875,406.66668701171875,431.3333435058594,467.3333435058594,495.3333435058594,524.6666870117188,538,563.3333740234375,591.3333740234375,599.3333740234375,617.3333740234375,636,644.6666870117188,666,676,684.6666870117188,689.3333740234375],"ymouse":[809.3333740234375,808,808,807.3333740234375,807.3333740234375,807.3333740234375,807.3333740234375,807.3333740234375,806.6666870117188,806.6666870117188,806.6666870117188,806.6666870117188,806.6666870117188,806.6666870117188,806,806,806,806,806,806,806,804.6666870117188,804.6666870117188,804.6666870117188,804.6666870117188,804.6666870117188,804.6666870117188,804.6666870117188,804.6666870117188,804.6666870117188,804.6666870117188,805.3333740234375,805.3333740234375,805.3333740234375,805.3333740234375,805.3333740234375,802.6666870117188,802.6666870117188,802.6666870117188,802.6666870117188,740,664.6666870117188,609.3333740234375,550,518.6666870117188,459.3333435058594,382,360,310,261.3333435058594,238.6666717529297,173.33334350585938,135.33334350585938,100,83.33333587646484],"timestamp_mouse":[30,44,64,84,104,124,145,164,184,204,240,245,264,284,305,324,344,364,384,405,424,444,464,484,504,524,544,564,584,604,624,645,665,684,704,724,744,764,784,805,824,845,864,884,904,924,945,964,984,1004,1024,1045,1064,1084,1104],"xSR":350,"ySR":768,"xT1":30,"yT1":0,"xT2":670,"yT2":0,"toosoon":0,"cond_shown":"randomdotsize","ratio_trial":750,"smaller_num":"3","larger_num":"4","correct_side":2,"subjID":"48wm","gender":"No_gender","age":"No_age","school":"No_school"},{"start_time":1549382237985,"click_time":1549382239174,"finger_time":1549382238832,"fix_duration":250,"trial":17,"RT":847,"MT":342,"sideResp":2,"stimulus":"img/250/randomdotsizeEA/R/10_Ratio_250_L_4_R_16.png","xmouse":[400,400,400,400,400,400,400,400,400,400,400,400,400,400,400,400,400,400,400,399.3333435058594,399.3333435058594,399.3333435058594,399.3333435058594,399.3333435058594,399.3333435058594,399.3333435058594,399.3333435058594,399.3333435058594,399.3333435058594,398,398,398,398,398,398,398,398,398,398,399.3333435058594,403.3333435058594,410,430.66668701171875,442.66668701171875,466,494,512,521.3333740234375,543.3333740234375,572,590.6666870117188,598.6666870117188,614.6666870117188,622.6666870117188,653.3333740234375,662,682,691.3333740234375,708.6666870117188,721.3333740234375],"ymouse":[829.3333740234375,829.3333740234375,829.3333740234375,829.3333740234375,829.3333740234375,829.3333740234375,829.3333740234375,829.3333740234375,829.3333740234375,828.6666870117188,828.6666870117188,828.6666870117188,828.6666870117188,828.6666870117188,828.6666870117188,828.6666870117188,828.6666870117188,828.6666870117188,828.6666870117188,826,826,826,826,826,826,826,826,826,826,824.6666870117188,824.6666870117188,824,824,824,823.3333740234375,822.6666870117188,822,820.6666870117188,820,815.3333740234375,804.6666870117188,794,762.6666870117188,744,708.6666870117188,649.3333740234375,606,582.6666870117188,532.6666870117188,458,410.66668701171875,388.66668701171875,342,320,232.6666717529297,212,171.33334350585938,153.33334350585938,121.33334350585938,94],"timestamp_mouse":[8,32,48,67,87,107,127,147,167,187,207,227,247,267,287,307,327,348,367,387,407,427,447,467,487,507,527,547,568,587,608,627,647,667,687,707,727,747,767,787,807,827,847,867,887,907,927,947,967,989,1007,1027,1047,1067,1089,1107,1128,1147,1167,1188],"xSR":350,"ySR":768,"xT1":30,"yT1":0,"xT2":670,"yT2":0,"toosoon":0,"cond_shown":"randomdotsizeEA","ratio_trial":250,"smaller_num":"4","larger_num":"16","correct_side":2,"subjID":"48wm","gender":"No_gender","age":"No_age","school":"No_school"},{"start_time":1549382241576,"click_time":1549382242692,"finger_time":1549382242352,"fix_duration":943.6519214277579,"trial":18,"RT":776,"MT":340,"sideResp":1,"stimulus":"img/250/randomdotsizeEA/L/15_Ratio_250_L_12_R_3.png","xmouse":[394.66668701171875,394.66668701171875,394.66668701171875,394.66668701171875,394.66668701171875,394.66668701171875,394.66668701171875,394.66668701171875,395.3333435058594,395.3333435058594,395.3333435058594,395.3333435058594,395.3333435058594,395.3333435058594,395.3333435058594,395.3333435058594,395.3333435058594,395.3333435058594,395.3333435058594,395.3333435058594,395.3333435058594,395.3333435058594,395.3333435058594,395.3333435058594,395.3333435058594,395.3333435058594,395.3333435058594,395.3333435058594,394,394,394,394,394,394,394,384.66668701171875,377.3333435058594,374,365.3333435058594,355.3333435058594,337.3333435058594,330,308.66668701171875,283.3333435058594,270,236.6666717529297,222,214,198,183.33334350585938,161.33334350585938,154,138.6666717529297,124.66667175292969,118,106.66667175292969],"ymouse":[808.6666870117188,808.6666870117188,808.6666870117188,808.6666870117188,809.3333740234375,809.3333740234375,809.3333740234375,809.3333740234375,810.6666870117188,810.6666870117188,810.6666870117188,810.6666870117188,810.6666870117188,810.6666870117188,810.6666870117188,810.6666870117188,810.6666870117188,810.6666870117188,814,814,814,814,814,814,814,814,814,814,811.3333740234375,811.3333740234375,811.3333740234375,811.3333740234375,811.3333740234375,811.3333740234375,811.3333740234375,800.6666870117188,786.6666870117188,778.6666870117188,754,716,642.6666870117188,616.6666870117188,573.3333740234375,530,510,446,406,386.66668701171875,344,300.66668701171875,234,213.33334350585938,174.6666717529297,137.33334350585938,121.33334350585938,90],"timestamp_mouse":[32,36,56,77,96,116,136,156,176,196,216,236,256,276,296,316,336,356,376,397,416,436,456,476,496,517,536,556,576,597,616,636,656,677,696,717,736,756,776,796,817,836,856,876,896,918,935,957,976,996,1018,1036,1056,1076,1096,1116],"xSR":350,"ySR":768,"xT1":30,"yT1":0,"xT2":670,"yT2":0,"toosoon":0,"cond_shown":"randomdotsizeEA","ratio_trial":250,"smaller_num":"3","larger_num":"12","correct_side":1,"subjID":"48wm","gender":"No_gender","age":"No_age","school":"No_school"},{"start_time":1549382244611,"click_time":1549382245652,"finger_time":1549382245392,"fix_duration":978.3795712586813,"trial":19,"RT":781,"MT":260,"sideResp":2,"stimulus":"img/500/equaldotanddens/R/9_Ratio_500_L_2_R_4.png","xmouse":[400,400,400,400,400,400,400,400,400,400,400,400,400,400,400,400,400,400,400,400,400,400,400,400,400,400,400,400,400,400,401.3333435058594,401.3333435058594,401.3333435058594,401.3333435058594,401.3333435058594,401.3333435058594,401.3333435058594,401.3333435058594,401.3333435058594,430,459.3333435058594,485.3333435058594,501.3333435058594,537.3333740234375,557.3333740234375,592.6666870117188,631.3333740234375,649.3333740234375,656.6666870117188,670.6666870117188,687.3333740234375,695.3333740234375,700],"ymouse":[812,812,812,812,812,812,812,812,812,812,813.3333740234375,813.3333740234375,813.3333740234375,813.3333740234375,813.3333740234375,813.3333740234375,813.3333740234375,813.3333740234375,813.3333740234375,813.3333740234375,816,816,816,816,816,816,816,816,816,816,818,818,818,818,818,818,818,818,818,732,649.3333740234375,585.3333740234375,549.3333740234375,476.66668701171875,442,378,302.66668701171875,256.66668701171875,235.33334350585938,192,136.6666717529297,108,96],"timestamp_mouse":[8,34,41,61,81,101,121,142,161,181,201,221,241,261,281,301,321,341,361,381,403,421,441,461,481,503,521,541,561,581,601,622,641,661,681,701,722,741,761,781,802,821,841,861,881,901,921,941,961,981,1003,1021,1041],"xSR":350,"ySR":768,"xT1":30,"yT1":0,"xT2":670,"yT2":0,"toosoon":0,"cond_shown":"equaldotanddens","ratio_trial":500,"smaller_num":"2","larger_num":"4","correct_side":2,"subjID":"48wm","gender":"No_gender","age":"No_age","school":"No_school"},{"start_time":1549382247556,"click_time":1549382248673,"finger_time":1549382248434,"fix_duration":883.9714305655074,"trial":20,"RT":878,"MT":239,"sideResp":2,"stimulus":"img/500/randomdotsize/R/12_Ratio_500_L_1_R_2.png","xmouse":[398.66668701171875,398.66668701171875,399.3333435058594,399.3333435058594,399.3333435058594,400,400,400,400,400.66668701171875,400.66668701171875,401.3333435058594,401.3333435058594,402,402,402,402,402,402,402,404,404,404.66668701171875,404.66668701171875,405.3333435058594,405.3333435058594,406,406,406,406,406,406,406,406,406.66668701171875,406.66668701171875,406.66668701171875,406,405.3333435058594,405.3333435058594,405.3333435058594,406,412.66668701171875,436,458,471.3333435058594,498.66668701171875,533.3333740234375,551.3333740234375,597.3333740234375,628,662,678,715.3333740234375,731.3333740234375,738.6666870117188],"ymouse":[824.6666870117188,824.6666870117188,824.6666870117188,824.6666870117188,824.6666870117188,824,824,824,823.3333740234375,822.6666870117188,822.6666870117188,823.3333740234375,823.3333740234375,823.3333740234375,823.3333740234375,823.3333740234375,823.3333740234375,823.3333740234375,823.3333740234375,823.3333740234375,822,822,821.3333740234375,821.3333740234375,821.3333740234375,821.3333740234375,821.3333740234375,821.3333740234375,821.3333740234375,821.3333740234375,821.3333740234375,821.3333740234375,821.3333740234375,820.6666870117188,820.6666870117188,820.6666870117188,820,820,817.3333740234375,816.6666870117188,815.3333740234375,812.6666870117188,794.6666870117188,736.6666870117188,686,657.3333740234375,593.3333740234375,522,486.66668701171875,387.3333435058594,324.66668701171875,261.3333435058594,231.33334350585938,155.33334350585938,115.33334350585938,97.33333587646484],"timestamp_mouse":[26,36,56,76,96,116,136,156,176,196,216,236,256,276,296,316,336,356,376,396,416,436,456,476,496,516,536,556,576,596,616,636,656,676,696,716,736,756,778,796,816,836,856,878,896,916,936,956,976,996,1016,1036,1056,1079,1096,1117],"xSR":350,"ySR":768,"xT1":30,"yT1":0,"xT2":670,"yT2":0,"toosoon":0,"cond_shown":"randomdotsize","ratio_trial":500,"smaller_num":"1","larger_num":"2","correct_side":2,"subjID":"48wm","gender":"No_gender","age":"No_age","school":"No_school"},{"start_time":1549382250759,"click_time":1549382251993,"finger_time":1549382251754,"fix_duration":966.8166459336962,"trial":21,"RT":995,"MT":239,"sideResp":2,"stimulus":"img/500/randomdotsize/R/2_Ratio_500_L_3_R_6.png","xmouse":[407.3333435058594,407.3333435058594,407.3333435058594,407.3333435058594,405.3333435058594,405.3333435058594,405.3333435058594,404.66668701171875,404.66668701171875,404.66668701171875,404.66668701171875,404.66668701171875,404.66668701171875,404.66668701171875,405.3333435058594,405.3333435058594,405.3333435058594,405.3333435058594,405.3333435058594,405.3333435058594,405.3333435058594,405.3333435058594,405.3333435058594,405.3333435058594,406,406,406,406,406,406,406,406,406,406,406,406,406,406,406,406,406,406,406.66668701171875,406.66668701171875,407.3333435058594,408,408,410.66668701171875,416,458,471.3333435058594,496,507.3333435058594,532.6666870117188,562,594.6666870117188,601.3333740234375,614.6666870117188,629.3333740234375,636.6666870117188,662.6666870117188,682.6666870117188],"ymouse":[820,820,820,820,814.6666870117188,814.6666870117188,814.6666870117188,814,814,814,814,814,814,814,814,814,814,814,814,814,814,814,814,814,816,816,816,816,816,816,816,816,816,816,816,814.6666870117188,814.6666870117188,814.6666870117188,814.6666870117188,811.3333740234375,810,808.6666870117188,808,807.3333740234375,806,805.3333740234375,804.6666870117188,797.3333740234375,786,698.6666870117188,670,612.6666870117188,582.6666870117188,516,442.66668701171875,338.66668701171875,309.3333435058594,248.66668701171875,196,174,118,91.33333587646484],"timestamp_mouse":[30,34,53,73,98,113,133,153,173,193,213,233,253,273,294,313,333,353,373,393,414,433,454,473,494,513,533,553,573,594,613,633,653,673,693,713,733,753,773,793,813,833,853,873,895,913,933,953,973,995,1013,1033,1053,1073,1093,1115,1133,1153,1173,1194,1214,1234],"xSR":350,"ySR":768,"xT1":30,"yT1":0,"xT2":670,"yT2":0,"toosoon":0,"cond_shown":"randomdotsize","ratio_trial":500,"smaller_num":"3","larger_num":"6","correct_side":2,"subjID":"48wm","gender":"No_gender","age":"No_age","school":"No_school"},{"start_time":1549382253845,"click_time":1549382255232,"finger_time":1549382254932,"fix_duration":592.8853016029099,"trial":22,"RT":1087,"MT":300,"sideResp":2,"stimulus":"img/750/equaldotsize/R/12_Ratio_750_L_3_R_4.png","xmouse":[394,394.66668701171875,394.66668701171875,394.66668701171875,394.66668701171875,394.66668701171875,394.66668701171875,394.66668701171875,394.66668701171875,394.66668701171875,394.66668701171875,399.3333435058594,399.3333435058594,399.3333435058594,399.3333435058594,399.3333435058594,399.3333435058594,399.3333435058594,399.3333435058594,399.3333435058594,399.3333435058594,398.66668701171875,398.66668701171875,398.66668701171875,398.66668701171875,398.66668701171875,398.66668701171875,398.66668701171875,398.66668701171875,398.66668701171875,398.66668701171875,396.66668701171875,396.66668701171875,396.66668701171875,396.66668701171875,396.66668701171875,396.66668701171875,396.66668701171875,396.66668701171875,396.66668701171875,396.66668701171875,396,396,396,396,396,396,396,396,396,394.66668701171875,395.3333435058594,399.3333435058594,404.66668701171875,418.66668701171875,429.3333435058594,434,452.66668701171875,474,502,516,542,577.3333740234375,594,600.6666870117188,615.3333740234375,623.3333740234375,674.6666870117188,688.6666870117188,714],"ymouse":[816.6666870117188,816.6666870117188,816.6666870117188,816.6666870117188,816.6666870117188,816.6666870117188,816.6666870117188,816.6666870117188,816.6666870117188,816.6666870117188,816.6666870117188,824.6666870117188,824.6666870117188,824.6666870117188,824.6666870117188,824.6666870117188,824.6666870117188,824.6666870117188,824.6666870117188,824.6666870117188,824.6666870117188,822.6666870117188,822.6666870117188,822.6666870117188,822.6666870117188,822.6666870117188,822.6666870117188,822.6666870117188,822.6666870117188,822.6666870117188,822.6666870117188,820.6666870117188,820.6666870117188,820.6666870117188,820.6666870117188,820.6666870117188,820.6666870117188,820.6666870117188,820.6666870117188,820.6666870117188,820.6666870117188,820,820,820,820,820,820,820,820,820,813.3333740234375,812,802.6666870117188,791.3333740234375,759.3333740234375,728,712.6666870117188,656,605.3333740234375,547.3333740234375,518.6666870117188,464.66668701171875,382.66668701171875,327.3333435058594,300,249.33334350585938,226,137.33334350585938,120.66667175292969,92.66667175292969],"timestamp_mouse":[11,30,47,67,87,107,127,147,168,187,207,227,247,267,287,307,327,347,367,388,407,427,448,467,487,508,527,547,567,587,608,627,647,667,687,707,727,747,767,788,807,827,847,867,887,907,927,947,967,987,1007,1027,1047,1067,1087,1107,1127,1148,1167,1187,1207,1227,1247,1267,1287,1307,1327,1349,1368,1387],"xSR":350,"ySR":768,"xT1":30,"yT1":0,"xT2":670,"yT2":0,"toosoon":0,"cond_shown":"equaldotsize","ratio_trial":750,"smaller_num":"3","larger_num":"4","correct_side":2,"subjID":"48wm","gender":"No_gender","age":"No_age","school":"No_school"},{"start_time":1549382256644,"click_time":1549382257693,"finger_time":1549382257394,"fix_duration":250,"trial":23,"RT":750,"MT":299,"sideResp":1,"stimulus":"img/250/randomdotsizeEA/L/2_Ratio_250_L_16_R_4.png","xmouse":[400,400,400,400,400,400,400,400,402,402.66668701171875,403.3333435058594,404,404,404.66668701171875,405.3333435058594,405.3333435058594,405.3333435058594,405.3333435058594,405.3333435058594,405.3333435058594,404.66668701171875,404.66668701171875,404.66668701171875,404.66668701171875,404.66668701171875,404.66668701171875,404.66668701171875,404.66668701171875,404.66668701171875,404,404,404,404,404,404,404,395.3333435058594,382,364.66668701171875,355.3333435058594,331.3333435058594,316,282.66668701171875,240,215.33334350585938,204,181.33334350585938,170.6666717529297,128.6666717529297,120,108.66667175292969,103.33333587646484,92.66667175292969],"ymouse":[814,814,814,814,814,814,814,814,816.6666870117188,816.6666870117188,816.6666870117188,816.6666870117188,817.3333740234375,818.6666870117188,818.6666870117188,818.6666870117188,818.6666870117188,818,818,818,817.3333740234375,817.3333740234375,817.3333740234375,817.3333740234375,817.3333740234375,817.3333740234375,817.3333740234375,817.3333740234375,817.3333740234375,812.6666870117188,812.6666870117188,812.6666870117188,812.6666870117188,812.6666870117188,812.6666870117188,812.6666870117188,788.6666870117188,760.6666870117188,724.6666870117188,704.6666870117188,665.3333740234375,644.6666870117188,598,519.3333740234375,460.66668701171875,430.66668701171875,372.66668701171875,345.3333435058594,227.33334350585938,198.6666717529297,145.33334350585938,124,88],"timestamp_mouse":[10,32,48,68,88,108,128,148,168,190,208,228,248,269,288,308,328,349,368,388,408,428,448,468,488,508,528,549,568,588,608,628,648,669,688,709,728,750,768,791,810,828,848,868,888,908,928,949,968,988,1008,1028,1049],"xSR":350,"ySR":768,"xT1":30,"yT1":0,"xT2":670,"yT2":0,"toosoon":0,"cond_shown":"randomdotsizeEA","ratio_trial":250,"smaller_num":"4","larger_num":"16","correct_side":1,"subjID":"48wm","gender":"No_gender","age":"No_age","school":"No_school"},{"start_time":1549382259660,"click_time":1549382261372,"finger_time":1549382261052,"fix_duration":806.5333164772968,"trial":24,"RT":1392,"MT":320,"sideResp":2,"stimulus":"img/900/randomdotsizeEA/L/1_Ratio_900_L_10_R_9.png","xmouse":[403.3333435058594,403.3333435058594,403.3333435058594,403.3333435058594,403.3333435058594,403.3333435058594,403.3333435058594,403.3333435058594,403.3333435058594,403.3333435058594,403.3333435058594,403.3333435058594,403.3333435058594,403.3333435058594,403.3333435058594,403.3333435058594,403.3333435058594,403.3333435058594,403.3333435058594,403.3333435058594,404,404,404,404,404,404,404,404,404,404,405.3333435058594,405.3333435058594,405.3333435058594,405.3333435058594,405.3333435058594,405.3333435058594,405.3333435058594,405.3333435058594,405.3333435058594,405.3333435058594,405.3333435058594,405.3333435058594,405.3333435058594,405.3333435058594,405.3333435058594,405.3333435058594,405.3333435058594,405.3333435058594,405.3333435058594,405.3333435058594,404,404,404,404,404,404,404,404,404,404,404,404,404,404,404,404,404,404,404,436.66668701171875,443.3333435058594,457.3333435058594,465.3333435058594,502,511.3333435058594,526.6666870117188,535.3333740234375,549.3333740234375,572.6666870117188,590,598.6666870117188,617.3333740234375,635.3333740234375,659.3333740234375,664.6666870117188,680],"ymouse":[819.3333740234375,819.3333740234375,819.3333740234375,819.3333740234375,819.3333740234375,819.3333740234375,819.3333740234375,819.3333740234375,819.3333740234375,819.3333740234375,818.6666870117188,818.6666870117188,818.6666870117188,818.6666870117188,818.6666870117188,818.6666870117188,818.6666870117188,818.6666870117188,818.6666870117188,818.6666870117188,818.6666870117188,818.6666870117188,818.6666870117188,818.6666870117188,818.6666870117188,818.6666870117188,818.6666870117188,818.6666870117188,818.6666870117188,818.6666870117188,819.3333740234375,819.3333740234375,819.3333740234375,819.3333740234375,819.3333740234375,819.3333740234375,819.3333740234375,819.3333740234375,819.3333740234375,819.3333740234375,818,818,818,818,818,818,818,818,818,818,816,816,816,816,816,816,816,816,816,816,812.6666870117188,812.6666870117188,812.6666870117188,812.6666870117188,812.6666870117188,812.6666870117188,812.6666870117188,812.6666870117188,812.6666870117188,723.3333740234375,702.6666870117188,660.6666870117188,637.3333740234375,533.3333740234375,504.66668701171875,452,424,373.3333435058594,298,248.66668701171875,228,184.6666717529297,144.6666717529297,92.66667175292969,78.66667175292969,52.66667175292969],"timestamp_mouse":[13,32,53,72,92,112,132,152,172,193,212,232,252,272,292,312,332,352,372,392,413,432,452,472,492,512,532,552,572,592,612,632,652,672,692,712,732,752,772,792,812,832,852,872,892,912,932,953,972,992,1012,1033,1052,1072,1092,1112,1132,1152,1172,1192,1212,1232,1252,1274,1292,1312,1332,1352,1374,1392,1412,1432,1452,1473,1493,1512,1532,1552,1572,1592,1612,1632,1652,1673,1692,1712],"xSR":350,"ySR":768,"xT1":30,"yT1":0,"xT2":670,"yT2":0,"toosoon":0,"cond_shown":"randomdotsizeEA","ratio_trial":900,"smaller_num":"9","larger_num":"10","correct_side":1,"subjID":"48wm","gender":"No_gender","age":"No_age","school":"No_school"},{"start_time":1549382263298,"click_time":1549382264613,"finger_time":1549382264254,"fix_duration":665.5908699674743,"trial":25,"RT":956,"MT":359,"sideResp":1,"stimulus":"img/900/equaldotanddens/R/15_Ratio_900_L_9_R_10.png","xmouse":[405.3333435058594,405.3333435058594,405.3333435058594,405.3333435058594,405.3333435058594,405.3333435058594,405.3333435058594,404.66668701171875,404.66668701171875,404.66668701171875,404.66668701171875,404.66668701171875,404.66668701171875,404.66668701171875,404.66668701171875,404.66668701171875,404.66668701171875,404.66668701171875,404.66668701171875,404.66668701171875,404.66668701171875,404.66668701171875,404.66668701171875,404.66668701171875,404.66668701171875,404.66668701171875,404.66668701171875,404.66668701171875,404.66668701171875,404.66668701171875,404.66668701171875,404.66668701171875,404.66668701171875,404.66668701171875,404.66668701171875,404.66668701171875,404.66668701171875,404,404,404,404,401.3333435058594,400,398.66668701171875,396.66668701171875,393.3333435058594,391.3333435058594,384,377.3333435058594,373.3333435058594,361.3333435058594,341.3333435058594,307.3333435058594,296.66668701171875,277.3333435058594,255.33334350585938,243.33334350585938,202.6666717529297,180,161.33334350585938,152.6666717529297,136.6666717529297,116.66667175292969,112.66667175292969,102.66667175292969,96],"ymouse":[821.3333740234375,821.3333740234375,821.3333740234375,821.3333740234375,821.3333740234375,821.3333740234375,821.3333740234375,818.6666870117188,818.6666870117188,818.6666870117188,818.6666870117188,818.6666870117188,818.6666870117188,818.6666870117188,818.6666870117188,818.6666870117188,818.6666870117188,818,818,818,818,818,818,818,818,818,818,817.3333740234375,817.3333740234375,817.3333740234375,817.3333740234375,817.3333740234375,817.3333740234375,817.3333740234375,817.3333740234375,817.3333740234375,817.3333740234375,814,814,814,814,806.6666870117188,800.6666870117188,798,790,780.6666870117188,776,760,750,742.6666870117188,721.3333740234375,686,620.6666870117188,598,550.6666870117188,504.66668701171875,480.66668701171875,402.66668701171875,348.66668701171875,296,271.3333435058594,220,155.33334350585938,136.6666717529297,104,77.33333587646484],"timestamp_mouse":[14,35,54,75,95,115,134,155,174,194,214,234,254,274,295,314,334,355,374,394,414,434,454,474,494,514,535,554,574,595,615,634,654,674,694,714,734,756,775,794,814,834,855,874,894,914,934,956,974,994,1014,1034,1054,1074,1094,1114,1134,1157,1174,1194,1214,1234,1256,1275,1294,1314],"xSR":350,"ySR":768,"xT1":30,"yT1":0,"xT2":670,"yT2":0,"toosoon":0,"cond_shown":"equaldotanddens","ratio_trial":900,"smaller_num":"9","larger_num":"10","correct_side":2,"subjID":"48wm","gender":"No_gender","age":"No_age","school":"No_school"},{"start_time":1549382266778,"click_time":1549382267932,"finger_time":1549382267652,"fix_duration":439.52118787959773,"trial":26,"RT":874,"MT":280,"sideResp":1,"stimulus":"img/500/equaldotanddens/L/13_Ratio_500_L_12_R_6.png","xmouse":[399,399,399,399,399,399,399,399,399,399,399,399,399,399,399,399,399,399,399,399,399,399,399,399,399,399,399,399,399,399,399,399,399,399,399,399,399,399,399,396,396,396,396,378.66668701171875,359.3333435058594,330,310.66668701171875,301.3333435058594,282,272,239.33334350585938,216.6666717529297,193.33334350585938,181.33334350585938,159.33334350585938,130.6666717529297,114,106.66667175292969,91.33333587646484],"ymouse":[815,815,815,815,815,815,815,815,815,815,815,815,815,815,815,815,815,815,815,815,815,815,815,815,815,815,815,815,815,815,815,815,815,815,815,815,815,815,815,807.3333740234375,806,806,806,784,754,696.6666870117188,652,628,575.3333740234375,546.6666870117188,458,400.66668701171875,342,314,257.3333435058594,181.33334350585938,138,118.66667175292969,87.33333587646484],"timestamp_mouse":[2,17,34,54,74,94,114,138,154,174,194,214,234,254,274,294,314,334,354,374,394,414,434,454,474,494,514,534,554,574,594,614,634,654,674,694,714,734,754,774,794,815,834,854,874,894,914,934,954,974,996,1015,1034,1055,1074,1095,1114,1134,1154],"xSR":350,"ySR":768,"xT1":30,"yT1":0,"xT2":670,"yT2":0,"toosoon":0,"cond_shown":"equaldotanddens","ratio_trial":500,"smaller_num":"6","larger_num":"12","correct_side":1,"subjID":"48wm","gender":"No_gender","age":"No_age","school":"No_school"},{"start_time":1549382270073,"click_time":1549382271312,"finger_time":1549382271052,"fix_duration":979.0414854883064,"trial":27,"RT":979,"MT":260,"sideResp":1,"stimulus":"img/500/randomdotsizeEA/L/11_Ratio_500_L_12_R_6.png","xmouse":[395.3333435058594,395.3333435058594,398,398,398,398,398,398,398,398,398,398,400,400,400,400,400,400,400,400,400,400,400,400,400,400,400,400,400,400,400,400,400,400,400,400,400,400,400,400,400,400,399.3333435058594,399.3333435058594,399.3333435058594,399.3333435058594,375.3333435058594,364,364,327.3333435058594,305.3333435058594,271.3333435058594,252.66668701171875,242,225.33334350585938,212,158,142.6666717529297,117.33333587646484,106,91.33333587646484,73.33333587646484,60.66667175292969],"ymouse":[820,820,824,824,824,824,824,824,824,824,824,824,823.3333740234375,823.3333740234375,823.3333740234375,823.3333740234375,823.3333740234375,823.3333740234375,823.3333740234375,823.3333740234375,823.3333740234375,823.3333740234375,822,822,822,822,822,822,822,822,822,822,821.3333740234375,821.3333740234375,821.3333740234375,821.3333740234375,821.3333740234375,821.3333740234375,821.3333740234375,821.3333740234375,821.3333740234375,821.3333740234375,819.3333740234375,819.3333740234375,819.3333740234375,819.3333740234375,794.6666870117188,781.3333740234375,781.3333740234375,733.3333740234375,700.6666870117188,632.6666870117188,576,545.3333740234375,484,450.66668701171875,334.66668701171875,308,256,229.33334350585938,176.6666717529297,114,85.33333587646484],"timestamp_mouse":[2,33,40,59,79,99,119,139,159,180,199,219,239,259,279,299,319,339,359,379,399,419,439,459,479,499,520,539,560,579,600,619,639,659,679,699,719,740,759,780,799,821,840,859,879,899,920,939,960,979,999,1023,1040,1059,1079,1100,1121,1140,1159,1179,1199,1221,1239],"xSR":350,"ySR":768,"xT1":30,"yT1":0,"xT2":670,"yT2":0,"toosoon":0,"cond_shown":"randomdotsizeEA","ratio_trial":500,"smaller_num":"6","larger_num":"12","correct_side":1,"subjID":"48wm","gender":"No_gender","age":"No_age","school":"No_school"},{"start_time":1549382273676,"click_time":1549382274672,"finger_time":1549382274332,"fix_duration":1323.770914843793,"trial":28,"RT":656,"MT":340,"sideResp":1,"stimulus":"img/250/equaldotsize/L/15_Ratio_250_L_12_R_3.png","xmouse":[402,402,402,402,402,402,402,402,404,404,404,404,404,404,404,404,404,404,404,404,404,404,404,404,404,404,404,404,398.66668701171875,397.3333435058594,392.66668701171875,376,367.3333435058594,348,325.3333435058594,312.66668701171875,283.3333435058594,244,232,210,192,183.33334350585938,163.33334350585938,152.6666717529297,146,143.33334350585938,138,132,130.6666717529297,126],"ymouse":[831.3333740234375,831.3333740234375,831.3333740234375,831.3333740234375,831.3333740234375,831.3333740234375,831.3333740234375,831.3333740234375,832,832,832,832,832,832,832,832,832,832,830,830,830,830,830,830,830,830,830,830,821.3333740234375,819.3333740234375,813.3333740234375,779.3333740234375,762,722,675.3333740234375,650,588.6666870117188,485.3333435058594,450.66668701171875,381.3333435058594,314,283.3333435058594,200.6666717529297,158,122.66667175292969,107.33333587646484,84.66667175292969,63.333335876464844,59.333335876464844,51.333335876464844],"timestamp_mouse":[16,36,56,76,96,116,137,156,176,196,216,236,256,276,297,316,336,356,376,396,417,436,456,476,496,517,537,556,576,597,617,638,656,676,696,716,736,756,776,796,816,836,856,876,897,916,936,956,976,996],"xSR":350,"ySR":768,"xT1":30,"yT1":0,"xT2":670,"yT2":0,"toosoon":0,"cond_shown":"equaldotsize","ratio_trial":250,"smaller_num":"3","larger_num":"12","correct_side":1,"subjID":"48wm","gender":"No_gender","age":"No_age","school":"No_school"},{"start_time":1549382277092,"click_time":1549382278392,"finger_time":1549382278152,"fix_duration":1278.284784001466,"trial":29,"RT":1060,"MT":240,"sideResp":2,"stimulus":"img/750/equaldotanddens/R/15_Ratio_750_L_9_R_12.png","xmouse":[410,410,410,410,410.66668701171875,410.66668701171875,410.66668701171875,410.66668701171875,410.66668701171875,410.66668701171875,410.66668701171875,410.66668701171875,410.66668701171875,410.66668701171875,411.3333435058594,411.3333435058594,411.3333435058594,411.3333435058594,411.3333435058594,411.3333435058594,411.3333435058594,411.3333435058594,411.3333435058594,411.3333435058594,410.66668701171875,410.66668701171875,410.66668701171875,410.66668701171875,410.66668701171875,410.66668701171875,410.66668701171875,410.66668701171875,410.66668701171875,410.66668701171875,410.66668701171875,410.66668701171875,410.66668701171875,410.66668701171875,410.66668701171875,410.66668701171875,410.66668701171875,410.66668701171875,410.66668701171875,410.66668701171875,410.66668701171875,410.66668701171875,410.66668701171875,410.66668701171875,410.66668701171875,410.66668701171875,410.66668701171875,410.66668701171875,410.66668701171875,454,461.3333435058594,473.3333435058594,481.3333435058594,502,547.3333740234375,579.3333740234375,594,622,647.3333740234375,679.3333740234375,688,702],"ymouse":[820,820,820,820,820,820,820,820,820,820,820,820,820,820,820.6666870117188,820.6666870117188,820.6666870117188,820.6666870117188,820.6666870117188,820.6666870117188,820.6666870117188,820.6666870117188,820.6666870117188,820.6666870117188,820.6666870117188,820.6666870117188,820.6666870117188,820.6666870117188,820.6666870117188,820.6666870117188,820.6666870117188,820.6666870117188,820.6666870117188,820.6666870117188,820.6666870117188,820.6666870117188,820.6666870117188,820.6666870117188,820,820,820,820,820,820,820,820,820,8