[{"start_time":1549381601730,"click_time":1549381602839,"finger_time":1549381601738,"fix_duration":1307.1773555794102,"trial":0,"RT":8,"MT":1101,"sideResp":2,"stimulus":[],"xmouse":[398.66668701171875,398.66668701171875,398.66668701171875,398.66668701171875,398.66668701171875,398.66668701171875,398.66668701171875,398.0000305175781,398.0000305175781,398.0000305175781,398.0000305175781,398.0000305175781,398.0000305175781,398.0000305175781,398.0000305175781,398.0000305175781,398.0000305175781,397.3333435058594,397.3333435058594,397.3333435058594,397.3333435058594,397.3333435058594,397.3333435058594,397.3333435058594,397.3333435058594,397.3333435058594,397.3333435058594,400.0000305175781,400.0000305175781,400.0000305175781,400.0000305175781,400.0000305175781,400.0000305175781,404.66668701171875,406.0000305175781,408.0000305175781,414.0000305175781,421.3333435058594,446.66668701171875,460.66668701171875,496.0000305175781,504.0000305175781,517.3333740234375,529.3333740234375,537.3333740234375,563.3333740234375,588,607.3333740234375,612.6666870117188,626.6666870117188,648.6666870117188,664.6666870117188,680.6666870117188,684.6666870117188,695.3333129882812,705.3333129882812],"ymouse":[738.6666870117188,738.6666870117188,738.6666870117188,738.6666870117188,738.6666870117188,738.6666870117188,738.6666870117188,738,738,738,738,738,738,738,738,738,738,738.6666870117188,738.6666870117188,738.6666870117188,738.6666870117188,738.6666870117188,738.6666870117188,738.6666870117188,738.6666870117188,738.6666870117188,738.6666870117188,734.6666870117188,734.6666870117188,734.6666870117188,734.6666870117188,734.6666870117188,734.6666870117188,718.6666870117188,714.6666870117188,710,696,682.6666870117188,643.3333740234375,621.3333740234375,540.6666870117188,520,481.3333435058594,442,420.66668701171875,354,311.3333435058594,270.66668701171875,258,230,190.6666717529297,166.6666717529297,146,138,118.66667175292969,97.33333587646484],"timestamp_mouse":[7,27,47,67,87,107,126,146,167,186,206,226,246,266,286,306,326,347,366,386,406,426,447,466,487,507,527,546,567,587,606,626,646,666,686,707,726,747,766,786,807,827,847,866,887,910,927,947,966,987,1011,1026,1046,1066,1086,1108],"xSR":350,"ySR":696,"xT1":30,"yT1":0,"xT2":670,"yT2":0,"toosoon":0,"cond_shown":"Congruent","ratio_trial":100,"L_num":11,"L_den":22,"R_num":4,"R_den":10,"correct_side":1,"subjID":"49wm","gender":"No_gender","age":"No_age","school":"No_school","test":{"fix_dur":[250,1500],"timestim":900,"targets_dim":[100,100],"targets_relative_coord":[0.1,0.9],"size_stim":[880,420],"start_dim":[100,100],"size_start":[300,300],"size_fix":60,"samplingrate":20,"img_types":["Congruent","Incongruent"],"ratios":[100,200,300,500],"rep_conds":15,"nTrials":128,"trials_to_rest":500,"Trials_order":[48,115,84,8,70,64,82,112,10,44,85,76,4,80,73,41,21,29,94,53,67,6,43,72,28,109,0,117,3,122,12,58,2,26,30,96,57,77,13,108,95,81,59,114,124,37,50,38,89,120,20,125,9,107,49,47,56,86,90,88,97,51,61,121,27,1,119,103,17,16,126,40,104,118,74,19,71,5,113,98,7,111,31,22,35,52,55,91,116,106,100,99,14,66,60,63,101,79,123,42,65,78,102,69,15,11,24,105,36,127,93,92,62,34,45,33,87,68,18,23,83,32,75,46,39,54,25,110],"cond_shown":["Congruent","Incongruent","Congruent","Congruent","Congruent","Congruent","Congruent","Congruent","Congruent","Congruent","Incongruent","Congruent","Congruent","Congruent","Incongruent","Incongruent","Incongruent","Incongruent","Congruent","Incongruent","Incongruent","Congruent","Incongruent","Congruent","Congruent","Incongruent","Congruent","Incongruent","Incongruent","Congruent","Congruent","Congruent","Congruent","Congruent","Congruent","Congruent","Incongruent","Incongruent","Incongruent","Congruent","Incongruent","Incongruent","Incongruent","Congruent","Congruent","Incongruent","Congruent","Congruent","Incongruent","Congruent","Congruent","Incongruent","Incongruent","Incongruent","Incongruent","Incongruent","Congruent","Congruent","Congruent","Congruent","Incongruent","Incongruent","Incongruent","Incongruent","Incongruent","Incongruent","Incongruent","Incongruent","Incongruent","Congruent","Congruent","Congruent","Congruent","Congruent","Congruent","Incongruent","Incongruent","Incongruent","Incongruent","Congruent","Incongruent","Incongruent","Incongruent","Congruent","Incongruent","Congruent","Incongruent","Incongruent","Congruent","Congruent","Congruent","Incongruent","Congruent","Congruent","Congruent","Incongruent","Incongruent","Incongruent","Incongruent","Congruent","Incongruent","Congruent","Congruent","Incongruent","Incongruent","Incongruent","Congruent","Incongruent","Congruent","Incongruent","Incongruent","Congruent","Congruent","Congruent","Incongruent","Incongruent","Incongruent","Congruent","Congruent","Incongruent","Incongruent","Congruent","Incongruent","Congruent","Incongruent","Congruent","Incongruent","Congruent"],"ratio_trial":[100,200,300,100,500,100,200,100,200,300,300,300,300,100,100,100,300,300,500,300,200,500,200,100,300,300,100,300,200,200,300,200,200,200,500,100,100,300,300,300,500,100,200,200,300,300,200,500,100,100,300,300,100,200,100,500,100,500,200,100,100,200,300,100,200,100,500,500,100,100,500,100,100,500,200,200,500,300,100,200,500,500,500,500,200,300,500,200,300,200,300,200,500,200,300,500,300,500,200,200,100,500,500,300,500,200,100,100,300,500,300,300,500,200,300,100,500,300,200,500,200,100,200,500,500,500,100,500],"left_num":[11,7,8,8,12,1,8,15,13,2,1,9,3,15,12,6,4,13,4,4,7,25,9,15,11,4,6,7,7,9,5,8,3,15,20,2,3,13,4,20,2,10,7,8,12,1,3,4,12,2,1,13,8,7,9,7,2,5,8,6,12,7,4,4,1,9,5,7,13,4,2,3,11,2,7,1,7,4,10,3,7,7,7,10,14,11,7,7,20,13,1,1,3,3,11,7,1,2,4,8,6,1,2,4,7,6,3,9,9,2,13,1,1,1,13,9,7,2,8,7,7,11,7,7,7,1,8,2],"right_num":[4,8,1,2,3,3,2,13,14,12,2,3,4,13,9,7,2,12,12,2,4,9,8,13,1,2,5,8,14,13,6,3,14,4,3,6,7,12,8,8,4,9,14,3,2,3,14,12,2,11,3,12,6,4,13,5,11,2,2,5,9,8,2,8,2,13,6,5,12,6,12,4,4,18,2,3,5,2,8,11,9,5,5,7,12,1,9,4,5,14,3,2,6,14,4,5,3,4,6,3,7,9,7,8,5,3,4,20,3,4,12,6,11,21,12,20,5,12,3,9,6,4,14,12,5,11,6,12],"left_den":[22,10,16,16,16,2,15,25,26,10,2,10,6,25,24,10,20,26,24,20,15,30,15,25,22,20,20,10,10,30,25,15,10,25,24,5,9,26,5,25,3,25,10,15,24,2,10,24,30,5,5,26,16,15,15,21,5,6,15,20,24,10,20,8,3,15,6,21,26,8,12,20,22,5,21,2,21,20,25,10,8,21,21,13,30,22,8,15,25,26,5,3,30,6,22,21,2,3,5,15,10,4,24,5,21,20,20,10,10,3,26,5,9,2,26,10,21,10,15,8,15,22,10,28,21,9,16,12],"right_den":[10,16,5,5,12,5,6,26,20,24,10,5,5,26,15,14,4,15,18,4,6,27,10,26,5,4,25,20,28,26,12,9,28,10,9,12,30,15,16,16,24,18,28,9,10,15,28,18,4,22,6,15,10,6,26,6,22,6,6,25,15,16,4,20,15,26,18,6,20,10,18,16,10,20,15,10,6,4,16,22,24,6,6,26,18,5,24,6,10,20,6,15,10,20,20,6,15,24,10,9,14,12,12,16,6,6,16,25,5,24,15,12,18,30,15,25,6,24,9,24,9,10,28,16,6,18,10,18],"correct_side":[1,1,1,1,1,2,1,1,2,2,1,1,2,1,2,1,2,2,2,2,2,1,2,1,1,2,1,1,1,2,2,1,2,1,1,2,1,2,1,1,1,2,1,1,1,1,2,2,2,2,2,2,2,2,1,2,2,1,1,1,2,1,2,1,1,1,1,2,2,2,2,2,1,2,1,1,2,2,2,2,1,2,2,1,2,1,1,2,1,2,2,1,2,2,1,2,1,1,1,1,1,2,2,1,2,2,2,1,1,1,2,2,2,2,2,1,2,2,1,1,2,1,1,2,2,2,2,2],"img_shown":["img2/100/Congruent/L/C_Dist_100_LN_11_LD_22_RN_4_RD_10_0.png","img2/200/Incongruent/L/I_Dist_200_LN_7_LD_10_RN_8_RD_16_0.png","img2/300/Congruent/L/C_Dist_300_LN_8_LD_16_RN_1_RD_5_0.png","img2/100/Congruent/L/C_Dist_100_LN_8_LD_16_RN_2_RD_5_0.png","img2/500/Congruent/L/C_Dist_500_LN_12_LD_16_RN_3_RD_12_0.png","img2/100/Congruent/R/C_Dist_100_LN_1_LD_2_RN_3_RD_5_1.png","img2/200/Congruent/L/C_Dist_200_LN_8_LD_15_RN_2_RD_6_0.png","img2/100/Congruent/L/C_Dist_100_LN_15_LD_25_RN_13_RD_26_0.png","img2/200/Congruent/R/C_Dist_200_LN_13_LD_26_RN_14_RD_20_1.png","img2/300/Congruent/R/C_Dist_300_LN_2_LD_10_RN_12_RD_24_1.png","img2/300/Incongruent/L/I_Dist_300_LN_1_LD_2_RN_2_RD_10_0.png","img2/300/Congruent/L/C_Dist_300_LN_9_LD_10_RN_3_RD_5_0.png","img2/300/Congruent/R/C_Dist_300_LN_3_LD_6_RN_4_RD_5_1.png","img2/100/Congruent/L/C_Dist_100_LN_15_LD_25_RN_13_RD_26_0.png","img2/100/Incongruent/R/I_Dist_100_LN_12_LD_24_RN_9_RD_15_1.png","img2/100/Incongruent/L/I_Dist_100_LN_6_LD_10_RN_7_RD_14_0.png","img2/300/Incongruent/R/I_Dist_300_LN_4_LD_20_RN_2_RD_4_1.png","img2/300/Incongruent/R/I_Dist_300_LN_13_LD_26_RN_12_RD_15_1.png","img2/500/Congruent/R/C_Dist_500_LN_4_LD_24_RN_12_RD_18_1.png","img2/300/Incongruent/R/I_Dist_300_LN_4_LD_20_RN_2_RD_4_1.png","img2/200/Incongruent/R/I_Dist_200_LN_7_LD_15_RN_4_RD_6_1.png","img2/500/Congruent/L/C_Dist_500_LN_25_LD_30_RN_9_RD_27_0.png","img2/200/Incongruent/R/I_Dist_200_LN_9_LD_15_RN_8_RD_10_1.png","img2/100/Congruent/L/C_Dist_100_LN_15_LD_25_RN_13_RD_26_0.png","img2/300/Congruent/L/C_Dist_300_LN_11_LD_22_RN_1_RD_5_0.png","img2/300/Incongruent/R/I_Dist_300_LN_4_LD_20_RN_2_RD_4_1.png","img2/100/Congruent/L/C_Dist_100_LN_6_LD_20_RN_5_RD_25_0.png","img2/300/Incongruent/L/I_Dist_300_LN_7_LD_10_RN_8_RD_20_0.png","img2/200/Incongruent/L/I_Dist_200_LN_7_LD_10_RN_14_RD_28_0.png","img2/200/Congruent/R/C_Dist_200_LN_9_LD_30_RN_13_RD_26_1.png","img2/300/Congruent/R/C_Dist_300_LN_5_LD_25_RN_6_RD_12_1.png","img2/200/Congruent/L/C_Dist_200_LN_8_LD_15_RN_3_RD_9_0.png","img2/200/Congruent/R/C_Dist_200_LN_3_LD_10_RN_14_RD_28_1.png","img2/200/Congruent/L/C_Dist_200_LN_15_LD_25_RN_4_RD_10_0.png","img2/500/Congruent/L/C_Dist_500_LN_20_LD_24_RN_3_RD_9_0.png","img2/100/Congruent/R/C_Dist_100_LN_2_LD_5_RN_6_RD_12_1.png","img2/100/Incongruent/L/I_Dist_100_LN_3_LD_9_RN_7_RD_30_0.png","img2/300/Incongruent/R/I_Dist_300_LN_13_LD_26_RN_12_RD_15_1.png","img2/300/Incongruent/L/I_Dist_300_LN_4_LD_5_RN_8_RD_16_0.png","img2/300/Congruent/L/C_Dist_300_LN_20_LD_25_RN_8_RD_16_0.png","img2/500/Incongruent/L/I_Dist_500_LN_2_LD_3_RN_4_RD_24_0.png","img2/100/Incongruent/R/I_Dist_100_LN_10_LD_25_RN_9_RD_18_1.png","img2/200/Incongruent/L/I_Dist_200_LN_7_LD_10_RN_14_RD_28_0.png","img2/200/Congruent/L/C_Dist_200_LN_8_LD_15_RN_3_RD_9_0.png","img2/300/Congruent/L/C_Dist_300_LN_12_LD_24_RN_2_RD_10_0.png","img2/300/Incongruent/L/I_Dist_300_LN_1_LD_2_RN_3_RD_15_0.png","img2/200/Congruent/R/C_Dist_200_LN_3_LD_10_RN_14_RD_28_1.png","img2/500/Congruent/R/C_Dist_500_LN_4_LD_24_RN_12_RD_18_1.png","img2/100/Incongruent/R/I_Dist_100_LN_12_LD_30_RN_2_RD_4_1.png","img2/100/Congruent/R/C_Dist_100_LN_2_LD_5_RN_11_RD_22_1.png","img2/300/Congruent/R/C_Dist_300_LN_1_LD_5_RN_3_RD_6_1.png","img2/300/Incongruent/R/I_Dist_300_LN_13_LD_26_RN_12_RD_15_1.png","img2/100/Incongruent/R/I_Dist_100_LN_8_LD_16_RN_6_RD_10_1.png","img2/200/Incongruent/R/I_Dist_200_LN_7_LD_15_RN_4_RD_6_1.png","img2/100/Incongruent/L/I_Dist_100_LN_9_LD_15_RN_13_RD_26_0.png","img2/500/Incongruent/R/I_Dist_500_LN_7_LD_21_RN_5_RD_6_1.png","img2/100/Congruent/R/C_Dist_100_LN_2_LD_5_RN_11_RD_22_1.png","img2/500/Congruent/L/C_Dist_500_LN_5_LD_6_RN_2_RD_6_0.png","img2/200/Congruent/L/C_Dist_200_LN_8_LD_15_RN_2_RD_6_0.png","img2/100/Congruent/L/C_Dist_100_LN_6_LD_20_RN_5_RD_25_0.png","img2/100/Incongruent/R/I_Dist_100_LN_12_LD_24_RN_9_RD_15_1.png","img2/200/Incongruent/L/I_Dist_200_LN_7_LD_10_RN_8_RD_16_0.png","img2/300/Incongruent/R/I_Dist_300_LN_4_LD_20_RN_2_RD_4_1.png","img2/100/Incongruent/L/I_Dist_100_LN_4_LD_8_RN_8_RD_20_0.png","img2/200/Incongruent/L/I_Dist_200_LN_1_LD_3_RN_2_RD_15_0.png","img2/100/Incongruent/L/I_Dist_100_LN_9_LD_15_RN_13_RD_26_0.png","img2/500/Incongruent/L/I_Dist_500_LN_5_LD_6_RN_6_RD_18_0.png","img2/500/Incongruent/R/I_Dist_500_LN_7_LD_21_RN_5_RD_6_1.png","img2/100/Incongruent/R/I_Dist_100_LN_13_LD_26_RN_12_RD_20_1.png","img2/100/Congruent/R/C_Dist_100_LN_4_LD_8_RN_6_RD_10_1.png","img2/500/Congruent/R/C_Dist_500_LN_2_LD_12_RN_12_RD_18_1.png","img2/100/Congruent/R/C_Dist_100_LN_3_LD_20_RN_4_RD_16_1.png","img2/100/Congruent/L/C_Dist_100_LN_11_LD_22_RN_4_RD_10_0.png","img2/500/Congruent/R/C_Dist_500_LN_2_LD_5_RN_18_RD_20_1.png","img2/200/Congruent/L/C_Dist_200_LN_7_LD_21_RN_2_RD_15_0.png","img2/200/Incongruent/L/I_Dist_200_LN_1_LD_2_RN_3_RD_10_0.png","img2/500/Incongruent/R/I_Dist_500_LN_7_LD_21_RN_5_RD_6_1.png","img2/300/Incongruent/R/I_Dist_300_LN_4_LD_20_RN_2_RD_4_1.png","img2/100/Incongruent/R/I_Dist_100_LN_10_LD_25_RN_8_RD_16_1.png","img2/200/Congruent/R/C_Dist_200_LN_3_LD_10_RN_11_RD_22_1.png","img2/500/Incongruent/L/I_Dist_500_LN_7_LD_8_RN_9_RD_24_0.png","img2/500/Incongruent/R/I_Dist_500_LN_7_LD_21_RN_5_RD_6_1.png","img2/500/Incongruent/R/I_Dist_500_LN_7_LD_21_RN_5_RD_6_1.png","img2/500/Congruent/L/C_Dist_500_LN_10_LD_13_RN_7_RD_26_0.png","img2/200/Incongruent/R/I_Dist_200_LN_14_LD_30_RN_12_RD_18_1.png","img2/300/Congruent/L/C_Dist_300_LN_11_LD_22_RN_1_RD_5_0.png","img2/500/Incongruent/L/I_Dist_500_LN_7_LD_8_RN_9_RD_24_0.png","img2/200/Incongruent/R/I_Dist_200_LN_7_LD_15_RN_4_RD_6_1.png","img2/300/Congruent/L/C_Dist_300_LN_20_LD_25_RN_5_RD_10_0.png","img2/200/Congruent/R/C_Dist_200_LN_13_LD_26_RN_14_RD_20_1.png","img2/300/Congruent/R/C_Dist_300_LN_1_LD_5_RN_3_RD_6_1.png","img2/200/Incongruent/L/I_Dist_200_LN_1_LD_3_RN_2_RD_15_0.png","img2/500/Congruent/R/C_Dist_500_LN_3_LD_30_RN_6_RD_10_1.png","img2/200/Congruent/R/C_Dist_200_LN_3_LD_6_RN_14_RD_20_1.png","img2/300/Congruent/L/C_Dist_300_LN_11_LD_22_RN_4_RD_20_0.png","img2/500/Incongruent/R/I_Dist_500_LN_7_LD_21_RN_5_RD_6_1.png","img2/300/Incongruent/L/I_Dist_300_LN_1_LD_2_RN_3_RD_15_0.png","img2/500/Incongruent/L/I_Dist_500_LN_2_LD_3_RN_4_RD_24_0.png","img2/200/Incongruent/L/I_Dist_200_LN_4_LD_5_RN_6_RD_10_0.png","img2/200/Congruent/L/C_Dist_200_LN_8_LD_15_RN_3_RD_9_0.png","img2/100/Incongruent/L/I_Dist_100_LN_6_LD_10_RN_7_RD_14_0.png","img2/500/Congruent/R/C_Dist_500_LN_1_LD_4_RN_9_RD_12_1.png","img2/500/Congruent/R/C_Dist_500_LN_2_LD_24_RN_7_RD_12_1.png","img2/300/Incongruent/L/I_Dist_300_LN_4_LD_5_RN_8_RD_16_0.png","img2/500/Incongruent/R/I_Dist_500_LN_7_LD_21_RN_5_RD_6_1.png","img2/200/Incongruent/R/I_Dist_200_LN_6_LD_20_RN_3_RD_6_1.png","img2/100/Congruent/R/C_Dist_100_LN_3_LD_20_RN_4_RD_16_1.png","img2/100/Incongruent/L/I_Dist_100_LN_9_LD_10_RN_20_RD_25_0.png","img2/300/Congruent/L/C_Dist_300_LN_9_LD_10_RN_3_RD_5_0.png","img2/500/Incongruent/L/I_Dist_500_LN_2_LD_3_RN_4_RD_24_0.png","img2/300/Incongruent/R/I_Dist_300_LN_13_LD_26_RN_12_RD_15_1.png","img2/300/Congruent/R/C_Dist_300_LN_1_LD_5_RN_6_RD_12_1.png","img2/500/Congruent/R/C_Dist_500_LN_1_LD_9_RN_11_RD_18_1.png","img2/200/Congruent/R/C_Dist_200_LN_1_LD_2_RN_21_RD_30_1.png","img2/300/Incongruent/R/I_Dist_300_LN_13_LD_26_RN_12_RD_15_1.png","img2/100/Incongruent/L/I_Dist_100_LN_9_LD_10_RN_20_RD_25_0.png","img2/500/Incongruent/R/I_Dist_500_LN_7_LD_21_RN_5_RD_6_1.png","img2/300/Congruent/R/C_Dist_300_LN_2_LD_10_RN_12_RD_24_1.png","img2/200/Congruent/L/C_Dist_200_LN_8_LD_15_RN_3_RD_9_0.png","img2/500/Incongruent/L/I_Dist_500_LN_7_LD_8_RN_9_RD_24_0.png","img2/200/Incongruent/R/I_Dist_200_LN_7_LD_15_RN_6_RD_9_1.png","img2/100/Congruent/L/C_Dist_100_LN_11_LD_22_RN_4_RD_10_0.png","img2/200/Incongruent/L/I_Dist_200_LN_7_LD_10_RN_14_RD_28_0.png","img2/500/Congruent/R/C_Dist_500_LN_7_LD_28_RN_12_RD_16_1.png","img2/500/Incongruent/R/I_Dist_500_LN_7_LD_21_RN_5_RD_6_1.png","img2/500/Congruent/R/C_Dist_500_LN_1_LD_9_RN_11_RD_18_1.png","img2/100/Incongruent/R/I_Dist_100_LN_8_LD_16_RN_6_RD_10_1.png","img2/500/Congruent/R/C_Dist_500_LN_2_LD_12_RN_12_RD_18_1.png"],"dist100_C":[["C_Dist_100_LN_10_LD_25_RN_3_RD_10_0.png","C_Dist_100_LN_11_LD_22_RN_4_RD_10_0.png","C_Dist_100_LN_11_LD_22_RN_6_RD_15_0.png","C_Dist_100_LN_15_LD_25_RN_13_RD_26_0.png","C_Dist_100_LN_3_LD_6_RN_2_RD_5_0.png","C_Dist_100_LN_6_LD_20_RN_5_RD_25_0.png","C_Dist_100_LN_8_LD_16_RN_2_RD_5_0.png","C_Dist_100_LN_9_LD_15_RN_8_RD_16_0.png"],["C_Dist_100_LN_1_LD_2_RN_18_RD_30_1.png","C_Dist_100_LN_1_LD_2_RN_3_RD_5_1.png","C_Dist_100_LN_12_LD_30_RN_13_RD_26_1.png","C_Dist_100_LN_2_LD_5_RN_11_RD_22_1.png","C_Dist_100_LN_2_LD_5_RN_6_RD_12_1.png","C_Dist_100_LN_3_LD_20_RN_4_RD_16_1.png","C_Dist_100_LN_4_LD_10_RN_15_RD_30_1.png","C_Dist_100_LN_4_LD_8_RN_6_RD_10_1.png","C_Dist_100_LN_6_LD_12_RN_15_RD_25_1.png","C_Dist_100_LN_7_LD_14_RN_15_RD_25_1.png","C_Dist_100_LN_7_LD_14_RN_9_RD_15_1.png"]],"dist100_I":[["I_Dist_100_LN_1_LD_2_RN_8_RD_20_0.png","I_Dist_100_LN_2_LD_4_RN_6_RD_15_0.png","I_Dist_100_LN_2_LD_4_RN_8_RD_20_0.png","I_Dist_100_LN_3_LD_5_RN_11_RD_22_0.png","I_Dist_100_LN_3_LD_5_RN_8_RD_16_0.png","I_Dist_100_LN_3_LD_6_RN_4_RD_10_0.png","I_Dist_100_LN_3_LD_9_RN_7_RD_30_0.png","I_Dist_100_LN_4_LD_8_RN_8_RD_20_0.png","I_Dist_100_LN_6_LD_10_RN_11_RD_22_0.png","I_Dist_100_LN_6_LD_10_RN_13_RD_26_0.png","I_Dist_100_LN_6_LD_10_RN_7_RD_14_0.png","I_Dist_100_LN_9_LD_10_RN_20_RD_25_0.png","I_Dist_100_LN_9_LD_15_RN_13_RD_26_0.png","I_Dist_100_LN_9_LD_15_RN_14_RD_28_0.png"],["I_Dist_100_LN_10_LD_25_RN_8_RD_16_1.png","I_Dist_100_LN_10_LD_25_RN_9_RD_18_1.png","I_Dist_100_LN_11_LD_22_RN_9_RD_15_1.png","I_Dist_100_LN_12_LD_24_RN_9_RD_15_1.png","I_Dist_100_LN_12_LD_30_RN_2_RD_4_1.png","I_Dist_100_LN_13_LD_26_RN_12_RD_20_1.png","I_Dist_100_LN_13_LD_26_RN_6_RD_10_1.png","I_Dist_100_LN_17_LD_30_RN_10_RD_15_1.png","I_Dist_100_LN_6_LD_12_RN_3_RD_5_1.png","I_Dist_100_LN_8_LD_16_RN_6_RD_10_1.png","I_Dist_100_LN_8_LD_20_RN_1_RD_2_1.png","I_Dist_100_LN_9_LD_18_RN_6_RD_10_1.png"]],"dist100_S":[["E_Dist_100_LN_2_LD_12_RN_2_RD_30_0.png","E_Dist_100_LN_6_LD_10_RN_6_RD_12_0.png"],["E_Dist_100_LN_6_LD_12_RN_6_RD_10_1.png"]],"dist200_C":[["C_Dist_200_LN_11_LD_22_RN_3_RD_10_0.png","C_Dist_200_LN_12_LD_15_RN_6_RD_10_0.png","C_Dist_200_LN_12_LD_20_RN_6_RD_15_0.png","C_Dist_200_LN_14_LD_28_RN_6_RD_20_0.png","C_Dist_200_LN_15_LD_25_RN_4_RD_10_0.png","C_Dist_200_LN_16_LD_20_RN_12_RD_20_0.png","C_Dist_200_LN_16_LD_30_RN_9_RD_27_0.png","C_Dist_200_LN_20_LD_25_RN_9_RD_15_0.png","C_Dist_200_LN_21_LD_30_RN_2_RD_4_0.png","C_Dist_200_LN_4_LD_10_RN_3_RD_15_0.png","C_Dist_200_LN_4_LD_8_RN_3_RD_10_0.png","C_Dist_200_LN_6_LD_15_RN_3_RD_15_0.png","C_Dist_200_LN_7_LD_21_RN_2_RD_15_0.png","C_Dist_200_LN_8_LD_15_RN_2_RD_6_0.png","C_Dist_200_LN_8_LD_15_RN_3_RD_9_0.png","C_Dist_200_LN_8_LD_15_RN_7_RD_21_0.png","C_Dist_200_LN_9_LD_20_RN_4_RD_16_0.png"],["C_Dist_200_LN_1_LD_2_RN_21_RD_30_1.png","C_Dist_200_LN_13_LD_26_RN_14_RD_20_1.png","C_Dist_200_LN_3_LD_10_RN_11_RD_22_1.png","C_Dist_200_LN_3_LD_10_RN_14_RD_28_1.png","C_Dist_200_LN_3_LD_10_RN_7_RD_14_1.png","C_Dist_200_LN_3_LD_12_RN_9_RD_20_1.png","C_Dist_200_LN_3_LD_6_RN_14_RD_20_1.png","C_Dist_200_LN_5_LD_10_RN_14_RD_20_1.png","C_Dist_200_LN_6_LD_12_RN_7_RD_10_1.png","C_Dist_200_LN_6_LD_20_RN_11_RD_22_1.png","C_Dist_200_LN_7_LD_15_RN_18_RD_27_1.png","C_Dist_200_LN_9_LD_30_RN_13_RD_26_1.png"]],"dist200_I":[["I_Dist_200_LN_1_LD_2_RN_3_RD_10_0.png","I_Dist_200_LN_1_LD_3_RN_2_RD_15_0.png","I_Dist_200_LN_3_LD_4_RN_11_RD_20_0.png","I_Dist_200_LN_4_LD_5_RN_6_RD_10_0.png","I_Dist_200_LN_4_LD_6_RN_14_RD_30_0.png","I_Dist_200_LN_7_LD_10_RN_12_RD_24_0.png","I_Dist_200_LN_7_LD_10_RN_14_RD_28_0.png","I_Dist_200_LN_7_LD_10_RN_8_RD_16_0.png"],["I_Dist_200_LN_11_LD_20_RN_3_RD_4_1.png","I_Dist_200_LN_14_LD_30_RN_12_RD_18_1.png","I_Dist_200_LN_14_LD_30_RN_6_RD_9_1.png","I_Dist_200_LN_3_LD_10_RN_1_RD_2_1.png","I_Dist_200_LN_4_LD_30_RN_1_RD_3_1.png","I_Dist_200_LN_6_LD_20_RN_3_RD_6_1.png","I_Dist_200_LN_7_LD_15_RN_4_RD_6_1.png","I_Dist_200_LN_7_LD_15_RN_6_RD_9_1.png","I_Dist_200_LN_9_LD_15_RN_8_RD_10_1.png"]],"dist200_S":[["E_Dist_200_LN_3_LD_6_RN_3_RD_10_0.png"],["E_Dist_200_LN_3_LD_10_RN_3_RD_6_1.png"]],"dist300_C":[["C_Dist_300_LN_11_LD_22_RN_1_RD_5_0.png","C_Dist_300_LN_11_LD_22_RN_2_RD_10_0.png","C_Dist_300_LN_11_LD_22_RN_4_RD_20_0.png","C_Dist_300_LN_12_LD_24_RN_2_RD_10_0.png","C_Dist_300_LN_18_LD_20_RN_9_RD_15_0.png","C_Dist_300_LN_20_LD_25_RN_13_RD_26_0.png","C_Dist_300_LN_20_LD_25_RN_14_RD_28_0.png","C_Dist_300_LN_20_LD_25_RN_5_RD_10_0.png","C_Dist_300_LN_20_LD_25_RN_8_RD_16_0.png","C_Dist_300_LN_20_LD_25_RN_9_RD_18_0.png","C_Dist_300_LN_24_LD_30_RN_2_RD_4_0.png","C_Dist_300_LN_24_LD_30_RN_8_RD_16_0.png","C_Dist_300_LN_3_LD_6_RN_2_RD_10_0.png","C_Dist_300_LN_4_LD_10_RN_1_RD_10_0.png","C_Dist_300_LN_4_LD_5_RN_2_RD_4_0.png","C_Dist_300_LN_8_LD_16_RN_1_RD_5_0.png","C_Dist_300_LN_9_LD_10_RN_3_RD_5_0.png"],["C_Dist_300_LN_1_LD_20_RN_7_RD_20_1.png","C_Dist_300_LN_1_LD_3_RN_19_RD_30_1.png","C_Dist_300_LN_1_LD_30_RN_8_RD_24_1.png","C_Dist_300_LN_1_LD_5_RN_11_RD_22_1.png","C_Dist_300_LN_1_LD_5_RN_3_RD_6_1.png","C_Dist_300_LN_1_LD_5_RN_6_RD_12_1.png","C_Dist_300_LN_2_LD_10_RN_12_RD_24_1.png","C_Dist_300_LN_2_LD_20_RN_10_RD_25_1.png","C_Dist_300_LN_3_LD_12_RN_11_RD_20_1.png","C_Dist_300_LN_3_LD_6_RN_4_RD_5_1.png","C_Dist_300_LN_4_LD_20_RN_13_RD_26_1.png","C_Dist_300_LN_5_LD_25_RN_6_RD_12_1.png","C_Dist_300_LN_5_LD_25_RN_7_RD_14_1.png","C_Dist_300_LN_7_LD_14_RN_20_RD_25_1.png","C_Dist_300_LN_8_LD_15_RN_10_RD_12_1.png"]],"dist300_I":[["I_Dist_300_LN_1_LD_2_RN_2_RD_10_0.png","I_Dist_300_LN_1_LD_2_RN_3_RD_15_0.png","I_Dist_300_LN_2_LD_4_RN_6_RD_30_0.png","I_Dist_300_LN_3_LD_6_RN_4_RD_20_0.png","I_Dist_300_LN_4_LD_5_RN_6_RD_12_0.png","I_Dist_300_LN_4_LD_5_RN_8_RD_16_0.png","I_Dist_300_LN_7_LD_10_RN_8_RD_20_0.png","I_Dist_300_LN_8_LD_10_RN_14_RD_28_0.png","I_Dist_300_LN_8_LD_10_RN_9_RD_18_0.png"],["I_Dist_300_LN_13_LD_26_RN_12_RD_15_1.png","I_Dist_300_LN_4_LD_20_RN_2_RD_4_1.png"]],"dist300_S":[["E_Dist_300_LN_9_LD_12_RN_9_RD_20_0.png"],["E_Dist_300_LN_18_LD_30_RN_18_RD_20_1.png","E_Dist_300_LN_3_LD_10_RN_3_RD_5_1.png","E_Dist_300_LN_9_LD_20_RN_9_RD_12_1.png"]],"dist500_C":[["C_Dist_500_LN_10_LD_13_RN_7_RD_26_0.png","C_Dist_500_LN_10_LD_15_RN_4_RD_24_0.png","C_Dist_500_LN_12_LD_16_RN_3_RD_12_0.png","C_Dist_500_LN_12_LD_18_RN_4_RD_24_0.png","C_Dist_500_LN_15_LD_18_RN_5_RD_15_0.png","C_Dist_500_LN_15_LD_20_RN_1_RD_4_0.png","C_Dist_500_LN_18_LD_27_RN_1_RD_6_0.png","C_Dist_500_LN_20_LD_24_RN_1_RD_3_0.png","C_Dist_500_LN_20_LD_24_RN_3_RD_9_0.png","C_Dist_500_LN_20_LD_24_RN_7_RD_21_0.png","C_Dist_500_LN_20_LD_28_RN_3_RD_14_0.png","C_Dist_500_LN_21_LD_28_RN_6_RD_24_0.png","C_Dist_500_LN_22_LD_28_RN_2_RD_7_0.png","C_Dist_500_LN_25_LD_30_RN_9_RD_27_0.png","C_Dist_500_LN_4_LD_6_RN_1_RD_6_0.png","C_Dist_500_LN_5_LD_6_RN_2_RD_6_0.png","C_Dist_500_LN_6_LD_9_RN_1_RD_6_0.png","C_Dist_500_LN_7_LD_10_RN_1_RD_5_0.png","C_Dist_500_LN_8_LD_12_RN_1_RD_6_0.png","C_Dist_500_LN_8_LD_12_RN_4_RD_24_0.png"],["C_Dist_500_LN_1_LD_4_RN_12_RD_16_1.png","C_Dist_500_LN_1_LD_4_RN_9_RD_12_1.png","C_Dist_500_LN_1_LD_9_RN_11_RD_18_1.png","C_Dist_500_LN_10_LD_24_RN_22_RD_24_1.png","C_Dist_500_LN_2_LD_12_RN_10_RD_15_1.png","C_Dist_500_LN_2_LD_12_RN_12_RD_18_1.png","C_Dist_500_LN_2_LD_12_RN_4_RD_6_1.png","C_Dist_500_LN_2_LD_24_RN_7_RD_12_1.png","C_Dist_500_LN_2_LD_5_RN_18_RD_20_1.png","C_Dist_500_LN_2_LD_5_RN_9_RD_10_1.png","C_Dist_500_LN_2_LD_8_RN_12_RD_16_1.png","C_Dist_500_LN_2_LD_8_RN_21_RD_28_1.png","C_Dist_500_LN_3_LD_10_RN_4_RD_5_1.png","C_Dist_500_LN_3_LD_12_RN_15_RD_20_1.png","C_Dist_500_LN_3_LD_30_RN_6_RD_10_1.png","C_Dist_500_LN_3_LD_8_RN_14_RD_16_1.png","C_Dist_500_LN_4_LD_16_RN_15_RD_20_1.png","C_Dist_500_LN_4_LD_24_RN_12_RD_18_1.png","C_Dist_500_LN_5_LD_14_RN_6_RD_7_1.png","C_Dist_500_LN_7_LD_21_RN_20_RD_24_1.png","C_Dist_500_LN_7_LD_28_RN_12_RD_16_1.png","C_Dist_500_LN_7_LD_28_RN_9_RD_12_1.png","C_Dist_500_LN_9_LD_27_RN_20_RD_24_1.png"]],"dist500_I":[["I_Dist_500_LN_2_LD_3_RN_4_RD_24_0.png","I_Dist_500_LN_5_LD_6_RN_6_RD_18_0.png","I_Dist_500_LN_7_LD_8_RN_9_RD_24_0.png"],["I_Dist_500_LN_7_LD_21_RN_5_RD_6_1.png"]],"dist500_S":[["E_Dist_500_LN_6_LD_8_RN_6_RD_24_0.png"],["E_Dist_500_LN_2_LD_12_RN_2_RD_3_1.png","E_Dist_500_LN_6_LD_24_RN_6_RD_8_1.png"]]}},{"start_time":1549381605665,"click_time":1549381607597,"finger_time":1549381607276,"fix_duration":666.2204213637036,"trial":1,"RT":1611,"MT":321,"sideResp":2,"stimulus":[],"xmouse":[406.66668701171875,406.66668701171875,406.66668701171875,406.66668701171875,406.66668701171875,406.66668701171875,406.66668701171875,407.3333435058594,406.66668701171875,406.66668701171875,406.66668701171875,406.66668701171875,406.66668701171875,406.66668701171875,406.66668701171875,406.66668701171875,406.66668701171875,406.66668701171875,405.3333435058594,404.66668701171875,405.3333435058594,405.3333435058594,404.66668701171875,404.66668701171875,404.66668701171875,404.66668701171875,404.66668701171875,404.66668701171875,404.66668701171875,404.6666564941406,404.6666564941406,404.6666564941406,404.6666564941406,404.6666564941406,404.6666564941406,404.6666564941406,404.6666564941406,404.6666564941406,404.6666564941406,404.6666564941406,404.6666564941406,404.6666564941406,404.6666564941406,404.6666564941406,404.6666564941406,405.3333435058594,405.3333435058594,405.3333435058594,405.3333435058594,405.3333435058594,405.3333435058594,405.3333435058594,405.3333435058594,405.3333435058594,405.3333435058594,406,406,406,406,406,406,406,406,406,406,405.3333435058594,405.3333435058594,405.3333435058594,405.3333435058594,405.3333435058594,405.3333435058594,405.3333435058594,405.3333435058594,405.3333435058594,405.3333435058594,412,412,416.66668701171875,422,430.66668701171875,451.3333435058594,458,470,486,491.3333435058594,524,536,550,560,578.6666870117188,606.6666870117188,629.3333740234375,650,659.3333740234375,678.6666870117188,702,715.3333740234375],"ymouse":[823.3333740234375,823.3333740234375,823.3333740234375,823.3333740234375,823.3333740234375,823.3333740234375,823.3333740234375,823.3333740234375,823.3333740234375,823.3333740234375,823.3333740234375,823.3333740234375,823.3333740234375,823.3333740234375,823.3333740234375,823.3333740234375,823.3333740234375,823.3333740234375,823.3333740234375,823.3333740234375,824,824,824,824,824,824,824,824,824,825.3333740234375,825.3333740234375,825.3333740234375,825.3333740234375,825.3333740234375,825.3333740234375,826,826,826,826,826,826,826,826,826,826,826,826,826,826,826,826,826,826,826,826,826.6666870117188,826.6666870117188,826.6666870117188,826.6666870117188,826.6666870117188,826.6666870117188,826.6666870117188,826.6666870117188,826.6666870117188,826.6666870117188,826,826,826,826,826,826,826,826,826,826,809.3333740234375,809.3333740234375,801.3333740234375,789.3333740234375,769.3333740234375,721.3333740234375,704.6666870117188,672.6666870117188,636.6666870117188,616.6666870117188,536.6666870117188,514,468.66668701171875,448,400,328,279.3333435058594,230,208,166.6666717529297,118,91.33333587646484],"timestamp_mouse":[15,50,51,72,91,112,132,151,172,191,211,231,251,271,291,312,331,351,372,391,411,432,452,472,491,511,531,551,572,591,611,631,652,671,691,712,732,752,772,792,812,832,852,871,892,914,931,952,972,992,1011,1031,1051,1071,1091,1113,1132,1151,1171,1192,1211,1232,1252,1272,1292,1312,1332,1352,1371,1391,1411,1431,1451,1471,1491,1516,1532,1551,1571,1591,1611,1631,1651,1672,1691,1713,1731,1752,1771,1791,1811,1831,1852,1871,1892,1913,1931],"xSR":350,"ySR":768,"xT1":30,"yT1":0,"xT2":670,"yT2":0,"toosoon":0,"cond_shown":"Incongruent","ratio_trial":200,"L_num":7,"L_den":10,"R_num":8,"R_den":16,"correct_side":1,"subjID":"49wm","gender":"No_gender","school":"No_school","age":"No_age"},{"start_time":1549381611447,"click_time":1549381614897,"finger_time":1549381613576,"fix_duration":669.8584311840377,"trial":2,"RT":2129,"MT":1321,"sideResp":1,"stimulus":[],"xmouse":[398,398,398,398,398,398,398,398,398,398,398,398,398,398,398,398,398,398,398,398,398,398,398,398,398,398,398,398,398,398,398,398,398,398,398,398,398,398,398,398,398,398,398,398,398,398,398,398,398,398,398,398,398,398,398,398,398,398,398,398,398,398,398,398,398,398,398,398,398,398,398,398,398,398,398,398,398,398,398,398,398,398,398,398,398,398,398,398,398,412.66668701171875,412,412,412,412,406.66668701171875,405.3333435058594,404.66668701171875,403.3333435058594,401.3333435058594,400.66668701171875,400,399.3333435058594,398,395.3333435058594,394,392.66668701171875,389.3333435058594,388,378.66668701171875,376,370.66668701171875,366,364,359.3333435058594,352.66668701171875,347.3333435058594,345.3333435058594,340,332,326.66668701171875,321.3333435058594,318.66668701171875,314,306.66668701171875,301.3333435058594,299.3333435058594,294,292,283.3333435058594,280,276,270.66668701171875,267.3333435058594,258,250.66668701171875,244,240.6666717529297,234,225.33334350585938,220,218,212.6666717529297,208,200.6666717529297,196,193.33334350585938,188.6666717529297,186.6666717529297,176.6666717529297,174.6666717529297,170.6666717529297,166.6666717529297,164.6666717529297,158,153.33334350585938,149.33334350585938,147.33334350585938,144,138.6666717529297,135.33334350585938,134,131.33334350585938,127.33334350585938,125.33334350585938,120.66667175292969,118,116,114.66667175292969,113.33333587646484,110.66667175292969,109.33333587646484,108.66667175292969,106],"ymouse":[829,829,829,829,829,829,829,829,829,829,829,829,829,829,829,829,829,829,829,829,829,829,829,829,829,829,829,829,829,829,829,829,829,829,829,829,829,829,829,829,829,829,829,829,829,829,829,829,829,829,829,829,829,829,829,829,829,829,829,829,829,829,829,829,829,829,829,829,829,829,829,829,829,829,829,829,829,829,829,829,829,829,829,829,829,829,829,829,829,812.0000610351562,810.6666870117188,810.6666870117188,810.6666870117188,810.6666870117188,804.6666870117188,802,800.6666870117188,798,794,791.3333740234375,790,787.3333740234375,784,778.6666870117188,774,772,766.6666870117188,764,746,740.6666870117188,729.3333740234375,718.6666870117188,713.3333740234375,703.3333740234375,688,678,672.6666870117188,662.6666870117188,647.3333740234375,638,628.6666870117188,624,614,599.3333740234375,590,584.6666870117188,574.6666870117188,569.3333740234375,547.3333740234375,540,528.6666870117188,516.6666870117188,510,488,469.3333435058594,453.3333435058594,445.3333435058594,429.3333435058594,406,393.3333435058594,388,375.3333435058594,362.66668701171875,344,331.3333435058594,324,310.66668701171875,306,283.3333435058594,278,266.66668701171875,256,250.66668701171875,234.6666717529297,223.33334350585938,213.33334350585938,208,198,184.6666717529297,176,172,163.33334350585938,154.6666717529297,150,138,130.6666717529297,124,120.66667175292969,115.33334350585938,107.33333587646484,102.66667175292969,100,96],"timestamp_mouse":[10,30,49,69,90,110,135,149,169,189,210,229,250,269,290,310,329,349,370,389,410,430,450,470,489,510,530,550,570,589,609,629,650,670,689,709,729,750,770,790,810,829,849,870,890,910,930,950,969,989,1009,1030,1049,1069,1090,1110,1129,1149,1170,1190,1210,1229,1250,1270,1290,1310,1329,1349,1370,1390,1410,1429,1450,1470,1490,1510,1530,1550,1570,1589,1610,1630,1649,1669,1689,1709,1730,1749,1770,1789,1810,1829,1850,1869,1889,1909,1930,1949,1970,1989,2010,2029,2049,2069,2090,2110,2129,2150,2170,2190,2209,2229,2249,2270,2290,2310,2330,2350,2374,2390,2409,2429,2449,2471,2490,2509,2530,2549,2571,2590,2610,2630,2650,2671,2689,2710,2729,2749,2770,2789,2809,2830,2850,2871,2890,2910,2930,2949,2972,2990,3009,3030,3050,3072,3090,3109,3130,3149,3171,3190,3210,3229,3249,3269,3290,3309,3329,3350,3370,3390,3410,3430,3449],"xSR":350,"ySR":768,"xT1":30,"yT1":0,"xT2":670,"yT2":0,"toosoon":0,"cond_shown":"Congruent","ratio_trial":300,"L_num":8,"L_den":16,"R_num":1,"R_den":5,"correct_side":1,"subjID":"49wm","gender":"No_gender","school":"No_school","age":"No_age"},{"start_time":1549381617532,"click_time":1549381619737,"finger_time":1549381619136,"fix_duration":1094.1888792643124,"trial":3,"RT":1604,"MT":601,"sideResp":1,"stimulus":[],"xmouse":[396.66668701171875,397.3333435058594,397.3333435058594,397.3333435058594,397.3333435058594,397.3333435058594,397.3333435058594,397.3333435058594,397.3333435058594,397.3333435058594,397.3333435058594,397.3333435058594,397.3333435058594,397.3333435058594,397.3333435058594,397.3333435058594,397.3333435058594,397.3333435058594,397.3333435058594,397.3333435058594,397.3333435058594,396.66668701171875,396.66668701171875,396.66668701171875,396.66668701171875,396.66668701171875,396.66668701171875,396.66668701171875,396.66668701171875,396.66668701171875,396.66668701171875,396,396,396,396,396,396,396,396,396,396,395.3333435058594,395.3333435058594,395.3333435058594,394.66668701171875,394.66668701171875,394.66668701171875,394.66668701171875,394.66668701171875,394.66668701171875,394.66668701171875,394,394,393.3333435058594,393.3333435058594,392.66668701171875,392.66668701171875,392,392,392,392,392,392,392,391.3333435058594,391.3333435058594,390.66668701171875,390.66668701171875,390.66668701171875,390.66668701171875,390.66668701171875,390,388.66668701171875,388,386,385.3333435058594,381.3333435058594,380,377.3333435058594,372,369.3333435058594,356,342.66668701171875,328.66668701171875,320.66668701171875,308,284.66668701171875,270,260.66668701171875,247.33334350585938,232.6666717529297,209.33334350585938,203.33334350585938,190.6666717529297,174.6666717529297,170,152.6666717529297,150,144,142.6666717529297,138.6666717529297,130.6666717529297,122.66667175292969,118.66667175292969,116.66667175292969,115.33333587646484,112,110.66667175292969,110,108,106.66667175292969],"ymouse":[839.3333740234375,839.3333740234375,839.3333740234375,839.3333740234375,839.3333740234375,838.6666870117188,838.6666870117188,838.6666870117188,838.6666870117188,838.6666870117188,838,838,838,838,838,838,838,838,837.3333740234375,837.3333740234375,837.3333740234375,836.6666870117188,836.6666870117188,836.6666870117188,836.6666870117188,836.6666870117188,836.6666870117188,836,836.6666870117188,836.6666870117188,836.6666870117188,836.6666870117188,836.6666870117188,836.6666870117188,836,835.3333740234375,835.3333740234375,834.6666870117188,834,833.3333740234375,833.3333740234375,832.6666870117188,832,831.3333740234375,830.6666870117188,830.6666870117188,830,829.3333740234375,829.3333740234375,828.6666870117188,827.3333740234375,826.6666870117188,825.3333740234375,825.3333740234375,824.6666870117188,823.3333740234375,822,821.3333740234375,820.6666870117188,819.3333740234375,818.6666870117188,816.6666870117188,816,814.6666870117188,814.6666870117188,813.3333740234375,811.3333740234375,809.3333740234375,808.6666870117188,806.6666870117188,804,800.6666870117188,798.6666870117188,798,796,794.6666870117188,788.6666870117188,786,780,768.6666870117188,762,733.3333740234375,700,664,644.6666870117188,608,556.6666870117188,524,503.3333740234375,469.3333435058594,436,388.66668701171875,372,336,295.3333435058594,279.3333435058594,228,218.6666717529297,202.6666717529297,198.6666717529297,189.33334350585938,170.6666717529297,152.6666717529297,142,132,127.33334350585938,115.33334350585938,109.33333587646484,106.66667175292969,102,99.33333587646484],"timestamp_mouse":[8,38,44,65,85,106,124,144,164,185,205,225,245,265,285,307,324,344,364,384,405,424,444,465,484,504,524,545,564,585,605,624,644,665,685,704,724,744,765,784,804,825,844,865,886,905,924,945,964,984,1004,1025,1045,1064,1084,1105,1124,1145,1164,1184,1205,1226,1245,1264,1284,1304,1326,1344,1364,1384,1405,1424,1444,1464,1485,1504,1524,1544,1565,1584,1604,1626,1645,1665,1684,1704,1725,1744,1764,1785,1804,1825,1844,1865,1884,1904,1926,1945,1964,1984,2004,2025,2044,2064,2085,2104,2124,2145,2164,2184,2205],"xSR":350,"ySR":768,"xT1":30,"yT1":0,"xT2":670,"yT2":0,"toosoon":0,"cond_shown":"Congruent","ratio_trial":100,"L_num":8,"L_den":16,"R_num":2,"R_den":5,"correct_side":1,"subjID":"49wm","gender":"No_gender","school":"No_school","age":"No_age"},{"start_time":1549381622712,"click_time":1549381624557,"finger_time":1549381623796,"fix_duration":1214.5857864375307,"trial":4,"RT":1084,"MT":761,"sideResp":1,"stimulus":[],"xmouse":[399.3333435058594,399.3333435058594,399.3333435058594,398.66668701171875,398.66668701171875,398.66668701171875,398.66668701171875,398.66668701171875,398.66668701171875,398.66668701171875,398.66668701171875,398.66668701171875,398.66668701171875,398,398,398,398,398,398,398,398,398,398,398,398,398,398,398,398,398,398,398,398,396.66668701171875,396.66668701171875,396,396.66668701171875,396.66668701171875,397.3333435058594,397.3333435058594,397.3333435058594,397.3333435058594,396.66668701171875,395.3333435058594,394.66668701171875,393.3333435058594,392,391.3333435058594,388.66668701171875,386.66668701171875,384.66668701171875,383.3333435058594,380.66668701171875,377.3333435058594,370.66668701171875,367.3333435058594,359.3333435058594,352,348,330,325.3333435058594,318.66668701171875,316,310,299.3333435058594,290.66668701171875,284.66668701171875,271.3333435058594,260,245.33334350585938,234,230,220,213.33334350585938,196.6666717529297,191.33334350585938,180.6666717529297,176.6666717529297,169.33334350585938,157.33334350585938,150,144.6666717529297,142.6666717529297,138,132,128,126,124,122.66667175292969,116,114.66667175292969,113.33333587646484,112],"ymouse":[820.6666870117188,820.6666870117188,820.6666870117188,821.3333129882812,821.3333129882812,821.3333129882812,821.3333129882812,821.3333129882812,821.3333129882812,821.3333129882812,821.3333129882812,821.3333129882812,821.3333129882812,822,822,822,822,822,822,822,822,822,822,820,820,820,820,820,820,820,820,820,820,816,816,814,814,812.6666870117188,811.3333740234375,810.6666870117188,810,809.3333740234375,808.6666870117188,806.6666870117188,806,804.6666870117188,803.3333740234375,802.6666870117188,800,798,795.3333740234375,794,790,784,766.6666870117188,759.3333740234375,743.3333740234375,728.6666870117188,719.3333740234375,680,668.6666870117188,654,646.6666870117188,633.3333740234375,610,590.6666870117188,577.3333740234375,546.6666870117188,520.6666870117188,485.3333435058594,462.66668701171875,451.3333435058594,426.66668701171875,413.3333435058594,368.66668701171875,354.66668701171875,330,319.3333435058594,298.66668701171875,265.3333435058594,245.33334350585938,227.33334350585938,214.6666717529297,196,171.33334350585938,155.33334350585938,150,141.33334350585938,136,117.33334350585938,112.66667175292969,106,99.33333587646484],"timestamp_mouse":[4,30,44,64,84,104,124,144,165,185,204,224,244,264,285,304,324,344,364,384,404,425,445,464,484,505,525,544,565,584,604,624,644,665,684,704,724,745,766,784,804,824,844,866,885,904,926,944,967,988,1005,1024,1044,1065,1084,1104,1124,1144,1165,1187,1204,1224,1245,1265,1286,1305,1324,1345,1365,1384,1404,1424,1445,1465,1485,1504,1525,1544,1564,1585,1605,1625,1645,1665,1684,1705,1725,1745,1765,1785,1804,1825,1845],"xSR":350,"ySR":768,"xT1":30,"yT1":0,"xT2":670,"yT2":0,"toosoon":0,"cond_shown":"Congruent","ratio_trial":500,"L_num":12,"L_den":16,"R_num":3,"R_den":12,"correct_side":1,"subjID":"49wm","gender":"No_gender","school":"No_school","age":"No_age"},{"start_time":1549381627223,"click_time":1549381629177,"finger_time":1549381628718,"fix_duration":621.5567215507128,"trial":5,"RT":1495,"MT":459,"sideResp":2,"stimulus":[],"xmouse":[407.3333435058594,407.3333435058594,407.3333435058594,407.3333435058594,407.3333435058594,407.3333435058594,407.3333435058594,407.3333435058594,407.3333435058594,406.66668701171875,406.66668701171875,406.66668701171875,406.66668701171875,406.66668701171875,406.66668701171875,406.66668701171875,406.66668701171875,406.66668701171875,406.66668701171875,405.3333435058594,405.3333435058594,405.3333435058594,405.3333435058594,405.3333435058594,405.3333435058594,405.3333435058594,405.3333435058594,405.3333435058594,405.3333435058594,405.3333435058594,405.3333435058594,405.3333435058594,405.3333435058594,405.3333435058594,405.3333435058594,405.3333435058594,405.3333435058594,405.3333435058594,408,407.3333435058594,407.3333435058594,407.3333435058594,406.66668701171875,406.66668701171875,406.66668701171875,406.66668701171875,406.66668701171875,406.66668701171875,406.66668701171875,406.66668701171875,406.66668701171875,406.66668701171875,406.66668701171875,406.66668701171875,404,404,404,404,404,405.3333435058594,405.3333435058594,406.66668701171875,407.3333435058594,407.3333435058594,408.66668701171875,408.66668701171875,408.66668701171875,409.3333435058594,410,410.66668701171875,412.66668701171875,414,415.3333435058594,420,429.3333435058594,438,444.66668701171875,458,474,482,506,521.3333740234375,539.3333740234375,545.3333740234375,560.6666870117188,582,598.6666870117188,604.6666870117188,618,631.3333740234375,650,655.3333740234375,664.6666870117188,672.6666870117188,679.3333740234375,693.3333740234375,696.6666870117188,700.6666870117188],"ymouse":[838.6666870117188,838.6666870117188,838.6666870117188,838.6666870117188,838.6666870117188,838.6666870117188,838.6666870117188,838.6666870117188,838.6666870117188,838,838,838,837.3333740234375,837.3333740234375,837.3333740234375,837.3333740234375,837.3333740234375,837.3333740234375,837.3333740234375,836.6666870117188,836.6666870117188,836.6666870117188,836.6666870117188,836.6666870117188,836.6666870117188,836.6666870117188,836.6666870117188,836.6666870117188,836.6666870117188,835.3333740234375,835.3333740234375,835.3333740234375,835.3333740234375,835.3333740234375,835.3333740234375,835.3333740234375,835.3333740234375,835.3333740234375,847.3333740234375,848.6666870117188,848.6666870117188,848.6666870117188,848,848,848,848,848,848,848,848,848,848,848,848,836,836,836,836,836,830.6666870117188,830,828,826.6666870117188,826,822.6666870117188,822,820.6666870117188,819.3333740234375,818,814,810.6666870117188,805.3333740234375,802,786,751.3333740234375,723.3333740234375,706.6666870117188,670,630.6666870117188,609.3333740234375,542,498.66668701171875,452.66668701171875,436.66668701171875,398.66668701171875,342.66668701171875,308,292,260.66668701171875,234,193.33334350585938,183.33334350585938,162.6666717529297,147.33334350585938,136,109.33333587646484,102.66667175292969,96],"timestamp_mouse":[19,36,54,74,94,113,134,154,174,193,213,234,253,273,294,314,333,354,374,394,414,434,453,474,493,514,534,554,573,594,614,633,654,674,694,714,733,753,774,793,814,833,854,873,894,914,934,954,973,994,1014,1034,1053,1074,1094,1114,1133,1153,1173,1195,1214,1234,1253,1273,1295,1313,1334,1353,1374,1396,1414,1433,1453,1474,1495,1515,1534,1553,1574,1593,1614,1633,1654,1673,1693,1714,1734,1753,1774,1794,1814,1833,1853,1873,1894,1914,1934,1954],"xSR":350,"ySR":768,"xT1":30,"yT1":0,"xT2":670,"yT2":0,"toosoon":0,"cond_shown":"Congruent","ratio_trial":100,"L_num":1,"L_den":2,"R_num":3,"R_den":5,"correct_side":2,"subjID":"49wm","gender":"No_gender","school":"No_school","age":"No_age"},{"start_time":1549381631654,"click_time":1549381633616,"finger_time":1549381633157,"fix_duration":616.3435218133177,"trial":6,"RT":1503,"MT":459,"sideResp":1,"stimulus":[],"xmouse":[393.3333435058594,393.3333435058594,393.3333435058594,393.3333435058594,393.3333435058594,393.3333435058594,393.3333435058594,393.3333435058594,393.3333435058594,396,396.66668701171875,396.66668701171875,396.66668701171875,396.66668701171875,396.66668701171875,396.66668701171875,397.3333435058594,397.3333435058594,398,398.66668701171875,399.3333435058594,399.3333435058594,400,400,400,400.66668701171875,400.66668701171875,400.66668701171875,400.66668701171875,400.66668701171875,400.66668701171875,400.66668701171875,400.66668701171875,400,400,400,400,400,400,400,399.3333435058594,398.66668701171875,398.66668701171875,398,398,398,398,398,398,398,398,398,398,396,396,396,396,396,396,396,396,396,396,398.66668701171875,398.66668701171875,398.66668701171875,398.66668701171875,398.66668701171875,398.66668701171875,398.66668701171875,394.66668701171875,393.3333435058594,392,390.66668701171875,388,370.66668701171875,362,346,326.66668701171875,318,288,280.66668701171875,266,257.3333435058594,238.6666717529297,219.33334350585938,205.33334350585938,194.6666717529297,188,172.6666717529297,157.33334350585938,150,140.6666717529297,132.6666717529297,128,116,113.33333587646484,108,105.33333587646484],"ymouse":[846.0000610351562,846.0000610351562,846.0000610351562,846.0000610351562,846.0000610351562,846.0000610351562,846.0000610351562,846.0000610351562,846.0000610351562,831.3333740234375,830,829.3333740234375,828.6666870117188,828,828,826.6666870117188,826,825.3333740234375,824.6666870117188,823.3333740234375,822,821.3333740234375,821.3333740234375,820,820,818,817.3333740234375,816.6666870117188,815.3333740234375,814,813.3333740234375,812.6666870117188,811.3333740234375,810.6666870117188,810,809.3333740234375,809.3333740234375,808.6666870117188,808,808,808,808.6666870117188,808.6666870117188,808.6666870117188,808.6666870117188,808.6666870117188,808.6666870117188,808.6666870117188,808.6666870117188,808.6666870117188,808.6666870117188,808.6666870117188,808.6666870117188,814,814,814,814,814,814,814,814,814,814,818.6666870117188,818.6666870117188,818.6666870117188,818.6666870117188,818.6666870117188,818.6666870117188,818.6666870117188,804.6666870117188,802,800.6666870117188,798,792,758.6666870117188,744,714,680,660,577.3333740234375,557.3333740234375,518.6666870117188,493.3333435058594,443.3333435058594,380.66668701171875,344,308.66668701171875,290.66668701171875,252.66668701171875,210,194.6666717529297,172.6666717529297,153.33334350585938,144.6666717529297,120.66667175292969,111.33333587646484,102,98],"timestamp_mouse":[8,27,43,63,83,102,122,143,163,183,202,222,242,264,282,302,323,342,363,385,402,422,442,462,482,502,523,543,563,585,602,623,643,662,683,703,723,743,763,782,802,822,843,862,882,903,923,942,962,982,1002,1022,1042,1062,1082,1104,1122,1143,1162,1182,1202,1222,1242,1262,1282,1303,1323,1343,1362,1382,1403,1422,1442,1463,1482,1503,1523,1542,1563,1582,1604,1623,1643,1663,1683,1705,1722,1742,1763,1783,1805,1823,1842,1863,1883,1905,1922,1942,1962],"xSR":350,"ySR":768,"xT1":30,"yT1":0,"xT2":670,"yT2":0,"toosoon":0,"cond_shown":"Congruent","ratio_trial":200,"L_num":8,"L_den":15,"R_num":2,"R_den":6,"correct_side":1,"subjID":"49wm","gender":"No_gender","school":"No_school","age":"No_age"},{"start_time":1549381636383,"click_time":1549381638998,"finger_time":1549381638156,"fix_duration":1365.1029326958335,"trial":7,"RT":1773,"MT":842,"sideResp":1,"stimulus":[],"xmouse":[396,396,396,396,396,396,396,396,396,396,396,396,396,396,396,396,396,396,396,396,396,396,396,396,396,396,396,396,396,396,396,396,396,396,396,396,396,396,396,397.3333435058594,397.3333435058594,397.3333435058594,398.0000305175781,398.0000305175781,398.0000305175781,398.66668701171875,398.66668701171875,398.66668701171875,398.66668701171875,398.66668701171875,398.66668701171875,398.66668701171875,398.66668701171875,398.66668701171875,398.66668701171875,398.66668701171875,398.66668701171875,399.3333435058594,399.3333435058594,399.3333435058594,399.3333435058594,399.3333435058594,399.3333435058594,399.3333435058594,399.3333435058594,399.3333435058594,399.3333435058594,399.3333435058594,399.3333435058594,399.3333435058594,399.3333435058594,399.3333435058594,399.3333435058594,399.3333435058594,399.3333435058594,399.3333435058594,400.0000305175781,400.0000305175781,400.66668701171875,400.66668701171875,401.3333435058594,402.0000305175781,402.0000305175781,402.0000305175781,402.66668701171875,404.0000305175781,404.66668701171875,406.0000305175781,408.0000305175781,410.0000305175781,416.0000305175781,418.0000305175781,422.0000305175781,424.0000305175781,428.0000305175781,433.3333435058594,436.0000305175781,437.3333435058594,438.0000305175781,438.66668701171875,438.0000305175781,437.3333435058594,436.66668701171875,434.66668701171875,433.3333435058594,427.3333435058594,425.3333435058594,425.3333435058594,425.3333435058594,425.3333435058594,425.3333435058594,405.3333435058594,405.3333435058594,385.3333435058594,361.3333435058594,328,305.3333435058594,293.3333435058594,272,251.33334350585938,219.33334350585938,207.33334350585938,189.33334350585938,170,162.6666717529297,139.33334350585938,122,112.66667175292969,106,96,85.33333587646484],"ymouse":[823,823,823,823,823,823,823,823,823,823,823,823,823,823,823,823,823,823,823,823,823,823,823,823,823,823,823,823,823,823,823,823,823,823,823,823,823,823,823,815.3333740234375,814.6666870117188,814.6666870117188,813.3333740234375,812.6666870117188,811.3333740234375,810.6666870117188,810,810,809.3333740234375,809.3333740234375,808.6666870117188,808,808,808,807.3333740234375,807.3333740234375,806.6666870117188,806.6666870117188,806.6666870117188,806,806,806,806,806,805.3333740234375,805.3333740234375,804.6666870117188,804.6666870117188,804,804,802.6666870117188,802,801.3333740234375,800.6666870117188,800,798.6666870117188,798,796.6666870117188,796,794.6666870117188,792,789.3333740234375,788.6666870117188,786,783.3333740234375,778,775.3333740234375,770,762,756.6666870117188,733.3333740234375,727.3333740234375,714.6666870117188,708.6666870117188,696,679.3333740234375,670,662.6666870117188,659.3333740234375,654,648.6666870117188,646.6666870117188,646,645.3333740234375,644.6666870117188,644.6666870117188,644.6666870117188,644.6666870117188,644.6666870117188,644.6666870117188,644.6666870117188,636.6666870117188,636.6666870117188,618.6666870117188,596,558.6666870117188,529.3333740234375,514,483.3333435058594,452,400,380,346,308.66668701171875,292,240.66668701171875,205.33334350585938,173.33334350585938,158,128,92],"timestamp_mouse":[30,34,54,73,93,113,133,153,173,193,214,234,254,273,294,314,334,353,373,393,413,433,454,474,494,514,533,554,573,594,613,633,653,674,693,714,733,753,773,796,815,833,854,874,893,913,933,954,974,993,1014,1033,1054,1073,1093,1114,1134,1153,1174,1196,1214,1233,1254,1274,1293,1313,1333,1353,1373,1393,1413,1434,1454,1473,1494,1514,1533,1554,1574,1594,1613,1633,1654,1674,1693,1713,1734,1754,1773,1793,1814,1834,1854,1873,1894,1913,1934,1954,1973,1993,2013,2033,2053,2074,2094,2115,2134,2153,2173,2194,2214,2233,2254,2273,2293,2316,2333,2354,2373,2394,2414,2434,2454,2474,2493,2514,2534,2553,2573,2594,2615],"xSR":350,"ySR":768,"xT1":30,"yT1":0,"xT2":670,"yT2":0,"toosoon":0,"cond_shown":"Congruent","ratio_trial":100,"L_num":15,"L_den":25,"R_num":13,"R_den":26,"correct_side":1,"subjID":"49wm","gender":"No_gender","school":"No_school","age":"No_age"},{"start_time":1549381641757,"click_time":1549381643697,"finger_time":1549381643319,"fix_duration":999.2603961732565,"trial":8,"RT":1562,"MT":378,"sideResp":2,"stimulus":[],"xmouse":[418,418,418,419.3333435058594,419.3333435058594,419.3333435058594,419.3333435058594,419.3333435058594,419.3333435058594,419.3333435058594,419.3333435058594,419.3333435058594,419.3333435058594,418.66668701171875,418.66668701171875,418.66668701171875,418.66668701171875,418.66668701171875,418.66668701171875,418.66668701171875,418.66668701171875,418.66668701171875,418.66668701171875,420,420,420,420,420,420,414.66668701171875,414.66668701171875,414,413.3333435058594,412.66668701171875,412.66668701171875,413.3333435058594,413.3333435058594,414,414,413.3333435058594,413.3333435058594,413.3333435058594,412.66668701171875,412,412,411.3333435058594,411.3333435058594,411.3333435058594,410.66668701171875,410.66668701171875,410,409.3333435058594,408.66668701171875,406.66668701171875,406.66668701171875,406,406,406,406,406,406,406,406,406,406,412,412,412,412,416.66668701171875,418,418,418.66668701171875,420,422,423.3333435058594,424.66668701171875,428.66668701171875,445.3333435058594,461.3333435058594,469.3333435058594,486.66668701171875,494,510,540.6666870117188,548,564,572,590,620.6666870117188,639.3333740234375,650.6666870117188,667.3333740234375,683.3333740234375,694,697.3333740234375,701.3333740234375,703.3333740234375],"ymouse":[809.3333129882812,809.3333129882812,809.3333129882812,810,810,810,810,810,810,810,810,810,810,811.3333129882812,811.3333129882812,811.3333129882812,811.3333129882812,811.3333129882812,811.3333129882812,811.3333129882812,811.3333129882812,811.3333129882812,811.3333129882812,812,812,812,812,812,812,812.6666870117188,813.3333740234375,813.3333740234375,814,814,814,814,815.3333740234375,816.6666870117188,820.6666870117188,823.3333740234375,826.6666870117188,828,830,833.3333740234375,835.3333740234375,836,837.3333740234375,838.6666870117188,840.6666870117188,841.3333740234375,842.6666870117188,843.3333740234375,844,844,843.3333129882812,843.3333129882812,843.3333129882812,843.3333129882812,843.3333129882812,843.3333129882812,843.3333129882812,843.3333129882812,843.3333129882812,843.3333129882812,843.3333129882812,830.6666870117188,830.6666870117188,830.6666870117188,830.6666870117188,823.3333740234375,820,818.6666870117188,814.6666870117188,808,804,798.6666870117188,795.3333740234375,784.6666870117188,740.6666870117188,699.3333740234375,679.3333740234375,640,620.6666870117188,581.3333740234375,505.3333740234375,484.66668701171875,445.3333435058594,422,377.3333435058594,302,250.66668701171875,229.33334350585938,186,148.6666717529297,120.66667175292969,113.33334350585938,103.33333587646484,98],"timestamp_mouse":[2,29,40,60,79,99,120,140,159,179,199,219,240,260,280,300,319,340,360,379,400,419,440,460,480,499,519,539,559,579,599,619,640,659,680,699,719,739,762,780,799,819,839,860,879,899,920,939,960,980,999,1020,1039,1061,1080,1099,1119,1140,1160,1179,1199,1220,1239,1259,1281,1299,1320,1339,1359,1379,1399,1419,1439,1461,1479,1499,1519,1540,1562,1579,1599,1620,1639,1660,1683,1700,1719,1739,1760,1781,1799,1819,1839,1860,1880,1900,1919,1939],"xSR":350,"ySR":768,"xT1":30,"yT1":0,"xT2":670,"yT2":0,"toosoon":0,"cond_shown":"Congruent","ratio_trial":200,"L_num":13,"L_den":26,"R_num":14,"R_den":20,"correct_side":2,"subjID":"49wm","gender":"No_gender","school":"No_school","age":"No_age"},{"start_time":1549381646803,"click_time":1549381648357,"finger_time":1549381647958,"fix_duration":385.21850374938424,"trial":9,"RT":1155,"MT":399,"sideResp":2,"stimulus":[],"xmouse":[401,401,401,401,401,401,401,400,400,400,400,400,400,400,400,400,400,400,400,400,400,400,400,400,400,400,400,400,400,400,400,400,402.66668701171875,403.3333435058594,403.3333435058594,403.3333435058594,403.3333435058594,403.3333435058594,403.3333435058594,403.3333435058594,403.3333435058594,403.3333435058594,403.3333435058594,410.66668701171875,410.66668701171875,410.66668701171875,410.66668701171875,410.66668701171875,410.66668701171875,410.66668701171875,410.66668701171875,410.66668701171875,412.66668701171875,414,415.3333435058594,417.3333435058594,419.3333435058594,438,446.66668701171875,466.66668701171875,478,500.66668701171875,534.6666870117188,556.6666870117188,574,583.3333740234375,600,614,633.3333740234375,639.3333740234375,654,664.6666870117188,672.6666870117188,689.3333740234375,698,706.6666870117188,709.3333740234375,712.6666870117188],"ymouse":[835,835,835,835,835,835,835,820,820,820,820,820,820,820,820,820,820,820,820,820,820,820,820,820,820,820,820,820,820,820,820,820,820.6666870117188,819.3333740234375,819.3333740234375,819.3333740234375,819.3333740234375,819.3333740234375,819.3333740234375,819.3333740234375,819.3333740234375,819.3333740234375,819.3333740234375,809.3333740234375,809.3333740234375,809.3333740234375,809.3333740234375,809.3333740234375,809.3333740234375,809.3333740234375,809.3333740234375,809.3333740234375,800.6666870117188,798.6666870117188,797.3333740234375,792.6666870117188,788,734,711.3333740234375,662.6666870117188,637.3333740234375,582.6666870117188,506,457.3333435058594,417.3333435058594,397.3333435058594,362.66668701171875,332,284,267.3333435058594,235.33334350585938,200.6666717529297,186,145.33334350585938,126.66667175292969,112,106,98.66667175292969],"timestamp_mouse":[14,34,54,73,93,113,134,154,174,194,213,233,253,273,293,313,333,353,373,393,414,434,453,473,493,513,533,553,573,593,613,633,653,674,693,714,734,753,774,793,813,833,854,875,893,914,934,953,974,994,1013,1033,1054,1073,1094,1113,1134,1155,1174,1194,1214,1233,1255,1274,1293,1313,1334,1353,1374,1393,1413,1433,1453,1474,1493,1513,1533,1554],"xSR":350,"ySR":768,"xT1":30,"yT1":0,"xT2":670,"yT2":0,"toosoon":0,"cond_shown":"Congruent","ratio_trial":300,"L_num":2,"L_den":10,"R_num":12,"R_den":24,"correct_side":2,"subjID":"49wm","gender":"No_gender","school":"No_school","age":"No_age"},{"start_time":1549381652829,"click_time":1549381654356,"finger_time":1549381653837,"fix_duration":250,"trial":10,"RT":1008,"MT":519,"sideResp":2,"stimulus":[],"xmouse":[414,414,414,414,414,414,414,414,414,414,414,414,414,417.3333435058594,417.3333435058594,417.3333435058594,417.3333435058594,417.3333435058594,417.3333435058594,417.3333435058594,417.3333435058594,417.3333435058594,417.3333435058594,417.3333435058594,418,418,418,418,418,418,418,418,418,418,421.3333435058594,421.3333435058594,422.66668701171875,423.3333435058594,424.66668701171875,425.3333435058594,425.3333435058594,425.3333435058594,424.66668701171875,424.66668701171875,424.66668701171875,424.66668701171875,424.66668701171875,425.3333435058594,426.66668701171875,427.3333435058594,427.3333435058594,428,430,432,440,450.66668701171875,464.66668701171875,471.3333435058594,485.3333435058594,509.3333435058594,521.3333740234375,530,544,553.3333740234375,571.3333740234375,574.6666870117188,584.6666870117188,596,610.6666870117188,626,632.6666870117188,646.6666870117188,655.3333740234375,668.6666870117188,690,702.6666870117188,711.3333740234375],"ymouse":[806,806,806,806,806,806,806,806,806,806,806,806,806,814,814.6666870117188,814.6666870117188,814.6666870117188,814.6666870117188,814.6666870117188,814.6666870117188,814.6666870117188,814.6666870117188,814.6666870117188,814.6666870117188,813.3333129882812,813.3333129882812,813.3333129882812,813.3333129882812,813.3333129882812,813.3333129882812,813.3333129882812,813.3333129882812,813.3333129882812,813.3333129882812,799.3333740234375,798,794.6666870117188,793.3333740234375,788,785.3333740234375,783.3333740234375,782,780.6666870117188,779.3333740234375,778,778,776,774.6666870117188,771.3333740234375,768.6666870117188,767.3333740234375,763.3333740234375,755.3333740234375,748.6666870117188,719.3333740234375,686.6666870117188,646,626,586.6666870117188,528,488.66668701171875,471.3333435058594,437.3333435058594,406.66668701171875,365.3333435058594,354,332.66668701171875,306,269.3333435058594,244.66668701171875,230.6666717529297,204,191.33334350585938,168.6666717529297,136.6666717529297,115.33334350585938,98.66667175292969],"timestamp_mouse":[8,28,48,67,87,108,127,147,168,187,207,227,247,269,287,307,327,347,367,388,407,428,448,468,488,507,528,547,568,588,608,628,647,667,687,707,727,747,769,787,807,827,847,869,887,907,927,947,968,987,1008,1028,1047,1067,1089,1107,1127,1148,1167,1189,1208,1228,1247,1268,1288,1308,1328,1348,1369,1387,1407,1427,1448,1467,1488,1507,1527],"xSR":350,"ySR":768,"xT1":30,"yT1":0,"xT2":670,"yT2":0,"toosoon":0,"cond_shown":"Incongruent","ratio_trial":300,"L_num":1,"L_den":2,"R_num":2,"R_den":10,"correct_side":1,"subjID":"49wm","gender":"No_gender","school":"No_school","age":"No_age"},{"start_time":1549381657300,"click_time":1549381658957,"finger_time":1549381658276,"fix_duration":1282.9666652332687,"trial":11,"RT":976,"MT":681,"sideResp":1,"stimulus":[],"xmouse":[410,410,410,410,410,410,413,413,413,413,413,413,413,413,413,413,413,413,413,413,413,413,413,413,413,408.66668701171875,408.66668701171875,408.66668701171875,408.66668701171875,408,407.3333435058594,407.3333435058594,406.66668701171875,406,405.3333435058594,404.66668701171875,403.3333435058594,402,402,400.66668701171875,400.66668701171875,399.3333435058594,398.66668701171875,397.3333435058594,396,394.66668701171875,391.3333435058594,388.66668701171875,384,382,378.66668701171875,373.3333435058594,370,366.66668701171875,365.3333435058594,361.3333435058594,354.66668701171875,352.66668701171875,346.66668701171875,338.66668701171875,334,315.3333435058594,312.66668701171875,304,298.66668701171875,288.66668701171875,278,270.66668701171875,261.3333435058594,257.3333435058594,247.33334350585938,228.6666717529297,216,208.6666717529297,192,183.33334350585938,153.33334350585938,146.6666717529297,134,121.33333587646484,116.66667175292969,104,96],"ymouse":[835,835,835,835,835,835,820,820,820,820,820,820,820,820,820,820,820,820,820,820,820,820,820,820,820,814.0000610351562,813.3333740234375,813.3333740234375,813.3333740234375,812,811.3333740234375,811.3333740234375,811.3333740234375,811.3333740234375,810.6666870117188,810,808,806.6666870117188,806,804.6666870117188,803.3333740234375,799.3333740234375,798,794.6666870117188,792,789.3333740234375,780,772,761.3333740234375,756,744.6666870117188,727.3333740234375,716,704.6666870117188,699.3333740234375,687.3333740234375,671.3333740234375,666,654,639.3333740234375,630.6666870117188,590,582,560.6666870117188,546.6666870117188,514.6666870117188,468.66668701171875,439.3333435058594,407.3333435058594,393.3333435058594,365.3333435058594,328,306,296,268.66668701171875,256,202.6666717529297,188.6666717529297,162.6666717529297,138.6666717529297,128.6666717529297,100.66667175292969,87.33333587646484],"timestamp_mouse":[33,37,57,76,96,117,136,157,177,196,217,237,257,276,296,317,337,357,377,396,416,436,456,476,496,517,538,556,577,597,616,637,656,676,697,717,736,756,776,797,817,837,856,876,896,917,936,956,976,997,1016,1039,1057,1076,1096,1116,1139,1157,1176,1196,1216,1239,1256,1277,1297,1316,1336,1357,1377,1396,1416,1436,1456,1476,1497,1517,1537,1556,1576,1596,1616,1637,1657],"xSR":350,"ySR":768,"xT1":30,"yT1":0,"xT2":670,"yT2":0,"toosoon":0,"cond_shown":"Congruent","ratio_trial":300,"L_num":9,"L_den":10,"R_num":3,"R_den":5,"correct_side":1,"subjID":"49wm","gender":"No_gender","school":"No_school","age":"No_age"},{"start_time":1549381661723,"click_time":1549381663616,"finger_time":1549381663317,"fix_duration":945.1839029446359,"trial":12,"RT":1594,"MT":299,"sideResp":2,"stimulus":[],"xmouse":[401,401,401,401,401,401,401,401,401,401,401,401,401,401,401,401,401,401,401,401,401,401,401,401,401,401,401,401,401,401,401,401,401,401,401,401,401,401,401,401,401,401,401,401,401,401,401,401,401,401,401,401,401,401,401,401,401,401,401,401,401,401,401,401,401,396.66668701171875,396.66668701171875,396,396,396,396,396,396,396,396,396,396,404.66668701171875,406.66668701171875,415.3333435058594,428,435.3333435058594,462.66668701171875,484.66668701171875,505.3333435058594,518,540,572.6666870117188,592.6666870117188,613.3333740234375,624.6666870117188,643.3333740234375,668.6666870117188,684.6666870117188,691.3333740234375],"ymouse":[831,831,831,831,831,831,831,831,831,831,831,831,831,831,831,831,831,831,831,831,831,831,831,831,831,831,831,831,831,831,831,831,831,831,831,831,831,831,831,831,831,831,831,831,831,831,831,831,831,831,831,831,831,831,831,831,831,831,831,831,831,831,831,831,831,824.6666870117188,824.6666870117188,824,824,824,824,824,824,824,824,824,824,787.3333740234375,777.3333740234375,744.6666870117188,699.3333740234375,675.3333740234375,604,551.3333740234375,497.3333740234375,467.3333435058594,411.3333435058594,335.3333435058594,286,242,219.33334350585938,178.6666717529297,131.33334350585938,104.66667175292969,93.33333587646484],"timestamp_mouse":[14,34,53,74,94,113,133,153,173,194,214,234,254,274,294,314,333,353,373,393,413,434,454,473,493,514,534,554,573,593,613,634,653,673,693,713,733,753,774,794,813,833,854,874,893,914,933,954,974,993,1013,1034,1054,1092,1093,1114,1133,1153,1173,1193,1214,1233,1254,1273,1293,1314,1334,1355,1374,1394,1414,1434,1454,1473,1494,1514,1534,1553,1573,1594,1613,1633,1654,1673,1693,1714,1734,1754,1774,1794,1814,1833,1854,1873,1893],"xSR":350,"ySR":768,"xT1":30,"yT1":0,"xT2":670,"yT2":0,"toosoon":0,"cond_shown":"Congruent","ratio_trial":300,"L_num":3,"L_den":6,"R_num":4,"R_den":5,"correct_side":2,"subjID":"49wm","gender":"No_gender","school":"No_school","age":"No_age"},{"start_time":1549381665794,"click_time":1549381667717,"finger_time":1549381667336,"fix_duration":275.55268961406574,"trial":13,"RT":1542,"MT":381,"sideResp":1,"stimulus":[],"xmouse":[400,400,400,400,400,400,400,400,400,400,400,400,400,400,400,400,400,400,400,400,400,400,400,400,400,400,400,400,400,400,400,400,400,400,400,400,400,400,400,400,400,400,400,400,400,400,400,400,400,397.3333435058594,397.3333435058594,397.3333435058594,397.3333435058594,397.3333435058594,397.3333435058594,397.3333435058594,397.3333435058594,397.3333435058594,397.3333435058594,397.3333435058594,397.3333435058594,394.66668701171875,394.66668701171875,394.66668701171875,394.66668701171875,394.66668701171875,394.66668701171875,394.66668701171875,394.66668701171875,394.66668701171875,392.66668701171875,392,391.3333435058594,390.66668701171875,388.66668701171875,384,381.3333435058594,369.3333435058594,353.3333435058594,344.66668701171875,313.3333435058594,304,284.66668701171875,276,257.3333435058594,230,210,198.6666717529297,177.33334350585938,154,124.66667175292969,108,99.33333587646484,87.33333587646484,80.66667175292969,70.66667175292969,56],"ymouse":[834,834,834,834,834,834,834,834,834,834,834,834,834,834,834,834,834,834,834,834,834,834,834,834,834,834,834,834,834,834,834,834,834,834,834,834,834,834,834,834,834,834,834,834,834,834,834,834,834,826,825.3333129882812,825.3333129882812,825.3333129882812,825.3333129882812,825.3333129882812,825.3333129882812,825.3333129882812,825.3333129882812,825.3333129882812,825.3333129882812,825.3333129882812,822,822,822,822,822,822,822,822,822,812,808.6666870117188,807.3333740234375,803.3333740234375,798.6666870117188,789.3333740234375,783.3333740234375,764,735.3333740234375,720,653.3333740234375,634,592.6666870117188,570.6666870117188,524.6666870117188,452.66668701171875,404,381.3333435058594,337.3333435058594,293.3333435058594,235.33334350585938,199.33334350585938,184,154.6666717529297,141.33334350585938,115.33334350585938,81.33333587646484],"timestamp_mouse":[3,33,42,63,83,103,122,142,163,182,203,223,243,263,282,303,323,343,363,382,402,422,442,462,482,502,522,542,562,582,603,623,643,662,683,703,723,742,762,783,802,822,843,862,883,903,923,943,962,983,1005,1023,1042,1062,1082,1102,1122,1142,1162,1182,1202,1222,1242,1262,1282,1302,1323,1342,1363,1382,1403,1422,1442,1463,1482,1502,1523,1542,1563,1582,1604,1622,1643,1663,1682,1705,1722,1743,1762,1783,1805,1822,1843,1863,1882,1903,1922],"xSR":350,"ySR":768,"xT1":30,"yT1":0,"xT2":670,"yT2":0,"toosoon":0,"cond_shown":"Congruent","ratio_trial":100,"L_num":15,"L_den":25,"R_num":13,"R_den":26,"correct_side":1,"subjID":"49wm","gender":"No_gender","school":"No_school","age":"No_age"},{"start_time":1549381670866,"click_time":1549381672716,"finger_time":1549381672296,"fix_duration":988.588956376516,"trial":14,"RT":1430,"MT":420,"sideResp":1,"stimulus":[],"xmouse":[390,390,390,390,390,390,390,390,390,390,390,390,390,390,390,390,390,390,390,390,390,390,390,390,390,390,390,390,390,390,390,390,390,390,390,390,390,390,390,390,390,390,390,390,390,388,388,387.3333435058594,387.3333435058594,387.3333435058594,387.3333435058594,387.3333435058594,387.3333435058594,387.3333435058594,387.3333435058594,387.3333435058594,387.3333435058594,384,384,384,384,384,384,384,384,384,384,370.66668701171875,364,358.66668701171875,355.3333435058594,342.66668701171875,326,306,292,285.3333435058594,268.66668701171875,260.66668701171875,229.33334350585938,221.33334350585938,207.33334350585938,200.6666717529297,187.33334350585938,168,153.33334350585938,140.6666717529297,134,121.33333587646484,108,100.66667175292969,96,92,89.33333587646484],"ymouse":[821,821,821,821,821,821,821,821,821,821,821,821,821,821,821,821,821,821,821,821,821,821,821,821,821,821,821,821,821,821,821,821,821,821,821,821,821,821,821,821,821,821,821,821,821,813.3333740234375,813.3333740234375,812.6666870117188,812.6666870117188,812.6666870117188,812.6666870117188,812.6666870117188,812.6666870117188,812.6666870117188,812.6666870117188,812.6666870117188,812.6666870117188,801.3333740234375,801.3333740234375,801.3333740234375,801.3333740234375,801.3333740234375,801.3333740234375,801.3333740234375,801.3333740234375,801.3333740234375,801.3333740234375,793.3333740234375,782,774.6666870117188,769.3333740234375,750.6666870117188,720,668.6666870117188,633.3333740234375,615.3333740234375,573.3333740234375,549.3333740234375,466.66668701171875,446.66668701171875,410,391.3333435058594,347.3333435058594,286.66668701171875,251.33334350585938,218.6666717529297,202.6666717529297,176,140.6666717529297,124.66667175292969,117.33334350585938,101.33333587646484,92],"timestamp_mouse":[11,32,51,71,90,110,130,150,171,191,210,230,251,271,290,310,330,351,370,391,411,431,451,470,490,511,530,550,570,591,610,630,651,670,690,711,730,750,770,790,810,831,851,870,890,912,930,950,970,991,1010,1031,1050,1072,1091,1110,1130,1151,1170,1190,1210,1230,1251,1270,1290,1311,1331,1351,1370,1391,1410,1430,1450,1471,1491,1510,1530,1551,1570,1590,1611,1630,1651,1674,1691,1711,1730,1750,1774,1790,1810,1830,1850],"xSR":350,"ySR":768,"xT1":30,"yT1":0,"xT2":670,"yT2":0,"toosoon":0,"cond_shown":"Incongruent","ratio_trial":100,"L_num":12,"L_den":24,"R_num":9,"R_den":15,"correct_side":2,"subjID":"49wm","gender":"No_gender","school":"No_school","age":"No_age"},{"start_time":1549381674678,"click_time":1549381676116,"finger_time":1549381675657,"fix_duration":359.6536034277702,"trial":15,"RT":979,"MT":459,"sideResp":2,"stimulus":[],"xmouse":[401,401,401,401,401,401,401,401,401,401,401,401,401,401,401,401,401,401,401,401,401,401,401,401,401,401,401,401,401,401,401,401,401,406,406,406,406,406,406,406,406,406,408,408,408.66668701171875,408.66668701171875,408.66668701171875,408.66668701171875,418,428,440.66668701171875,454.66668701171875,461.3333435058594,476,500.66668701171875,516.6666870117188,524.6666870117188,541.3333740234375,557.3333740234375,591.3333740234375,598.6666870117188,606,624,629.3333740234375,654.6666870117188,658,669.3333740234375,677.3333740234375,680,683.3333740234375,686,687.3333740234375,688],"ymouse":[831,831,831,831,831,831,831,831,831,831,831,831,831,831,831,831,831,831,831,831,831,831,831,831,831,831,831,831,831,831,831,831,831,830,830,830,830,830,830,830,830,830,821.3333740234375,821.3333740234375,818.6666870117188,818.6666870117188,818.6666870117188,818.6666870117188,785.3333740234375,745.3333740234375,705.3333740234375,667.3333740234375,648,607.3333740234375,544,500,478,436.66668701171875,396,322.66668701171875,302.66668701171875,284.66668701171875,249.33334350585938,232.6666717529297,174,161.33334350585938,139.33334350585938,125.33334350585938,122.66667175292969,116,105.33333587646484,100.66667175292969,99.33333587646484],"timestamp_mouse":[3,24,51,58,78,98,119,138,158,178,198,218,238,259,279,298,319,338,358,378,398,418,438,459,478,498,519,539,559,579,599,618,639,659,680,698,719,738,758,778,798,819,839,859,880,898,919,939,959,979,998,1018,1039,1059,1078,1098,1119,1138,1159,1193,1198,1218,1238,1259,1282,1298,1319,1338,1358,1378,1400,1418,1438],"xSR":350,"ySR":768,"xT1":30,"yT1":0,"xT2":670,"yT2":0,"toosoon":0,"cond_shown":"Incongruent","ratio_trial":100,"L_num":6,"L_den":10,"R_num":7,"R_den":14,"correct_side":1,"subjID":"49wm","gender":"No_gender","school":"No_school","age":"No_age"},{"start_time":1549381679512,"click_time":1549381681917,"finger_time":1549381680957,"fix_duration":1094.0868589406155,"trial":16,"RT":1445,"MT":960,"sideResp":1,"stimulus":[],"xmouse":[414,414,414,414,414,414,414,414,414,414,414,414,414,414,414,414,414,414,414,414,414,414,414,414,414,414,414,414,414,414,414,414,414,414,414,414,414,414,414,414,414,414,414,414,414,414,414,414,414,414,414,400.66668701171875,400.66668701171875,400,400,400,400,400,400,400,400,400,400,400,400,400,400,400,400,398.66668701171875,397.3333435058594,396.66668701171875,395.3333435058594,394.66668701171875,394,394,394,393.3333435058594,392.66668701171875,388,386.66668701171875,384,382,376.66668701171875,368,355.3333435058594,348,344,332,317.3333435058594,309.3333435058594,304.66668701171875,288.66668701171875,274.66668701171875,232,220,212,212,176,158.6666717529297,158.6666717529297,148.6666717529297,146.6666717529297,146.6666717529297,146.6666717529297,146.6666717529297,140.6666717529297,140.6666717529297,140.6666717529297,140.6666717529297,140.6666717529297,140.6666717529297,140.6666717529297,140.6666717529297,140.6666717529297,140.6666717529297,131.33334350585938,131.33334350585938,131.33334350585938,131.33334350585938,116.66667175292969],"ymouse":[828,828,828,828,828,828,828,828,828,828,828,828,828,828,828,828,828,828,828,828,828,828,828,828,828,828,828,828,828,828,828,828,828,828,828,828,828,828,828,828,828,828,828,828,828,828,828,828,828,828,828,822,822,821.3333740234375,821.3333740234375,821.3333740234375,821.3333740234375,821.3333740234375,821.3333740234375,821.3333740234375,821.3333740234375,821.3333740234375,821.3333740234375,814,814,814,814,814,814,794,784,776.6666870117188,761.3333740234375,746.6666870117188,720,712.6666870117188,700,687.3333740234375,681.3333740234375,664,661.3333740234375,654.6666870117188,650,632.6666870117188,602.6666870117188,552.6666870117188,523.3333740234375,500.66668701171875,447.3333435058594,399.3333435058594,375.3333435058594,363.3333435058594,338.66668701171875,310,172.6666717529297,148.6666717529297,145.33334350585938,145.33334350585938,52,11.333333969116211,11.333333969116211,6,5.333333969116211,5.333333969116211,5.333333969116211,5.333333969116211,7.333333969116211,7.333333969116211,7.333333969116211,7.333333969116211,7.333333969116211,7.333333969116211,7.333333969116211,7.333333969116211,7.333333969116211,7.333333969116211,18.666667938232422,18.666667938232422,18.666667938232422,18.666667938232422,25.33333396911621],"timestamp_mouse":[5,43,45,65,85,105,125,144,165,185,205,224,245,264,285,304,324,345,365,384,405,425,445,465,485,504,525,545,564,585,604,624,645,664,685,705,725,744,764,784,804,824,844,864,885,905,925,944,964,985,1004,1025,1044,1065,1084,1105,1124,1145,1164,1185,1205,1225,1245,1264,1284,1304,1324,1345,1364,1384,1404,1424,1445,1464,1485,1504,1524,1545,1565,1585,1604,1625,1644,1664,1685,1704,1725,1745,1765,1787,1805,1825,1844,1865,1887,1904,1924,1945,1965,1984,2005,2025,2044,2064,2084,2104,2125,2144,2165,2184,2204,2225,2245,2264,2285,2304,2324,2344,2365,2385,2405],"xSR":350,"ySR":768,"xT1":30,"yT1":0,"xT2":670,"yT2":0,"toosoon":0,"cond_shown":"Incongruent","ratio_trial":300,"L_num":4,"L_den":20,"R_num":2,"R_den":4,"correct_side":2,"subjID":"49wm","gender":"No_gender","school":"No_school","age":"No_age"},{"start_time":1549381692065,"click_time":1549381696198,"finger_time":1549381695497,"fix_duration":1347.3734174456683,"trial":17,"RT":3432,"MT":701,"sideResp":1,"stimulus":[],"xmouse":[388,388,388,388,388,388,388,388,388,388,388,388,388,388,388,388,388,388,388,388,388,388,388,388,388,388,388,388,388,388,388,388,388,388,388,388,388,388,388,388,388,388,388,388,388,388,409.3333435058594,409.3333435058594,409.3333435058594,410,410.66668701171875,410.66668701171875,410.66668701171875,410.66668701171875,410.66668701171875,410.66668701171875,410.66668701171875,410,410,410,410,410,410,410,410,410,410,410,410,409.3333435058594,409.3333435058594,409.3333435058594,409.3333435058594,409.3333435058594,409.3333435058594,409.3333435058594,409.3333435058594,409.3333435058594,409.3333435058594,409.3333435058594,409.3333435058594,409.3333435058594,409.3333435058594,410,410.66668701171875,412,412.66668701171875,414,415.3333435058594,416.66668701171875,417.3333435058594,418,418,418.66668701171875,419.3333435058594,420,419.3333435058594,419.3333435058594,419.3333435058594,419.3333435058594,419.3333435058594,418.66668701171875,418.66668701171875,418.66668701171875,418.66668701171875,418.66668701171875,418.66668701171875,418,418,418,416.66668701171875,416.66668701171875,416,415.3333435058594,415.3333435058594,415.3333435058594,415.3333435058594,415.3333435058594,415.3333435058594,415.3333435058594,415.3333435058594,415.3333435058594,415.3333435058594,411.3333435058594,411.3333435058594,411.3333435058594,411.3333435058594,411.3333435058594,411.3333435058594,411.3333435058594,411.3333435058594,411.3333435058594,411.3333435058594,411.3333435058594,411.3333435058594,411.3333435058594,411.3333435058594,411.3333435058594,411.3333435058594,411.3333435058594,411.3333435058594,411.3333435058594,411.3333435058594,406.66668701171875,406.66668701171875,406.66668701171875,406.66668701171875,406.66668701171875,406.66668701171875,406.66668701171875,406.66668701171875,406.66668701171875,406.66668701171875,409.3333435058594,409.3333435058594,409.3333435058594,409.3333435058594,409.3333435058594,409.3333435058594,409.3333435058594,409.3333435058594,409.3333435058594,409.3333435058594,406.66668701171875,406,404.66668701171875,403.3333435058594,402.66668701171875,401.3333435058594,400.66668701171875,399.3333435058594,398,397.3333435058594,396,395.3333435058594,393.3333435058594,392.66668701171875,391.3333435058594,390,389.3333435058594,388,386.66668701171875,384.66668701171875,384,382,377.3333435058594,374.66668701171875,373.3333435058594,369.3333435058594,366,363.3333435058594,351.3333435058594,347.3333435058594,335.3333435058594,327.3333435058594,312.66668701171875,289.3333435058594,273.3333435058594,263.3333435058594,244,213.33334350585938,192.6666717529297,180.6666717529297,164.6666717529297,144.6666717529297,114.66667175292969],"ymouse":[825,825,825,825,825,825,825,825,825,825,825,825,825,825,825,825,825,825,825,825,825,825,825,825,825,825,825,825,825,825,825,825,825,825,825,825,825,825,825,825,825,825,825,825,825,825,832.6666870117188,832,832,830,829.3333740234375,829.3333740234375,829.3333740234375,830.0000610351562,830.0000610351562,830.0000610351562,830.0000610351562,829.3333740234375,829.3333740234375,829.3333740234375,829.3333740234375,829.3333740234375,829.3333740234375,829.3333740234375,829.3333740234375,829.3333740234375,829.3333740234375,828.6666870117188,828.6666870117188,828,828,828,828,828,827.3333740234375,827.3333740234375,827.3333740234375,827.3333740234375,826.6666870117188,826,826,825.3333740234375,824.6666870117188,823.3333740234375,820.6666870117188,818.6666870117188,817.3333740234375,814.6666870117188,812.6666870117188,808.6666870117188,807.3333740234375,805.3333740234375,802.6666870117188,802,799.3333740234375,796.6666870117188,795.3333740234375,794.6666870117188,792.6666870117188,791.3333740234375,790,789.3333740234375,788.6666870117188,788,787.3333740234375,786.6666870117188,786.6666870117188,786,786,786,786,786,786.6666870117188,786.6666870117188,786.6666870117188,786.6666870117188,786.6666870117188,786.6666870117188,786.6666870117188,786.6666870117188,786.6666870117188,786.6666870117188,786.6666870117188,789.3333129882812,789.3333129882812,789.3333129882812,789.3333129882812,789.3333129882812,789.3333129882812,789.3333129882812,789.3333129882812,789.3333129882812,789.3333129882812,795.3333129882812,795.3333129882812,795.3333129882812,795.3333129882812,795.3333129882812,795.3333129882812,795.3333129882812,795.3333129882812,795.3333129882812,795.3333129882812,788.6666870117188,788.6666870117188,788.6666870117188,788.6666870117188,788.6666870117188,788.6666870117188,788.6666870117188,788.6666870117188,788.6666870117188,788.6666870117188,792,792,792,792,792,792,792,792,792,792,785.3333740234375,782.6666870117188,779.3333740234375,776.6666870117188,775.3333740234375,772,769.3333740234375,766,763.3333740234375,762.6666870117188,760.6666870117188,760,756.6666870117188,755.3333740234375,752.6666870117188,749.3333740234375,748,744.6666870117188,738.6666870117188,732.6666870117188,729.3333740234375,721.3333740234375,708.6666870117188,698.6666870117188,693.3333740234375,680.6666870117188,668.6666870117188,660.6666870117188,626,616,587.3333740234375,570,536,486.66668701171875,450,428.66668701171875,385.3333435058594,315.3333435058594,262,236.6666717529297,196.6666717529297,156,94.66667175292969],"timestamp_mouse":[17,53,71,91,111,132,151,172,191,212,231,251,272,291,311,331,351,371,392,412,432,451,471,491,512,531,552,572,592,612,632,652,671,691,711,731,751,771,791,811,832,852,871,891,912,932,952,971,992,1012,1033,1051,1072,1091,1112,1131,1152,1171,1192,1212,1232,1252,1272,1291,1311,1331,1352,1372,1392,1413,1432,1452,1471,1492,1513,1532,1552,1572,1592,1614,1632,1651,1671,1691,1713,1732,1751,1771,1792,1813,1832,1851,1872,1892,1911,1932,1952,1971,1991,2011,2032,2051,2072,2092,2112,2131,2151,2172,2192,2211,2231,2251,2272,2292,2311,2332,2352,2372,2391,2412,2431,2451,2471,2491,2512,2531,2551,2571,2592,2612,2634,2651,2672,2692,2711,2731,2751,2771,2791,2812,2832,2851,2871,2892,2911,2932,2952,2971,2992,3012,3031,3051,3071,3092,3112,3133,3152,3171,3191,3211,3232,3252,3272,3292,3311,3332,3352,3371,3391,3411,3431,3452,3471,3491,3512,3533,3551,3571,3592,3611,3631,3652,3672,3691,3712,3735,3751,3772,3792,3811,3832,3851,3871,3892,3911,3931,3951,3972,3992,4011,4033,4052,4072,4091,4112,4133],"xSR":350,"ySR":768,"xT1":30,"yT1":0,"xT2":670,"yT2":0,"toosoon":0,"cond_shown":"Incongruent","ratio_trial":300,"L_num":13,"L_den":26,"R_num":12,"R_den":15,"correct_side":2,"subjID":"49wm","gender":"No_gender","school":"No_school","age":"No_age"},{"start_time":1549381698760,"click_time":1549381702916,"finger_time":1549381701937,"fix_duration":622.2497106191452,"trial":18,"RT":3177,"MT":979,"sideResp":2,"stimulus":[],"xmouse":[401,401,401,401,401,401,401,401,401,401,401,401,401,401,401,401,401,401,401,401,401,401,401,401,401,401,401,401,401,401,401,401,401,401,401,401,401,401,401,401,401,401,401,401,401,401,401,405,405,405,405,405,405,405,405,405,405,405,405,405,405,405,405,405,405,405,405,405,405,405,405,405,405,405,405,405,405,407.3333435058594,407.3333435058594,407.3333435058594,407.3333435058594,407.3333435058594,418.0000305175781,420.0000305175781,420.66668701171875,421.3333435058594,422.0000305175781,423.3333435058594,424.0000305175781,424.0000305175781,424.0000305175781,424.0000305175781,423.3333435058594,422.66668701171875,422.0000305175781,421.3333435058594,420.66668701171875,420.66668701171875,420.66668701171875,420.66668701171875,420.66668701171875,420.66668701171875,420.66668701171875,420.66668701171875,420.66668701171875,420.66668701171875,410.66668701171875,408.66668701171875,408.0000305175781,407.3333435058594,407.3333435058594,407.3333435058594,408.0000305175781,409.3333435058594,410.66668701171875,411.3333435058594,412.66668701171875,414.0000305175781,414.66668701171875,414.66668701171875,414.0000305175781,414.0000305175781,414.0000305175781,414.0000305175781,414.0000305175781,414.0000305175781,414.0000305175781,414.0000305175781,414.0000305175781,414.0000305175781,414.0000305175781,414.0000305175781,416.0000305175781,416.0000305175781,416.0000305175781,416.0000305175781,416.0000305175781,416.0000305175781,416.0000305175781,416.0000305175781,416.0000305175781,416.0000305175781,422.0000305175781,422.0000305175781,422.0000305175781,422.0000305175781,422.0000305175781,422.0000305175781,424.0000305175781,426.0000305175781,426.66668701171875,428.66668701171875,432.0000305175781,434.0000305175781,434.66668701171875,436.66668701171875,438.66668701171875,443.3333435058594,448.66668701171875,451.3333435058594,456.66668701171875,459.3333435058594,465.3333435058594,472.0000305175781,477.3333435058594,482.0000305175781,484.66668701171875,488.0000305175781,493.3333435058594,496.66668701171875,498.66668701171875,504.66668701171875,508.66668701171875,518,522,532.6666870117188,544,548.6666870117188,571.3333740234375,575.3333740234375,584,590,609.3333740234375,612.6666870117188,620.6666870117188,624.6666870117188,627.3333740234375,629.3333740234375,636,644.6666870117188,648,654,662,666.6666870117188,668,672.6666870117188,677.3333740234375,680,686.6666870117188,688,690,691.3333129882812,694,698,700.6666870117188,703.3333129882812,704],"ymouse":[832,832,832,832,832,832,832,832,832,832,832,832,832,832,832,832,832,832,832,832,832,832,832,832,832,832,832,832,832,832,832,832,832,832,832,832,832,832,832,832,832,832,832,832,832,832,832,833,833,833,833,833,833,833,833,833,833,833,833,833,833,833,833,833,833,833,833,833,833,833,833,833,833,833,833,833,833,824.0000610351562,824.0000610351562,824.0000610351562,824.0000610351562,824.0000610351562,806.6666870117188,801.3333740234375,798.6666870117188,794,792,786,785.3333740234375,782.6666870117188,781.3333740234375,780.6666870117188,779.3333740234375,779.3333740234375,778.6666870117188,779.3333740234375,779.3333740234375,779.3333740234375,779.3333740234375,779.3333740234375,779.3333740234375,779.3333740234375,779.3333740234375,779.3333740234375,779.3333740234375,779.3333740234375,794.6666870117188,798.6666870117188,800,802.6666870117188,806,807.3333740234375,814,818.6666870117188,823.3333740234375,826,830.6666870117188,835.3333740234375,836.6666870117188,837.3333740234375,836.6666870117188,836.6666870117188,836.0000610351562,836.0000610351562,836.0000610351562,836.0000610351562,836.0000610351562,836.0000610351562,836.0000610351562,836.0000610351562,836.0000610351562,836.0000610351562,825.3333740234375,825.3333740234375,825.3333740234375,825.3333740234375,825.3333740234375,825.3333740234375,825.3333740234375,825.3333740234375,825.3333740234375,825.3333740234375,832.6666870117188,832.6666870117188,832.6666870117188,832.6666870117188,832.6666870117188,832.6666870117188,812,806.6666870117188,803.3333740234375,798.6666870117188,790.6666870117188,784.6666870117188,782,776,768.6666870117188,755.3333740234375,741.3333740234375,734,719.3333740234375,712,696,677.3333740234375,663.3333740234375,650.6666870117188,645.3333740234375,634.6666870117188,619.3333740234375,609.3333740234375,603.3333740234375,588.6666870117188,578,554.6666870117188,544,518.6666870117188,494,482,432.66668701171875,422,397.3333435058594,383.3333435058594,336,326,307.3333435058594,296,288,276,249.33334350585938,228,221.33334350585938,206,185.33334350585938,174.6666717529297,170.6666717529297,162.6666717529297,154,150,133.33334350585938,130.6666717529297,125.33334350585938,122.66667175292969,117.33334350585938,109.33333587646484,104,100,98.66667175292969],"timestamp_mouse":[41,57,76,97,116,136,157,177,197,217,237,256,276,297,317,336,356,377,397,416,436,457,477,496,516,536,557,576,597,616,636,657,677,696,716,736,757,777,797,817,837,857,877,897,916,937,956,976,997,1017,1037,1056,1076,1096,1116,1136,1156,1176,1197,1217,1237,1257,1277,1296,1316,1337,1356,1377,1396,1416,1436,1457,1477,1496,1516,1536,1556,1580,1597,1617,1636,1656,1676,1696,1717,1736,1756,1776,1797,1817,1836,1857,1877,1896,1917,1937,1957,1976,1996,2017,2037,2057,2078,2096,2116,2137,2156,2178,2197,2216,2237,2257,2277,2296,2316,2337,2357,2377,2396,2416,2436,2457,2476,2497,2516,2536,2556,2576,2597,2616,2636,2657,2677,2696,2716,2736,2756,2776,2797,2817,2836,2856,2879,2896,2917,2937,2956,2977,2997,3016,3036,3057,3078,3096,3116,3137,3157,3177,3197,3216,3237,3257,3277,3296,3316,3337,3356,3376,3398,3417,3436,3457,3476,3497,3517,3537,3556,3576,3597,3617,3637,3657,3678,3697,3716,3737,3756,3776,3796,3817,3836,3857,3879,3896,3917,3937,3956,3977,3996,4016,4036,4057,4077,4096,4117,4137,4156],"xSR":350,"ySR":768,"xT1":30,"yT1":0,"xT2":670,"yT2":0,"toosoon":0,"cond_shown":"Congruent","ratio_trial":500,"L_num":4,"L_den":24,"R_num":12,"R_den":18,"correct_side":2,"subjID":"49wm","gender":"No_gender","school":"No_school","age":"No_age"},{"start_time":1549381705659,"click_time":1549381708017,"finger_time":1549381707556,"fix_duration":1020.381712744773,"trial":19,"RT":1897,"MT":461,"sideResp":1,"stimulus":[],"xmouse":[390,390,390,390,390,390,390,390,390,390,390,390,390,390,390,390,390,390,390,390,390,390,390,390,390,390,390,390,390,390,390,390,390,390,390,390,390,390,390,390,390,390,390,390,390,382.66668701171875,382.66668701171875,382.66668701171875,382.66668701171875,382.66668701171875,382.66668701171875,382.66668701171875,382.66668701171875,382.66668701171875,382.66668701171875,382.66668701171875,382.66668701171875,382.66668701171875,382.66668701171875,382.66668701171875,382.66668701171875,382.66668701171875,382.66668701171875,382.66668701171875,382.66668701171875,382.66668701171875,382.66668701171875,382.66668701171875,382.66668701171875,382.66668701171875,382.66668701171875,382.66668701171875,382.66668701171875,382.66668701171875,382.66668701171875,382.66668701171875,382.66668701171875,382.66668701171875,379.3333435058594,379.3333435058594,379.3333435058594,379.3333435058594,379.3333435058594,379.3333435058594,379.3333435058594,387.3333435058594,387.3333435058594,387.3333435058594,387.3333435058594,387.3333435058594,387.3333435058594,386.66668701171875,386.66668701171875,386.66668701171875,368.66668701171875,354,329.3333435058594,321.3333435058594,306,291.3333435058594,271.3333435058594,264,251.33334350585938,238,232.6666717529297,222,206,198.6666717529297,194.6666717529297,184,176,164.6666717529297,161.33334350585938,152,144.6666717529297,141.33334350585938,128,125.33334350585938],"ymouse":[840,840,840,840,840,840,840,840,840,840,840,840,840,840,840,840,840,840,840,840,840,840,840,840,840,840,840,840,840,840,840,840,840,840,840,840,840,840,840,840,840,840,840,840,840,838.6666870117188,838.6666870117188,838.6666870117188,838,838,838,838,838,838,838,838,838,838,838,838,838,838,838,838,838,838,838,838,836.6666870117188,836.6666870117188,836.6666870117188,836.6666870117188,836.6666870117188,836.6666870117188,836.6666870117188,836.6666870117188,836.6666870117188,836.6666870117188,836.6666870117188,836.6666870117188,836.6666870117188,836.6666870117188,836.6666870117188,836.6666870117188,836.6666870117188,820,818.6666870117188,816,812.6666870117188,810,802,794,794,794,746,715.3333740234375,663.3333740234375,645.3333740234375,607.3333740234375,566,504.66668701171875,484,445.3333435058594,404.66668701171875,384,346.66668701171875,295.3333435058594,265.3333435058594,251.33334350585938,228,206,176.6666717529297,170,152.6666717529297,137.33334350585938,130,102,96],"timestamp_mouse":[31,37,57,78,98,118,138,157,177,198,217,237,257,277,297,317,338,357,377,398,418,438,457,478,497,518,537,558,578,597,618,637,658,678,698,717,738,758,778,797,818,838,857,877,897,917,938,958,977,997,1018,1038,1057,1078,1097,1118,1138,1157,1178,1197,1217,1253,1257,1278,1297,1317,1338,1357,1377,1397,1419,1437,1458,1477,1498,1518,1537,1557,1578,1598,1618,1638,1657,1677,1698,1718,1737,1758,1777,1798,1820,1837,1859,1877,1897,1917,1938,1957,1977,1997,2019,2038,2057,2077,2098,2118,2137,2158,2178,2197,2218,2238,2258,2278,2298,2318,2340,2358],"xSR":350,"ySR":768,"xT1":30,"yT1":0,"xT2":670,"yT2":0,"toosoon":0,"cond_shown":"Incongruent","ratio_trial":300,"L_num":4,"L_den":20,"R_num":2,"R_den":4,"correct_side":2,"subjID":"49wm","gender":"No_gender","school":"No_school","age":"No_age"},{"start_time":1549381710361,"click_time":1549381714457,"finger_time":1549381713877,"fix_duration":384.0384224527434,"trial":20,"RT":3516,"MT":580,"sideResp":2,"stimulus":[],"xmouse":[397,397,408,408,408,408,408,408,408,408,408,408,408,408,408,408,408,408,408,408,408,408,408,408,408,408,408,408,408,408,408,408,408,408,408,408,408,408,408,408,408,408,408,408,408,408,408,408,408,408,408,408,408,408,408,408,408,408,408,408,408,412,412,412,412,412,412,412,412,412,412,412,412,411.3333435058594,411.3333435058594,411.3333435058594,411.3333435058594,411.3333435058594,411.3333435058594,411.3333435058594,411.3333435058594,411.3333435058594,411.3333435058594,415.3333435058594,415.3333435058594,415.3333435058594,415.3333435058594,415.3333435058594,415.3333435058594,415.3333435058594,415.3333435058594,415.3333435058594,415.3333435058594,413.3333435058594,413.3333435058594,413.3333435058594,413.3333435058594,413.3333435058594,413.3333435058594,413.3333435058594,413.3333435058594,413.3333435058594,413.3333435058594,406,406,406,406,406,406,399.3333435058594,400,400,400,400,400,400,400,400,400,400,400,400,400,400,400.66668701171875,400.66668701171875,400.66668701171875,400.66668701171875,400.66668701171875,400.66668701171875,400.66668701171875,400.66668701171875,400.66668701171875,400.66668701171875,397.3333435058594,397.3333435058594,397.3333435058594,397.3333435058594,397.3333435058594,397.3333435058594,397.3333435058594,397.3333435058594,397.3333435058594,397.3333435058594,402.66668701171875,402.66668701171875,402.66668701171875,401.3333435058594,401.3333435058594,401.3333435058594,402,402,402,402,405.3333435058594,405.3333435058594,405.3333435058594,405.3333435058594,405.3333435058594,405.3333435058594,405.3333435058594,405.3333435058594,405.3333435058594,405.3333435058594,411.3333435058594,412,412.66668701171875,413.3333435058594,414.66668701171875,415.3333435058594,416,416,416.66668701171875,418.66668701171875,421.3333435058594,424.66668701171875,434,444,460,464,470.66668701171875,478,482,498,504,515.3333740234375,526,532,543.3333740234375,548.6666870117188,554,556.6666870117188,564,577.3333740234375,588,594.6666870117188,605.3333740234375,620,644,650.6666870117188,662.6666870117188,668.6666870117188,670.6666870117188,680,682],"ymouse":[798,798,827,827,827,827,827,827,827,827,827,827,827,827,827,827,827,827,827,827,827,827,827,827,827,827,827,827,827,827,827,827,827,827,827,827,827,827,827,827,827,827,827,827,827,827,827,827,827,827,827,827,830,830,830,830,830,830,830,830,830,823.3333740234375,822.6666870117188,822.6666870117188,822,822,822,822,822,822,822,822,822,820.6666870117188,820.6666870117188,820.6666870117188,820.6666870117188,820.6666870117188,820.6666870117188,820.6666870117188,820.6666870117188,820.6666870117188,820.6666870117188,814.0000610351562,814.0000610351562,814.0000610351562,814.0000610351562,814.0000610351562,814.0000610351562,814.0000610351562,814.0000610351562,814.0000610351562,814.0000610351562,810.0000610351562,810.0000610351562,810.0000610351562,810.0000610351562,810.0000610351562,810.0000610351562,810.0000610351562,810.0000610351562,810.0000610351562,810.0000610351562,813.3333129882812,813.3333129882812,813.3333129882812,813.3333129882812,813.3333129882812,813.3333129882812,828,828,829.3333740234375,828.6666870117188,828.6666870117188,828.0000610351562,828.0000610351562,828.0000610351562,828.0000610351562,828.0000610351562,828.0000610351562,828.0000610351562,828.0000610351562,828.0000610351562,828.0000610351562,822.6666870117188,822.6666870117188,822.6666870117188,822.6666870117188,822.6666870117188,822.6666870117188,822.6666870117188,822.6666870117188,822.6666870117188,822.6666870117188,826.0000610351562,826.0000610351562,826.0000610351562,826.0000610351562,826.0000610351562,826.0000610351562,826.0000610351562,826.0000610351562,826.0000610351562,826.0000610351562,827.3333740234375,827.3333740234375,827.3333740234375,830.6666870117188,830.6666870117188,830.6666870117188,830,830,830,830,828,828,828,828,828,828,828,828,828,828,814,812,811.3333740234375,808.6666870117188,805.3333740234375,802.6666870117188,799.3333740234375,798,791.3333740234375,785.3333740234375,774,762.6666870117188,727.3333740234375,692,640,626,598.6666870117188,570,555.3333740234375,503.3333740234375,487.3333435058594,458,428,415.3333435058594,384,367.3333435058594,355.3333435058594,348.66668701171875,330.66668701171875,298.66668701171875,274,262,238,207.33334350585938,164.6666717529297,152.6666717529297,135.33334350585938,124.66667175292969,120.66667175292969,102.66667175292969,99.33333587646484],"timestamp_mouse":[16,36,55,75,95,115,135,155,175,195,215,235,255,275,295,316,335,356,376,396,415,435,456,475,495,515,535,556,576,595,616,635,656,675,696,716,736,755,775,796,815,836,856,875,896,915,935,955,976,996,1015,1036,1057,1075,1095,1115,1136,1155,1176,1195,1216,1236,1256,1276,1296,1315,1336,1356,1375,1395,1416,1435,1455,1476,1496,1516,1535,1556,1576,1595,1616,1635,1657,1676,1695,1715,1736,1756,1776,1796,1815,1836,1856,1875,1895,1916,1936,1955,1975,1995,2015,2035,2055,2077,2095,2115,2136,2155,2176,2195,2215,2235,2256,2275,2296,2315,2335,2356,2376,2395,2416,2435,2456,2476,2496,2515,2536,2556,2575,2596,2616,2635,2655,2675,2696,2716,2736,2755,2776,2795,2816,2835,2855,2876,2895,2915,2935,2957,2976,2995,3016,3036,3055,3075,3096,3115,3136,3155,3175,3195,3216,3235,3255,3276,3296,3315,3335,3356,3376,3395,3415,3436,3457,3475,3496,3516,3536,3556,3576,3596,3615,3635,3655,3678,3695,3716,3735,3756,3777,3795,3815,3836,3856,3876,3895,3916,3935,3956,3977,3996,4015,4035,4056,4077,4095],"xSR":350,"ySR":768,"xT1":30,"yT1":0,"xT2":670,"yT2":0,"toosoon":0,"cond_shown":"Incongruent","ratio_trial":200,"L_num":7,"L_den":15,"R_num":4,"R_den":6,"correct_side":2,"subjID":"49wm","gender":"No_gender","school":"No_school","age":"No_age"},{"start_time":1549381716244,"click_time":1549381718317,"finger_time":1549381717797,"fix_duration":284.4859728143716,"trial":21,"RT":1553,"MT":520,"sideResp":1,"stimulus":[],"xmouse":[404.66668701171875,404.66668701171875,404.66668701171875,404.66668701171875,404.66668701171875,404.66668701171875,404.66668701171875,404.66668701171875,404.66668701171875,404.66668701171875,406.66668701171875,406.66668701171875,406.66668701171875,406.66668701171875,412,414.66668701171875,416.66668701171875,417.3333435058594,418,418.66668701171875,418,418,417.3333435058594,416.66668701171875,416,414.66668701171875,414,412.66668701171875,412.66668701171875,412,411.3333435058594,411.3333435058594,411.3333435058594,411.3333435058594,411.3333435058594,411.3333435058594,411.3333435058594,411.3333435058594,411.3333435058594,411.3333435058594,410.66668701171875,410.66668701171875,410.66668701171875,410.66668701171875,410.66668701171875,410.66668701171875,410.66668701171875,410.66668701171875,410.66668701171875,411.3333435058594,410.66668701171875,410.66668701171875,410.66668701171875,410,410.66668701171875,410.66668701171875,411.3333435058594,411.3333435058594,412,412.66668701171875,414,414,414,414,414,414,414,414,414,414,414,414,410,408.66668701171875,407.3333435058594,400,393.3333435058594,373.3333435058594,362,342.66668701171875,316,301.3333435058594,287.3333435058594,281.3333435058594,268.66668701171875,249.33334350585938,233.33334350585938,229.33334350585938,214.6666717529297,208,180,173.33334350585938,160,152.6666717529297,140.6666717529297,130,116.66667175292969,111.33333587646484,108.66667175292969,102.66667175292969,95.33333587646484,92,91.33333587646484,89.33333587646484],"ymouse":[801.3333740234375,801.3333740234375,801.3333740234375,801.3333740234375,801.3333740234375,801.3333740234375,801.3333740234375,801.3333740234375,801.3333740234375,801.3333740234375,808.0000610351562,808.0000610351562,808.0000610351562,808.0000610351562,813.3333740234375,816,818,819.3333740234375,820.6666870117188,822.6666870117188,823.3333740234375,824,824.6666870117188,824.6666870117188,825.3333740234375,826.6666870117188,826.6666870117188,826.6666870117188,826.6666870117188,826,826,826,826,826,826,826,826,826,826,826,828,828.6666870117188,828.6666870117188,828.6666870117188,829.3333740234375,829.3333740234375,829.3333740234375,829.3333740234375,830,830,830.6666870117188,831.3333740234375,831.3333740234375,831.3333740234375,831.3333740234375,831.3333740234375,831.3333740234375,831.3333740234375,831.3333740234375,831.3333740234375,830.6666870117188,830.6666870117188,830.6666870117188,830.6666870117188,830.6666870117188,830.6666870117188,830.6666870117188,830.6666870117188,830.6666870117188,830.6666870117188,812,812,798.6666870117188,794,791.3333740234375,779.3333740234375,772,744.6666870117188,728,696,646,605.3333740234375,560.6666870117188,538.6666870117188,494.66668701171875,431.3333435058594,394,376.66668701171875,342,324,260.66668701171875,246,220.6666717529297,208.6666717529297,187.33334350585938,168.6666717529297,145.33334350585938,136,130.6666717529297,121.33334350585938,110,103.33333587646484,100.66667175292969,95.33333587646484],"timestamp_mouse":[13,33,53,72,92,114,132,152,172,193,214,232,252,273,293,313,333,352,373,395,413,432,452,473,493,513,532,553,573,593,612,632,653,672,693,713,732,753,772,792,812,833,853,872,892,912,932,952,973,993,1012,1032,1052,1072,1092,1112,1133,1153,1172,1192,1212,1232,1253,1272,1293,1314,1333,1352,1372,1392,1414,1433,1452,1473,1492,1513,1533,1553,1572,1592,1614,1634,1652,1673,1693,1714,1733,1752,1772,1793,1814,1832,1852,1872,1892,1913,1932,1952,1973,1993,2015,2033,2052,2073],"xSR":350,"ySR":768,"xT1":30,"yT1":0,"xT2":670,"yT2":0,"toosoon":0,"cond_shown":"Congruent","ratio_trial":500,"L_num":25,"L_den":30,"R_num":9,"R_den":27,"correct_side":1,"subjID":"49wm","gender":"No_gender","school":"No_school","age":"No_age"},{"start_time":1549381720476,"click_time":1549381722296,"finger_time":1549381722117,"fix_duration":858.8429490905863,"trial":22,"RT":1641,"MT":179,"sideResp":2,"stimulus":[],"xmouse":[388,388,388.66668701171875,388.66668701171875,388.66668701171875,388.66668701171875,388.66668701171875,388.66668701171875,388.66668701171875,388.66668701171875,388.66668701171875,389.3333435058594,389.3333435058594,389.3333435058594,389.3333435058594,388.66668701171875,388.66668701171875,388.66668701171875,388.66668701171875,389.3333435058594,389.3333435058594,389.3333435058594,389.3333435058594,389.3333435058594,389.3333435058594,389.3333435058594,389.3333435058594,389.3333435058594,390,390,390,390,390,390,389.3333435058594,389.3333435058594,390.0000305175781,390.0000305175781,390.0000305175781,390.0000305175781,390.0000305175781,390.0000305175781,390.00003051