[{"start_time":1549382298272,"click_time":1549382299423,"finger_time":1549382298308,"fix_duration":981.4245740032428,"trial":0,"RT":36,"MT":1115,"sideResp":1,"stimulus":"img/900/randomdotsizeEA/L/4_Ratio_900_L_20_R_18.png","xmouse":[399.3333435058594,400,400,400,400,400,400,400,400,400,400,400,400,400,400,400,400,400,400,400,400,400,400,400,400,400,400,400,400,400,400,398.6666564941406,398.6666564941406,398.6666564941406,398.6666564941406,398.6666564941406,398.6666564941406,398.6666564941406,398.6666564941406,398.6666564941406,398.6666564941406,365.3333435058594,365.3333435058594,324,314,294.66668701171875,283.3333435058594,248,224.6666717529297,203.33334350585938,191.33334350585938,170.6666717529297,147.33334350585938,132.6666717529297,126.66667175292969,114.66667175292969,102],"ymouse":[759.3333740234375,761.3333740234375,761.3333740234375,761.3333740234375,761.3333740234375,761.3333740234375,761.3333740234375,761.3333740234375,761.3333740234375,761.3333740234375,761.3333740234375,761.3333740234375,761.3333740234375,761.3333740234375,761.3333740234375,761.3333740234375,761.3333740234375,761.3333740234375,761.3333740234375,761.3333740234375,761.3333740234375,760,760,760,760,760,760,760,760,760,760,759.3333740234375,759.3333740234375,759.3333740234375,759.3333740234375,759.3333740234375,759.3333740234375,759.3333740234375,759.3333740234375,759.3333740234375,759.3333740234375,702,702,614.6666870117188,594,550,526,455.3333435058594,406,357.3333435058594,334,286.66668701171875,218,176,158,125.33334350585938,97.33333587646484],"timestamp_mouse":[36,50,70,90,110,130,150,171,190,210,230,250,270,290,310,330,350,371,390,410,431,450,470,490,510,530,550,571,590,610,630,651,670,690,710,730,750,771,790,810,830,850,871,891,910,930,950,972,990,1011,1030,1050,1071,1090,1111,1130,1150],"xSR":350,"ySR":696,"xT1":30,"yT1":0,"xT2":670,"yT2":0,"toosoon":0,"cond_shown":"randomdotsizeEA","ratio_trial":900,"smaller_num":"18","larger_num":"20","correct_side":1,"subjID":"49wm","gender":"No_gender","age":"No_age","school":"No_school","test":{"fix_dur":[250,1500],"timestim":400,"targets_dim":[100,100],"targets_relative_coord":[0.1,0.9],"size_stim":[880,420],"start_dim":[100,100],"size_start":[300,300],"size_fix":60,"samplingrate":20,"img_types":["equaldotsize","equaldotanddens","randomdotsize","randomdotsizeEA"],"ratios":[250,500,750,900],"rep_conds":7,"nTrials":128,"trials_to_rest":500,"Trials_order":[15,77,42,116,14,71,68,112,25,76,70,7,58,47,117,79,73,34,81,95,92,90,97,10,29,48,122,4,53,8,64,52,32,72,125,38,60,104,31,78,37,69,44,83,16,18,51,120,74,106,30,17,9,108,21,80,54,98,57,2,27,61,113,119,114,94,85,88,102,45,39,82,103,19,49,35,41,118,123,99,24,12,63,126,121,105,109,1,65,40,62,84,43,5,91,22,101,115,55,23,67,100,36,46,50,96,59,87,110,6,33,111,89,124,107,66,11,28,75,127,93,26,20,56,86,3,13,0],"cond_shown":["randomdotsizeEA","equaldotanddens","randomdotsize","equaldotsize","randomdotsize","randomdotsizeEA","equaldotsize","equaldotsize","equaldotanddens","equaldotsize","randomdotsize","randomdotsizeEA","randomdotsize","randomdotsizeEA","equaldotanddens","randomdotsizeEA","equaldotanddens","randomdotsize","equaldotanddens","randomdotsizeEA","equaldotsize","randomdotsize","equaldotanddens","randomdotsize","equaldotanddens","equaldotsize","randomdotsize","equaldotsize","equaldotanddens","equaldotsize","equaldotsize","equaldotsize","equaldotsize","equaldotsize","equaldotanddens","randomdotsize","equaldotsize","equaldotsize","randomdotsizeEA","randomdotsize","equaldotanddens","equaldotanddens","equaldotsize","randomdotsizeEA","equaldotsize","randomdotsize","randomdotsizeEA","equaldotsize","randomdotsize","randomdotsize","randomdotsize","equaldotanddens","equaldotanddens","equaldotsize","equaldotanddens","equaldotsize","randomdotsize","randomdotsize","equaldotanddens","randomdotsize","randomdotsizeEA","equaldotanddens","equaldotanddens","randomdotsizeEA","randomdotsize","randomdotsize","equaldotanddens","equaldotsize","randomdotsize","equaldotanddens","randomdotsizeEA","randomdotsize","randomdotsizeEA","randomdotsizeEA","equaldotanddens","randomdotsizeEA","equaldotanddens","randomdotsize","randomdotsizeEA","randomdotsizeEA","equaldotsize","equaldotsize","randomdotsizeEA","randomdotsize","equaldotanddens","equaldotanddens","equaldotanddens","equaldotanddens","equaldotanddens","equaldotsize","randomdotsize","equaldotsize","randomdotsizeEA","equaldotanddens","randomdotsizeEA","randomdotsize","equaldotanddens","randomdotsizeEA","randomdotsizeEA","randomdotsizeEA","randomdotsizeEA","equaldotsize","equaldotsize","randomdotsize","randomdotsize","equaldotsize","randomdotsizeEA","randomdotsizeEA","randomdotsize","randomdotsize","equaldotanddens","randomdotsizeEA","equaldotanddens","equaldotsize","randomdotsizeEA","randomdotsize","randomdotsizeEA","equaldotsize","randomdotsizeEA","randomdotsizeEA","equaldotanddens","randomdotsize","equaldotsize","equaldotsize","randomdotsize","randomdotsizeEA","equaldotanddens","equaldotsize"],"ratio_trial":[900,900,750,500,900,500,500,250,750,900,500,500,750,900,500,900,750,250,250,900,900,750,250,750,900,250,750,500,500,750,250,500,250,750,900,500,900,750,900,900,500,500,900,250,250,250,250,750,750,750,900,250,750,900,500,250,500,250,750,250,750,900,250,500,250,900,500,750,500,900,500,250,500,250,250,250,750,500,750,250,750,900,900,900,750,750,900,250,250,750,900,500,750,500,750,500,500,250,500,500,250,500,500,900,250,250,750,500,900,500,250,900,750,900,750,250,750,900,750,900,900,750,500,750,500,250,900,250],"smaller_num":["18","18","6","2","9","6","5","1","18","18","5","2","3","9","2","9","3","3","4","18","18","18","5","6","18","2","3","1","2","15","2","6","2","6","18","1","18","3","18","18","2","3","18","2","2","6","4","15","3","12","18","2","15","18","9","3","2","2","6","5","3","18","3","2","2","9","2","6","4","18","3","6","2","3","6","6","6","1","15","6","6","18","18","18","3","6","18","3","6","18","18","6","6","9","3","5","5","3","6","1","2","9","10","9","6","4","9","5","9","2","5","9","15","18","6","3","15","9","18","9","18","12","1","6","6","4","18","3"],"larger_num":["20","20","8","4","10","12","10","4","24","20","10","4","4","10","4","10","4","12","16","20","20","24","20","8","20","8","4","2","4","20","8","12","8","8","20","2","20","4","20","20","4","6","20","8","8","24","16","20","4","16","20","8","20","20","18","12","4","8","8","20","4","20","12","4","8","10","4","8","8","20","6","24","4","12","24","24","8","2","20","24","8","20","20","20","4","8","20","12","24","24","20","12","8","18","4","10","10","12","12","2","8","18","20","10","24","16","12","10","10","4","20","10","20","20","8","12","20","10","24","10","20","16","2","8","12","16","20","12"],"correct_side":[1,1,2,2,2,1,1,2,1,2,1,2,2,2,2,2,2,1,2,1,2,1,2,1,1,2,1,2,2,1,2,1,1,2,1,2,1,2,1,1,1,2,1,1,2,2,1,2,2,2,1,2,2,2,2,2,1,1,1,2,2,2,1,1,1,1,2,2,1,2,2,2,1,2,1,1,1,2,1,2,2,1,2,1,1,1,1,2,1,1,2,1,2,1,1,1,1,2,1,2,2,2,2,2,2,2,2,1,2,1,2,2,2,2,2,2,1,2,1,2,1,2,2,1,1,1,1,2],"img_shown":["img/900/randomdotsizeEA/L/4_Ratio_900_L_20_R_18.png","img/900/equaldotanddens/L/2_Ratio_900_L_20_R_18.png","img/750/randomdotsize/R/2_Ratio_750_L_6_R_8.png","img/500/equaldotsize/R/9_Ratio_500_L_2_R_4.png","img/900/randomdotsize/R/7_Ratio_900_L_9_R_10.png","img/500/randomdotsizeEA/L/11_Ratio_500_L_12_R_6.png","img/500/equaldotsize/L/7_Ratio_500_L_10_R_5.png","img/250/equaldotsize/R/8_Ratio_250_L_1_R_4.png","img/750/equaldotanddens/L/6_Ratio_750_L_24_R_18.png","img/900/equaldotsize/R/14_Ratio_900_L_18_R_20.png","img/500/randomdotsize/L/7_Ratio_500_L_10_R_5.png","img/500/randomdotsizeEA/R/9_Ratio_500_L_2_R_4.png","img/750/randomdotsize/R/7_Ratio_750_L_3_R_4.png","img/900/randomdotsizeEA/R/7_Ratio_900_L_9_R_10.png","img/500/equaldotanddens/R/9_Ratio_500_L_2_R_4.png","img/900/randomdotsizeEA/R/5_Ratio_900_L_9_R_10.png","img/750/equaldotanddens/R/7_Ratio_750_L_3_R_4.png","img/250/randomdotsize/L/14_Ratio_250_L_12_R_3.png","img/250/equaldotanddens/R/10_Ratio_250_L_4_R_16.png","img/900/randomdotsizeEA/L/2_Ratio_900_L_20_R_18.png","img/900/equaldotsize/R/11_Ratio_900_L_18_R_20.png","img/750/randomdotsize/L/6_Ratio_750_L_24_R_18.png","img/250/equaldotanddens/R/12_Ratio_250_L_5_R_20.png","img/750/randomdotsize/L/14_Ratio_750_L_8_R_6.png","img/900/equaldotanddens/L/4_Ratio_900_L_20_R_18.png","img/250/equaldotsize/R/13_Ratio_250_L_2_R_8.png","img/750/randomdotsize/L/8_Ratio_750_L_4_R_3.png","img/500/equaldotsize/R/15_Ratio_500_L_1_R_2.png","img/500/equaldotanddens/R/9_Ratio_500_L_2_R_4.png","img/750/equaldotsize/L/1_Ratio_750_L_20_R_15.png","img/250/equaldotsize/R/13_Ratio_250_L_2_R_8.png","img/500/equaldotsize/L/11_Ratio_500_L_12_R_6.png","img/250/equaldotsize/L/1_Ratio_250_L_8_R_2.png","img/750/equaldotsize/R/2_Ratio_750_L_6_R_8.png","img/900/equaldotanddens/L/2_Ratio_900_L_20_R_18.png","img/500/randomdotsize/R/15_Ratio_500_L_1_R_2.png","img/900/equaldotsize/L/10_Ratio_900_L_20_R_18.png","img/750/equaldotsize/R/12_Ratio_750_L_3_R_4.png","img/900/randomdotsizeEA/L/8_Ratio_900_L_20_R_18.png","img/900/randomdotsize/L/2_Ratio_900_L_20_R_18.png","img/500/equaldotanddens/L/5_Ratio_500_L_4_R_2.png","img/500/equaldotanddens/R/2_Ratio_500_L_3_R_6.png","img/900/equaldotsize/L/8_Ratio_900_L_20_R_18.png","img/250/randomdotsizeEA/L/1_Ratio_250_L_8_R_2.png","img/250/equaldotsize/R/13_Ratio_250_L_2_R_8.png","img/250/randomdotsize/R/6_Ratio_250_L_6_R_24.png","img/250/randomdotsizeEA/L/2_Ratio_250_L_16_R_4.png","img/750/equaldotsize/R/3_Ratio_750_L_15_R_20.png","img/750/randomdotsize/R/12_Ratio_750_L_3_R_4.png","img/750/randomdotsize/R/11_Ratio_750_L_12_R_16.png","img/900/randomdotsize/L/8_Ratio_900_L_20_R_18.png","img/250/equaldotanddens/R/13_Ratio_250_L_2_R_8.png","img/750/equaldotanddens/R/3_Ratio_750_L_15_R_20.png","img/900/equaldotsize/R/11_Ratio_900_L_18_R_20.png","img/500/equaldotanddens/R/1_Ratio_500_L_9_R_18.png","img/250/equaldotsize/R/4_Ratio_250_L_3_R_12.png","img/500/randomdotsize/L/5_Ratio_500_L_4_R_2.png","img/250/randomdotsize/L/1_Ratio_250_L_8_R_2.png","img/750/equaldotanddens/L/13_Ratio_750_L_8_R_6.png","img/250/randomdotsize/R/12_Ratio_250_L_5_R_20.png","img/750/randomdotsizeEA/R/12_Ratio_750_L_3_R_4.png","img/900/equaldotanddens/R/9_Ratio_900_L_18_R_20.png","img/250/equaldotanddens/L/15_Ratio_250_L_12_R_3.png","img/500/randomdotsizeEA/L/5_Ratio_500_L_4_R_2.png","img/250/randomdotsize/L/3_Ratio_250_L_8_R_2.png","img/900/randomdotsize/L/1_Ratio_900_L_10_R_9.png","img/500/equaldotanddens/R/9_Ratio_500_L_2_R_4.png","img/750/equaldotsize/R/2_Ratio_750_L_6_R_8.png","img/500/randomdotsize/L/8_Ratio_500_L_8_R_4.png","img/900/equaldotanddens/R/11_Ratio_900_L_18_R_20.png","img/500/randomdotsizeEA/R/2_Ratio_500_L_3_R_6.png","img/250/randomdotsize/R/6_Ratio_250_L_6_R_24.png","img/500/randomdotsizeEA/L/5_Ratio_500_L_4_R_2.png","img/250/randomdotsizeEA/R/11_Ratio_250_L_3_R_12.png","img/250/equaldotanddens/L/5_Ratio_250_L_24_R_6.png","img/250/randomdotsizeEA/L/5_Ratio_250_L_24_R_6.png","img/750/equaldotanddens/L/13_Ratio_750_L_8_R_6.png","img/500/randomdotsize/R/12_Ratio_500_L_1_R_2.png","img/750/randomdotsizeEA/L/1_Ratio_750_L_20_R_15.png","img/250/randomdotsizeEA/R/6_Ratio_250_L_6_R_24.png","img/750/equaldotsize/R/2_Ratio_750_L_6_R_8.png","img/900/equaldotsize/L/8_Ratio_900_L_20_R_18.png","img/900/randomdotsizeEA/R/9_Ratio_900_L_18_R_20.png","img/900/randomdotsize/L/2_Ratio_900_L_20_R_18.png","img/750/equaldotanddens/L/8_Ratio_750_L_4_R_3.png","img/750/equaldotanddens/L/13_Ratio_750_L_8_R_6.png","img/900/equaldotanddens/L/2_Ratio_900_L_20_R_18.png","img/250/equaldotanddens/R/4_Ratio_250_L_3_R_12.png","img/250/equaldotanddens/L/5_Ratio_250_L_24_R_6.png","img/750/equaldotsize/L/6_Ratio_750_L_24_R_18.png","img/900/randomdotsize/R/12_Ratio_900_L_18_R_20.png","img/500/equaldotsize/L/13_Ratio_500_L_12_R_6.png","img/750/randomdotsizeEA/R/2_Ratio_750_L_6_R_8.png","img/500/equaldotanddens/L/4_Ratio_500_L_18_R_9.png","img/750/randomdotsizeEA/L/10_Ratio_750_L_4_R_3.png","img/500/randomdotsize/L/7_Ratio_500_L_10_R_5.png","img/500/equaldotanddens/L/7_Ratio_500_L_10_R_5.png","img/250/randomdotsizeEA/R/4_Ratio_250_L_3_R_12.png","img/500/randomdotsizeEA/L/13_Ratio_500_L_12_R_6.png","img/500/randomdotsizeEA/R/15_Ratio_500_L_1_R_2.png","img/250/randomdotsizeEA/R/13_Ratio_250_L_2_R_8.png","img/500/equaldotsize/R/6_Ratio_500_L_9_R_18.png","img/500/equaldotsize/R/3_Ratio_500_L_10_R_20.png","img/900/randomdotsize/R/7_Ratio_900_L_9_R_10.png","img/250/randomdotsize/R/6_Ratio_250_L_6_R_24.png","img/250/equaldotsize/R/10_Ratio_250_L_4_R_16.png","img/750/randomdotsizeEA/R/15_Ratio_750_L_9_R_12.png","img/500/randomdotsizeEA/L/7_Ratio_500_L_10_R_5.png","img/900/randomdotsize/R/7_Ratio_900_L_9_R_10.png","img/500/randomdotsize/L/10_Ratio_500_L_4_R_2.png","img/250/equaldotanddens/R/12_Ratio_250_L_5_R_20.png","img/900/randomdotsizeEA/R/6_Ratio_900_L_9_R_10.png","img/750/equaldotanddens/R/3_Ratio_750_L_15_R_20.png","img/900/equaldotsize/R/13_Ratio_900_L_18_R_20.png","img/750/randomdotsizeEA/R/2_Ratio_750_L_6_R_8.png","img/250/randomdotsize/R/9_Ratio_250_L_3_R_12.png","img/750/randomdotsizeEA/L/1_Ratio_750_L_20_R_15.png","img/900/equaldotsize/R/6_Ratio_900_L_9_R_10.png","img/750/randomdotsizeEA/L/6_Ratio_750_L_24_R_18.png","img/900/randomdotsizeEA/R/7_Ratio_900_L_9_R_10.png","img/900/equaldotanddens/L/2_Ratio_900_L_20_R_18.png","img/750/randomdotsize/R/11_Ratio_750_L_12_R_16.png","img/500/equaldotsize/R/15_Ratio_500_L_1_R_2.png","img/750/equaldotsize/L/14_Ratio_750_L_8_R_6.png","img/500/randomdotsize/L/13_Ratio_500_L_12_R_6.png","img/250/randomdotsizeEA/L/2_Ratio_250_L_16_R_4.png","img/900/equaldotanddens/L/2_Ratio_900_L_20_R_18.png","img/250/equaldotsize/R/11_Ratio_250_L_3_R_12.png"],"Rat0":[["12_Ratio_0_L_9_R_0.png","13_Ratio_0_L_6_R_0.png","5_Ratio_0_L_2_R_0.png","6_Ratio_0_L_4_R_0.png","8_Ratio_0_L_6_R_0.png"],["1_Ratio_0_L_0_R_17.png","10_Ratio_0_L_0_R_22.png","11_Ratio_0_L_0_R_1.png","14_Ratio_0_L_0_R_24.png","15_Ratio_0_L_0_R_4.png","2_Ratio_0_L_0_R_5.png","3_Ratio_0_L_0_R_17.png","4_Ratio_0_L_0_R_7.png","7_Ratio_0_L_0_R_19.png","9_Ratio_0_L_0_R_15.png"]],"Rat250":[["1_Ratio_250_L_8_R_2.png","14_Ratio_250_L_12_R_3.png","15_Ratio_250_L_12_R_3.png","2_Ratio_250_L_16_R_4.png","3_Ratio_250_L_8_R_2.png","5_Ratio_250_L_24_R_6.png","7_Ratio_250_L_8_R_2.png"],["10_Ratio_250_L_4_R_16.png","11_Ratio_250_L_3_R_12.png","12_Ratio_250_L_5_R_20.png","13_Ratio_250_L_2_R_8.png","4_Ratio_250_L_3_R_12.png","6_Ratio_250_L_6_R_24.png","8_Ratio_250_L_1_R_4.png","9_Ratio_250_L_3_R_12.png"]],"Rat500":[["10_Ratio_500_L_4_R_2.png","11_Ratio_500_L_12_R_6.png","13_Ratio_500_L_12_R_6.png","4_Ratio_500_L_18_R_9.png","5_Ratio_500_L_4_R_2.png","7_Ratio_500_L_10_R_5.png","8_Ratio_500_L_8_R_4.png"],["1_Ratio_500_L_9_R_18.png","12_Ratio_500_L_1_R_2.png","14_Ratio_500_L_5_R_10.png","15_Ratio_500_L_1_R_2.png","2_Ratio_500_L_3_R_6.png","3_Ratio_500_L_10_R_20.png","6_Ratio_500_L_9_R_18.png","9_Ratio_500_L_2_R_4.png"]],"Rat750":[["1_Ratio_750_L_20_R_15.png","10_Ratio_750_L_4_R_3.png","13_Ratio_750_L_8_R_6.png","14_Ratio_750_L_8_R_6.png","6_Ratio_750_L_24_R_18.png","8_Ratio_750_L_4_R_3.png","9_Ratio_750_L_4_R_3.png"],["11_Ratio_750_L_12_R_16.png","12_Ratio_750_L_3_R_4.png","15_Ratio_750_L_9_R_12.png","2_Ratio_750_L_6_R_8.png","3_Ratio_750_L_15_R_20.png","4_Ratio_750_L_15_R_20.png","5_Ratio_750_L_15_R_20.png","7_Ratio_750_L_3_R_4.png"]],"Rat900":[["1_Ratio_900_L_10_R_9.png","10_Ratio_900_L_20_R_18.png","2_Ratio_900_L_20_R_18.png","4_Ratio_900_L_20_R_18.png","8_Ratio_900_L_20_R_18.png"],["11_Ratio_900_L_18_R_20.png","12_Ratio_900_L_18_R_20.png","13_Ratio_900_L_18_R_20.png","14_Ratio_900_L_18_R_20.png","15_Ratio_900_L_9_R_10.png","3_Ratio_900_L_9_R_10.png","5_Ratio_900_L_9_R_10.png","6_Ratio_900_L_9_R_10.png","7_Ratio_900_L_9_R_10.png","9_Ratio_900_L_18_R_20.png"]],"Rat1000":[["10_Ratio_1000_L_16_R_16.png","11_Ratio_1000_L_6_R_6.png","12_Ratio_1000_L_14_R_14.png","13_Ratio_1000_L_20_R_20.png","15_Ratio_1000_L_15_R_15.png","2_Ratio_1000_L_17_R_17.png","4_Ratio_1000_L_9_R_9.png","5_Ratio_1000_L_6_R_6.png","6_Ratio_1000_L_19_R_19.png","8_Ratio_1000_L_14_R_14.png","9_Ratio_1000_L_25_R_25.png"],["1_Ratio_1000_L_1_R_1.png","14_Ratio_1000_L_17_R_17.png","3_Ratio_1000_L_17_R_17.png","7_Ratio_1000_L_6_R_6.png"]]}},{"start_time":1549382302903,"click_time":1549382304722,"finger_time":1549382304484,"fix_duration":1179.170837035704,"trial":1,"RT":1581,"MT":238,"sideResp":1,"stimulus":"img/900/equaldotanddens/L/2_Ratio_900_L_20_R_18.png","xmouse":[394.0000305175781,394.0000305175781,394.0000305175781,393.3333435058594,393.3333435058594,393.3333435058594,393.3333435058594,393.3333435058594,393.3333435058594,393.3333435058594,393.3333435058594,393.3333435058594,393.3333435058594,394.0000305175781,394.0000305175781,394.0000305175781,394.0000305175781,394.0000305175781,394.0000305175781,394.0000305175781,394.0000305175781,394.0000305175781,394.0000305175781,394.66668701171875,394.66668701171875,394.66668701171875,394.66668701171875,394.66668701171875,394.66668701171875,394.66668701171875,394.66668701171875,394.66668701171875,394.66668701171875,394.0000305175781,394.0000305175781,394.0000305175781,394.0000305175781,394.0000305175781,394.0000305175781,394.0000305175781,394.0000305175781,394.0000305175781,394.0000305175781,394.66668701171875,394.66668701171875,394.66668701171875,394.66668701171875,394.66668701171875,394.66668701171875,394.66668701171875,394.66668701171875,394.66668701171875,394.66668701171875,394.0000305175781,394.0000305175781,394.0000305175781,394.0000305175781,394.0000305175781,394.0000305175781,394.0000305175781,394.0000305175781,394.0000305175781,394.0000305175781,394.0000305175781,394.0000305175781,394.0000305175781,394.0000305175781,394.0000305175781,393.3333435058594,393.3333435058594,393.3333435058594,393.3333435058594,393.3333435058594,393.3333435058594,393.3333435058594,382.66668701171875,381.3333435058594,380.0000305175781,378.66668701171875,354.0000305175781,342.66668701171875,320.0000305175781,307.3333435058594,283.3333435058594,248,224,214,191.3333282470703,166.6666717529297,140.6666717529297,127.33333587646484,119.33333587646484],"ymouse":[826.6666870117188,826.6666870117188,826.6666870117188,826.6666870117188,826.6666870117188,826.6666870117188,826.6666870117188,826.6666870117188,826.6666870117188,826.6666870117188,826.6666870117188,826.6666870117188,826.6666870117188,826,826,826,826,826,826,826,826,826,826,826,826,826,826,826,826,826,826,826,826,826.6666870117188,826.6666870117188,826.6666870117188,826.6666870117188,826.6666870117188,826.6666870117188,826.6666870117188,826.6666870117188,826.6666870117188,826.6666870117188,824.6666870117188,824.6666870117188,824.6666870117188,824.6666870117188,824.6666870117188,824.6666870117188,824.6666870117188,824.6666870117188,824.6666870117188,824.6666870117188,823.3333129882812,823.3333129882812,823.3333129882812,823.3333129882812,823.3333129882812,823.3333129882812,823.3333129882812,823.3333129882812,823.3333129882812,823.3333129882812,823.3333129882812,823.3333129882812,823.3333129882812,823.3333129882812,823.3333129882812,822.6666870117188,822.6666870117188,822.6666870117188,822.6666870117188,822.6666870117188,822.6666870117188,822.6666870117188,806.6666870117188,804,800,797.3333740234375,729.3333740234375,704,658,633.3333740234375,575.3333740234375,472.66668701171875,402,372.66668701171875,306.66668701171875,240.66668701171875,158,114,93.33333587646484],"timestamp_mouse":[2,28,39,59,80,99,119,139,160,179,199,219,239,259,279,299,319,340,359,380,399,419,439,459,479,499,519,539,559,579,600,619,639,659,679,699,719,739,760,779,799,819,839,859,879,899,919,939,959,979,999,1019,1039,1059,1079,1099,1120,1139,1159,1179,1200,1219,1239,1259,1280,1301,1320,1339,1359,1379,1399,1419,1439,1459,1479,1499,1519,1539,1559,1581,1599,1620,1639,1660,1680,1699,1719,1739,1759,1782,1799,1819],"xSR":350,"ySR":768,"xT1":30,"yT1":0,"xT2":670,"yT2":0,"toosoon":0,"cond_shown":"equaldotanddens","ratio_trial":900,"smaller_num":"18","larger_num":"20","correct_side":1,"subjID":"49wm","gender":"No_gender","age":"No_age","school":"No_school"},{"start_time":1549382306986,"click_time":1549382308503,"finger_time":1549382307903,"fix_duration":501.10624434895936,"trial":2,"RT":917,"MT":600,"sideResp":2,"stimulus":"img/750/randomdotsize/R/2_Ratio_750_L_6_R_8.png","xmouse":[391,391,391,391,391,391,391,391,391,391,391,391,391,391,391,391,391,391,391,391,391,391,391,391,391,391,391,391,391,391,391,391,391,391,391,391,391,391,391,391,391,391,400.66668701171875,409.3333435058594,409.3333435058594,467.3333435058594,507.3333435058594,552,577.3333740234375,631.3333740234375,706.6666870117188,706.6666870117188,773.3333740234375,792,799.3333740234375,799.3333740234375,799.3333740234375,799.3333740234375,799.3333740234375,799.3333740234375,798.6666870117188,797.3333740234375,797.3333740234375,797.3333740234375,797.3333740234375,797.3333740234375,786.6666870117188,786.6666870117188,786.6666870117188,786.6666870117188,786.6666870117188,783.3333740234375,781.3333740234375,780.6666870117188,776.6666870117188,767.3333740234375],"ymouse":[820,820,820,820,820,820,820,820,820,820,820,820,820,820,820,820,820,820,820,820,820,820,820,820,820,820,820,820,820,820,820,820,820,820,820,820,820,820,820,820,820,820,808,787.3333740234375,787.3333740234375,651.3333740234375,570,481.3333435058594,435.3333435058594,334.66668701171875,204.6666717529297,204.6666717529297,121.33334350585938,93.33333587646484,74.66667175292969,65.33333587646484,62.66667175292969,62,61.333335876464844,61.333335876464844,62,62.66666793823242,62.66666793823242,62.66666793823242,62.66666793823242,62.66666793823242,67.33333587646484,67.33333587646484,67.33333587646484,67.33333587646484,67.33333587646484,61.333335876464844,58.66667175292969,57.333335876464844,53.333335876464844,44.66666793823242],"timestamp_mouse":[25,46,56,76,96,116,136,156,176,197,216,236,256,276,296,316,337,357,376,396,416,436,456,476,496,516,536,556,576,596,617,637,656,676,696,716,736,756,776,796,816,836,858,876,896,917,937,957,976,996,1018,1036,1056,1076,1096,1117,1136,1156,1176,1196,1216,1237,1256,1276,1297,1317,1341,1356,1376,1397,1416,1436,1456,1476,1496,1516],"xSR":350,"ySR":768,"xT1":30,"yT1":0,"xT2":670,"yT2":0,"toosoon":0,"cond_shown":"randomdotsize","ratio_trial":750,"smaller_num":"6","larger_num":"8","correct_side":2,"subjID":"49wm","gender":"No_gender","age":"No_age","school":"No_school"},{"start_time":1549382311514,"click_time":1549382312482,"finger_time":1549382312262,"fix_duration":1450.0076331667028,"trial":3,"RT":748,"MT":220,"sideResp":2,"stimulus":"img/500/equaldotsize/R/9_Ratio_500_L_2_R_4.png","xmouse":[402,402,402,402,402,402,402,402,402,402,402,402,402,402,402,402,402,402,402,402,402,402,402,402,402,402,402,402,402,402,402,402,402,402,398,399.3333435058594,403.3333435058594,406,408,412.66668701171875,422,441.3333435058594,452.66668701171875,476,511.3333435058594,531.3333740234375,633.3333740234375,654,692],"ymouse":[824,824,824,824,824,824,824,824,824,824,824,824,824,824,824,824,824,824,824,824,824,824,824,824,824,824,824,824,824,824,824,824,824,824,816.6666870117188,809.3333740234375,788.6666870117188,766.6666870117188,754.6666870117188,728,689.3333740234375,614.6666870117188,585.3333740234375,516,426,374,170,137.33334350585938,78],"timestamp_mouse":[26,29,49,69,88,109,128,148,168,188,208,228,249,268,288,309,329,348,368,388,408,428,448,468,488,508,528,548,568,588,608,628,648,669,688,709,728,748,768,788,808,828,848,868,888,908,929,948,968],"xSR":350,"ySR":768,"xT1":30,"yT1":0,"xT2":670,"yT2":0,"toosoon":0,"cond_shown":"equaldotsize","ratio_trial":500,"smaller_num":"2","larger_num":"4","correct_side":2,"subjID":"49wm","gender":"No_gender","age":"No_age","school":"No_school"},{"start_time":1549382314575,"click_time":1549382315842,"finger_time":1549382315642,"fix_duration":1151.335251435766,"trial":4,"RT":1067,"MT":200,"sideResp":1,"stimulus":"img/900/randomdotsize/R/7_Ratio_900_L_9_R_10.png","xmouse":[399.3333435058594,399.3333435058594,399.3333435058594,399.3333435058594,400,400,400,400,400,400,400,400,400,400,399.3333435058594,399.3333435058594,399.3333435058594,399.3333435058594,399.3333435058594,399.3333435058594,399.3333435058594,399.3333435058594,399.3333435058594,399.3333435058594,399.3333435058594,399.3333435058594,399.3333435058594,399.3333435058594,399.3333435058594,399.3333435058594,399.3333435058594,399.3333435058594,399.3333435058594,399.3333435058594,399.3333435058594,399.3333435058594,399.3333435058594,399.3333435058594,399.3333435058594,399.3333435058594,399.3333435058594,399.3333435058594,399.3333435058594,399.3333435058594,398.66668701171875,398.66668701171875,398.66668701171875,398.66668701171875,398.66668701171875,398.66668701171875,398.66668701171875,398.66668701171875,381.3333435058594,370,348,330,316.66668701171875,290.66668701171875,278,238,206.6666717529297,172,153.33334350585938,120],"ymouse":[814.6666870117188,814.6666870117188,814.6666870117188,814.6666870117188,814.6666870117188,814.6666870117188,814.6666870117188,814.6666870117188,814.6666870117188,814.6666870117188,814.6666870117188,814.6666870117188,814.6666870117188,814.6666870117188,814.6666870117188,814.6666870117188,814.6666870117188,814.6666870117188,814.6666870117188,814.6666870117188,814.6666870117188,814.6666870117188,814.6666870117188,814.6666870117188,814.6666870117188,814.6666870117188,814.6666870117188,814.6666870117188,814.6666870117188,814.6666870117188,814.6666870117188,814.6666870117188,814.6666870117188,814.6666870117188,815.3333740234375,815.3333740234375,815.3333740234375,815.3333740234375,815.3333740234375,815.3333740234375,815.3333740234375,815.3333740234375,815.3333740234375,815.3333740234375,814.6666870117188,814.6666870117188,814.6666870117188,814.6666870117188,814.6666870117188,814.6666870117188,814.6666870117188,814.6666870117188,768.6666870117188,711.3333740234375,615.3333740234375,552.6666870117188,516,438,400,288.66668701171875,218,155.33334350585938,125.33334350585938,72.66667175292969],"timestamp_mouse":[9,34,47,68,87,107,127,147,167,187,207,227,247,268,288,307,328,347,367,388,407,427,447,467,487,507,527,556,567,587,607,628,648,667,688,707,727,747,768,787,807,827,847,867,888,907,928,947,967,987,1007,1027,1047,1067,1088,1108,1127,1147,1167,1187,1207,1227,1248,1267],"xSR":350,"ySR":768,"xT1":30,"yT1":0,"xT2":670,"yT2":0,"toosoon":0,"cond_shown":"randomdotsize","ratio_trial":900,"smaller_num":"9","larger_num":"10","correct_side":2,"subjID":"49wm","gender":"No_gender","age":"No_age","school":"No_school"},{"start_time":1549382317194,"click_time":1549382318583,"finger_time":1549382317902,"fix_duration":250,"trial":5,"RT":708,"MT":681,"sideResp":2,"stimulus":"img/500/randomdotsizeEA/L/11_Ratio_500_L_12_R_6.png","xmouse":[412,412,412,412,412,412,411.3333435058594,411.3333435058594,411.3333435058594,411.3333435058594,411.3333435058594,411.3333435058594,411.3333435058594,410.66668701171875,410.66668701171875,410.66668701171875,410.66668701171875,410.66668701171875,410,410,410,410,410,410,410,410,410,410,410,410,410,410,410,418,418,496,550.6666870117188,580.6666870117188,639.3333740234375,720.6666870117188,766,779.3333740234375,798,799.3333740234375,799.3333740234375,799.3333740234375,799.3333740234375,799.3333740234375,799.3333740234375,799.3333740234375,799.3333740234375,799.3333740234375,799.3333740234375,799.3333740234375,799.3333740234375,799.3333740234375,799.3333740234375,799.3333740234375,799.3333740234375,799.3333740234375,799.3333740234375,799.3333740234375,799.3333740234375,799.3333740234375,799.3333740234375,799.3333740234375,674.6666870117188,678.6666870117188,684,716],"ymouse":[802.6666870117188,802.6666870117188,802.6666870117188,802.6666870117188,802.6666870117188,802.6666870117188,803.3333740234375,803.3333740234375,803.3333740234375,803.3333740234375,803.3333740234375,803.3333740234375,803.3333740234375,804,804,804.6666870117188,804.6666870117188,804.6666870117188,804.6666870117188,804,804,804,804,803.3333740234375,803.3333740234375,803.3333740234375,803.3333740234375,803.3333740234375,803.3333740234375,803.3333740234375,803.3333740234375,803.3333740234375,803.3333740234375,796.6666870117188,796.6666870117188,608.6666870117188,487.3333435058594,432,322.66668701171875,181.33334350585938,108.66667175292969,80,20.666667938232422,11.333333969116211,11.333333969116211,11.333333969116211,11.333333969116211,11.333333969116211,11.333333969116211,11.333333969116211,11.333333969116211,11.333333969116211,11.333333969116211,11.333333969116211,11.333333969116211,11.333333969116211,11.333333969116211,11.333333969116211,11.333333969116211,11.333333969116211,11.333333969116211,11.333333969116211,11.333333969116211,11.333333969116211,11.333333969116211,11.333333969116211,122.66667175292969,115.33334350585938,104.66667175292969,42],"timestamp_mouse":[9,33,48,68,88,108,129,148,168,188,208,228,248,268,288,308,328,348,368,388,408,428,448,468,489,509,528,549,568,588,608,629,648,668,688,708,728,748,768,788,808,828,848,868,888,908,929,948,968,988,1008,1028,1048,1068,1088,1108,1128,1148,1169,1188,1208,1228,1248,1268,1288,1308,1328,1348,1368,1388],"xSR":350,"ySR":768,"xT1":30,"yT1":0,"xT2":670,"yT2":0,"toosoon":0,"cond_shown":"randomdotsizeEA","ratio_trial":500,"smaller_num":"6","larger_num":"12","correct_side":1,"subjID":"49wm","gender":"No_gender","age":"No_age","school":"No_school"},{"start_time":1549382320991,"click_time":1549382322142,"finger_time":1549382321904,"fix_duration":927.8280121303657,"trial":6,"RT":913,"MT":238,"sideResp":1,"stimulus":"img/500/equaldotsize/L/7_Ratio_500_L_10_R_5.png","xmouse":[399.3333435058594,399.3333435058594,399.3333435058594,399.3333435058594,399.3333435058594,399.3333435058594,399.3333435058594,399.3333435058594,400,400,400,400,400,400,400,400,400,400,400,400,400,400,400,400,400,400,400,400,400.66668701171875,400.66668701171875,400.66668701171875,400.66668701171875,400.66668701171875,400.66668701171875,400.66668701171875,400.66668701171875,400.66668701171875,400.66668701171875,400,400,400,396.66668701171875,395.3333435058594,394,391.3333435058594,374.66668701171875,345.3333435058594,330.66668701171875,302,288,226.6666717529297,210.6666717529297,182,169.33334350585938,141.33334350585938,102.66667175292969,82.66667175292969,71.33333587646484],"ymouse":[819.3333740234375,819.3333740234375,819.3333740234375,819.3333740234375,819.3333129882812,819.3333129882812,819.3333129882812,819.3333129882812,819.3333129882812,819.3333129882812,819.3333129882812,819.3333129882812,819.3333129882812,819.3333129882812,819.3333129882812,819.3333129882812,819.3333129882812,819.3333129882812,820,820,820,820,820,820,820,820,820,820,820.6666870117188,820.6666870117188,820.6666870117188,820.6666870117188,820.6666870117188,820.6666870117188,820.6666870117188,820.6666870117188,820.6666870117188,820.6666870117188,820,820,820,813.3333740234375,812,808,802.6666870117188,766,704.6666870117188,674,618,590.6666870117188,463.3333435058594,426.66668701171875,354.66668701171875,326,266,176.6666717529297,126.66667175292969,87.33333587646484],"timestamp_mouse":[27,31,51,71,91,112,131,151,172,191,211,231,251,271,291,311,331,351,371,391,411,431,451,471,491,511,531,552,571,591,611,631,651,671,692,711,731,751,771,791,811,831,851,871,891,913,931,952,971,992,1013,1031,1051,1071,1091,1113,1131,1151],"xSR":350,"ySR":768,"xT1":30,"yT1":0,"xT2":670,"yT2":0,"toosoon":0,"cond_shown":"equaldotsize","ratio_trial":500,"smaller_num":"5","larger_num":"10","correct_side":1,"subjID":"49wm","gender":"No_gender","age":"No_age","school":"No_school"},{"start_time":1549382323915,"click_time":1549382325182,"finger_time":1549382324982,"fix_duration":1132.3198095540583,"trial":7,"RT":1067,"MT":200,"sideResp":2,"stimulus":"img/250/equaldotsize/R/8_Ratio_250_L_1_R_4.png","xmouse":[421.3333435058594,421.3333435058594,421.3333435058594,421.3333435058594,421.3333435058594,421.3333435058594,421.3333435058594,421.3333435058594,422,422,422,422,422,422,422,422,422,422,421.3333435058594,421.3333435058594,421.3333435058594,421.3333435058594,421.3333435058594,421.3333435058594,421.3333435058594,421.3333435058594,421.3333435058594,421.3333435058594,421.3333435058594,421.3333435058594,421.3333435058594,421.3333435058594,421.3333435058594,421.3333435058594,421.3333435058594,421.3333435058594,421.3333435058594,421.3333435058594,421.3333435058594,421.3333435058594,421.3333435058594,420,420,420,420,420,420,420,420,420,420,421.3333435058594,422.66668701171875,424.66668701171875,431.3333435058594,462,490.66668701171875,506,538.6666870117188,558,622,640.6666870117188,668.6666870117188,692.6666870117188],"ymouse":[826.6666870117188,826.6666870117188,826.6666870117188,826.6666870117188,826.6666870117188,826.6666870117188,826.6666870117188,826.6666870117188,826.6666870117188,826.6666870117188,826.6666870117188,826.6666870117188,826.6666870117188,826.6666870117188,826.6666870117188,826.6666870117188,826.6666870117188,826.6666870117188,826.6666870117188,826.6666870117188,826.6666870117188,826.6666870117188,826.6666870117188,826.6666870117188,826.6666870117188,826.6666870117188,826.6666870117188,826.6666870117188,826.6666870117188,826.6666870117188,826,826,826,826,826,826,826,826,826,826,826,816,816,816,816,816,816,816,816,816,816,802,788,744.6666870117188,694.6666870117188,602,520,474.66668701171875,378.66668701171875,332,180,152.6666717529297,102,62],"timestamp_mouse":[12,42,47,67,87,107,127,147,167,187,208,227,248,267,287,307,327,347,367,387,407,427,447,467,487,507,527,547,568,588,609,627,647,667,687,707,727,747,767,787,807,827,847,867,887,908,927,947,968,987,1007,1027,1047,1067,1087,1109,1127,1147,1167,1187,1209,1227,1248,1267],"xSR":350,"ySR":768,"xT1":30,"yT1":0,"xT2":670,"yT2":0,"toosoon":0,"cond_shown":"equaldotsize","ratio_trial":250,"smaller_num":"1","larger_num":"4","correct_side":2,"subjID":"49wm","gender":"No_gender","age":"No_age","school":"No_school"},{"start_time":1549382327835,"click_time":1549382329264,"finger_time":1549382329062,"fix_duration":1371.344037416892,"trial":8,"RT":1227,"MT":202,"sideResp":1,"stimulus":"img/750/equaldotanddens/L/6_Ratio_750_L_24_R_18.png","xmouse":[388,388,388,388,388,388,388,388,388,388,388,388,388,388,388,388,388,388,388,388,388,388,388,388,388,388,388,388,388,388,388,388,388,388,388,388,388,388,388,388,388,388,388,388,388,388,388,388,388,388,388,388,388,388,388,388,381.3333435058594,380.66668701171875,376,376,328.66668701171875,319.3333435058594,301.3333435058594,276.66668701171875,265.3333435058594,226.6666717529297,200.6666717529297,174,159.33334350585938,129.33334350585938,92],"ymouse":[830,830,830,830,830,830,830,830,830,830,830,830,830,830,830,830,830,830,830,830,830,830,830,830,830,830,830,830,830,830,830,830,830,830,830,830,830,830,830,830,830,830,830,830,830,830,830,830,830,830,830,830,830,830,830,830,827.3333740234375,825.3333740234375,809.3333740234375,809.3333740234375,662,629.3333740234375,558,474.66668701171875,430,306.66668701171875,237.33334350585938,180.6666717529297,156.6666717529297,115.33334350585938,69.33333587646484],"timestamp_mouse":[41,47,67,88,107,127,147,167,187,207,227,248,267,287,307,327,347,367,387,407,427,447,467,487,507,527,547,567,587,607,627,647,667,687,707,727,747,767,787,807,827,847,867,887,908,927,947,967,987,1007,1027,1047,1068,1087,1107,1127,1147,1167,1187,1207,1227,1247,1267,1287,1307,1328,1347,1368,1387,1407,1429],"xSR":350,"ySR":768,"xT1":30,"yT1":0,"xT2":670,"yT2":0,"toosoon":0,"cond_shown":"equaldotanddens","ratio_trial":750,"smaller_num":"18","larger_num":"24","correct_side":1,"subjID":"49wm","gender":"No_gender","age":"No_age","school":"No_school"},{"start_time":1549382331627,"click_time":1549382332523,"finger_time":1549382332362,"fix_duration":962.7409387503519,"trial":9,"RT":735,"MT":161,"sideResp":2,"stimulus":"img/900/equaldotsize/R/14_Ratio_900_L_18_R_20.png","xmouse":[398,398,398,398,398,398,398,398,398,398,398,398.66668701171875,398.66668701171875,398.66668701171875,398.66668701171875,399.3333435058594,399.3333435058594,399.3333435058594,399.3333435058594,399.3333435058594,399.3333435058594,399.3333435058594,399.3333435058594,399.3333435058594,399.3333435058594,399.3333435058594,399.3333435058594,398.66668701171875,398.66668701171875,398.66668701171875,398.66668701171875,398.66668701171875,398.66668701171875,398.66668701171875,398.66668701171875,398.66668701171875,434.66668701171875,475.3333435058594,503.3333435058594,522,556.6666870117188,594,654,690.6666870117188,708],"ymouse":[814,814,814,814,814,814,814,814,814,814,814,822.6666870117188,822.6666870117188,822.6666870117188,822.6666870117188,822.6666870117188,822.6666870117188,822.6666870117188,822.6666870117188,822.6666870117188,822.6666870117188,822.6666870117188,822.6666870117188,822.6666870117188,822.6666870117188,822.6666870117188,822.6666870117188,822,821.3333740234375,821.3333740234375,821.3333740234375,821.3333740234375,821.3333740234375,821.3333740234375,821.3333740234375,821.3333740234375,695.3333740234375,583.3333740234375,495.3333435058594,452.66668701171875,365.3333435058594,280.66668701171875,172,111.33333587646484,80.66667175292969],"timestamp_mouse":[15,35,55,75,95,115,135,155,175,195,215,237,255,275,296,316,335,356,375,395,416,442,455,475,495,516,535,555,576,595,615,635,655,675,695,715,735,755,775,796,815,835,855,876,895],"xSR":350,"ySR":768,"xT1":30,"yT1":0,"xT2":670,"yT2":0,"toosoon":0,"cond_shown":"equaldotsize","ratio_trial":900,"smaller_num":"18","larger_num":"20","correct_side":2,"subjID":"49wm","gender":"No_gender","age":"No_age","school":"No_school"},{"start_time":1549382334035,"click_time":1549382335263,"finger_time":1549382335023,"fix_duration":630.9321191489004,"trial":10,"RT":988,"MT":240,"sideResp":1,"stimulus":"img/500/randomdotsize/L/7_Ratio_500_L_10_R_5.png","xmouse":[402,402,402,402,402,402,402,402,402,402,402.6666564941406,402.6666564941406,402.6666564941406,402.6666564941406,402.6666564941406,402.6666564941406,402.6666564941406,402.6666564941406,402.6666564941406,402.6666564941406,402,402,402,402,402,402,402,402,401.3333435058594,401.3333435058594,400.66668701171875,400,400,400,400,400,400,400,400,400,400,400,400,400,400,400,400,400,400,371.3333435058594,345.3333435058594,335.3333435058594,314,271.3333435058594,243.33334350585938,229.33334350585938,206,192.6666717529297,134.6666717529297,122,96,78],"ymouse":[816.0000610351562,816.0000610351562,816.0000610351562,816.0000610351562,816.0000610351562,816.0000610351562,816.0000610351562,816.0000610351562,816.0000610351562,816.0000610351562,816.6666870117188,816.6666870117188,816.6666870117188,816.6666870117188,816.6666870117188,816.6666870117188,816.6666870117188,816.6666870117188,816.6666870117188,816.6666870117188,816.6666870117188,816.6666870117188,816.6666870117188,816.6666870117188,816.6666870117188,816.6666870117188,816.6666870117188,816.6666870117188,816.0000610351562,816.0000610351562,816.0000610351562,816.0000610351562,815.3333740234375,815.3333740234375,815.3333740234375,815.3333740234375,815.3333740234375,815.3333740234375,815.3333740234375,815.3333740234375,816.0000610351562,816.0000610351562,816.0000610351562,816.0000610351562,816.0000610351562,816.0000610351562,816.0000610351562,816.0000610351562,816.0000610351562,749.3333740234375,685.3333740234375,651.3333740234375,582,472,402.66668701171875,364.66668701171875,295.3333435058594,260,153.33334350585938,135.33334350585938,102,75.33333587646484],"timestamp_mouse":[11,29,48,67,87,107,127,147,167,187,207,227,247,267,287,308,327,347,367,387,408,427,447,467,487,507,527,547,570,587,607,627,648,667,687,707,727,747,767,787,807,828,847,867,887,907,927,947,968,988,1007,1027,1047,1067,1088,1108,1127,1148,1167,1188,1207,1227],"xSR":350,"ySR":768,"xT1":30,"yT1":0,"xT2":670,"yT2":0,"toosoon":0,"cond_shown":"randomdotsize","ratio_trial":500,"smaller_num":"5","larger_num":"10","correct_side":1,"subjID":"49wm","gender":"No_gender","age":"No_age","school":"No_school"},{"start_time":1549382337607,"click_time":1549382338703,"finger_time":1549382338482,"fix_duration":1483.3549615896777,"trial":11,"RT":875,"MT":221,"sideResp":2,"stimulus":"img/500/randomdotsizeEA/R/9_Ratio_500_L_2_R_4.png","xmouse":[403.3333435058594,404,404,404,404,404,404,404,404,404,404,404,404,404,404,404,404,404,404,404,404,404,404,404,404,404,404,404,404,404,404,404,404,404,404,404,404,404,404.66668701171875,404.66668701171875,404.66668701171875,404.66668701171875,404.66668701171875,432,441.3333435058594,493.3333435058594,493.3333435058594,511.3333435058594,626.6666870117188,626.6666870117188,657.3333740234375,666.6666870117188,684,691.3333740234375,696],"ymouse":[830.6666870117188,830.6666870117188,830.6666870117188,830.6666870117188,830.6666870117188,830.6666870117188,830.6666870117188,830.6666870117188,830.6666870117188,830.6666870117188,830.6666870117188,830.6666870117188,830.6666870117188,830.6666870117188,830.6666870117188,830.6666870117188,830.6666870117188,830.6666870117188,830.6666870117188,830.6666870117188,830.6666870117188,830.6666870117188,830.6666870117188,830.6666870117188,830.6666870117188,830.6666870117188,830.6666870117188,830.6666870117188,831.3333129882812,831.3333129882812,831.3333129882812,831.3333129882812,831.3333129882812,831.3333129882812,831.3333129882812,831.3333129882812,831.3333129882812,831.3333129882812,828,828,828,828,828,735.3333740234375,706.6666870117188,542.6666870117188,542.6666870117188,486,212.6666717529297,212.6666717529297,169.33334350585938,155.33334350585938,124.66667175292969,108.66667175292969,96.66667175292969],"timestamp_mouse":[31,35,55,75,95,115,135,155,176,195,215,235,255,276,295,316,335,355,375,395,415,435,455,475,495,516,535,555,575,595,615,635,656,675,696,716,735,755,775,795,815,835,855,875,895,916,936,955,976,995,1016,1035,1055,1075,1095],"xSR":350,"ySR":768,"xT1":30,"yT1":0,"xT2":670,"yT2":0,"toosoon":0,"cond_shown":"randomdotsizeEA","ratio_trial":500,"smaller_num":"2","larger_num":"4","correct_side":2,"subjID":"49wm","gender":"No_gender","age":"No_age","school":"No_school"},{"start_time":1549382341649,"click_time":1549382342622,"finger_time":1549382342443,"fix_duration":1465.603427478721,"trial":12,"RT":794,"MT":179,"sideResp":2,"stimulus":"img/750/randomdotsize/R/7_Ratio_750_L_3_R_4.png","xmouse":[406,406,406,406,406,406,406,406,406,406,406,406,406,406,406,406,406,406,406,406,406,406,406,406,406,406,406,406,406,406,406,406,406,406,406,406,406,404.66668701171875,404.66668701171875,426.66668701171875,438,462,476,509.3333435058594,544,596,627.3333740234375,644,676],"ymouse":[828,828,828,828,828,828,828,828,828,828,828,828,828,828,828,828,828,828,828,828,828,828,828,828,828,828,828,828,828,828,828,828,828,828,828,828,828,820,820,750,716,645.3333740234375,606,515.3333740234375,408,262,186,148,82],"timestamp_mouse":[27,33,54,73,93,114,133,153,173,193,213,233,253,273,294,313,333,354,373,393,413,433,453,473,493,513,533,553,574,593,613,633,654,673,693,713,733,754,773,794,813,833,853,873,893,913,933,953,973],"xSR":350,"ySR":768,"xT1":30,"yT1":0,"xT2":670,"yT2":0,"toosoon":0,"cond_shown":"randomdotsize","ratio_trial":750,"smaller_num":"3","larger_num":"4","correct_side":2,"subjID":"49wm","gender":"No_gender","age":"No_age","school":"No_school"},{"start_time":1549382345178,"click_time":1549382346122,"finger_time":1549382345963,"fix_duration":1434.0941820667674,"trial":13,"RT":785,"MT":159,"sideResp":2,"stimulus":"img/900/randomdotsizeEA/R/7_Ratio_900_L_9_R_10.png","xmouse":[428.66668701171875,428.66668701171875,428.66668701171875,428.66668701171875,428.66668701171875,428.66668701171875,428.66668701171875,428.66668701171875,428.66668701171875,428.66668701171875,428.66668701171875,428.66668701171875,428.66668701171875,428.66668701171875,428.66668701171875,428.66668701171875,428.66668701171875,428.66668701171875,428.66668701171875,428.66668701171875,428.66668701171875,428.66668701171875,428.66668701171875,428.66668701171875,428.66668701171875,428.66668701171875,428.66668701171875,428.66668701171875,428.66668701171875,428.66668701171875,428.66668701171875,428.66668701171875,428.66668701171875,428.66668701171875,428.66668701171875,428.66668701171875,428.66668701171875,428.66668701171875,428.66668701171875,437.3333435058594,476.0000305175781,510.6667175292969,529.3333740234375,570.6666870117188,591.3333740234375,684,708,759.3333740234375],"ymouse":[800.6666870117188,800.6666870117188,800.6666870117188,800.6666870117188,800.6666870117188,800.6666870117188,800.6666870117188,799.3333740234375,799.3333740234375,799.3333740234375,799.3333740234375,799.3333740234375,799.3333740234375,799.3333740234375,799.3333740234375,799.3333740234375,799.3333740234375,800,800,800,800,800,800,800,800,800,800,800,800,800,800,799.3333740234375,799.3333740234375,799.3333740234375,799.3333740234375,799.3333740234375,799.3333740234375,799.3333740234375,799.3333740234375,748,635.3333740234375,548.6666870117188,497.3333740234375,382,330,142.6666717529297,108,37.333335876464844],"timestamp_mouse":[11,31,44,64,84,104,125,144,164,184,204,224,244,265,285,304,324,344,364,384,405,424,444,465,485,504,524,544,564,585,604,624,644,664,685,708,724,744,764,784,804,824,844,864,884,904,925,944],"xSR":350,"ySR":768,"xT1":30,"yT1":0,"xT2":670,"yT2":0,"toosoon":0,"cond_shown":"randomdotsizeEA","ratio_trial":900,"smaller_num":"9","larger_num":"10","correct_side":2,"subjID":"49wm","gender":"No_gender","age":"No_age","school":"No_school"},{"start_time":1549382347989,"click_time":1549382349003,"finger_time":1549382348782,"fix_duration":906.3473187689582,"trial":14,"RT":793,"MT":221,"sideResp":2,"stimulus":"img/500/equaldotanddens/R/9_Ratio_500_L_2_R_4.png","xmouse":[393.3333435058594,393.3333435058594,393.3333435058594,392.66668701171875,392.66668701171875,392.66668701171875,392.66668701171875,392.66668701171875,392.66668701171875,392.66668701171875,392.66668701171875,392.66668701171875,392.66668701171875,396,396,396,396,396,396,396,396,396,396,392,392,392,392,392,392,392,392,392,392,392,392,392,392,392,392,436.66668701171875,470,494,518,530.6666870117188,556,596,620.6666870117188,634.6666870117188,659.3333740234375,678.6666870117188,705.3333740234375],"ymouse":[831.3333129882812,831.3333129882812,831.3333129882812,832.6666870117188,832.6666870117188,832.6666870117188,832.6666870117188,832.6666870117188,832.6666870117188,832.6666870117188,832.6666870117188,832.6666870117188,832.6666870117188,834,834,834,834,834,834,834,834,834,834,838,838,838,838,838,838,838,838,838,838,841.3333129882812,840.6666870117188,840.6666870117188,840.6666870117188,840.6666870117188,840.6666870117188,716.6666870117188,633.3333740234375,574.6666870117188,506.66668701171875,462.66668701171875,378,279.3333435058594,218.6666717529297,192.6666717529297,152,119.33334350585938,77.33333587646484],"timestamp_mouse":[27,33,53,74,93,114,134,153,174,193,213,233,253,273,293,313,333,353,373,393,415,433,453,473,494,513,533,553,573,593,613,633,653,673,693,714,733,753,773,793,814,833,853,874,893,913,933,953,973,993,1014],"xSR":350,"ySR":768,"xT1":30,"yT1":0,"xT2":670,"yT2":0,"toosoon":0,"cond_shown":"equaldotanddens","ratio_trial":500,"smaller_num":"2","larger_num":"4","correct_side":2,"subjID":"49wm","gender":"No_gender","age":"No_age","school":"No_school"},{"start_time":1549382351476,"click_time":1549382352602,"finger_time":1549382352402,"fix_duration":373.07405223011045,"trial":15,"RT":926,"MT":200,"sideResp":2,"stimulus":"img/900/randomdotsizeEA/R/5_Ratio_900_L_9_R_10.png","xmouse":[400.66668701171875,400.66668701171875,401.3333435058594,401.3333435058594,402,402,402,402,402,402,402,402,402,402,402.66668701171875,402.66668701171875,402.66668701171875,402.66668701171875,402.66668701171875,402.66668701171875,402.66668701171875,402.66668701171875,402.66668701171875,402.66668701171875,404,404,404,404,404,404,404,404,404,404,402.66668701171875,402.66668701171875,402.66668701171875,402.66668701171875,402.66668701171875,402.66668701171875,402.66668701171875,402.66668701171875,402.66668701171875,400,403.3333435058594,408.66668701171875,428,472,509.3333435058594,530,568.6666870117188,603.3333740234375,653.3333740234375,679.3333740234375,691.3333740234375,706.6666870117188,712.6666870117188],"ymouse":[822.6666870117188,822.6666870117188,822,822,822,822,822,822,822,822,822,822,822,822,822,822,822,822,822,822,822,822,822,822,818.6666870117188,818.6666870117188,818.6666870117188,818.6666870117188,818.6666870117188,818.6666870117188,818.6666870117188,818.6666870117188,818.6666870117188,818.6666870117188,814.6666870117188,814.6666870117188,814.6666870117188,814.6666870117188,814.6666870117188,814.6666870117188,814.6666870117188,814.6666870117188,814.6666870117188,800,787.3333740234375,770,715.3333740234375,616.6666870117188,544,506.66668701171875,428,344.66668701171875,228.6666717529297,165.33334350585938,140.6666717529297,101.33333587646484,78.66667175292969],"timestamp_mouse":[9,26,50,66,86,106,126,146,166,186,206,226,246,266,287,307,326,346,366,386,406,427,446,466,486,506,526,546,566,586,606,626,646,666,686,706,726,746,766,786,806,842,846,866,886,906,926,945,966,986,1006,1026,1047,1067,1086,1106,1126],"xSR":350,"ySR":768,"xT1":30,"yT1":0,"xT2":670,"yT2":0,"toosoon":0,"cond_shown":"randomdotsizeEA","ratio_trial":900,"smaller_num":"9","larger_num":"10","correct_side":2,"subjID":"49wm","gender":"No_gender","age":"No_age","school":"No_school"},{"start_time":1549382354651,"click_time":1549382355762,"finger_time":1549382355443,"fix_duration":507.29977216122757,"trial":16,"RT":792,"MT":319,"sideResp":2,"stimulus":"img/750/equaldotanddens/R/7_Ratio_750_L_3_R_4.png","xmouse":[395,395,395,395,395,395,395,395,395,395,395,395,395,395,395,395,395,395,395,395,395,395,395,395,395,395,395,395,395,395,395,395,395,395,395,395,395,400.66668701171875,413.3333435058594,432,438.66668701171875,456.66668701171875,476,487.3333435058594,527.3333740234375,540,558,568.6666870117188,584,605.3333740234375,620.6666870117188,636,642.6666870117188,654,669.3333740234375,675.3333740234375],"ymouse":[844,844,844,844,844,844,844,844,844,844,844,844,844,844,844,844,844,844,844,844,844,844,844,844,844,844,844,844,844,844,844,844,844,844,844,844,844,830,793.3333740234375,716.6666870117188,690.6666870117188,632.6666870117188,564.6666870117188,528,389.3333435058594,358.66668701171875,306,284,247.33334350585938,202.6666717529297,173.33334350585938,149.33334350585938,138.6666717529297,120,95.33333587646484,88],"timestamp_mouse":[11,36,51,71,91,111,131,151,171,191,211,231,251,271,291,311,331,351,372,391,411,431,451,472,491,511,531,551,571,591,611,631,651,671,691,711,731,751,771,792,811,831,851,871,892,911,932,951,971,992,1012,1031,1051,1071,1094,1111],"xSR":350,"ySR":768,"xT1":30,"yT1":0,"xT2":670,"yT2":0,"toosoon":0,"cond_shown":"equaldotanddens","ratio_trial":750,"smaller_num":"3","larger_num":"4","correct_side":2,"subjID":"49wm","gender":"No_gender","age":"No_age","school":"No_school"},{"start_time":1549382358472,"click_time":1549382359403,"finger_time":1549382359163,"fix_duration":968.2781336571755,"trial":17,"RT":691,"MT":240,"sideResp":1,"stimulus":"img/250/randomdotsize/L/14_Ratio_250_L_12_R_3.png","xmouse":[403.3333435058594,403.3333435058594,403.3333435058594,403.3333435058594,403.3333435058594,403.3333435058594,403.3333435058594,403.3333435058594,403.3333435058594,403.3333435058594,403.3333435058594,403.3333435058594,403.3333435058594,403.3333435058594,402.66668701171875,402.66668701171875,402.66668701171875,402.66668701171875,402.66668701171875,402.66668701171875,402.66668701171875,402.66668701171875,402.66668701171875,402.66668701171875,401.3333435058594,401.3333435058594,401.3333435058594,401.3333435058594,401.3333435058594,401.3333435058594,401.3333435058594,401.3333435058594,401.3333435058594,382,349.3333435058594,331.3333435058594,320.66668701171875,300,278.66668701171875,246.6666717529297,236,217.33334350585938,195.33334350585938,181.33334350585938,159.33334350585938,122,99.33333587646484],"ymouse":[824.6666870117188,824.6666870117188,824.6666870117188,824.6666870117188,825.3333740234375,825.3333740234375,825.3333740234375,825.3333740234375,825.3333740234375,825.3333740234375,825.3333740234375,825.3333740234375,825.3333740234375,825.3333740234375,824.6666870117188,824.6666870117188,824.6666870117188,824.6666870117188,824.6666870117188,824.6666870117188,824.6666870117188,824.6666870117188,824.6666870117188,824.6666870117188,824.6666870117188,824.6666870117188,824.6666870117188,824.6666870117188,824.6666870117188,824.6666870117188,824.6666870117188,824.6666870117188,824.6666870117188,777.3333740234375,706,666,644,589.3333740234375,522.6666870117188,422,391.3333435058594,329.3333435058594,268,236,177.33334350585938,105.33333587646484,70],"timestamp_mouse":[11,35,50,70,91,110,130,150,170,191,210,231,250,270,291,311,330,350,370,390,410,430,450,470,493,510,530,550,571,590,610,630,650,670,691,710,730,750,770,792,810,830,850,871,890,910,931],"xSR":350,"ySR":768,"xT1":30,"yT1":0,"xT2":670,"yT2":0,"toosoon":0,"cond_shown":"randomdotsize","ratio_trial":250,"smaller_num":"3","larger_num":"12","correct_side":1,"subjID":"49wm","gender":"No_gender","age":"No_age","school":"No_school"},{"start_time":1549382361626,"click_time":1549382362482,"finger_time":1549382362302,"fix_duration":883.5481515514314,"trial":18,"RT":676,"MT":180,"sideResp":2,"stimulus":"img/250/equaldotanddens/R/10_Ratio_250_L_4_R_16.png","xmouse":[400,400,400,400,400,400,400,400,400,400,400,400,400,400,400,400,400,400,400,400,400,400,400,400,400,400,400,400,400,400,400,408.66668701171875,408.66668701171875,446.66668701171875,471.3333435058594,498,512,540.6666870117188,586,617.3333740234375,637.3333740234375,668.6666870117188,696.6666870117188],"ymouse":[836,836,836,836,836,836,836,836,836,836,836,836,836,836,836,836,836,836,836,836,836,836,836,836,836,836,836,836,836,836,825.3333740234375,795.3333740234375,795.3333740234375,646,562.6666870117188,482,439.3333435058594,355.3333435058594,235.33334350585938,156,121.33334350585938,63.333335876464844,18.666667938232422],"timestamp_mouse":[16,37,56,76,96,116,136,156,176,196,217,236,256,277,296,316,336,356,376,397,416,436,456,476,496,516,536,556,576,596,616,636,656,676,697,716,736,756,776,797,816,836,856],"xSR":350,"ySR":768,"xT1":30,"yT1":0,"xT2":670,"yT2":0,"toosoon":0,"cond_shown":"equaldotanddens","ratio_trial":250,"smaller_num":"4","larger_num":"16","correct_side":2,"subjID":"49wm","gender":"No_gender","age":"No_age","school":"No_school"},{"start_time":1549382363997,"click_time":1549382365382,"finger_time":1549382365104,"fix_duration":553.2486014171994,"trial":19,"RT":1107,"MT":278,"sideResp":1,"stimulus":"img/900/randomdotsizeEA/L/2_Ratio_900_L_20_R_18.png","xmouse":[389.3333435058594,389.3333435058594,389.3333435058594,389.3333435058594,389.3333435058594,389.3333435058594,389.3333435058594,389.3333435058594,389.3333435058594,389.3333435058594,389.3333435058594,389.3333435058594,389.3333435058594,389.3333435058594,389.3333435058594,389.3333435058594,389.3333435058594,389.3333435058594,389.3333435058594,389.3333435058594,389.3333435058594,389.3333435058594,389.3333435058594,389.3333435058594,389.3333435058594,389.3333435058594,389.3333435058594,389.3333435058594,389.3333435058594,389.3333435058594,389.3333435058594,389.3333435058594,389.3333435058594,389.3333435058594,389.3333435058594,391.3333435058594,391.3333435058594,391.3333435058594,391.3333435058594,391.3333435058594,391.3333435058594,391.3333435058594,391.3333435058594,391.3333435058594,392,392.66668701171875,393.3333435058594,393.3333435058594,392.66668701171875,392.66668701171875,390.66668701171875,389.3333435058594,386.66668701171875,384.66668701171875,378,360.66668701171875,344.66668701171875,336,318,302,291.3333435058594,247.33334350585938,234.6666717529297,205.33334350585938,190,159.33334350585938,119.33333587646484,97.33333587646484,86.66667175292969,70.66667175292969],"ymouse":[828,827.3333129882812,827.3333129882812,827.3333129882812,827.3333129882812,827.3333129882812,827.3333129882812,828,828,828,828,828,828,828,828,828,828,828,828,828,828,828,828,828,828,827.3333129882812,827.3333129882812,827.3333129882812,827.3333129882812,827.3333129882812,827.3333129882812,827.3333129882812,827.3333129882812,827.3333129882812,827.3333129882812,816,816,816,816,816,816,816,816,816,810,808.6666870117188,804.6666870117188,801.3333740234375,800,798,794.6666870117188,794,791.3333740234375,790,781.3333740234375,755.3333740234375,728,712,672.6666870117188,627.3333740234375,602,488,454.66668701171875,389.3333435058594,359.3333435058594,299.3333435058594,214.6666717529297,164.6666717529297,139.33334350585938,94.66667175292969],"timestamp_mouse":[10,37,46,65,85,105,125,146,165,186,205,226,245,265,285,305,325,345,365,385,406,425,445,465,485,505,525,545,565,585,605,626,645,665,685,705,725,745,765,785,806,825,845,865,885,905,925,945,965,985,1007,1025,1045,1065,1085,1107,1125,1145,1165,1185,1205,1226,1245,1265,1286,1305,1326,1345,1365,1385],"xSR":350,"ySR":768,"xT1":30,"yT1":0,"xT2":670,"yT2":0,"toosoon":0,"cond_shown":"randomdotsizeEA","ratio_trial":900,"smaller_num":"18","larger_num":"20","correct_side":1,"subjID":"49wm","gender":"No_gender","age":"No_age","school":"No_school"},{"start_time":1549382367405,"click_time":1549382368642,"finger_time":1549382368402,"fix_duration":720.9811273567424,"trial":20,"RT":997,"MT":240,"sideResp":1,"stimulus":"img/900/equaldotsize/R/11_Ratio_900_L_18_R_20.png","xmouse":[400,400,400,400,400,399.3333435058594,399.3333435058594,399.3333435058594,399.3333435058594,399.3333435058594,398.66668701171875,398.66668701171875,398.66668701171875,398.66668701171875,398.66668701171875,398,398,398,397.3333435058594,397.3333435058594,397.3333435058594,396.66668701171875,396,396,395.3333435058594,394.66668701171875,394,394,394,393.3333435058594,393.3333435058594,393.3333435058594,393.3333435058594,392.66668701171875,392,392,391.3333435058594,391.3333435058594,390.66668701171875,390.66668701171875,390.66668701171875,390.66668701171875,390.66668701171875,390.66668701171875,390.66668701171875,390.66668701171875,390.66668701171875,390.66668701171875,355.3333435058594,337.3333435058594,328,284.66668701171875,272.66668701171875,252,229.33334350585938,222.6666717529297,191.33334350585938,168.6666717529297,149.33334350585938,142,124.66667175292969,106.66667175292969],"ymouse":[830,830,830.6666870117188,831.3333740234375,831.3333740234375,832,832,832,832,832,832,832.6666870117188,832.6666870117188,832.6666870117188,832.6666870117188,833.3333740234375,833.3333740234375,833.3333740234375,834,834,834.6666870117188,836,836.6666870117188,836.6666870117188,838,838.6666870117188,839.3333740234375,840,840,840,840.6666870117188,840.6666870117188,840.6666870117188,841.3333740234375,841.3333740234375,840.6666870117188,840.6666870117188,839.3333740234375,838,837.3333740234375,835.3333740234375,835.3333740234375,835.3333740234375,835.3333740234375,835.3333740234375,835.3333740234375,835.3333740234375,835.3333740234375,770.6666870117188,735.3333740234375,716,617.3333740234375,587.3333740234375,526,464.66668701171875,430.66668701171875,334,268,208,182,133.33334350585938,81.33333587646484],"timestamp_mouse":[34,37,57,77,97,124,140,157,177,197,219,237,257,277,297,318,337,357,377,397,418,437,457,477,497,518,537,557,577,597,617,637,657,677,698,717,737,758,777,797,818,839,857,877,897,917,938,957,977,997,1018,1037,1057,1077,1097,1117,1137,1157,1177,1197,1217,1237],"xSR":350,"ySR":768,"xT1":30,"yT1":0,"xT2":670,"yT2":0,"toosoon":0,"cond_shown":"equaldotsize","ratio_trial":900,"smaller_num":"18","larger_num":"20","correct_side":2,"subjID":"49wm","gender":"No_gender","age":"No_age","school":"No_school"},{"start_time":1549382370324,"click_time":1549382371222,"finger_time":1549382371062,"fix_duration":581.1270966356076,"trial":21,"RT":738,"MT":160,"sideResp":2,"stimulus":"img/750/randomdotsize/L/6_Ratio_750_L_24_R_18.png","xmouse":[423.3333435058594,423.3333435058594,423.3333435058594,423.3333435058594,423.3333435058594,423.3333435058594,423.3333435058594,423.3333435058594,423.3333435058594,423.3333435058594,423.3333435058594,423.3333435058594,423.3333435058594,423.3333435058594,423.3333435058594,423.3333435058594,423.3333435058594,423.3333435058594,423.3333435058594,423.3333435058594,423.3333435058594,423.3333435058594,423.3333435058594,422.66668701171875,422.66668701171875,422.66668701171875,422.66668701171875,422.66668701171875,422.66668701171875,422.66668701171875,422.66668701171875,422.66668701171875,422.66668701171875,420.66668701171875,420.66668701171875,425.3333435058594,446,466,495.3333435058594,511.3333435058594,548.6666870117188,602,636.6666870117188,649.3333740234375,684],"ymouse":[814.6666870117188,814.6666870117188,814.6666870117188,814.6666870117188,815.3333740234375,815.3333740234375,815.3333740234375,815.3333740234375,815.3333740234375,815.3333740234375,816,816,816,816.6666870117188,816.6666870117188,816.6666870117188,816.6666870117188,816.6666870117188,816.6666870117188,816.6666870117188,816.6666870117188,817.3333740234375,816.6666870117188,816.6666870117188,816.6666870117188,816.6666870117188,816.6666870117188,816.6666870117188,816.6666870117188,816.6666870117188,816.6666870117188,816.6666870117188,816.6666870117188,803.3333740234375,803.3333740234375,773.3333740234375,677.3333740234375,597.3333740234375,510.66668701171875,464,370.66668701171875,236.6666717529297,165.33334350585938,132.6666717529297,68],"timestamp_mouse":[18,38,58,78,98,119,138,158,178,199,218,238,258,278,299,318,338,358,378,398,419,438,458,478,498,518,538,558,579,598,618,638,658,678,698,718,738,758,779,798,818,838,858,878,898],"xSR":350,"ySR":768,"xT1":30,"yT1":0,"xT2":670,"yT2":0,"toosoon":0,"cond_shown":"randomdotsize","ratio_trial":750,"smaller_num":"18","larger_num":"24","correct_side":1,"subjID":"49wm","gender":"No_gender","age":"No_age","school":"No_school"},{"start_time":1549382373341,"click_time":1549382374722,"finger_time":1549382374242,"fix_duration":797.6377420146017,"trial":22,"RT":901,"MT":480,"sideResp":2,"stimulus":"img/250/equaldotanddens/R/12_Ratio_250_L_5_R_20.png","xmouse":[430.66668701171875,430.66668701171875,430.66668701171875,430.66668701171875,424,424,424,422.66668701171875,422.66668701171875,421.3333435058594,421.3333435058594,421.3333435058594,421.3333435058594,421.3333435058594,419.3333435058594,418.66668701171875,417.3333435058594,416,414.66668701171875,414.66668701171875,414.66668701171875,414.66668701171875,414.66668701171875,414.66668701171875,413.3333435058594,412.66668701171875,412.66668701171875,412.66668701171875,412.66668701171875,406.66668701171875,406.66668701171875,406.66668701171875,405.3333435058594,405.3333435058594,405.3333435058594,406.66668701171875,406.66668701171875,406.66668701171875,406.66668701171875,409.3333435058594,409.3333435058594,409.3333435058594,410,410,410,429.3333435058594,440,459.3333435058594,472,480,492,501.3333435058594,542.6666870117188,550,575.3333740234375,598,604,619.3333740234375,624.6666870117188,628,628.6666870117188,630,634,639.3333740234375,645.3333740234375,648,651.3333740234375,658,669.3333740234375,678],"ymouse":[807.3333740234375,807.3333740234375,807.3333740234375,807.3333740234375,815.3333740234375,815.3333740234375,815.3333740234375,821.3333740234375,822.6666870117188,824.6666870117188,826,826.6666870117188,826.6666870117188,826.6666870117188,828.6666870117188,828.6666870117188,828.6666870117188,829.3333740234375,830,830,830,830,830,830,830.6666870117188,830,830,830,830,827.3333740234375,827.3333740234375,827.3333740234375,826,826,826,820.6666870117188,820.6666870117188,820.6666870117188,820.6666870117188,809.3333740234375,809.3333740234375,798.6666870117188,785.3333740234375,785.3333740234375,785.3333740234375,697.3333740234375,653.3333740234375,592,548.6666870117188,526.6666870117188,477.3333435058594,453.3333435058594,349.3333435058594,322.66668701171875,274.66668701171875,238,220.6666717529297,189.33334350585938,180,172,168,161.33334350585938,150,142.6666717529297,136,133.33334350585938,128.6666717529297,118.66667175292969,102,88],"timestamp_mouse":[1,31,42,62,81,101,121,141,161,181,201,222,243,261,281,301,321,341,361,382,401,421,441,461,481,501,521,541,561,581,601,622,643,661,681,701,721,742,761,781,801,821,841,861,881,901,921,942,962,982,1001,1021,1041,1062,1081,1101,1121,1142,1161,1181,1201,1221,1244,1261,1281,1301,1321,1346,1361,1381],"xSR":350,"ySR":768,"xT1":30,"yT1":0,"xT2":670,"yT2":0,"toosoon":0,"cond_shown":"equaldotanddens","ratio_trial":250,"smaller_num":"5","larger_num":"20","correct_side":2,"subjID":"49wm","gender":"No_gender","age":"No_age","school":"No_school"},{"start_time":1549382376730,"click_time":1549382378182,"finger_time":1549382377982,"fix_duration":647.8295663462,"trial":23,"RT":1252,"MT":200,"sideResp":1,"stimulus":"img/750/randomdotsize/L/14_Ratio_750_L_8_R_6.png","xmouse":[424.66668701171875,424.66668701171875,424.66668701171875,424.66668701171875,424.66668701171875,424.66668701171875,430.66668701171875,431.3333435058594,432,432,432.66668701171875,432.66668701171875,432.66668701171875,432.66668701171875,432.66668701171875,432.66668701171875,432.66668701171875,432.66668701171875,433.3333435058594,433.3333435058594,433.3333435058594,433.3333435058594,433.3333435058594,434,434,434,434,434,434,434,434,433.3333435058594,433.3333435058594,433.3333435058594,433.3333435058594,433.3333435058594,433.3333435058594,433.3333435058594,433.3333435058594,433.3333435058594,433.3333435058594,433.3333435058594,433.3333435058594,433.3333435058594,433.3333435058594,433.3333435058594,433.3333435058594,433.3333435058594,433.3333435058594,433.3333435058594,433.3333435058594,433.3333435058594,427.3333435058594,427.3333435058594,427.3333435058594,427.3333435058594,427.3333435058594,427.3333435058594,427.3333435058594,427.3333435058594,427.3333435058594,427.3333435058594,382.66668701171875,346.66668701171875,320.66668701171875,298.66668701171875,288,269.3333435058594,226.6666717529297,195.33334350585938,178.6666717529297,142.6666717529297,102],"ymouse":[795.3333740234375,795.3333740234375,795.3333740234375,795.3333740234375,795.3333740234375,795.3333740234375,794,794,794,794,794,794,794,793.3333740234375,792.6666870117188,792.6666870117188,792,792,791.3333740234375,790.6666870117188,790.6666870117188,790.6666870117188,790.6666870117188,790,789.3333740234375,788.6666870117188,788,787.3333740234375,786.6666870117188,786,786,786,785.3333740234375,785.3333740234375,785.3333740234375,785.3333740234375,785.3333740234375,785.3333740234375,785.3333740234375,785.3333740234375,785.3333740234375,785.3333740234375,776.6666870117188,776.6666870117188,776.6666870117188,776.6666870117188,776.6666870117188,776.6666870117188,776.6666870117188,776.6666870117188,776.6666870117188,776.6666870117188,776.6666870117188,776.6666870117188,776.6666870117188,776.6666870117188,776.6666870117188,776.6666870117188,776.6666870117188,776.6666870117188,776.6666870117188,776.6666870117188,698,606.6666870117188,524.6666870117188,435.3333435058594,398,318,210,148.6666717529297,119.33334350585938,78,43.333335876464844],"timestamp_mouse":[19,32,52,73,92,112,132,153,173,192,212,232,252,272,292,312,332,353,372,392,412,432,452,473,492,512,532,552,572,592,613,632,652,672,692,713,732,752,772,792,812,832,852,872,892,912,932,952,972,992,1012,1032,1052,1072,1092,1112,1132,1152,1172,1192,1212,1232,1252,1273,1292,1312,1332,1352,1372,1392,1412,1432,1452],"xSR":350,"ySR":768,"xT1":30,"yT1":0,"xT2":670,"yT2":0,"toosoon":0,"cond_shown":"randomdotsize","ratio_trial":750,"smaller_num":"6","larger_num":"8","correct_side":1,"subjID":"49wm","gender":"No_gender","age":"No_age","school":"No_school"},{"start_time":1549382379394,"click_time":1549382380223,"finger_time":1549382380082,"fix_duration":250,"trial":24,"RT":688,"MT":141,"sideResp":2,"stimulus":"img/900/equaldotanddens/L/4_Ratio_900_L_20_R_18.png","xmouse":[402.66668701171875,402.66668701171875,402.66668701171875,402.66668701171875,402.66668701171875,402.66668701171875,404,404,404,404,404,404,404,404,404,404,408,408,408,408,408,408,416.66668701171875,418.66668701171875,419.3333435058594,420,421.3333435058594,421.3333435058594,422,422.66668701171875,422.66668701171875,423.3333435058594,423.3333435058594,423.3333435058594,453.3333435058594,480,534.6666870117188,553.3333740234375,599.3333740234375,647.3333740234375,674,748],"ymouse":[776,776,776,776,776,776,772,772,772,772,772,772,772,772,772,772,775.3333740234375,775.3333740234375,775.3333740234375,775.3333740234375,775.3333740234375,775.3333740234375,782.6666870117188,784,784.6666870117188,785.3333740234375,786.6666870117188,786.6666870117188,787.3333740234375,788,788,786.6666870117188,786.6666870117188,786.6666870117188,724,648.6666870117188,493.3333435058594,438.66668701171875,332,225.33334350585938,178.6666717529297,31.333335876464844],"timestamp_mouse":[13,34,48,69,88,108,130,148,168,188,209,228,248,268,288,308,331,348,368,388,408,428,448,468,488,508,529,548,569,588,608,630,648,668,688,708,728,748,768,788,808,828],"xSR":350,"ySR":768,"xT1":30,"yT1":0,"xT2":670,"yT2":0,"toosoon":0,"cond_shown":"equaldotanddens","ratio_trial":900,"smaller_num":"18","larger_num":"20","correct_side":1,"subjID":"49wm","gender":"No_gender","age":"No_age","school":"No_school"},{"start_time":1549382385826,"click_time":1549382386962,"finger_time":1549382386663,"fix_duration":903.9709504323753,"trial":25,"RT":837,"MT":299,"sideResp":2,"stimulus":"img/250/equaldotsize/R/13_Ratio_250_L_2_R_8.png","xmouse":[356.6666564941406,356.6666564941406,356.6666564941406,357.3333435058594,357.3333435058594,357.3333435058594,357.3333435058594,357.3333435058594,357.3333435058594,357.3333435058594,357.3333435058594,357.3333435058594,357.3333435058594,357.3333435058594,357.3333435058594,357.3333435058594,357.3333435058594,357.3333435058594,357.3333435058594,357.3333435058594,357.3333435058594,357.3333435058594,357.3333435058594,358,358,358,358,358,358,358,358,358,358,358,358,358,358,358,358,358,388,428.66668701171875,452.66668701171875,475.3333435058594,486.66668701171875,514,556.6666870117188,584,599.3333740234375,624.6666870117188,650,681.3333740234375,686.6666870117188,700.6666870117188,709.3333740234375,712,713.3333740234375],"ymouse":[848,848,848,850,850,850,850,850,850,850,850,850,850,851.3333740234375,851.3333740234375,851.3333740234375,851.3333740234375,851.3333740234375,851.3333740234375,851.3333740234375,851.3333740234375,851.3333740234375,851.3333740234375,856.6666870117188,856.6666870117188,856.6666870117188,856.6666870117188,856.6666870117188,856.6666870117188,856.6666870117188,856.6666870117188,856.6666870117188,856.6666870117188,861.3333129882812,861.3333129882812,861.3333129882812,861.3333129882812,861.3333129882812,861.3333129882812,861.3333129882812,790,710,662,611.3333740234375,585.3333740234375,524.6666870117188,441.3333435058594,386.66668701171875,359.3333435058594,310,262,202,184,151.33334350585938,123.33334350585938,111.33333587646484,92.66667175292969],"timestamp_mouse":[16,36,56,76,96,117,136,156,176,197,216,236,256,276,296,316,336,356,376,396,416,436,456,476,496,516,536,556,576,597,616,637,656,676,696,716,737,757,776,796,816,837,857,876,896,916,937,956,976,997,1016,1037,1056,1076,1096,1116,1136],"xSR":350,"ySR":768,"xT1":30,"yT1":0,"xT2":670,"yT2":0,"toosoon":0,"cond_shown":"equaldotsize","ratio_trial":250,"smaller_num":"2","larger_num":"8","correct_side":2,"subjID":"49wm","gender":"No_gender","age":"No_age","school":"No_school"},{"start_time":1549382393458,"click_time":1549382394303,"finger_time":1549382394062,"fix_duration":452.60986684278026,"trial":26,"RT":604,"MT":241,"sideResp":2,"stimulus":"img/750/randomdotsize/L/8_Ratio_750_L_4_R_3.png","xmouse":[416,416,416,416,416,416,421.3333435058594,421.3333435058594,421.3333435058594,421.3333435058594,421.3333435058594,421.3333435058594,421.3333435058594,421.3333435058594,421.3333435058594,421.3333435058594,423.3333435058594,423.3333435058594,423.3333435058594,423.3333435058594,423.3333435058594,423.3333435058594,423.3333435058594,423.3333435058594,423.3333435058594,423.3333435058594,424,424.66668701171875,426.66668701171875,430,435.3333435058594,440,455.3333435058594,486,513.3333740234375,528.6666870117188,558,586,625.3333740234375,638,662,682.6666870117188,690],"ymouse":[840.6666870117188,840.6666870117188,840.6666870117188,840.6666870117188,840.6666870117188,840.6666870117188,842,842,842,842,842,842,842,842,842,842,838.6666870117188,838.6666870117188,838.6666870117188,838.6666870117188,838.6666870117188,838.6666870117188,838.6666870117188,838.6666870117188,838.6666870117188,838.6666870117188,828.6666870117188,827.3333740234375,820.6666870117188,795.3333740234375,744,714,650.6666870117188,544,465.3333435058594,426,355.3333435058594,290.66668701171875,208,182.6666717529297,138,103.33333587646484,88.66667175292969],"timestamp_mouse":[4,32,44,66,84,104,124,144,164,184,204,224,244,265,284,304,324,344,364,384,404,424,444,464,484,504,524,544,564,584,604,624,644,664,684,704,724,744,764,784,804,824,844],"xSR":350,"ySR":768,"xT1":30,"yT1":0,"xT2":670,"yT2":0,"toosoon":0,"cond_shown":"randomdotsize","ratio_trial":750,"smaller_num":"3","larger_num":"4","correct_side":1,"subjID":"49wm","gender":"No_gender","age":"No_age","school":"No_school"},{"start_time":1549382396627,"click_time":1549382397822,"finger_time":1549382397343,"fix_duration":697.7918076572392,"trial":27,"RT":716,"MT":479,"sideResp":2,"stimulus":"img/500/equaldotsize/R/15_Ratio_500_L_1_R_2.png","xmouse":[434.6666564941406,434,434,432.6666564941406,432,430,430,430,430,430,430,430,430,430,430,414,413.3333435058594,413.3333435058594,413.3333435058594,412.6666564941406,412,412,411.3333435058594,411.3333435058594,411.3333435058594,410.6666564941406,410,409.3333435058594,408.6666564941406,408.6666564941406,408.6666564941406,409.3333435058594,410,411.3333435058594,416,427.3333435058594,440,458,466.6666564941406,487.3333435058594,523.3334350585938,550.6666870117188,563.3334350585938,590.6666870117188,611.3334350585938,629.3334350585938,634.0000610351562,640.0000610351562,646.6666870117188,648.6666870117188,654.0000610351562,659.3334350585938,662.0000610351562,663.3334350585938,665.3334350585938,668.6666870117188,671.3334350585938,673.3334350585938,674.6666870117188,677.3334350585938],"ymouse":[850,850.6666870117188,851.3333740234375,851.3333740234375,850.6666870117188,850.6666870117188,850.6666870117188,850.6666870117188,850.6666870117188,850.6666870117188,850.6666870117188,850.6666870117188,850.6666870117188,850.6666870117188,850.6666870117188,834,832.6666870117188,832,831.3333740234375,831.3333740234375,830.6666870117188,830.6666870117188,830,830,829.3333740234375,828,827.3333740234375,826.6666870117188,825.3333740234375,824.6666870117188,822.6666870117188,820.6666870117188,816.6666870117188,812,785.3333740234375,704,644,584.6666870117188,552,481.3333435058594,368,302.66668701171875,274.66668701171875,224.6666717529297,192,165.33334350585938,157.33334350585938,151.33334350585938,143.33334350585938,138.6666717529297,132,126,122,120.66667175292969,116.66667175292969,110.66667175292969,106.66667175292969,102.66667175292969,100.66667175292969,97.33333587646484],"timestamp_mouse":[28,35,55,75,97,115,135,156,175,196,217,235,255,275,296,316,335,355,375,395,416,435,455,475,495,515,535,555,575,595,615,635,656,675,695,716,736,755,776,796,820,835,855,875,895,918,935,955,975,996,1015,1035,1055,1075,1095,1118,1135,1155,1175,1195],"xSR":350,"ySR":768,"xT1":30,"yT1":0,"xT2":670,"yT2":0,"toosoon":0,"cond_shown":"equaldotsize","ratio_trial":500,"smaller_num":"1","larger_num":"2","correct_side":2,"subjID":"49wm","gender":"No_gender","age":"No_age","school":"No_school"},{"start_time":1549382400474,"click_time":1549382401862,"finger_time":1549382401402,"fix_duration":1408.7715965745579,"trial":28,"RT":928,"MT":460,"sideResp":2,"stimulus":"img/500/equaldotanddens/R/9_Ratio_500_L_2_R_4.png","xmouse":[402,402,402,402,401.3333435058594,401.3333435058594,401.3333435058594,401.3333435058594,401.3333435058594,401.3333435058594,401.3333435058594,401.3333435058594,401.3333435058594,401.3333435058594,403.3333435058594,403.3333435058594,403.3333435058594,403.3333435058594,403.3333435058594,403.3333435058594,403.3333435058594,403.3333435058594,403.3333435058594,403.3333435058594,403.3333435058594,403.3333435058594,403.3333435058594,403.3333435058594,403.3333435058594,403.3333435058594,403.3333435058594,403.3333435058594,403.3333435058594,403.3333435058594,404,404,404,404,404,404,403.3333435058594,403.3333435058594,404,404,405.3333435058594,410,416.6666564941406,420.6666564941406,430,444,456.6666564941406,465.3333435058594,470,480,483.3333435058594,494.6666564941406,496.6666564941406,503.3333435058594,510,516.0000610351562,535.3334350585938,542.6666870117188,558.0000610351562,569.3334350585938,590.6666870117188,621.3334350585938,638.6666870117188,655.3334350585938,662.6666870117188,673.3334350585938],"ymouse":[835.3333740234375,835.3333740234375,835.3333740234375,835.3333740234375,829.3333740234375,829.3333740234375,829.3333740234375,829.3333740234375,829.3333740234375,829.3333740234375,829.3333740234375,829.3333740234375,829.3333740234375,829.3333740234375,828,828,828,828,828,828,828,828,828,828,826.6666870117188,826.6666870117188,826.6666870117188,826.6666870117188,826.6666870117188,826.6666870117188,826.6666870117188,826.6666870117188,826.6666870117188,826.6666870117188,825.3333740234375,825.3333740234375,825.3333740234375,825.3333740234375,825.3333740234375,825.3333740234375,818.6666870117188,817.3333740234375,815.3333740234375,814,810.6666870117188,794.6666870117188,767.3333740234375,750,712.6666870117188,654,619.3333740234375,586,570,540.6666870117188,528,477.3333435058594,467.3333435058594,443.3333435058594,418,401.3333435058594,343.3333435058594,327.3333435058594,286,264.66668701171875,222,168.6666717529297,136,110,97.33333587646484,76],"timestamp_mouse":[11,28,48,68,88,108,128,148,168,188,208,228,248,268,288,308,328,348,368,389,408,429,448,469,488,508,528,548,568,588,609,628,648,668,688,708,728,748,768,788,809,829,848,868,888,908,928,948,968,991,1008,1028,1048,1068,1089,1108,1128,1149,1168,1189,1209,1228,1248,1268,1288,1309,1328,1348,1368,1388],"xSR":350,"ySR":768,"xT1":30,"yT1":0,"xT2":670,"yT2":0,"toosoon":0,"cond_shown":"equaldotanddens","ratio_trial":500,"smaller_num":"2","larger_num":"4","correct_side":2,"subjID":"49wm","gender":"No_gender","age":"No_age","school":"No_school"},{"start_time":1549382403629,"click_time":1549382404822,"finger_time":1549382404422,"fix_duration":725.1505828904213,"trial":29,"RT":793,"MT":400,"sideResp":2,"stimulus":"img/750/equaldotsize/L/1_Ratio_750_L_20_R_15.png","xmouse":[399.3333435058594,399.3333435058594,399.3333435058594,399.3333435058594,400,400,400,400,400,400,400,400,400,400,400.6666564941406,400.6666564941406,400.6666564941406,400.6666564941406,400.6666564941406,400.6666564941406,400.6666564941406,400.6666564941406,400.6666564941406,400.6666564941406,400.6666564941406,400.6666564941406,400.6666564941406,400.6666564941406,400.6666564941406,400.6666564941406,400.6666564941406,400.6666564941406,400.6666564941406,400.6666564941406,399.3333435058594,399.3333435058594,399.3333435058594,400,405.3333435058594,412,422.6666564941406,429.3333435058594,445.3333435058594,478,503.3333435058594,517.3334350585938,545.3334350585938,574.6666870117188,614.6666870117188,628.6666870117188,651.3334350585938,669.3334350585938,676.6666870117188,695.3333740234375,696.6666870117188,700.6666870117188,704.6666870117188,705.3333740234375,709.3333740234375,712.6666870117188],"ymouse":[842.6666870117188,842.6666870117188,842.6666870117188,842.6666870117188,840.6666870117188,840.6666870117188,840.6666870117188,840.6666870117188,840.6666870117188,840.6666870117188,840.6666870117188,840.6666870117188,840.6666870117188,840.6666870117188,839.3333740234375,839.3333740234375,839.3333740234375,839.3333740234375,839.3333740234375,839.3333740234375,839.3333740234375,839.3333740234375,839.3333740234375,839.3333740234375,838.6666870117188,838.6666870117188,838.6666870117188,838.6666870117188,838.6666870117188,838.6666870117188,838.6666870117188,838.6666870117188,838.6666870117188,838.6666870117188,828.6666870117188,827.3333740234375,826,824,802.6666870117188,766,716,687.3333740234375,628,536,472,440,380.66668701171875,328,258,239.33334350585938,201.33334350585938,173.33334350585938,161.33334350585938,129.33334350585938,126,120.66667175292969,114.66667175292969,110.66667175292969,101.33333587646484,96.66667175292969],"timestamp_mouse":[13,34,53,73,93,113,133,153,173,193,214,233,253,273,293,314,333,353,373,393,413,434,453,473,493,513,533,554,574,593,613,633,653,673,693,713,733,754,773,793,813,833,853,873,893,913,933,953,973,993,1013,1033,1053,1075,1093,1113,1133,1153,1176,1193],"xSR":350,"ySR":768,"xT1":30,"yT1":0,"xT2":670,"yT2":0,"toosoon":0,"cond_shown":"equaldotsize","ratio_trial":750,"smaller_num":"15","larger_num":"20","correct_side":1,"subjID":"49wm","gender":"No_gender","age":"No_age","school":"No_school"},{"start_time":1549382406676,"click_time":1549382407803,"finger_time":1549382407562,"fix_duration":613.6897600244109,"trial":30,"RT":886,"MT":241,"sideResp":2,"stimulus":"img/250/equaldotsize/R/13_Ratio_250_L_2_R_8.png","xmouse":[392.66668701171875,394,394,394,394,394,394,401.3333435058594,401.3333435058594,401.3333435058594,401.3333435058594,400.66668701171875,400.66668701171875,400.66668701171875,400.66668701171875,400.66668701171875,400.66668701171875,403.3333435058594,404,404,404,404.66668701171875,404.66668701171875,404.66668701171875,404.66668701171875,404.66668701171875,404.66668701171875,404.66668701171875,396,396,395.3333435058594,394.66668701171875,394,394,394,394,394,394,394,394,394,394,392,392,410,426,435.3333435058594,471.3333435058594,500,528,540,574,625.3333740234375,657.3333740234375,672.6666870117188,700,724.6666870117188],"ymouse":[832.6666870117188,838.6666870117188,838.6666870117188,838.6666870117188,838.6666870117188,838.6666870117188,838.6666870117188,845.3333740234375,845.3333740234375,845.3333740234375,845.3333740234375,846,846,846,846,846,846,842.6666870117188,842,842,842,839.3333129882812,839.3333129882812,839.3333129882812,839.3333129882812,839.3333129882812,839.3333129882812,839.3333129882812,839.3333740234375,839.3333740234375,839.3333740234375,838.6666870117188,838,838,838,838,838,838,838,838,838,838,803.3333740234375,803.3333740234375,688,629.3333740234375,598,500,436.66668701171875,384.66668701171875,362,310.66668701171875,237.33334350585938,191.33334350585938,170.6666717529297,130,91.33333587646484],"timestamp_mouse":[11,31,46,66,86,106,127,147,166,186,206,226,246,266,286,306,327,346,366,386,406,426,447,466,486,506,526,548,567,587,606,626,647,666,686,706,726,747,766,786,807,826,846,866,886,906,926,946,966,986,1006,1026,1046,1066,1086,1106,1126],"xSR":350,"ySR":768,"xT1":30,"yT1":0,"xT2":670,"yT2":0,"toosoon":0,"cond_shown":"equaldotsize","ratio_trial":250,"smaller_num":"2","larger_num":"8","correct_side":2,"subjID":"49wm","gender":"No_gender","age":"No_age","school":"No_school"},{"start_time":1549382410224,"click_time":1549382411423,"finger_time":1549382411162,"fix_duration":1160.6265009021774,"trial":31,"RT":938,"MT":261,"sideResp":1,"stimulus":"img/500/equaldotsize/L/11_Ratio_500_L_12_R_6.png","xmouse":[410,410,410,410,410,406,406,406.6666564941406,406,406,406,406,405.3333435058594,405.3333435058594,404.6666564941406,404,404,404,403.3333435058594,403.3333435058594,402.6666564941406,402.6666564941406,402.6666564941406,402.6666564941406,402.6666564941406,402.6666564941406,402,402,402,401.3333435058594,400.6666564941406,400,400,400,399.3333435058594,399.3333435058594,399.3333435058594,399.3333435058594,399.3333435058594,399.3333435058594,399.3333435058594,399.3333435058594,399.3333435058594,399.3333435058594,399.3333435058594,399.3333435058594,394,387.3333435058594,370,349.3333435058594,310.66668701171875,283.3333435058594,270.66668701171875,250.00001525878906,234.6666717529297,184.6666717529297,172.00001525878906,151.33335876464844,138.6666717529297,118],"ymouse":[842.0000610351562,842.0000610351562,842.0000610351562,842.0000610351562,842.0000610351562,826.6666870117188,826.6666870117188,825.3333740234375,824.6666870117188,823.3333740234375,822,820.6666870117188,820.6666870117188,820,819.3333740234375,818.6666870117188,818,817.3333740234375,816.6666870117188,816,814.6666870117188,814,812.6666870117188,812.6666870117188,811.3333740234375,810.6666870117188,810,810,810,809.3333740234375,809.3333740234375,809.3333740234375,809.3333740234375,809.3333740234375,810.0000610351562,811.3333740234375,811.3333740234375,811.3333740234375,811.3333740234375,811.3333740234375,811.3333740234375,811.3333740234375,811.3333740234375,811.3333740234375,811.3333740234375,795.3333740234375,756,728,662,585.3333740234375,456.66668701171875,374.66668701171875,334,264.66668701171875,226.6666717529297,120,102,66.66667175292969,53.333335876464844,30.666667938232422],"timestamp_mouse":[32,38,58,78,99,120,138,159,178,198,218,238,258,278,298,318,338,358,378,398,419,439,458,478,498,519,538,559,578,598,618,638,658,678,698,720,738,758,778,798,818,838,858,879,899,918,938,958,978,998,1019,1039,1058,1078,1098,1119,1138,1158,1178,1199],"xSR":350,"ySR":768,"xT1":30,"yT1":0,"xT2":670,"yT2":0,"toosoon":0,"cond_shown":"equaldotsize","ratio_trial":500,"smaller_num":"6","larger_num":"12","correct_side":1,"subjID":"49wm","gender":"No_gender","age":"No_age","school":"No_school"},{"start_time":1549382413602,"click_time":1549382414883,"finger_time":1549382414562,"fix_duration":859.8604622013621,"trial":32,"RT":960,"MT":321,"sideResp":1,"stimulus":"img/250/equaldotsize/L/1_Ratio_250_L_8_R_2.png","xmouse":[398.0000305175781,398.0000305175781,398.0000305175781,398.0000305175781,398.0000305175781,398.0000305175781,398.0000305175781,398.0000305175781,398.0000305175781,398.0000305175781,398.0000305175781,398.0000305175781,398.0000305175781,398.0000305175781,398.0000305175781,398.0000305175781,398.0000305175781,398.0000305175781,398.66668701171875,398.66668701171875,398.66668701171875,398.66668701171875,398.66668701171875,398.66668701171875,398.66668701171875,398.66668701171875,398.66668701171875,398.66668701171875,398.66668701171875,398.66668701171875,398.66668701171875,398.66668701171875,398.66668701171875,398.66668701171875,398.66668701171875,398.66668701171875,398.66668701171875,398.66668701171875,398.66668701171875,398.66668701171875,398.66668701171875,398.66668701171875,398.66668701171875,397.3333435058594,397.3333435058594,397.3333435058594,396.66668701171875,392.66668701171875,372.66668701171875,362.66668701171875,356.0000305175781,341.3333435058594,320.0000305175781,293.3333435058594,286.6667175292969,276.6667175292969,260.6667175292969,255.3333282470703,240.6666717529297,216.6666717529297,195.3333282470703,184.6666717529297,165.33334350585938,141.33334350585938,112.66667175292969],"ymouse":[824.0000610351562,824.0000610351562,824.0000610351562,824.0000610351562,824.0000610351562,824.0000610351562,824.0000610351562,824.0000610351562,824.0000610351562,824.0000610351562,824.0000610351562,824.0000610351562,824.0000610351562,824.0000610351562,824.0000610351562,824.0000610351562,824.0000610351562,824.0000610351562,824.0000610351562,824.0000610351562,824.0000610351562,824.0000610351562,824.0000610351562,824.0000610351562,824.0000610351562,824.0000610351562,824.0000610351562,824.0000610351562,823.3333740234375,823.3333740234375,823.3333740234375,823.3333740234375,823.3333740234375,823.3333740234375,823.3333740234375,823.3333740234375,823.3333740234375,823.3333740234375,823.3333740234375,814.0000610351562,814.0000610351562,814.0000610351562,814.0000610351562,808.6666870117188,807.3333740234375,804.6666870117188,802.6666870117188,790.6666870117188,741.3333740234375,710,694,659.3333740234375,618,538,509.3333740234375,456,402.66668701171875,378.66668701171875,327.3333435058594,257.3333435058594,208,185.33334350585938,149.33334350585938,122,95.33333587646484],"timestamp_mouse":[2,29,41,60,80,100,120,140,160,180,200,220,240,260,281,300,320,340,360,380,400,420,440,460,480,500,520,540,563,580,600,620,640,660,680,700,720,740,760,781,800,820,840,860,880,900,920,940,960,980,1000,1020,1040,1061,1081,1100,1120,1141,1160,1180,1200,1220,1240,1260,1280],"xSR":350,"ySR":768,"xT1":30,"yT1":0,"xT2":670,"yT2":0,"toosoon":0,"cond_shown":"equaldotsize","ratio_trial":250,"smaller_num":"2","larger_num":"8","correct_side":1,"subjID":"49wm","gender":"No_gender","age":"No_age","school":"No_school"},{"start_time":1549382416425,"click_time":1549382417402,"finger_time":1549382416984,"fix_duration":542.4588976288229,"trial":33,"RT":559,"MT":418,"sideResp":2,"stimulus":"img/750/equaldotsize/R/2_Ratio_750_L_6_R_8.png","xmouse":[386,386,385.3333435058594,385.3333435058594,384.66668701171875,384.66668701171875,384,384,384,384,383.3333435058594,382.66668701171875,382.66668701171875,382,382,382,381.3333435058594,381.3333435058594,381.3333435058594,381.3333435058594,381.3333435058594,381.3333435058594,378.66668701171875,374.66668701171875,372.66668701171875,370.66668701171875,369.3333435058594,367.3333435058594,367.3333435058594,367.3333435058594,367.3333435058594,368,368,368,368,368,416,438.66668701171875,472,485.3333435058594,510,534,574.6666870117188,600,614,642.6666870117188,656.6666870117188,707.3333740234375,717.3333740234375],"ymouse":[830.6666870117188,830.6666870117188,830.6666870117188,830.6666870117188,830.6666870117188,830.6666870117188,830.6666870117188,830,830,829.3333740234375,829.3333740234375,829.3333740234375,829.3333740234375,829.3333740234375,829.3333740234375,829.3333740234375,829.3333740234375,828.6666870117188,828.6666870117188,828,827.3333740234375,826,818.6666870117188,804,796.6666870117188,783.3333740234375,778.0000610351562,754.6666870117188,750.6666870117188,745.3333740234375,741.3333740234375,740,740,740,740,740,642.6666870117188,599.3333740234375,535.3333740234375,514.6666870117188,469.3333435058594,420,348,296,271.3333435058594,223.33334350585938,200.6666717529297,116,98.66667175292969],"timestamp_mouse":[17,38,57,77,97,117,137,157,177,197,218,237,257,277,298,317,337,357,378,397,417,437,457,477,497,517,537,559,577,597,617,637,657,677,697,717,737,757,777,797,817,837,858,877,897,917,937,959,977],"xSR":350,"ySR":768,"xT1":30,"yT1":0,"xT2":670,"yT2":0,"toosoon":0,"cond_shown":"equaldotsize","ratio_trial":750,"smaller_num":"6","larger_num":"8","correct_side":2,"subjID":"49wm","gender":"No_gender","age":"No_age","school":"No_school"},{"start_time":1549382419234,"click_time":1549382420342,"finger_time":1549382419902,"fix_duration":250,"trial":34,"RT":668,"MT":440,"sideResp":1,"stimulus":"img/900/equaldotanddens/L/2_Ratio_900_L_20_R_18.png","xmouse":[398,398,398,398,398,398,398,398,398,398,398,398,398,398,398,398,398,398,398,398,398,398,398,398,398,398,398,398,390.66668701171875,390.66668701171875,390.66668701171875,390.66668701171875,390.66668701171875,371.3333435058594,369.3333435058594,369.3333435058594,355.3333435058594,351.3333435058594,331.3333435058594,313.3333435058594,294.66668701171875,286,272.66668701171875,254,238,228,217.33334350585938,203.33334350585938,188,180,168.6666717529297,155.33334350585938,145.33334350585938,125.33334350585938,113.33333587646484,101.33333587646484],"ymouse":[804,804,804,804,804,804,804,804,804,804,804,804,804,804,804,804,804,804,804,804,804,804,804,804,804,804,804,804,799.3333129882812,799.3333129882812,799.3333129882812,799.3333129882812,799.3333129882812,766,760.6666870117188,760.6666870117188,733.3333740234375,726,690,651.3333740234375,600,572.6666870117188,521.3333740234375,452.66668701171875,408,383.3333435058594,340,294.66668701171875,236,216.6666717529297,184.6666717529297,158,145.33334350585938,118.66667175292969,104,86],"timestamp_mouse":[11,33,48,68,88,108,128,148,168,188,208,229,249,268,288,308,328,348,368,388,408,428,448,468,489,508,528,548,572,588,608,628,648,668,689,708,728,748,770,788,808,829,848,869,888,908,928,948,969,988,1008,1028,1048,1070,1088,1108],"xSR":350,"ySR":768,"xT1":30,"yT1":0,"xT2":670,"yT2":0,"toosoon":0,"cond_shown":"equaldotanddens","ratio_trial":900,"smaller_num":"18","larger_num":"20","correct_side":1,"subjID":"49wm","gender":"No_gender","age":"No_age","school":"No_school"},{"start_time":1549382422055,"click_time":1549382422902,"finger_time":1549382422662,"fix_duration":711.504610969275,"trial":35,"RT":607,"MT":240,"sideResp":2,"stimulus":"img/500/randomdotsize/R/15_Ratio_500_L_1_R_2.png","xmouse":[381.3333435058594,381.3333435058594,381.3333435058594,381.3333435058594,381.3333435058594,381.3333435058594,381.3333435058594,381.3333435058594,381.3333435058594,381.3333435058594,381.3333435058594,381.3333435058594,381.3333435058594,381.3333435058594,381.3333435058594,381.3333435058594,381.3333435058594,380.66668701171875,380.66668701171875,380.66668701171875,380.66668701171875,380.66668701171875,380.66668701171875,380.66668701171875,380.66668701171875,380.66668701171875,380.66668701171875,385.3333435058594,385.3333435058594,385.3333435058594,402.66668701171875,421.3333435058594,431.3333435058594,476,487.3333435058594,514,526.6666870117188,550,589.3333740234375,616,642.6666870117188,656.6666870117188,682.6666870117188],"ymouse":[826.6666870117188,826.6666870117188,826.6666870117188,826.6666870117188,826.6666870117188,826.6666870117188,826.6666870117188,827.3333740234375,827.3333740234375,827.3333740234375,827.3333740234375,827.3333740234375,827.3333740234375,827.3333740234375,827.3333740234375,827.3333740234375,827.3333740234375,826.6666870117188,826.6666870117188,826.6666870117188,826.6666870117188,826.6666870117188,826.6666870117188,826.6666870117188,826.6666870117188,826.6666870117188,826.6666870117188,816,816,816,763.3333740234375,713.3333740234375,683.3333740234375,560.6666870117188,530,466,433.3333435058594,372,280,222,167.33334350585938,141.33334350585938,93.33333587646484],"timestamp_mouse":[10,28,47,67,87,107,127,148,167,187,207,227,247,268,287,307,327,347,367,387,407,427,447,467,487,507,528,547,569,587,607,627,647,669,687,707,727,747,768,787,807,828,847],"xSR":350,"ySR":768,"xT1":30,"yT1":0,"xT2":670,"yT2":0,"toosoon":0,"cond_shown":"randomdotsize","ratio_trial":500,"smaller_num":"1","larger_num":"2","correct_side":2,"subjID":"49wm","gender":"No_gender","age":"No_age","school":"No_school"},{"start_time":1549382424476,"click_time":1549382425723,"finger_time":1549382425522,"fix_duration":612.4436442858389,"trial":36,"RT":1046,"MT":201,"sideResp":2,"stimulus":"img/900/equaldotsize/L/10_Ratio_900_L_20_R_18.png","xmouse":[392,392,392,392,392,392,392,392,392,392,392,392,392,392,392,392,392,392,392,392,392,392,392,392,392,392,392,392,392,392,392,392,392,392,392,392,392,392,392,386,386,385.3333435058594,385.3333435058594,385.3333435058594,386,386,386.66668701171875,388,390,392,394,404,412.66668701171875,458.66668701171875,472,505.3333435058594,532,548.6666870117188,608,623.3333740234375,658,674.6666870117188,706],"ymouse":[858,858,858,858,858,858,858,858,858,857.3333740234375,857.3333740234375,857.3333740234375,857.3333740234375,857.3333740234375,857.3333740234375,857.3333740234375,857.3333740234375,857.3333740234375,857.3333740234375,856.6666870117188,856.6666870117188,856.6666870117188,856.6666870117188,856.6666870117188,856.6666870117188,856.6666870117188,856.6666870117188,856.6666870117188,856.6666870117188,855.3333740234375,855.3333740234375,855.3333740234375,855.3333740234375,855.3333740234375,855.3333740234375,855.3333740234375,855.3333740234375,855.3333740234375,855.3333740234375,844,842,841.3333740234375,839.3333740234375,836.6666870117188,835.3333740234375,833.3333740234375,832,830.6666870117188,827.3333740234375,823.3333740234375,816,776.6666870117188,747.3333740234375,607.3333740234375,568,494,414,378.66668701171875,241.33334350585938,208,147.33334350585938,120,69.33333587646484],"timestamp_mouse":[8,29,46,66,86,106,126,146,166,186,206,226,246,266,286,306,326,347,366,386,406,426,446,466,486,506,526,546,566,586,606,626,646,668,687,706,726,746,766,787,806,826,847,866,886,906,926,946,966,986,1006,1026,1046,1066,1086,1106,1126,1146,1170,1186,1206,1226,1247],"xSR":350,"ySR":768,"xT1":30,"yT1":0,"xT2":670,"yT2":0,"toosoon":0,"cond_shown":"equaldotsize","ratio_trial":900,"smaller_num":"18","larger_num":"20","correct_side":1,"subjID":"49wm","gender":"No_gender","age":"No_age","school":"No_school"},{"start_time":1549382428464,"click_time":1549382429423,"finger_time":1549382429102,"fix_duration":1241.24922015206,"trial":37,"RT":638,"MT":321,"sideResp":2,"stimulus":"img/750/equaldotsize/R/12_Ratio_750_L_3_R_4.png","xmouse":[374,374,374,374,374,374,374,374,374,374,374,374,374,374,374,374,374,374,374,374,374,374,374,374,374,374,379.3333435058594,379.3333435058594,379.3333435058594,379.3333435058594,379.3333435058594,401.3333435058594,408,426.66668701171875,456.66668701171875,478,501.3333435058594,512.6666870117188,532,565.3333740234375,584.6666870117188,595.3333740234375,612.6666870117188,629.3333740234375,656.6666870117188,677.3333740234375,686.6666870117188,702.6666870117188],"ymouse":[832,832,832,832,832,832,832,832,832,832,832,832,832,832,832,832,832,832,832,832,832,832,832,832,832,832,826,824.6666870117188,824.6666870117188,824.6666870117188,824.6666870117188,760,738,688,608.6666870117188,549.3333740234375,494,467.3333435058594,418,347.3333435058594,304,282.66668701171875,246.66668701171875,211.33334350585938,164.6666717529297,133.33334350585938,118,97.33333587646484],"timestamp_mouse":[26,38,58,78,98,118,138,158,179,198,218,238,258,278,298,319,338,359,378,398,418,438,458,478,498,518,539,558,578,598,618,638,658,678,700,719,738,758,778,800,818,838,858,879,899,918,938,958],"xSR":350,"ySR":768,"xT1":30,"yT1":0,"xT2":670,"yT2":0,"toosoon":0,"cond_shown":"equaldotsize","ratio_trial":750,"smaller_num":"3","larger_num":"4","correct_side":2,"subjID":"49wm","gender":"No_gender","age":"No_age","school":"No_school"},{"start_time":1549382431762,"click_time":1549382432842,"finger_time":1549382432442,"fix_duration":1399.6405603060023,"trial":38,"RT":680,"MT":400,"sideResp":2,"stimulus":"img/900/randomdotsizeEA/L/8_Ratio_900_L_20_R_18.png","xmouse":[404,401.3333435058594,401.3333435058594,401.3333435058594,401.3333435058594,401.3333435058594,401.3333435058594,401.3333435058594,401.3333435058594,401.3333435058594,401.3333435058594,401.3333435058594,401.3333435058594,401.3333435058594,401.3333435058594,401.3333435058594,401.3333435058594,401.3333435058594,401.3333435058594,401.3333435058594,401.3333435058594,401.3333435058594,401.3333435058594,401.3333435058594,401.3333435058594,401.3333435058594,401.3333435058594,401.3333435058594,401.3333435058594,402,402.66668701171875,404.66668701171875,406.66668701171875,416,427.3333435058594,433.3333435058594,457.3333435058594,476,492.66668701171875,504,524.6666870117188,554.6666870117188,574,597.3333740234375,604.6666870117188,624.6666870117188,631.3333740234375,660,666,677.3333740234375,684.6666870117188,686.6666870117188,694.6666870117188,700.6666870117188,706],"ymouse":[833.3333740234375,836.0000610351562,836.0000610351562,836.0000610351562,836.0000610351562,836.0000610351562,836.0000610351562,836.0000610351562,836.0000610351562,836.0000610351562,836.0000610351562,837.3333740234375,837.3333740234375,837.3333740234375,837.3333740234375,837.3333740234375,837.3333740234375,837.3333740234375,837.3333740234375,837.3333740234375,837.3333740234375,836.6666870117188,836.6666870117188,836.6666870117188,836.6666870117188,836.6666870117188,836.6666870117188,836.6666870117188,836.6666870117188,832,832,828.6666870117188,826.6666870117188,805.3333740234375,764.6666870117188,741.3333740234375,669.3333740234375,616.6666870117188,562.6666870117188,535.3333740234375,483.3333435058594,407.3333435058594,356.66668701171875,310.66668701171875,289.3333435058594,250,234,178,164.6666717529297,147.33334350585938,131.33334350585938,126,112.66667175292969,102.66667175292969,94.66667175292969],"timestamp_mouse":[3,20,40,60,80,100,120,140,160,180,201,220,240,260,280,300,320,340,360,381,400,422,440,460,480,500,520,540,560,580,600,622,640,660,680,700,723,740,760,780,800,822,840,862,880,900,920,941,960,980,1000,1021,1042,1060,1080],"xSR":350,"ySR":768,"xT1":30,"yT1":0,"xT2":670,"yT2":0,"toosoon":0,"cond_shown":"randomdotsizeEA","ratio_trial":900,"smaller_num":"18","larger_num":"20","correct_side":1,"subjID":"49wm","gen