[{"start_time":1551791593393,"click_time":1551791595318,"finger_time":1551791594678,"fix_duration":751.1359114402896,"trial":0,"RT":1285,"MT":640,"sideResp":2,"stimulus":"img/500/equaldotsize/R/12_Ratio_500_L_1_R_2.png","xmouse":[670,670,670,670,670,670,670,670,670,670,670,670,670,670,670,670,670,670,670,670,670,670,670,670,670,670,670,670,670,670,670,670,670,670,670,670,670,670,670,670,670,670,670,670,670,670,670,670,670,670,670,670,670,670,670,670,670,670,670,670,673,675,678,706,736,773,782,811,838,845,848,851,863,876,880,894,897,911,917,923,925,927,928,928,929,930,930,930,930,928,928,928,928,928,928,927,926],"ymouse":[399,399,399,399,399,399,399,399,399,399,399,399,399,399,399,399,399,399,399,399,399,399,399,399,399,399,399,399,399,399,399,399,399,399,399,399,399,399,399,399,399,399,399,399,399,399,399,399,399,399,399,399,399,399,399,399,399,399,399,399,399,399,399,392,382,367,360,328,307,300,297,289,279,270,265,255,246,220,212,196,190,175,156,144,140,129,123,112,109,106,106,106,106,105,104,101,99],"timestamp_mouse":[9,40,45,65,84,105,125,146,164,185,206,225,246,266,285,305,324,346,366,386,404,424,446,465,485,505,526,545,565,586,605,626,646,665,684,704,724,744,764,786,805,825,846,866,886,906,925,945,965,984,1004,1025,1044,1065,1085,1105,1125,1144,1165,1184,1206,1226,1245,1265,1285,1304,1325,1345,1364,1384,1404,1424,1445,1465,1486,1504,1525,1544,1564,1585,1605,1624,1645,1665,1684,1705,1724,1745,1764,1785,1805,1824,1844,1866,1886,1905,1925],"xSR":624.5,"ySR":363.35,"xT1":354.7,"yT1":0,"xT2":894.3,"yT2":0,"toosoon":0,"cond_shown":"equaldotsize","ratio_trial":500,"smaller_num":"1","larger_num":"2","correct_side":2,"subjID":"juanfelipemoncadadiab","gender":"0","age":"11","school":"6","test":{"fix_dur":[250,1500],"timestim":300,"targets_dim":[100,100],"targets_relative_coord":[0.3,0.7],"size_stim":[880,420],"start_dim":[100,100],"size_start":[300,300],"size_fix":60,"samplingrate":20,"img_types":["equaldotsize","equaldotanddens","randomdotsizeEA"],"ratios":[250,500,750,900],"rep_conds":9,"nTrials":120,"trials_to_rest":500,"Trials_order":[39,119,62,101,72,61,116,89,100,118,90,44,18,59,52,13,36,110,109,2,111,42,106,108,25,68,0,1,99,11,107,82,103,48,47,45,91,114,23,4,10,76,16,87,51,53,117,21,70,14,112,26,56,93,60,64,27,75,97,95,12,29,54,73,7,5,28,35,79,105,102,33,17,9,115,15,96,74,83,43,38,77,66,32,80,50,49,19,55,22,20,57,67,113,46,104,85,78,30,81,94,37,24,71,3,98,63,92,34,41,8,84,58,31,40,6,69,65,86,88],"cond_shown":["equaldotsize","randomdotsizeEA","randomdotsizeEA","randomdotsizeEA","equaldotsize","equaldotanddens","randomdotsizeEA","randomdotsizeEA","equaldotanddens","equaldotanddens","equaldotsize","randomdotsizeEA","equaldotsize","randomdotsizeEA","equaldotanddens","equaldotanddens","equaldotsize","randomdotsizeEA","equaldotanddens","randomdotsizeEA","equaldotsize","equaldotsize","equaldotanddens","equaldotsize","equaldotanddens","randomdotsizeEA","equaldotsize","equaldotanddens","equaldotsize","randomdotsizeEA","randomdotsizeEA","equaldotanddens","equaldotanddens","equaldotsize","randomdotsizeEA","equaldotsize","equaldotanddens","equaldotsize","randomdotsizeEA","equaldotanddens","equaldotanddens","equaldotanddens","equaldotanddens","equaldotsize","equaldotsize","randomdotsizeEA","equaldotsize","equaldotsize","equaldotanddens","randomdotsizeEA","equaldotanddens","randomdotsizeEA","randomdotsizeEA","equaldotsize","equaldotsize","equaldotanddens","equaldotsize","equaldotsize","equaldotanddens","randomdotsizeEA","equaldotsize","randomdotsizeEA","equaldotsize","equaldotanddens","equaldotanddens","randomdotsizeEA","equaldotanddens","randomdotsizeEA","equaldotanddens","equaldotsize","equaldotsize","equaldotsize","randomdotsizeEA","equaldotsize","equaldotanddens","equaldotsize","equaldotsize","randomdotsizeEA","randomdotsizeEA","equaldotanddens","randomdotsizeEA","randomdotsizeEA","equaldotsize","randomdotsizeEA","randomdotsizeEA","randomdotsizeEA","equaldotanddens","equaldotanddens","equaldotanddens","equaldotanddens","randomdotsizeEA","equaldotsize","equaldotanddens","randomdotsizeEA","equaldotanddens","randomdotsizeEA","equaldotanddens","equaldotsize","equaldotsize","equaldotsize","equaldotanddens","equaldotanddens","equaldotsize","randomdotsizeEA","equaldotsize","randomdotsizeEA","equaldotsize","randomdotsizeEA","equaldotanddens","randomdotsizeEA","randomdotsizeEA","equaldotsize","equaldotanddens","equaldotanddens","equaldotanddens","equaldotsize","equaldotsize","randomdotsizeEA","randomdotsizeEA","equaldotanddens"],"ratio_trial":[500,900,250,500,250,250,750,500,500,900,750,750,750,900,500,250,250,250,250,250,500,750,900,250,250,750,250,250,500,900,900,900,750,250,900,900,750,750,900,500,900,500,500,500,500,500,900,900,900,250,500,250,750,900,250,500,500,500,250,900,250,500,750,250,750,500,500,900,750,900,750,900,500,900,750,500,250,250,900,750,250,500,750,750,750,250,250,750,750,900,750,900,750,500,900,750,250,750,750,900,900,250,250,900,500,250,500,750,900,500,750,250,900,750,500,750,900,500,250,500],"smaller_num":["1","9","6","10","1","2","6","4","6","18","6","15","6","18","2","3","3","3","3","3","9","15","18","2","5","18","2","2","6","18","18","18","15","6","9","18","12","3","18","5","9","1","2","6","5","10","18","18","18","4","6","2","3","9","2","9","9","1","6","18","2","6","3","4","3","2","10","9","15","18","12","18","2","18","15","9","4","5","18","3","6","5","18","15","15","2","4","3","12","9","15","9","9","9","18","3","3","18","3","9","18","3","4","9","9","2","2","3","18","5","15","3","18","6","2","3","9","2","4","4"],"larger_num":["2","10","24","20","4","8","8","8","12","20","8","20","8","20","4","12","12","12","12","12","18","20","20","8","20","24","8","8","12","20","20","20","20","24","10","20","16","4","20","10","10","2","4","12","10","20","20","20","20","16","12","8","4","10","8","18","18","2","24","20","8","12","4","16","4","4","20","10","20","20","16","20","4","20","20","18","16","20","20","4","24","10","24","20","20","8","16","4","16","10","20","10","12","18","20","4","12","24","4","10","20","12","16","10","18","8","4","4","20","10","20","12","20","8","4","4","10","4","16","8"],"correct_side":[2,2,2,2,2,1,1,1,1,1,1,2,1,2,1,2,1,2,2,2,2,2,2,1,2,1,2,1,1,1,1,1,2,1,2,2,2,2,1,2,1,2,1,1,1,2,2,1,1,1,1,1,1,2,1,2,2,2,1,2,1,1,1,1,2,1,2,2,2,2,2,1,2,2,2,1,2,2,1,1,2,2,1,2,2,1,1,1,2,2,1,1,2,2,1,1,2,1,2,2,1,1,1,2,2,1,2,1,1,1,1,1,2,1,1,2,1,2,1,1],"img_shown":["img/500/equaldotsize/R/12_Ratio_500_L_1_R_2.png","img/900/randomdotsizeEA/R/6_Ratio_900_L_9_R_10.png","img/250/randomdotsizeEA/R/6_Ratio_250_L_6_R_24.png","img/500/randomdotsizeEA/R/3_Ratio_500_L_10_R_20.png","img/250/equaldotsize/R/8_Ratio_250_L_1_R_4.png","img/250/equaldotanddens/L/7_Ratio_250_L_8_R_2.png","img/750/randomdotsizeEA/L/13_Ratio_750_L_8_R_6.png","img/500/randomdotsizeEA/L/8_Ratio_500_L_8_R_4.png","img/500/equaldotanddens/L/11_Ratio_500_L_12_R_6.png","img/900/equaldotanddens/L/10_Ratio_900_L_20_R_18.png","img/750/equaldotsize/L/14_Ratio_750_L_8_R_6.png","img/750/randomdotsizeEA/R/5_Ratio_750_L_15_R_20.png","img/750/equaldotsize/L/14_Ratio_750_L_8_R_6.png","img/900/randomdotsizeEA/R/14_Ratio_900_L_18_R_20.png","img/500/equaldotanddens/L/5_Ratio_500_L_4_R_2.png","img/250/equaldotanddens/R/9_Ratio_250_L_3_R_12.png","img/250/equaldotsize/L/14_Ratio_250_L_12_R_3.png","img/250/randomdotsizeEA/R/4_Ratio_250_L_3_R_12.png","img/250/equaldotanddens/R/11_Ratio_250_L_3_R_12.png","img/250/randomdotsizeEA/R/4_Ratio_250_L_3_R_12.png","img/500/equaldotsize/R/6_Ratio_500_L_9_R_18.png","img/750/equaldotsize/R/3_Ratio_750_L_15_R_20.png","img/900/equaldotanddens/R/12_Ratio_900_L_18_R_20.png","img/250/equaldotsize/L/7_Ratio_250_L_8_R_2.png","img/250/equaldotanddens/R/12_Ratio_250_L_5_R_20.png","img/750/randomdotsizeEA/L/6_Ratio_750_L_24_R_18.png","img/250/equaldotsize/R/13_Ratio_250_L_2_R_8.png","img/250/equaldotanddens/L/7_Ratio_250_L_8_R_2.png","img/500/equaldotsize/L/13_Ratio_500_L_12_R_6.png","img/900/randomdotsizeEA/L/10_Ratio_900_L_20_R_18.png","img/900/randomdotsizeEA/L/2_Ratio_900_L_20_R_18.png","img/900/equaldotanddens/L/2_Ratio_900_L_20_R_18.png","img/750/equaldotanddens/R/5_Ratio_750_L_15_R_20.png","img/250/equaldotsize/L/5_Ratio_250_L_24_R_6.png","img/900/randomdotsizeEA/R/7_Ratio_900_L_9_R_10.png","img/900/equaldotsize/R/14_Ratio_900_L_18_R_20.png","img/750/equaldotanddens/R/11_Ratio_750_L_12_R_16.png","img/750/equaldotsize/R/7_Ratio_750_L_3_R_4.png","img/900/randomdotsizeEA/L/8_Ratio_900_L_20_R_18.png","img/500/equaldotanddens/R/14_Ratio_500_L_5_R_10.png","img/900/equaldotanddens/L/1_Ratio_900_L_10_R_9.png","img/500/equaldotanddens/R/15_Ratio_500_L_1_R_2.png","img/500/equaldotanddens/L/5_Ratio_500_L_4_R_2.png","img/500/equaldotsize/L/13_Ratio_500_L_12_R_6.png","img/500/equaldotsize/L/7_Ratio_500_L_10_R_5.png","img/500/randomdotsizeEA/R/3_Ratio_500_L_10_R_20.png","img/900/equaldotsize/R/14_Ratio_900_L_18_R_20.png","img/900/equaldotsize/L/2_Ratio_900_L_20_R_18.png","img/900/equaldotanddens/L/4_Ratio_900_L_20_R_18.png","img/250/randomdotsizeEA/L/2_Ratio_250_L_16_R_4.png","img/500/equaldotanddens/L/11_Ratio_500_L_12_R_6.png","img/250/randomdotsizeEA/L/3_Ratio_250_L_8_R_2.png","img/750/randomdotsizeEA/L/10_Ratio_750_L_4_R_3.png","img/900/equaldotsize/R/5_Ratio_900_L_9_R_10.png","img/250/equaldotsize/L/7_Ratio_250_L_8_R_2.png","img/500/equaldotanddens/R/6_Ratio_500_L_9_R_18.png","img/500/equaldotsize/R/6_Ratio_500_L_9_R_18.png","img/500/equaldotsize/R/15_Ratio_500_L_1_R_2.png","img/250/equaldotanddens/L/5_Ratio_250_L_24_R_6.png","img/900/randomdotsizeEA/R/9_Ratio_900_L_18_R_20.png","img/250/equaldotsize/L/7_Ratio_250_L_8_R_2.png","img/500/randomdotsizeEA/L/13_Ratio_500_L_12_R_6.png","img/750/equaldotsize/L/9_Ratio_750_L_4_R_3.png","img/250/equaldotanddens/L/2_Ratio_250_L_16_R_4.png","img/750/equaldotanddens/R/12_Ratio_750_L_3_R_4.png","img/500/randomdotsizeEA/L/5_Ratio_500_L_4_R_2.png","img/500/equaldotanddens/R/3_Ratio_500_L_10_R_20.png","img/900/randomdotsizeEA/R/7_Ratio_900_L_9_R_10.png","img/750/equaldotanddens/R/5_Ratio_750_L_15_R_20.png","img/900/equaldotsize/R/12_Ratio_900_L_18_R_20.png","img/750/equaldotsize/R/11_Ratio_750_L_12_R_16.png","img/900/equaldotsize/L/2_Ratio_900_L_20_R_18.png","img/500/randomdotsizeEA/R/9_Ratio_500_L_2_R_4.png","img/900/equaldotsize/R/12_Ratio_900_L_18_R_20.png","img/750/equaldotanddens/R/3_Ratio_750_L_15_R_20.png","img/500/equaldotsize/L/4_Ratio_500_L_18_R_9.png","img/250/equaldotsize/R/10_Ratio_250_L_4_R_16.png","img/250/randomdotsizeEA/R/12_Ratio_250_L_5_R_20.png","img/900/randomdotsizeEA/L/8_Ratio_900_L_20_R_18.png","img/750/equaldotanddens/L/9_Ratio_750_L_4_R_3.png","img/250/randomdotsizeEA/R/6_Ratio_250_L_6_R_24.png","img/500/randomdotsizeEA/R/14_Ratio_500_L_5_R_10.png","img/750/equaldotsize/L/6_Ratio_750_L_24_R_18.png","img/750/randomdotsizeEA/R/4_Ratio_750_L_15_R_20.png","img/750/randomdotsizeEA/R/4_Ratio_750_L_15_R_20.png","img/250/randomdotsizeEA/L/7_Ratio_250_L_8_R_2.png","img/250/equaldotanddens/L/2_Ratio_250_L_16_R_4.png","img/750/equaldotanddens/L/10_Ratio_750_L_4_R_3.png","img/750/equaldotanddens/R/11_Ratio_750_L_12_R_16.png","img/900/equaldotanddens/R/5_Ratio_900_L_9_R_10.png","img/750/randomdotsizeEA/L/1_Ratio_750_L_20_R_15.png","img/900/equaldotsize/L/1_Ratio_900_L_10_R_9.png","img/750/equaldotanddens/R/15_Ratio_750_L_9_R_12.png","img/500/randomdotsizeEA/R/1_Ratio_500_L_9_R_18.png","img/900/equaldotanddens/L/10_Ratio_900_L_20_R_18.png","img/750/randomdotsizeEA/L/9_Ratio_750_L_4_R_3.png","img/250/equaldotanddens/R/4_Ratio_250_L_3_R_12.png","img/750/equaldotsize/L/6_Ratio_750_L_24_R_18.png","img/750/equaldotsize/R/12_Ratio_750_L_3_R_4.png","img/900/equaldotsize/R/3_Ratio_900_L_9_R_10.png","img/900/equaldotanddens/L/8_Ratio_900_L_20_R_18.png","img/250/equaldotanddens/L/15_Ratio_250_L_12_R_3.png","img/250/equaldotsize/L/2_Ratio_250_L_16_R_4.png","img/900/randomdotsizeEA/R/5_Ratio_900_L_9_R_10.png","img/500/equaldotsize/R/1_Ratio_500_L_9_R_18.png","img/250/randomdotsizeEA/L/3_Ratio_250_L_8_R_2.png","img/500/equaldotsize/R/9_Ratio_500_L_2_R_4.png","img/750/randomdotsizeEA/L/8_Ratio_750_L_4_R_3.png","img/900/equaldotanddens/L/10_Ratio_900_L_20_R_18.png","img/500/randomdotsizeEA/L/7_Ratio_500_L_10_R_5.png","img/750/randomdotsizeEA/L/1_Ratio_750_L_20_R_15.png","img/250/equaldotsize/L/14_Ratio_250_L_12_R_3.png","img/900/equaldotanddens/R/13_Ratio_900_L_18_R_20.png","img/750/equaldotanddens/L/14_Ratio_750_L_8_R_6.png","img/500/equaldotanddens/L/5_Ratio_500_L_4_R_2.png","img/750/equaldotsize/R/7_Ratio_750_L_3_R_4.png","img/900/equaldotsize/L/1_Ratio_900_L_10_R_9.png","img/500/randomdotsizeEA/R/9_Ratio_500_L_2_R_4.png","img/250/randomdotsizeEA/L/2_Ratio_250_L_16_R_4.png","img/500/equaldotanddens/L/8_Ratio_500_L_8_R_4.png"],"Rat0":[["12_Ratio_0_L_9_R_0.png","13_Ratio_0_L_6_R_0.png","5_Ratio_0_L_2_R_0.png","6_Ratio_0_L_4_R_0.png","8_Ratio_0_L_6_R_0.png"],["1_Ratio_0_L_0_R_17.png","10_Ratio_0_L_0_R_22.png","11_Ratio_0_L_0_R_1.png","14_Ratio_0_L_0_R_24.png","15_Ratio_0_L_0_R_4.png","2_Ratio_0_L_0_R_5.png","3_Ratio_0_L_0_R_17.png","4_Ratio_0_L_0_R_7.png","7_Ratio_0_L_0_R_19.png","9_Ratio_0_L_0_R_15.png"]],"Rat250":[["1_Ratio_250_L_8_R_2.png","14_Ratio_250_L_12_R_3.png","15_Ratio_250_L_12_R_3.png","2_Ratio_250_L_16_R_4.png","3_Ratio_250_L_8_R_2.png","5_Ratio_250_L_24_R_6.png","7_Ratio_250_L_8_R_2.png"],["10_Ratio_250_L_4_R_16.png","11_Ratio_250_L_3_R_12.png","12_Ratio_250_L_5_R_20.png","13_Ratio_250_L_2_R_8.png","4_Ratio_250_L_3_R_12.png","6_Ratio_250_L_6_R_24.png","8_Ratio_250_L_1_R_4.png","9_Ratio_250_L_3_R_12.png"]],"Rat500":[["10_Ratio_500_L_4_R_2.png","11_Ratio_500_L_12_R_6.png","13_Ratio_500_L_12_R_6.png","4_Ratio_500_L_18_R_9.png","5_Ratio_500_L_4_R_2.png","7_Ratio_500_L_10_R_5.png","8_Ratio_500_L_8_R_4.png"],["1_Ratio_500_L_9_R_18.png","12_Ratio_500_L_1_R_2.png","14_Ratio_500_L_5_R_10.png","15_Ratio_500_L_1_R_2.png","2_Ratio_500_L_3_R_6.png","3_Ratio_500_L_10_R_20.png","6_Ratio_500_L_9_R_18.png","9_Ratio_500_L_2_R_4.png"]],"Rat750":[["1_Ratio_750_L_20_R_15.png","10_Ratio_750_L_4_R_3.png","13_Ratio_750_L_8_R_6.png","14_Ratio_750_L_8_R_6.png","6_Ratio_750_L_24_R_18.png","8_Ratio_750_L_4_R_3.png","9_Ratio_750_L_4_R_3.png"],["11_Ratio_750_L_12_R_16.png","12_Ratio_750_L_3_R_4.png","15_Ratio_750_L_9_R_12.png","2_Ratio_750_L_6_R_8.png","3_Ratio_750_L_15_R_20.png","4_Ratio_750_L_15_R_20.png","5_Ratio_750_L_15_R_20.png","7_Ratio_750_L_3_R_4.png"]],"Rat900":[["1_Ratio_900_L_10_R_9.png","10_Ratio_900_L_20_R_18.png","2_Ratio_900_L_20_R_18.png","4_Ratio_900_L_20_R_18.png","8_Ratio_900_L_20_R_18.png"],["11_Ratio_900_L_18_R_20.png","12_Ratio_900_L_18_R_20.png","13_Ratio_900_L_18_R_20.png","14_Ratio_900_L_18_R_20.png","15_Ratio_900_L_9_R_10.png","3_Ratio_900_L_9_R_10.png","5_Ratio_900_L_9_R_10.png","6_Ratio_900_L_9_R_10.png","7_Ratio_900_L_9_R_10.png","9_Ratio_900_L_18_R_20.png"]],"Rat1000":[["10_Ratio_1000_L_16_R_16.png","11_Ratio_1000_L_6_R_6.png","12_Ratio_1000_L_14_R_14.png","13_Ratio_1000_L_20_R_20.png","15_Ratio_1000_L_15_R_15.png","2_Ratio_1000_L_17_R_17.png","4_Ratio_1000_L_9_R_9.png","5_Ratio_1000_L_6_R_6.png","6_Ratio_1000_L_19_R_19.png","8_Ratio_1000_L_14_R_14.png","9_Ratio_1000_L_25_R_25.png"],["1_Ratio_1000_L_1_R_1.png","14_Ratio_1000_L_17_R_17.png","3_Ratio_1000_L_17_R_17.png","7_Ratio_1000_L_6_R_6.png"]]}},{"start_time":1551791597700,"click_time":1551791601318,"finger_time":1551791600859,"fix_duration":921.2833549198859,"trial":1,"RT":3159,"MT":459,"sideResp":2,"stimulus":"img/900/randomdotsizeEA/R/6_Ratio_900_L_9_R_10.png","xmouse":[711,711,711,711,711,710,710,710,710,709,709,709,709,709,709,709,709,709,709,709,709,709,709,709,709,709,709,709,709,709,709,707,700,700,700,700,700,700,700,700,700,700,700,700,700,700,700,700,700,700,700,700,700,700,700,700,700,700,700,700,700,700,700,700,700,700,700,700,700,700,700,700,700,700,700,700,700,700,700,700,700,700,700,700,700,700,700,700,700,700,700,700,700,700,700,700,700,700,700,700,700,700,700,700,700,700,700,700,700,700,700,700,700,700,700,700,700,700,700,700,700,700,700,700,700,700,699,699,699,699,699,699,699,699,699,699,699,699,699,699,699,699,699,699,699,699,699,699,699,699,700,700,701,701,706,709,716,733,747,756,770,776,794,811,815,818,827,837,871,875,881,883,889,890,892,893,900,910,915,917,918],"ymouse":[419,419,419,419,419,419,419,419,419,419,419,419,419,419,419,419,419,419,419,419,419,419,419,419,419,419,419,419,419,419,419,418,416,416,416,416,416,416,416,416,416,416,416,416,416,416,416,416,416,416,416,416,416,416,416,416,416,416,416,416,416,416,416,416,416,416,416,416,416,416,416,416,416,416,416,416,416,416,416,416,416,416,416,416,416,416,416,416,416,416,416,416,416,416,416,416,416,416,416,416,416,416,416,416,416,416,416,416,416,416,416,416,416,416,416,416,416,416,416,416,416,416,416,416,416,416,415,414,414,414,414,414,414,414,414,414,414,414,414,414,414,414,414,414,414,414,414,414,414,414,414,414,414,414,414,414,414,414,415,415,415,413,403,383,369,358,324,299,217,209,198,194,179,176,170,166,150,127,114,107,97],"timestamp_mouse":[18,40,59,78,97,117,139,158,178,197,218,238,259,278,298,318,338,358,378,397,418,438,459,477,497,518,538,558,579,598,618,639,658,678,697,717,737,758,778,797,818,838,858,877,898,918,938,958,977,999,1018,1037,1058,1077,1097,1118,1138,1157,1179,1198,1217,1238,1257,1279,1298,1318,1339,1358,1377,1399,1418,1438,1459,1478,1498,1518,1538,1558,1579,1599,1618,1638,1657,1678,1699,1718,1738,1758,1778,1798,1818,1838,1859,1877,1897,1917,1937,1958,1977,1998,2018,2038,2059,2079,2098,2118,2138,2158,2178,2198,2218,2238,2258,2278,2297,2317,2337,2357,2378,2398,2417,2438,2457,2478,2497,2518,2538,2559,2578,2597,2618,2639,2658,2678,2697,2718,2737,2757,2777,2797,2817,2837,2857,2878,2898,2917,2938,2958,2978,2998,3019,3037,3058,3078,3098,3119,3138,3159,3178,3198,3217,3237,3257,3278,3298,3318,3338,3357,3378,3397,3417,3437,3458,3478,3498,3518,3538,3558,3577,3598,3617],"xSR":624.5,"ySR":363.35,"xT1":354.7,"yT1":0,"xT2":894.3,"yT2":0,"toosoon":0,"cond_shown":"randomdotsizeEA","ratio_trial":900,"smaller_num":"9","larger_num":"10","correct_side":2,"subjID":"juanfelipemoncadadiab","gender":"0","age":"11","school":"6"},{"start_time":1551791603449,"click_time":1551791604958,"finger_time":1551791604258,"fix_duration":850.9573723573069,"trial":2,"RT":809,"MT":700,"sideResp":2,"stimulus":"img/250/randomdotsizeEA/R/6_Ratio_250_L_6_R_24.png","xmouse":[711,711,711,711,711,711,711,711,711,711,711,711,711,711,711,711,711,711,711,711,711,711,711,711,711,711,711,711,711,711,711,711,711,711,711,711,707,699,688,636,589,551,541,529,513,511,506,500,496,488,483,479,477,476,476,476,476,480,492,531,565,613,648,747,917,979,997,1006,1006,1005,1001,1000,1000,999,998,993],"ymouse":[396,396,396,396,396,396,396,396,396,396,396,396,396,396,396,396,396,396,396,396,396,396,396,396,396,396,396,396,396,396,396,396,396,396,396,396,396,396,393,365,331,299,290,278,261,258,250,241,235,214,198,185,178,172,171,167,167,167,167,184,197,213,222,230,219,194,175,153,144,122,111,104,101,97,95,84],"timestamp_mouse":[10,31,50,69,90,109,130,149,168,189,208,229,249,269,290,308,329,349,369,388,408,429,449,469,489,510,530,549,569,589,609,628,650,670,688,708,728,749,769,789,809,829,848,868,890,909,929,950,969,989,1008,1029,1050,1068,1088,1109,1129,1150,1168,1188,1209,1228,1248,1269,1288,1310,1329,1348,1369,1389,1409,1429,1449,1470,1489,1509],"xSR":624.5,"ySR":363.35,"xT1":354.7,"yT1":0,"xT2":894.3,"yT2":0,"toosoon":0,"cond_shown":"randomdotsizeEA","ratio_trial":250,"smaller_num":"6","larger_num":"24","correct_side":2,"subjID":"juanfelipemoncadadiab","gender":"0","age":"11","school":"6"},{"start_time":1551791606951,"click_time":1551791607878,"finger_time":1551791607657,"fix_duration":950.9785796767094,"trial":3,"RT":706,"MT":221,"sideResp":2,"stimulus":"img/500/randomdotsizeEA/R/3_Ratio_500_L_10_R_20.png","xmouse":[714,714,714,714,714,714,714,714,714,714,714,714,714,714,714,714,714,714,714,714,714,714,714,714,714,714,714,714,714,714,714,714,714,715,717,730,744,774,804,826,831,843,854,867,873,891,905],"ymouse":[409,409,409,409,409,409,409,409,409,409,409,409,409,409,409,409,409,409,409,409,409,409,409,409,409,409,409,409,409,409,409,409,409,407,406,379,346,266,178,129,115,93,76,58,52,32,19],"timestamp_mouse":[12,38,46,68,87,107,126,146,168,187,206,227,246,268,287,306,326,347,366,388,407,427,448,467,488,506,526,546,566,588,606,628,647,666,686,706,727,747,767,787,807,826,846,866,888,907,927],"xSR":624.5,"ySR":363.35,"xT1":354.7,"yT1":0,"xT2":894.3,"yT2":0,"toosoon":0,"cond_shown":"randomdotsizeEA","ratio_trial":500,"smaller_num":"10","larger_num":"20","correct_side":2,"subjID":"juanfelipemoncadadiab","gender":"0","age":"11","school":"6"},{"start_time":1551791609884,"click_time":1551791611259,"finger_time":1551791610657,"fix_duration":884.4850027388978,"trial":4,"RT":773,"MT":602,"sideResp":2,"stimulus":"img/250/equaldotsize/R/8_Ratio_250_L_1_R_4.png","xmouse":[695,695,695,695,695,695,695,695,695,695,695,695,695,695,695,695,695,695,695,695,695,695,695,695,695,695,695,695,695,695,695,695,695,695,695,696,699,707,743,802,827,833,841,841,845,845,846,847,847,847,847,847,847,847,847,847,847,847,847,847,847,847,847,847,847,847,847,898,899],"ymouse":[382,382,382,382,382,382,382,382,382,382,382,382,382,382,382,382,382,382,382,382,382,382,382,382,382,382,382,382,382,382,382,382,382,382,382,381,380,364,260,119,60,45,28,24,12,10,6,4,4,4,4,4,4,4,4,4,4,4,4,4,4,4,4,4,4,4,4,0,2],"timestamp_mouse":[13,35,54,74,94,113,133,153,174,194,213,234,254,274,294,313,335,354,373,395,413,433,453,473,493,513,535,554,575,594,614,634,655,673,694,714,735,753,773,794,813,833,854,874,894,914,934,953,974,994,1013,1034,1053,1073,1095,1113,1134,1153,1174,1194,1214,1234,1254,1273,1293,1315,1334,1354,1375],"xSR":624.5,"ySR":363.35,"xT1":354.7,"yT1":0,"xT2":894.3,"yT2":0,"toosoon":0,"cond_shown":"equaldotsize","ratio_trial":250,"smaller_num":"1","larger_num":"4","correct_side":2,"subjID":"juanfelipemoncadadiab","gender":"0","age":"11","school":"6"},{"start_time":1551791613620,"click_time":1551791614765,"finger_time":1551791614346,"fix_duration":1381.2605508231904,"trial":5,"RT":726,"MT":419,"sideResp":1,"stimulus":"img/250/equaldotanddens/L/7_Ratio_250_L_8_R_2.png","xmouse":[703,703,703,703,703,703,703,703,703,703,703,703,703,703,703,703,703,703,703,703,703,703,703,703,703,703,703,703,703,703,703,703,703,685,647,612,518,440,408,365,343,340,340,339,339,338,338,336,336,335,335,335,337,340,344,347,356],"ymouse":[395,395,395,395,395,395,395,395,395,395,395,395,395,395,395,395,395,395,395,395,395,395,395,395,395,395,395,395,395,395,395,395,395,392,383,370,327,263,229,176,139,130,130,127,127,125,122,111,106,99,90,86,81,77,73,70,65],"timestamp_mouse":[32,45,65,86,106,127,145,165,185,207,225,245,266,286,307,326,346,366,386,405,426,446,466,485,505,525,546,566,586,606,625,645,665,685,705,726,746,766,785,805,826,845,866,885,906,926,945,966,986,1006,1026,1045,1065,1085,1106,1125,1145],"xSR":624.5,"ySR":363.35,"xT1":354.7,"yT1":0,"xT2":894.3,"yT2":0,"toosoon":0,"cond_shown":"equaldotanddens","ratio_trial":250,"smaller_num":"2","larger_num":"8","correct_side":1,"subjID":"juanfelipemoncadadiab","gender":"0","age":"11","school":"6"},{"start_time":1551791617106,"click_time":1551791618085,"finger_time":1551791617826,"fix_duration":1419.129710287174,"trial":6,"RT":720,"MT":259,"sideResp":1,"stimulus":"img/750/randomdotsizeEA/L/13_Ratio_750_L_8_R_6.png","xmouse":[670,670,670,670,670,670,670,670,670,670,670,670,670,670,670,670,670,670,670,669,669,669,669,669,669,669,669,669,669,669,669,669,667,664,657,631,571,544,510,499,482,462,451,439,431,422,417,417,417,421],"ymouse":[432,432,432,432,432,432,432,432,432,432,432,432,432,432,432,432,432,432,432,432,432,432,432,432,432,432,432,432,432,432,432,432,432,432,428,413,376,355,321,305,283,249,227,195,179,153,126,117,104,95],"timestamp_mouse":[1,29,41,60,80,99,119,139,159,181,199,219,241,259,280,299,319,340,361,380,400,419,441,460,480,500,519,541,560,580,599,619,640,660,680,700,720,739,760,780,800,819,840,860,879,901,920,939,961,979],"xSR":624.5,"ySR":363.35,"xT1":354.7,"yT1":0,"xT2":894.3,"yT2":0,"toosoon":0,"cond_shown":"randomdotsizeEA","ratio_trial":750,"smaller_num":"6","larger_num":"8","correct_side":1,"subjID":"juanfelipemoncadadiab","gender":"0","age":"11","school":"6"},{"start_time":1551791620217,"click_time":1551791622466,"finger_time":1551791621906,"fix_duration":850.0666976547033,"trial":7,"RT":1689,"MT":560,"sideResp":1,"stimulus":"img/500/randomdotsizeEA/L/8_Ratio_500_L_8_R_4.png","xmouse":[636,636,636,636,636,636,636,636,636,636,636,636,636,636,636,636,636,636,636,636,636,636,636,636,636,636,636,636,636,636,636,636,636,636,637,637,637,637,637,637,637,637,637,637,637,637,637,637,637,637,637,637,637,637,637,637,637,637,637,637,637,637,637,637,637,637,637,637,637,637,637,637,637,637,637,637,637,637,637,637,637,636,633,627,618,617,614,613,613,612,612,612,612,611,609,602,590,576,569,550,510,495,489,484,482,481,481,480,479,472,460,453,451],"ymouse":[405,405,405,405,405,405,405,405,405,405,405,405,405,405,405,405,405,405,405,405,405,405,405,405,405,405,405,405,405,405,405,405,405,405,405,405,405,405,405,405,405,405,405,405,405,405,405,405,405,405,405,405,405,405,405,405,405,405,405,405,405,405,405,405,405,405,405,405,405,405,405,405,405,405,405,405,405,405,405,405,405,404,402,399,395,395,393,393,393,393,393,393,392,390,389,383,370,355,349,334,296,281,274,265,259,248,236,224,217,196,139,111,98],"timestamp_mouse":[10,28,49,70,88,108,130,149,168,188,208,229,250,269,289,309,329,349,368,388,409,429,448,469,489,510,529,549,570,589,608,628,649,669,688,708,729,749,770,788,809,830,849,870,888,908,930,949,969,988,1009,1029,1049,1068,1088,1109,1128,1148,1168,1189,1209,1228,1248,1268,1288,1308,1329,1348,1369,1389,1409,1430,1449,1468,1488,1509,1528,1550,1568,1588,1608,1629,1648,1669,1689,1708,1729,1749,1768,1788,1810,1829,1848,1869,1888,1910,1928,1948,1968,1988,2008,2030,2049,2069,2090,2110,2129,2148,2168,2190,2208,2228,2249],"xSR":624.5,"ySR":363.35,"xT1":354.7,"yT1":0,"xT2":894.3,"yT2":0,"toosoon":0,"cond_shown":"randomdotsizeEA","ratio_trial":500,"smaller_num":"4","larger_num":"8","correct_side":1,"subjID":"juanfelipemoncadadiab","gender":"0","age":"11","school":"6"},{"start_time":1551791633701,"click_time":1551791634766,"finger_time":1551791634305,"fix_duration":694.0117627254405,"trial":8,"RT":604,"MT":461,"sideResp":1,"stimulus":"img/500/equaldotanddens/L/11_Ratio_500_L_12_R_6.png","xmouse":[692,692,692,692,692,692,692,692,692,692,692,692,692,692,693,693,693,693,693,693,693,693,693,693,693,693,693,693,692,682,674,657,628,620,599,587,572,565,511,492,485,483,482,479,464,452,448,447,446,445,443,442,440,437],"ymouse":[390,390,390,389,389,388,388,388,388,388,388,388,388,388,387,387,387,387,387,387,387,387,387,387,387,387,387,385,382,369,359,338,309,301,284,274,256,249,186,166,152,147,142,138,123,114,110,109,107,105,103,102,100,97],"timestamp_mouse":[4,35,45,65,85,105,126,145,165,186,204,225,246,265,284,304,326,344,365,384,405,424,444,465,485,505,526,545,564,585,604,626,645,666,685,705,725,745,766,784,805,825,845,865,884,904,924,944,964,985,1005,1024,1045,1065],"xSR":624.5,"ySR":363.35,"xT1":354.7,"yT1":0,"xT2":894.3,"yT2":0,"toosoon":0,"cond_shown":"equaldotanddens","ratio_trial":500,"smaller_num":"6","larger_num":"12","correct_side":1,"subjID":"juanfelipemoncadadiab","gender":"0","age":"11","school":"6"},{"start_time":1551791636721,"click_time":1551791638166,"finger_time":1551791637666,"fix_duration":413.25431449428663,"trial":9,"RT":945,"MT":500,"sideResp":1,"stimulus":"img/900/equaldotanddens/L/10_Ratio_900_L_20_R_18.png","xmouse":[643,643,643,643,643,643,643,643,643,643,643,643,643,643,643,643,643,643,643,643,643,643,643,643,643,643,643,643,643,643,643,643,643,643,643,643,643,643,643,643,643,643,643,643,643,643,631,610,596,562,538,472,449,437,435,431,425,424,420,416,415,412,410,408,407,406,406,404,404,403,403,403,403],"ymouse":[426,426,426,426,426,426,426,426,426,426,426,426,426,426,426,426,426,426,426,426,426,426,426,426,426,426,426,426,426,426,426,426,426,426,426,426,426,426,426,426,426,426,426,426,426,425,409,385,365,319,283,207,187,175,173,167,161,160,155,150,148,145,142,138,136,130,127,121,118,113,111,106,98],"timestamp_mouse":[12,33,45,65,86,105,125,146,164,184,204,226,246,264,284,305,325,345,365,385,405,424,445,464,485,506,525,546,565,585,605,624,646,665,685,704,724,745,764,784,804,825,844,864,885,904,925,945,964,984,1004,1025,1044,1065,1084,1104,1124,1144,1164,1184,1204,1224,1244,1264,1284,1305,1324,1344,1365,1385,1404,1426,1445],"xSR":624.5,"ySR":363.35,"xT1":354.7,"yT1":0,"xT2":894.3,"yT2":0,"toosoon":0,"cond_shown":"equaldotanddens","ratio_trial":900,"smaller_num":"18","larger_num":"20","correct_side":1,"subjID":"juanfelipemoncadadiab","gender":"0","age":"11","school":"6"},{"start_time":1551791641007,"click_time":1551791642386,"finger_time":1551791642045,"fix_duration":639.5009430690448,"trial":10,"RT":1038,"MT":341,"sideResp":1,"stimulus":"img/750/equaldotsize/L/14_Ratio_750_L_8_R_6.png","xmouse":[687,688,689,689,689,689,689,689,689,689,689,689,688,688,688,688,688,688,688,688,688,688,688,688,687,686,686,686,686,686,686,686,686,686,686,686,686,686,686,686,686,686,686,686,686,686,686,686,684,680,676,639,606,593,578,570,563,561,559,557,554,545,536,531,514,477,423,407,386],"ymouse":[419,419,419,419,419,419,419,419,419,419,421,422,423,423,423,423,423,423,423,423,423,423,424,424,426,426,426,426,426,426,426,426,426,426,426,426,426,426,426,426,426,426,426,426,426,426,426,426,424,416,408,348,304,287,263,246,226,223,218,215,213,207,199,193,178,151,119,109,97],"timestamp_mouse":[29,39,59,80,98,118,139,159,178,199,218,239,259,279,299,319,339,358,380,398,418,440,460,479,498,518,539,559,579,599,620,639,659,679,699,718,739,759,780,798,818,839,860,878,898,918,940,959,978,999,1018,1038,1058,1078,1099,1119,1140,1160,1179,1199,1219,1238,1259,1279,1299,1319,1340,1360,1379],"xSR":624.5,"ySR":363.35,"xT1":354.7,"yT1":0,"xT2":894.3,"yT2":0,"toosoon":0,"cond_shown":"equaldotsize","ratio_trial":750,"smaller_num":"6","larger_num":"8","correct_side":1,"subjID":"juanfelipemoncadadiab","gender":"0","age":"11","school":"6"},{"start_time":1551791644193,"click_time":1551791645545,"finger_time":1551791645166,"fix_duration":926.212842928523,"trial":11,"RT":973,"MT":379,"sideResp":1,"stimulus":"img/750/randomdotsizeEA/R/5_Ratio_750_L_15_R_20.png","xmouse":[644,644,644,645,645,645,645,645,645,645,645,645,645,645,645,645,645,645,645,645,645,645,645,645,645,645,645,645,645,645,645,645,645,645,645,645,645,645,645,645,645,645,645,645,645,645,645,635,609,586,516,479,466,446,438,425,413,411,410,410,410,410,410,411,412,413,413,413],"ymouse":[423,423,423,423,423,423,423,423,423,423,423,423,423,423,423,423,423,423,423,423,423,423,423,423,423,423,423,423,423,423,423,423,423,423,423,423,423,423,423,423,423,423,423,423,423,423,423,412,379,346,261,218,202,174,165,152,138,133,130,129,128,126,124,118,116,110,101,99],"timestamp_mouse":[14,34,53,74,92,113,132,153,172,192,212,233,252,273,293,312,332,353,373,393,413,434,452,474,492,512,532,552,572,592,612,632,654,673,693,712,733,753,774,793,812,832,852,872,892,912,932,952,973,992,1012,1032,1052,1072,1092,1112,1133,1152,1173,1193,1213,1234,1252,1273,1293,1312,1332,1352],"xSR":624.5,"ySR":363.35,"xT1":354.7,"yT1":0,"xT2":894.3,"yT2":0,"toosoon":0,"cond_shown":"randomdotsizeEA","ratio_trial":750,"smaller_num":"15","larger_num":"20","correct_side":2,"subjID":"juanfelipemoncadadiab","gender":"0","age":"11","school":"6"},{"start_time":1551791647337,"click_time":1551791648606,"finger_time":1551791648265,"fix_duration":250,"trial":12,"RT":928,"MT":341,"sideResp":1,"stimulus":"img/750/equaldotsize/L/14_Ratio_750_L_8_R_6.png","xmouse":[633,633,633,633,633,633,633,633,633,633,633,633,633,633,633,633,633,633,633,633,633,633,633,633,633,633,633,633,633,633,633,633,633,633,633,633,633,633,633,633,633,633,633,633,633,634,607,582,529,512,496,489,487,486,484,481,475,464,462,460,458,453,446,444],"ymouse":[402,402,402,402,402,402,402,402,402,402,402,402,402,402,402,402,402,402,402,402,402,402,402,402,402,402,402,402,402,402,402,402,402,402,402,402,402,402,402,402,402,402,402,402,402,393,329,286,224,204,177,158,153,149,147,144,135,125,123,119,116,109,101,98],"timestamp_mouse":[8,28,49,68,88,108,128,149,168,188,210,229,249,269,289,309,329,350,369,389,409,430,448,470,488,508,529,548,568,589,610,630,648,668,689,710,728,748,769,789,808,828,849,868,888,908,928,949,968,988,1009,1028,1048,1070,1088,1109,1129,1149,1168,1189,1208,1229,1250,1269],"xSR":624.5,"ySR":363.35,"xT1":354.7,"yT1":0,"xT2":894.3,"yT2":0,"toosoon":0,"cond_shown":"equaldotsize","ratio_trial":750,"smaller_num":"6","larger_num":"8","correct_side":1,"subjID":"juanfelipemoncadadiab","gender":"0","age":"11","school":"6"},{"start_time":1551791649799,"click_time":1551791651105,"finger_time":1551791650745,"fix_duration":432.53101420582817,"trial":13,"RT":946,"MT":360,"sideResp":1,"stimulus":"img/900/randomdotsizeEA/R/14_Ratio_900_L_18_R_20.png","xmouse":[660,660,660,660,660,660,660,660,660,660,660,660,660,660,660,660,660,660,660,660,660,660,660,660,660,660,660,660,660,660,660,660,659,657,657,657,657,657,657,657,657,657,657,657,654,651,637,633,618,595,586,550,525,519,506,492,475,471,462,457,455,451,443,439,437,434],"ymouse":[399,399,399,399,399,399,399,399,399,399,399,399,399,399,399,399,399,399,399,399,399,399,399,399,399,399,399,399,399,399,399,399,397,397,397,397,397,396,396,396,396,396,396,396,390,387,369,362,340,308,298,251,225,216,199,181,160,155,146,138,135,128,116,109,105,99],"timestamp_mouse":[10,34,46,66,87,106,128,147,168,186,206,227,247,267,286,306,327,346,366,386,407,428,446,467,486,507,527,547,566,586,607,626,647,666,687,707,728,747,767,786,807,827,846,867,886,906,927,946,966,987,1006,1027,1046,1067,1087,1107,1127,1148,1166,1186,1206,1226,1246,1266,1287,1306],"xSR":624.5,"ySR":363.35,"xT1":354.7,"yT1":0,"xT2":894.3,"yT2":0,"toosoon":0,"cond_shown":"randomdotsizeEA","ratio_trial":900,"smaller_num":"18","larger_num":"20","correct_side":2,"subjID":"juanfelipemoncadadiab","gender":"0","age":"11","school":"6"},{"start_time":1551791652549,"click_time":1551791653465,"finger_time":1551791653186,"fix_duration":602.7973691483537,"trial":14,"RT":637,"MT":279,"sideResp":1,"stimulus":"img/500/equaldotanddens/L/5_Ratio_500_L_4_R_2.png","xmouse":[682,682,682,682,682,682,682,682,682,682,682,682,682,682,682,682,682,682,682,682,682,682,682,682,682,682,682,682,682,681,677,649,609,592,557,519,500,487,461,451,436,435,433,433,432,432],"ymouse":[387,387,387,387,387,387,387,387,387,387,387,387,387,387,387,387,387,387,387,387,387,387,387,387,387,387,387,387,387,386,379,327,265,244,210,179,165,158,141,133,112,107,102,102,101,99],"timestamp_mouse":[25,36,56,76,96,116,136,158,176,196,217,236,256,276,297,316,337,356,376,397,417,437,456,477,497,517,537,557,576,598,617,637,657,677,697,717,736,756,778,797,817,836,857,876,897,916],"xSR":624.5,"ySR":363.35,"xT1":354.7,"yT1":0,"xT2":894.3,"yT2":0,"toosoon":0,"cond_shown":"equaldotanddens","ratio_trial":500,"smaller_num":"2","larger_num":"4","correct_side":1,"subjID":"juanfelipemoncadadiab","gender":"0","age":"11","school":"6"},{"start_time":1551791655153,"click_time":1551791656445,"finger_time":1551791655767,"fix_duration":826.7778098835505,"trial":15,"RT":614,"MT":678,"sideResp":2,"stimulus":"img/250/equaldotanddens/R/9_Ratio_250_L_3_R_12.png","xmouse":[677,677,677,677,677,677,677,677,677,677,677,677,677,677,677,677,677,677,677,677,677,677,677,677,677,680,684,685,696,704,707,716,728,759,770,780,784,785,786,787,787,787,789,794,797,809,827,835,845,849,856,859,865,870,872,874,874,874,875,878,881,884,892,896,905],"ymouse":[413,413,413,413,413,413,413,413,413,413,413,413,413,413,413,413,413,413,413,413,413,413,413,413,412,411,410,408,388,371,361,343,324,283,271,253,235,229,217,214,213,212,208,199,196,183,174,169,163,158,151,148,145,142,141,140,140,140,138,133,127,122,112,106,91],"timestamp_mouse":[12,33,52,73,92,113,133,153,172,193,213,233,252,272,294,313,332,352,372,393,412,432,453,473,494,513,532,553,573,593,614,633,653,673,694,713,733,753,773,793,814,833,853,872,892,912,932,954,973,992,1013,1032,1052,1073,1092,1113,1133,1153,1173,1194,1213,1234,1253,1272,1292],"xSR":624.5,"ySR":363.35,"xT1":354.7,"yT1":0,"xT2":894.3,"yT2":0,"toosoon":0,"cond_shown":"equaldotanddens","ratio_trial":250,"smaller_num":"3","larger_num":"12","correct_side":2,"subjID":"juanfelipemoncadadiab","gender":"0","age":"11","school":"6"},{"start_time":1551791658199,"click_time":1551791659267,"finger_time":1551791658847,"fix_duration":692.0744091539015,"trial":16,"RT":648,"MT":420,"sideResp":1,"stimulus":"img/250/equaldotsize/L/14_Ratio_250_L_12_R_3.png","xmouse":[708,708,708,708,708,708,708,708,708,708,708,708,708,708,708,708,708,708,708,708,708,708,708,708,708,708,708,708,708,708,706,654,614,556,508,445,426,408,401,392,379,373,370,368,367,367,367,367,367,367,367,367,367,367],"ymouse":[392,392,392,392,392,392,392,392,392,392,392,392,392,392,392,392,392,392,392,392,392,392,392,392,392,392,392,392,392,392,392,366,349,326,301,258,245,228,221,210,190,179,173,161,148,132,127,117,114,109,104,102,101,99],"timestamp_mouse":[9,30,48,68,87,108,126,147,168,186,206,228,248,268,287,307,328,346,367,386,406,428,446,466,487,507,527,547,567,587,606,627,648,667,686,706,727,747,767,786,806,828,847,866,886,906,927,947,966,987,1007,1028,1046,1068],"xSR":624.5,"ySR":363.35,"xT1":354.7,"yT1":0,"xT2":894.3,"yT2":0,"toosoon":0,"cond_shown":"equaldotsize","ratio_trial":250,"smaller_num":"3","larger_num":"12","correct_side":1,"subjID":"juanfelipemoncadadiab","gender":"0","age":"11","school":"6"},{"start_time":1551791660639,"click_time":1551791662366,"finger_time":1551791661125,"fix_duration":531.2098201971689,"trial":17,"RT":486,"MT":1241,"sideResp":2,"stimulus":"img/250/randomdotsizeEA/R/4_Ratio_250_L_3_R_12.png","xmouse":[679,679,679,679,679,679,679,679,679,679,679,679,679,679,679,679,679,679,679,679,679,679,679,682,691,714,757,790,798,808,819,821,822,822,822,822,821,819,818,816,815,815,815,815,815,816,818,820,822,827,835,837,843,852,857,865,865,876,888,891,891,891,891,891,891,891,891,891,891,891,891,891,891,891,891,891,891,891,891,891,891,891,891,891,891,892,897],"ymouse":[376,376,376,376,376,376,376,376,376,376,376,376,376,376,376,376,376,376,376,376,376,376,376,373,360,335,299,271,263,247,223,211,203,185,177,153,139,124,117,105,94,88,86,83,83,83,81,80,80,78,76,75,74,70,66,64,64,53,47,47,47,47,47,47,47,47,47,47,47,47,47,47,47,47,47,47,47,47,47,47,47,47,47,47,47,47,49],"timestamp_mouse":[11,30,46,66,86,106,127,146,168,187,207,227,246,267,287,306,326,346,366,386,407,427,447,466,486,506,527,546,566,587,607,627,647,667,686,706,727,747,767,786,807,826,847,866,887,906,926,947,968,988,1006,1027,1047,1068,1087,1107,1126,1146,1167,1187,1206,1228,1248,1267,1286,1306,1326,1347,1366,1386,1406,1426,1446,1467,1486,1506,1526,1547,1567,1586,1607,1627,1646,1668,1687,1707,1727],"xSR":624.5,"ySR":363.35,"xT1":354.7,"yT1":0,"xT2":894.3,"yT2":0,"toosoon":0,"cond_shown":"randomdotsizeEA","ratio_trial":250,"smaller_num":"3","larger_num":"12","correct_side":2,"subjID":"juanfelipemoncadadiab","gender":"0","age":"11","school":"6"},{"start_time":1551791664420,"click_time":1551791665305,"finger_time":1551791664885,"fix_duration":751.0443939329939,"trial":18,"RT":465,"MT":420,"sideResp":2,"stimulus":"img/250/equaldotanddens/R/11_Ratio_250_L_3_R_12.png","xmouse":[689,689,689,689,689,689,689,689,689,689,689,689,689,689,689,689,689,689,689,689,689,689,689,714,732,772,780,781,781,782,788,797,812,819,828,837,843,850,864,869,891,891,891,892,895],"ymouse":[380,380,380,380,380,380,380,380,380,380,380,380,380,380,380,380,380,380,380,380,380,380,380,352,327,269,251,243,222,212,182,163,141,133,121,110,106,102,97,96,89,89,89,89,88],"timestamp_mouse":[18,28,46,66,86,106,126,146,166,186,206,226,247,265,286,306,326,346,367,385,405,426,446,465,485,505,526,547,565,585,605,625,645,665,685,705,726,745,765,785,805,825,846,866,885],"xSR":624.5,"ySR":363.35,"xT1":354.7,"yT1":0,"xT2":894.3,"yT2":0,"toosoon":0,"cond_shown":"equaldotanddens","ratio_trial":250,"smaller_num":"3","larger_num":"12","correct_side":2,"subjID":"juanfelipemoncadadiab","gender":"0","age":"11","school":"6"},{"start_time":1551791666878,"click_time":1551791667985,"finger_time":1551791667347,"fix_duration":809.3373146694402,"trial":19,"RT":469,"MT":638,"sideResp":2,"stimulus":"img/250/randomdotsizeEA/R/4_Ratio_250_L_3_R_12.png","xmouse":[691,691,691,691,691,691,691,691,691,691,691,691,691,691,691,691,691,691,693,697,702,705,714,727,734,758,776,793,801,816,823,826,831,835,842,844,848,852,854,857,863,865,868,872,874,879,882,884,884,885,886,887,887,890,891,896],"ymouse":[443,443,443,443,443,443,443,443,443,443,443,443,443,443,442,441,441,441,440,428,413,405,383,359,344,286,243,208,194,156,134,123,105,91,74,71,62,52,49,43,35,33,33,31,31,29,28,28,27,27,27,27,27,27,29,38],"timestamp_mouse":[8,33,48,68,87,107,127,148,167,187,207,228,247,267,288,308,328,349,368,387,407,427,449,469,488,507,527,548,569,588,607,628,648,667,688,707,727,747,768,788,808,828,849,867,888,907,928,948,968,988,1007,1028,1049,1068,1087,1107],"xSR":624.5,"ySR":363.35,"xT1":354.7,"yT1":0,"xT2":894.3,"yT2":0,"toosoon":0,"cond_shown":"randomdotsizeEA","ratio_trial":250,"smaller_num":"3","larger_num":"12","correct_side":2,"subjID":"juanfelipemoncadadiab","gender":"0","age":"11","school":"6"},{"start_time":1551791669790,"click_time":1551791670567,"finger_time":1551791670446,"fix_duration":703.0641124162371,"trial":20,"RT":656,"MT":121,"sideResp":2,"stimulus":"img/500/equaldotsize/R/6_Ratio_500_L_9_R_18.png","xmouse":[656,656,656,656,656,656,656,656,656,656,656,656,656,656,656,656,656,656,656,656,656,655,655,655,655,655,655,655,656,657,661,670,691,695,709,741,767,868,926],"ymouse":[430,430,430,430,430,430,430,430,430,430,430,430,430,430,430,430,430,430,430,430,430,430,412,401,385,381,378,375,373,373,372,369,361,359,344,299,263,158,94],"timestamp_mouse":[16,35,56,75,95,117,137,156,177,196,216,236,256,275,295,317,336,355,376,395,416,436,456,476,497,516,536,556,576,595,616,635,656,676,696,715,736,756,776],"xSR":624.5,"ySR":363.35,"xT1":354.7,"yT1":0,"xT2":894.3,"yT2":0,"toosoon":0,"cond_shown":"equaldotsize","ratio_trial":500,"smaller_num":"9","larger_num":"18","correct_side":2,"subjID":"juanfelipemoncadadiab","gender":"0","age":"11","school":"6"},{"start_time":1551791671997,"click_time":1551791672967,"finger_time":1551791672885,"fix_duration":250,"trial":21,"RT":888,"MT":82,"sideResp":2,"stimulus":"img/750/equaldotsize/R/3_Ratio_750_L_15_R_20.png","xmouse":[681,681,681,681,681,681,681,681,681,681,681,681,681,681,681,681,681,681,681,681,681,681,681,681,681,681,681,681,681,681,681,681,681,682,683,683,683,683,684,684,688,691,702,707,757,814,885,922,974],"ymouse":[413,413,413,413,413,413,413,413,413,413,413,413,413,413,413,413,413,413,413,413,413,413,413,413,413,413,413,413,413,413,413,413,413,413,413,413,413,413,413,413,413,412,409,407,359,294,199,149,71],"timestamp_mouse":[10,32,48,69,88,109,128,149,169,189,209,228,249,269,288,310,329,348,369,388,409,429,449,469,488,509,528,552,569,589,608,629,648,669,689,709,729,749,770,789,809,829,849,870,888,910,929,948,970],"xSR":624.5,"ySR":363.35,"xT1":354.7,"yT1":0,"xT2":894.3,"yT2":0,"toosoon":0,"cond_shown":"equaldotsize","ratio_trial":750,"smaller_num":"15","larger_num":"20","correct_side":2,"subjID":"juanfelipemoncadadiab","gender":"0","age":"11","school":"6"},{"start_time":1551791674635,"click_time":1551791675583,"finger_time":1551791675244,"fix_duration":570.2665126258871,"trial":22,"RT":609,"MT":339,"sideResp":2,"stimulus":"img/900/equaldotanddens/R/12_Ratio_900_L_18_R_20.png","xmouse":[697,697,697,697,697,697,697,697,697,697,697,697,697,697,697,697,697,697,697,697,697,697,697,697,697,697,697,697,699,705,763,803,815,833,839,845,848,852,857,866,874,876,877,878,882,888,891,898],"ymouse":[385,385,385,385,385,385,385,385,385,385,385,385,385,385,385,385,385,385,385,385,385,385,385,385,385,385,385,385,385,382,321,279,262,241,233,223,218,210,202,180,152,136,130,119,103,89,83,73],"timestamp_mouse":[11,32,48,68,88,110,129,149,170,203,209,229,249,269,288,309,329,350,370,388,408,428,449,469,489,508,528,548,568,589,609,629,649,668,689,709,729,748,768,789,808,829,848,868,888,908,928,948],"xSR":624.5,"ySR":363.35,"xT1":354.7,"yT1":0,"xT2":894.3,"yT2":0,"toosoon":0,"cond_shown":"equaldotanddens","ratio_trial":900,"smaller_num":"18","larger_num":"20","correct_side":2,"subjID":"juanfelipemoncadadiab","gender":"0","age":"11","school":"6"},{"start_time":1551791678979,"click_time":1551791679863,"finger_time":1551791679604,"fix_duration":1013.8446791786457,"trial":23,"RT":625,"MT":259,"sideResp":1,"stimulus":"img/250/equaldotsize/L/7_Ratio_250_L_8_R_2.png","xmouse":[671,671,671,671,671,671,671,673,675,676,677,678,678,678,678,678,678,678,678,678,678,678,678,678,678,678,678,673,664,651,644,627,589,567,556,535,527,503,492,481,476,459,451,427,418],"ymouse":[412,412,412,412,412,412,412,412,412,411,411,411,411,411,411,411,411,411,411,411,411,411,411,411,411,410,410,408,396,378,368,344,289,260,248,225,215,192,183,173,167,151,141,100,87],"timestamp_mouse":[8,24,44,64,85,105,125,144,164,184,204,225,245,264,285,305,325,345,364,385,406,425,445,465,486,505,524,544,565,585,605,625,645,666,685,706,724,745,766,786,805,825,846,865,884],"xSR":624.5,"ySR":363.35,"xT1":354.7,"yT1":0,"xT2":894.3,"yT2":0,"toosoon":0,"cond_shown":"equaldotsize","ratio_trial":250,"smaller_num":"2","larger_num":"8","correct_side":1,"subjID":"juanfelipemoncadadiab","gender":"0","age":"11","school":"6"},{"start_time":1551791681813,"click_time":1551791682824,"finger_time":1551791682443,"fix_duration":807.4210075613759,"trial":24,"RT":630,"MT":381,"sideResp":2,"stimulus":"img/250/equaldotanddens/R/12_Ratio_250_L_5_R_20.png","xmouse":[656,656,656,656,656,656,656,656,656,656,656,656,656,656,656,656,656,656,656,656,656,656,656,656,656,656,656,656,660,676,720,777,805,862,892,907,916,928,932,949,958,960,960,960,959,955,953,950,949,949,949],"ymouse":[438,438,438,438,438,438,438,438,438,438,438,438,438,438,438,438,438,438,438,438,438,438,438,438,438,438,438,438,432,416,379,331,309,260,235,228,225,218,215,206,200,195,191,185,168,153,143,127,109,100,96],"timestamp_mouse":[10,30,52,71,91,111,131,150,171,191,211,230,251,270,291,310,330,350,370,390,410,431,450,470,490,511,531,551,571,592,611,630,651,671,690,711,730,750,771,790,810,830,851,870,890,911,932,950,971,990,1011],"xSR":624.5,"ySR":363.35,"xT1":354.7,"yT1":0,"xT2":894.3,"yT2":0,"toosoon":0,"cond_shown":"equaldotanddens","ratio_trial":250,"smaller_num":"5","larger_num":"20","correct_side":2,"subjID":"juanfelipemoncadadiab","gender":"0","age":"11","school":"6"},{"start_time":1551791685284,"click_time":1551791686383,"finger_time":1551791686063,"fix_duration":1359.245496237343,"trial":25,"RT":779,"MT":320,"sideResp":1,"stimulus":"img/750/randomdotsizeEA/L/6_Ratio_750_L_24_R_18.png","xmouse":[694,694,694,694,694,694,694,694,694,694,694,694,694,694,694,694,694,694,694,694,694,694,694,694,694,694,694,694,694,694,694,694,694,694,694,694,694,694,692,646,622,583,569,553,540,532,530,516,500,481,478,474,472,470,462,453],"ymouse":[401,401,401,401,401,401,401,401,401,401,401,401,401,401,401,401,401,401,401,401,401,401,401,401,401,401,401,401,401,401,401,401,401,401,401,401,401,401,397,296,263,211,193,177,166,159,157,147,134,114,110,106,104,102,98,92],"timestamp_mouse":[1,21,39,59,79,99,119,139,159,179,199,219,239,259,280,300,319,339,360,379,400,419,439,459,479,500,519,539,559,579,599,619,639,661,679,701,720,741,760,779,799,820,839,859,879,900,920,939,959,979,999,1019,1040,1060,1079,1099],"xSR":624.5,"ySR":363.35,"xT1":354.7,"yT1":0,"xT2":894.3,"yT2":0,"toosoon":0,"cond_shown":"randomdotsizeEA","ratio_trial":750,"smaller_num":"18","larger_num":"24","correct_side":1,"subjID":"juanfelipemoncadadiab","gender":"0","age":"11","school":"6"},{"start_time":1551791687981,"click_time":1551791689223,"finger_time":1551791688923,"fix_duration":596.0601648900727,"trial":26,"RT":942,"MT":300,"sideResp":2,"stimulus":"img/250/equaldotsize/R/13_Ratio_250_L_2_R_8.png","xmouse":[650,650,650,650,650,650,650,650,650,650,650,650,650,650,650,650,650,650,650,650,650,650,650,650,650,650,650,650,650,650,650,650,650,650,650,650,650,650,650,650,650,651,656,663,667,667,667,723,821,855,898,915,942,956,974,983,995,1009,1014,1014,1004,999,985],"ymouse":[375,375,375,375,375,375,375,375,375,375,375,375,375,375,375,375,375,375,375,375,375,375,375,375,375,375,375,375,375,375,375,375,375,375,375,375,375,375,375,375,375,374,373,371,370,370,370,349,313,297,273,260,228,214,201,195,185,161,141,135,117,106,90],"timestamp_mouse":[10,23,42,62,83,103,122,143,164,183,202,222,243,263,282,302,322,342,363,383,402,422,443,463,484,502,522,543,563,584,603,624,643,663,682,703,723,743,762,782,803,824,842,863,883,902,922,942,962,982,1004,1023,1042,1062,1083,1102,1123,1143,1163,1182,1203,1222,1242],"xSR":624.5,"ySR":363.35,"xT1":354.7,"yT1":0,"xT2":894.3,"yT2":0,"toosoon":0,"cond_shown":"equaldotsize","ratio_trial":250,"smaller_num":"2","larger_num":"8","correct_side":2,"subjID":"juanfelipemoncadadiab","gender":"0","age":"11","school":"6"},{"start_time":1551791690520,"click_time":1551791691404,"finger_time":1551791691123,"fix_duration":454.11565510078435,"trial":27,"RT":603,"MT":281,"sideResp":1,"stimulus":"img/250/equaldotanddens/L/7_Ratio_250_L_8_R_2.png","xmouse":[706,706,706,706,706,706,706,706,706,706,706,706,706,706,706,706,706,706,706,706,706,706,706,706,706,706,706,706,701,662,636,604,521,448,436,432,425,420,415,415,414,414,413,413,411],"ymouse":[418,418,418,418,418,418,418,418,418,418,418,418,418,418,418,418,418,418,418,418,418,418,418,418,418,418,418,418,418,379,351,319,250,181,164,154,137,124,113,111,108,107,106,102,97],"timestamp_mouse":[9,24,45,65,84,103,124,143,164,183,204,223,243,263,284,304,325,345,364,383,403,423,443,464,484,503,524,543,563,584,603,623,644,664,684,704,725,744,764,784,804,823,844,864,884],"xSR":624.5,"ySR":363.35,"xT1":354.7,"yT1":0,"xT2":894.3,"yT2":0,"toosoon":0,"cond_shown":"equaldotanddens","ratio_trial":250,"smaller_num":"2","larger_num":"8","correct_side":1,"subjID":"juanfelipemoncadadiab","gender":"0","age":"11","school":"6"},{"start_time":1551791693015,"click_time":1551791693823,"finger_time":1551791693483,"fix_duration":1030.7313556502877,"trial":28,"RT":468,"MT":340,"sideResp":1,"stimulus":"img/500/equaldotsize/L/13_Ratio_500_L_12_R_6.png","xmouse":[675,675,675,675,675,675,675,675,675,675,675,675,675,675,675,675,675,675,675,675,675,674,674,656,656,606,536,481,465,450,436,434,427,421,418,410,409,408,408,407,402],"ymouse":[396,396,396,396,396,396,396,396,396,396,396,396,396,396,396,396,396,396,396,396,396,396,396,356,356,274,218,186,178,165,149,146,138,129,126,114,111,107,105,100,89],"timestamp_mouse":[11,33,49,70,89,108,128,148,170,189,209,228,249,269,288,309,329,349,370,393,408,428,450,468,488,508,529,550,568,588,609,628,650,670,689,708,728,749,768,789,808],"xSR":624.5,"ySR":363.35,"xT1":354.7,"yT1":0,"xT2":894.3,"yT2":0,"toosoon":0,"cond_shown":"equaldotsize","ratio_trial":500,"smaller_num":"6","larger_num":"12","correct_side":1,"subjID":"juanfelipemoncadadiab","gender":"0","age":"11","school":"6"},{"start_time":1551791695068,"click_time":1551791695943,"finger_time":1551791695705,"fix_duration":623.8037702565499,"trial":29,"RT":637,"MT":238,"sideResp":1,"stimulus":"img/900/randomdotsizeEA/L/10_Ratio_900_L_20_R_18.png","xmouse":[662,662,662,662,662,662,662,662,662,662,662,662,662,662,662,662,662,662,662,657,650,642,640,639,638,638,638,638,637,635,635,631,631,622,579,537,517,490,481,466,461,453,451,444],"ymouse":[403,403,403,403,403,403,403,403,403,403,403,403,403,403,403,403,403,403,403,397,389,380,378,375,375,374,374,372,372,368,366,361,360,348,290,233,207,169,155,128,122,111,107,97],"timestamp_mouse":[16,39,56,76,95,115,135,156,176,196,215,236,256,276,297,315,335,355,376,395,415,436,456,475,496,517,536,556,575,596,615,637,657,675,696,716,735,756,776,796,815,836,856,875],"xSR":624.5,"ySR":363.35,"xT1":354.7,"yT1":0,"xT2":894.3,"yT2":0,"toosoon":0,"cond_shown":"randomdotsizeEA","ratio_trial":900,"smaller_num":"18","larger_num":"20","correct_side":1,"subjID":"juanfelipemoncadadiab","gender":"0","age":"11","school":"6"},{"start_time":1551791697683,"click_time":1551791698383,"finger_time":1551791698224,"fix_duration":839.5194934068152,"trial":30,"RT":541,"MT":159,"sideResp":1,"stimulus":"img/900/randomdotsizeEA/L/2_Ratio_900_L_20_R_18.png","xmouse":[651,651,651,651,651,651,651,651,651,651,651,651,651,651,651,651,651,651,651,651,651,651,651,651,651,651,651,643,620,604,559,492,422,410,392,383],"ymouse":[390,390,390,390,390,390,390,390,390,390,390,390,390,390,390,390,390,390,390,390,390,390,390,390,390,390,388,362,329,307,251,185,128,116,102,93],"timestamp_mouse":[7,21,41,61,82,100,121,140,162,180,201,221,240,260,280,300,322,340,362,380,401,421,440,460,481,501,520,541,562,582,601,621,641,661,682,700],"xSR":624.5,"ySR":363.35,"xT1":354.7,"yT1":0,"xT2":894.3,"yT2":0,"toosoon":0,"cond_shown":"randomdotsizeEA","ratio_trial":900,"smaller_num":"18","larger_num":"20","correct_side":1,"subjID":"juanfelipemoncadadiab","gender":"0","age":"11","school":"6"},{"start_time":1551791699774,"click_time":1551791700725,"finger_time":1551791700405,"fix_duration":628.2392540262349,"trial":31,"RT":631,"MT":320,"sideResp":1,"stimulus":"img/900/equaldotanddens/L/2_Ratio_900_L_20_R_18.png","xmouse":[647,647,647,647,647,647,647,647,647,647,647,647,647,647,647,647,647,647,647,647,647,647,647,647,647,647,647,647,646,646,636,617,602,581,555,486,452,435,429,418,416,412,411,407,404,402,402,400],"ymouse":[432,432,432,432,432,432,432,432,432,432,432,432,432,432,432,432,432,432,432,432,432,432,432,432,432,432,432,431,431,431,423,402,387,363,337,262,222,197,186,164,154,142,137,123,107,102,100,97],"timestamp_mouse":[11,34,50,69,89,110,130,150,170,189,210,230,250,269,289,309,329,349,371,390,409,429,450,469,489,510,530,550,569,590,610,631,650,671,689,709,729,750,769,790,810,830,850,871,890,909,930,951],"xSR":624.5,"ySR":363.35,"xT1":354.7,"yT1":0,"xT2":894.3,"yT2":0,"toosoon":0,"cond_shown":"equaldotanddens","ratio_trial":900,"smaller_num":"18","larger_num":"20","correct_side":1,"subjID":"juanfelipemoncadadiab","gender":"0","age":"11","school":"6"},{"start_time":1551791702511,"click_time":1551791703483,"finger_time":1551791703185,"fix_duration":786.3338084174039,"trial":32,"RT":674,"MT":298,"sideResp":2,"stimulus":"img/750/equaldotanddens/R/5_Ratio_750_L_15_R_20.png","xmouse":[670,670,670,670,670,670,670,670,670,670,670,670,670,670,670,670,670,670,670,670,670,670,670,670,670,670,670,670,670,670,675,695,715,769,829,907,924,941,944,948,951,954,956,957,958,958,958,958,958],"ymouse":[407,407,407,407,407,407,407,407,407,407,407,407,407,407,407,407,407,407,407,407,407,407,407,407,407,407,407,407,407,407,407,400,391,346,299,242,228,210,202,188,172,160,153,140,127,121,108,102,95],"timestamp_mouse":[12,35,54,72,92,112,133,152,172,192,213,233,253,273,293,313,333,353,373,393,412,433,453,473,492,512,533,553,573,593,613,633,653,674,692,713,733,752,772,792,812,833,852,873,893,912,933,953,972],"xSR":624.5,"ySR":363.35,"xT1":354.7,"yT1":0,"xT2":894.3,"yT2":0,"toosoon":0,"cond_shown":"equaldotanddens","ratio_trial":750,"smaller_num":"15","larger_num":"20","correct_side":2,"subjID":"juanfelipemoncadadiab","gender":"0","age":"11","school":"6"},{"start_time":1551791704777,"click_time":1551791705543,"finger_time":1551791705323,"fix_duration":432.4051100606303,"trial":33,"RT":546,"MT":220,"sideResp":1,"stimulus":"img/250/equaldotsize/L/5_Ratio_250_L_24_R_6.png","xmouse":[702,702,702,702,702,702,702,702,702,702,702,702,702,702,702,702,702,702,702,702,702,702,702,702,702,697,689,671,617,519,497,478,468,464,459,452,448,445,443],"ymouse":[372,372,372,372,372,372,372,372,372,372,372,372,372,372,372,372,372,372,372,372,372,372,372,372,372,372,369,356,315,244,228,208,188,170,157,133,118,109,96],"timestamp_mouse":[9,31,47,67,86,106,126,147,167,186,206,226,248,267,287,307,326,346,366,386,407,427,446,466,486,506,528,546,567,586,606,627,646,667,686,706,727,746,766],"xSR":624.5,"ySR":363.35,"xT1":354.7,"yT1":0,"xT2":894.3,"yT2":0,"toosoon":0,"cond_shown":"equaldotsize","ratio_trial":250,"smaller_num":"6","larger_num":"24","correct_side":1,"subjID":"juanfelipemoncadadiab","gender":"0","age":"11","school":"6"},{"start_time":1551791707068,"click_time":1551791707844,"finger_time":1551791707604,"fix_duration":523.409948685582,"trial":34,"RT":536,"MT":240,"sideResp":2,"stimulus":"img/900/randomdotsizeEA/R/7_Ratio_900_L_9_R_10.png","xmouse":[655,655,655,655,655,655,655,655,655,655,655,655,655,655,655,655,655,655,655,655,655,655,655,657,665,688,747,844,892,911,938,945,946,946,946,946,946,946,946],"ymouse":[441,441,441,441,441,441,441,441,441,441,441,441,441,441,441,441,441,441,441,441,441,441,441,440,437,421,373,296,256,243,222,209,188,182,166,155,132,107,94],"timestamp_mouse":[17,36,55,76,97,115,136,156,176,195,216,237,256,275,295,316,335,355,376,396,415,435,455,476,496,517,536,556,577,597,617,636,655,676,695,716,735,756,776],"xSR":624.5,"ySR":363.35,"xT1":354.7,"yT1":0,"xT2":894.3,"yT2":0,"toosoon":0,"cond_shown":"randomdotsizeEA","ratio_trial":900,"smaller_num":"9","larger_num":"10","correct_side":2,"subjID":"juanfelipemoncadadiab","gender":"0","age":"11","school":"6"},{"start_time":1551791709360,"click_time":1551791709924,"finger_time":1551791709823,"fix_duration":676.5506369523596,"trial":35,"RT":463,"MT":101,"sideResp":2,"stimulus":"img/900/equaldotsize/R/14_Ratio_900_L_18_R_20.png","xmouse":[693,693,693,693,693,693,693,693,693,693,693,693,693,693,693,693,693,693,693,693,694,698,710,755,807,879,895,930,960],"ymouse":[423,423,423,423,423,423,423,423,423,423,423,423,423,423,423,423,423,423,423,423,423,423,415,361,300,199,174,125,90],"timestamp_mouse":[10,28,44,63,83,104,125,144,163,183,204,223,243,263,284,303,324,344,364,383,403,425,444,463,485,503,524,544,564],"xSR":624.5,"ySR":363.35,"xT1":354.7,"yT1":0,"xT2":894.3,"yT2":0,"toosoon":0,"cond_shown":"equaldotsize","ratio_trial":900,"smaller_num":"18","larger_num":"20","correct_side":2,"subjID":"juanfelipemoncadadiab","gender":"0","age":"11","school":"6"},{"start_time":1551791711613,"click_time":1551791712423,"finger_time":1551791712144,"fix_duration":428.313622646415,"trial":36,"RT":531,"MT":279,"sideResp":2,"stimulus":"img/750/equaldotanddens/R/11_Ratio_750_L_12_R_16.png","xmouse":[695,695,695,695,695,695,695,695,695,695,695,695,695,695,695,695,695,695,695,695,695,695,695,695,699,714,743,761,799,813,868,884,900,905,913,924,927,929,932,934,938],"ymouse":[429,429,429,429,429,429,429,429,429,429,429,429,429,429,429,429,429,429,429,429,429,429,429,428,426,400,359,336,289,271,207,193,179,173,161,138,128,121,110,105,84],"timestamp_mouse":[10,33,50,70,91,111,131,151,170,190,211,230,252,271,292,311,331,351,370,391,411,432,452,470,492,512,531,551,572,590,612,632,651,671,692,711,730,750,770,791,810],"xSR":624.5,"ySR":363.35,"xT1":354.7,"yT1":0,"xT2":894.3,"yT2":0,"toosoon":0,"cond_shown":"equaldotanddens","ratio_trial":750,"smaller_num":"12","larger_num":"16","correct_side":2,"subjID":"juanfelipemoncadadiab","gender":"0","age":"11","school":"6"},{"start_time":1551791714293,"click_time":1551791715004,"finger_time":1551791714803,"fix_duration":1028.8928006520098,"trial":37,"RT":510,"MT":201,"sideResp":2,"stimulus":"img/750/equaldotsize/R/7_Ratio_750_L_3_R_4.png","xmouse":[706,706,706,706,706,706,706,706,706,706,706,706,706,706,706,706,706,706,706,706,706,706,706,706,714,727,760,776,811,830,845,874,896,904,916,921],"ymouse":[368,368,368,368,368,368,368,368,368,368,368,368,368,368,368,368,368,368,368,368,368,368,368,368,366,361,338,327,296,267,248,206,165,142,102,83],"timestamp_mouse":[12,32,51,70,90,112,131,150,170,191,210,230,251,271,290,310,331,351,371,390,410,430,450,471,490,510,531,551,571,590,610,632,650,670,691,710],"xSR":624.5,"ySR":363.35,"xT1":354.7,"yT1":0,"xT2":894.3,"yT2":0,"toosoon":0,"cond_shown":"equaldotsize","ratio_trial":750,"smaller_num":"3","larger_num":"4","correct_side":2,"subjID":"juanfelipemoncadadiab","gender":"0","age":"11","school":"6"},{"start_time":1551791717843,"click_time":1551791718904,"finger_time":1551791718503,"fix_duration":578.1212754952352,"trial":38,"RT":660,"MT":401,"sideResp":1,"stimulus":"img/900/randomdotsizeEA/L/8_Ratio_900_L_20_R_18.png","xmouse":[680,680,680,680,680,680,680,680,680,680,680,681,681,681,681,681,681,681,682,683,692,694,696,696,696,696,696,696,696,696,692,672,650,611,593,561,527,516,513,509,506,501,497,495,493,490,488,485,485,479,475,468,459,453],"ymouse":[424,424,424,424,424,424,424,424,424,424,430,433,433,433,433,433,433,433,434,434,433,432,432,432,432,432,432,432,432,432,432,416,398,355,330,276,199,141,118,87,74,52,41,37,33,31,29,29,29,29,29,30,32,35],"timestamp_mouse":[9,27,41,60,82,101,121,141,162,180,201,221,241,261,280,301,321,341,360,381,401,420,441,460,481,500,520,540,560,580,601,621,641,660,680,700,721,740,761,781,800,821,840,860,880,900,920,940,961,980,1000,1020,1041,1061],"xSR":624.5,"ySR":363.35,"xT1":354.7,"yT1":0,"xT2":894.3,"yT2":0,"toosoon":0,"cond_shown":"randomdotsizeEA","ratio_trial":900,"smaller_num":"18","larger_num":"20","correct_side":1,"subjID":"juanfelipemoncadadiab","gender":"0","age":"11","school":"6"},{"start_time":1551791720750,"click_time":1551791721723,"finger_time":1551791721104,"fix_duration":904.9098563590233,"trial":39,"RT":354,"MT":619,"sideResp":2,"stimulus":"img/500/equaldotanddens/R/14_Ratio_500_L_5_R_10.png","xmouse":[648,648,648,648,648,648,648,648,648,648,648,648,647,647,647,644,640,624,612,610,610,609,609,609,609,611,616,631,700,753,774,810,819,840,852,866,873,887,904,910,915,917,919,921,924,927,928,931,931],"ymouse":[412,412,412,412,412,412,412,412,412,412,412,412,412,412,412,410,399,372,354,351,350,349,349,349,349,347,347,344,326,305,293,269,260,233,219,209,202,187,160,150,139,132,129,125,121,114,112,101,79],"timestamp_mouse":[14,33,55,74,94,114,133,153,173,194,214,233,254,273,293,313,334,354,374,394,413,433,453,473,493,514,534,553,574,593,614,633,654,674,693,714,733,753,774,794,815,834,854,873,893,914,933,954,973],"xSR":624.5,"ySR":363.35,"xT1":354.7,"yT1":0,"xT2":894.3,"yT2":0,"toosoon":0,"cond_shown":"equaldotanddens","ratio_trial":500,"smaller_num":"5","larger_num":"10","correct_side":2,"subjID":"juanfelipemoncadadiab","gender":"0","age":"11","school":"6"},{"start_time":1551791723503,"click_time":1551791724564,"finger_time":1551791724224,"fix_duration":478.59936868017286,"trial":40,"RT":721,"MT":340,"sideResp":2,"stimulus":"img/900/equaldotanddens/L/1_Ratio_900_L_10_R_9.png","xmouse":[693,693,693,693,693,693,693,693,693,693,693,693,693,693,693,693,693,693,693,693,693,693,693,693,693,693,693,693,693,693,693,693,693,693,693,704,776,811,901,924,929,932,934,943,948,957,961,970,973,973,973,973,971,967],"ymouse":[387,387,387,387,387,387,387,387,387,387,387,387,387,387,387,387,387,387,387,387,387,387,387,387,387,387,387,387,387,387,387,387,387,387,387,384,357,337,287,269,260,249,243,208,195,175,165,144,128,111,109,105,101,96],"timestamp_mouse":[9,21,40,61,80,100,121,140,161,180,200,221,240,261,281,300,321,342,360,381,402,421,442,460,480,500,520,540,561,580,600,620,640,662,681,701,721,741,761,781,801,820,841,861,880,901,920,941,960,982,1002,1020,1041,1061],"xSR":624.5,"ySR":363.35,"xT1":354.7,"yT1":0,"xT2":894.3,"yT2":0,"toosoon":0,"cond_shown":"equaldotanddens","ratio_trial":900,"smaller_num":"9","larger_num":"10","correct_side":1,"subjID":"juanfelipemoncadadiab","gender":"0","age":"11","school":"6"},{"start_time":1551791726609,"click_time":1551791727324,"finger_time":1551791727224,"fix_duration":904.2546126657033,"trial":41,"RT":615,"MT":100,"sideResp":2,"stimulus":"img/500/equaldotanddens/R/15_Ratio_500_L_1_R_2.png","xmouse":[698,698,698,698,698,698,698,698,697,694,694,694,694,694,694,694,694,694,694,694,694,694,694,694,694,694,694,694,697,710,731,847,869,888,893,896],"ymouse":[394,394,394,394,394,394,394,394,394,395,395,395,395,395,395,395,395,395,395,395,395,395,395,395,395,395,395,395,395,377,350,189,159,122,108,88],"timestamp_mouse":[27,35,55,75,94,115,135,155,175,194,214,235,256,275,295,314,335,355,375,395,416,436,455,474,495,516,534,554,574,595,615,634,655,675,694,715],"xSR":624.5,"ySR":363.35,"xT1":354.7,"yT1":0,"xT2":894.3,"yT2":0,"toosoon":0,"cond_shown":"equaldotanddens","ratio_trial":500,"smaller_num":"1","larger_num":"2","correct_side":2,"subjID":"juanfelipemoncadadiab","gender":"0","age":"11","school":"6"},{"start_time":1551791728515,"click_time":1551791729324,"finger_time":1551791729124,"fix_duration":250,"trial":42,"RT":609,"MT":200,"sideResp":1,"stimulus":"img/500/equaldotanddens/L/5_Ratio_500_L_4_R_2.png","xmouse":[689,689,689,689,689,689,689,689,689,689,689,689,689,689,689,689,689,689,689,689,689,689,689,689,689,689,689,689,687,659,633,565,522,483,476,467,460,447,434,422,418],"ymouse":[409,409,409,409,409,409,409,409,409,409,409,409,409,409,409,409,409,409,409,409,409,409,409,409,409,409,409,409,407,369,340,276,234,186,177,160,150,133,115,101,95],"timestamp_mouse":[11,30,48,69,88,109,130,148,169,189,210,228,248,268,288,309,330,348,368,388,410,429,449,468,488,509,530,550,569,589,609,628,648,668,688,708,728,749,769,789,809],"xSR":624.5,"ySR":363.35,"xT1":354.7,"yT1":0,"xT2":894.3,"yT2":0,"toosoon":0,"cond_shown":"equaldotanddens","ratio_trial":500,"smaller_num":"2","larger_num":"4","correct_side":1,"subjID":"juanfelipemoncadadiab","gender":"0","age":"11","school":"6"},{"start_time":1551791730888,"click_time":1551791731824,"finger_time":1551791731343,"fix_duration":783.3508064474188,"trial":43,"RT":455,"MT":481,"sideResp":1,"stimulus":"img/500/equaldotsize/L/13_Ratio_500_L_12_R_6.png","xmouse":[645,645,645,645,645,645,645,645,645,645,645,645,645,645,645,645,645,645,645,645,645,645,629,617,582,564,530,523,517,515,510,507,507,507,507,507,507,507,507,507,507,507,507,507,507,507,442],"ymouse":[439,439,439,439,439,439,439,439,439,439,439,439,439,439,439,439,439,439,439,439,439,427,355,301,185,136,53,35,22,19,9,4,4,4,4,4,4,4,4,4,4,4,4,4,4,4,1],"timestamp_mouse":[28,35,55,75,97,117,136,155,176,195,217,236,255,275,295,317,335,355,375,395,415,436,455,475,495,516,535,555,575,597,616,636,655,676,695,716,737,755,775,795,816,836,856,876,896,915,936],"xSR":624.5,"ySR":363.35,"xT1":354.7,"yT1":0,"xT2":894.3,"yT2":0,"toosoon":0,"cond_shown":"equaldotsize","ratio_trial":500,"smaller_num":"6","larger_num":"12","correct_side":1,"subjID":"juanfelipemoncadadiab","gender":"0","age":"11","school":"6"},{"start_time":1551791733422,"click_time":1551791734582,"finger_time":1551791734023,"fix_duration":556.5708868554229,"trial":44,"RT":601,"MT":559,"sideResp":1,"stimulus":"img/500/equaldotsize/L/7_Ratio_500_L_10_R_5.png","xmouse":[688,688,688,688,688,688,688,688,688,688,688,688,688,688,688,688,688,688,688,688,688,688,688,688,688,688,686,682,668,650,639,622,601,572,567,555,551,542,536,534,534,532,532,532,532,531,531,530,498,475,462,455,454,450,449,445,442,438,433],"ymouse":[392,392,392,392,392,392,392,392,392,392,392,392,392,392,392,392,392,392,392,392,392,392,392,392,392,392,392,392,383,365,352,332,300,241,224,197,183,154,132,121,118,113,110,110,110,110,110,110,108,108,108,108,107,105,105,104,103,102,98],"timestamp_mouse":[9,21,41,61,82,101,122,141,162,182,202,222,242,263,281,301,321,341,361,381,402,422,441,460,480,500,521,540,561,581,601,621,641,660,681,702,721,741,760,781,801,820,841,860,881,901,921,942,960,980,1000,1022,1040,1061,1080,1100,1120,1141,1160],"xSR":624.5,"ySR":363.35,"xT1":354.7,"yT1":0,"xT2":894.3,"yT2":0,"toosoon":0,"cond_shown":"equaldotsize","ratio_trial":500,"smaller_num":"5","larger_num":"10","correct_side":1,"subjID":"juanfelipemoncadadiab","gender":"0","age":"11","school":"6"},{"start_time":1551791736605,"click_time":1551791737603,"finger_time":1551791737203,"fix_duration":1121.6026052008588,"trial":45,"RT":598,"MT":400,"sideResp":2,"stimulus":"img/500/randomdotsizeEA/R/3_Ratio_500_L_10_R_20.png","xmouse":[668,668,668,668,668,668,668,668,668,668,668,668,668,668,668,668,668,668,668,668,668,668,668,668,668,668,668,683,704,760,785,850,857,870,875,885,903,912,913,918,922,935,940,944,946,948,952,956,957,957],"ymouse":[422,422,422,422,422,422,422,422,422,422,422,422,422,422,422,422,422,422,422,422,422,422,422,422,422,422,422,417,403,359,339,290,282,268,262,250,233,225,224,219,214,192,182,170,164,151,132,115,107,92],"timestamp_mouse":[31,38,58,77,98,117,138,158,178,198,218,238,259,278,299,319,338,357,377,399,418,437,458,478,498,518,538,558,577,598,618,638,657,677,697,717,737,758,777,799,818,838,858,878,899,917,938,957,977,998],"xSR":624.5,"ySR":363.35,"xT1":354.7,"yT1":0,"xT2":894.3,"yT2":0,"toosoon":0,"cond_shown":"randomdotsizeEA","ratio_trial":500,"smaller_num":"10","larger_num":"20","correct_side":2,"subjID":"juanfelipemoncadadiab","gender":"0","age":"11","school":"6"},{"start_time":1551791739007,"click_time":1551791740124,"finger_time":1551791739702,"fix_duration":722.7733620458232,"trial":46,"RT":695,"MT":422,"sideResp":2,"stimulus":"img/900/equaldotsize/R/14_Ratio_900_L_18_R_20.png","xmouse":[635,635,635,635,635,635,635,635,635,635,635,635,635,635,635,635,635,635,635,635,635,635,635,635,635,635,635,635,635,635,635,636,648,694,798,840,895,936,954,993,1013,1023,1027,1030,1031,1031,1031,1031,1030,1026,1025,1024,1022,1020,999,992],"ymouse":[429,429,429,429,429,429,429,429,429,429,429,429,429,429,429,429,429,429,429,429,429,429,429,429,429,429,429,429,429,429,429,429,429,408,362,343,312,283,269,224,192,167,156,138,119,116,111,107,104,100,98,96,95,94,89,86],"timestamp_mouse":[16,35,56,76,96,117,137,157,176,195,216,235,255,275,296,315,335,355,376,396,416,435,455,476,497,515,535,555,575,596,615,636,656,675,695,715,737,756,775,796,816,837,857,876,896,915,935,956,976,996,1015,1035,1055,1076,1096,1116],"xSR":624.5,"ySR":363.35,"xT1":354.7,"yT1":0,"xT2":894.3,"yT2":0,"toosoon":0,"cond_shown":"equaldotsize","ratio_trial":900,"smaller_num":"18","larger_num":"20","correct_side":2,"subjID":"juanfelipemoncadadiab","gender":"0","age":"11","school":"6"},{"start_time":1551791741633,"click_time":1551791743263,"finger_time":1551791742343,"fix_duration":706.5812474934372,"trial":47,"RT":710,"MT":920,"sideResp":1,"stimulus":"img/900/equaldotsize/L/2_Ratio_900_L_20_R_18.png","xmouse":[679,679,679,679,679,679,679,679,679,679,679,679,679,679,679,679,679,679,679,679,679,679,679,679,680,681,682,685,687,687,687,687,687,683,678,667,658,648,643,626,617,572,563,546,537,510,503,493,488,483,479,477,475,472,470,467,463,457,453,451,451,451,451,451,451,451,451,451,451,451,451,451,451,451,451,451,451,451,451,451,451,451],"ymouse":[421,421,421,421,421,421,421,421,421,421,421,421,421,421,421,421,421,421,421,421,421,421,421,421,420,420,420,420,418,417,411,404,399,385,375,357,345,330,322,299,289,246,237,218,208,175,167,156,151,147,144,142,141,136,134,130,125,120,117,115,115,115,114,114,114,114,114,114,114,112,111,109,108,106,105,105,103,102,102,101,100,98],"timestamp_mouse":[9,34,51,70,90,110,130,149,169,190,210,229,250,269,290,310,329,350,371,390,410,429,451,469,490,510,530,550,569,590,610,629,650,671,689,710,730,750,770,789,810,829,851,871,890,911,929,950,970,991,1009,1030,1051,1070,1090,1111,1130,1151,1170,1189,1209,1229,1251,1271,1290,1310,1329,1350,1369,1389,1409,1430,1449,1469,1489,1510,1530,1549,1569,1589,1609,1629],"xSR":624.5,"ySR":363.35,"xT1":354.7,"yT1":0,"xT2":894.3,"yT2":0,"toosoon":0,"cond_shown":"equaldotsize","ratio_trial":900,"smaller_num":"18","larger_num":"20","correct_side":1,"subjID":"juanfelipemoncadadiab","gender":"0","age":"11","school":"6"},{"start_time":1551791744866,"click_time":1551791746344,"finger_time":1551791745743,"fix_duration":682.4482919489868,"trial":48,"RT":877,"MT":601,"sideResp":1,"stimulus":"img/900/equaldotanddens/L/4_Ratio_900_L_20_R_18.png","xmouse":[691,691,691,691,691,691,691,691,691,691,691,691,691,691,691,691,691,691,691,691,691,691,691,692,693,695,695,695,695,695,695,695,695,695,695,695,695,695,695,695,696,696,696,703,712,744,764,822,826,829,829,829,790,743,716,687,681,659,638,572,572,572,572,572,572,572,572,572,572,572,572,572,572,379],"ymouse":[423,423,423,423,423,423,423,423,423,423,423,423,423,423,423,423,423,423,423,423,423,423,423,423,423,422,422,422,422,422,422,422,422,422,422,422,422,422,422,422,422,420,400,354,324,269,250,203,199,195,195,182,142,106,91,73,70,54,44,10,10,10,10,10,10,10,10,10,10,10,10,10,10,20],"timestamp_mouse":[18,37,57,77,97,118,138,157,177,198,216,238,257,277,296,316,337,357,376,396,416,436,458,476,496,516,536,557,577,597,617,637,658,676,698,717,737,757,777,797,817,837,857,877,896,917,937,956,976,997,1018,1037,1057,1078,1096,1117,1136,1157,1176,1197,1218,1237,1257,1277,1297,1316,1336,1356,1376,1397,1416,1436,1458,1478],"xSR":624.5,"ySR":363.35,"xT1":354.7,"yT1":0,"xT2":894.3,"yT2":0,"toosoon":0,"cond_shown":"equaldotanddens","ratio_trial":900,"smaller_num":"18","larger_num":"20","correct_side":1,"subjID":"juanfelipemoncadadiab","gender":"0","age":"11","school":"6"},{"start_time":1551791748409,"click_time":1551791749184,"finger_time":1551791749103,"fix_duration":645.7579826365093,"trial":49,"RT":694,"MT":81,"sideResp":1,"stimulus":"img/250/randomdotsizeEA/L/2_Ratio_250_L_16_R_4.png","xmouse":[675,675,675,675,675,675,675,675,675,675,675,675,675,675,675,675,675,675,675,675,675,675,675,675,675,675,675,675,675,675,675,675,675,675,652,622,545,497,407],"ymouse":[376,376,376,376,376,376,376,376,376,376,376,376,376,376,376,376,376,376,376,376,376,376,376,376,376,376,376,376,376,376,376,376,376,376,346,313,224,174,86],"timestamp_mouse":[13,36,55,74,94,114,134,154,175,195,214,234,254,274,293,314,334,354,374,393,413,433,453,474,494,514,534,555,574,594,613,633,653,674,694,714,733,754,775],"xSR":624.5,"ySR":363.35,"xT1":354.7,"yT1":0,"xT2":894.3,"yT2":0,"toosoon":0,"cond_shown":"randomdotsizeEA","ratio_trial":250,"smaller_num":"4","larger_num":"16","correct_side":1,"subjID":"juanfelipemoncadadiab","gender":"0","age":"11","school":"6"},{"start_time":1551791751940,"click_time":1551791753083,"finger_time":1551791752663,"fix_duration":1254.8977372235286,"trial":50,"RT":723,"MT":420,"sideResp":1,"stimulus":"img/500/equaldotanddens/L/11_Ratio_500_L_12_R_6.png","xmouse":[661,661,661,661,661,661,661,661,661,661,661,661,661,661,661,661,661,661,661,661,661,661,661,661,661,661,661,661,661,661,661,661,661,661,660,655,610,593,563,552,536,530,520,520,520,520,520,517,514,512,503,500,493,486,477,476,457,436],"ymouse":[405,405,405,405,405,405,405,405,405,405,405,405,405,405,405,405,405,405,405,405,405,405,405,405,405,405,405,405,405,405,405,405,405,405,405,405,378,358,318,293,253,234,179,173,161,157,146,133,124,120,106,102,95,92,89,89,84,79],"timestamp_mouse":[14,31,43,62,82,102,123,142,162,183,202,222,243,262,284,304,323,343,362,384,402,422,442,462,483,504,523,543,562,582,602,623,642,663,682,702,723,742,763,783,803,824,843,862,882,903,923,944,963,983,1002,1023,1043,1062,1082,1102,1123,1143],"xSR":624.5,"ySR":363.35,"xT1":354.7,"yT1":0,"xT2":894.3,"yT2":0,"toosoon":0,"cond_shown":"equaldotanddens","ratio_trial":500,"smaller_num":"6","larger_num":"12","correct_side":1,"subjID":"juanfelipemoncadadiab","gender":"0","age":"11","school":"6"},{"start_time":1551791754330,"click_time":1551791755463,"finger_time":1551791755023,"fix_duration":366.0733446506342,"trial":51,"RT":693,"MT":440,"sideResp":1,"stimulus":"img/250/randomdotsizeEA/L/3_Ratio_250_L_8_R_2.png","xmouse":[635,635,635,635,635,635,635,635,635,635,635,635,635,635,635,635,635,635,635,635,635,635,635,635,635,635,635,635,635,635,635,635,635,633,621,610,599,593,580,565,564,557,547,542,531,525,523,514,512,506,504,493,485,478,467,458,448],"ymouse":[409,409,409,409,409,409,409,409,409,409,409,409,409,409,409,409,409,409,409,409,409,409,409,409,409,409,409,409,409,409,409,409,409,408,384,351,312,291,244,187,179,159,142,133,117,111,107,98,97,91,90,85,82,79,74,73,72],"timestamp_mouse":[13,35,52,73,92,113,132,152,172,192,212,233,253,273,294,312,333,352,373,393,413,433,452,472,494,513,532,553,573,594,612,633,652,672,693,713,732,752,773,792,813,834,852,874,892,913,934,954,973,992,1012,1034,1053,1074,1093,1112,1132],"xSR":624.5,"ySR":363.35,"xT1":354.7,"yT1":0,"xT2":894.3,"yT2":0,"toosoon":0,"cond_shown":"randomdotsizeEA","ratio_trial":250,"smaller_num":"2","larger_num":"8","correct_side":1,"subjID":"juanfelipemoncadadiab","gender":"0","age":"11","school":"6"},{"start_time":1551791756781,"click_time":1551791757782,"finger_time":1551791757403,"fix_duration":456.1322891669516,"trial":52,"RT":622,"MT":379,"sideResp":2,"stimulus":"img/750/randomdotsizeEA/L/10_Ratio_750_L_4_R_3.png","xmouse":[643,643,643,643,643,643,643,643,643,643,643,643,643,643,643,643,643,643,643,643,643,643,643,643,643,643,643,643,643,650,676,722,733,748,770,779,797,824,833,857,866,873,877,881,890,893,897,900,902,907,915],"ymouse":[396,396,396,396,396,396,396,396,396,396,396,396,396,396,396,396,396,396,396,396,396,396,396,396,396,396,396,396,396,390,374,346,339,329,311,303,286,262,253,229,215,200,192,178,153,147,133,119,116,104,89],"timestamp_mouse":[8,31,43,63,82,102,122,142,162,181,201,221,242,261,282,301,321,342,362,382,402,423,441,462,481,503,521,541,561,582,601,622,641,661,682,703,723,742,761,783,801,822,842,863,883,902,921,942,962,981,1001],"xSR":624.5,"ySR":363.35,"xT1":354.7,"yT1":0,"xT2":894.3,"yT2":0,"toosoon":0,"cond_shown":"randomdotsizeEA","ratio_trial":750,"smaller_num":"3","larger_num":"4","correct_side":1,"subjID":"juanfelipemoncadadiab","gender":"0","age":"11","school":"6"},{"start_time":1551791760682,"click_time":1551791761743,"finger_time":1551791761363,"fix_duration":638.1494360346745,"trial":53,"RT":681,"MT":380,"sideResp":2,"stimulus":"img/900/equaldotsize/R/5_Ratio_900_L_9_R_10.png","xmouse":[675,675,675,675,675,675,675,675,675,675,675,675,675,675,675,675,675,675,675,675,675,675,675,675,675,675,675,675,675,675,675,675,681,693,740,766,813,837,883,916,926,929,938,940,948,949,950,951,951,951,949,949,945,942],"ymouse":[418,418,418,418,418,418,418,418,418,418,418,418,418,418,418,418,418,418,418,418,418,418,418,418,418,418,418,418,418,418,418,418,417,406,366,340,293,269,228,194,180,174,161,156,139,137,131,127,122,116,110,108,102,94],"timestamp_mouse":[8,20,40,61,80,100,121,141,160,182,201,221,240,260,281,301,321,342,360,380,400,420,442,460,481,500,521,542,561,581,602,620,642,660,681,701,721,741,761,782,801,821,841,860,880,900,922,941,961,980,1000,1020,1042,1061],"xSR":624.5,"ySR":363.35,"xT1":354.7,"yT1":0,"xT2":894.3,"yT2":0,"toosoon":0,"cond_shown":"equaldotsize","ratio_trial":900,"smaller_num":"9","larger_num":"10","correct_side":2,"subjID":"juanfelipemoncadadiab","gender":"0","age":"11","school":"6"},{"start_time":1551791763058,"click_time":1551791763963,"finger_time":1551791763603,"fix_duration":472.29200402630846,"trial":54,"RT":545,"MT":360,"sideResp":1,"stimulus":"img/250/equaldotsize/L/7_Ratio_250_L_8_R_2.png","xmouse":[682,682,682,682,682,682,682,682,682,682,682,682,682,682,682,682,682,682,682,682,682,682,682,682,682,682,682,673,665,662,655,645,620,609,573,546,538,530,530,530,529,522,491,471,431,387],"ymouse":[416,416,416,416,416,416,416,416,416,416,416,416,416,416,416,416,416,416,416,416,416,416,416,412,400,385,375,334,320,315,302,289,253,234,187,159,151,146,146,146,144,141,124,115,100,80],"timestamp_mouse":[9,24,44,65,85,105,126,145,164,184,206,224,246,265,284,305,325,346,365,384,405,425,446,465,485,505,525,545,566,586,606,626,645,666,684,704,725,745,765,784,805,824,844,865,885,905],"xSR":624.5,"ySR":363.35,"xT1":354.7,"yT1":0,"xT2":894.3,"yT2":0,"toosoon":0,"cond_shown":"equaldotsize","ratio_trial":250,"smaller_num":"2","larger_num":"8","correct_side":1,"subjID":"juanfelipemoncadadiab","gender":"0","age":"11","school":"6"},{"start_time":1551791765604,"click_time":1551791766584,"finger_time":1551791766302,"fix_duration":639.9313183054504,"trial":55,"RT":698,"MT":282,"sideResp":2,"stimulus":"img/500/equaldotanddens/R/6_Ratio_500_L_9_R_18.png","xmouse":[651,651,651,651,651,651,651,651,651,651,651,651,651,651,651,651,651,651,651,651,651,651,651,651,651,651,651,651,651,651,652,653,653,661,689,716,774,852,881,889,899,902,930,933,935,937,939,942,943],"ymouse":[373,373,373,373,373,373,373,373,373,373,373,373,373,373,373,373,373,373,373,373,373,373,373,373,373,373,373,373,373,373,374,374,374,372,356,341,293,210,176,168,154,149,124,120,116,114,109,101,97],"timestamp_mouse":[18,39,59,79,99,119,138,159,178,199,220,239,260,279,298,319,339,358,378,399,419,440,459,478,498,518,539,559,579,599,618,639,659,679,698,720,739,759,779,800,819,839,859,879,899,920,939,959,979],"xSR":624.5,"ySR":363.35,"xT1":354.7,"yT1":0,"xT2":894.3,"yT2":0,"toosoon":0,"cond_shown":"equaldotanddens","ratio_trial":500,"smaller_num":"9","larger_num":"18","correct_side":2,"subjID":"juanfelipemoncadadiab","gender":"0","age":"11","school":"6"},{"start_time":1551791768358,"click_time":1551791769122,"finger_time":1551791768803,"fix_duration":974.4030133921268,"trial":56,"RT":445,"MT":319,"sideResp":2,"stimulus":"img/500/equaldotsize/R/6_Ratio_500_L_9_R_18.png","xmouse":[694,694,694,694,694,694,694,694,694,694,694,694,694,694,694,694,694,694,694,694,694,694,713,739,800,843,851,863,869,871,875,880,882,886,887,888,889,894,897],"ymouse":[388,388,388,388,388,388,388,388,388,388,388,388,388,388,388,388,388,388,388,388,388,388,343,319,266,230,219,203,180,172,154,131,122,100,91,89,85,74,68],"timestamp_mouse":[10,24,44,65,84,105,125,146,164,184,204,225,245,264,284,305,325,345,364,386,405,426,445,464,484,505,525,545,565,585,605,626,644,665,685,705,726,746,764],"xSR":624.5,"ySR":363.35,"xT1":354.7,"yT1":0,"xT2":894.3,"yT2":0,"toosoon":0,"cond_shown":"equaldotsize","ratio_trial":500,"smaller_num":"9","larger_num":"18","correct_side":2,"subjID":"juanfelipemoncadadiab","gender":"0","age":"11","school":"6"},{"start_time":1551791770398,"click_time":1551791771103,"finger_time":1551791770902,"fix_duration":494.25362734873227,"trial":57,"RT":504,"MT":201,"sideResp":2,"stimulus":"img/500/equaldotsize/R/15_Ratio_500_L_1_R_2.png","xmouse":[647,647,647,647,647,647,647,647,647,647,647,647,647,647,647,647,647,647,647,647,647,647,647,649,666,682,729,757,832,868,889,895,906,924,932,936],"ymouse":[426,426,426,426,426,426,426,426,426,426,426,426,426,426,426,426,426,426,426,426,426,426,426,414,381,363,316,293,223,189,165,155,139,117,104,97],"timestamp_mouse":[8,25,44,64,84,104,126,145,166,186,204,224,244,264,284,304,324,344,364,384,405,424,445,465,486,504,525,544,564,584,605,624,645,666,686,705],"xSR":624.5,"ySR":363.35,"xT1":354.7,"yT1":0,"xT2":894.3,"yT2":0,"toosoon":0,"cond_shown":"equaldotsize","ratio_trial":500,"smaller_num":"1","larger_num":"2","correct_side":2,"subjID":"juanfelipemoncadadiab","gender":"0","age":"11","school":"6"},{"start_time":1551791773027,"click_time":1551791773803,"finger_time":1551791773542,"fix_duration":1122.593755020811,"trial":58,"RT":515,"MT":261,"sideResp":1,"stimulus":"img/250/equaldotanddens/L/5_Ratio_250_L_24_R_6.png","xmouse":[658,658,658,658,658,658,658,658,658,658,658,658,658,658,658,658,658,658,658,658,658,658,657,652,631,590,560,510,491,484,482,479,476,464,461,454,451,442,431],"ymouse":[412,412,412,412,412,412,412,412,412,412,412,412,412,412,412,412,412,412,412,412,412,412,412,405,368,313,279,222,194,180,176,169,160,135,129,118,113,101,90],"timestamp_mouse":[16,36,56,76,96,117,136,157,175,197,216,235,257,276,297,315,336,356,376,396,416,435,456,475,495,515,536,555,576,595,615,635,655,676,695,715,736,756,775],"xSR":624.5,"ySR":363.35,"xT1":354.7,"yT1":0,"xT2":894.3,"yT2":0,"toosoon":0,"cond_shown":"equaldotanddens","ratio_trial":250,"smaller_num":"6","larger_num":"24","correct_side":1,"subjID":"juanfelipemoncadadiab","gender":"0","age":"11","school":"6"},{"start_time":1551791776135,"click_time":1551791777603,"finger_time":1551791777223,"fix_duration":1452.4879056210016,"trial":59,"RT":1088,"MT":380,"sideResp":1,"stimulus":"img/900/randomdotsizeEA/R/9_Ratio_900_L_18_R_20.png","xmouse":[647,647,647,647,647,647,647,647,647,647,647,647,647,647,647,647,647,647,647,647,647,647,647,647,647,647,647,647,647,647,647,647,647,647,647,647,647,647,647,648,648,648,648,648,648,649,649,650,651,651,652,652,652,650,639,631,608,581,555,547,530,526,516,514,514,514,514,512,505,502,494,483,476,454],"ymouse":[391,392,392,392,392,392,392,392,392,392,392,392,392,392,392,392,392,392,392,392,392,392,392,392,392,392,392,392,392,392,392,392,392,392,392,392,392,392,392,392,392,392,392,392,392,392,392,392,392,392,392,391,378,368,334,309,256,190,138,118,89,81,61,59,58,58,58,56,56,56,56,56,57,62],"timestamp_mouse":[14,34,49,68,88,107,127,148,168,189,209,228,249,268,287,307,328,348,369,387,407,427,448,469,488,508,528,548,569,588,607,627,647,668,687,708,727,747,767,787,807,828,847,867,888,907,929,949,969,987,1008,1028,1048,1067,1088,1108,1127,1147,1168,1187,1208,1227,1247,1269,1288,1308,1328,1348,1369,1389,1408,1427,1447,1468],"xSR":624.5,"ySR":363.35,"xT1":354.7,"yT1":0,"xT2":894.3,"yT2":0,"toosoon":0,"cond_shown":"randomdotsizeEA","ratio_trial":900,"smaller_num":"18","larger_num":"20","correct_side":2,"subjID":"juanfelipemoncadadiab","gender":"0","age":"11","school":"6"},{"start_time":1551791792071,"click_time":1551791793422,"finger_time":1551791792942,"fix_duration":407.83079595620853,"trial":60,"RT":871,"MT":480,"sideResp":1,"stimulus":"img/250/equaldotsize/L/7_Ratio_250_L_8_R_2.png","xmouse":[700,700,700,700,700,700,700,700,700,700,700,700,700,700,700,700,700,700,700,700,700,700,700,700,700,700,700,700,700,700,700,700,700,700,700,700,700,700,700,700,678,671,660,650,615,596,568,536,522,516,505,497,483,462,446,438,425,409,408,408,406,404,403,402,402,402,402,402],"ymouse":[427,427,427,427,427,427,427,427,427,427,427,427,427,427,427,427,427,427,427,427,427,427,427,427,427,427,427,427,427,427,427,427,427,427,427,427,427,427,427,427,409,401,380,361,319,298,270,246,236,229,216,211,200,182,168,159,145,131,130,129,127,123,117,114,110,104,100,93],"timestamp_mouse":[12,32,53,72,91,111,132,152,171,191,212,232,251,271,292,311,333,352,372,392,413,431,453,473,491,513,532,552,573,591,612,632,651,671,692,712,731,752,772,791,812,831,851,871,891,911,932,952,973,992,1012,1032,1051,1071,1091,1113,1133,1152,1172,1191,1212,1232,1251,1272,1292,1312,1331,1351],"xSR":624.5,"ySR":363.35,"xT1":354.7,"yT1":0,"xT2":894.3,"yT2":0,"toosoon":0,"cond_shown":"equaldotsize","ratio_trial":250,"smaller_num":"2","larger_num":"8","correct_side":1,"subjID":"juanfelipemoncadadiab","gender":"0","age":"11","school":"6"},{"start_time":1551791795562,"click_time":1551791796742,"finger_time":1551791796301,"fix_duration":1038.3318089553359,"trial":61,"RT":739,"MT":441,"sideResp":1,"stimulus":"img/500/randomdotsizeEA/L/13_Ratio_500_L_12_R_6.png","xmouse":[709,709,709,709,709,709,709,709,709,709,709,709,709,709,709,709,709,709,709,709,709,709,709,709,709,709,709,709,709,709,709,709,709,711,711,705,680,647,624,566,519,478,469,457,453,446,442,439,437,434,432,426,424,418,415,414,412,409,408],"ymouse":[438,438,438,438,438,438,438,438,438,438,438,438,438,438,438,438,438,438,438,438,438,438,438,438,438,438,438,438,438,438,438,438,438,430,413,402,359,316,293,249,217,188,181,171,168,160,155,152,148,145,140,129,126,117,110,109,104,100,97],"timestamp_mouse":[29,40,59,81,99,119,139,159,179,199,219,239,259,279,299,319,340,359,379,399,419,439,460,479,499,519,539,559,579,600,620,640,660,680,700,719,739,759,779,799,819,840,860,879,899,919,939,959,979,999,1020,1039,1060,1080,1099,1119,1139,1159,1179],"xSR":624.5,"ySR":363.35,"xT1":354.7,"yT1":0,"xT2":894.3,"yT2":0,"toosoon":0,"cond_shown":"randomdotsizeEA","ratio_trial":500,"smaller_num":"6","larger_num":"12","correct_side":1,"subjID":"juanfelipemoncadadiab","gender":"0","age":"11","school":"6"},{"start_time":1551791798014,"click_time":1551791799001,"finger_time":1551791798861,"fix_duration":250,"trial":62,"RT":847,"MT":140,"sideResp":1,"stimulus":"img/750/equaldotsize/L/9_Ratio_750_L_4_R_3.png","xmouse":[692,692,692,692,692,692,692,692,692,692,692,692,692,692,692,692,692,692,692,692,692,692,693,693,693,693,693,693,693,693,693,693,693,693,693,693,693,693,693,693,693,692,681,660,640,591,505,449,429,399],"ymouse":[376,376,376,376,376,376,376,376,376,376,376,376,376,376,376,376,376,376,376,376,376,376,377,377,377,377,377,377,377,377,377,377,377,377,377,377,377,377,377,377,377,373,354,327,301,250,167,121,102,79],"timestamp_mouse":[10,34,48,68,88,107,127,147,168,187,207,227,247,268,287,308,327,347,369,387,407,428,447,468,488,508,527,548,567,587,608,627,647,667,687,707,728,747,768,789,807,827,847,867,887,907,927,947,968,987],"xSR":624.5,"ySR":363.35,"xT1":354.7,"yT1":0,"xT2":894.3,"yT2":0,"toosoon":0,"cond_shown":"equaldotsize","ratio_trial":750,"smaller_num":"3","larger_num":"4","correct_side":1,"subjID":"juanfelipemoncadadiab","gender":"0","age":"11","school":"6"},{"start_time":1551791801377,"click_time":1551791802161,"finger_time":1551791801982,"fix_duration":1294.2885872140444,"trial":63,"RT":605,"MT":179,"sideResp":1,"stimulus":"img/250/equaldotanddens/L/2_Ratio_250_L_16_R_4.png","xmouse":[636,636,636,636,636,636,636,636,636,636,636,636,636,636,637,637,637,637,637,637,637,637,637,637,637,637,637,638,638,638,616,584,550,534,512,491,482,464,447,431],"ymouse":[381,381,381,381,381,381,381,381,381,381,381,381,381,381,381,381,381,381,381,381,381,381,381,381,381,381,381,381,381,381,346,300,253,228,196,161,152,127,107,90],"timestamp_mouse":[11,35,45,64,84,104,124,144,164,184,204,226,244,265,285,304,324,344,365,384,404,424,444,466,484,505,524,544,564,584,605,625,644,664,684,704,726,745,764,784],"xSR":624.5,"ySR":363.35,"xT1":354.7,"yT1":0,"xT2":894.3,"yT2":0,"toosoon":0,"cond_shown":"equaldotanddens","ratio_trial":250,"smaller_num":"4","larger_num":"16","correct_side":1,"subjID":"juanfelipemoncadadiab","gender":"0","age":"11","school":"6"},{"start_time":1551791804422,"click_time":1551791805322,"finger_time":1551791805042,"fix_duration":1459.9460684599405,"trial":64,"RT":620,"MT":280,"sideResp":2,"stimulus":"img/750/equaldotanddens/R/12_Ratio_750_L_3_R_4.png","xmouse":[644,644,644,644,644,644,644,644,644,644,644,644,644,644,644,644,644,644,644,644,644,644,644,644,644,644,645,651,658,696,757,787,847,867,871,877,882,893,896,901,903,904,908,910,913],"ymouse":[408,408,408,408,408,408,408,408,408,408,408,408,408,408,408,408,408,408,408,408,408,408,408,408,408,408,407,404,399,375,340,318,262,237,231,218,208,188,179,167,158,151,130,112,97],"timestamp_mouse":[19,40,59,80,100,120,139,159,180,199,219,240,260,279,299,319,339,359,379,399,419,439,459,480,499,519,540,560,579,599,620,639,660,679,699,719,740,759,780,800,820,839,859,880,900],"xSR":624.5,"ySR":363.35,"xT1":354.7,"yT1":0,"xT2":894.3,"yT2":0,"toosoon":0,"cond_shown":"equaldotanddens","ratio_trial":750,"smaller_num":"3","larger_num":"4","correct_side":2,"subjID":"juanfelipemoncadadiab","gender":"0","age":"11","school":"6"},{"start_time":1551791806775,"click_time":1551791807641,"finger_time":1551791807481,"fix_duration":690.0110207860547,"trial":65,"RT":706,"MT":160,"sideResp":1,"stimulus":"img/500/randomdotsizeEA/L/5_Ratio_500_L_4_R_2.png","xmouse":[678,678,678,678,679,680,682,686,687,687,687,687,687,687,687,689,695,697,697,697,697,697,697,697,697,697,697,697,697,697,697,697,697,695,653,626,575,509,471,459,446,443,432,425],"ymouse":[418,418,418,418,417,417,416,414,413,413,413,413,413,413,412,410,404,403,403,403,403,403,403,403,403,403,403,403,403,403,403,403,403,400,372,351,313,236,188,171,149,140,112,98],"timestamp_mouse":[10,38,47,67,86,106,127,147,166,187,206,226,246,266,286,307,327,346,366,386,406,426,446,475,487,506,526,547,567,586,606,626,646,667,687,706,726,747,766,787,807,826,846,866],"xSR":624.5,"ySR":363.35,"xT1":354.7,"yT1":0,"xT2":894.3,"yT2":0,"toosoon":0,"cond_shown":"randomdotsizeEA","ratio_trial":500,"smaller_num":"2","larger_num":"4","correct_side":1,"subjID":"juanfelipemoncadadiab","gender":"0","age":"11","school":"6"},{"start_time":1551791809948,"click_time":1551791811402,"finger_time":1551791810521,"fix_duration":1166.2159496086986,"trial":66,"RT":573,"MT":881,"sideResp":2,"stimulus":"img/500/equaldotanddens/R/3_Ratio_500_L_10_R_20.png","xmouse":[689,688,688,688,688,688,688,688,688,688,688,688,688,688,688,688,688,688,688,688,688,688,688,688,688,689,697,715,733,748,753,774,795,813,816,820,821,822,825,827,829,834,841,842,845,850,852,861,866,874,887,888,891,892,892,893,893,894,895,895,896,896,897,898,898,900,900,903,904,904,905,905,906],"ymouse":[433,432,432,432,432,432,432,432,432,432,432,432,432,432,432,432,432,432,432,432,432,432,432,432,432,431,418,398,376,356,348,318,293,273,264,251,240,236,226,214,209,194,180,175,171,163,160,150,146,140,134,134,133,132,131,130,128,127,126,124,124,122,118,116,115,112,111,105,104,103,102,101,99],"timestamp_mouse":[13,33,54,73,93,113,133,153,173,193,214,235,253,274,294,313,333,353,373,393,413,433,453,474,494,514,533,553,573,593,614,634,653,673,693,713,734,753,773,793,814,834,853,874,893,913,933,953,974,993,1013,1034,1053,1073,1093,1114,1133,1153,1173,1194,1214,1233,1253,1273,1293,1314,1333,1353,1372,1394,1413,1433,1454],"xSR":624.5,"ySR":363.35,"xT1":354.7,"yT1":0,"xT2":894.3,"yT2":0,"toosoon":0,"cond_shown":"equaldotanddens","ratio_trial":500,"smaller_num":"10","larger_num":"20","correct_side":2,"subjID":"juanfelipemoncadadiab","gender":"0","age":"11","school":"6"},{"start_time":1551791813513,"click_time":1551791814662,"finger_time":1551791814542,"fix_duration":250,"trial":67,"RT":1029,"MT":120,"sideResp":2,"stimulus":"img/900/randomdotsizeEA/R/7_Ratio_900_L_9_R_10.png","xmouse":[682,682,682,682,682,682,682,682,682,682,682,682,682,682,682,682,682,682,682,682,682,682,682,682,682,682,682,682,682,682,682,682,682,682,682,682,682,682,682,682,682,682,682,682,682,684,684,688,697,710,721,756,778,867,886,914,921,932],"ymouse":[396,396,396,396,396,396,396,396,396,396,396,397,397,397,397,397,397,397,397,397,397,397,397,397,397,397,397,397,397,397,397,397,397,397,397,397,397,397,397,397,397,397,397,397,397,397,397,396,393,385,371,329,306,192,162,119,106,86],"timestamp_mouse":[10,29,49,68,88,109,129,148,168,189,209,229,248,268,288,308,328,349,368,388,408,428,448,468,489,508,528,548,568,588,608,629,648,668,688,708,729,748,768,788,808,828,848,868,888,908,928,949,968,988,1008,1029,1049,1069,1089,1108,1128,1149],"xSR":624.5,"ySR":363.35,"xT1":354.7,"yT1":0,"xT2":894.3,"yT2":0,"toosoon":0,"cond_shown":"randomdotsizeEA","ratio_trial":900,"smaller_num":"9","larger_num":"10","correct_side":2,"subjID":"juanfelipemoncadadiab","gender":"0","age":"11","school":"6"},{"start_time":1551791815933,"click_time":1551791816602,"finger_time":1551791816442,"fix_duration":250,"trial":68,"RT":509,"MT":160,"sideResp":2,"stimulus":"img/750/equaldotanddens/R/5_Ratio_750_L_15_R_20.png","xmouse":[689,689,689,689,689,689,689,689,689,689,689,689,689,689,689,689,689,689,691,691,692,692,692,694,712,737,753,777,798,822,830,850,876,898],"ymouse":[386,386,386,386,386,386,386,386,386,386,386,386,386,386,386,386,386,386,386,386,386,386,386,386,367,324,300,250,209,162,152,132,111,99],"timestamp_mouse":[11,30,49,68,88,108,128,149,168,188,208,229,249,268,288,308,328,348,368,388,408,428,448,468,489,509,528,548,569,589,608,629,648,668],"xSR":624.5,"ySR":363.35,"xT1":354.7,"yT1":0,"xT2":894.3,"yT2":0,"toosoon":0,"cond_shown":"equaldotanddens","ratio_trial":750,"smaller_num":"15","larger_num":"20","correct_side":2,"subjID":"juanfelipemoncadadiab","gender":"0","age":"11","school":"6"},{"start_time":1551791818906,"click_time":1551791819861,"finger_time":1551791819561,"fix_duration":1421.0448851653339,"trial":69,"RT":655,"MT":300,"sideResp":2,"stimulus":"img/900/equaldotsize/R/12_Ratio_900_L_18_R_20.png","xmouse":[692,692,692,692,692,692,692,692,692,692,692,692,692,692,692,692,692,692,692,692,692,692,692,692,692,692,692,692,693,697,701,707,733,781,803,816,832,845,864,872,887,895,905,916,917,918,922,929],"ymouse":[400,400,400,400,400,400,400,400,400,400,400,400,400,400,400,400,399,399,399,399,399,399,399,399,399,399,399,399,398,392,381,367,324,253,220,207,189,176,160,153,141,134,125,116,114,112,103,92],"timestamp_mouse":[15,35,55,75,95,115,135,156,175,195,215,235,255,276,296,315,335,355,376,396,415,435,455,475,495,515,535,555,575,595,615,636,655,675,695,716,736,755,775,795,815,835,855,875,895,915,936,955],"xSR":624.5,"ySR":363.35,"xT1":354.7,"yT1":0,"xT2":894.3,"yT2":0,"toosoon":0,"cond_shown":"equaldotsize","ratio_trial":900,"smaller_num":"18","larger_num":"20","correct_side":2,"subjID":"juanfelipemoncadadiab","gender":"0","age":"11","school":"6"},{"start_time":1551791822032,"click_time":1551791822841,"finger_time":1551791822462,"fix_duration":1229.784278913326,"trial":70,"RT":430,"MT":379,"sideResp":2,"stimulus":"img/750/equaldotsize/R/11_Ratio_750_L_12_R_16.png","xmouse":[701,701,701,701,701,701,701,701,701,701,701,701,701,701,701,701,701,701,701,701,708,772,838,954,988,990,990,989,987,986,983,980,979,978,976,975,975,974,973,973,970],"ymouse":[382,382,382,382,382,382,382,382,382,382,382,382,382,382,382,382,382,382,382,382,378,350,322,244,210,206,203,196,188,186,178,166,157,146,134,125,123,117,112,108,90],"timestamp_mouse":[17,32,50,69,90,109,129,150,169,190,210,229,249,269,290,309,329,349,369,389,410,430,450,469,490,510,529,549,569,589,609,629,650,670,690,709,729,750,769,789,809],"xSR":624.5,"ySR":363.35,"xT1":354.7,"yT1":0,"xT2":894.3,"yT2":0,"toosoon":0,"cond_shown":"equaldotsize","ratio_trial":750,"smaller_num":"12","larger_num":"16","correct_side":2,"subjID":"juanfelipemoncadadiab","gender":"0","age":"11","school":"6"},{"start_time":1551791824153,"click_time":1551791825222,"finger_time":1551791824842,"fix_duration":250,"trial":71,"RT":689,"MT":380,"sideResp":1,"stimulus":"img/900/equaldotsize/L/2_Ratio_900_L_20_R_18.png","xmouse":[697,697,697,697,697,697,697,697,697,697,697,697,697,697,697,697,697,697,699,699,699,699,699,699,699,699,699,699,699,699,699,699,699,685,676,637,615,557,548,532,526,514,500,489,481,470,465,451,450,445,442,436,425,417],"ymouse":[391,391,391,391,391,391,391,391,391,391,391,391,391,391,391,391,391,391,391,391,391,391,391,391,391,391,391,391,391,391,391,391,391,374,363,329,312,260,250,231,223,210,192,179,173,162,157,140,138,129,124,116,101,90],"timestamp_mouse":[10,39,48,68,89,108,128,148,169,188,208,228,248,268,288,308,329,348,368,389,408,428,449,469,488,509,529,548,568,589,609,629,648,668,689,709,729,748,769,788,808,828,848,869,888,908,928,948,968,988,1008,1029,1048,1069],"xSR":624.5,"ySR":363.35,"xT1":354.7,"yT1":0,"xT2":894.3,"yT2":0,"toosoon":0,"cond_shown":"equaldotsize","ratio_trial":900,"smaller_num":"18","larger_num":"20","correct_side":1,"subjID":"juanfelipemoncadadiab","gender":"0","age":"11","school":"6"},{"start_time":1551791828442,"click_time":1551791829441,"finger_time":1551791829141,"fix_duration":900.9041509227895,"trial":72,"RT":699,"MT":300,"sideResp":2,"stimulus":"img/500/randomdotsizeEA/R/9_Ratio_500_L_2_R_4.png","xmouse":[679,679,679,679,679,679,679,679,679,679,679,679,679,679,679,679,679,679,679,679,679,679,679,679,680,680,680,681,681,680,676,671,670,670,677,693,796,831,887,925,933,942,943,945,947,948,946,944,944,944],"ymouse":[395,395,395,395,395,395,395,395,395,395,395,395,395,395,395,395,395,395,395,395,395,395,395,395,395,395,395,395,395,393,386,377,371,364,353,339,302,292,270,254,248,239,230,215,204,178,138,115,105,83],"timestamp_mouse":[29,39,60,79,99,119,139,160,179,199,220,239,259,279,299,320,339,359,380,399,419,439,459,479,499,519,539,559,579,599,619,639,659,679,699,720,740,760,779,799,819,840,859,879,899,919,939,959,979,999],"xSR":624.5,"ySR":363.35,"xT1":354.7,"yT1":0,"xT2":894.3,"yT2":0,"toosoon":0,"cond_shown":"randomdotsizeEA","ratio_trial":500,"smaller_num":"2","larger_num":"4","correct_side":2,"subjID":"juanfelipemoncadadiab","gender":"0","age":"11","school":"6"},{"start_time":1551791830492,"click_time":1551791831401,"finger_time":1551791831081,"fix_duration":250,"trial":73,"RT":589,"MT":320,"sideResp":2,"stimulus":"img/900/equaldotsize/R/12_Ratio_900_L_18_R_20.png","xmouse":[681,681,681,681,681,681,681,681,681,681,681,681,681,681,681,681,681,681,681,681,681,681,681,681,681,681,681,681,688,708,760,841,867,872,879,880,889,893,896,897,902,907,907,910,913,915],"ymouse":[378,378,378,378,378,378,378,378,378,378,378,378,378,378,378,378,378,378,378,378,378,378,378,378,378,378,378,378,376,353,296,216,182,175,162,156,139,131,125,124,119,111,110,106,100,95],"timestamp_mouse":[12,36,49,69,89,109,129,149,169,190,209,229,249,269,289,309,329,350,369,389,409,429,450,469,489,509,529,549