[{"start_time":1551790795032,"click_time":1551790798593,"finger_time":1551790796654,"fix_duration":695.8981104968364,"trial":0,"RT":1622,"MT":1939,"sideResp":1,"stimulus":[],"xmouse":[705,705,705,705,705,705,705,705,705,705,705,705,705,705,705,705,705,705,705,705,705,705,705,705,705,705,705,705,705,705,705,705,705,705,705,705,705,705,705,705,705,705,705,705,705,705,705,705,705,705,705,705,705,705,705,705,705,705,705,705,705,705,705,705,705,705,705,705,705,705,705,705,705,705,705,705,710,710,706,700,695,680,663,656,653,647,645,639,636,636,636,636,636,636,636,636,636,636,636,636,636,636,636,636,636,636,636,636,636,636,636,636,636,636,636,636,636,636,636,636,636,636,636,636,636,636,636,636,636,636,636,636,636,631,623,607,594,586,583,582,580,580,576,566,560,555,542,533,516,508,507,507,507,507,507,506,504,495,475,463,461,461,461,461,461,461,461,461,461,461,461,461,461,461,461,460,458,456,454],"ymouse":[435,435,435,435,435,435,435,435,435,435,435,435,435,435,435,435,435,435,435,435,435,435,435,435,435,435,435,435,435,435,435,435,435,435,435,435,435,435,435,435,435,435,435,435,435,435,435,435,435,435,435,435,435,435,435,435,435,435,435,435,435,435,435,435,435,435,435,435,435,435,435,435,435,435,435,435,427,427,417,408,398,373,343,331,324,311,305,282,274,270,270,270,270,270,270,270,270,270,270,270,270,270,270,270,270,270,269,269,269,269,269,269,269,269,269,269,269,269,269,269,269,269,269,269,269,269,269,269,269,269,269,269,269,257,244,214,195,182,175,174,167,164,155,139,131,125,115,110,98,93,93,93,93,93,93,92,91,86,76,69,68,68,68,68,68,68,68,68,68,68,68,68,68,68,68,68,68,67,67],"timestamp_mouse":[10,34,41,61,81,101,120,141,161,180,201,222,241,260,281,301,321,341,360,380,401,422,441,460,482,501,522,541,562,581,601,621,642,661,681,701,721,741,761,781,801,821,840,861,880,901,921,941,961,981,1001,1021,1042,1061,1092,1101,1121,1141,1161,1182,1201,1221,1240,1261,1281,1301,1322,1342,1361,1381,1401,1421,1441,1461,1481,1501,1522,1541,1562,1582,1601,1622,1641,1661,1681,1702,1721,1741,1760,1781,1801,1821,1841,1862,1882,1901,1920,1940,1961,1982,2001,2021,2042,2061,2082,2101,2121,2141,2161,2182,2202,2221,2242,2262,2281,2301,2321,2341,2361,2381,2401,2421,2442,2461,2480,2502,2520,2541,2561,2581,2601,2621,2642,2661,2682,2702,2721,2742,2761,2780,2801,2821,2842,2862,2882,2901,2921,2941,2960,2981,3002,3022,3041,3061,3081,3102,3121,3141,3160,3181,3201,3222,3242,3260,3281,3300,3320,3340,3361,3381,3402,3421,3441,3462,3482,3501,3521,3541,3561],"xSR":624.5,"ySR":393.90000000000003,"xT1":354.7,"yT1":0,"xT2":894.3,"yT2":0,"toosoon":0,"cond_shown":"Congruent","ratio_trial":200,"L_num":3,"L_den":10,"R_num":7,"R_den":14,"correct_side":2,"subjID":"juanfelipemoncadadiab","gender":"0","age":"11","school":"6","test":{"fix_dur":[250,1500],"timestim":1000,"targets_dim":[100,100],"targets_relative_coord":[0.3,0.7],"size_stim":[880,420],"start_dim":[100,100],"size_start":[300,300],"size_fix":60,"samplingrate":20,"img_types":["Congruent","Incongruent"],"ratios":[100,200,300],"rep_conds":19,"nTrials":120,"trials_to_rest":500,"Trials_order":[50,39,81,43,47,11,1,15,17,26,62,44,116,83,57,66,68,12,0,118,105,72,67,91,25,100,10,93,29,2,55,89,49,27,114,77,119,88,76,34,32,42,80,75,52,41,98,106,63,28,31,22,51,102,38,35,8,107,46,54,37,18,96,85,94,23,71,110,90,56,73,13,65,92,36,60,97,104,117,58,86,95,5,70,113,82,45,59,14,19,99,74,30,53,16,9,33,40,115,6,109,79,7,111,4,112,48,87,24,20,108,61,64,21,103,78,101,3,84,69],"cond_shown":["Congruent","Incongruent","Incongruent","Incongruent","Incongruent","Incongruent","Incongruent","Incongruent","Incongruent","Congruent","Congruent","Congruent","Congruent","Incongruent","Incongruent","Congruent","Congruent","Congruent","Congruent","Congruent","Incongruent","Congruent","Incongruent","Incongruent","Incongruent","Congruent","Congruent","Incongruent","Incongruent","Congruent","Incongruent","Incongruent","Incongruent","Incongruent","Congruent","Incongruent","Incongruent","Congruent","Congruent","Congruent","Congruent","Congruent","Congruent","Incongruent","Congruent","Incongruent","Congruent","Congruent","Incongruent","Congruent","Incongruent","Congruent","Incongruent","Congruent","Congruent","Incongruent","Congruent","Incongruent","Congruent","Congruent","Incongruent","Congruent","Congruent","Incongruent","Congruent","Incongruent","Incongruent","Congruent","Congruent","Congruent","Incongruent","Incongruent","Incongruent","Congruent","Congruent","Congruent","Incongruent","Congruent","Incongruent","Congruent","Congruent","Incongruent","Incongruent","Congruent","Incongruent","Congruent","Incongruent","Incongruent","Congruent","Incongruent","Incongruent","Congruent","Congruent","Incongruent","Congruent","Incongruent","Incongruent","Congruent","Incongruent","Congruent","Incongruent","Incongruent","Incongruent","Incongruent","Congruent","Congruent","Congruent","Incongruent","Congruent","Congruent","Congruent","Incongruent","Congruent","Incongruent","Incongruent","Congruent","Incongruent","Incongruent","Congruent","Incongruent"],"ratio_trial":[200,200,200,100,300,300,100,200,300,200,200,200,200,300,200,100,200,100,100,300,200,100,100,100,100,300,300,200,300,200,100,300,100,200,100,300,300,300,300,300,200,100,200,200,300,300,200,300,200,300,100,300,200,100,200,300,200,300,300,100,100,100,100,100,300,300,300,200,100,200,100,100,300,200,100,100,100,200,200,300,200,300,300,300,300,300,200,300,200,100,200,200,100,300,300,200,200,300,100,100,100,100,100,200,300,300,100,200,100,200,100,100,300,200,100,100,300,200,100,200],"left_num":[3,7,1,13,4,3,9,9,13,4,3,3,3,13,4,9,1,4,11,1,7,15,8,3,6,5,8,14,4,3,10,13,11,4,4,8,8,2,20,2,11,10,8,4,1,1,12,11,3,5,10,5,14,7,6,1,3,13,7,3,6,11,6,3,1,13,13,3,1,12,3,9,8,3,8,6,13,14,3,1,6,4,13,2,8,1,7,4,9,10,4,8,10,7,20,1,7,1,3,12,3,11,8,1,1,5,4,3,7,1,11,6,1,14,6,9,8,1,4,11],"right_num":[7,6,3,6,2,4,13,8,12,3,7,14,9,12,14,8,21,6,4,3,6,13,6,7,11,7,1,12,2,14,8,12,9,1,6,9,14,12,14,12,3,3,3,1,7,2,6,4,11,6,8,7,12,9,7,3,9,12,20,2,11,4,5,11,7,12,12,14,18,6,7,20,9,11,2,5,6,6,11,3,7,2,12,10,14,8,6,2,13,8,1,3,3,8,5,3,4,3,11,13,4,9,6,3,19,7,6,1,15,21,4,11,11,12,13,8,14,3,6,3],"left_den":[10,15,2,26,20,6,15,15,26,8,10,6,12,26,6,15,2,8,22,5,15,25,16,9,10,25,16,30,20,10,25,26,22,30,8,10,10,10,25,10,22,25,15,30,20,2,15,22,4,25,25,25,30,14,12,2,12,26,14,6,10,22,20,5,20,26,26,6,2,20,9,10,10,10,16,20,26,28,4,5,12,20,26,20,10,30,15,20,30,25,30,15,25,10,25,2,15,5,5,30,6,22,16,2,3,25,8,10,14,2,22,10,5,30,10,15,10,2,8,20],"right_den":[14,9,10,10,4,20,26,10,15,10,14,20,20,15,30,16,30,10,10,6,9,26,10,30,22,14,5,18,4,28,16,15,15,3,10,18,28,24,28,24,10,10,9,3,20,10,10,20,20,12,16,14,18,15,10,15,20,15,25,5,22,10,25,22,20,15,15,20,30,15,30,25,18,22,5,25,10,20,20,6,10,4,15,25,28,24,9,4,26,16,3,9,10,20,10,10,6,6,22,26,10,15,10,10,30,14,10,2,25,30,10,22,22,18,26,16,28,10,10,4],"correct_side":[2,2,1,2,2,1,1,2,2,1,2,2,2,2,1,1,2,2,1,2,2,1,2,1,1,2,1,2,2,2,2,2,2,2,2,1,1,2,1,2,1,1,1,2,2,1,1,1,1,2,2,2,2,2,2,1,2,2,2,1,1,1,1,1,2,2,2,2,2,1,1,1,1,2,1,1,2,1,1,2,2,2,2,2,1,2,2,2,2,2,2,1,1,1,1,1,2,2,1,2,1,2,2,1,2,2,2,2,2,2,1,1,2,2,1,1,1,1,2,2],"img_shown":["img2/200/Congruent/R/C_Dist_200_LN_3_LD_10_RN_7_RD_14_1.png","img2/200/Incongruent/R/I_Dist_200_LN_7_LD_15_RN_6_RD_9_1.png","img2/200/Incongruent/L/I_Dist_200_LN_1_LD_2_RN_3_RD_10_0.png","img2/100/Incongruent/R/I_Dist_100_LN_13_LD_26_RN_6_RD_10_1.png","img2/300/Incongruent/R/I_Dist_300_LN_4_LD_20_RN_2_RD_4_1.png","img2/300/Incongruent/L/I_Dist_300_LN_3_LD_6_RN_4_RD_20_0.png","img2/100/Incongruent/L/I_Dist_100_LN_9_LD_15_RN_13_RD_26_0.png","img2/200/Incongruent/R/I_Dist_200_LN_9_LD_15_RN_8_RD_10_1.png","img2/300/Incongruent/R/I_Dist_300_LN_13_LD_26_RN_12_RD_15_1.png","img2/200/Congruent/L/C_Dist_200_LN_4_LD_8_RN_3_RD_10_0.png","img2/200/Congruent/R/C_Dist_200_LN_3_LD_10_RN_7_RD_14_1.png","img2/200/Congruent/R/C_Dist_200_LN_3_LD_6_RN_14_RD_20_1.png","img2/200/Congruent/R/C_Dist_200_LN_3_LD_12_RN_9_RD_20_1.png","img2/300/Incongruent/R/I_Dist_300_LN_13_LD_26_RN_12_RD_15_1.png","img2/200/Incongruent/L/I_Dist_200_LN_4_LD_6_RN_14_RD_30_0.png","img2/100/Congruent/L/C_Dist_100_LN_9_LD_15_RN_8_RD_16_0.png","img2/200/Congruent/R/C_Dist_200_LN_1_LD_2_RN_21_RD_30_1.png","img2/100/Congruent/R/C_Dist_100_LN_4_LD_8_RN_6_RD_10_1.png","img2/100/Congruent/L/C_Dist_100_LN_11_LD_22_RN_4_RD_10_0.png","img2/300/Congruent/R/C_Dist_300_LN_1_LD_5_RN_3_RD_6_1.png","img2/200/Incongruent/R/I_Dist_200_LN_7_LD_15_RN_6_RD_9_1.png","img2/100/Congruent/L/C_Dist_100_LN_15_LD_25_RN_13_RD_26_0.png","img2/100/Incongruent/R/I_Dist_100_LN_8_LD_16_RN_6_RD_10_1.png","img2/100/Incongruent/L/I_Dist_100_LN_3_LD_9_RN_7_RD_30_0.png","img2/100/Incongruent/L/I_Dist_100_LN_6_LD_10_RN_11_RD_22_0.png","img2/300/Congruent/R/C_Dist_300_LN_5_LD_25_RN_7_RD_14_1.png","img2/300/Congruent/L/C_Dist_300_LN_8_LD_16_RN_1_RD_5_0.png","img2/200/Incongruent/R/I_Dist_200_LN_14_LD_30_RN_12_RD_18_1.png","img2/300/Incongruent/R/I_Dist_300_LN_4_LD_20_RN_2_RD_4_1.png","img2/200/Congruent/R/C_Dist_200_LN_3_LD_10_RN_14_RD_28_1.png","img2/100/Incongruent/R/I_Dist_100_LN_10_LD_25_RN_8_RD_16_1.png","img2/300/Incongruent/R/I_Dist_300_LN_13_LD_26_RN_12_RD_15_1.png","img2/100/Incongruent/R/I_Dist_100_LN_11_LD_22_RN_9_RD_15_1.png","img2/200/Incongruent/R/I_Dist_200_LN_4_LD_30_RN_1_RD_3_1.png","img2/100/Congruent/R/C_Dist_100_LN_4_LD_8_RN_6_RD_10_1.png","img2/300/Incongruent/L/I_Dist_300_LN_8_LD_10_RN_9_RD_18_0.png","img2/300/Incongruent/L/I_Dist_300_LN_8_LD_10_RN_14_RD_28_0.png","img2/300/Congruent/R/C_Dist_300_LN_2_LD_10_RN_12_RD_24_1.png","img2/300/Congruent/L/C_Dist_300_LN_20_LD_25_RN_14_RD_28_0.png","img2/300/Congruent/R/C_Dist_300_LN_2_LD_10_RN_12_RD_24_1.png","img2/200/Congruent/L/C_Dist_200_LN_11_LD_22_RN_3_RD_10_0.png","img2/100/Congruent/L/C_Dist_100_LN_10_LD_25_RN_3_RD_10_0.png","img2/200/Congruent/L/C_Dist_200_LN_8_LD_15_RN_3_RD_9_0.png","img2/200/Incongruent/R/I_Dist_200_LN_4_LD_30_RN_1_RD_3_1.png","img2/300/Congruent/R/C_Dist_300_LN_1_LD_20_RN_7_RD_20_1.png","img2/300/Incongruent/L/I_Dist_300_LN_1_LD_2_RN_2_RD_10_0.png","img2/200/Congruent/L/C_Dist_200_LN_12_LD_15_RN_6_RD_10_0.png","img2/300/Congruent/L/C_Dist_300_LN_11_LD_22_RN_4_RD_20_0.png","img2/200/Incongruent/L/I_Dist_200_LN_3_LD_4_RN_11_RD_20_0.png","img2/300/Congruent/R/C_Dist_300_LN_5_LD_25_RN_6_RD_12_1.png","img2/100/Incongruent/R/I_Dist_100_LN_10_LD_25_RN_8_RD_16_1.png","img2/300/Congruent/R/C_Dist_300_LN_5_LD_25_RN_7_RD_14_1.png","img2/200/Incongruent/R/I_Dist_200_LN_14_LD_30_RN_12_RD_18_1.png","img2/100/Congruent/R/C_Dist_100_LN_7_LD_14_RN_9_RD_15_1.png","img2/200/Congruent/R/C_Dist_200_LN_6_LD_12_RN_7_RD_10_1.png","img2/300/Incongruent/L/I_Dist_300_LN_1_LD_2_RN_3_RD_15_0.png","img2/200/Congruent/R/C_Dist_200_LN_3_LD_12_RN_9_RD_20_1.png","img2/300/Incongruent/R/I_Dist_300_LN_13_LD_26_RN_12_RD_15_1.png","img2/300/Congruent/R/C_Dist_300_LN_7_LD_14_RN_20_RD_25_1.png","img2/100/Congruent/L/C_Dist_100_LN_3_LD_6_RN_2_RD_5_0.png","img2/100/Incongruent/L/I_Dist_100_LN_6_LD_10_RN_11_RD_22_0.png","img2/100/Congruent/L/C_Dist_100_LN_11_LD_22_RN_4_RD_10_0.png","img2/100/Congruent/L/C_Dist_100_LN_6_LD_20_RN_5_RD_25_0.png","img2/100/Incongruent/L/I_Dist_100_LN_3_LD_5_RN_11_RD_22_0.png","img2/300/Congruent/R/C_Dist_300_LN_1_LD_20_RN_7_RD_20_1.png","img2/300/Incongruent/R/I_Dist_300_LN_13_LD_26_RN_12_RD_15_1.png","img2/300/Incongruent/R/I_Dist_300_LN_13_LD_26_RN_12_RD_15_1.png","img2/200/Congruent/R/C_Dist_200_LN_3_LD_6_RN_14_RD_20_1.png","img2/100/Congruent/R/C_Dist_100_LN_1_LD_2_RN_18_RD_30_1.png","img2/200/Congruent/L/C_Dist_200_LN_12_LD_20_RN_6_RD_15_0.png","img2/100/Incongruent/L/I_Dist_100_LN_3_LD_9_RN_7_RD_30_0.png","img2/100/Incongruent/L/I_Dist_100_LN_9_LD_10_RN_20_RD_25_0.png","img2/300/Incongruent/L/I_Dist_300_LN_8_LD_10_RN_9_RD_18_0.png","img2/200/Congruent/R/C_Dist_200_LN_3_LD_10_RN_11_RD_22_1.png","img2/100/Congruent/L/C_Dist_100_LN_8_LD_16_RN_2_RD_5_0.png","img2/100/Congruent/L/C_Dist_100_LN_6_LD_20_RN_5_RD_25_0.png","img2/100/Incongruent/R/I_Dist_100_LN_13_LD_26_RN_6_RD_10_1.png","img2/200/Congruent/L/C_Dist_200_LN_14_LD_28_RN_6_RD_20_0.png","img2/200/Incongruent/L/I_Dist_200_LN_3_LD_4_RN_11_RD_20_0.png","img2/300/Congruent/R/C_Dist_300_LN_1_LD_5_RN_3_RD_6_1.png","img2/200/Congruent/R/C_Dist_200_LN_6_LD_12_RN_7_RD_10_1.png","img2/300/Incongruent/R/I_Dist_300_LN_4_LD_20_RN_2_RD_4_1.png","img2/300/Incongruent/R/I_Dist_300_LN_13_LD_26_RN_12_RD_15_1.png","img2/300/Congruent/R/C_Dist_300_LN_2_LD_20_RN_10_RD_25_1.png","img2/300/Incongruent/L/I_Dist_300_LN_8_LD_10_RN_14_RD_28_0.png","img2/300/Congruent/R/C_Dist_300_LN_1_LD_30_RN_8_RD_24_1.png","img2/200/Incongruent/R/I_Dist_200_LN_7_LD_15_RN_6_RD_9_1.png","img2/300/Incongruent/R/I_Dist_300_LN_4_LD_20_RN_2_RD_4_1.png","img2/200/Congruent/R/C_Dist_200_LN_9_LD_30_RN_13_RD_26_1.png","img2/100/Incongruent/R/I_Dist_100_LN_10_LD_25_RN_8_RD_16_1.png","img2/200/Incongruent/R/I_Dist_200_LN_4_LD_30_RN_1_RD_3_1.png","img2/200/Congruent/L/C_Dist_200_LN_8_LD_15_RN_3_RD_9_0.png","img2/100/Congruent/L/C_Dist_100_LN_10_LD_25_RN_3_RD_10_0.png","img2/300/Incongruent/L/I_Dist_300_LN_7_LD_10_RN_8_RD_20_0.png","img2/300/Congruent/L/C_Dist_300_LN_20_LD_25_RN_5_RD_10_0.png","img2/200/Incongruent/L/I_Dist_200_LN_1_LD_2_RN_3_RD_10_0.png","img2/200/Incongruent/R/I_Dist_200_LN_7_LD_15_RN_4_RD_6_1.png","img2/300/Congruent/R/C_Dist_300_LN_1_LD_5_RN_3_RD_6_1.png","img2/100/Incongruent/L/I_Dist_100_LN_3_LD_5_RN_11_RD_22_0.png","img2/100/Congruent/R/C_Dist_100_LN_12_LD_30_RN_13_RD_26_1.png","img2/100/Incongruent/L/I_Dist_100_LN_3_LD_6_RN_4_RD_10_0.png","img2/100/Incongruent/R/I_Dist_100_LN_11_LD_22_RN_9_RD_15_1.png","img2/100/Incongruent/R/I_Dist_100_LN_8_LD_16_RN_6_RD_10_1.png","img2/200/Incongruent/L/I_Dist_200_LN_1_LD_2_RN_3_RD_10_0.png","img2/300/Congruent/R/C_Dist_300_LN_1_LD_3_RN_19_RD_30_1.png","img2/300/Congruent/R/C_Dist_300_LN_5_LD_25_RN_7_RD_14_1.png","img2/100/Congruent/R/C_Dist_100_LN_4_LD_8_RN_6_RD_10_1.png","img2/200/Incongruent/R/I_Dist_200_LN_3_LD_10_RN_1_RD_2_1.png","img2/100/Congruent/R/C_Dist_100_LN_7_LD_14_RN_15_RD_25_1.png","img2/200/Congruent/R/C_Dist_200_LN_1_LD_2_RN_21_RD_30_1.png","img2/100/Congruent/L/C_Dist_100_LN_11_LD_22_RN_4_RD_10_0.png","img2/100/Incongruent/L/I_Dist_100_LN_6_LD_10_RN_11_RD_22_0.png","img2/300/Congruent/R/C_Dist_300_LN_1_LD_5_RN_11_RD_22_1.png","img2/200/Incongruent/R/I_Dist_200_LN_14_LD_30_RN_12_RD_18_1.png","img2/100/Incongruent/L/I_Dist_100_LN_6_LD_10_RN_13_RD_26_0.png","img2/100/Congruent/L/C_Dist_100_LN_9_LD_15_RN_8_RD_16_0.png","img2/300/Incongruent/L/I_Dist_300_LN_8_LD_10_RN_14_RD_28_0.png","img2/200/Incongruent/L/I_Dist_200_LN_1_LD_2_RN_3_RD_10_0.png","img2/100/Congruent/R/C_Dist_100_LN_4_LD_8_RN_6_RD_10_1.png","img2/200/Incongruent/R/I_Dist_200_LN_11_LD_20_RN_3_RD_4_1.png"],"dist100_C":[["C_Dist_100_LN_10_LD_25_RN_3_RD_10_0.png","C_Dist_100_LN_11_LD_22_RN_4_RD_10_0.png","C_Dist_100_LN_11_LD_22_RN_6_RD_15_0.png","C_Dist_100_LN_15_LD_25_RN_13_RD_26_0.png","C_Dist_100_LN_3_LD_6_RN_2_RD_5_0.png","C_Dist_100_LN_6_LD_20_RN_5_RD_25_0.png","C_Dist_100_LN_8_LD_16_RN_2_RD_5_0.png","C_Dist_100_LN_9_LD_15_RN_8_RD_16_0.png"],["C_Dist_100_LN_1_LD_2_RN_18_RD_30_1.png","C_Dist_100_LN_1_LD_2_RN_3_RD_5_1.png","C_Dist_100_LN_12_LD_30_RN_13_RD_26_1.png","C_Dist_100_LN_2_LD_5_RN_11_RD_22_1.png","C_Dist_100_LN_2_LD_5_RN_6_RD_12_1.png","C_Dist_100_LN_3_LD_20_RN_4_RD_16_1.png","C_Dist_100_LN_4_LD_10_RN_15_RD_30_1.png","C_Dist_100_LN_4_LD_8_RN_6_RD_10_1.png","C_Dist_100_LN_6_LD_12_RN_15_RD_25_1.png","C_Dist_100_LN_7_LD_14_RN_15_RD_25_1.png","C_Dist_100_LN_7_LD_14_RN_9_RD_15_1.png"]],"dist100_I":[["I_Dist_100_LN_1_LD_2_RN_8_RD_20_0.png","I_Dist_100_LN_2_LD_4_RN_6_RD_15_0.png","I_Dist_100_LN_2_LD_4_RN_8_RD_20_0.png","I_Dist_100_LN_3_LD_5_RN_11_RD_22_0.png","I_Dist_100_LN_3_LD_5_RN_8_RD_16_0.png","I_Dist_100_LN_3_LD_6_RN_4_RD_10_0.png","I_Dist_100_LN_3_LD_9_RN_7_RD_30_0.png","I_Dist_100_LN_4_LD_8_RN_8_RD_20_0.png","I_Dist_100_LN_6_LD_10_RN_11_RD_22_0.png","I_Dist_100_LN_6_LD_10_RN_13_RD_26_0.png","I_Dist_100_LN_6_LD_10_RN_7_RD_14_0.png","I_Dist_100_LN_9_LD_10_RN_20_RD_25_0.png","I_Dist_100_LN_9_LD_15_RN_13_RD_26_0.png","I_Dist_100_LN_9_LD_15_RN_14_RD_28_0.png"],["I_Dist_100_LN_10_LD_25_RN_8_RD_16_1.png","I_Dist_100_LN_10_LD_25_RN_9_RD_18_1.png","I_Dist_100_LN_11_LD_22_RN_9_RD_15_1.png","I_Dist_100_LN_12_LD_24_RN_9_RD_15_1.png","I_Dist_100_LN_12_LD_30_RN_2_RD_4_1.png","I_Dist_100_LN_13_LD_26_RN_12_RD_20_1.png","I_Dist_100_LN_13_LD_26_RN_6_RD_10_1.png","I_Dist_100_LN_17_LD_30_RN_10_RD_15_1.png","I_Dist_100_LN_6_LD_12_RN_3_RD_5_1.png","I_Dist_100_LN_8_LD_16_RN_6_RD_10_1.png","I_Dist_100_LN_8_LD_20_RN_1_RD_2_1.png","I_Dist_100_LN_9_LD_18_RN_6_RD_10_1.png"]],"dist100_S":[["E_Dist_100_LN_2_LD_12_RN_2_RD_30_0.png","E_Dist_100_LN_6_LD_10_RN_6_RD_12_0.png"],["E_Dist_100_LN_6_LD_12_RN_6_RD_10_1.png"]],"dist200_C":[["C_Dist_200_LN_11_LD_22_RN_3_RD_10_0.png","C_Dist_200_LN_12_LD_15_RN_6_RD_10_0.png","C_Dist_200_LN_12_LD_20_RN_6_RD_15_0.png","C_Dist_200_LN_14_LD_28_RN_6_RD_20_0.png","C_Dist_200_LN_15_LD_25_RN_4_RD_10_0.png","C_Dist_200_LN_16_LD_20_RN_12_RD_20_0.png","C_Dist_200_LN_16_LD_30_RN_9_RD_27_0.png","C_Dist_200_LN_20_LD_25_RN_9_RD_15_0.png","C_Dist_200_LN_21_LD_30_RN_2_RD_4_0.png","C_Dist_200_LN_4_LD_10_RN_3_RD_15_0.png","C_Dist_200_LN_4_LD_8_RN_3_RD_10_0.png","C_Dist_200_LN_6_LD_15_RN_3_RD_15_0.png","C_Dist_200_LN_7_LD_21_RN_2_RD_15_0.png","C_Dist_200_LN_8_LD_15_RN_2_RD_6_0.png","C_Dist_200_LN_8_LD_15_RN_3_RD_9_0.png","C_Dist_200_LN_8_LD_15_RN_7_RD_21_0.png","C_Dist_200_LN_9_LD_20_RN_4_RD_16_0.png"],["C_Dist_200_LN_1_LD_2_RN_21_RD_30_1.png","C_Dist_200_LN_13_LD_26_RN_14_RD_20_1.png","C_Dist_200_LN_3_LD_10_RN_11_RD_22_1.png","C_Dist_200_LN_3_LD_10_RN_14_RD_28_1.png","C_Dist_200_LN_3_LD_10_RN_7_RD_14_1.png","C_Dist_200_LN_3_LD_12_RN_9_RD_20_1.png","C_Dist_200_LN_3_LD_6_RN_14_RD_20_1.png","C_Dist_200_LN_5_LD_10_RN_14_RD_20_1.png","C_Dist_200_LN_6_LD_12_RN_7_RD_10_1.png","C_Dist_200_LN_6_LD_20_RN_11_RD_22_1.png","C_Dist_200_LN_7_LD_15_RN_18_RD_27_1.png","C_Dist_200_LN_9_LD_30_RN_13_RD_26_1.png"]],"dist200_I":[["I_Dist_200_LN_1_LD_2_RN_3_RD_10_0.png","I_Dist_200_LN_1_LD_3_RN_2_RD_15_0.png","I_Dist_200_LN_3_LD_4_RN_11_RD_20_0.png","I_Dist_200_LN_4_LD_5_RN_6_RD_10_0.png","I_Dist_200_LN_4_LD_6_RN_14_RD_30_0.png","I_Dist_200_LN_7_LD_10_RN_12_RD_24_0.png","I_Dist_200_LN_7_LD_10_RN_14_RD_28_0.png","I_Dist_200_LN_7_LD_10_RN_8_RD_16_0.png"],["I_Dist_200_LN_11_LD_20_RN_3_RD_4_1.png","I_Dist_200_LN_14_LD_30_RN_12_RD_18_1.png","I_Dist_200_LN_14_LD_30_RN_6_RD_9_1.png","I_Dist_200_LN_3_LD_10_RN_1_RD_2_1.png","I_Dist_200_LN_4_LD_30_RN_1_RD_3_1.png","I_Dist_200_LN_6_LD_20_RN_3_RD_6_1.png","I_Dist_200_LN_7_LD_15_RN_4_RD_6_1.png","I_Dist_200_LN_7_LD_15_RN_6_RD_9_1.png","I_Dist_200_LN_9_LD_15_RN_8_RD_10_1.png"]],"dist200_S":[["E_Dist_200_LN_3_LD_6_RN_3_RD_10_0.png"],["E_Dist_200_LN_3_LD_10_RN_3_RD_6_1.png"]],"dist300_C":[["C_Dist_300_LN_11_LD_22_RN_1_RD_5_0.png","C_Dist_300_LN_11_LD_22_RN_2_RD_10_0.png","C_Dist_300_LN_11_LD_22_RN_4_RD_20_0.png","C_Dist_300_LN_12_LD_24_RN_2_RD_10_0.png","C_Dist_300_LN_18_LD_20_RN_9_RD_15_0.png","C_Dist_300_LN_20_LD_25_RN_13_RD_26_0.png","C_Dist_300_LN_20_LD_25_RN_14_RD_28_0.png","C_Dist_300_LN_20_LD_25_RN_5_RD_10_0.png","C_Dist_300_LN_20_LD_25_RN_8_RD_16_0.png","C_Dist_300_LN_20_LD_25_RN_9_RD_18_0.png","C_Dist_300_LN_24_LD_30_RN_2_RD_4_0.png","C_Dist_300_LN_24_LD_30_RN_8_RD_16_0.png","C_Dist_300_LN_3_LD_6_RN_2_RD_10_0.png","C_Dist_300_LN_4_LD_10_RN_1_RD_10_0.png","C_Dist_300_LN_4_LD_5_RN_2_RD_4_0.png","C_Dist_300_LN_8_LD_16_RN_1_RD_5_0.png","C_Dist_300_LN_9_LD_10_RN_3_RD_5_0.png"],["C_Dist_300_LN_1_LD_20_RN_7_RD_20_1.png","C_Dist_300_LN_1_LD_3_RN_19_RD_30_1.png","C_Dist_300_LN_1_LD_30_RN_8_RD_24_1.png","C_Dist_300_LN_1_LD_5_RN_11_RD_22_1.png","C_Dist_300_LN_1_LD_5_RN_3_RD_6_1.png","C_Dist_300_LN_1_LD_5_RN_6_RD_12_1.png","C_Dist_300_LN_2_LD_10_RN_12_RD_24_1.png","C_Dist_300_LN_2_LD_20_RN_10_RD_25_1.png","C_Dist_300_LN_3_LD_12_RN_11_RD_20_1.png","C_Dist_300_LN_3_LD_6_RN_4_RD_5_1.png","C_Dist_300_LN_4_LD_20_RN_13_RD_26_1.png","C_Dist_300_LN_5_LD_25_RN_6_RD_12_1.png","C_Dist_300_LN_5_LD_25_RN_7_RD_14_1.png","C_Dist_300_LN_7_LD_14_RN_20_RD_25_1.png","C_Dist_300_LN_8_LD_15_RN_10_RD_12_1.png"]],"dist300_I":[["I_Dist_300_LN_1_LD_2_RN_2_RD_10_0.png","I_Dist_300_LN_1_LD_2_RN_3_RD_15_0.png","I_Dist_300_LN_2_LD_4_RN_6_RD_30_0.png","I_Dist_300_LN_3_LD_6_RN_4_RD_20_0.png","I_Dist_300_LN_4_LD_5_RN_6_RD_12_0.png","I_Dist_300_LN_4_LD_5_RN_8_RD_16_0.png","I_Dist_300_LN_7_LD_10_RN_8_RD_20_0.png","I_Dist_300_LN_8_LD_10_RN_14_RD_28_0.png","I_Dist_300_LN_8_LD_10_RN_9_RD_18_0.png"],["I_Dist_300_LN_13_LD_26_RN_12_RD_15_1.png","I_Dist_300_LN_4_LD_20_RN_2_RD_4_1.png"]],"dist300_S":[["E_Dist_300_LN_9_LD_12_RN_9_RD_20_0.png"],["E_Dist_300_LN_18_LD_30_RN_18_RD_20_1.png","E_Dist_300_LN_3_LD_10_RN_3_RD_5_1.png","E_Dist_300_LN_9_LD_20_RN_9_RD_12_1.png"]],"dist500_C":[["C_Dist_500_LN_10_LD_13_RN_7_RD_26_0.png","C_Dist_500_LN_10_LD_15_RN_4_RD_24_0.png","C_Dist_500_LN_12_LD_16_RN_3_RD_12_0.png","C_Dist_500_LN_12_LD_18_RN_4_RD_24_0.png","C_Dist_500_LN_15_LD_18_RN_5_RD_15_0.png","C_Dist_500_LN_15_LD_20_RN_1_RD_4_0.png","C_Dist_500_LN_18_LD_27_RN_1_RD_6_0.png","C_Dist_500_LN_20_LD_24_RN_1_RD_3_0.png","C_Dist_500_LN_20_LD_24_RN_3_RD_9_0.png","C_Dist_500_LN_20_LD_24_RN_7_RD_21_0.png","C_Dist_500_LN_20_LD_28_RN_3_RD_14_0.png","C_Dist_500_LN_21_LD_28_RN_6_RD_24_0.png","C_Dist_500_LN_22_LD_28_RN_2_RD_7_0.png","C_Dist_500_LN_25_LD_30_RN_9_RD_27_0.png","C_Dist_500_LN_4_LD_6_RN_1_RD_6_0.png","C_Dist_500_LN_5_LD_6_RN_2_RD_6_0.png","C_Dist_500_LN_6_LD_9_RN_1_RD_6_0.png","C_Dist_500_LN_7_LD_10_RN_1_RD_5_0.png","C_Dist_500_LN_8_LD_12_RN_1_RD_6_0.png","C_Dist_500_LN_8_LD_12_RN_4_RD_24_0.png"],["C_Dist_500_LN_1_LD_4_RN_12_RD_16_1.png","C_Dist_500_LN_1_LD_4_RN_9_RD_12_1.png","C_Dist_500_LN_1_LD_9_RN_11_RD_18_1.png","C_Dist_500_LN_10_LD_24_RN_22_RD_24_1.png","C_Dist_500_LN_2_LD_12_RN_10_RD_15_1.png","C_Dist_500_LN_2_LD_12_RN_12_RD_18_1.png","C_Dist_500_LN_2_LD_12_RN_4_RD_6_1.png","C_Dist_500_LN_2_LD_24_RN_7_RD_12_1.png","C_Dist_500_LN_2_LD_5_RN_18_RD_20_1.png","C_Dist_500_LN_2_LD_5_RN_9_RD_10_1.png","C_Dist_500_LN_2_LD_8_RN_12_RD_16_1.png","C_Dist_500_LN_2_LD_8_RN_21_RD_28_1.png","C_Dist_500_LN_3_LD_10_RN_4_RD_5_1.png","C_Dist_500_LN_3_LD_12_RN_15_RD_20_1.png","C_Dist_500_LN_3_LD_30_RN_6_RD_10_1.png","C_Dist_500_LN_3_LD_8_RN_14_RD_16_1.png","C_Dist_500_LN_4_LD_16_RN_15_RD_20_1.png","C_Dist_500_LN_4_LD_24_RN_12_RD_18_1.png","C_Dist_500_LN_5_LD_14_RN_6_RD_7_1.png","C_Dist_500_LN_7_LD_21_RN_20_RD_24_1.png","C_Dist_500_LN_7_LD_28_RN_12_RD_16_1.png","C_Dist_500_LN_7_LD_28_RN_9_RD_12_1.png","C_Dist_500_LN_9_LD_27_RN_20_RD_24_1.png"]],"dist500_I":[["I_Dist_500_LN_2_LD_3_RN_4_RD_24_0.png","I_Dist_500_LN_5_LD_6_RN_6_RD_18_0.png","I_Dist_500_LN_7_LD_8_RN_9_RD_24_0.png"],["I_Dist_500_LN_7_LD_21_RN_5_RD_6_1.png"]],"dist500_S":[["E_Dist_500_LN_6_LD_8_RN_6_RD_24_0.png"],["E_Dist_500_LN_2_LD_12_RN_2_RD_3_1.png","E_Dist_500_LN_6_LD_24_RN_6_RD_8_1.png"]]}},{"start_time":1551790801643,"click_time":1551790805013,"finger_time":1551790802373,"fix_duration":1386.0046688458874,"trial":1,"RT":730,"MT":2640,"sideResp":1,"stimulus":[],"xmouse":[665,665,665,665,665,665,665,665,665,665,665,665,665,665,665,665,665,665,665,665,665,665,665,665,665,665,665,665,665,665,665,665,665,665,665,665,653,650,647,640,635,601,596,595,595,596,598,607,611,622,636,641,657,662,670,682,691,695,695,696,697,698,700,705,706,706,705,704,703,702,700,700,700,700,700,700,703,709,749,758,765,766,767,767,767,767,767,767,768,768,769,770,772,773,773,773,773,773,773,773,773,775,779,786,789,790,792,795,798,799,801,801,803,805,808,809,810,810,810,810,810,810,809,803,797,793,787,772,746,738,727,720,719,717,717,717,717,717,717,716,713,711,705,700,696,696,695,691,687,679,675,661,656,647,557,522,508,491,488,486,484,484,484,481,477,469,464,447,439],"ymouse":[426,426,425,425,425,425,425,425,425,425,425,425,425,425,425,425,425,425,425,425,425,425,425,425,425,425,425,425,425,425,425,425,425,423,418,413,389,381,373,363,350,275,267,264,262,258,251,245,244,241,237,236,232,230,226,221,217,214,213,211,208,206,200,194,191,191,190,190,190,190,190,190,190,190,190,190,183,165,84,58,45,43,41,41,41,41,41,41,40,40,40,41,47,49,49,49,49,49,49,49,49,50,50,53,54,54,56,58,65,68,73,74,80,91,103,110,118,120,122,122,122,123,124,129,135,138,142,145,149,150,150,150,150,150,150,150,150,150,150,150,150,150,150,150,150,150,150,152,153,155,157,158,160,161,162,162,162,157,155,154,153,153,153,151,146,135,128,103,92],"timestamp_mouse":[11,32,50,70,90,110,131,151,170,190,210,230,250,270,291,311,330,350,370,391,411,431,451,471,491,510,531,551,571,590,610,631,651,670,690,710,730,750,770,790,811,831,849,870,891,910,931,950,971,991,1010,1030,1049,1069,1090,1111,1130,1150,1170,1190,1210,1230,1249,1269,1290,1311,1330,1350,1371,1389,1410,1431,1451,1470,1490,1511,1530,1550,1571,1591,1611,1631,1650,1670,1690,1710,1730,1750,1770,1790,1811,1830,1850,1870,1890,1910,1930,1950,1970,1990,2010,2030,2051,2070,2090,2111,2131,2151,2171,2190,2210,2231,2250,2270,2290,2311,2330,2351,2370,2389,2410,2430,2451,2470,2490,2511,2530,2549,2571,2590,2610,2631,2650,2671,2691,2710,2731,2751,2771,2790,2809,2830,2850,2871,2890,2911,2930,2950,2970,2989,3011,3030,3050,3070,3091,3111,3130,3151,3170,3190,3210,3230,3250,3271,3290,3311,3330,3350,3370],"xSR":624.5,"ySR":395.2,"xT1":354.7,"yT1":0,"xT2":894.3,"yT2":0,"toosoon":0,"cond_shown":"Incongruent","ratio_trial":200,"L_num":7,"L_den":15,"R_num":6,"R_den":9,"correct_side":2,"subjID":"juanfelipemoncadadiab","gender":"0","school":"6","age":"11"},{"start_time":1551790812574,"click_time":1551790816034,"finger_time":1551790814113,"fix_duration":278.785792528102,"trial":2,"RT":1539,"MT":1921,"sideResp":1,"stimulus":[],"xmouse":[663,663,663,663,663,663,663,663,663,663,663,663,663,663,663,663,663,663,663,663,663,663,663,663,663,663,663,663,663,663,663,663,663,663,663,663,663,663,663,663,663,663,663,663,663,663,663,663,663,663,663,663,663,663,663,663,663,663,663,663,663,663,663,663,663,663,663,663,663,663,663,663,663,663,663,668,677,684,684,667,667,667,667,667,667,667,667,667,667,667,667,667,667,667,667,667,667,667,667,667,667,667,667,667,667,667,667,667,666,665,665,665,664,664,663,663,662,662,661,655,639,629,599,543,427,391,350,337,320,318,318,318,318,318,318,324,339,383,406,492,531,544,562,578,598,605,619,638,654,685,686,686,686,686,686,686,688,692,696,697,697,697,697,697,697,697,694,658,617,570,524,477,455,440],"ymouse":[425,425,425,425,425,425,425,425,425,425,425,425,425,425,425,425,425,425,425,425,425,425,425,425,425,425,425,425,425,425,425,425,425,425,425,425,425,425,425,425,425,425,425,425,425,425,425,425,425,425,425,425,425,425,425,425,425,425,425,425,425,425,425,425,425,425,425,425,425,425,425,425,425,425,425,416,398,383,357,307,307,307,307,307,307,307,307,307,307,307,307,307,307,307,307,307,307,307,307,307,307,307,307,307,307,307,307,307,307,307,307,307,307,307,307,307,307,307,307,307,307,307,307,307,299,296,290,286,278,277,277,277,277,277,277,277,277,277,277,284,272,268,261,256,251,249,245,240,236,223,223,223,220,212,210,206,199,184,173,166,166,166,166,166,166,165,165,146,119,92,72,57,51,49],"timestamp_mouse":[2,33,39,59,79,99,120,139,159,179,199,218,239,259,279,299,320,338,358,380,399,420,439,459,480,499,519,539,559,579,599,619,639,659,679,699,719,739,758,779,799,819,839,859,879,899,920,939,959,979,999,1019,1039,1059,1080,1098,1119,1139,1159,1178,1199,1219,1240,1259,1278,1298,1320,1339,1359,1379,1400,1420,1439,1460,1479,1499,1520,1539,1558,1579,1599,1619,1639,1658,1679,1699,1719,1739,1759,1779,1799,1819,1840,1859,1879,1899,1918,1939,1959,1979,1999,2019,2039,2060,2079,2099,2119,2139,2159,2179,2199,2218,2239,2260,2280,2298,2319,2339,2359,2379,2399,2419,2439,2459,2479,2500,2519,2539,2560,2580,2599,2619,2640,2659,2679,2699,2719,2739,2759,2779,2799,2819,2839,2858,2879,2899,2919,2939,2959,2979,2999,3019,3039,3059,3080,3099,3118,3139,3160,3180,3198,3219,3239,3260,3279,3299,3318,3339,3359,3379,3399,3419,3438,3460],"xSR":624.5,"ySR":395.2,"xT1":354.7,"yT1":0,"xT2":894.3,"yT2":0,"toosoon":0,"cond_shown":"Incongruent","ratio_trial":200,"L_num":1,"L_den":2,"R_num":3,"R_den":10,"correct_side":1,"subjID":"juanfelipemoncadadiab","gender":"0","school":"6","age":"11"},{"start_time":1551790821264,"click_time":1551790822353,"finger_time":1551790821614,"fix_duration":1369.9672591215965,"trial":3,"RT":350,"MT":739,"sideResp":2,"stimulus":[],"xmouse":[632,632,632,632,632,632,632,632,632,632,632,632,632,632,632,632,636,660,678,720,746,784,784,788,790,794,810,814,814,819,821,840,845,853,854,855,857,859,861,865,867,873,885,885,885,885,885,885,885,885,885,885,887,897,901],"ymouse":[399,399,399,399,399,399,399,399,399,399,399,399,399,399,399,399,399,395,389,373,362,345,344,341,339,336,325,323,322,307,300,260,250,238,235,231,221,213,206,192,183,162,148,148,148,148,148,148,148,148,148,146,133,102,74],"timestamp_mouse":[13,38,49,69,90,109,130,148,170,189,209,229,249,269,289,309,330,350,370,389,409,429,449,468,489,509,529,548,570,590,608,628,648,669,690,709,729,749,769,789,810,830,849,869,889,909,929,949,969,989,1010,1030,1049,1069,1089],"xSR":624.5,"ySR":395.2,"xT1":354.7,"yT1":0,"xT2":894.3,"yT2":0,"toosoon":0,"cond_shown":"Incongruent","ratio_trial":100,"L_num":13,"L_den":26,"R_num":6,"R_den":10,"correct_side":2,"subjID":"juanfelipemoncadadiab","gender":"0","school":"6","age":"11"},{"start_time":1551790825960,"click_time":1551790826513,"finger_time":1551790826313,"fix_duration":1106.518087631437,"trial":4,"RT":353,"MT":200,"sideResp":2,"stimulus":[],"xmouse":[687,687,687,687,687,687,687,687,687,687,687,687,687,687,687,692,702,725,747,782,801,862,899,920,927,937,946,953],"ymouse":[457,457,457,457,457,457,457,457,457,457,457,457,457,457,457,454,443,409,376,313,285,207,164,127,119,106,100,94],"timestamp_mouse":[15,40,52,73,94,113,133,152,173,193,214,233,253,273,293,313,333,353,375,393,413,433,453,473,493,513,533,553],"xSR":624.5,"ySR":395.2,"xT1":354.7,"yT1":0,"xT2":894.3,"yT2":0,"toosoon":0,"cond_shown":"Incongruent","ratio_trial":300,"L_num":4,"L_den":20,"R_num":2,"R_den":4,"correct_side":2,"subjID":"juanfelipemoncadadiab","gender":"0","school":"6","age":"11"},{"start_time":1551790829865,"click_time":1551790892496,"finger_time":1551790890617,"fix_duration":1349.0387856710008,"trial":5,"RT":60752,"MT":1879,"sideResp":2,"stimulus":[],"xmouse":[697,697,697,697,697,697,697,697,697,697,697,697,697,697,697,697,697,697,697,697,697,697,697,697,697,697,697,697,697,697,697,697,697,697,697,697,697,697,697,697,697,697,697,697,697,697,697,697,697,697,697,697,697,697,697,697,697,697,697,697,697,697,697,697,697,697,697,697,697,697,697,697,697,697,697,697,697,697,697,697,697,697,697,697,697,697,697,697,697,697,697,697,697,697,697,697,697,697,697,697,697,697,697,697,697,697,697,697,697,697,697,697,697,697,697,697,697,697,697,697,697,697,697,697,697,697,697,697,697,697,697,697,697,697,697,697,697,697,697,697,697,697,697,697,697,697,697,697,697,697,697,697,697,697,697,697,697,697,697,697,697,697,697,697,697,697,697,697,697,697,697,697,697,697,697,697,697,697,697,697,697,697,697,697,697,697,697,697,697,697,697,697,697,697,697,697,697,697,697,697,697,697,697,697,697,697,697,697,697,697,697,697,697,697,697,697,697,697,697,697,697,697,697,697,697,697,697,697,697,697,697,697,697,697,697,697,697,697,697,697,697,697,697,697,697,697,697,697,697,697,697,697,697,697,697,697,697,697,697,697,697,697,697,697,697,697,697,697,697,697,697,697,697,697,697,697,697,697,697,697,697,697,697,697,697,697,697,697,697,697,697,697,697,697,697,697,697,697,697,697,697,697,697,697,697,697,697,697,697,697,697,697,697,697,697,697,697,697,697,697,697,697,697,697,697,697,697,697,697,697,697,697,697,697,697,697,697,697,697,697,697,697,697,697,697,697,697,697,697,697,697,697,697,697,697,697,697,697,697,697,697,697,697,697,697,697,697,697,697,697,697,697,697,697,697,697,697,697,697,697,697,697,697,697,697,697,697,697,697,697,697,697,697,697,697,697,697,697,697,697,697,697,697,697,697,697,697,697,697,697,697,697,697,697,697,697,697,697,697,697,697,697,697,697,697,697,697,697,697,697,697,697,697,697,697,697,697,697,697,697,697,697,697,697,697,697,697,697,697,697,697,697,697,697,697,697,697,697,697,697,697,697,697,697,697,697,697,697,697,697,697,697,697,697,697,697,697,697,697,697,697,697,697,697,697,697,697,697,697,697,697,697,697,697,697,697,697,697,697,697,697,697,697,697,697,697,697,697,697,697,697,697,697,697,697,697,697,697,697,697,697,697,697,697,697,697,697,697,697,697,697,697,697,697,697,697,697,697,697,697,697,697,697,697,697,697,697,697,697,697,697,697,697,697,697,697,697,697,697,697,697,697,697,697,697,697,697,697,697,697,697,697,697,697,697,697,697,697,697,697,697,697,697,697,697,697,697,697,697,697,697,697,697,697,697,697,697,697,697,697,697,697,697,697,697,697,697,697,697,697,697,697,697,697,697,697,697,697,697,697,697,697,697,697,697,697,697,697,697,697,697,697,697,697,697,697,697,697,697,697,697,697,697,697,697,697,697,697,697,697,697,697,697,697,697,697,697,697,697,697,697,697,697,697,697,697,697,697,697,697,697,697,697,697,697,697,697,697,697,697,697,697,697,697,697,697,697,697,697,697,697,697,697,697,697,697,697,697,697,697,697,697,697,697,697,697,697,697,697,697,697,697,697,697,697,697,697,697,697,697,697,697,697,697,697,697,697,697,697,697,697,697,697,697,697,697,697,697,697,697,697,697,697,697,697,697,697,697,697,697,697,697,697,697,697,697,697,697,697,697,697,697,697,697,697,697,697,697,697,697,697,697,697,697,697,697,697,697,697,697,697,697,697,697,697,697,697,697,697,697,697,697,697,697,697,697,697,697,697,697,697,697,697,697,697,697,697,697,697,697,697,697,697,697,697,697,697,697,697,697,697,697,697,697,697,697,697,697,697,697,697,697,697,697,697,697,697,697,697,697,697,697,697,697,697,697,697,697,697,697,697,697,697,697,697,697,697,697,697,697,697,697,697,697,697,697,697,697,697,697,697,697,697,697,697,697,697,697,697,697,697,697,697,697,697,697,697,697,697,697,697,697,697,697,697,697,697,697,697,697,697,697,697,697,697,697,697,697,697,697,697,697,697,697,697,697,697,697,697,697,697,697,697,697,697,697,697,697,697,697,697,697,697,697,697,697,697,697,697,697,697,697,697,697,697,697,697,697,697,697,697,697,697,697,697,697,697,697,697,697,697,697,697,697,697,697,697,697,697,697,697,697,697,697,697,697,697,697,697,697,697,697,697,697,697,697,697,697,697,697,697,697,697,697,697,697,697,697,697,697,697,697,697,697,697,697,697,697,697,697,697,697,697,697,697,697,697,697,697,697,697,697,697,697,697,697,697,697,697,697,697,697,697,697,697,697,697,697,697,697,697,697,697,697,697,697,697,697,697,697,697,697,697,697,697,697,697,697,697,697,697,697,697,697,697,697,697,697,697,697,697,697,697,697,697,697,697,697,697,697,697,697,697,697,697,697,697,697,697,697,697,697,697,697,697,697,697,697,697,697,697,697,697,697,697,697,697,697,697,697,697,697,697,697,697,697,697,697,697,697,697,697,697,697,697,697,697,697,697,697,697,697,697,697,697,697,697,697,697,697,697,697,697,697,697,697,697,697,697,697,697,697,697,697,697,697,697,697,697,697,697,697,697,697,697,697,697,697,697,697,697,697,697,697,697,697,697,697,697,697,697,697,697,697,697,697,697,697,697,697,697,697,697,697,697,697,697,697,697,697,697,697,697,697,697,697,697,697,697,697,697,697,697,697,697,697,697,697,697,697,697,697,697,697,697,697,697,697,697,697,697,697,697,697,697,697,697,697,697,697,697,697,697,697,697,697,697,697,697,697,697,697,697,697,697,697,697,697,697,697,697,697,697,697,697,697,697,697,697,697,697,697,697,697,697,697,697,697,697,697,697,697,697,697,697,697,697,697,697,697,697,697,697,697,697,697,697,697,697,697,697,697,697,697,697,697,697,697,697,697,697,697,697,697,697,697,697,697,697,697,697,697,697,697,697,697,697,697,697,697,697,697,697,697,697,697,697,697,697,697,697,697,697,697,697,697,697,697,697,697,697,697,697,697,697,697,697,697,697,697,697,697,697,697,697,697,697,697,697,697,697,697,697,697,697,697,697,697,697,697,697,697,697,697,697,697,697,697,697,697,697,697,697,697,697,697,697,697,697,697,697,697,697,697,697,697,697,697,697,697,697,697,697,697,697,697,697,697,697,697,697,697,697,697,697,697,697,697,697,697,697,697,697,697,697,697,697,697,697,697,697,697,697,697,697,697,697,697,697,697,697,697,697,697,697,697,697,697,697,697,697,697,697,697,697,697,697,697,697,697,697,697,697,697,697,697,697,697,697,697,697,697,697,697,697,697,697,697,697,697,697,697,697,697,697,697,697,697,697,697,697,697,697,697,697,697,697,697,697,697,697,697,697,697,697,697,697,697,697,697,697,697,697,697,697,697,697,697,697,697,697,697,697,697,697,697,697,697,697,697,697,697,697,697,697,697,697,697,697,697,697,697,697,697,697,697,697,697,697,697,697,697,697,697,697,697,697,697,697,697,697,697,697,697,697,697,697,697,697,697,697,697,697,697,697,697,697,697,697,697,697,697,697,697,697,697,697,697,697,697,697,697,697,697,697,697,697,697,697,697,697,697,697,697,697,697,697,697,697,697,697,697,697,697,697,697,697,697,697,697,697,697,697,697,697,697,697,697,697,697,697,697,697,697,697,697,697,697,697,697,697,697,697,697,697,697,697,697,697,697,697,697,697,697,697,697,697,697,697,697,697,697,697,697,697,697,697,697,697,697,697,697,697,697,697,697,697,697,697,697,697,697,697,697,697,697,697,697,697,697,697,697,697,697,697,697,697,697,697,697,697,697,697,697,697,697,697,697,697,697,697,697,697,697,697,697,697,697,697,697,697,697,697,697,697,697,697,697,697,697,697,697,697,697,697,697,697,697,697,697,697,697,697,697,697,697,697,697,697,697,697,697,697,697,697,697,697,697,697,697,697,697,697,697,697,697,697,697,697,697,697,697,697,697,697,697,697,697,697,697,697,697,697,697,697,697,697,697,697,697,697,697,697,697,697,697,697,697,697,697,697,697,697,697,697,697,697,697,697,697,697,697,697,697,697,697,697,697,697,697,697,697,697,697,697,697,697,697,697,697,697,697,697,697,697,697,697,697,697,697,697,697,697,697,697,697,697,697,697,697,697,697,697,697,697,697,697,697,697,697,697,697,697,697,697,697,697,697,697,697,697,697,697,697,697,697,697,697,697,697,697,697,697,697,697,697,697,697,697,697,697,697,697,697,697,697,697,697,697,697,697,697,697,697,697,697,697,697,697,697,697,697,697,697,697,697,697,697,697,697,697,697,697,697,697,697,697,697,697,697,697,697,697,697,697,697,697,697,697,697,697,697,697,697,697,697,697,697,697,697,697,697,697,697,697,697,697,697,697,697,697,697,697,697,697,697,697,697,697,697,697,697,697,697,697,697,697,697,697,697,697,697,697,697,697,697,697,697,697,697,697,697,697,697,697,697,697,697,697,697,697,697,697,697,697,697,697,697,697,697,697,697,697,697,697,697,697,697,697,697,697,697,697,697,697,697,697,697,697,697,697,697,697,697,697,697,697,697,697,697,697,697,697,697,697,697,697,697,697,697,697,697,697,697,697,697,697,697,697,697,697,697,697,697,697,697,697,697,697,697,697,697,697,697,697,697,697,697,697,697,697,697,697,697,697,697,697,697,697,697,697,697,697,697,697,697,697,697,697,697,697,697,697,697,697,697,697,697,697,697,697,697,697,697,697,697,697,697,697,697,697,697,697,697,697,697,697,697,697,697,697,697,697,697,697,697,697,697,697,697,697,697,697,697,697,697,697,697,697,697,697,697,697,697,697,697,697,697,697,697,697,697,697,697,697,697,697,697,697,697,697,697,697,697,697,697,697,697,697,697,697,697,697,697,697,697,697,697,697,697,697,697,697,697,697,697,697,697,697,697,697,697,697,697,697,697,697,697,697,697,697,697,697,697,697,697,697,697,697,697,697,697,697,697,697,697,697,697,697,697,697,697,697,697,697,697,697,697,697,697,697,697,697,697,697,697,697,697,697,697,697,697,697,697,697,697,697,697,697,697,697,697,697,697,697,697,697,697,697,697,697,697,697,697,697,697,697,697,697,697,697,697,697,697,697,697,697,697,697,697,697,697,697,697,697,697,697,697,697,697,697,697,697,697,697,697,697,697,697,697,697,697,697,697,697,697,697,697,697,697,697,697,697,697,697,697,697,697,697,697,697,697,697,697,697,697,697,697,697,697,697,697,697,697,697,697,697,697,697,697,697,697,697,697,697,697,697,697,697,697,697,697,697,697,697,697,697,697,697,697,697,697,697,697,697,697,697,697,697,697,697,697,697,697,697,697,697,697,697,697,697,697,697,697,697,697,697,697,697,697,697,697,697,697,697,697,697,697,697,697,697,697,697,697,697,697,697,697,697,697,697,697,697,697,697,697,697,697,697,697,697,697,697,697,697,697,697,697,697,697,697,697,697,697,697,697,697,697,697,697,697,697,697,697,697,697,697,697,697,697,697,697,697,697,697,697,697,697,697,697,697,697,697,697,697,697,697,697,697,697,697,697,697,697,697,697,697,697,697,697,697,697,697,697,697,697,697,697,697,697,697,697,697,697,697,697,697,697,697,697,697,697,697,697,697,697,697,697,697,697,697,697,697,697,697,697,697,697,697,697,697,697,697,697,697,697,697,697,697,697,697,697,697,697,697,697,697,697,697,697,697,697,697,697,697,697,697,697,697,697,697,697,697,697,697,697,697,697,697,697,697,697,697,697,697,697,697,697,697,697,697,697,697,697,697,697,697,697,697,697,697,697,697,697,697,697,697,697,697,697,697,697,697,697,697,697,697,697,697,697,697,697,697,697,697,697,697,697,697,697,697,697,697,697,697,697,697,697,697,697,697,697,697,697,697,697,697,697,697,697,697,697,697,697,697,697,697,697,697,697,697,697,697,697,697,697,697,697,697,697,697,697,697,697,697,697,697,697,697,697,697,697,697,697,697,697,697,697,697,697,697,697,697,697,697,697,697,697,697,697,697,697,697,697,697,697,697,697,697,697,697,697,697,697,697,697,697,697,697,697,697,697,697,697,697,697,697,697,697,697,697,697,697,697,697,697,697,697,697,697,697,697,697,697,697,697,697,697,697,697,697,697,697,697,697,697,697,697,697,697,697,697,697,697,697,697,697,697,697,697,697,697,697,697,697,697,697,697,697,697,697,697,697,697,697,697,697,697,697,697,697,697,697,697,697,697,697,697,697,697,697,697,697,697,697,697,697,697,697,697,697,697,697,697,697,697,697,697,697,697,697,697,697,697,697,697,697,697,697,697,697,697,697,697,697,697,697,697,697,697,697,697,697,697,697,697,697,697,697,697,697,697,697,697,697,697,697,697,697,697,697,697,697,697,697,697,697,697,697,697,697,697,697,697,697,697,697,697,697,697,697,697,697,697,697,697,697,697,697,697,697,697,697,697,697,697,697,697,697,697,697,697,697,697,697,697,697,697,697,697,697,697,697,697,697,697,697,697,697,697,697,697,697,697,697,697,697,697,697,697,697,697,697,697,697,697,697,697,697,697,697,697,697,697,697,697,697,697,697,697,697,697,697,697,697,697,697,697,697,697,697,697,697,697,697,697,697,697,697,697,697,697,697,697,697,697,697,697,697,697,697,697,697,697,697,697,697,697,697,697,697,697,697,697,697,697,697,697,697,697,697,697,697,697,697,697,697,697,697,697,697,697,697,697,697,697,697,697,697,697,697,697,697,697,697,697,697,697,697,697,697,697,697,697,697,697,697,691,667,653,652,652,652,652,652,652,655,660,660,660,660,660,660,660,671,686,692,692,694,705,708,717,724,756,801,823,832,840,847,855,855,860,860,862,867,871,871,873,873,873,863,858,858,860,871,876,876,876,876,876,876,876,876,876,876,876,876,876,876,876,876,876,876,876,876,876,876,876,877,878,878,878,878,878,878,878,878,878,878,878,878,878,878,878,878,878,878,878,878,879,882,895],"ymouse":[407,407,407,407,407,407,407,407,407,407,407,407,407,407,407,407,407,407,407,407,407,407,407,407,407,407,407,407,407,407,407,407,407,407,407,407,407,407,407,407,407,407,407,407,407,407,407,407,407,407,407,407,407,407,407,407,407,407,407,407,407,407,407,407,407,407,407,407,407,407,407,407,407,407,407,407,407,407,407,407,407,407,407,407,407,407,407,407,407,407,407,407,407,407,407,407,407,407,407,407,407,407,407,407,407,407,407,407,407,407,407,407,407,407,407,407,407,407,407,407,407,407,407,407,407,407,407,407,407,407,407,407,407,407,407,407,407,407,407,407,407,407,407,407,407,407,407,407,407,407,407,407,407,407,407,407,407,407,407,407,407,407,407,407,407,407,407,407,407,407,407,407,407,407,407,407,407,407,407,407,407,407,407,407,407,407,407,407,407,407,407,407,407,407,407,407,407,407,407,407,407,407,407,407,407,407,407,407,407,407,407,407,407,407,407,407,407,407,407,407,407,407,407,407,407,407,407,407,407,407,407,407,407,407,407,407,407,407,407,407,407,407,407,407,407,407,407,407,407,407,407,407,407,407,407,407,407,407,407,407,407,407,407,407,407,407,407,407,407,407,407,407,407,407,407,407,407,407,407,407,407,407,407,407,407,407,407,407,407,407,407,407,407,407,407,407,407,407,407,407,407,407,407,407,407,407,407,407,407,407,407,407,407,407,407,407,407,407,407,407,407,407,407,407,407,407,407,407,407,407,407,407,407,407,407,407,407,407,407,407,407,407,407,407,407,407,407,407,407,407,407,407,407,407,407,407,407,407,407,407,407,407,407,407,407,407,407,407,407,407,407,407,407,407,407,407,407,407,407,407,407,407,407,407,407,407,407,407,407,407,407,407,407,407,407,407,407,407,407,407,407,407,407,407,407,407,407,407,407,407,407,407,407,407,407,407,407,407,407,407,407,407,407,407,407,407,407,407,407,407,407,407,407,407,407,407,407,407,407,407,407,407,407,407,407,407,407,407,407,407,407,407,407,407,407,407,407,407,407,407,407,407,407,407,407,407,407,407,407,407,407,407,407,407,407,407,407,407,407,407,407,407,407,407,407,407,407,407,407,407,407,407,407,407,407,407,407,407,407,407,407,407,407,407,407,407,407,407,407,407,407,407,407,407,407,407,407,407,407,407,407,407,407,407,407,407,407,407,407,407,407,407,407,407,407,407,407,407,407,407,407,407,407,407,407,407,407,407,407,407,407,407,407,407,407,407,407,407,407,407,407,407,407,407,407,407,407,407,407,407,407,407,407,407,407,407,407,407,407,407,407,407,407,407,407,407,407,407,407,407,407,407,407,407,407,407,407,407,407,407,407,407,407,407,407,407,407,407,407,407,407,407,407,407,407,407,407,407,407,407,407,407,407,407,407,407,407,407,407,407,407,407,407,407,407,407,407,407,407,407,407,407,407,407,407,407,407,407,407,407,407,407,407,407,407,407,407,407,407,407,407,407,407,407,407,407,407,407,407,407,407,407,407,407,407,407,407,407,407,407,407,407,407,407,407,407,407,407,407,407,407,407,407,407,407,407,407,407,407,407,407,407,407,407,407,407,407,407,407,407,407,407,407,407,407,407,407,407,407,407,407,407,407,407,407,407,407,407,407,407,407,407,407,407,407,407,407,407,407,407,407,407,407,407,407,407,407,407,407,407,407,407,407,407,407,407,407,407,407,407,407,407,407,407,407,407,407,407,407,407,407,407,407,407,407,407,407,407,407,407,407,407,407,407,407,407,407,407,407,407,407,407,407,407,407,407,407,407,407,407,407,407,407,407,407,407,407,407,407,407,407,407,407,407,407,407,407,407,407,407,407,407,407,407,407,407,407,407,407,407,407,407,407,407,407,407,407,407,407,407,407,407,407,407,407,407,407,407,407,407,407,407,407,407,407,407,407,407,407,407,407,407,407,407,407,407,407,407,407,407,407,407,407,407,407,407,407,407,407,407,407,407,407,407,407,407,407,407,407,407,407,407,407,407,407,407,407,407,407,407,407,407,407,407,407,407,407,407,407,407,407,407,407,407,407,407,407,407,407,407,407,407,407,407,407,407,407,407,407,407,407,407,407,407,407,407,407,407,407,407,407,407,407,407,407,407,407,407,407,407,407,407,407,407,407,407,407,407,407,407,407,407,407,407,407,407,407,407,407,407,407,407,407,407,407,407,407,407,407,407,407,407,407,407,407,407,407,407,407,407,407,407,407,407,407,407,407,407,407,407,407,407,407,407,407,407,407,407,407,407,407,407,407,407,407,407,407,407,407,407,407,407,407,407,407,407,407,407,407,407,407,407,407,407,407,407,407,407,407,407,407,407,407,407,407,407,407,407,407,407,407,407,407,407,407,407,407,407,407,407,407,407,407,407,407,407,407,407,407,407,407,407,407,407,407,407,407,407,407,407,407,407,407,407,407,407,407,407,407,407,407,407,407,407,407,407,407,407,407,407,407,407,407,407,407,407,407,407,407,407,407,407,407,407,407,407,407,407,407,407,407,407,407,407,407,407,407,407,407,407,407,407,407,407,407,407,407,407,407,407,407,407,407,407,407,407,407,407,407,407,407,407,407,407,407,407,407,407,407,407,407,407,407,407,407,407,407,407,407,407,407,407,407,407,407,407,407,407,407,407,407,407,407,407,407,407,407,407,407,407,407,407,407,407,407,407,407,407,407,407,407,407,407,407,407,407,407,407,407,407,407,407,407,407,407,407,407,407,407,407,407,407,407,407,407,407,407,407,407,407,407,407,407,407,407,407,407,407,407,407,407,407,407,407,407,407,407,407,407,407,407,407,407,407,407,407,407,407,407,407,407,407,407,407,407,407,407,407,407,407,407,407,407,407,407,407,407,407,407,407,407,407,407,407,407,407,407,407,407,407,407,407,407,407,407,407,407,407,407,407,407,407,407,407,407,407,407,407,407,407,407,407,407,407,407,407,407,407,407,407,407,407,407,407,407,407,407,407,407,407,407,407,407,407,407,407,407,407,407,407,407,407,407,407,407,407,407,407,407,407,407,407,407,407,407,407,407,407,407,407,407,407,407,407,407,407,407,407,407,407,407,407,407,407,407,407,407,407,407,407,407,407,407,407,407,407,407,407,407,407,407,407,407,407,407,407,407,407,407,407,407,407,407,407,407,407,407,407,407,407,407,407,407,407,407,407,407,407,407,407,407,407,407,407,407,407,407,407,407,407,407,407,407,407,407,407,407,407,407,407,407,407,407,407,407,407,407,407,407,407,407,407,407,407,407,407,407,407,407,407,407,407,407,407,407,407,407,407,407,407,407,407,407,407,407,407,407,407,407,407,407,407,407,407,407,407,407,407,407,407,407,407,407,407,407,407,407,407,407,407,407,407,407,407,407,407,407,407,407,407,407,407,407,407,407,407,407,407,407,407,407,407,407,407,407,407,407,407,407,407,407,407,407,407,407,407,407,407,407,407,407,407,407,407,407,407,407,407,407,407,407,407,407,407,407,407,407,407,407,407,407,407,407,407,407,407,407,407,407,407,407,407,407,407,407,407,407,407,407,407,407,407,407,407,407,407,407,407,407,407,407,407,407,407,407,407,407,407,407,407,407,407,407,407,407,407,407,407,407,407,407,407,407,407,407,407,407,407,407,407,407,407,407,407,407,407,407,407,407,407,407,407,407,407,407,407,407,407,407,407,407,407,407,407,407,407,407,407,407,407,407,407,407,407,407,407,407,407,407,407,407,407,407,407,407,407,407,407,407,407,407,407,407,407,407,407,407,407,407,407,407,407,407,407,407,407,407,407,407,407,407,407,407,407,407,407,407,407,407,407,407,407,407,407,407,407,407,407,407,407,407,407,407,407,407,407,407,407,407,407,407,407,407,407,407,407,407,407,407,407,407,407,407,407,407,407,407,407,407,407,407,407,407,407,407,407,407,407,407,407,407,407,407,407,407,407,407,407,407,407,407,407,407,407,407,407,407,407,407,407,407,407,407,407,407,407,407,407,407,407,407,407,407,407,407,407,407,407,407,407,407,407,407,407,407,407,407,407,407,407,407,407,407,407,407,407,407,407,407,407,407,407,407,407,407,407,407,407,407,407,407,407,407,407,407,407,407,407,407,407,407,407,407,407,407,407,407,407,407,407,407,407,407,407,407,407,407,407,407,407,407,407,407,407,407,407,407,407,407,407,407,407,407,407,407,407,407,407,407,407,407,407,407,407,407,407,407,407,407,407,407,407,407,407,407,407,407,407,407,407,407,407,407,407,407,407,407,407,407,407,407,407,407,407,407,407,407,407,407,407,407,407,407,407,407,407,407,407,407,407,407,407,407,407,407,407,407,407,407,407,407,407,407,407,407,407,407,407,407,407,407,407,407,407,407,407,407,407,407,407,407,407,407,407,407,407,407,407,407,407,407,407,407,407,407,407,407,407,407,407,407,407,407,407,407,407,407,407,407,407,407,407,407,407,407,407,407,407,407,407,407,407,407,407,407,407,407,407,407,407,407,407,407,407,407,407,407,407,407,407,407,407,407,407,407,407,407,407,407,407,407,407,407,407,407,407,407,407,407,407,407,407,407,407,407,407,407,407,407,407,407,407,407,407,407,407,407,407,407,407,407,407,407,407,407,407,407,407,407,407,407,407,407,407,407,407,407,407,407,407,407,407,407,407,407,407,407,407,407,407,407,407,407,407,407,407,407,407,407,407,407,407,407,407,407,407,407,407,407,407,407,407,407,407,407,407,407,407,407,407,407,407,407,407,407,407,407,407,407,407,407,407,407,407,407,407,407,407,407,407,407,407,407,407,407,407,407,407,407,407,407,407,407,407,407,407,407,407,407,407,407,407,407,407,407,407,407,407,407,407,407,407,407,407,407,407,407,407,407,407,407,407,407,407,407,407,407,407,407,407,407,407,407,407,407,407,407,407,407,407,407,407,407,407,407,407,407,407,407,407,407,407,407,407,407,407,407,407,407,407,407,407,407,407,407,407,407,407,407,407,407,407,407,407,407,407,407,407,407,407,407,407,407,407,407,407,407,407,407,407,407,407,407,407,407,407,407,407,407,407,407,407,407,407,407,407,407,407,407,407,407,407,407,407,407,407,407,407,407,407,407,407,407,407,407,407,407,407,407,407,407,407,407,407,407,407,407,407,407,407,407,407,407,407,407,407,407,407,407,407,407,407,407,407,407,407,407,407,407,407,407,407,407,407,407,407,407,407,407,407,407,407,407,407,407,407,407,407,407,407,407,407,407,407,407,407,407,407,407,407,407,407,407,407,407,407,407,407,407,407,407,407,407,407,407,407,407,407,407,407,407,407,407,407,407,407,407,407,407,407,407,407,407,407,407,407,407,407,407,407,407,407,407,407,407,407,407,407,407,407,407,407,407,407,407,407,407,407,407,407,407,407,407,407,407,407,407,407,407,407,407,407,407,407,407,407,407,407,407,407,407,407,407,407,407,407,407,407,407,407,407,407,407,407,407,407,407,407,407,407,407,407,407,407,407,407,407,407,407,407,407,407,407,407,407,407,407,407,407,407,407,407,407,407,407,407,407,407,407,407,407,407,407,407,407,407,407,407,407,407,407,407,407,407,407,407,407,407,407,407,407,407,407,407,407,407,407,407,407,407,407,407,407,407,407,407,407,407,407,407,407,407,407,407,407,407,407,407,407,407,407,407,407,407,407,407,407,407,407,407,407,407,407,407,407,407,407,407,407,407,407,407,407,407,407,407,407,407,407,407,407,407,407,407,407,407,407,407,407,407,407,407,407,407,407,407,407,407,407,407,407,407,407,407,407,407,407,407,407,407,407,407,407,407,407,407,407,407,407,407,407,407,407,407,407,407,407,407,407,407,407,407,407,407,407,407,407,407,407,407,407,407,407,407,407,407,407,407,407,407,407,407,407,407,407,407,407,407,407,407,407,407,407,407,407,407,407,407,407,407,407,407,407,407,407,407,407,407,407,407,407,407,407,407,407,407,407,407,407,407,407,407,407,407,407,407,407,407,407,407,407,407,407,407,407,407,407,407,407,407,407,407,407,407,407,407,407,407,407,407,407,407,407,407,407,407,407,407,407,407,407,407,407,407,407,407,407,407,407,407,407,407,407,407,407,407,407,407,407,407,407,407,407,407,407,407,407,407,407,407,407,407,407,407,407,407,407,407,407,407,407,407,407,407,407,407,407,407,407,407,407,407,407,407,407,407,407,407,407,407,407,407,407,407,407,407,407,407,407,407,407,407,407,407,407,407,407,407,407,407,407,407,407,407,407,407,407,407,407,407,407,407,407,407,407,407,407,407,407,407,407,407,407,407,407,407,407,407,407,407,407,407,407,407,407,407,407,407,407,407,407,407,407,407,407,407,407,407,407,407,407,407,407,407,407,407,407,407,407,407,407,407,407,407,407,407,407,407,407,407,407,407,407,407,407,407,407,407,407,407,407,407,407,407,407,407,407,407,407,407,407,407,407,407,407,407,407,407,407,407,407,407,407,407,407,407,407,407,407,407,407,407,407,407,407,407,407,407,407,407,407,407,407,407,407,407,407,407,407,407,407,407,407,407,407,407,407,407,407,407,407,407,407,407,407,407,407,407,407,407,407,407,407,407,407,407,407,407,407,407,407,407,407,407,407,407,407,407,407,407,407,407,407,407,407,407,407,407,407,407,407,407,407,407,407,407,407,407,407,407,407,407,407,407,407,407,407,407,407,407,407,407,407,407,407,407,407,407,407,407,407,407,407,407,407,407,407,407,407,407,407,407,407,407,407,407,407,407,407,407,407,407,407,407,407,407,407,407,407,407,407,407,407,407,407,407,407,407,407,407,407,407,407,407,407,407,407,359,259,222,221,221,221,221,221,221,221,221,221,221,221,221,221,221,232,246,249,249,249,225,222,211,207,199,186,178,176,173,172,169,169,168,168,168,161,151,148,138,124,119,95,82,71,67,62,62,62,62,62,62,62,62,62,62,62,62,62,62,62,62,62,62,62,62,62,62,64,67,75,78,79,79,79,79,79,79,79,79,79,79,79,79,79,79,79,79,79,79,81,83,83,76],"timestamp_mouse":[13,30,49,67,87,108,128,148,168,188,208,228,248,268,288,308,328,349,368,388,408,428,448,468,488,508,528,549,568,588,608,628,648,668,688,709,728,748,767,788,808,828,848,868,888,908,928,948,967,988,1008,1028,1048,1069,1089,1109,1128,1148,1167,1188,1209,1228,1249,1268,1289,1308,1329,1348,1368,1388,1407,1429,1448,1468,1489,1508,1529,1549,1569,1588,1608,1628,1649,1669,1688,1708,1728,1748,1769,1789,1808,1828,1848,1869,1888,1909,1927,1948,1969,1989,2007,2028,2048,2068,2088,2108,2128,2148,2168,2188,2208,2228,2248,2268,2289,2307,2329,2348,2368,2387,2408,2429,2449,2468,2487,2508,2528,2548,2568,2588,2608,2628,2648,2668,2688,2708,2728,2748,2769,2788,2808,2828,2848,2869,2889,2909,2927,2948,2968,2988,3008,3027,3048,3068,3089,3108,3127,3148,3168,3188,3209,3227,3248,3268,3288,3307,3329,3348,3368,3389,3408,3428,3449,3468,3488,3508,3528,3549,3568,3588,3608,3629,3648,3668,3689,3708,3728,3748,3768,3788,3808,3827,3848,3868,3889,3908,3928,3948,3969,3988,4008,4028,4049,4068,4088,4108,4128,4149,4168,4188,4208,4228,4248,4269,4288,4308,4329,4348,4367,4388,4409,4429,4448,4467,4489,4508,4528,4548,4568,4588,4608,4628,4649,4668,4689,4709,4727,4747,4769,4788,4811,4831,4850,4870,4890,4911,4932,4950,4970,4991,5010,5030,5050,5071,5090,5110,5130,5151,5170,5191,5211,5230,5250,5270,5290,5311,5332,5351,5371,5392,5411,5431,5452,5470,5490,5511,5530,5551,5572,5592,5612,5630,5651,5671,5691,5710,5730,5750,5770,5790,5811,5832,5850,5871,5890,5911,5930,5951,5970,5990,6011,6030,6050,6070,6090,6110,6130,6150,6171,6190,6210,6230,6251,6272,6291,6311,6332,6351,6370,6391,6411,6431,6450,6471,6491,6511,6532,6551,6571,6591,6610,6630,6653,6670,6690,6710,6731,6752,6771,6790,6811,6831,6850,6871,6891,6911,6932,6951,6971,6992,7012,7031,7052,7071,7091,7112,7131,7151,7172,7192,7211,7231,7252,7272,7291,7311,7332,7352,7371,7392,7412,7431,7451,7471,7493,7512,7531,7551,7571,7592,7611,7632,7651,7671,7691,7711,7732,7752,7771,7792,7811,7831,7851,7871,7891,7912,7932,7952,7971,7991,8011,8032,8052,8072,8092,8111,8132,8151,8172,8192,8211,8231,8252,8271,8291,8311,8331,8352,8372,8391,8411,8432,8450,8471,8491,8511,8532,8551,8571,8591,8611,8631,8651,8671,8691,8711,8732,8751,8772,8791,8811,8831,8851,8872,8891,8912,8931,8951,8972,8991,9011,9031,9051,9071,9092,9111,9132,9151,9171,9192,9212,9231,9251,9271,9292,9312,9332,9352,9371,9391,9411,9431,9452,9471,9491,9511,9532,9551,9571,9591,9612,9632,9652,9671,9691,9711,9731,9752,9771,9791,9811,9832,9851,9870,9891,9911,9930,9951,9971,9990,10011,10031,10050,10070,10090,10111,10131,10151,10171,10191,10212,10231,10252,10271,10292,10311,10332,10351,10372,10391,10411,10432,10451,10472,10491,10512,10531,10552,10571,10592,10611,10632,10652,10671,10691,10712,10731,10752,10771,10791,10811,10831,10852,10871,10891,10911,10932,10952,10971,10992,11011,11030,11050,11070,11091,11111,11131,11151,11171,11190,11211,11230,11250,11270,11290,11310,11331,11350,11371,11390,11410,11430,11451,11471,11490,11510,11531,11550,11570,11591,11610,11630,11650,11670,11691,11710,11732,11750,11770,11790,11810,11830,11850,11870,11890,11910,11931,11950,11971,11990,12010,12031,12050,12070,12090,12110,12130,12152,12171,12190,12211,12231,12250,12272,12291,12311,12332,12352,12372,12392,12411,12432,12451,12472,12490,12512,12531,12550,12571,12590,12610,12630,12650,12670,12690,12712,12731,12751,12770,12790,12810,12830,12851,12872,12891,12911,12930,12950,12970,12990,13012,13030,13050,13071,13090,13110,13130,13150,13172,13191,13211,13231,13252,13271,13292,13311,13331,13351,13371,13391,13411,13432,13450,13470,13491,13510,13531,13551,13571,13590,13611,13632,13651,13671,13691,13712,13731,13752,13771,13790,13812,13830,13852,13870,13891,13912,13930,13950,13971,13992,14010,14030,14050,14070,14092,14110,14132,14151,14171,14191,14211,14232,14251,14271,14292,14312,14332,14350,14370,14391,14411,14431,14451,14471,14491,14512,14532,14551,14571,14591,14610,14630,14650,14671,14690,14710,14730,14750,14770,14791,14811,14831,14851,14871,14891,14910,14931,14951,14972,14991,15011,15031,15051,15072,15091,15111,15132,15152,15171,15191,15211,15232,15251,15271,15291,15312,15332,15351,15370,15391,15410,15430,15450,15470,15490,15510,15530,15551,15572,15591,15611,15631,15651,15671,15690,15710,15731,15751,15771,15791,15811,15831,15852,15871,15891,15911,15931,15952,15970,15991,16011,16032,16051,16072,16091,16111,16131,16152,16171,16191,16210,16230,16251,16270,16291,16311,16330,16350,16371,16391,16410,16431,16450,16472,16490,16510,16531,16551,16571,16592,16612,16630,16650,16670,16692,16711,16730,16750,16770,16791,16811,16830,16850,16870,16892,16912,16930,16951,16971,16990,17010,17032,17050,17070,17090,17110,17131,17151,17171,17191,17211,17232,17251,17271,17291,17311,17331,17351,17370,17391,17411,17431,17451,17471,17492,17511,17530,17550,17571,17591,17612,17630,17650,17671,17691,17711,17731,17750,17771,17791,17812,17831,17850,17871,17890,17911,17932,17950,17972,17992,18010,18030,18050,18070,18091,18111,18130,18152,18170,18190,18210,18230,18250,18271,18291,18311,18330,18350,18370,18391,18412,18431,18451,18470,18491,18511,18532,18552,18571,18591,18611,18630,18652,18671,18692,18711,18730,18752,18771,18791,18812,18831,18851,18871,18891,18911,18930,18950,18970,18991,19010,19030,19050,19070,19090,19110,19130,19150,19170,19192,19211,19230,19251,19271,19291,19311,19330,19350,19372,19391,19411,19431,19451,19472,19491,19511,19530,19551,19571,19590,19610,19630,19650,19671,19691,19712,19732,19752,19770,19790,19810,19830,19850,19872,19891,19911,19930,19950,19972,19991,20012,20032,20051,20071,20090,20112,20130,20150,20170,20190,20210,20232,20251,20285,20291,20311,20331,20351,20370,20391,20411,20431,20451,20471,20491,20511,20531,20551,20571,20592,20610,20630,20652,20671,20691,20712,20731,20752,20771,20791,20810,20832,20851,20871,20891,20911,20931,20951,20971,20991,21011,21032,21051,21070,21092,21111,21130,21152,21171,21192,21211,21232,21252,21271,21291,21312,21331,21351,21370,21391,21412,21431,21451,21472,21492,21510,21532,21551,21571,21590,21611,21630,21650,21670,21691,21711,21730,21751,21770,21790,21810,21830,21851,21871,21892,21912,21932,21951,21971,21991,22011,22032,22051,22071,22092,22111,22130,22150,22171,22191,22210,22231,22252,22270,22291,22312,22331,22350,22370,22390,22410,22431,22450,22470,22491,22511,22530,22551,22571,22591,22612,22630,22652,22671,22691,22711,22730,22750,22771,22792,22811,22832,22851,22872,22891,22911,22930,22951,22972,22990,23011,23031,23050,23070,23090,23111,23131,23152,23171,23191,23211,23232,23251,23271,23291,23310,23331,23352,23372,23390,23410,23430,23452,23471,23490,23512,23530,23550,23571,23592,23610,23630,23650,23671,23691,23712,23730,23751,23770,23790,23811,23830,23852,23871,23892,23911,23931,23952,23971,23991,24011,24030,24051,24071,24091,24110,24130,24150,24170,24190,24210,24230,24250,24270,24290,24312,24331,24351,24371,24392,24412,24431,24451,24471,24491,24511,24532,24552,24571,24591,24612,24631,24651,24671,24691,24712,24732,24751,24770,24790,24810,24832,24851,24870,24892,24911,24931,24952,24970,24990,25011,25030,25051,25071,25092,25110,25130,25152,25172,25191,25211,25231,25250,25271,25291,25311,25331,25351,25372,25391,25411,25431,25452,25470,25492,25511,25532,25552,25572,25590,25611,25630,25650,25672,25691,25712,25731,25750,25771,25791,25811,25830,25850,25870,25891,25910,25930,25951,25970,25992,26010,26031,26050,26071,26091,26111,26130,26150,26170,26190,26211,26232,26251,26270,26291,26310,26331,26351,26370,26390,26411,26430,26451,26472,26492,26510,26531,26552,26571,26590,26611,26630,26651,26670,26690,26710,26730,26751,26772,26791,26810,26830,26851,26870,26890,26910,26930,26951,26970,26991,27011,27030,27052,27072,27091,27112,27131,27151,27171,27191,27212,27231,27252,27271,27291,27312,27331,27352,27370,27391,27412,27430,27451,27470,27491,27511,27530,27551,27571,27591,27610,27631,27650,27671,27691,27712,27731,27750,27770,27791,27811,27831,27851,27871,27892,27911,27931,27951,27971,27992,28010,28031,28050,28072,28091,28111,28131,28151,28171,28192,28210,28230,28250,28270,28291,28311,28331,28350,28370,28392,28410,28432,28452,28470,28490,28511,28532,28550,28570,28590,28610,28632,28651,28671,28691,28711,28730,28750,28771,28791,28811,28831,28850,28870,28890,28910,28930,28950,28970,28991,29012,29030,29051,29071,29090,29110,29131,29152,29171,29190,29210,29232,29251,29271,29291,29310,29330,29351,29372,29390,29410,29430,29450,29472,29491,29512,29530,29551,29570,29591,29611,29630,29650,29670,29691,29710,29732,29752,29771,29792,29811,29831,29851,29871,29891,29912,29930,29950,29972,29990,30011,30030,30050,30071,30090,30110,30130,30150,30171,30191,30211,30230,30250,30270,30290,30310,30330,30350,30370,30390,30410,30430,30450,30471,30491,30511,30530,30550,30571,30591,30611,30630,30650,30672,30691,30711,30730,30750,30771,30790,30810,30830,30851,30871,30891,30910,30930,30950,30970,30990,31011,31031,31051,31071,31091,31111,31131,31151,31171,31190,31210,31230,31251,31272,31292,31310,31330,31351,31372,31390,31411,31432,31450,31470,31490,31512,31531,31551,31571,31590,31611,31631,31650,31670,31690,31711,31731,31751,31770,31791,31811,31832,31851,31870,31891,31910,31931,31951,31972,31990,32011,32031,32052,32070,32091,32110,32130,32150,32171,32192,32211,32231,32251,32271,32290,32312,32332,32351,32370,32391,32411,32430,32451,32471,32491,32512,32531,32551,32570,32592,32611,32631,32651,32671,32692,32711,32731,32751,32771,32791,32811,32830,32852,32872,32890,32910,32930,32951,32972,32991,33011,33032,33050,33071,33091,33112,33131,33150,33170,33190,33211,33230,33250,33270,33290,33310,33331,33351,33372,33390,33411,33430,33450,33471,33491,33511,33532,33550,33571,33591,33610,33630,33651,33670,33692,33711,33730,33752,33771,33791,33811,33830,33851,33871,33890,33911,33930,33952,33970,33990,34012,34030,34052,34070,34091,34110,34130,34152,34170,34192,34210,34230,34250,34271,34292,34311,34331,34351,34371,34391,34410,34431,34451,34471,34491,34511,34532,34551,34572,34591,34612,34630,34651,34671,34690,34712,34731,34750,34770,34790,34811,34831,34850,34871,34891,34911,34931,34950,34971,34991,35011,35032,35051,35071,35094,35111,35131,35152,35171,35191,35212,35230,35251,35271,35292,35311,35331,35351,35371,35391,35411,35431,35450,35470,35490,35511,35530,35550,35572,35592,35611,35630,35651,35671,35691,35711,35732,35750,35771,35790,35811,35830,35850,35870,35890,35911,35931,35950,35971,35991,36012,36030,36050,36072,36092,36110,36131,36150,36171,36191,36210,36230,36251,36271,36292,36311,36330,36350,36371,36392,36411,36431,36450,36470,36492,36511,36531,36551,36570,36590,36610,36631,36652,36671,36690,36711,36730,36751,36771,36790,36812,36830,36852,36872,36891,36911,36931,36951,36972,36991,37011,37032,37051,37071,37092,37112,37131,37150,37170,37191,37210,37230,37250,37270,37290,37312,37330,37350,37370,37391,37411,37430,37451,37471,37491,37511,37531,37551,37571,37592,37612,37631,37652,37671,37690,37712,37730,37752,37771,37791,37811,37830,37850,37872,37890,37912,37930,37950,37970,37990,38010,38031,38051,38071,38091,38111,38132,38151,38172,38190,38211,38230,38250,38271,38290,38310,38331,38350,38371,38391,38411,38431,38451,38470,38491,38511,38532,38551,38571,38591,38612,38631,38652,38671,38691,38711,38730,38751,38771,38791,38811,38831,38851,38870,38891,38910,38931,38951,38971,38991,39012,39032,39051,39070,39090,39112,39130,39151,39170,39191,39210,39231,39250,39270,39290,39310,39330,39350,39370,39390,39410,39430,39451,39470,39491,39510,39530,39550,39572,39590,39610,39630,39651,39670,39690,39710,39731,39751,39772,39791,39810,39830,39851,39871,39891,39911,39932,39952,39971,39992,40011,40031,40052,40070,40090,40111,40130,40151,40171,40191,40210,40230,40252,40271,40290,40311,40330,40351,40371,40391,40410,40430,40450,40470,40491,40511,40531,40550,40571,40591,40611,40630,40651,40670,40690,40712,40730,40750,40770,40790,40811,40831,40851,40870,40891,40911,40932,40951,40971,40991,41011,41032,41051,41071,41091,41111,41131,41151,41171,41191,41211,41232,41251,41271,41290,41310,41330,41350,41371,41391,41411,41432,41450,41472,41491,41510,41532,41551,41571,41592,41611,41630,41651,41672,41691,41712,41731,41751,41772,41791,41811,41832,41851,41871,41891,41911,41931,41951,41970,41992,42012,42031,42052,42070,42090,42110,42132,42151,42171,42190,42211,42232,42251,42270,42290,42311,42332,42350,42372,42391,42411,42431,42451,42471,42492,42511,42531,42550,42570,42590,42612,42630,42651,42670,42690,42711,42731,42750,42771,42792,42812,42832,42850,42871,42891,42911,42931,42952,42971,42991,43012,43032,43051,43071,43091,43111,43132,43150,43171,43190,43211,43230,43250,43270,43290,43311,43330,43350,43371,43391,43410,43430,43451,43471,43491,43510,43530,43550,43571,43591,43612,43630,43650,43671,43691,43710,43730,43750,43771,43791,43811,43831,43851,43871,43890,43911,43931,43951,43971,43990,44011,44030,44052,44071,44091,44111,44130,44150,44172,44191,44211,44231,44251,44271,44292,44311,44330,44350,44370,44391,44411,44432,44451,44470,44491,44511,44530,44550,44570,44590,44611,44630,44650,44670,44691,44712,44731,44751,44771,44790,44811,44830,44850,44870,44890,44912,44930,44950,44971,44991,45011,45030,45051,45071,45091,45112,45130,45150,45171,45190,45210,45230,45250,45271,45290,45310,45330,45351,45371,45391,45412,45431,45450,45470,45490,45511,45531,45552,45571,45591,45611,45630,45651,45672,45690,45710,45732,45751,45771,45791,45810,45832,45851,45870,45890,45910,45930,45951,45971,45992,46011,46030,46052,46071,46091,46112,46131,46150,46170,46190,46211,46230,46251,46270,46290,46310,46330,46351,46371,46391,46410,46430,46450,46471,46491,46511,46530,46550,46571,46591,46612,46632,46651,46670,46691,46711,46731,46752,46771,46791,46811,46831,46852,46871,46891,46910,46930,46952,46971,46991,47011,47030,47052,47072,47091,47112,47131,47151,47171,47192,47211,47230,47252,47271,47290,47310,47331,47351,47372,47392,47412,47431,47451,47471,47491,47510,47531,47550,47570,47590,47610,47631,47650,47670,47690,47710,47730,47750,47771,47792,47810,47831,47850,47870,47892,47912,47931,47951,47971,47991,48011,48031,48050,48071,48091,48111,48131,48150,48170,48190,48211,48232,48250,48270,48290,48311,48330,48350,48371,48391,48410,48431,48450,48470,48492,48510,48530,48551,48572,48592,48611,48630,48650,48672,48691,48711,48731,48751,48770,48792,48810,48831,48852,48871,48892,48910,48931,48951,48971,48991,49011,49030,49050,49070,49091,49110,49130,49151,49170,49191,49210,49232,49251,49271,49291,49311,49332,49352,49371,49392,49410,49432,49451,49472,49491,49515,49531,49551,49571,49590,49610,49630,49650,49670,49690,49711,49730,49751,49771,49791,49811,49831,49851,49871,49891,49911,49931,49952,49970,49991,50011,50030,50051,50070,50091,50110,50132,50151,50170,50192,50211,50231,50250,50270,50290,50310,50331,50352,50372,50391,50412,50430,50452,50471,50491,50511,50530,50550,50571,50591,50611,50631,50651,50671,50691,50711,50732,50751,50770,50790,50810,50830,50850,50870,50891,50910,50930,50950,50971,50990,51011,51031,51050,51071,51090,51110,51130,51151,51171,51190,51212,51231,51251,51271,51291,51311,51330,51352,51371,51391,51412,51430,51450,51471,51491,51511,51531,51551,51571,51592,51610,51631,51652,51671,51691,51710,51730,51750,51771,51791,51810,51830,51852,51870,51891,51910,51930,51950,51971,51990,52011,52031,52050,52070,52090,52111,52131,52151,52171,52192,52210,52231,52251,52272,52291,52310,52330,52351,52371,52392,52410,52431,52451,52472,52490,52510,52530,52551,52571,52590,52610,52630,52652,52671,52691,52710,52730,52751,52772,52790,52810,52830,52852,52871,52890,52911,52930,52951,52971,52991,53012,53031,53051,53071,53092,53111,53131,53152,53171,53190,53210,53230,53252,53272,53292,53311,53330,53350,53372,53390,53411,53432,53450,53470,53490,53511,53531,53551,53571,53592,53610,53631,53650,53672,53692,53710,53732,53751,53771,53790,53811,53832,53851,53871,53891,53911,53932,53951,53970,53992,54012,54030,54051,54070,54091,54111,54130,54150,54172,54191,54211,54230,54250,54271,54290,54312,54330,54352,54371,54390,54410,54430,54451,54471,54491,54511,54531,54552,54572,54590,54610,54632,54651,54671,54692,54711,54730,54752,54771,54792,54811,54830,54852,54871,54890,54911,54930,54950,54970,54991,55012,55030,55052,55071,55092,55112,55132,55150,55172,55191,55210,55231,55251,55270,55292,55312,55331,55350,55371,55391,55411,55430,55450,55470,55491,55511,55530,55550,55571,55592,55611,55630,55652,55671,55691,55711,55730,55752,55772,55791,55810,55830,55851,55871,55891,55911,55931,55951,55972,55990,56010,56031,56050,56071,56091,56111,56131,56151,56171,56191,56211,56230,56250,56271,56292,56312,56331,56352,56371,56390,56410,56430,56452,56471,56491,56511,56531,56550,56571,56591,56611,56630,56651,56671,56692,56711,56731,56750,56771,56791,56811,56830,56850,56871,56892,56910,56930,56950,56971,56990,57010,57030,57050,57072,57090,57110,57130,57150,57172,57190,57212,57231,57251,57272,57291,57312,57331,57351,57371,57392,57411,57431,57450,57471,57491,57511,57530,57551,57571,57590,57610,57631,57652,57672,57690,57712,57731,57750,57772,57791,57811,57830,57850,57871,57891,57911,57931,57951,57972,57991,58012,58032,58052,58072,58091,58111,58130,58150,58172,58190,58211,58230,58252,58271,58291,58311,58330,58351,58372,58391,58412,58430,58450,58472,58491,58511,58531,58550,58571,58591,58610,58630,58650,58670,58692,58712,58732,58751,58770,58792,58810,58830,58850,58870,58891,58910,58930,58951,58971,58991,59010,59030,59052,59071,59090,59110,59130,59150,59171,59190,59210,59230,59250,59272,59291,59311,59330,59350,59370,59392,59411,59430,59450,59470,59492,59511,59532,59551,59572,59591,59610,59630,59650,59671,59691,59710,59730,59752,59771,59790,59811,59831,59851,59871,59890,59910,59930,59950,59970,59992,60011,60031,60051,60070,60091,60111,60130,60150,60170,60192,60211,60230,60251,60271,60291,60312,60332,60351,60371,60391,60411,60431,60450,60470,60491,60510,60532,60551,60570,60590,60610,60631,60651,60670,60690,60711,60731,60752,60771,60790,60812,60831,60851,60870,60890,60911,60931,60951,60971,60991,61011,61032,61051,61072,61090,61110,61131,61150,61171,61190,61211,61230,61250,61270,61290,61312,61331,61351,61371,61391,61411,61430,61451,61471,61491,61512,61530,61550,61570,61591,61610,61631,61650,61671,61690,61712,61731,61751,61772,61791,61811,61832,61851,61871,61892,61910,61930,61951,61971,61991,62012,62031,62051,62072,62091,62112,62131,62151,62171,62190,62210,62230,62250,62271,62290,62311,62330,62351,62371,62390,62411,62431,62451,62471,62490,62510,62531,62551,62571,62590,62611,62631],"xSR":624.5,"ySR":395.2,"xT1":354.7,"yT1":0,"xT2":894.3,"yT2":0,"toosoon":0,"cond_shown":"Incongruent","ratio_trial":300,"L_num":3,"L_den":6,"R_num":4,"R_den":20,"correct_side":1,"subjID":"juanfelipemoncadadiab","gender":"0","school":"6","age":"11"},{"start_time":1551790900023,"click_time":1551790900817,"finger_time":1551790900417,"fix_duration":1204.0300993858673,"trial":6,"RT":394,"MT":400,"sideResp":1,"stimulus":[],"xmouse":[672,672,672,672,672,672,672,672,672,672,672,672,672,672,672,671,665,662,653,637,625,556,531,528,525,522,515,506,500,493,493,489,486,485,483,481,472,469,459,451],"ymouse":[449,449,449,449,449,449,449,449,449,449,449,449,449,448,446,442,431,424,403,366,336,196,147,141,132,127,115,101,93,86,86,83,80,79,77,76,70,68,65,59],"timestamp_mouse":[15,34,55,73,94,114,134,154,173,195,214,233,254,274,294,314,334,354,374,394,414,434,454,475,494,513,533,553,575,594,615,634,654,674,695,714,733,753,774,794],"xSR":624.5,"ySR":395.2,"xT1":354.7,"yT1":0,"xT2":894.3,"yT2":0,"toosoon":0,"cond_shown":"Incongruent","ratio_trial":100,"L_num":9,"L_den":15,"R_num":13,"R_den":26,"correct_side":1,"subjID":"juanfelipemoncadadiab","gender":"0","school":"6","age":"11"},{"start_time":1551790903522,"click_time":1551790905917,"finger_time":1551790905538,"fix_duration":444.30627737017204,"trial":7,"RT":2016,"MT":379,"sideResp":1,"stimulus":[],"xmouse":[688,688,688,688,688,688,688,688,688,688,688,688,688,688,688,688,688,688,688,688,688,688,688,688,688,688,688,688,688,688,688,688,688,688,688,688,688,688,688,688,688,688,688,688,688,688,688,688,688,688,688,688,688,688,688,688,688,688,688,688,688,688,688,688,688,688,688,688,688,688,688,688,688,688,688,688,688,688,688,688,688,688,688,688,688,688,688,688,688,688,688,688,688,688,688,688,688,688,688,687,665,576,539,526,508,499,484,481,477,475,468,451,450,449,449,448,444,442,435,431],"ymouse":[435,435,435,435,435,435,435,435,435,435,435,435,435,435,435,435,435,435,435,435,435,435,435,435,435,435,435,435,435,435,435,435,435,435,435,435,435,435,435,435,435,435,435,435,435,435,435,435,435,435,435,435,435,435,435,435,435,435,435,435,435,435,435,435,435,435,435,435,435,435,435,435,435,435,435,435,435,435,435,435,435,435,435,435,435,435,435,435,435,435,435,435,435,435,435,435,435,435,435,423,388,270,220,207,191,184,168,164,157,154,143,123,122,121,120,119,112,108,100,94],"timestamp_mouse":[15,39,54,75,95,115,134,155,175,195,216,235,254,275,295,315,336,355,374,396,415,434,455,474,495,514,534,555,574,595,615,634,654,674,696,715,736,755,776,796,815,835,855,875,895,915,935,955,975,995,1015,1035,1054,1074,1095,1115,1136,1155,1175,1195,1214,1235,1256,1274,1294,1314,1335,1355,1376,1395,1415,1435,1455,1474,1495,1514,1535,1555,1576,1595,1615,1634,1655,1675,1695,1714,1734,1755,1776,1795,1814,1835,1855,1875,1895,1915,1934,1955,1974,1995,2016,2035,2055,2075,2094,2114,2136,2154,2175,2196,2215,2236,2254,2275,2295,2315,2334,2355,2375,2395],"xSR":624.5,"ySR":395.2,"xT1":354.7,"yT1":0,"xT2":894.3,"yT2":0,"toosoon":0,"cond_shown":"Incongruent","ratio_trial":200,"L_num":9,"L_den":15,"R_num":8,"R_den":10,"correct_side":2,"subjID":"juanfelipemoncadadiab","gender":"0","school":"6","age":"11"},{"start_time":1551790907549,"click_time":1551790909476,"finger_time":1551790909036,"fix_duration":250,"trial":8,"RT":1487,"MT":440,"sideResp":1,"stimulus":[],"xmouse":[656,656,656,656,656,656,656,656,656,656,656,656,656,656,656,656,656,656,656,656,656,656,656,656,656,656,656,656,656,656,656,656,656,656,656,656,656,656,656,656,656,656,656,656,656,656,656,656,656,656,656,656,656,656,656,656,656,656,656,656,656,656,656,656,656,656,656,656,656,656,656,656,656,656,655,650,630,595,576,540,527,521,520,517,507,504,499,490,489,487,487,487,487,487,485,476,450],"ymouse":[422,422,422,422,422,422,422,422,422,422,422,422,422,422,422,422,422,422,422,422,422,422,422,422,422,422,422,422,422,422,422,422,422,422,422,422,422,422,422,422,422,422,422,422,422,422,422,422,422,422,422,422,422,422,422,422,422,422,422,422,422,422,422,422,422,422,422,422,422,422,422,422,422,419,393,379,324,246,204,135,115,103,101,96,79,74,68,62,61,59,59,59,59,59,59,59,62],"timestamp_mouse":[9,30,49,69,88,107,127,147,167,189,207,227,248,267,287,307,327,347,368,387,407,428,447,468,488,507,529,547,567,588,608,627,647,668,688,708,728,747,768,788,808,829,847,868,888,908,928,948,967,987,1008,1028,1047,1068,1088,1108,1128,1147,1168,1187,1207,1228,1247,1269,1288,1309,1328,1347,1369,1388,1408,1428,1447,1467,1487,1507,1527,1547,1567,1588,1608,1627,1648,1668,1688,1709,1729,1748,1768,1788,1807,1828,1849,1868,1888,1908,1927],"xSR":624.5,"ySR":395.2,"xT1":354.7,"yT1":0,"xT2":894.3,"yT2":0,"toosoon":0,"cond_shown":"Incongruent","ratio_trial":300,"L_num":13,"L_den":26,"R_num":12,"R_den":15,"correct_side":2,"subjID":"juanfelipemoncadadiab","gender":"0","school":"6","age":"11"},{"start_time":1551790911409,"click_time":1551790912837,"finger_time":1551790911897,"fix_duration":250,"trial":9,"RT":488,"MT":940,"sideResp":2,"stimulus":[],"xmouse":[648,648,648,648,648,648,648,648,648,648,648,648,648,648,648,648,648,648,648,648,648,648,648,648,667,720,748,782,800,809,809,809,809,809,810,810,810,811,811,813,813,819,821,826,827,828,828,829,829,831,831,831,831,835,846,860,863,870,877,881,888,890,892,893,897,902,904,908,909,910,913,914],"ymouse":[429,429,429,429,429,429,429,429,429,429,429,429,427,425,420,417,416,415,414,412,411,411,411,409,390,334,291,226,190,164,160,153,151,148,145,143,143,142,142,140,139,135,132,131,131,131,131,131,131,131,131,131,131,132,135,138,138,138,138,138,139,139,139,139,139,139,138,130,124,123,114,89],"timestamp_mouse":[9,28,47,67,87,109,128,149,167,187,208,227,248,268,288,308,329,348,367,387,408,428,449,468,488,507,527,547,567,587,609,628,647,669,688,708,729,747,768,788,807,828,848,867,889,908,928,948,969,989,1007,1028,1048,1067,1087,1109,1129,1149,1168,1187,1207,1229,1248,1268,1288,1308,1329,1348,1369,1388,1407,1428],"xSR":624.5,"ySR":395.2,"xT1":354.7,"yT1":0,"xT2":894.3,"yT2":0,"toosoon":0,"cond_shown":"Congruent","ratio_trial":200,"L_num":4,"L_den":8,"R_num":3,"R_den":10,"correct_side":1,"subjID":"juanfelipemoncadadiab","gender":"0","school":"6","age":"11"},{"start_time":1551790916741,"click_time":1551790918597,"finger_time":1551790917057,"fix_duration":1263.325416260147,"trial":10,"RT":316,"MT":1540,"sideResp":2,"stimulus":[],"xmouse":[692,692,692,692,692,692,692,692,692,692,692,692,692,693,696,712,720,744,770,777,779,780,780,781,783,785,788,792,792,792,792,792,792,792,792,792,792,792,793,796,801,804,813,826,829,835,835,839,840,844,844,847,850,858,862,865,873,874,880,885,889,890,891,891,892,892,892,891,888,882,874,872,869,869,868,868,868,868,868,868,868,868,868,868,877,883,894,894,894,894,894,894,895],"ymouse":[412,412,412,412,412,412,412,412,412,412,412,412,412,411,407,393,382,344,263,212,205,193,188,185,183,176,172,166,166,166,166,166,166,166,166,166,166,166,164,156,146,145,145,143,141,138,138,136,135,133,133,132,130,128,127,126,122,121,114,110,108,106,102,101,99,96,93,92,88,79,68,65,57,57,56,56,56,56,56,56,56,56,56,56,63,68,74,76,76,76,76,76,77],"timestamp_mouse":[16,37,55,77,96,116,137,155,176,196,216,236,255,276,296,316,336,356,376,397,416,435,455,476,496,515,536,555,575,596,616,635,655,675,696,716,735,756,776,795,817,835,856,875,896,916,937,955,976,996,1015,1036,1056,1077,1096,1116,1135,1157,1177,1197,1217,1236,1255,1277,1297,1316,1336,1357,1376,1397,1417,1436,1456,1475,1495,1516,1536,1555,1575,1596,1616,1636,1656,1676,1696,1716,1736,1756,1777,1796,1816,1836,1856],"xSR":624.5,"ySR":395.2,"xT1":354.7,"yT1":0,"xT2":894.3,"yT2":0,"toosoon":0,"cond_shown":"Congruent","ratio_trial":200,"L_num":3,"L_den":10,"R_num":7,"R_den":14,"correct_side":2,"subjID":"juanfelipemoncadadiab","gender":"0","school":"6","age":"11"},{"start_time":1551790921868,"click_time":1551790925577,"finger_time":1551790923638,"fix_duration":1010.9278740571174,"trial":11,"RT":1770,"MT":1939,"sideResp":2,"stimulus":[],"xmouse":[665,665,665,665,665,665,665,665,665,665,665,665,665,665,665,665,665,665,665,665,665,665,665,665,665,665,665,665,665,665,665,665,665,665,665,665,665,665,665,665,665,665,665,665,665,665,665,665,665,665,665,665,665,665,665,665,665,665,665,665,665,665,665,665,665,665,665,665,665,665,665,665,665,665,665,665,665,665,665,665,665,665,665,665,665,665,670,676,696,696,696,696,696,696,696,696,696,696,696,696,696,696,696,696,696,696,696,696,696,696,696,696,696,696,696,696,696,696,696,696,696,696,696,696,696,696,696,696,696,696,696,696,696,696,696,908,908,908,908,908,908,908,908,908,908,908,908,915,916,922,925,923,919,918,916,914,912,911,908,907,904,903,903,903,903,904,904,910,912,914,920,922,923,925,927,929,932,932,933,933,933,933,933,934,934,935],"ymouse":[435,435,435,435,435,435,435,435,435,435,435,435,435,435,435,435,435,435,435,435,435,435,435,435,435,435,435,435,435,435,435,435,435,435,435,435,435,435,435,435,435,435,435,435,435,435,435,435,435,435,435,435,435,435,435,435,435,435,435,435,435,435,435,435,435,435,435,435,435,435,435,435,435,435,435,435,435,435,435,435,435,435,435,435,427,419,403,397,373,373,373,373,373,373,373,373,373,373,373,373,373,373,373,373,373,373,373,373,373,373,373,373,373,373,373,373,373,373,373,373,373,373,373,373,373,373,373,373,373,373,373,373,373,373,373,268,268,268,268,268,268,268,268,268,268,268,268,248,245,229,209,202,188,183,180,174,171,167,162,155,147,142,138,134,133,129,128,126,125,125,121,119,118,116,114,109,105,104,103,102,102,102,102,100,100,96],"timestamp_mouse":[22,29,49,68,88,109,129,149,169,189,209,228,249,269,290,310,328,348,369,389,408,428,449,469,490,508,530,549,569,589,609,629,648,668,690,709,730,749,769,790,809,829,850,868,888,909,928,950,969,989,1009,1029,1049,1069,1089,1109,1130,1149,1169,1189,1209,1229,1249,1270,1289,1309,1329,1348,1368,1388,1410,1430,1450,1468,1489,1509,1529,1550,1569,1589,1610,1629,1649,1669,1689,1710,1728,1749,1770,1788,1810,1829,1848,1869,1888,1908,1930,1949,1968,1989,2009,2028,2049,2070,2088,2109,2129,2149,2170,2189,2210,2228,2249,2270,2288,2309,2329,2350,2370,2389,2409,2429,2450,2469,2488,2509,2529,2550,2568,2589,2608,2629,2648,2669,2690,2709,2730,2750,2768,2790,2810,2828,2848,2869,2890,2908,2929,2949,2970,2989,3010,3030,3049,3070,3089,3108,3129,3149,3169,3189,3210,3229,3249,3268,3289,3309,3329,3349,3369,3390,3408,3429,3450,3469,3489,3509,3529,3549,3569,3590,3610,3629,3649,3669,3689,3709],"xSR":624.5,"ySR":395.2,"xT1":354.7,"yT1":0,"xT2":894.3,"yT2":0,"toosoon":0,"cond_shown":"Congruent","ratio_trial":200,"L_num":3,"L_den":6,"R_num":14,"R_den":20,"correct_side":2,"subjID":"juanfelipemoncadadiab","gender":"0","school":"6","age":"11"},{"start_time":1551790929736,"click_time":1551790933137,"finger_time":1551790932917,"fix_duration":938.4312372868494,"trial":12,"RT":3181,"MT":220,"sideResp":1,"stimulus":[],"xmouse":[670,670,670,670,670,670,670,670,670,670,670,670,670,670,670,670,670,670,670,670,670,670,670,670,670,670,670,670,670,670,670,670,670,670,670,670,670,670,670,670,670,670,670,670,670,670,670,670,670,670,670,670,670,670,670,670,670,670,670,670,670,670,670,670,670,670,670,670,670,670,670,670,670,670,670,670,670,670,670,670,670,670,670,670,670,670,670,670,670,670,670,670,670,670,670,670,670,670,670,670,670,670,670,670,670,670,670,670,670,670,670,670,670,670,670,670,670,670,670,670,670,670,670,670,670,670,670,670,670,670,670,670,670,670,670,670,670,670,670,670,670,670,670,670,670,670,670,670,670,670,670,670,670,670,670,670,670,670,669,655,588,561,541,530,506,475,461,457,451,450,449],"ymouse":[462,462,462,462,462,462,462,462,462,462,462,462,462,462,462,462,462,462,462,462,462,462,462,462,462,462,462,462,462,462,462,462,462,462,462,462,462,462,462,462,462,462,462,462,462,462,462,462,462,462,462,462,462,462,462,462,462,462,462,462,462,462,462,462,462,462,462,462,462,462,462,462,462,462,462,462,462,462,462,462,462,462,462,462,462,462,462,462,462,462,462,462,462,462,462,462,462,462,462,462,462,462,462,462,462,462,462,462,462,462,462,462,462,462,462,462,462,462,462,462,462,462,462,462,462,462,462,462,462,462,462,462,462,462,462,462,462,462,462,462,462,462,462,462,462,462,462,462,462,462,462,462,462,462,462,462,462,459,445,385,255,221,198,188,165,137,122,117,105,104,97],"timestamp_mouse":[12,21,41,61,80,101,121,141,161,181,201,222,241,260,282,301,322,340,361,382,401,421,440,460,481,501,521,541,560,581,601,621,642,660,691,701,721,741,762,781,801,821,841,861,881,900,921,941,961,980,1000,1022,1041,1061,1080,1100,1122,1140,1162,1181,1200,1220,1240,1260,1281,1300,1320,1340,1360,1380,1401,1420,1440,1460,1480,1501,1520,1540,1560,1581,1601,1620,1641,1660,1681,1701,1721,1741,1760,1780,1800,1821,1841,1860,1882,1900,1921,1940,1960,1981,2001,2022,2040,2060,2082,2101,2120,2140,2160,2181,2201,2220,2241,2262,2281,2302,2321,2341,2362,2381,2401,2421,2441,2460,2482,2500,2520,2540,2560,2582,2601,2620,2640,2661,2681,2701,2721,2742,2761,2780,2800,2820,2841,2860,2880,2900,2920,2940,2960,2980,3000,3021,3040,3060,3081,3102,3121,3140,3160,3181,3201,3220,3241,3261,3281,3301,3322,3342,3361,3381,3401],"xSR":624.5,"ySR":395.2,"xT1":354.7,"yT1":0,"xT2":894.3,"yT2":0,"toosoon":0,"cond_shown":"Congruent","ratio_trial":200,"L_num":3,"L_den":12,"R_num":9,"R_den":20,"correct_side":2,"subjID":"juanfelipemoncadadiab","gender":"0","school":"6","age":"11"},{"start_time":1551790937381,"click_time":1551790938557,"finger_time":1551790937996,"fix_duration":1303.3055347450147,"trial":13,"RT":615,"MT":561,"sideResp":1,"stimulus":[],"xmouse":[678,678,678,678,678,678,678,678,678,678,678,678,678,678,678,678,678,678,678,678,678,678,678,678,678,678,678,678,678,674,669,664,654,636,625,620,608,604,583,577,564,557,540,518,512,510,504,500,485,479,465,459,447,440,438,436,434,432,425],"ymouse":[416,416,416,416,416,416,416,416,416,416,416,416,416,416,416,416,416,416,416,416,416,416,416,416,416,416,416,416,409,402,393,384,363,329,310,299,281,275,246,239,225,218,201,186,182,179,174,172,156,151,142,136,127,121,119,117,113,107,95],"timestamp_mouse":[15,35,57,76,96,115,137,156,176,196,215,237,256,276,296,316,336,357,377,395,415,435,456,476,495,515,536,556,577,595,615,636,655,675,697,715,736,756,775,795,816,837,855,875,896,916,935,957,976,996,1015,1036,1056,1076,1097,1117,1136,1156,1176],"xSR":624.5,"ySR":395.2,"xT1":354.7,"yT1":0,"xT2":894.3,"yT2":0,"toosoon":0,"cond_shown":"Incongruent","ratio_trial":300,"L_num":13,"L_den":26,"R_num":12,"R_den":15,"correct_side":2,"subjID":"juanfelipemoncadadiab","gender":"0","school":"6","age":"11"},{"start_time":1551790940315,"click_time":1551790942337,"finger_time":1551790940717,"fix_duration":657.6780181878494,"trial":14,"RT":402,"MT":1620,"sideResp":1,"stimulus":[],"xmouse":[669,669,669,669,669,669,669,669,669,669,670,670,671,672,673,676,677,678,679,680,685,688,689,689,689,689,689,689,689,689,689,689,688,688,688,688,688,688,688,688,688,688,688,688,688,688,681,679,672,672,672,672,672,671,669,665,662,660,660,659,655,655,653,651,648,648,648,648,648,648,648,648,648,648,648,648,648,648,648,648,648,649,651,652,653,653,653,653,652,652,645,618,589,545,521,478,464,441,431,429,428,426],"ymouse":[449,449,449,449,449,449,449,448,447,445,444,441,439,437,433,426,423,414,405,401,381,371,366,364,361,360,360,360,360,360,359,358,358,358,358,358,358,358,358,358,358,358,358,358,358,358,351,349,344,344,344,344,344,343,340,336,333,332,331,330,320,319,314,307,298,298,298,298,298,298,298,298,298,298,298,298,298,298,298,297,296,288,281,276,270,268,266,265,264,263,258,238,216,185,170,146,136,117,107,105,101,94],"timestamp_mouse":[8,28,43,62,82,101,123,142,162,181,202,221,241,261,282,302,322,343,361,383,402,421,442,462,481,501,522,541,562,581,602,622,643,663,681,702,722,742,762,783,803,821,843,862,883,902,921,941,961,981,1002,1022,1043,1061,1081,1102,1121,1141,1163,1183,1202,1222,1241,1262,1282,1303,1323,1341,1362,1382,1403,1422,1442,1462,1483,1502,1522,1542,1562,1581,1602,1623,1641,1662,1682,1702,1722,1742,1762,1782,1803,1821,1841,1862,1882,1902,1921,1943,1962,1982,2003,2022],"xSR":624.5,"ySR":395.2,"xT1":354.7,"yT1":0,"xT2":894.3,"yT2":0,"toosoon":0,"cond_shown":"Incongruent","ratio_trial":200,"L_num":4,"L_den":6,"R_num":14,"R_den":30,"correct_side":1,"subjID":"juanfelipemoncadadiab","gender":"0","school":"6","age":"11"},{"start_time":1551790944872,"click_time":1551790947136,"finger_time":1551790946837,"fix_duration":1253.41030656868,"trial":15,"RT":1965,"MT":299,"sideResp":1,"stimulus":[],"xmouse":[695,695,695,695,695,695,695,695,695,695,695,695,695,695,695,695,695,695,695,695,695,695,695,695,695,695,695,695,695,695,695,695,695,695,695,695,695,695,695,695,695,695,695,695,695,695,695,695,695,695,695,695,695,695,695,695,695,695,695,695,695,695,695,695,695,695,695,695,695,695,695,695,695,695,695,695,695,695,695,695,695,695,695,695,695,695,695,695,695,695,695,697,697,699,699,699,699,699,696,693,685,674,665,596,559,540,534,512,494,478,468,460,458,447],"ymouse":[451,450,450,450,450,450,450,450,450,450,450,450,450,450,450,450,450,450,450,450,450,450,450,450,450,450,450,450,450,450,450,450,450,450,450,450,450,450,450,450,450,450,450,450,450,450,450,450,450,450,450,450,450,450,450,450,450,450,450,450,450,450,450,450,450,450,450,450,450,450,450,450,450,450,450,450,450,450,450,450,450,450,450,450,450,450,450,450,450,449,446,439,436,422,415,411,408,399,386,378,355,320,299,177,132,111,103,87,74,62,56,49,48,41],"timestamp_mouse":[5,35,46,65,86,106,124,145,165,184,204,225,245,266,285,305,325,346,365,384,405,424,445,465,485,504,525,545,565,585,605,624,645,665,685,705,724,745,765,785,805,825,846,865,885,905,924,945,965,985,1006,1025,1044,1064,1084,1106,1124,1145,1165,1185,1204,1226,1245,1265,1284,1305,1324,1346,1366,1386,1405,1425,1445,1465,1485,1505,1525,1545,1566,1585,1605,1624,1644,1664,1684,1704,1724,1744,1764,1786,1805,1825,1845,1865,1885,1905,1925,1945,1965,1986,2006,2024,2046,2065,2084,2106,2126,2144,2165,2185,2205,2225,2246,2264],"xSR":624.5,"ySR":395.2,"xT1":354.7,"yT1":0,"xT2":894.3,"yT2":0,"toosoon":0,"cond_shown":"Congruent","ratio_trial":100,"L_num":9,"L_den":15,"R_num":8,"R_den":16,"correct_side":1,"subjID":"juanfelipemoncadadiab","gender":"0","school":"6","age":"11"},{"start_time":1551790950104,"click_time":1551790951497,"finger_time":1551790951117,"fix_duration":266.2509911459819,"trial":16,"RT":1013,"MT":380,"sideResp":1,"stimulus":[],"xmouse":[678,678,678,678,678,678,678,678,678,678,678,678,678,678,678,678,678,678,678,678,678,678,678,678,678,678,678,678,678,678,678,678,678,678,678,678,678,678,678,678,678,678,678,678,678,678,678,678,678,677,667,640,629,614,601,585,581,573,565,557,548,531,521,511,494,485,470,463,458,450],"ymouse":[428,428,428,428,428,428,428,428,428,428,428,428,428,428,428,428,428,428,428,428,428,428,428,428,428,428,428,428,428,428,428,428,428,428,428,428,428,428,428,428,428,428,428,428,428,428,425,418,413,404,381,331,312,292,271,248,242,231,218,206,189,158,137,116,88,72,48,38,30,16],"timestamp_mouse":[14,34,53,73,92,113,134,152,172,192,212,233,252,272,292,313,333,354,372,392,413,433,453,473,492,513,533,553,573,592,613,633,653,673,692,713,733,753,772,792,813,833,852,872,892,912,933,953,973,993,1013,1034,1053,1073,1093,1114,1133,1153,1173,1192,1213,1234,1253,1273,1293,1312,1332,1352,1374,1393],"xSR":624.5,"ySR":395.2,"xT1":354.7,"yT1":0,"xT2":894.3,"yT2":0,"toosoon":0,"cond_shown":"Congruent","ratio_trial":200,"L_num":1,"L_den":2,"R_num":21,"R_den":30,"correct_side":2,"subjID":"juanfelipemoncadadiab","gender":"0","school":"6","age":"11"},{"start_time":1551790962268,"click_time":1551790964657,"finger_time":1551790964196,"fix_duration":290.2260486017609,"trial":17,"RT":1928,"MT":461,"sideResp":1,"stimulus":[],"xmouse":[659,659,659,659,659,659,659,659,659,659,659,659,659,659,659,659,659,659,659,659,659,659,659,659,659,659,659,659,659,659,659,659,659,659,659,659,659,659,659,659,659,659,659,659,659,659,659,659,659,659,659,659,659,659,659,659,659,659,659,659,659,659,659,659,659,659,659,659,659,659,659,659,659,659,659,659,659,659,659,659,659,659,659,659,659,659,659,659,659,659,659,659,659,660,662,666,666,663,646,638,620,605,577,570,561,555,543,540,535,528,527,527,521,518,507,499,493,470,457,447],"ymouse":[430,430,430,430,430,430,430,430,430,430,430,430,430,430,430,430,430,430,430,430,430,430,430,430,430,430,430,430,430,430,430,430,430,430,430,430,430,430,430,430,430,430,430,430,430,430,430,430,430,430,430,430,430,430,430,430,430,430,430,430,430,430,430,430,430,430,430,430,430,430,430,430,430,430,430,430,430,430,430,430,430,430,430,430,430,430,430,430,430,430,430,430,430,430,426,409,375,357,313,292,252,212,153,140,124,113,96,91,82,74,73,72,66,61,54,50,46,33,27,23],"timestamp_mouse":[12,33,48,68,89,108,129,149,168,188,209,228,248,268,289,310,330,350,369,390,409,428,448,468,488,508,529,548,568,588,608,628,648,668,689,708,728,748,769,789,808,828,849,869,889,908,929,948,969,989,1009,1028,1049,1069,1088,1109,1128,1148,1170,1189,1209,1228,1248,1268,1288,1309,1329,1349,1368,1388,1409,1428,1449,1468,1489,1509,1529,1548,1569,1589,1609,1630,1649,1669,1689,1709,1730,1749,1770,1789,1810,1829,1849,1869,1889,1908,1928,1948,1968,1988,2009,2029,2049,2069,2089,2109,2129,2148,2169,2189,2208,2228,2249,2270,2289,2308,2328,2348,2368,2389],"xSR":624.5,"ySR":395.2,"xT1":354.7,"yT1":0,"xT2":894.3,"yT2":0,"toosoon":0,"cond_shown":"Congruent","ratio_trial":100,"L_num":4,"L_den":8,"R_num":6,"R_den":10,"correct_side":2,"subjID":"juanfelipemoncadadiab","gender":"0","school":"6","age":"11"},{"start_time":1551790966192,"click_time":1551790970217,"finger_time":1551790966516,"fix_duration":494.1455633443973,"trial":18,"RT":324,"MT":3701,"sideResp":1,"stimulus":[],"xmouse":[671,671,671,671,671,671,671,671,671,671,671,671,671,671,672,672,671,670,664,662,658,656,652,648,648,648,648,649,649,649,649,649,649,649,649,649,649,652,654,654,656,656,657,657,657,657,659,661,661,661,662,662,665,666,667,668,671,671,671,672,672,672,672,672,672,672,672,672,672,672,672,672,672,672,672,672,672,672,672,672,672,672,672,672,672,672,672,672,672,672,672,672,672,672,672,672,672,672,672,672,672,672,672,672,672,672,672,672,672,672,670,667,666,659,657,674,691,722,735,742,747,748,748,748,748,748,748,748,748,748,749,750,752,754,755,756,760,762,762,762,764,764,764,764,764,764,764,764,764,764,764,764,764,764,764,764,764,764,764,764,764,764,764,763,758,752,703,670,631,621,615,609,609,611,617,617,618,618,618,618,618,605,582,562,528,510,493,487,479,478,477,472,468,466,466,466,465,463,461,458,455,454],"ymouse":[404,404,404,404,404,404,404,404,404,404,404,404,404,404,402,397,394,390,374,371,360,352,339,322,320,319,315,313,313,313,313,313,313,313,313,313,313,313,316,316,318,318,319,319,320,320,322,324,325,325,326,326,328,330,330,330,330,330,329,329,329,329,328,327,327,327,327,327,327,327,327,327,327,327,327,327,327,327,327,327,327,325,325,325,325,325,325,325,325,325,325,325,325,325,325,325,325,325,325,325,325,325,325,325,325,325,325,325,325,325,325,325,324,304,289,259,232,190,171,154,146,144,143,142,141,141,141,141,141,140,138,136,135,132,131,127,123,121,119,118,116,116,116,116,117,118,119,119,119,119,119,120,120,120,120,120,120,120,120,120,120,120,120,120,121,124,137,145,160,165,169,171,171,171,171,171,171,171,171,171,171,164,155,145,130,121,110,106,100,99,96,90,84,81,79,79,78,75,73,71,68,68],"timestamp_mouse":[10,25,45,65,85,104,124,144,164,185,204,225,245,265,285,306,324,345,364,385,404,426,444,464,484,505,524,545,564,584,604,626,644,665,685,705,725,744,764,784,806,825,845,865,885,905,925,944,964,984,1005,1024,1044,1064,1084,1105,1124,1144,1164,1185,1205,1224,1244,1264,1285,1304,1325,1345,1366,1384,1404,1425,1446,1465,1484,1504,1525,1544,1564,1584,1604,1624,1646,1665,1684,1704,1725,1745,1766,1785,1805,1825,1845,1865,1885,1905,1925,1945,1966,1984,2005,2025,2044,2064,2084,2104,2125,2146,2166,2184,2204,2224,2246,2266,2284,2304,2325,2345,2366,2384,2404,2424,2445,2465,2484,2504,2524,2545,2564,2585,2605,2625,2644,2666,2685,2705,2724,2744,2764,2785,2805,2825,2844,2864,2885,2905,2924,2945,2965,2984,3005,3025,3044,3064,3084,3105,3125,3145,3164,3184,3206,3225,3246,3264,3286,3305,3324,3345,3365,3384,3404,3424,3444,3466,3484,3504,3524,3544,3565,3586,3604,3624,3645,3665,3685,3705,3724,3744,3764,3784,3804,3824,3845,3866,3885,3904,3925,3944,3966,3986,4004,4025],"xSR":624.5,"ySR":395.2,"xT1":354.7,"yT1":0,"xT2":894.3,"yT2":0,"toosoon":0,"cond_shown":"Congruent","ratio_trial":100,"L_num":11,"L_den":22,"R_num":4,"R_den":10,"correct_side":1,"subjID":"juanfelipemoncadadiab","gender":"0","school":"6","age":"11"},{"start_time":1551790973118,"click_time":1551790975736,"finger_time":1551790975237,"fix_duration":300.70877160983,"trial":19,"RT":2119,"MT":499,"sideResp":1,"stimulus":[],"xmouse":[628,628,628,628,628,628,628,628,628,628,628,628,628,628,628,628,628,628,628,628,628,628,628,628,628,628,628,628,628,628,628,628,628,628,628,628,628,628,628,628,628,628,628,628,628,628,628,628,628,628,628,628,628,628,628,628,628,628,628,628,628,628,628,628,628,628,628,628,628,628,628,628,628,628,628,628,628,628,628,628,628,628,628,628,628,628,628,628,628,628,628,628,628,628,628,628,628,628,628,628,628,628,628,628,627,623,622,622,621,621,621,621,620,620,620,620,620,620,616,614,594,538,489,474,460,458,456,455,452,450,446],"ymouse":[460,460,460,460,460,460,460,460,460,460,460,460,460,460,460,460,460,460,460,460,460,460,460,460,460,460,460,460,460,460,460,460,460,460,460,460,460,460,460,460,460,460,460,460,460,460,460,460,460,460,460,460,460,460,460,460,460,460,460,460,460,460,460,460,460,460,460,460,460,460,460,460,460,460,460,460,460,460,460,460,460,460,460,460,460,460,460,460,460,460,460,460,460,460,460,460,460,460,460,460,460,460,460,460,460,455,455,455,454,454,453,452,452,452,452,452,452,451,442,436,382,248,170,145,122,118,108,107,102,100,92],"timestamp_mouse":[19,38,58,79,99,118,139,158,179,199,218,238,258,278,299,318,338,360,378,399,418,438,458,478,498,518,539,559,578,598,618,639,660,678,698,718,739,760,779,799,818,838,858,878,898,919,938,958,979,998,1018,1039,1058,1078,1099,1118,1138,1158,1178,1198,1218,1239,1258,1278,1299,1319,1338,1358,1378,1398,1418,1439,1459,1478,1498,1520,1539,1559,1578,1598,1618,1638,1660,1678,1699,1718,1740,1759,1778,1799,1819,1839,1858,1879,1898,1919,1940,1959,1979,1999,2020,2040,2058,2078,2098,2119,2139,2159,2179,2198,2219,2239,2259,2278,2299,2319,2340,2358,2379,2398,2419,2438,2460,2480,2500,2519,2539,2559,2578,2598,2618],"xSR":624.5,"ySR":395.2,"xT1":354.7,"yT1":0,"xT2":894.3,"yT2":0,"toosoon":0,"cond_shown":"Congruent","ratio_trial":300,"L_num":1,"L_den":5,"R_num":3,"R_den":6,"correct_side":2,"subjID":"juanfelipemoncadadiab","gender":"0","school":"6","age":"11"},{"start_time":1551790980328,"click_time":1551790987157,"finger_time":1551790981756,"fix_duration":250,"trial":20,"RT":1428,"MT":5401,"sideResp":2,"stimulus":[],"xmouse":[647,647,647,648,648,648,649,649,650,650,650,650,650,650,650,650,650,650,650,650,650,650,6