[{"start_time":1551886964682,"click_time":1551886970316,"finger_time":1551886970075,"fix_duration":300.411844677541,"trial":0,"RT":5393,"MT":241,"sideResp":2,"stimulus":[],"xmouse":[807,807,807,807,807,807,807,807,807,807,807,807,807,807,807,807,807,807,807,807,807,807,807,807,807,807,807,807,807,807,807,807,807,807,807,807,807,807,807,807,807,807,807,807,807,807,807,807,807,807,807,807,807,807,807,807,807,807,807,807,807,807,807,807,807,807,807,807,807,807,807,807,807,807,807,807,807,807,807,807,807,807,807,807,807,807,807,807,807,807,807,807,807,807,807,807,807,808,809,809,809,809,809,809,809,809,809,809,809,809,809,809,809,809,809,809,809,809,809,809,809,809,809,809,809,809,809,809,809,809,809,809,809,809,809,809,809,809,809,810,810,810,810,810,811,812,812,812,813,813,813,813,813,813,814,814,814,814,814,814,814,814,814,814,814,814,814,814,814,814,814,814,814,814,814,814,814,814,814,814,814,814,814,814,814,814,814,814,814,814,814,814,814,814,814,814,814,814,814,814,814,814,814,814,814,814,814,814,814,814,814,814,814,814,814,814,814,814,814,814,814,814,814,814,814,814,814,814,814,814,814,814,814,814,814,814,814,814,814,814,814,814,814,814,814,814,814,814,814,814,814,814,814,814,814,814,814,814,814,814,814,814,814,814,814,814,820,825,833,862,878,905,980,1017,1079,1090,1095,1098,1098,1096,1092,1088],"ymouse":[485,485,485,485,485,485,485,485,485,485,485,485,485,485,485,485,485,485,485,485,485,485,485,485,485,485,485,485,485,485,485,485,485,485,485,485,485,485,485,485,485,485,485,485,485,485,485,485,485,485,485,485,485,485,485,485,485,485,485,485,485,485,485,485,485,485,485,485,485,485,485,485,485,485,485,485,485,485,485,485,485,485,485,485,485,485,485,485,485,485,485,485,485,485,485,485,486,486,487,487,487,487,487,487,487,487,487,487,487,487,487,487,487,487,487,487,487,487,487,487,487,487,487,487,487,487,487,487,487,487,487,487,487,487,487,487,487,487,487,487,487,487,487,487,487,488,488,488,488,488,488,488,488,488,488,488,488,488,488,488,488,488,488,488,488,488,488,488,488,488,488,488,488,488,488,488,488,488,488,488,488,488,488,488,488,488,488,488,488,488,488,488,488,488,488,488,488,488,488,488,488,488,488,488,488,488,488,488,488,488,488,488,488,488,488,488,488,488,488,488,488,488,488,488,488,488,488,488,488,488,488,488,488,488,488,488,488,488,488,488,488,488,488,488,488,488,488,488,488,488,488,488,488,488,488,488,488,488,488,488,488,488,488,488,488,488,486,482,474,450,435,403,323,280,208,192,174,155,139,109,100,91],"timestamp_mouse":[14,47,55,74,93,114,133,153,174,193,213,234,253,273,295,313,334,354,374,394,413,434,454,474,494,513,534,554,574,593,614,634,653,673,693,714,734,753,774,794,813,833,854,873,894,913,933,955,974,993,1013,1034,1053,1073,1093,1114,1133,1153,1174,1195,1213,1234,1254,1275,1294,1313,1334,1353,1373,1394,1413,1433,1455,1475,1495,1513,1533,1554,1574,1593,1613,1633,1654,1674,1693,1714,1733,1754,1775,1793,1813,1833,1854,1875,1893,1913,1933,1955,1975,1993,2013,2033,2053,2075,2093,2113,2135,2154,2174,2193,2214,2233,2253,2273,2293,2314,2334,2354,2373,2394,2414,2433,2455,2475,2493,2514,2535,2554,2574,2593,2615,2635,2654,2674,2693,2713,2733,2755,2774,2793,2813,2835,2854,2873,2893,2914,2934,2954,2974,2993,3014,3034,3054,3074,3094,3114,3134,3154,3173,3193,3215,3235,3254,3274,3294,3314,3334,3355,3373,3393,3413,3434,3453,3473,3493,3513,3534,3553,3574,3594,3614,3633,3653,3675,3693,3713,3733,3754,3773,3793,3814,3833,3854,3873,3894,3913,3933,3955,3973,3994,4013,4033,4053,4074,4095,4113,4134,4155,4174,4194,4213,4234,4255,4275,4293,4314,4335,4353,4374,4393,4414,4435,4454,4475,4494,4513,4533,4553,4573,4593,4613,4634,4653,4675,4693,4713,4733,4754,4773,4793,4815,4833,4853,4874,4895,4914,4933,4955,4974,4994,5013,5033,5053,5073,5093,5114,5135,5154,5173,5195,5213,5233,5254,5274,5294,5314,5333,5353,5374,5393,5413,5433,5455,5473,5494,5513,5533,5553,5575,5594,5613,5633],"xSR":737,"ySR":442.65000000000003,"xT1":422.2,"yT1":0,"xT2":1051.8,"yT2":0,"toosoon":0,"cond_shown":"Congruent","ratio_trial":100,"L_num":12,"L_den":30,"R_num":13,"R_den":26,"correct_side":2,"subjID":"Juan_Felipe_Ospina_Gonzalez_12","gender":"0","age":"11","school":"6","test":{"fix_dur":[250,1500],"timestim":1000,"targets_dim":[100,100],"targets_relative_coord":[0.3,0.7],"size_stim":[880,420],"start_dim":[100,100],"size_start":[300,300],"size_fix":60,"samplingrate":20,"img_types":["Congruent","Incongruent"],"ratios":[100,200,300],"rep_conds":19,"nTrials":120,"trials_to_rest":500,"Trials_order":[12,101,28,52,48,23,19,117,98,109,61,67,25,81,77,53,20,112,82,93,103,40,85,58,92,90,68,26,114,22,51,88,73,45,39,31,89,15,87,41,74,8,119,43,110,36,62,79,49,108,16,116,78,66,14,75,104,72,55,107,96,118,84,70,18,83,50,44,0,2,76,34,99,38,33,13,11,30,65,5,57,86,29,1,21,42,95,7,59,115,4,17,71,27,64,102,24,80,10,100,3,105,97,94,9,60,54,91,35,37,111,46,6,47,63,69,56,113,32,106],"cond_shown":["Congruent","Incongruent","Congruent","Congruent","Congruent","Incongruent","Incongruent","Incongruent","Congruent","Incongruent","Incongruent","Incongruent","Incongruent","Incongruent","Incongruent","Incongruent","Congruent","Congruent","Congruent","Incongruent","Incongruent","Congruent","Incongruent","Congruent","Congruent","Congruent","Congruent","Congruent","Congruent","Congruent","Incongruent","Congruent","Incongruent","Incongruent","Incongruent","Incongruent","Incongruent","Incongruent","Incongruent","Incongruent","Congruent","Congruent","Incongruent","Incongruent","Congruent","Congruent","Congruent","Incongruent","Incongruent","Congruent","Congruent","Congruent","Congruent","Congruent","Congruent","Incongruent","Congruent","Congruent","Incongruent","Incongruent","Congruent","Congruent","Congruent","Congruent","Congruent","Incongruent","Congruent","Congruent","Congruent","Congruent","Congruent","Congruent","Incongruent","Congruent","Incongruent","Incongruent","Incongruent","Congruent","Incongruent","Incongruent","Incongruent","Congruent","Incongruent","Incongruent","Incongruent","Congruent","Incongruent","Incongruent","Incongruent","Incongruent","Congruent","Incongruent","Incongruent","Incongruent","Congruent","Congruent","Congruent","Congruent","Congruent","Congruent","Incongruent","Incongruent","Incongruent","Congruent","Incongruent","Congruent","Congruent","Incongruent","Incongruent","Incongruent","Incongruent","Congruent","Congruent","Incongruent","Incongruent","Incongruent","Congruent","Incongruent","Congruent","Congruent"],"ratio_trial":[100,300,300,300,100,300,100,200,200,100,100,100,100,200,300,300,200,300,300,200,100,300,100,300,200,100,200,200,100,300,200,300,100,200,200,100,300,200,200,300,200,200,300,100,200,100,200,100,100,100,300,200,100,100,200,200,200,100,100,300,100,300,100,300,100,300,200,200,100,200,300,300,200,200,200,100,300,100,300,300,200,200,300,100,200,100,300,100,300,100,300,300,300,200,300,100,100,200,300,300,200,200,100,300,200,100,100,100,300,100,200,300,100,300,200,200,200,300,200,300],"left_num":[12,8,2,2,2,4,3,4,12,4,3,9,4,1,2,13,6,2,24,3,2,7,8,20,3,12,12,4,7,8,4,5,11,7,7,17,4,7,6,4,8,8,13,1,12,15,14,2,10,1,20,8,6,6,3,4,5,11,3,13,9,2,9,11,6,1,6,3,15,8,4,7,1,12,3,2,13,6,7,4,3,4,4,9,1,11,4,3,4,2,8,1,4,3,3,6,11,15,3,3,1,9,2,3,7,11,6,2,4,4,1,1,2,4,7,7,3,1,8,20],"right_num":[13,14,10,10,11,6,8,14,6,8,8,13,8,3,6,12,11,10,8,11,6,20,6,13,7,13,6,3,15,1,14,7,9,4,12,10,2,4,3,2,3,2,12,8,6,13,6,6,9,18,14,7,15,5,11,6,14,6,8,12,8,12,8,4,15,2,7,14,13,7,2,20,3,6,11,6,12,5,8,2,1,3,6,20,3,6,2,4,2,6,10,2,8,11,2,5,4,4,4,4,3,8,8,11,14,6,15,6,2,8,2,6,6,6,6,8,9,2,3,13],"left_den":[30,10,20,20,5,5,5,6,20,8,5,15,8,2,4,26,20,20,30,4,4,14,16,25,10,30,15,10,14,16,6,25,22,15,10,30,20,15,20,20,15,15,26,2,15,25,28,4,25,2,25,15,12,20,10,5,10,22,5,26,15,10,15,22,12,2,12,6,25,15,5,14,2,15,4,4,26,20,10,20,10,8,5,10,2,22,20,6,20,4,15,2,5,4,6,20,22,25,6,6,2,15,4,12,10,22,12,4,20,8,3,5,5,5,15,10,12,2,15,25],"right_den":[26,28,25,25,22,12,16,30,15,20,16,26,20,10,30,15,22,25,16,20,15,25,10,26,14,26,10,15,25,5,30,14,15,6,24,15,4,6,6,4,9,6,15,20,10,26,20,15,18,30,28,21,25,25,22,10,20,15,16,15,16,24,16,20,25,10,10,20,26,21,4,25,10,10,20,15,15,25,20,4,2,10,12,25,10,15,4,10,4,15,12,10,16,20,10,25,10,10,5,5,10,10,20,20,28,15,25,15,4,20,15,12,12,12,9,16,20,10,9,26],"correct_side":[2,1,2,2,2,1,1,1,1,1,1,1,1,1,1,2,2,2,1,1,1,2,2,1,2,2,1,1,2,1,1,2,2,2,1,2,2,2,2,2,1,1,2,1,1,1,1,1,2,2,1,1,2,1,2,1,2,1,1,2,1,2,1,1,2,1,2,2,1,1,1,2,1,1,1,1,2,1,1,2,2,1,1,1,1,1,2,1,2,1,2,1,1,1,1,1,1,1,2,2,1,2,1,2,1,1,2,1,2,1,1,2,2,1,2,1,2,1,1,1],"img_shown":["img2/100/Congruent/R/C_Dist_100_LN_12_LD_30_RN_13_RD_26_1.png","img2/300/Incongruent/L/I_Dist_300_LN_8_LD_10_RN_14_RD_28_0.png","img2/300/Congruent/R/C_Dist_300_LN_2_LD_20_RN_10_RD_25_1.png","img2/300/Congruent/R/C_Dist_300_LN_2_LD_20_RN_10_RD_25_1.png","img2/100/Congruent/R/C_Dist_100_LN_2_LD_5_RN_11_RD_22_1.png","img2/300/Incongruent/L/I_Dist_300_LN_4_LD_5_RN_6_RD_12_0.png","img2/100/Incongruent/L/I_Dist_100_LN_3_LD_5_RN_8_RD_16_0.png","img2/200/Incongruent/L/I_Dist_200_LN_4_LD_6_RN_14_RD_30_0.png","img2/200/Congruent/L/C_Dist_200_LN_12_LD_20_RN_6_RD_15_0.png","img2/100/Incongruent/L/I_Dist_100_LN_4_LD_8_RN_8_RD_20_0.png","img2/100/Incongruent/L/I_Dist_100_LN_3_LD_5_RN_8_RD_16_0.png","img2/100/Incongruent/L/I_Dist_100_LN_9_LD_15_RN_13_RD_26_0.png","img2/100/Incongruent/L/I_Dist_100_LN_4_LD_8_RN_8_RD_20_0.png","img2/200/Incongruent/L/I_Dist_200_LN_1_LD_2_RN_3_RD_10_0.png","img2/300/Incongruent/L/I_Dist_300_LN_2_LD_4_RN_6_RD_30_0.png","img2/300/Incongruent/R/I_Dist_300_LN_13_LD_26_RN_12_RD_15_1.png","img2/200/Congruent/R/C_Dist_200_LN_6_LD_20_RN_11_RD_22_1.png","img2/300/Congruent/R/C_Dist_300_LN_2_LD_20_RN_10_RD_25_1.png","img2/300/Congruent/L/C_Dist_300_LN_24_LD_30_RN_8_RD_16_0.png","img2/200/Incongruent/L/I_Dist_200_LN_3_LD_4_RN_11_RD_20_0.png","img2/100/Incongruent/L/I_Dist_100_LN_2_LD_4_RN_6_RD_15_0.png","img2/300/Congruent/R/C_Dist_300_LN_7_LD_14_RN_20_RD_25_1.png","img2/100/Incongruent/R/I_Dist_100_LN_8_LD_16_RN_6_RD_10_1.png","img2/300/Congruent/L/C_Dist_300_LN_20_LD_25_RN_13_RD_26_0.png","img2/200/Congruent/R/C_Dist_200_LN_3_LD_10_RN_7_RD_14_1.png","img2/100/Congruent/R/C_Dist_100_LN_12_LD_30_RN_13_RD_26_1.png","img2/200/Congruent/L/C_Dist_200_LN_12_LD_15_RN_6_RD_10_0.png","img2/200/Congruent/L/C_Dist_200_LN_4_LD_10_RN_3_RD_15_0.png","img2/100/Congruent/R/C_Dist_100_LN_7_LD_14_RN_15_RD_25_1.png","img2/300/Congruent/L/C_Dist_300_LN_8_LD_16_RN_1_RD_5_0.png","img2/200/Incongruent/L/I_Dist_200_LN_4_LD_6_RN_14_RD_30_0.png","img2/300/Congruent/R/C_Dist_300_LN_5_LD_25_RN_7_RD_14_1.png","img2/100/Incongruent/R/I_Dist_100_LN_11_LD_22_RN_9_RD_15_1.png","img2/200/Incongruent/R/I_Dist_200_LN_7_LD_15_RN_4_RD_6_1.png","img2/200/Incongruent/L/I_Dist_200_LN_7_LD_10_RN_12_RD_24_0.png","img2/100/Incongruent/R/I_Dist_100_LN_17_LD_30_RN_10_RD_15_1.png","img2/300/Incongruent/R/I_Dist_300_LN_4_LD_20_RN_2_RD_4_1.png","img2/200/Incongruent/R/I_Dist_200_LN_7_LD_15_RN_4_RD_6_1.png","img2/200/Incongruent/R/I_Dist_200_LN_6_LD_20_RN_3_RD_6_1.png","img2/300/Incongruent/R/I_Dist_300_LN_4_LD_20_RN_2_RD_4_1.png","img2/200/Congruent/L/C_Dist_200_LN_8_LD_15_RN_3_RD_9_0.png","img2/200/Congruent/L/C_Dist_200_LN_8_LD_15_RN_2_RD_6_0.png","img2/300/Incongruent/R/I_Dist_300_LN_13_LD_26_RN_12_RD_15_1.png","img2/100/Incongruent/L/I_Dist_100_LN_1_LD_2_RN_8_RD_20_0.png","img2/200/Congruent/L/C_Dist_200_LN_12_LD_15_RN_6_RD_10_0.png","img2/100/Congruent/L/C_Dist_100_LN_15_LD_25_RN_13_RD_26_0.png","img2/200/Congruent/L/C_Dist_200_LN_14_LD_28_RN_6_RD_20_0.png","img2/100/Incongruent/L/I_Dist_100_LN_2_LD_4_RN_6_RD_15_0.png","img2/100/Incongruent/R/I_Dist_100_LN_10_LD_25_RN_9_RD_18_1.png","img2/100/Congruent/R/C_Dist_100_LN_1_LD_2_RN_18_RD_30_1.png","img2/300/Congruent/L/C_Dist_300_LN_20_LD_25_RN_14_RD_28_0.png","img2/200/Congruent/L/C_Dist_200_LN_8_LD_15_RN_7_RD_21_0.png","img2/100/Congruent/R/C_Dist_100_LN_6_LD_12_RN_15_RD_25_1.png","img2/100/Congruent/L/C_Dist_100_LN_6_LD_20_RN_5_RD_25_0.png","img2/200/Congruent/R/C_Dist_200_LN_3_LD_10_RN_11_RD_22_1.png","img2/200/Incongruent/L/I_Dist_200_LN_4_LD_5_RN_6_RD_10_0.png","img2/200/Congruent/R/C_Dist_200_LN_5_LD_10_RN_14_RD_20_1.png","img2/100/Congruent/L/C_Dist_100_LN_11_LD_22_RN_6_RD_15_0.png","img2/100/Incongruent/L/I_Dist_100_LN_3_LD_5_RN_8_RD_16_0.png","img2/300/Incongruent/R/I_Dist_300_LN_13_LD_26_RN_12_RD_15_1.png","img2/100/Congruent/L/C_Dist_100_LN_9_LD_15_RN_8_RD_16_0.png","img2/300/Congruent/R/C_Dist_300_LN_2_LD_10_RN_12_RD_24_1.png","img2/100/Congruent/L/C_Dist_100_LN_9_LD_15_RN_8_RD_16_0.png","img2/300/Congruent/L/C_Dist_300_LN_11_LD_22_RN_4_RD_20_0.png","img2/100/Congruent/R/C_Dist_100_LN_6_LD_12_RN_15_RD_25_1.png","img2/300/Incongruent/L/I_Dist_300_LN_1_LD_2_RN_2_RD_10_0.png","img2/200/Congruent/R/C_Dist_200_LN_6_LD_12_RN_7_RD_10_1.png","img2/200/Congruent/R/C_Dist_200_LN_3_LD_6_RN_14_RD_20_1.png","img2/100/Congruent/L/C_Dist_100_LN_15_LD_25_RN_13_RD_26_0.png","img2/200/Congruent/L/C_Dist_200_LN_8_LD_15_RN_7_RD_21_0.png","img2/300/Congruent/L/C_Dist_300_LN_4_LD_5_RN_2_RD_4_0.png","img2/300/Congruent/R/C_Dist_300_LN_7_LD_14_RN_20_RD_25_1.png","img2/200/Incongruent/L/I_Dist_200_LN_1_LD_2_RN_3_RD_10_0.png","img2/200/Congruent/L/C_Dist_200_LN_12_LD_15_RN_6_RD_10_0.png","img2/200/Incongruent/L/I_Dist_200_LN_3_LD_4_RN_11_RD_20_0.png","img2/100/Incongruent/L/I_Dist_100_LN_2_LD_4_RN_6_RD_15_0.png","img2/300/Incongruent/R/I_Dist_300_LN_13_LD_26_RN_12_RD_15_1.png","img2/100/Congruent/L/C_Dist_100_LN_6_LD_20_RN_5_RD_25_0.png","img2/300/Incongruent/L/I_Dist_300_LN_7_LD_10_RN_8_RD_20_0.png","img2/300/Incongruent/R/I_Dist_300_LN_4_LD_20_RN_2_RD_4_1.png","img2/200/Incongruent/R/I_Dist_200_LN_3_LD_10_RN_1_RD_2_1.png","img2/200/Congruent/L/C_Dist_200_LN_4_LD_8_RN_3_RD_10_0.png","img2/300/Incongruent/L/I_Dist_300_LN_4_LD_5_RN_6_RD_12_0.png","img2/100/Incongruent/L/I_Dist_100_LN_9_LD_10_RN_20_RD_25_0.png","img2/200/Incongruent/L/I_Dist_200_LN_1_LD_2_RN_3_RD_10_0.png","img2/100/Congruent/L/C_Dist_100_LN_11_LD_22_RN_6_RD_15_0.png","img2/300/Incongruent/R/I_Dist_300_LN_4_LD_20_RN_2_RD_4_1.png","img2/100/Incongruent/L/I_Dist_100_LN_3_LD_6_RN_4_RD_10_0.png","img2/300/Incongruent/R/I_Dist_300_LN_4_LD_20_RN_2_RD_4_1.png","img2/100/Incongruent/L/I_Dist_100_LN_2_LD_4_RN_6_RD_15_0.png","img2/300/Congruent/R/C_Dist_300_LN_8_LD_15_RN_10_RD_12_1.png","img2/300/Incongruent/L/I_Dist_300_LN_1_LD_2_RN_2_RD_10_0.png","img2/300/Incongruent/L/I_Dist_300_LN_4_LD_5_RN_8_RD_16_0.png","img2/200/Incongruent/L/I_Dist_200_LN_3_LD_4_RN_11_RD_20_0.png","img2/300/Congruent/L/C_Dist_300_LN_3_LD_6_RN_2_RD_10_0.png","img2/100/Congruent/L/C_Dist_100_LN_6_LD_20_RN_5_RD_25_0.png","img2/100/Congruent/L/C_Dist_100_LN_11_LD_22_RN_4_RD_10_0.png","img2/200/Congruent/L/C_Dist_200_LN_15_LD_25_RN_4_RD_10_0.png","img2/300/Congruent/R/C_Dist_300_LN_3_LD_6_RN_4_RD_5_1.png","img2/300/Congruent/R/C_Dist_300_LN_3_LD_6_RN_4_RD_5_1.png","img2/200/Incongruent/L/I_Dist_200_LN_1_LD_2_RN_3_RD_10_0.png","img2/200/Incongruent/R/I_Dist_200_LN_9_LD_15_RN_8_RD_10_1.png","img2/100/Incongruent/L/I_Dist_100_LN_2_LD_4_RN_8_RD_20_0.png","img2/300/Congruent/R/C_Dist_300_LN_3_LD_12_RN_11_RD_20_1.png","img2/200/Incongruent/L/I_Dist_200_LN_7_LD_10_RN_14_RD_28_0.png","img2/100/Congruent/L/C_Dist_100_LN_11_LD_22_RN_6_RD_15_0.png","img2/100/Congruent/R/C_Dist_100_LN_6_LD_12_RN_15_RD_25_1.png","img2/100/Incongruent/L/I_Dist_100_LN_2_LD_4_RN_6_RD_15_0.png","img2/300/Incongruent/R/I_Dist_300_LN_4_LD_20_RN_2_RD_4_1.png","img2/100/Incongruent/L/I_Dist_100_LN_4_LD_8_RN_8_RD_20_0.png","img2/200/Incongruent/L/I_Dist_200_LN_1_LD_3_RN_2_RD_15_0.png","img2/300/Congruent/R/C_Dist_300_LN_1_LD_5_RN_6_RD_12_1.png","img2/100/Congruent/R/C_Dist_100_LN_2_LD_5_RN_6_RD_12_1.png","img2/300/Incongruent/L/I_Dist_300_LN_4_LD_5_RN_6_RD_12_0.png","img2/200/Incongruent/R/I_Dist_200_LN_7_LD_15_RN_6_RD_9_1.png","img2/200/Incongruent/L/I_Dist_200_LN_7_LD_10_RN_8_RD_16_0.png","img2/200/Congruent/R/C_Dist_200_LN_3_LD_12_RN_9_RD_20_1.png","img2/300/Incongruent/L/I_Dist_300_LN_1_LD_2_RN_2_RD_10_0.png","img2/200/Congruent/L/C_Dist_200_LN_8_LD_15_RN_3_RD_9_0.png","img2/300/Congruent/L/C_Dist_300_LN_20_LD_25_RN_13_RD_26_0.png"],"dist100_C":[["C_Dist_100_LN_10_LD_25_RN_3_RD_10_0.png","C_Dist_100_LN_11_LD_22_RN_4_RD_10_0.png","C_Dist_100_LN_11_LD_22_RN_6_RD_15_0.png","C_Dist_100_LN_15_LD_25_RN_13_RD_26_0.png","C_Dist_100_LN_3_LD_6_RN_2_RD_5_0.png","C_Dist_100_LN_6_LD_20_RN_5_RD_25_0.png","C_Dist_100_LN_8_LD_16_RN_2_RD_5_0.png","C_Dist_100_LN_9_LD_15_RN_8_RD_16_0.png"],["C_Dist_100_LN_1_LD_2_RN_18_RD_30_1.png","C_Dist_100_LN_1_LD_2_RN_3_RD_5_1.png","C_Dist_100_LN_12_LD_30_RN_13_RD_26_1.png","C_Dist_100_LN_2_LD_5_RN_11_RD_22_1.png","C_Dist_100_LN_2_LD_5_RN_6_RD_12_1.png","C_Dist_100_LN_3_LD_20_RN_4_RD_16_1.png","C_Dist_100_LN_4_LD_10_RN_15_RD_30_1.png","C_Dist_100_LN_4_LD_8_RN_6_RD_10_1.png","C_Dist_100_LN_6_LD_12_RN_15_RD_25_1.png","C_Dist_100_LN_7_LD_14_RN_15_RD_25_1.png","C_Dist_100_LN_7_LD_14_RN_9_RD_15_1.png"]],"dist100_I":[["I_Dist_100_LN_1_LD_2_RN_8_RD_20_0.png","I_Dist_100_LN_2_LD_4_RN_6_RD_15_0.png","I_Dist_100_LN_2_LD_4_RN_8_RD_20_0.png","I_Dist_100_LN_3_LD_5_RN_11_RD_22_0.png","I_Dist_100_LN_3_LD_5_RN_8_RD_16_0.png","I_Dist_100_LN_3_LD_6_RN_4_RD_10_0.png","I_Dist_100_LN_3_LD_9_RN_7_RD_30_0.png","I_Dist_100_LN_4_LD_8_RN_8_RD_20_0.png","I_Dist_100_LN_6_LD_10_RN_11_RD_22_0.png","I_Dist_100_LN_6_LD_10_RN_13_RD_26_0.png","I_Dist_100_LN_6_LD_10_RN_7_RD_14_0.png","I_Dist_100_LN_9_LD_10_RN_20_RD_25_0.png","I_Dist_100_LN_9_LD_15_RN_13_RD_26_0.png","I_Dist_100_LN_9_LD_15_RN_14_RD_28_0.png"],["I_Dist_100_LN_10_LD_25_RN_8_RD_16_1.png","I_Dist_100_LN_10_LD_25_RN_9_RD_18_1.png","I_Dist_100_LN_11_LD_22_RN_9_RD_15_1.png","I_Dist_100_LN_12_LD_24_RN_9_RD_15_1.png","I_Dist_100_LN_12_LD_30_RN_2_RD_4_1.png","I_Dist_100_LN_13_LD_26_RN_12_RD_20_1.png","I_Dist_100_LN_13_LD_26_RN_6_RD_10_1.png","I_Dist_100_LN_17_LD_30_RN_10_RD_15_1.png","I_Dist_100_LN_6_LD_12_RN_3_RD_5_1.png","I_Dist_100_LN_8_LD_16_RN_6_RD_10_1.png","I_Dist_100_LN_8_LD_20_RN_1_RD_2_1.png","I_Dist_100_LN_9_LD_18_RN_6_RD_10_1.png"]],"dist100_S":[["E_Dist_100_LN_2_LD_12_RN_2_RD_30_0.png","E_Dist_100_LN_6_LD_10_RN_6_RD_12_0.png"],["E_Dist_100_LN_6_LD_12_RN_6_RD_10_1.png"]],"dist200_C":[["C_Dist_200_LN_11_LD_22_RN_3_RD_10_0.png","C_Dist_200_LN_12_LD_15_RN_6_RD_10_0.png","C_Dist_200_LN_12_LD_20_RN_6_RD_15_0.png","C_Dist_200_LN_14_LD_28_RN_6_RD_20_0.png","C_Dist_200_LN_15_LD_25_RN_4_RD_10_0.png","C_Dist_200_LN_16_LD_20_RN_12_RD_20_0.png","C_Dist_200_LN_16_LD_30_RN_9_RD_27_0.png","C_Dist_200_LN_20_LD_25_RN_9_RD_15_0.png","C_Dist_200_LN_21_LD_30_RN_2_RD_4_0.png","C_Dist_200_LN_4_LD_10_RN_3_RD_15_0.png","C_Dist_200_LN_4_LD_8_RN_3_RD_10_0.png","C_Dist_200_LN_6_LD_15_RN_3_RD_15_0.png","C_Dist_200_LN_7_LD_21_RN_2_RD_15_0.png","C_Dist_200_LN_8_LD_15_RN_2_RD_6_0.png","C_Dist_200_LN_8_LD_15_RN_3_RD_9_0.png","C_Dist_200_LN_8_LD_15_RN_7_RD_21_0.png","C_Dist_200_LN_9_LD_20_RN_4_RD_16_0.png"],["C_Dist_200_LN_1_LD_2_RN_21_RD_30_1.png","C_Dist_200_LN_13_LD_26_RN_14_RD_20_1.png","C_Dist_200_LN_3_LD_10_RN_11_RD_22_1.png","C_Dist_200_LN_3_LD_10_RN_14_RD_28_1.png","C_Dist_200_LN_3_LD_10_RN_7_RD_14_1.png","C_Dist_200_LN_3_LD_12_RN_9_RD_20_1.png","C_Dist_200_LN_3_LD_6_RN_14_RD_20_1.png","C_Dist_200_LN_5_LD_10_RN_14_RD_20_1.png","C_Dist_200_LN_6_LD_12_RN_7_RD_10_1.png","C_Dist_200_LN_6_LD_20_RN_11_RD_22_1.png","C_Dist_200_LN_7_LD_15_RN_18_RD_27_1.png","C_Dist_200_LN_9_LD_30_RN_13_RD_26_1.png"]],"dist200_I":[["I_Dist_200_LN_1_LD_2_RN_3_RD_10_0.png","I_Dist_200_LN_1_LD_3_RN_2_RD_15_0.png","I_Dist_200_LN_3_LD_4_RN_11_RD_20_0.png","I_Dist_200_LN_4_LD_5_RN_6_RD_10_0.png","I_Dist_200_LN_4_LD_6_RN_14_RD_30_0.png","I_Dist_200_LN_7_LD_10_RN_12_RD_24_0.png","I_Dist_200_LN_7_LD_10_RN_14_RD_28_0.png","I_Dist_200_LN_7_LD_10_RN_8_RD_16_0.png"],["I_Dist_200_LN_11_LD_20_RN_3_RD_4_1.png","I_Dist_200_LN_14_LD_30_RN_12_RD_18_1.png","I_Dist_200_LN_14_LD_30_RN_6_RD_9_1.png","I_Dist_200_LN_3_LD_10_RN_1_RD_2_1.png","I_Dist_200_LN_4_LD_30_RN_1_RD_3_1.png","I_Dist_200_LN_6_LD_20_RN_3_RD_6_1.png","I_Dist_200_LN_7_LD_15_RN_4_RD_6_1.png","I_Dist_200_LN_7_LD_15_RN_6_RD_9_1.png","I_Dist_200_LN_9_LD_15_RN_8_RD_10_1.png"]],"dist200_S":[["E_Dist_200_LN_3_LD_6_RN_3_RD_10_0.png"],["E_Dist_200_LN_3_LD_10_RN_3_RD_6_1.png"]],"dist300_C":[["C_Dist_300_LN_11_LD_22_RN_1_RD_5_0.png","C_Dist_300_LN_11_LD_22_RN_2_RD_10_0.png","C_Dist_300_LN_11_LD_22_RN_4_RD_20_0.png","C_Dist_300_LN_12_LD_24_RN_2_RD_10_0.png","C_Dist_300_LN_18_LD_20_RN_9_RD_15_0.png","C_Dist_300_LN_20_LD_25_RN_13_RD_26_0.png","C_Dist_300_LN_20_LD_25_RN_14_RD_28_0.png","C_Dist_300_LN_20_LD_25_RN_5_RD_10_0.png","C_Dist_300_LN_20_LD_25_RN_8_RD_16_0.png","C_Dist_300_LN_20_LD_25_RN_9_RD_18_0.png","C_Dist_300_LN_24_LD_30_RN_2_RD_4_0.png","C_Dist_300_LN_24_LD_30_RN_8_RD_16_0.png","C_Dist_300_LN_3_LD_6_RN_2_RD_10_0.png","C_Dist_300_LN_4_LD_10_RN_1_RD_10_0.png","C_Dist_300_LN_4_LD_5_RN_2_RD_4_0.png","C_Dist_300_LN_8_LD_16_RN_1_RD_5_0.png","C_Dist_300_LN_9_LD_10_RN_3_RD_5_0.png"],["C_Dist_300_LN_1_LD_20_RN_7_RD_20_1.png","C_Dist_300_LN_1_LD_3_RN_19_RD_30_1.png","C_Dist_300_LN_1_LD_30_RN_8_RD_24_1.png","C_Dist_300_LN_1_LD_5_RN_11_RD_22_1.png","C_Dist_300_LN_1_LD_5_RN_3_RD_6_1.png","C_Dist_300_LN_1_LD_5_RN_6_RD_12_1.png","C_Dist_300_LN_2_LD_10_RN_12_RD_24_1.png","C_Dist_300_LN_2_LD_20_RN_10_RD_25_1.png","C_Dist_300_LN_3_LD_12_RN_11_RD_20_1.png","C_Dist_300_LN_3_LD_6_RN_4_RD_5_1.png","C_Dist_300_LN_4_LD_20_RN_13_RD_26_1.png","C_Dist_300_LN_5_LD_25_RN_6_RD_12_1.png","C_Dist_300_LN_5_LD_25_RN_7_RD_14_1.png","C_Dist_300_LN_7_LD_14_RN_20_RD_25_1.png","C_Dist_300_LN_8_LD_15_RN_10_RD_12_1.png"]],"dist300_I":[["I_Dist_300_LN_1_LD_2_RN_2_RD_10_0.png","I_Dist_300_LN_1_LD_2_RN_3_RD_15_0.png","I_Dist_300_LN_2_LD_4_RN_6_RD_30_0.png","I_Dist_300_LN_3_LD_6_RN_4_RD_20_0.png","I_Dist_300_LN_4_LD_5_RN_6_RD_12_0.png","I_Dist_300_LN_4_LD_5_RN_8_RD_16_0.png","I_Dist_300_LN_7_LD_10_RN_8_RD_20_0.png","I_Dist_300_LN_8_LD_10_RN_14_RD_28_0.png","I_Dist_300_LN_8_LD_10_RN_9_RD_18_0.png"],["I_Dist_300_LN_13_LD_26_RN_12_RD_15_1.png","I_Dist_300_LN_4_LD_20_RN_2_RD_4_1.png"]],"dist300_S":[["E_Dist_300_LN_9_LD_12_RN_9_RD_20_0.png"],["E_Dist_300_LN_18_LD_30_RN_18_RD_20_1.png","E_Dist_300_LN_3_LD_10_RN_3_RD_5_1.png","E_Dist_300_LN_9_LD_20_RN_9_RD_12_1.png"]],"dist500_C":[["C_Dist_500_LN_10_LD_13_RN_7_RD_26_0.png","C_Dist_500_LN_10_LD_15_RN_4_RD_24_0.png","C_Dist_500_LN_12_LD_16_RN_3_RD_12_0.png","C_Dist_500_LN_12_LD_18_RN_4_RD_24_0.png","C_Dist_500_LN_15_LD_18_RN_5_RD_15_0.png","C_Dist_500_LN_15_LD_20_RN_1_RD_4_0.png","C_Dist_500_LN_18_LD_27_RN_1_RD_6_0.png","C_Dist_500_LN_20_LD_24_RN_1_RD_3_0.png","C_Dist_500_LN_20_LD_24_RN_3_RD_9_0.png","C_Dist_500_LN_20_LD_24_RN_7_RD_21_0.png","C_Dist_500_LN_20_LD_28_RN_3_RD_14_0.png","C_Dist_500_LN_21_LD_28_RN_6_RD_24_0.png","C_Dist_500_LN_22_LD_28_RN_2_RD_7_0.png","C_Dist_500_LN_25_LD_30_RN_9_RD_27_0.png","C_Dist_500_LN_4_LD_6_RN_1_RD_6_0.png","C_Dist_500_LN_5_LD_6_RN_2_RD_6_0.png","C_Dist_500_LN_6_LD_9_RN_1_RD_6_0.png","C_Dist_500_LN_7_LD_10_RN_1_RD_5_0.png","C_Dist_500_LN_8_LD_12_RN_1_RD_6_0.png","C_Dist_500_LN_8_LD_12_RN_4_RD_24_0.png"],["C_Dist_500_LN_1_LD_4_RN_12_RD_16_1.png","C_Dist_500_LN_1_LD_4_RN_9_RD_12_1.png","C_Dist_500_LN_1_LD_9_RN_11_RD_18_1.png","C_Dist_500_LN_10_LD_24_RN_22_RD_24_1.png","C_Dist_500_LN_2_LD_12_RN_10_RD_15_1.png","C_Dist_500_LN_2_LD_12_RN_12_RD_18_1.png","C_Dist_500_LN_2_LD_12_RN_4_RD_6_1.png","C_Dist_500_LN_2_LD_24_RN_7_RD_12_1.png","C_Dist_500_LN_2_LD_5_RN_18_RD_20_1.png","C_Dist_500_LN_2_LD_5_RN_9_RD_10_1.png","C_Dist_500_LN_2_LD_8_RN_12_RD_16_1.png","C_Dist_500_LN_2_LD_8_RN_21_RD_28_1.png","C_Dist_500_LN_3_LD_10_RN_4_RD_5_1.png","C_Dist_500_LN_3_LD_12_RN_15_RD_20_1.png","C_Dist_500_LN_3_LD_30_RN_6_RD_10_1.png","C_Dist_500_LN_3_LD_8_RN_14_RD_16_1.png","C_Dist_500_LN_4_LD_16_RN_15_RD_20_1.png","C_Dist_500_LN_4_LD_24_RN_12_RD_18_1.png","C_Dist_500_LN_5_LD_14_RN_6_RD_7_1.png","C_Dist_500_LN_7_LD_21_RN_20_RD_24_1.png","C_Dist_500_LN_7_LD_28_RN_12_RD_16_1.png","C_Dist_500_LN_7_LD_28_RN_9_RD_12_1.png","C_Dist_500_LN_9_LD_27_RN_20_RD_24_1.png"]],"dist500_I":[["I_Dist_500_LN_2_LD_3_RN_4_RD_24_0.png","I_Dist_500_LN_5_LD_6_RN_6_RD_18_0.png","I_Dist_500_LN_7_LD_8_RN_9_RD_24_0.png"],["I_Dist_500_LN_7_LD_21_RN_5_RD_6_1.png"]],"dist500_S":[["E_Dist_500_LN_6_LD_8_RN_6_RD_24_0.png"],["E_Dist_500_LN_2_LD_12_RN_2_RD_3_1.png","E_Dist_500_LN_6_LD_24_RN_6_RD_8_1.png"]]}},{"start_time":1551886972324,"click_time":1551886974636,"finger_time":1551886974135,"fix_duration":666.9205773344358,"trial":1,"RT":1811,"MT":501,"sideResp":1,"stimulus":[],"xmouse":[793,793,793,793,793,793,793,793,793,793,793,793,793,793,793,793,793,793,793,793,793,793,793,793,793,793,793,793,793,793,793,793,793,793,793,793,793,793,793,793,793,793,793,793,793,793,793,793,793,793,793,793,793,793,793,793,793,793,793,793,793,793,793,793,793,793,793,793,793,793,793,793,793,793,793,793,793,793,793,793,792,787,783,774,770,766,765,763,760,753,740,712,651,603,551,515,500,477,469,465,463,463,464,469,471,471,472,472,472,472,472,472,472,472,472,471],"ymouse":[510,510,510,510,510,510,510,510,510,510,510,510,510,510,510,510,510,510,510,510,510,510,510,510,510,510,510,510,510,510,510,510,510,510,510,510,510,510,510,510,510,510,510,510,510,510,510,510,510,510,510,510,510,510,510,510,510,510,510,510,510,510,510,510,510,510,510,510,510,510,510,510,510,510,510,510,510,510,510,510,509,503,500,494,491,488,487,486,481,468,452,420,363,304,252,217,202,181,169,157,151,149,147,135,125,118,110,106,101,101,101,101,101,101,101,99],"timestamp_mouse":[12,33,53,72,93,111,133,152,171,191,212,231,251,271,291,311,331,352,372,393,411,431,453,472,491,511,531,552,571,592,611,632,651,671,691,712,733,752,771,793,811,831,852,872,892,911,931,951,973,993,1011,1032,1052,1072,1091,1111,1131,1151,1171,1192,1211,1231,1253,1273,1293,1311,1332,1352,1371,1391,1411,1431,1452,1472,1491,1512,1531,1553,1573,1591,1612,1632,1651,1672,1693,1712,1732,1751,1771,1792,1811,1832,1852,1871,1891,1912,1932,1952,1971,1991,2011,2032,2052,2072,2093,2113,2132,2151,2171,2192,2212,2231,2252,2272,2292,2312],"xSR":741.5,"ySR":449.15000000000003,"xT1":424.9,"yT1":0,"xT2":1058.1,"yT2":0,"toosoon":0,"cond_shown":"Incongruent","ratio_trial":300,"L_num":8,"L_den":10,"R_num":14,"R_den":28,"correct_side":1,"subjID":"Juan_Felipe_Ospina_Gonzalez_12","gender":"0","school":"6","age":"11"},{"start_time":1551886976199,"click_time":1551886982116,"finger_time":1551886981615,"fix_duration":802.8335801157725,"trial":2,"RT":5416,"MT":501,"sideResp":2,"stimulus":[],"xmouse":[807,807,807,807,807,807,807,807,807,807,807,807,807,807,807,807,807,807,807,807,807,807,807,807,807,807,807,807,807,807,807,807,807,807,807,807,807,807,807,807,807,807,807,807,807,807,807,807,807,807,807,807,807,807,807,807,807,807,807,807,807,807,807,807,807,807,807,807,807,807,807,807,807,807,807,807,807,807,807,807,807,807,807,807,807,807,807,807,807,807,807,807,807,807,807,807,807,807,807,807,807,807,807,807,807,807,807,807,807,807,807,807,807,807,807,807,807,807,807,807,807,807,807,807,807,807,807,807,807,807,807,807,807,807,807,807,807,807,807,807,807,807,807,807,807,807,807,807,807,807,807,807,807,807,807,807,807,807,807,807,807,807,807,807,807,807,807,807,807,807,807,807,807,807,807,807,807,807,807,807,807,807,807,807,807,807,807,807,807,807,807,807,807,807,807,807,807,807,807,807,807,807,807,807,807,807,807,807,807,807,807,807,807,807,807,807,807,807,807,807,807,807,807,807,807,807,807,807,807,807,807,807,807,807,807,807,807,807,807,807,807,807,807,807,807,807,807,807,807,807,807,807,807,807,807,807,807,807,807,807,807,807,808,808,809,809,810,811,819,829,845,865,879,901,911,920,926,935,941,960,970,976,981,991,996,1003,1009,1019,1029,1032,1035,1038,1043,1045,1054,1062],"ymouse":[495,495,495,495,495,495,495,495,495,495,495,495,495,495,495,495,495,495,495,495,495,495,495,495,495,495,495,495,495,495,495,495,495,495,495,495,495,495,495,495,495,495,495,495,495,495,495,495,495,495,495,495,495,495,495,495,495,495,495,495,495,495,495,495,495,495,495,495,495,495,495,495,495,495,495,495,495,495,495,495,495,495,495,495,495,495,495,495,495,495,495,495,495,495,495,495,495,495,495,495,495,495,495,495,495,495,495,495,495,495,495,495,495,495,495,495,495,495,495,495,495,495,495,495,495,495,495,495,495,495,495,495,495,495,495,495,495,495,495,495,495,495,495,495,495,495,495,495,495,495,495,495,495,495,495,495,495,495,495,495,495,495,495,495,495,495,495,495,495,495,495,495,495,495,495,495,495,495,495,495,495,495,495,495,495,495,495,495,495,495,495,495,495,495,495,495,495,495,495,495,495,495,495,495,495,495,495,495,495,495,495,495,495,495,495,495,495,495,495,495,495,495,496,496,496,496,496,496,496,496,496,496,496,496,496,496,496,496,496,496,496,496,496,496,496,496,496,496,496,496,496,496,496,496,496,496,496,496,496,496,496,496,497,497,497,496,496,494,486,476,462,445,433,402,377,358,345,328,313,268,239,215,196,162,142,123,104,81,65,61,59,58,55,54,47,42],"timestamp_mouse":[17,38,57,77,96,117,138,156,176,197,216,238,258,276,297,317,337,357,376,397,416,438,457,476,498,516,536,557,578,597,617,637,657,678,696,716,737,757,778,796,817,838,857,876,897,916,937,956,976,998,1017,1036,1057,1076,1098,1116,1137,1156,1177,1196,1217,1237,1256,1276,1297,1316,1337,1356,1376,1398,1418,1437,1456,1477,1496,1518,1550,1556,1576,1597,1616,1636,1656,1676,1696,1716,1737,1757,1778,1797,1816,1836,1856,1877,1897,1917,1938,1956,1978,1997,2016,2037,2057,2078,2096,2116,2138,2157,2176,2197,2216,2236,2256,2276,2298,2316,2338,2356,2377,2396,2416,2437,2456,2477,2497,2516,2536,2558,2578,2596,2616,2636,2658,2676,2696,2717,2737,2758,2777,2797,2816,2838,2856,2876,2896,2917,2937,2958,2976,2996,3017,3036,3057,3077,3097,3116,3136,3156,3176,3198,3217,3237,3256,3277,3296,3318,3336,3358,3376,3396,3416,3437,3456,3476,3497,3517,3537,3558,3577,3596,3617,3636,3658,3676,3697,3716,3738,3756,3776,3797,3817,3838,3856,3876,3896,3917,3937,3956,3976,3996,4017,4036,4058,4077,4096,4116,4137,4157,4177,4197,4216,4242,4258,4276,4296,4318,4336,4358,4378,4397,4416,4438,4456,4478,4496,4517,4536,4557,4576,4596,4616,4636,4656,4677,4696,4716,4737,4758,4776,4796,4816,4837,4856,4878,4897,4917,4938,4956,4977,4998,5017,5036,5057,5077,5096,5116,5136,5157,5176,5196,5216,5236,5258,5276,5296,5316,5337,5356,5377,5397,5416,5437,5457,5478,5496,5516,5536,5557,5577,5596,5616,5637,5657,5677,5696,5717,5736,5756,5778,5796,5816,5836,5856,5878,5898,5917],"xSR":741.5,"ySR":449.15000000000003,"xT1":424.9,"yT1":0,"xT2":1058.1,"yT2":0,"toosoon":0,"cond_shown":"Congruent","ratio_trial":300,"L_num":2,"L_den":20,"R_num":10,"R_den":25,"correct_side":2,"subjID":"Juan_Felipe_Ospina_Gonzalez_12","gender":"0","school":"6","age":"11"},{"start_time":1551886985168,"click_time":1551886986955,"finger_time":1551886986556,"fix_duration":250,"trial":3,"RT":1388,"MT":399,"sideResp":2,"stimulus":[],"xmouse":[809,809,809,809,809,809,809,809,809,809,809,809,809,809,809,809,809,809,809,809,809,809,809,809,809,809,809,809,809,809,809,809,809,809,809,809,809,809,809,809,809,809,809,809,809,809,809,809,809,809,809,809,809,809,809,809,809,809,809,809,809,809,809,809,809,809,812,817,824,845,864,930,959,977,992,1001,1018,1026,1036,1049,1056,1058,1058,1058,1058,1058,1058,1058,1065,1077],"ymouse":[499,499,499,499,499,499,499,499,499,499,499,499,499,499,499,499,499,499,499,499,499,499,499,499,499,499,499,499,499,499,499,499,499,499,499,499,499,499,499,499,499,499,499,499,499,499,499,499,499,499,499,499,499,499,499,499,499,499,499,499,499,499,499,499,499,499,495,484,463,396,347,238,204,190,180,173,164,158,149,132,121,119,119,119,119,119,119,116,101,84],"timestamp_mouse":[8,27,49,67,87,108,129,148,167,187,209,227,247,269,287,307,328,349,367,389,407,428,448,469,488,507,528,548,567,587,609,628,648,667,688,708,729,748,768,787,808,827,848,868,888,909,929,948,969,987,1007,1028,1049,1067,1087,1109,1127,1148,1167,1188,1209,1227,1247,1267,1289,1307,1328,1348,1369,1388,1408,1429,1449,1468,1488,1508,1529,1547,1568,1588,1607,1628,1648,1669,1687,1708,1727,1747,1767,1787],"xSR":741.5,"ySR":449.15000000000003,"xT1":424.9,"yT1":0,"xT2":1058.1,"yT2":0,"toosoon":0,"cond_shown":"Congruent","ratio_trial":300,"L_num":2,"L_den":20,"R_num":10,"R_den":25,"correct_side":2,"subjID":"Juan_Felipe_Ospina_Gonzalez_12","gender":"0","school":"6","age":"11"},{"start_time":1551886988440,"click_time":1551886989756,"finger_time":1551886989397,"fix_duration":482.7114911688616,"trial":4,"RT":957,"MT":359,"sideResp":2,"stimulus":[],"xmouse":[824,823,822,822,821,821,821,821,821,821,821,821,821,821,821,821,821,821,821,821,821,821,821,821,821,821,821,821,821,821,821,821,821,821,820,820,820,820,820,820,820,820,820,820,820,820,841,907,934,963,990,1023,1031,1035,1036,1038,1041,1043,1044,1045,1045,1045,1045,1046,1052,1063],"ymouse":[513,513,513,513,513,513,513,513,513,513,513,513,513,513,513,513,513,513,513,513,513,513,513,513,513,513,513,513,513,513,513,513,513,513,514,514,514,514,514,514,514,514,514,514,514,511,483,368,311,263,212,151,133,122,114,108,84,69,62,60,60,60,60,59,58,58],"timestamp_mouse":[15,35,56,75,97,115,136,156,176,196,217,236,256,275,297,315,335,356,375,395,417,436,455,476,497,516,537,555,575,595,616,636,656,675,696,716,735,755,775,796,815,836,856,875,896,915,935,957,976,995,1015,1037,1055,1075,1095,1115,1136,1155,1176,1196,1215,1236,1255,1277,1296,1316],"xSR":741.5,"ySR":449.15000000000003,"xT1":424.9,"yT1":0,"xT2":1058.1,"yT2":0,"toosoon":0,"cond_shown":"Congruent","ratio_trial":100,"L_num":2,"L_den":5,"R_num":11,"R_den":22,"correct_side":2,"subjID":"Juan_Felipe_Ospina_Gonzalez_12","gender":"0","school":"6","age":"11"},{"start_time":1551886991558,"click_time":1551886993276,"finger_time":1551886992997,"fix_duration":861.227058341799,"trial":5,"RT":1439,"MT":279,"sideResp":1,"stimulus":[],"xmouse":[828,828,828,828,828,828,828,828,828,828,828,828,828,828,828,828,828,828,828,828,828,828,828,828,828,828,828,828,828,828,828,828,828,828,828,828,828,828,828,828,828,828,828,828,828,828,828,828,828,828,828,828,828,828,828,828,828,828,828,828,828,828,828,828,828,828,828,828,828,826,791,757,725,680,635,591,582,575,572,570,569,566,560,555,549,517],"ymouse":[494,494,494,494,494,494,494,494,494,494,494,494,494,494,494,494,494,494,494,494,494,494,494,494,494,494,494,494,494,494,494,494,494,494,494,494,494,494,494,494,494,494,494,494,494,494,494,494,494,494,494,494,494,494,494,494,494,494,494,494,494,494,494,494,494,494,494,494,494,492,452,411,371,318,273,228,215,201,194,184,175,165,149,139,129,80],"timestamp_mouse":[18,43,58,78,98,118,138,159,178,198,217,237,259,277,297,317,338,357,378,397,417,438,457,478,498,519,537,557,579,597,617,637,657,679,698,719,738,758,778,797,817,838,859,877,898,918,938,957,977,998,1019,1038,1057,1078,1098,1117,1137,1157,1179,1199,1217,1238,1259,1277,1299,1317,1337,1358,1377,1398,1417,1439,1459,1478,1498,1518,1537,1558,1578,1597,1619,1637,1657,1678,1697,1718],"xSR":741.5,"ySR":449.15000000000003,"xT1":424.9,"yT1":0,"xT2":1058.1,"yT2":0,"toosoon":0,"cond_shown":"Incongruent","ratio_trial":300,"L_num":4,"L_den":5,"R_num":6,"R_den":12,"correct_side":1,"subjID":"Juan_Felipe_Ospina_Gonzalez_12","gender":"0","school":"6","age":"11"},{"start_time":1551886994207,"click_time":1551886997376,"finger_time":1551886996076,"fix_duration":250,"trial":6,"RT":1869,"MT":1300,"sideResp":2,"stimulus":[],"xmouse":[771,771,771,771,771,771,771,771,771,771,771,771,771,771,771,771,771,771,771,771,771,771,771,771,771,771,771,771,771,771,771,771,771,771,771,771,771,771,771,771,771,771,771,771,771,771,771,771,771,771,771,771,771,771,771,771,771,771,771,771,771,771,771,771,771,771,771,771,771,771,771,771,771,771,771,771,771,771,771,771,771,771,771,771,771,771,771,771,771,771,770,766,750,680,626,571,533,526,525,525,525,525,525,525,525,525,525,525,525,525,525,525,525,525,525,525,525,525,541,556,572,581,583,584,584,584,584,585,589,592,600,614,628,698,747,792,843,865,882,889,896,907,915,937,951,964,978,985,999,1003,1006,1012,1019,1035,1043,1050,1055,1057,1062],"ymouse":[500,500,500,500,500,500,500,500,500,500,500,500,500,500,500,500,500,500,500,500,500,500,500,500,500,500,500,500,500,500,500,500,500,500,500,500,500,500,500,500,500,500,500,500,500,500,500,500,500,500,500,500,500,500,500,500,500,500,500,500,500,500,500,500,500,500,500,500,500,500,500,500,500,500,500,500,500,500,500,500,500,500,500,500,500,500,500,500,500,500,493,484,457,347,253,177,132,123,123,123,123,123,123,123,123,123,123,123,123,123,123,123,123,123,123,123,123,125,136,144,150,153,154,154,154,154,154,155,169,177,188,203,215,266,299,322,342,343,335,312,264,198,139,80,65,56,44,38,31,30,29,29,33,45,51,54,56,56,57],"timestamp_mouse":[9,33,50,69,88,109,129,148,169,188,209,230,248,268,290,308,328,348,369,390,409,430,448,470,488,508,530,548,569,589,608,628,648,669,690,708,728,749,768,788,808,829,849,868,888,908,928,948,970,988,1008,1028,1050,1069,1088,1109,1128,1150,1168,1188,1210,1228,1248,1269,1288,1310,1329,1349,1368,1388,1408,1430,1449,1469,1489,1508,1529,1550,1568,1589,1609,1628,1648,1669,1688,1710,1729,1749,1770,1788,1808,1828,1849,1869,1888,1908,1928,1948,1970,1990,2010,2029,2048,2069,2088,2109,2130,2148,2170,2188,2208,2228,2250,2270,2289,2309,2328,2349,2370,2388,2409,2429,2449,2470,2488,2509,2528,2548,2570,2588,2608,2629,2649,2669,2688,2708,2728,2748,2769,2788,2809,2829,2848,2869,2888,2908,2928,2950,2969,2989,3008,3028,3050,3069,3088,3108,3128,3148,3169],"xSR":741.5,"ySR":449.15000000000003,"xT1":424.9,"yT1":0,"xT2":1058.1,"yT2":0,"toosoon":0,"cond_shown":"Incongruent","ratio_trial":100,"L_num":3,"L_den":5,"R_num":8,"R_den":16,"correct_side":1,"subjID":"Juan_Felipe_Ospina_Gonzalez_12","gender":"0","school":"6","age":"11"},{"start_time":1551887000528,"click_time":1551887001977,"finger_time":1551887001776,"fix_duration":1330.0163271226013,"trial":7,"RT":1248,"MT":201,"sideResp":1,"stimulus":[],"xmouse":[745,745,745,745,745,745,745,745,745,745,745,745,745,745,745,745,745,745,745,745,745,745,745,745,745,745,745,745,745,745,745,745,745,745,745,745,745,745,745,745,745,745,745,745,745,745,745,745,745,746,746,747,747,747,747,747,747,747,747,747,747,746,734,723,710,696,684,674,641,587,567,511,466],"ymouse":[507,507,507,507,507,507,507,507,507,507,507,507,507,507,507,507,507,507,507,507,507,507,507,507,507,507,507,507,507,507,507,507,507,507,507,507,507,507,507,507,507,507,507,507,507,507,507,506,508,510,511,512,512,512,512,512,512,512,512,512,512,511,504,497,487,468,452,437,375,272,235,134,38],"timestamp_mouse":[9,34,48,68,87,108,128,149,168,187,207,227,247,267,287,307,329,347,367,387,408,427,447,468,488,507,527,547,567,587,608,627,647,669,687,709,727,747,769,787,809,829,848,867,889,907,929,949,968,988,1008,1027,1048,1068,1088,1107,1129,1147,1167,1188,1207,1227,1248,1267,1287,1308,1327,1348,1369,1388,1407,1428,1448],"xSR":741.5,"ySR":449.15000000000003,"xT1":424.9,"yT1":0,"xT2":1058.1,"yT2":0,"toosoon":0,"cond_shown":"Incongruent","ratio_trial":200,"L_num":4,"L_den":6,"R_num":14,"R_den":30,"correct_side":1,"subjID":"Juan_Felipe_Ospina_Gonzalez_12","gender":"0","school":"6","age":"11"},{"start_time":1551887005024,"click_time":1551887006116,"finger_time":1551887005957,"fix_duration":706.5840751317194,"trial":8,"RT":933,"MT":159,"sideResp":1,"stimulus":[],"xmouse":[785,785,785,785,785,785,785,785,785,785,785,785,785,785,785,785,785,785,785,785,785,785,785,785,785,785,785,785,785,785,785,785,785,785,785,785,785,785,785,785,785,785,784,782,778,772,761,741,695,655,615,582,543,532,524],"ymouse":[482,482,482,482,482,482,482,482,482,482,482,482,482,482,482,482,482,482,482,482,482,482,482,482,482,482,482,482,482,482,482,482,482,482,482,482,482,482,482,482,482,481,479,476,471,453,433,402,327,263,200,154,88,68,54],"timestamp_mouse":[12,37,52,71,91,113,131,152,171,193,213,231,252,273,292,311,331,352,372,392,412,432,451,471,492,511,531,553,572,591,612,631,652,671,691,712,733,751,772,791,812,832,852,872,892,912,933,951,972,993,1011,1031,1053,1071,1091],"xSR":741.5,"ySR":449.15000000000003,"xT1":424.9,"yT1":0,"xT2":1058.1,"yT2":0,"toosoon":0,"cond_shown":"Congruent","ratio_trial":200,"L_num":12,"L_den":20,"R_num":6,"R_den":15,"correct_side":1,"subjID":"Juan_Felipe_Ospina_Gonzalez_12","gender":"0","school":"6","age":"11"},{"start_time":1551887007472,"click_time":1551887009277,"finger_time":1551887008895,"fix_duration":475.7072557272516,"trial":9,"RT":1423,"MT":382,"sideResp":1,"stimulus":[],"xmouse":[781,781,781,781,781,781,781,781,781,781,781,781,781,781,781,781,781,781,781,781,781,781,781,781,781,781,781,781,781,781,781,781,781,781,781,781,781,781,781,781,781,781,781,781,781,781,781,781,782,782,782,782,782,782,782,782,782,782,782,782,782,782,782,782,782,782,782,783,783,780,776,761,746,717,686,658,646,632,620,611,595,590,581,568,555,524,508,498,493,490,488],"ymouse":[487,487,487,487,487,487,487,487,487,487,487,487,487,487,487,487,487,487,487,487,487,487,487,487,487,487,487,487,487,487,487,487,487,487,487,487,487,487,487,487,487,487,487,487,487,487,487,487,487,487,487,487,487,487,487,487,487,487,487,487,487,487,487,487,487,487,487,487,485,475,460,419,392,348,311,287,278,265,251,241,228,224,218,207,197,167,149,133,119,107,93],"timestamp_mouse":[9,39,43,64,83,103,124,143,165,184,204,223,244,263,283,303,323,343,363,383,403,424,444,464,485,504,524,543,564,584,604,623,643,665,683,704,723,743,763,785,804,825,843,864,885,903,923,943,964,984,1003,1023,1044,1064,1084,1105,1125,1143,1164,1185,1204,1223,1244,1265,1284,1303,1324,1343,1365,1383,1403,1423,1443,1464,1484,1504,1523,1543,1563,1584,1605,1623,1643,1663,1684,1704,1723,1745,1763,1784,1805],"xSR":741.5,"ySR":449.15000000000003,"xT1":424.9,"yT1":0,"xT2":1058.1,"yT2":0,"toosoon":0,"cond_shown":"Incongruent","ratio_trial":100,"L_num":4,"L_den":8,"R_num":8,"R_den":20,"correct_side":1,"subjID":"Juan_Felipe_Ospina_Gonzalez_12","gender":"0","school":"6","age":"11"},{"start_time":1551887014728,"click_time":1551887019095,"finger_time":1551887015016,"fix_duration":250,"trial":10,"RT":288,"MT":4079,"sideResp":1,"stimulus":[],"xmouse":[828,828,828,828,828,828,828,828,828,828,826,825,823,814,809,806,805,804,804,804,804,804,804,804,804,804,803,802,799,797,796,795,794,794,793,792,792,792,792,792,793,794,795,795,795,795,796,796,796,796,796,796,796,796,796,796,796,796,796,796,796,796,796,796,796,796,796,796,797,797,797,797,797,797,798,798,798,798,798,798,798,798,798,799,801,804,806,809,811,812,812,812,812,812,812,812,812,814,816,817,817,817,817,817,817,817,817,817,817,817,817,817,817,817,817,818,818,819,819,819,820,820,820,820,820,820,820,820,820,820,820,820,820,820,820,820,820,820,820,820,820,820,820,820,820,820,820,820,820,820,820,820,820,820,820,820,820,820,820,820,820,820,820,820,820,820,820,820,820,820,820,820,820,820,820,820,820,820,820,820,820,820,820,820,820,820,820,820,820,820,820,820,820,820,820,819,818,809,798,787,766,755,741,670,612,570,532,479,465,462,462,462,462,462,462,462,462,462,473],"ymouse":[479,479,479,479,479,479,479,479,479,479,478,473,468,450,442,435,432,431,431,431,431,431,431,431,431,432,437,442,451,455,459,464,470,474,477,479,480,483,485,488,490,492,494,495,495,496,496,499,499,499,499,499,499,499,499,499,499,499,499,499,499,499,499,499,499,499,502,503,505,506,507,507,507,507,507,507,507,507,507,507,507,507,507,507,507,507,506,503,502,501,501,501,501,501,501,501,500,497,492,490,490,490,490,490,490,490,490,490,490,490,490,490,490,490,490,486,484,477,476,475,474,474,474,474,474,474,474,474,474,474,474,474,474,474,474,474,474,474,474,474,474,474,474,474,474,474,474,474,474,474,474,474,474,474,474,474,474,474,474,474,474,474,474,474,474,474,474,474,474,474,474,474,474,474,474,474,474,474,474,474,474,474,474,474,474,474,474,474,474,474,474,474,474,474,474,472,471,466,463,460,446,435,415,324,266,222,183,116,104,102,102,102,102,102,102,102,101,101,97],"timestamp_mouse":[10,32,48,68,88,107,128,148,169,187,207,227,247,268,288,307,327,348,367,387,408,427,447,467,487,507,528,547,567,589,608,627,648,668,687,707,728,749,767,787,807,828,849,867,888,908,927,948,967,987,1007,1028,1047,1068,1089,1107,1127,1148,1168,1188,1208,1228,1249,1268,1288,1308,1329,1348,1368,1387,1408,1428,1448,1467,1487,1509,1527,1548,1569,1588,1607,1629,1648,1669,1688,1709,1728,1748,1769,1787,1807,1827,1849,1867,1888,1908,1928,1947,1967,1988,2009,2028,2047,2069,2087,2108,2129,2147,2167,2187,2207,2228,2248,2269,2287,2308,2329,2348,2367,2387,2408,2429,2447,2468,2488,2507,2527,2547,2568,2588,2609,2627,2649,2668,2688,2707,2727,2748,2768,2788,2807,2828,2848,2868,2889,2907,2928,2948,2968,2988,3008,3027,3048,3067,3089,3109,3128,3149,3168,3188,3208,3227,3247,3267,3288,3307,3327,3348,3367,3387,3407,3427,3447,3467,3489,3509,3529,3547,3567,3587,3608,3628,3647,3667,3687,3707,3727,3748,3768,3789,3807,3827,3847,3867,3887,3907,3927,3949,3967,3987,4007,4028,4047,4068,4087,4108,4128,4148,4167,4188,4207,4229,4249,4269,4288,4307,4327,4348,4367],"xSR":741.5,"ySR":449.15000000000003,"xT1":424.9,"yT1":0,"xT2":1058.1,"yT2":0,"toosoon":0,"cond_shown":"Incongruent","ratio_trial":100,"L_num":3,"L_den":5,"R_num":8,"R_den":16,"correct_side":1,"subjID":"Juan_Felipe_Ospina_Gonzalez_12","gender":"0","school":"6","age":"11"},{"start_time":1551887020624,"click_time":1551887022336,"finger_time":1551887022117,"fix_duration":565.9517014871772,"trial":11,"RT":1493,"MT":219,"sideResp":1,"stimulus":[],"xmouse":[790,790,790,790,790,790,790,790,790,790,790,790,790,790,790,790,790,790,790,790,790,790,790,790,790,790,790,790,790,790,790,790,790,790,790,788,787,785,784,784,784,784,784,784,784,784,784,784,784,784,784,784,784,784,784,784,784,784,784,784,784,784,784,784,784,784,784,784,784,783,781,779,772,761,746,739,701,603,556,521,504,496,486,483,480,475],"ymouse":[501,501,501,501,501,501,501,501,501,501,501,501,501,501,501,501,501,501,501,501,501,501,501,501,501,501,501,501,501,501,501,501,501,501,502,505,507,510,510,511,511,511,511,511,511,511,511,511,511,511,511,511,511,511,511,511,511,511,511,511,511,511,511,511,511,511,511,511,511,508,504,498,481,466,438,429,375,250,196,165,153,147,139,131,118,97],"timestamp_mouse":[12,41,52,72,91,113,131,151,173,193,211,233,251,272,291,312,332,351,371,391,411,432,453,471,492,511,532,553,571,591,613,633,652,672,692,713,731,752,772,791,813,832,852,872,891,911,932,952,973,991,1011,1032,1052,1073,1092,1113,1132,1152,1172,1193,1211,1231,1252,1271,1292,1313,1331,1351,1372,1391,1412,1431,1452,1472,1493,1511,1531,1552,1572,1591,1611,1631,1652,1671,1692,1711],"xSR":741.5,"ySR":449.15000000000003,"xT1":424.9,"yT1":0,"xT2":1058.1,"yT2":0,"toosoon":0,"cond_shown":"Incongruent","ratio_trial":100,"L_num":9,"L_den":15,"R_num":13,"R_den":26,"correct_side":1,"subjID":"Juan_Felipe_Ospina_Gonzalez_12","gender":"0","school":"6","age":"11"},{"start_time":1551887023239,"click_time":1551887025396,"finger_time":1551887025075,"fix_duration":301.07106999540554,"trial":12,"RT":1836,"MT":321,"sideResp":1,"stimulus":[],"xmouse":[776,776,776,776,777,777,777,778,778,778,778,778,778,778,778,778,778,778,778,778,778,778,778,778,778,778,778,778,778,778,778,778,778,778,778,778,778,778,778,778,778,778,778,778,778,778,779,779,779,779,779,779,779,779,780,780,780,780,780,780,781,781,781,782,782,782,783,784,784,784,784,784,784,784,784,784,784,784,784,784,784,784,784,784,784,784,784,784,784,777,770,735,713,682,646,609,519,491,483,482,482,482,482,482,482,482,482,486],"ymouse":[516,516,515,513,513,510,509,509,509,509,507,506,504,504,504,504,504,504,504,504,504,504,504,504,504,504,504,504,504,504,504,504,504,504,504,504,504,504,504,504,504,504,504,504,504,504,503,503,503,503,503,503,503,503,503,503,503,503,503,503,503,503,503,503,503,503,503,503,503,503,503,503,503,503,503,503,503,503,503,503,503,503,503,503,503,503,503,503,503,491,481,437,404,362,310,262,182,165,160,159,159,159,158,150,132,119,109,95],"timestamp_mouse":[15,35,56,75,96,116,135,155,176,196,215,237,255,275,296,316,335,355,376,395,415,435,456,476,495,517,535,555,576,597,617,636,656,675,697,715,736,755,775,797,815,835,857,875,897,916,936,955,977,996,1015,1036,1055,1075,1096,1116,1135,1155,1175,1197,1215,1237,1256,1276,1297,1315,1337,1355,1377,1395,1415,1435,1455,1475,1496,1516,1536,1555,1577,1595,1616,1637,1656,1677,1696,1716,1737,1755,1776,1796,1817,1836,1856,1875,1896,1917,1936,1955,1975,1995,2017,2036,2055,2075,2097,2116,2137,2157],"xSR":741.5,"ySR":449.15000000000003,"xT1":424.9,"yT1":0,"xT2":1058.1,"yT2":0,"toosoon":0,"cond_shown":"Incongruent","ratio_trial":100,"L_num":4,"L_den":8,"R_num":8,"R_den":20,"correct_side":1,"subjID":"Juan_Felipe_Ospina_Gonzalez_12","gender":"0","school":"6","age":"11"},{"start_time":1551887026357,"click_time":1551887027895,"finger_time":1551887027815,"fix_duration":319.7496049534803,"trial":13,"RT":1458,"MT":80,"sideResp":1,"stimulus":[],"xmouse":[823,823,823,823,823,823,823,823,823,823,823,823,823,823,823,823,823,823,823,823,823,823,823,823,823,823,823,823,823,823,823,823,823,823,823,823,823,823,823,823,823,823,823,823,823,823,823,823,823,823,823,823,823,823,823,823,823,823,823,823,823,823,823,820,817,810,807,803,801,796,786,777,764,732,669,510,439],"ymouse":[526,526,526,526,526,526,526,526,526,526,526,526,526,526,526,526,526,526,526,526,526,526,526,526,526,526,526,526,526,526,526,526,526,526,526,526,526,526,526,526,526,526,526,526,526,526,526,526,526,526,526,526,526,526,526,526,526,526,526,526,526,526,526,523,522,513,509,505,503,498,482,466,439,376,289,131,74],"timestamp_mouse":[18,38,58,78,98,119,139,158,179,197,218,239,257,279,298,318,338,358,377,398,417,438,457,479,498,517,538,557,577,597,619,638,657,678,698,717,739,758,777,799,818,837,858,877,899,918,937,957,978,997,1018,1037,1057,1079,1097,1119,1139,1157,1177,1197,1218,1239,1258,1278,1299,1318,1338,1359,1377,1398,1418,1437,1458,1478,1497,1519,1538],"xSR":741.5,"ySR":449.15000000000003,"xT1":424.9,"yT1":0,"xT2":1058.1,"yT2":0,"toosoon":0,"cond_shown":"Incongruent","ratio_trial":200,"L_num":1,"L_den":2,"R_num":3,"R_den":10,"correct_side":1,"subjID":"Juan_Felipe_Ospina_Gonzalez_12","gender":"0","school":"6","age":"11"},{"start_time":1551887029634,"click_time":1551887031155,"finger_time":1551887030715,"fix_duration":1097.1765062086724,"trial":14,"RT":1081,"MT":440,"sideResp":1,"stimulus":[],"xmouse":[777,777,777,777,777,777,777,777,777,777,777,777,777,777,777,777,777,777,777,777,777,777,777,777,777,777,777,777,777,777,777,777,777,777,777,777,777,777,777,777,777,777,777,777,777,777,777,777,777,777,777,777,777,770,758,735,717,667,643,619,590,567,544,535,527,522,518,518,518,518,518,518,518,518,518,516,513],"ymouse":[466,466,466,466,466,466,466,466,466,466,466,466,466,466,466,466,466,466,466,466,466,466,466,466,466,466,466,466,466,466,466,466,466,466,466,466,466,466,466,466,466,466,466,466,466,466,466,466,466,466,466,466,466,456,435,402,379,328,306,279,241,207,163,142,125,112,104,103,103,103,103,103,103,103,103,101,96],"timestamp_mouse":[8,22,40,61,80,102,120,141,161,180,202,222,241,261,281,301,322,341,360,380,401,421,441,461,480,502,522,541,560,581,602,621,640,662,680,701,722,741,760,781,801,820,841,861,881,901,920,942,961,980,1000,1020,1042,1062,1081,1102,1120,1141,1160,1180,1201,1221,1241,1260,1280,1300,1321,1342,1361,1381,1400,1421,1442,1462,1481,1501,1521],"xSR":741.5,"ySR":449.15000000000003,"xT1":424.9,"yT1":0,"xT2":1058.1,"yT2":0,"toosoon":0,"cond_shown":"Incongruent","ratio_trial":300,"L_num":2,"L_den":4,"R_num":6,"R_den":30,"correct_side":1,"subjID":"Juan_Felipe_Ospina_Gonzalez_12","gender":"0","school":"6","age":"11"},{"start_time":1551887032667,"click_time":1551887034516,"finger_time":1551887034175,"fix_duration":950.841519689474,"trial":15,"RT":1508,"MT":341,"sideResp":2,"stimulus":[],"xmouse":[774,774,774,774,774,774,774,774,774,774,774,774,774,774,774,774,774,774,774,774,774,774,774,774,774,774,774,774,774,774,774,774,774,774,774,774,774,774,774,774,774,774,774,774,774,774,774,774,774,774,774,774,774,774,774,774,774,774,774,774,774,774,774,774,774,774,774,774,774,774,774,773,773,773,774,787,800,821,841,870,937,964,989,1010,1022,1028,1030,1032,1033,1035,1038,1054,1066],"ymouse":[486,486,486,486,486,486,486,486,486,486,486,486,486,486,486,486,486,486,486,486,486,486,486,486,486,486,486,486,486,486,486,486,486,486,486,486,486,486,486,486,486,486,486,486,486,486,486,486,486,486,486,486,486,486,486,486,486,486,486,486,486,486,486,486,486,486,486,486,486,486,486,486,485,477,471,449,429,399,371,337,254,211,173,146,130,121,117,115,114,112,109,92,75],"timestamp_mouse":[10,41,49,68,89,108,127,148,168,189,207,227,247,268,288,308,329,348,369,388,407,428,449,467,488,507,528,549,568,587,609,628,648,667,687,707,729,748,767,787,807,829,848,867,888,908,929,948,968,987,1008,1028,1049,1068,1088,1109,1127,1147,1168,1187,1209,1227,1247,1268,1289,1308,1328,1349,1367,1387,1408,1427,1449,1468,1487,1508,1527,1547,1568,1588,1608,1627,1647,1667,1687,1709,1727,1748,1767,1787,1807,1828,1848],"xSR":741.5,"ySR":449.15000000000003,"xT1":424.9,"yT1":0,"xT2":1058.1,"yT2":0,"toosoon":0,"cond_shown":"Incongruent","ratio_trial":300,"L_num":13,"L_den":26,"R_num":12,"R_den":15,"correct_side":2,"subjID":"Juan_Felipe_Ospina_Gonzalez_12","gender":"0","school":"6","age":"11"},{"start_time":1551887038876,"click_time":1551887040834,"finger_time":1551887040456,"fix_duration":1200.0322305480645,"trial":16,"RT":1580,"MT":378,"sideResp":2,"stimulus":[],"xmouse":[770,770,770,770,770,770,770,770,770,770,770,770,770,770,770,770,770,770,770,770,770,770,770,770,770,770,770,770,770,770,770,770,770,770,770,770,770,770,770,770,770,770,770,770,770,770,770,770,770,770,770,770,770,770,770,770,770,770,770,770,770,770,770,770,770,770,770,770,770,770,770,770,770,769,765,765,773,789,805,830,844,854,868,881,916,929,937,942,949,958,978,988,1008,1019,1032,1042,1052,1063],"ymouse":[486,486,486,486,486,486,486,486,486,486,486,486,486,486,486,486,486,486,486,486,486,486,486,486,486,486,486,486,486,486,486,486,486,486,486,486,486,486,486,486,486,486,486,486,486,486,486,486,486,486,486,486,486,486,486,486,486,486,486,486,486,486,486,486,486,486,486,486,486,486,486,486,486,486,486,486,480,466,443,356,297,259,224,209,180,168,155,139,124,105,82,77,73,73,74,76,78,79],"timestamp_mouse":[33,38,59,78,98,120,138,159,178,199,220,239,259,280,299,318,338,358,379,398,419,439,459,479,499,519,538,558,578,599,618,638,658,678,698,720,750,759,779,798,820,838,858,878,899,918,939,958,978,999,1019,1038,1058,1078,1098,1118,1140,1158,1180,1198,1220,1239,1258,1278,1300,1318,1338,1358,1379,1399,1418,1438,1458,1478,1499,1519,1540,1560,1580,1599,1618,1639,1658,1679,1699,1718,1739,1760,1779,1798,1818,1838,1858,1879,1900,1918,1938,1958],"xSR":741.5,"ySR":449.15000000000003,"xT1":424.9,"yT1":0,"xT2":1058.1,"yT2":0,"toosoon":0,"cond_shown":"Congruent","ratio_trial":200,"L_num":6,"L_den":20,"R_num":11,"R_den":22,"correct_side":2,"subjID":"Juan_Felipe_Ospina_Gonzalez_12","gender":"0","school":"6","age":"11"},{"start_time":1551887042048,"click_time":1551887043875,"finger_time":1551887043536,"fix_duration":250,"trial":17,"RT":1488,"MT":339,"sideResp":2,"stimulus":[],"xmouse":[785,785,785,785,785,785,785,785,785,785,785,785,785,785,785,785,785,785,785,785,785,785,785,785,785,785,785,785,785,785,785,785,785,785,785,785,785,785,785,785,785,785,785,785,785,785,785,785,785,785,785,785,785,785,785,785,785,785,785,785,785,785,785,785,785,785,785,785,785,785,787,790,792,796,827,861,891,941,967,990,1006,1016,1020,1022,1024,1027,1034,1038,1041,1046,1053,1069],"ymouse":[522,522,522,522,522,522,522,522,522,522,522,522,522,522,522,522,522,522,522,522,522,522,522,522,522,522,522,522,522,522,522,522,522,522,522,522,522,522,522,522,522,522,522,522,522,522,522,522,522,522,522,522,522,522,522,522,522,522,522,522,522,522,522,522,522,522,522,522,522,522,521,520,515,505,418,340,273,178,135,104,90,80,76,73,69,63,51,49,47,46,44,41],"timestamp_mouse":[9,27,48,67,86,108,126,147,168,187,206,227,248,266,286,308,328,347,367,388,407,427,448,468,487,507,527,546,567,587,606,627,648,668,687,707,727,748,767,786,806,828,846,866,887,906,928,946,966,988,1007,1026,1047,1068,1086,1107,1127,1148,1167,1186,1206,1227,1246,1267,1288,1308,1328,1347,1367,1388,1408,1427,1446,1466,1488,1506,1526,1546,1566,1587,1606,1628,1647,1667,1687,1706,1728,1746,1767,1786,1808,1827],"xSR":741.5,"ySR":449.15000000000003,"xT1":424.9,"yT1":0,"xT2":1058.1,"yT2":0,"toosoon":0,"cond_shown":"Congruent","ratio_trial":300,"L_num":2,"L_den":20,"R_num":10,"R_den":25,"correct_side":2,"subjID":"Juan_Felipe_Ospina_Gonzalez_12","gender":"0","school":"6","age":"11"},{"start_time":1551887047274,"click_time":1551887048515,"finger_time":1551887048235,"fix_duration":1178.8253440952992,"trial":18,"RT":961,"MT":280,"sideResp":1,"stimulus":[],"xmouse":[792,792,792,792,792,792,792,792,792,792,792,792,792,792,792,792,792,792,792,792,792,792,792,792,792,792,792,792,792,792,792,792,792,792,792,792,792,792,792,792,792,792,792,791,791,789,784,774,759,739,685,647,597,589,576,572,569,565,557,547,537,525,521],"ymouse":[483,483,483,483,483,483,483,483,483,483,483,483,483,483,483,483,483,483,483,483,483,483,483,483,483,483,483,483,483,483,483,483,483,483,483,483,483,483,483,483,483,483,483,483,483,483,478,463,442,406,309,240,168,157,140,131,127,121,113,104,96,90,90],"timestamp_mouse":[8,21,40,65,81,100,121,140,160,182,200,220,240,260,282,300,320,340,362,380,400,421,441,460,480,500,520,542,560,580,600,620,642,660,680,700,721,740,761,781,800,820,841,862,881,901,922,941,961,980,1003,1020,1041,1060,1080,1101,1120,1141,1162,1180,1200,1222,1241],"xSR":741.5,"ySR":449.15000000000003,"xT1":424.9,"yT1":0,"xT2":1058.1,"yT2":0,"toosoon":0,"cond_shown":"Congruent","ratio_trial":300,"L_num":24,"L_den":30,"R_num":8,"R_den":16,"correct_side":1,"subjID":"Juan_Felipe_Ospina_Gonzalez_12","gender":"0","school":"6","age":"11"},{"start_time":1551887050011,"click_time":1551887051855,"finger_time":1551887051674,"fix_duration":895.9303381390632,"trial":19,"RT":1663,"MT":181,"sideResp":2,"stimulus":[],"xmouse":[816,816,816,816,816,816,816,816,816,816,816,816,816,816,816,816,816,816,816,816,816,816,816,816,816,816,816,816,816,816,816,816,816,816,816,816,816,816,816,816,816,816,816,816,816,816,816,816,816,816,816,816,816,816,816,816,816,816,816,816,816,816,816,816,816,816,816,816,816,816,816,816,816,816,816,816,816,816,816,816,816,825,835,876,968,991,1032,1051,1066,1085,1091,1095,1098],"ymouse":[482,482,482,482,482,482,482,482,482,482,482,482,482,482,482,482,482,482,482,482,482,482,482,482,482,482,482,482,482,482,483,483,483,483,483,483,483,483,483,483,483,483,483,483,483,483,483,483,483,483,483,483,483,483,483,483,483,483,483,483,483,483,483,483,483,483,483,483,483,483,483,483,483,483,483,483,483,483,483,483,483,474,462,411,295,265,210,188,174,148,132,115,96],"timestamp_mouse":[10,33,43,63,85,103,123,143,164,183,203,223,244,264,283,303,324,344,365,383,404,424,443,464,485,503,524,544,565,585,603,624,644,664,684,703,725,743,764,783,803,824,844,864,884,903,924,944,963,984,1003,1024,1043,1064,1084,1104,1124,1145,1164,1183,1205,1224,1244,1264,1284,1303,1325,1343,1363,1384,1405,1423,1443,1464,1483,1505,1524,1544,1564,1585,1603,1623,1644,1663,1683,1704,1724,1744,1765,1785,1804,1824,1844],"xSR":741.5,"ySR":449.15000000000003,"xT1":424.9,"yT1":0,"xT2":1058.1,"yT2":0,"toosoon":0,"cond_shown":"Incongruent","ratio_trial":200,"L_num":3,"L_den":4,"R_num":11,"R_den":20,"correct_side":1,"subjID":"Juan_Felipe_Ospina_Gonzalez_12","gender":"0","school":"6","age":"11"},{"start_time":1551887056621,"click_time":1551887058494,"finger_time":1551887058275,"fix_duration":685.4184213233698,"trial":20,"RT":1654,"MT":219,"sideResp":2,"stimulus":[],"xmouse":[777,777,777,777,777,777,777,777,777,777,777,777,777,777,777,777,777,777,777,777,777,777,777,777,777,777,777,777,777,777,777,777,777,777,777,777,777,777,777,777,777,777,777,777,777,777,777,777,777,777,777,777,777,777,777,777,777,777,777,777,777,777,777,777,777,777,777,777,777,777,777,777,777,777,777,777,777,778,780,782,785,792,801,827,845,869,889,921,976,1004,1030,1043,1050,1059],"ymouse":[503,503,503,503,503,503,503,503,503,503,503,503,503,503,503,503,503,503,503,503,503,503,503,503,503,503,503,503,503,503,503,503,503,503,503,503,503,503,503,503,503,503,503,503,503,503,503,503,503,503,503,503,503,503,503,503,503,503,503,503,503,503,503,503,503,503,503,503,503,503,503,503,503,503,503,503,503,503,501,490,472,450,431,389,357,309,277,230,166,127,93,73,59,45],"timestamp_mouse":[15,36,53,74,95,113,133,154,173,193,213,234,254,274,295,313,333,353,375,394,415,434,454,473,494,513,535,554,573,593,614,635,653,675,694,713,734,754,773,795,813,835,853,874,895,914,934,955,974,994,1014,1033,1054,1074,1095,1115,1134,1154,1173,1193,1213,1234,1254,1275,1293,1313,1334,1354,1373,1395,1413,1434,1454,1473,1495,1515,1534,1553,1575,1595,1615,1635,1654,1674,1694,1714,1734,1755,1774,1794,1814,1833,1853,1873],"xSR":741.5,"ySR":449.15000000000003,"xT1":424.9,"yT1":0,"xT2":1058.1,"yT2":0,"toosoon":0,"cond_shown":"Incongruent","ratio_trial":100,"L_num":2,"L_den":4,"R_num":6,"R_den":15,"correct_side":1,"subjID":"Juan_Felipe_Ospina_Gonzalez_12","gender":"0","school":"6","age":"11"},{"start_time":1551887059647,"click_time":1551887061094,"finger_time":1551887060956,"fix_duration":250,"trial":21,"RT":1309,"MT":138,"sideResp":2,"stimulus":[],"xmouse":[796,796,796,798,800,802,803,804,805,805,805,805,806,806,806,806,806,806,806,806,806,805,805,805,805,805,805,805,805,805,805,805,805,805,805,805,805,805,805,805,805,805,805,805,805,805,805,805,805,805,805,805,805,805,805,805,805,805,805,806,806,806,811,817,833,845,864,871,885,900,924,962,1121],"ymouse":[495,495,495,495,495,495,495,495,495,495,495,495,495,495,495,495,495,495,495,495,495,496,496,496,496,496,496,496,496,496,496,496,496,496,496,496,496,496,496,496,496,496,496,496,496,496,496,496,496,496,496,496,496,496,496,496,496,496,496,496,495,494,487,479,461,450,430,424,413,398,375,334,76],"timestamp_mouse":[8,36,47,67,88,108,129,147,168,189,207,227,248,268,287,308,329,348,367,389,407,429,448,467,489,508,527,547,567,587,608,628,647,667,688,707,727,747,767,789,808,828,848,867,889,908,927,948,967,987,1008,1029,1048,1067,1089,1107,1127,1147,1167,1188,1208,1227,1247,1269,1288,1309,1328,1347,1367,1388,1408,1427,1447],"xSR":741.5,"ySR":449.15000000000003,"xT1":424.9,"yT1":0,"xT2":1058.1,"yT2":0,"toosoon":0,"cond_shown":"Congruent","ratio_trial":300,"L_num":7,"L_den":14,"R_num":20,"R_den":25,"correct_side":2,"subjID":"Juan_Felipe_Ospina_Gonzalez_12","gender":"0","school":"6","age":"11"},{"start_time":1551887062745,"click_time":1551887079415,"finger_time":1551887078795,"fix_duration":250,"trial":22,"RT":16050,"MT":620,"sideResp":1,"stimulus":[],"xmouse":[804,801,797,797,797,797,797,797,797,797,797,797,797,797,797,797,797,797,797,797,797,797,797,797,797,797,797,797,797,797,797,797,797,797,797,797,797,797,797,797,797,797,787,778,772,770,770,770,770,770,770,770,770,770,770,770,770,770,770,770,770,770,770,770,770,770,770,770,770,770,770,770,770,770,770,770,770,770,770,770,770,770,770,770,770,770,770,770,770,770,770,770,770,770,770,770,770,770,770,770,770,770,770,770,770,770,770,770,770,770,770,770,770,770,770,770,770,770,770,770,770,770,770,770,770,770,770,770,770,770,770,770,770,770,770,770,770,770,770,770,770,770,770,770,770,770,770,770,770,770,770,770,770,770,770,770,770,770,770,770,770,770,770,770,770,770,770,770,770,770,770,770,770,770,770,770,770,770,770,770,770,770,770,770,770,770,770,770,770,770,770,770,770,770,770,770,770,770,770,770,770,770,770,770,770,770,770,770,770,770,770,770,770,770,770,770,770,770,770,770,770,770,770,770,770,770,770,770,770,770,770,770,770,770,770,770,770,770,770,770,770,770,770,770,770,770,770,770,770,770,770,770,770,770,770,770,770,770,770,770,770,770,770,770,770,770,770,770,770,770,770,770,770,770,770,770,770,770,770,770,770,770,770,770,770,770,770,770,770,770,770,770,770,770,770,770,770,770,770,770,770,770,770,770,770,770,770,770,770,770,770,770,770,770,770,770,770,770,770,770,770,770,770,770,770,770,770,770,770,770,770,770,770,770,770,770,770,770,770,770,770,770,770,770,770,770,770,770,770,770,770,770,770,770,770,770,770,770,770,770,770,770,770,770,770,770,770,770,770,770,770,770,770,770,770,770,770,770,770,770,770,770,770,770,770,770,770,770,770,770,770,770,770,770,770,770,770,770,770,770,770,770,770,770,770,770,770,770,770,770,770,770,770,770,770,770,770,770,770,770,770,770,770,770,770,770,770,770,770,770,770,770,770,770,770,770,770,770,770,770,770,770,770,770,770,770,770,770,770,770,770,770,770,770,770,770,770,770,770,770,770,770,770,770,770,770,770,770,770,770,770,770,770,770,770,770,770,770,770,770,770,770,770,770,770,770,770,770,770,770,770,770,770,770,770,770,770,770,770,770,770,770,770,770,770,770,770,770,770,770,770,770,770,770,770,770,770,770,770,770,770,770,770,770,770,770,770,770,770,770,770,770,770,770,770,770,770,770,770,770,770,770,770,770,770,770,770,770,770,770,770,770,770,770,770,770,770,770,770,770,770,770,770,770,770,770,770,770,770,770,770,770,770,770,770,770,770,770,770,770,770,770,770,770,770,770,770,770,770,770,770,770,770,770,770,770,770,770,770,770,770,770,770,770,770,770,770,770,770,770,770,770,770,770,770,770,770,770,770,770,770,770,770,770,770,770,770,770,770,770,770,770,770,770,770,770,770,770,770,770,770,770,770,770,770,770,770,770,770,770,770,770,770,770,770,770,770,770,770,770,770,770,770,770,770,770,770,770,770,770,770,770,770,770,770,770,770,770,770,770,770,770,770,770,770,770,770,770,770,770,770,770,770,770,770,770,770,770,770,770,770,770,770,770,770,770,770,770,770,770,770,770,770,770,770,770,770,770,770,770,770,770,770,770,770,770,770,770,770,770,770,770,770,770,770,770,770,770,770,770,770,770,770,770,770,770,770,770,770,770,770,770,770,770,770,770,770,770,770,770,770,770,770,770,770,770,770,770,770,770,770,770,770,770,770,770,770,770,770,770,770,770,770,770,770,770,770,770,772,772,772,772,772,772,772,772,772,772,773,776,776,768,715,679,636,582,427,329,277,277,277,277,277,277,277,277,277,277,277,277,277,277,277,277,277,277,277,277,277,277,277,277,277,430],"ymouse":[478,475,472,472,472,472,472,472,472,472,472,472,472,472,472,472,472,472,472,472,472,472,472,472,472,472,472,472,472,472,472,472,472,472,472,472,472,472,472,472,472,471,470,467,465,464,464,464,464,464,464,464,464,464,464,464,464,464,464,464,464,464,464,464,464,464,464,464,464,464,464,464,464,464,464,464,464,464,464,464,464,464,464,464,464,464,464,464,464,464,464,464,464,464,464,464,464,464,464,464,464,464,464,464,464,464,464,464,464,464,464,464,464,464,464,464,464,464,464,464,464,464,464,464,464,464,464,464,464,464,464,464,464,464,464,464,464,464,464,464,464,464,464,464,464,464,464,464,464,464,464,464,464,464,464,464,464,464,464,464,464,464,464,464,464,464,464,464,464,464,464,464,464,464,464,464,464,464,464,464,464,464,464,464,464,464,464,464,464,464,464,464,464,464,464,464,464,464,464,464,464,464,464,464,464,464,464,464,464,464,464,464,464,464,464,464,464,464,464,464,464,464,464,464,464,464,464,464,464,464,464,464,464,464,464,464,464,464,464,464,464,464,464,464,464,464,464,464,464,464,464,464,464,464,464,464,464,464,464,464,464,464,464,464,464,464,464,464,464,464,464,464,464,464,464,464,464,464,464,464,464,464,464,464,464,464,464,464,464,464,464,464,464,464,464,464,464,464,464,464,464,464,464,464,464,464,464,464,464,464,464,464,464,464,464,464,464,464,464,464,464,464,464,464,464,464,464,464,464,464,464,464,464,464,464,464,464,464,464,464,464,464,464,464,464,464,464,464,464,464,464,464,464,464,464,464,464,464,464,464,464,464,464,464,464,464,464,464,464,464,464,464,464,464,464,464,464,464,464,464,464,464,464,464,464,464,464,464,464,464,464,464,464,464,464,464,464,464,464,464,464,464,464,464,464,464,464,464,464,464,464,464,464,464,464,464,464,464,464,464,464,464,464,464,464,464,464,464,464,464,464,464,464,464,464,464,464,464,464,464,464,464,464,464,464,464,464,464,464,464,464,464,464,464,464,464,464,464,464,464,464,464,464,464,464,464,464,464,464,464,464,464,464,464,464,464,464,464,464,464,464,464,464,464,464,464,464,464,464,464,464,464,464,464,464,464,464,464,464,464,464,464,464,464,464,464,464,464,464,464,464,464,464,464,464,464,464,464,464,464,464,464,464,464,464,464,464,464,464,464,464,464,464,464,464,464,464,464,464,464,464,464,464,464,464,464,464,464,464,464,464,464,464,464,464,464,464,464,464,464,464,464,464,464,464,464,464,464,464,464,464,464,464,464,464,464,464,464,464,464,464,464,464,464,464,464,464,464,464,464,464,464,464,464,464,464,464,464,464,464,464,464,464,464,464,464,464,464,464,464,464,464,464,464,464,464,464,464,464,464,464,464,464,464,464,464,464,464,464,464,464,464,464,464,464,464,464,464,464,464,464,464,464,464,464,464,464,464,464,464,464,464,464,464,464,464,464,464,464,464,464,464,464,464,464,464,464,464,464,464,464,464,464,464,464,464,464,464,464,464,464,464,464,464,464,464,464,464,464,464,464,464,464,464,464,464,464,464,464,464,464,464,464,464,464,464,464,464,464,464,464,464,464,464,464,464,464,464,464,464,464,464,464,464,464,464,464,464,464,464,464,464,464,464,464,464,464,464,464,464,464,464,464,464,464,464,464,464,464,464,464,464,464,464,464,464,464,464,464,464,464,464,464,464,464,464,464,464,464,464,464,464,464,464,464,464,464,464,464,464,464,464,464,464,464,464,464,462,461,461,461,461,461,461,461,461,461,461,460,458,457,459,467,467,441,390,231,118,55,55,55,55,55,55,55,55,55,55,55,55,55,55,55,55,55,55,55,55,55,55,55,55,55,2],"timestamp_mouse":[12,36,50,70,90,111,129,150,170,190,209,230,250,270,291,309,330,351,369,389,410,429,449,469,489,511,529,551,570,589,610,631,649,669,691,711,730,749,769,789,811,830,851,870,889,909,930,949,971,989,1010,1031,1049,1069,1089,1111,1130,1149,1170,1190,1211,1229,1249,1270,1290,1311,1330,1349,1370,1389,1411,1429,1450,1469,1489,1511,1530,1549,1569,1589,1609,1629,1649,1670,1689,1710,1729,1749,1770,1790,1810,1830,1849,1869,1890,1911,1930,1950,1971,1990,2011,2029,2050,2070,2090,2109,2130,2149,2169,2189,2209,2230,2251,2269,2289,2310,2330,2349,2369,2390,2411,2429,2449,2470,2490,2510,2531,2549,2569,2591,2610,2629,2650,2671,2691,2709,2731,2749,2769,2790,2810,2830,2851,2870,2890,2910,2929,2950,2970,2990,3011,3029,3050,3071,3089,3110,3131,3149,3169,3190,3211,3230,3250,3269,3291,3309,3329,3351,3370,3390,3409,3431,3449,3471,3490,3510,3530,3550,3570,3589,3611,3630,3649,3671,3690,3709,3730,3749,3770,3790,3810,3831,3849,3869,3891,3909,3931,3951,3969,3989,4009,4030,4050,4070,4090,4110,4130,4150,4169,4189,4210,4229,4249,4271,4289,4311,4330,4349,4370,4389,4409,4429,4451,4469,4490,4509,4531,4550,4570,4590,4609,4630,4650,4670,4690,4709,4731,4750,4771,4789,4811,4829,4849,4870,4889,4911,4930,4950,4969,4989,5010,5030,5050,5071,5090,5109,5129,5150,5169,5190,5209,5229,5249,5270,5289,5311,5329,5349,5370,5389,5410,5430,5451,5469,5491,5509,5530,5550,5570,5589,5610,5630,5649,5670,5690,5710,5729,5750,5771,5789,5811,5831,5849,5871,5891,5910,5931,5950,5969,5991,6010,6029,6050,6070,6091,6109,6131,6150,6169,6189,6210,6231,6250,6269,6290,6310,6329,6350,6370,6390,6409,6429,6451,6469,6491,6509,6531,6549,6571,6590,6609,6631,6649,6669,6690,6709,6730,6751,6770,6790,6811,6829,6849,6870,6889,6911,6929,6951,6969,6990,7009,7031,7049,7070,7090,7109,7130,7151,7169,7191,7209,7231,7249,7270,7289,7309,7331,7349,7369,7390,7409,7431,7449,7469,7489,7510,7530,7549,7570,7590,7609,7630,7649,7669,7690,7709,7730,7750,7770,7790,7809,7831,7849,7871,7889,7909,7931,7950,7971,7989,8010,8030,8049,8070,8089,8109,8129,8150,8170,8189,8210,8230,8249,8270,8290,8311,8329,8349,8370,8390,8411,8430,8449,8469,8491,8511,8529,8550,8569,8590,8611,8629,8650,8671,8691,8709,8729,8751,8770,8789,8810,8829,8849,8871,8890,8910,8929,8949,8969,8989,9010,9029,9050,9070,9089,9110,9129,9149,9169,9191,9209,9230,9249,9271,9289,9309,9330,9350,9370,9390,9409,9429,9451,9469,9490,9510,9530,9551,9570,9590,9611,9629,9649,9670,9690,9709,9731,9749,9770,9791,9810,9830,9849,9871,9889,9909,9930,9951,9969,9990,10011,10030,10051,10070,10090,10110,10129,10149,10171,10189,10210,10229,10249,10270,10289,10311,10329,10350,10370,10390,10410,10431,10449,10470,10490,10510,10530,10550,10569,10590,10610,10630,10650,10670,10690,10710,10731,10750,10770,10791,10811,10830,10849,10870,10891,10909,10930,10950,10971,10990,11010,11030,11050,11071,11091,11109,11130,11151,11169,11190,11211,11231,11250,11269,11290,11310,11329,11350,11370,11390,11410,11431,11449,11469,11490,11510,11529,11551,11569,11589,11610,11631,11650,11670,11691,11710,11731,11749,11770,11789,11810,11830,11849,11871,11891,11909,11930,11949,11970,11991,12009,12029,12049,12071,12091,12109,12129,12150,12171,12189,12209,12231,12249,12270,12289,12310,12329,12350,12369,12389,12411,12429,12451,12470,12490,12510,12529,12549,12570,12590,12610,12630,12651,12671,12691,12710,12730,12750,12769,12790,12810,12830,12849,12870,12889,12910,12931,12951,12971,12991,13009,13029,13051,13069,13089,13109,13130,13150,13170,13189,13210,13231,13251,13271,13290,13310,13330,13349,13370,13390,13411,13431,13450,13470,13490,13511,13530,13549,13570,13590,13611,13629,13650,13669,13690,13710,13730,13751,13769,13789,13810,13831,13849,13869,13889,13911,13931,13949,13971,13990,14010,14030,14050,14071,14091,14111,14130,14149,14171,14190,14209,14230,14249,14270,14291,14310,14331,14349,14369,14390,14409,14431,14449,14469,14489,14511,14529,14549,14570,14590,14610,14629,14651,14671,14689,14711,14729,14749,14770,14790,14811,14830,14850,14870,14890,14909,14929,14950,14971,14989,15011,15029,15051,15070,15089,15110,15130,15150,15171,15190,15209,15230,15251,15271,15291,15309,15329,15350,15369,15391,15409,15430,15449,15469,15491,15510,15530,15551,15569,15590,15609,15630,15651,15669,15691,15709,15730,15749,15770,15790,15809,15830,15850,15870,15889,15909,15931,15949,15970,15991,16010,16030,16050,16069,16091,16111,16130,16149,16169,16190,16209,16230,16249,16270,16291,16310,16330,16351,16371,16390,16410,16430,16451,16470,16490,16510,16530,16561,16571,16590,16611,16631,16650,16669],"xSR":741.5,"ySR":449.15000000000003,"xT1":424.9,"yT1":0,"xT2":1058.1,"yT2":0,"toosoon":0,"cond_shown":"Incongruent","ratio_trial":100,"L_num":8,"L_den":16,"R_num":6,"R_den":10,"correct_side":2,"subjID":"Juan_Felipe_Ospina_Gonzalez_12","gender":"0","school":"6","age":"11"},{"start_time":1551887080387,"click_time":1551887081776,"finger_time":1551887081496,"fix_duration":250,"trial":23,"RT":1109,"MT":280,"sideResp":1,"stimulus":[],"xmouse":[803,803,803,803,803,803,803,803,803,803,803,803,803,803,803,803,803,803,803,803,803,803,803,803,803,803,803,803,803,803,803,803,803,803,803,803,803,803,803,803,803,803,803,803,803,803,803,803,803,803,803,803,803,800,794,755,736,720,704,700,697,696,694,693,688,680,661,610,575,475],"ymouse":[481,481,481,481,481,481,481,481,481,481,481,481,481,481,481,481,481,481,481,481,481,481,481,481,481,481,481,481,481,481,481,481,481,481,481,481,481,481,481,481,481,481,481,481,481,481,481,481,481,481,481,481,481,475,464,421,413,413,416,417,418,418,418,418,418,408,378,288,224,87],"timestamp_mouse":[7,38,47,67,87,109,127,149,169,187,209,228,248,268,288,309,328,347,369,388,407,428,448,468,488,508,528,548,567,588,607,627,648,668,688,709,727,748,768,788,807,827,849,869,888,907,928,949,967,987,1008,1028,1048,1067,1087,1109,1127,1147,1169,1189,1207,1227,1248,1268,1288,1307,1328,1349,1369,1389],"xSR":741.5,"ySR":449.15000000000003,"xT1":424.9,"yT1":0,"xT2":1058.1,"yT2":0,"toosoon":0,"cond_shown":"Congruent","ratio_trial":300,"L_num":20,"L_den":25,"R_num":13,"R_den":26,"correct_side":1,"subjID":"Juan_Felipe_Ospina_Gonzalez_12","gender":"0","school":"6","age":"11"},{"start_time":1551887085997,"click_time":1551887087876,"finger_time":1551887087555,"fix_duration":580.7723603002377,"trial":24,"RT":1558,"MT":321,"sideResp":2,"stimulus":[],"xmouse":[817,817,817,817,817,817,817,817,817,817,817,817,817,817,817,817,817,817,817,817,817,817,817,817,817,817,817,817,817,817,817,817,817,817,817,817,817,817,817,817,817,817,817,817,817,817,817,817,817,817,817,817,817,817,817,817,817,817,817,817,817,817,817,817,817,817,817,817,817,817,817,817,817,817,819,825,835,844,851,856,856,856,856,856,856,857,872,905,990,1024,1063,1098,1121,1129],"ymouse":[479,479,479,479,479,479,479,479,479,479,479,479,479,479,479,479,479,479,479,479,479,479,479,479,479,479,479,479,479,479,479,479,479,479,479,479,479,479,479,479,479,479,479,479,479,479,479,479,479,479,479,479,479,479,479,479,479,479,479,479,479,479,479,479,479,479,479,479,479,479,479,479,479,479,478,478,477,475,474,474,474,473,473,473,473,472,458,410,278,228,178,131,100,88],"timestamp_mouse":[31,39,58,78,98,119,138,159,178,198,219,238,258,278,298,318,338,358,379,400,419,438,458,479,498,518,538,558,578,598,618,638,658,678,699,718,739,760,778,799,818,838,858,878,898,918,938,958,979,1000,1018,1039,1059,1078,1099,1119,1139,1158,1178,1199,1219,1240,1258,1278,1298,1318,1339,1358,1378,1398,1418,1438,1458,1479,1498,1518,1540,1558,1578,1599,1619,1638,1658,1679,1698,1719,1738,1758,1779,1798,1818,1838,1859,1878],"xSR":741.5,"ySR":449.15000000000003,"xT1":424.9,"yT1":0,"xT2":1058.1,"yT2":0,"toosoon":0,"cond_shown":"Congruent","ratio_trial":200,"L_num":3,"L_den":10,"R_num":7,"R_den":14,"correct_side":2,"subjID":"Juan_Felipe_Ospina_Gonzalez_12","gender":"0","school":"6","age":"11"},{"start_time":1551887092355,"click_time":1551887094256,"finger_time":1551887093695,"fix_duration":1337.3277401648618,"trial":25,"RT":1340,"MT":561,"sideResp":1,"stimulus":[],"xmouse":[764,764,764,764,764,764,764,764,764,764,764,764,764,764,764,764,764,764,764,764,764,764,764,764,764,764,764,764,764,764,764,764,764,764,764,764,764,764,764,764,764,764,764,764,764,764,764,764,764,764,764,764,764,764,764,764,764,764,764,764,764,764,764,764,764,763,758,718,687,600,569,524,513,509,507,507,506,504,503,502,499,490,487,485,484,480,475,474,474,474,474,474,474,474,474,474],"ymouse":[524,524,524,524,524,524,524,524,524,524,524,524,524,524,524,524,524,524,524,524,524,524,524,524,524,524,524,524,524,524,524,524,524,524,524,524,524,524,524,524,524,524,524,524,524,524,524,524,524,524,524,524,524,524,524,524,524,524,524,524,524,524,524,524,524,524,522,480,450,364,337,292,282,277,273,271,260,253,246,237,228,194,177,164,154,144,128,126,124,123,120,118,111,106,100,95],"timestamp_mouse":[9,37,41,61,80,100,120,140,160,181,200,220,240,260,281,300,320,340,360,380,400,420,440,460,480,500,521,540,560,580,601,621,642,660,680,700,720,740,760,780,800,820,840,860,880,900,921,941,960,980,1001,1021,1040,1061,1081,1101,1120,1140,1160,1180,1200,1221,1241,1261,1280,1300,1321,1340,1360,1380,1402,1422,1440,1460,1481,1500,1521,1540,1560,1580,1601,1622,1640,1661,1680,1701,1722,1740,1760,1781,1800,1821,1840,1861,1880,1900],"xSR":741.5,"ySR":449.15000000000003,"xT1":424.9,"yT1":0,"xT2":1058.1,"yT2":0,"toosoon":0,"cond_shown":"Congruent","ratio_trial":100,"L_num":12,"L_den":30,"R_num":13,"R_den":26,"correct_side":2,"subjID":"Juan_Felipe_Ospina_Gonzalez_12","gender":"0","school":"6","age":"11"},{"start_time":1551887097281,"click_time":1551887098597,"finger_time":1551887098215,"fix_duration":643.3227765561493,"trial":26,"RT":934,"MT":382,"sideResp":1,"stimulus":[],"xmouse":[763,763,763,763,763,763,763,763,763,763,763,763,763,763,763,763,763,763,763,763,763,763,763,763,763,763,763,763,763,763,763,763,763,763,763,763,763,763,763,763,763,763,763,763,762,742,707,661,621,557,544,536,531,528,528,528,528,528,528,528,528,528,528,528,528,519],"ymouse":[508,508,508,508,508,508,508,508,508,508,508,508,508,508,508,508,508,508,508,508,508,508,508,508,508,508,508,508,508,508,508,508,508,508,508,508,508,508,508,508,508,508,508,508,507,469,407,329,243,130,108,94,86,80,79,79,79,79,79,79,79,79,79,79,79,75],"timestamp_mouse":[14,34,55,74,94,115,134,156,174,195,214,234,254,274,294,314,334,355,374,394,414,434,454,475,495,514,535,555,575,595,615,634,654,675,695,714,734,755,775,794,814,834,855,874,895,914,934,955,976,995,1014,1034,1054,1074,1095,1114,1134,1155,1174,1195,1214,1235,1254,1275,1294,1315],"xSR":741.5,"ySR":449.15000000000003,"xT1":424.9,"yT1":0,"xT2":1058.1,"yT2":0,"toosoon":0,"cond_shown":"Congruent","ratio_trial":200,"L_num":12,"L_den":15,"R_num":6,"R_den":10,"correct_side":1,"subjID":"Juan_Felipe_Ospina_Gonzalez_12","gender":"0","school":"6","age":"11"},{"start_time":1551887099788,"click_time":1551887101536,"finger_time":1551887101315,"fix_duration":250,"trial":27,"RT":1527,"MT":221,"sideResp":1,"stimulus":[],"xmouse":[767,767,767,767,767,768,768,770,773,777,785,787,788,789,789,789,789,789,789,789,789,789,789,789,789,789,789,789,789,789,789,789,789,789,789,789,789,789,789,789,789,789,789,789,789,789,789,789,789,789,789,789,789,789,789,789,789,789,789,789,789,789,789,789,789,789,789,789,789,789,789,789,789,789,789,762,742,675,613,550,461,449,443,436,431,430,430,430],"ymouse":[466,466,466,466,466,467,467,468,470,474,482,484,486,487,487,487,487,487,487,487,487,487,487,487,487,487,487,487,487,487,487,487,487,487,487,487,487,487,487,487,487,487,487,487,487,487,487,487,487,487,487,487,487,487,487,487,487,487,487,487,487,487,487,487,487,487,487,487,487,487,487,487,487,487,486,453,430,351,283,224,151,141,134,124,117,108,101,93],"timestamp_mouse":[9,27,47,68,87,108,127,147,167,187,208,227,247,269,288,307,328,347,368,387,408,428,447,468,488,508,527,548,567,588,607,628,647,667,687,707,727,747,767,789,807,827,847,868,887,907,928,947,969,987,1008,1028,1047,1067,1087,1108,1128,1147,1167,1187,1207,1229,1248,1269,1288,1308,1327,1347,1368,1387,1408,1427,1448,1468,1488,1507,1527,1547,1568,1587,1607,1628,1647,1669,1687,1707,1727,1747],"xSR":741.5,"ySR":449.15000000000003,"xT1":424.9,"yT1":0,"xT2":1058.1,"yT2":0,"toosoon":0,"cond_shown":"Congruent","ratio_trial":200,"L_num":4,"L_den":10,"R_num":3,"R_den":15,"correct_side":1,"subjID":"Juan_Felipe_Ospina_Gonzalez_12","gender":"0","school":"6","age":"11"},{"start_time":1551887103092,"click_time":1551887104535,"finger_time":1551887104275,"fix_duration":535.0272478973611,"trial":28,"RT":1183,"MT":260,"sideResp":2,"stimulus":[],"xmouse":[787,787,787,787,787,787,787,787,787,787,787,787,787,787,787,787,787,787,787,787,787,787,787,787,787,787,787,787,787,787,787,787,787,787,787,787,787,787,787,787,787,787,787,787,787,787,787,787,787,787,787,787,787,787,787,787,792,803,821,843,927,969,1009,1052,1086,1094,1097,1099,1100,1101,1106,1111,1114],"ymouse":[493,493,493,493,493,493,493,493,493,493,493,493,493,493,493,493,493,493,493,493,493,493,493,493,493,493,493,493,493,493,493,493,493,493,493,493,493,493,493,493,493,493,493,493,493,493,493,493,493,493,493,493,493,493,493,493,491,482,469,449,383,352,320,270,216,200,186,171,158,129,119,109,98],"timestamp_mouse":[9,33,43,64,84,104,123,144,163,183,204,223,244,264,285,304,323,343,364,385,404,423,443,463,483,503,523,544,563,583,603,625,643,664,683,704,724,744,764,784,805,823,844,863,883,903,924,944,963,983,1003,1023,1044,1064,1083,1103,1123,1143,1164,1183,1203,1223,1243,1264,1285,1303,1324,1343,1364,1385,1403,1423,1443],"xSR":741.5,"ySR":449.15000000000003,"xT1":424.9,"yT1":0,"xT2":1058.1,"yT2":0,"toosoon":0,"cond_shown":"Congruent","ratio_trial":100,"L_num":7,"L_den":14,"R_num":15,"R_den":25,"correct_side":2,"subjID":"Juan_Felipe_Ospina_Gonzalez_12","gender":"0","school":"6","age":"11"},{"start_time":1551887106705,"click_time":1551887107616,"finger_time":1551887107537,"fix_duration":1247.8511667623216,"trial":29,"RT":832,"MT":79,"sideResp":1,"stimulus":[],"xmouse":[777,777,777,777,777,777,777,777,777,777,777,777,777,777,777,777,777,777,777,777,777,777,777,777,777,777,777,777,777,777,777,777,777,777,777,777,776,773,766,754,745,728,710,637,572,523],"ymouse":[496,496,496,496,496,496,496,496,496,496,496,496,496,496,496,496,496,496,496,496,496,496,496,496,496,496,496,496,496,496,496,496,496,496,496,496,496,496,493,483,472,455,435,285,167,94],"timestamp_mouse":[14,39,52,70,90,110,131,150,170,191,210,231,250,271,292,311,331,350,370,391,410,430,450,471,491,511,531,550,571,592,611,630,650,671,690,710,730,751,770,791,811,832,850,872,890,911],"xSR":741.5,"ySR":449.15000000000003,"xT1":424.9,"yT1":0,"xT2":1058.1,"yT2":0,"toosoon":0,"cond_shown":"Congruent","ratio_trial":300,"L_num":8,"L_den":16,"R_num":1,"R_den":5,"correct_side":1,"subjID":"Juan_Felipe_Ospina_Gonzalez_12","gender":"0","school":"6","age":"11"},{"start_time":1551887108789,"click_time":1551887110276,"finger_time":1551887110176,"fix_duration":250,"trial":30,"RT":1387,"MT":100,"sideResp":1,"stimulus":[],"xmouse":[788,788,787,787,787,785,785,785,785,785,785,785,785,785,785,785,785,785,785,785,785,785,785,785,785,785,785,785,785,785,785,785,785,785,785,785,785,785,785,785,785,785,785,785,785,785,785,785,785,785,785,785,785,785,785,785,785,785,785,785,785,785,785,785,785,785,782,775,758,686,634,588,540,494,427],"ymouse":[534,529,525,521,518,513,512,512,512,512,512,512,512,512,512,512,512,512,512,512,512,512,512,512,512,512,512,512,512,512,512,512,512,512,512,512,512,512,512,512,512,512,512,512,512,512,512,512,512,512,512,512,512,512,512,512,512,512,512,512,512,512,512,512,512,512,509,502,488,411,342,274,203,135,41],"timestamp_mouse":[12,36,46,66,86,107,126,146,167,186,206,226,246,266,286,306,326,346,368,387,406,426,446,466,486,507,526,546,566,587,606,626,647,666,687,707,726,746,766,787,807,826,848,867,886,906,927,947,967,986,1006,1026,1047,1067,1087,1106,1127,1147,1167,1186,1207,1226,1246,1267,1287,1307,1326,1346,1366,1387,1406,1426,1446,1466,1487],"xSR":741.5,"ySR":449.15000000000003,"xT1":424.9,"yT1":0,"xT2":1058.1,"yT2":0,"toosoon":0,"cond_shown":"Incongruent","ratio_trial":200,"L_num":4,"L_den":6,"R_num":14,"R_den":30,"correct_side":1,"subjID":"Juan_Felipe_Ospina_Gonzalez_12","gender":"0","school":"6","age":"11"},{"start_time":1551887112566,"click_time":1551887114516,"finger_time":1551887114195,"fix_duration":1269.1937754899873,"trial":31,"RT":1629,"MT":321,"sideResp":2,"stimulus":[],"xmouse":[757,757,757,757,757,757,757,757,757,757,757,757,757,757,757,757,757,757,757,757,757,757,757,757,757,757,757,757,757,757,757,757,757,757,757,757,757,757,757,757,757,757,757,757,757,757,757,757,757,757,757,757,757,757,757,757,757,757,757,757,757,757,757,757,757,757,757,757,757,757,757,757,757,757,757,757,757,757,757,761,793,828,870,904,939,974,1004,1009,1012,1013,1015,1019,1026,1033,1037,1042,1053,1067],"ymouse":[493,493,493,493,493,493,493,493,493,493,493,493,493,493,493,493,493,493,493,493,493,493,493,493,493,493,493,493,493,493,493,493,493,493,493,493,493,493,493,493,493,493,493,493,493,493,493,493,493,493,493,493,493,493,493,493,493,493,493,493,493,493,493,493,493,493,493,493,493,493,493,493,493,493,493,493,493,493,493,491,457,409,352,312,269,224,168,154,144,138,131,115,95,83,78,77,74,74],"timestamp_mouse":[10,42,49,69,89,110,129,149,171,189,210,230,250,269,290,310,330,349,370,390,409,429,449,470,490,510,529,549,570,590,609,630,649,669,689,710,729,749,770,789,809,829,849,870,889,909,929,949,969,990,1011,1030,1051,1070,1089,1109,1130,1150,1169,1189,1210,1230,1250,1271,1290,1309,1331,1349,1370,1389,1410,1430,1449,1470,1490,1509,1529,1549,1570,1589,1610,1629,1649,1669,1690,1711,1729,1749,1769,1790,1810,1829,1849,1870,1889,1909,1929,1949],"xSR":741.5,"ySR":449.15000000000003,"xT1":424.9,"yT1":0,"xT2":1058.1,"yT2":0,"toosoon":0,"cond_shown":"Congruent","ratio_trial":300,"L_num":5,"L_den":25,"R_num":7,"R_den":14,"correct_side":2,"subjID":"Juan_Felipe_Ospina_Gonzalez_12","gender":"0","school":"6","age":"11"},{"start_time":1551887117327,"click_time":1551887118795,"finger_time":1551887118696,"fix_duration":250,"trial":32,"RT":1369,"MT":99,"sideResp":2,"stimulus":[],"xmouse":[781,781,781,781,781,781,781,781,781,781,781,781,781,781,781,781,781,781,781,781,781,781,781,781,781,781,781,781,781,781,781,781,781,781,781,781,781,781,781,781,781,781,781,781,781,781,781,781,781,781,781,781,781,781,781,781,781,781,781,781,781,781,781,781,781,781,785,790,859,907,974,1012,1040,1061],"ymouse":[520,520,520,520,520,520,520,520,520,520,520,520,520,520,520,520,520,520,520,520,520,520,520,520,520,520,520,520,520,520,520,520,520,520,520,520,520,520,520,520,520,520,520,520,520,520,520,520,520,520,520,520,520,520,520,520,520,520,520,520,520,520,520,520,520,520,518,510,421,350,243,164,97,32],"timestamp_mouse":[10,32,48,69,89,108,129,159,168,188,208,229,249,268,288,308,328,349,368,388,409,428,449,468,488,509,528,548,568,588,609,628,649,668,688,708,729,748,768,789,808,828,848,868,888,908,929,948,969,989,1008,1028,1048,1068,1089,1108,1128,1148,1169,1188,1208,1228,1248,1268,1288,1308,1328,1348,1369,1388,1408,1429,1449,1468],"xSR":741.5,"ySR":449.15000000000003,"xT1":424.9,"yT1":0,"xT2":1058.1,"yT2":0,"toosoon":0,"cond_shown":"Incongruent","ratio_trial":100,"L_num":11,"L_den":22,"R_num":9,"R_den":15,"correct_side":2,"subjID":"Juan_Felipe_Ospina_Gonzalez_12","gender":"0","school":"6","age":"11"},{"start_time":1551887120212,"click_time":1551887121755,"finger_time":1551887121415,"fix_duration":434.7298233292496,"trial":33,"RT":1203,"MT":340,"sideResp":2,"stimulus":[],"xmouse":[771,771,771,771,771,771,771,771,771,771,771,771,771,771,771,771,771,771,771,771,771,771,771,771,771,771,771,771,771,771,771,771,771,771,771,771,771,771,771,771,771,771,771,771,771,771,771,771,771,771,771,771,771,771,771,771,771,771,788,818,855,893,932,986,994,1000,1001,1001,1001,1001,1001,1001,1001,1001,1011,1024,1051,1065],"ymouse":[513,513,513,513,513,513,513,513,513,513,513,513,513,513,513,513,513,513,513,513,513,513,513,513,513,513,513,513,513,513,513,513,513,513,513,513,513,513,513,513,513,513,513,513,513,513,513,513,513,513,513,513,513,513,513,513,513,513,487,450,405,355,295,200,175,159,150,138,132,124,122,121,116,108,85,70,56,51],"timestamp_mouse":[8,23,49,64,84,103,123,143,163,184,203,223,243,264,284,304,325,343,364,383,404,423,443,463,483,503,523,543,563,584,603,623,644,663,684,704,723,744,763,784,804,823,843,864,883,903,923,943,964,984,1004,1023,1044,1064,1083,1104,1123,1143,1164,1183,1203,1224,1243,1265,1283,1303,1323,1343,1363,1384,1403,1423,1443,1463,1483,1503,1523,1543],"xSR":741.5,"ySR":449.15000000000003,"xT1":424.9,"yT1":0,"xT2":1058.1,"yT2":0,"toosoon":0,"cond_shown":"Incongruent","ratio_trial":200,"L_num":7,"L_den":15,"R_num":4,"R_den":6,"correct_side":2,"subjID":"Juan_Felipe_Ospina_Gonzalez_12","gender":"0","school":"6","age":"11"},{"start_time":1551887122673,"click_time":1551887123915,"finger_time":1551887123677,"fix_duration":357.78921639661996,"trial":34,"RT":1004,"MT":238,"sideResp":1,"stimulus":[],"xmouse":[825,825,825,825,825,825,825,825,825,825,825,825,825,825,825,825,825,825,825,825,825,825,825,825,825,825,825,825,821,819,814,814,814,814,814,813,810,809,809,809,809,809,809,809,809,809,809,800,783,757,676,643,605,560,539,530,530,531,531,531,531,528,524],"ymouse":[513,513,513,513,513,513,513,513,513,513,513,513,513,513,513,513,513,513,513,513,513,513,513,513,513,513,513,513,513,513,514,514,514,514,514,515,516,517,517,517,517,517,517,517,517,517,517,506,488,463,406,374,334,269,225,182,165,147,127,109,78,65,56],"timestamp_mouse":[7,34,43,63,83,102,122,142,163,182,202,222,242,262,282,302,323,342,362,382,402,422,443,462,482,502,522,542,562,583,603,622,643,663,683,703,722,743,762,782,803,823,843,862,883,902,923,942,963,982,1004,1022,1042,1062,1083,1104,1122,1142,1163,1182,1202,1222,1242],"xSR":741.5,"ySR":449.15000000000003,"xT1":424.9,"yT1":0,"xT2":1058.1,"yT2":0,"toosoon":0,"cond_shown":"Incongruent","ratio_trial":200,"L_num":7,"L_den":10,"R_num":12,"R_den":24,"correct_side":1,"subjID":"Juan_Felipe_Ospina_Gonzalez_12","gender":"0","school":"6","age":"11"},{"start_time":1551887126347,"click_time":1551887127977,"finger_time":1551887127715,"fix_duration":1450.0820341197982,"trial":35,"RT":1368,"MT":262,"sideResp":2,"stimulus":[],"xmouse":[781,781,781,781,781,781,781,781,781,781,781,781,781,781,781,781,781,781,781,781,781,781,781,781,781,781,781,781,781,781,781,781,781,781,781,781,781,781,781,781,781,781,781,781,781,781,781,781,781,781,781,781,781,781,781,781,781,781,781,781,781,781,781,781,781,781,781,790,835,883,933,1020,1039,1053,1063,1070,1078,1079,1079,1079,1079,1080],"ymouse":[503,503,503,503,503,503,503,503,503,503,503,503,503,503,503,503,503,503,503,503,503,503,503,503,503,503,503,503,503,503,503,503,503,503,503,503,503,503,503,503,503,503,503,503,503,503,503,503,503,503,503,503,503,503,503,503,503,503,503,503,503,503,503,503,503,503,503,497,445,375,306,202,174,153,136,124,106,104,103,103,101,95],"timestamp_mouse":[9,45,49,68,88,108,128,148,168,188,208,228,249,268,290,308,328,348,368,388,409,429,448,468,488,508,529,550,568,588,609,628,648,668,688,708,729,748,768,789,808,828,849,869,889,908,929,949,968,989,1008,1029,1049,1069,1089,1109,1128,1148,1168,1189,1208,1228,1249,1269,1289,1308,1329,1348,1368,1388,1408,1429,1448,1468,1488,1508,1529,1549,1569,1588,1608,1629],"xSR":741.5,"ySR":449.15000000000003,"xT1":424.9,"yT1":0,"xT2":1058.1,"yT2":0,"toosoon":0,"cond_shown":"Incongruent","ratio_trial":100,"L_num":17,"L_den":30,"R_num":10,"R_den":15,"correct_side":2,"subjID":"Juan_Felipe_Ospina_Gonzalez_12","gender":"0","school":"6","age":"11"},{"start_time":1551887129694,"click_time":1551887131155,"finger_time":1551887130735,"fix_duration":977.2697253873635,"trial":36,"RT":1041,"MT":420,"sideResp":2,"stimulus":[],"xmouse":[801,801,801,801,801,801,801,801,801,801,801,801,801,801,801,801,801,801,801,801,801,801,801,801,801,801,801,801,801,801,801,801,801,801,801,801,801,801,801,800,796,794,790,790,790,790,790,790,790,792,801,815,839,856,871,884,895,911,931,965,980,995,1010,1017,1022,1031,1038,1045,1051,1056,1057,1057,1057,1062],"ymouse":[501,501,501,501,501,501,501,501,501,501,501,501,501,501,501,501,501,501,501,501,501,501,501,501,501,501,501,501,501,501,501,501,501,501,501,501,501,501,501,501,502,507,512,512,512,512,512,512,512,509,494,471,431,402,380,351,328,293,252,187,157,133,111,100,94,87,80,75,67,62,61,61,61,57],"timestamp_mouse":[9,31,41,61,81,101,121,141,161,182,201,221,242,261,282,302,321,341,362,381,401,422,442,462,481,503,521,541,562,582,601,621,642,662,682,701,721,742,761,781,802,821,841,862,881,901,921,941,962,982,1001,1021,1041,1062,1081,1101,1121,1142,1161,1183,1201,1221,1241,1261,1282,1301,1322,1341,1361,1382,1401,1421,1441,1461],"xSR":741.5,"ySR":449.15000000000003,"xT1":424.9,"yT1":0,"xT2":1058.1,"yT2":0,"toosoon":0,"cond_shown":"Incongruent","ratio_trial":300,"L_num":4,"L_den":20,"R_num":2,"R_den":4,"correct_side":2,"subjID":"Juan_Felipe_Ospina_Gonzalez_12","gender":"0","school":"6","age":"11"},{"start_time":1551887133112,"click_time":1551887134915,"finger_time":1551887134695,"fix_duration":1014.0983438761795,"trial":37,"RT":1583,"MT":220,"sideResp":2,"stimulus":[],"xmouse":[801,801,801,801,801,801,801,801,801,801,801,801,801,801,801,801,801,801,801,801,801,801,801,801,801,801,801,801,801,801,801,801,801,801,801,801,801,801,801,801,801,801,801,801,801,801,801,801,801,801,801,801,801,801,801,801,801,801,801,801,801,801,801,801,801,801,801,801,801,801,801,801,801,801,801,801,801,808,835,925,956,982,996,1037,1047,1058,1065,1070,1074,1079,1086],"ymouse":[486,486,486,486,486,486,486,486,486,486,486,486,486,486,486,486,486,486,486,486,486,486,486,486,486,486,486,486,486,486,486,486,486,486,486,486,486,486,486,486,486,486,486,486,486,486,486,486,486,486,486,486,486,486,486,486,486,486,486,486,486,486,486,486,486,486,486,486,486,486,486,486,486,486,486,486,486,482,469,418,374,315,283,205,181,162,147,134,120,100,88],"timestamp_mouse":[9,33,43,63,84,103,123,143,163,184,203,224,244,264,284,303,323,343,364,383,403,423,444,463,483,504,524,544,564,583,603,624,643,663,683,703,723,744,764,784,804,823,844,863,883,903,924,943,964,983,1003,1024,1044,1063,1084,1104,1123,1144,1164,1183,1204,1223,1244,1264,1284,1304,1323,1343,1363,1383,1403,1424,1443,1463,1483,1503,1523,1544,1563,1583,1603,1623,1643,1664,1683,1703,1724,1743,1763,1783,1803],"xSR":741.5,"ySR":449.15000000000003,"xT1":424.9,"yT1":0,"xT2":1058.1,"yT2":0,"toosoon":0,"cond_shown":"Incongruent","ratio_trial":200,"L_num":7,"L_den":15,"R_num":4,"R_den":6,"correct_side":2,"subjID":"Juan_Felipe_Ospina_Gonzalez_12","gender":"0","school":"6","age":"11"},{"start_time":1551887137789,"click_time":1551887138855,"finger_time":1551887138776,"fix_duration":250,"trial":38,"RT":987,"MT":79,"sideResp":2,"stimulus":[],"xmouse":[773,773,773,773,773,773,773,773,773,773,773,771,770,769,769,769,769,768,768,768,768,768,768,768,768,768,768,768,768,768,768,768,768,768,768,768,768,768,768,768,768,766,766,766,766,766,766,767,778,838,893,957,1025,1078],"ymouse":[486,486,486,486,486,486,486,486,487,487,487,487,486,486,486,486,486,486,486,486,486,486,486,486,486,486,486,486,486,486,486,486,486,486,486,486,486,486,486,486,486,487,488,488,488,488,488,488,480,404,318,211,106,32],"timestamp_mouse":[10,34,46,67,86,106,126,146,167,188,206,226,246,267,286,306,326,346,366,386,406,426,446,467,487,506,526,546,567,586,606,626,647,667,686,706,726,746,766,787,806,827,846,866,886,906,926,946,967,987,1006,1027,1047,1066],"xSR":741.5,"ySR":449.15000000000003,"xT1":424.9,"yT1":0,"xT2":1058.1,"yT2":0,"toosoon":0,"cond_shown":"Incongruent","ratio_trial":200,"L_num":6,"L_den":20,"R_num":3,"R_den":6,"correct_side":2,"subjID":"Juan_Felipe_Ospina_Gonzalez_12","gender":"0","school":"6","age":"11"},{"start_time":1551887141548,"click_time":1551887143097,"finger_time":1551887142975,"fix_duration":390.31463837037916,"trial":39,"RT":1427,"MT":122,"sideResp":2,"stimulus":[],"xmouse":[752,752,752,752,752,752,752,752,752,752,752,752,752,752,752,752,752,752,752,752,752,752,752,752,752,752,752,752,752,752,752,752,752,752,752,752,752,752,752,752,752,758,759,760,760,760,761,761,761,761,761,761,761,761,761,761,761,762,762,762,762,762,762,764,767,770,775,777,779,791,803,828,907,944,976,1010,1041,1076],"ymouse":[505,509,511,511,511,511,511,511,511,511,511,511,511,511,511,511,511,511,511,511,511,511,511,511,511,511,511,511,511,511,511,511,511,511,511,511,511,511,511,511,513,515,515,515,516,516,516,516,516,516,516,516,516,516,516,516,516,516,516,516,516,516,516,516,513,507,498,495,493,477,460,415,284,234,192,145,103,54],"timestamp_mouse":[9,34,48,67,87,107,127,147,167,187,208,227,248,267,287,307,328,347,367,388,408,427,447,468,487,508,527,547,567,588,607,627,647,667,687,708,727,748,768,787,807,828,847,868,888,908,927,947,967,987,1007,1028,1048,1067,1088,1107,1128,1147,1168,1187,1208,1228,1247,1268,1287,1307,1328,1347,1367,1388,1408,1427,1448,1467,1487,1508,1529,1548],"xSR":741.5,"ySR":449.15000000000003,"xT1":424.9,"yT1":0,"xT2":1058.1,"yT2":0,"toosoon":0,"cond_shown":"Incongruent","ratio_trial":300,"L_num":4,"L_den":20,"R_num":2,"R_den":4,"correct_side":2,"subjID":"Juan_Felipe_Ospina_Gonzalez_12","gender":"0","school":"6","age":"11"},{"start_time":1551887147325,"click_time":1551887148854,"finger_time":1551887147335,"fix_duration":1230.6710769905958,"trial":40,"RT":10,"MT":1519,"sideResp":2,"stimulus":[],"xmouse":[781,782,782,782,782,782,782,782,782,782,782,782,782,782,782,782,782,782,782,782,782,782,782,782,783,785,787,787,786,785,783,783,783,783,783,783,782,782,779,778,776,776,776,776,776,776,776,776,776,776,776,776,776,776,776,776,776,776,776,776,776,779,812,831,858,886,917,962,976,985,991,991,1018,1029,1039,1052,1061],"ymouse":[524,523,523,516,516,516,516,516,516,516,516,516,516,516,516,516,516,516,516,516,516,516,516,516,516,527,543,559,585,594,600,602,602,602,602,603,603,606,611,615,619,619,619,619,619,619,619,619,619,619,619,619,619,619,619,619,619,619,619,619,615,587,470,400,330,266,205,137,118,107,98,98,70,66,63,61,60],"timestamp_mouse":[10,34,50,68,90,109,130,150,170,189,210,229,250,269,290,309,329,350,370,388,410,430,450,469,489,509,529,550,569,589,609,628,648,669,689,709,729,749,769,790,809,829,849,869,890,909,929,949,970,988,1009,1029,1050,1069,1090,1109,1129,1149,1169,1189,1209,1229,1250,1269,1290,1310,1330,1351,1368,1390,1409,1430,1450,1468,1490,1509,1529],"xSR":741.5,"ySR":449.15000000000003,"xT1":424.9,"yT1":0,"xT2":1058.1,"yT2":0,"toosoon":0,"cond_shown":"Congruent","ratio_trial":200,"L_num":8,"L_den":15,"R_num":3,"R_den":9,"correct_side":1,"subjID":"Juan_Felipe_Ospina_Gonzalez_12","gender":"0","school":"6","age":"11"},{"start_time":1551887150979,"click_time":1551887152674,"finger_time":1551887152314,"fix_duration":1264.5729085985806,"trial":41,"RT":1335,"MT":360,"sideResp":1,"stimulus":[],"xmouse":[785,785,785,785,785,785,785,785,785,785,785,785,785,785,785,785,785,785,785,785,785,785,785,785,785,785,785,785,785,785,785,785,785,785,785,785,785,785,785,785,785,785,785,785,785,785,785,785,785,785,785,785,785,785,785,785,785,785,785,785,785,785,785,785,785,778,765,723,683,629,505,452,425,409,401,399,399,400,403,409,413,416,420,423,426],"ymouse":[608,608,608,608,608,608,608,608,608,608,608,608,608,608,608,608,608,608,608,608,608,608,608,608,608,608,608,608,608,608,608,608,608,608,608,608,608,608,608,608,608,608,608,608,608,608,608,608,608,608,608,608,608,608,608,608,608,608,608,608,608,608,608,608,606,591,565,485,421,352,245,213,196,187,182,180,179,175,163,134,118,108,99,93,89],"timestamp_mouse":[15,35,56,75,95,116,135,155,176,195,215,236,255,275,296,315,335,355,375,