[{"start_time":1551887517275,"click_time":1551887518744,"finger_time":1551887518384,"fix_duration":1004.2787715011929,"trial":0,"RT":1109,"MT":360,"sideResp":2,"stimulus":"img/500/equaldotsize/R/3_Ratio_500_L_10_R_20.png","xmouse":[782,782,782,782,782,782,782,782,782,782,782,782,782,782,782,782,782,782,782,782,782,782,782,782,782,782,782,782,782,782,782,782,782,782,782,782,782,782,782,782,782,782,782,782,782,782,782,782,782,782,782,782,782,790,812,864,936,1093,1162,1215,1249,1261,1263,1263,1263,1262,1258,1231,1213,1198,1187,1180,1174,1152],"ymouse":[491,491,491,491,491,491,491,491,491,491,491,491,491,491,491,491,491,491,491,491,491,491,491,491,491,491,491,491,491,491,491,491,491,491,491,491,491,491,491,491,491,491,491,491,491,491,491,491,491,491,491,491,491,483,468,431,374,211,130,66,26,10,10,10,10,12,15,32,37,40,41,42,45,58],"timestamp_mouse":[9,31,49,68,88,109,130,149,170,188,209,228,248,268,288,309,328,348,368,388,409,430,449,468,488,508,529,548,568,589,608,628,649,668,689,708,728,748,768,789,808,829,848,869,889,909,928,949,970,989,1010,1029,1048,1068,1088,1109,1128,1149,1168,1188,1208,1229,1250,1268,1289,1308,1329,1349,1368,1388,1408,1430,1449,1469],"xSR":737,"ySR":442.65000000000003,"xT1":422.2,"yT1":0,"xT2":1051.8,"yT2":0,"toosoon":0,"cond_shown":"equaldotsize","ratio_trial":500,"smaller_num":"10","larger_num":"20","correct_side":2,"subjID":"Juan_Felipe_Ospina_Gonzalez_12","gender":"0","age":"11","school":"6","test":{"fix_dur":[250,1500],"timestim":300,"targets_dim":[100,100],"targets_relative_coord":[0.3,0.7],"size_stim":[880,420],"start_dim":[100,100],"size_start":[300,300],"size_fix":60,"samplingrate":20,"img_types":["equaldotsize","equaldotanddens","randomdotsizeEA"],"ratios":[250,500,750,900],"rep_conds":9,"nTrials":120,"trials_to_rest":500,"Trials_order":[27,63,66,103,45,46,64,76,53,115,105,7,113,34,93,59,39,48,88,84,85,71,26,57,25,87,89,60,96,74,106,55,65,28,114,61,58,1,9,91,110,14,102,19,10,8,95,94,20,3,99,40,108,69,116,73,16,90,50,104,77,101,2,18,6,52,111,30,0,32,80,4,42,21,5,15,97,119,23,70,49,12,117,17,98,47,44,11,100,24,56,37,31,92,62,68,43,75,83,38,51,22,82,109,29,67,112,54,78,41,13,86,118,79,36,33,81,72,35,107],"cond_shown":["equaldotsize","equaldotsize","equaldotsize","equaldotanddens","equaldotsize","equaldotanddens","equaldotanddens","equaldotanddens","randomdotsizeEA","equaldotanddens","equaldotsize","equaldotanddens","randomdotsizeEA","equaldotanddens","equaldotsize","randomdotsizeEA","equaldotsize","equaldotsize","equaldotanddens","equaldotsize","equaldotanddens","randomdotsizeEA","randomdotsizeEA","equaldotsize","equaldotanddens","equaldotsize","randomdotsizeEA","equaldotsize","equaldotsize","randomdotsizeEA","equaldotanddens","equaldotanddens","randomdotsizeEA","equaldotanddens","equaldotsize","equaldotanddens","equaldotanddens","equaldotanddens","equaldotsize","equaldotanddens","randomdotsizeEA","randomdotsizeEA","equaldotsize","equaldotanddens","equaldotanddens","randomdotsizeEA","randomdotsizeEA","equaldotanddens","randomdotsizeEA","equaldotsize","equaldotsize","equaldotanddens","equaldotsize","equaldotsize","randomdotsizeEA","equaldotanddens","equaldotanddens","equaldotsize","randomdotsizeEA","randomdotsizeEA","randomdotsizeEA","randomdotsizeEA","randomdotsizeEA","equaldotsize","equaldotsize","equaldotanddens","equaldotsize","equaldotsize","equaldotsize","randomdotsizeEA","randomdotsizeEA","equaldotanddens","equaldotsize","equaldotsize","randomdotsizeEA","equaldotsize","equaldotanddens","randomdotsizeEA","randomdotsizeEA","equaldotanddens","equaldotanddens","equaldotsize","equaldotsize","randomdotsizeEA","randomdotsizeEA","randomdotsizeEA","randomdotsizeEA","randomdotsizeEA","equaldotanddens","equaldotsize","randomdotsizeEA","equaldotanddens","equaldotanddens","randomdotsizeEA","randomdotsizeEA","randomdotsizeEA","equaldotanddens","equaldotsize","randomdotsizeEA","randomdotsizeEA","equaldotsize","equaldotanddens","equaldotanddens","equaldotanddens","randomdotsizeEA","equaldotanddens","equaldotanddens","equaldotsize","equaldotsize","randomdotsizeEA","equaldotanddens","randomdotsizeEA","equaldotanddens","equaldotanddens","equaldotsize","equaldotsize","equaldotsize","equaldotsize","randomdotsizeEA","randomdotsizeEA"],"ratio_trial":[500,500,750,750,900,900,500,500,500,750,900,750,500,900,900,900,500,250,500,250,250,900,250,900,250,500,500,250,250,250,900,750,500,500,750,250,900,250,900,750,250,250,750,750,900,750,900,900,750,500,500,500,250,900,750,250,500,750,250,750,500,500,250,750,750,500,500,750,250,750,750,500,750,900,500,500,250,900,900,900,250,250,900,500,250,900,750,900,500,250,750,250,750,750,250,750,750,500,900,250,500,900,900,250,500,750,500,750,750,500,250,250,900,750,250,900,900,250,900,900],"smaller_num":["10","2","15","3","18","18","4","2","6","15","9","6","2","9","9","9","2","2","3","2","3","18","3","9","1","9","4","4","3","4","18","15","6","9","18","2","18","4","9","15","4","3","9","3","18","15","9","18","15","1","10","2","1","18","3","2","9","12","2","6","9","5","2","3","12","3","6","3","5","3","12","3","18","9","1","10","3","18","9","9","2","6","18","1","6","18","3","18","1","4","3","3","3","15","5","15","15","4","9","2","6","18","18","2","9","3","5","6","3","5","4","3","18","9","5","18","18","2","18","18"],"larger_num":["20","4","20","4","20","20","8","4","12","20","10","8","4","10","10","10","4","8","6","8","12","20","12","10","4","18","8","16","12","16","20","20","12","18","24","8","20","16","10","20","16","12","12","4","20","20","10","20","20","2","20","4","4","20","4","8","18","16","8","8","18","10","8","4","16","6","12","4","20","4","16","6","24","10","2","20","12","20","10","10","8","24","20","2","24","20","4","20","2","16","4","12","4","20","20","20","20","8","10","8","12","20","20","8","18","4","10","8","4","10","16","12","20","12","20","20","20","8","20","20"],"correct_side":[2,1,2,1,2,1,1,2,1,2,2,2,1,2,2,1,2,1,2,1,2,1,1,1,2,2,1,1,1,2,1,2,1,1,1,2,2,2,2,2,2,1,2,2,1,1,2,1,1,2,2,1,2,1,2,1,1,2,1,1,2,1,1,1,2,2,1,1,2,2,2,2,1,2,2,2,1,1,1,2,1,1,1,2,1,1,2,1,2,2,2,1,2,2,2,2,2,1,2,1,1,1,2,1,2,1,2,1,2,2,2,1,2,2,2,1,1,1,1,1],"img_shown":["img/500/equaldotsize/R/3_Ratio_500_L_10_R_20.png","img/500/equaldotsize/L/10_Ratio_500_L_4_R_2.png","img/750/equaldotsize/R/3_Ratio_750_L_15_R_20.png","img/750/equaldotanddens/L/9_Ratio_750_L_4_R_3.png","img/900/equaldotsize/R/12_Ratio_900_L_18_R_20.png","img/900/equaldotanddens/L/4_Ratio_900_L_20_R_18.png","img/500/equaldotanddens/L/8_Ratio_500_L_8_R_4.png","img/500/equaldotanddens/R/9_Ratio_500_L_2_R_4.png","img/500/randomdotsizeEA/L/13_Ratio_500_L_12_R_6.png","img/750/equaldotanddens/R/3_Ratio_750_L_15_R_20.png","img/900/equaldotsize/R/15_Ratio_900_L_9_R_10.png","img/750/equaldotanddens/R/2_Ratio_750_L_6_R_8.png","img/500/randomdotsizeEA/L/5_Ratio_500_L_4_R_2.png","img/900/equaldotanddens/R/15_Ratio_900_L_9_R_10.png","img/900/equaldotsize/R/15_Ratio_900_L_9_R_10.png","img/900/randomdotsizeEA/L/1_Ratio_900_L_10_R_9.png","img/500/equaldotsize/R/9_Ratio_500_L_2_R_4.png","img/250/equaldotsize/L/7_Ratio_250_L_8_R_2.png","img/500/equaldotanddens/R/2_Ratio_500_L_3_R_6.png","img/250/equaldotsize/L/7_Ratio_250_L_8_R_2.png","img/250/equaldotanddens/R/11_Ratio_250_L_3_R_12.png","img/900/randomdotsizeEA/L/4_Ratio_900_L_20_R_18.png","img/250/randomdotsizeEA/L/14_Ratio_250_L_12_R_3.png","img/900/equaldotsize/L/1_Ratio_900_L_10_R_9.png","img/250/equaldotanddens/R/8_Ratio_250_L_1_R_4.png","img/500/equaldotsize/R/1_Ratio_500_L_9_R_18.png","img/500/randomdotsizeEA/L/8_Ratio_500_L_8_R_4.png","img/250/equaldotsize/L/2_Ratio_250_L_16_R_4.png","img/250/equaldotsize/L/14_Ratio_250_L_12_R_3.png","img/250/randomdotsizeEA/R/10_Ratio_250_L_4_R_16.png","img/900/equaldotanddens/L/2_Ratio_900_L_20_R_18.png","img/750/equaldotanddens/R/4_Ratio_750_L_15_R_20.png","img/500/randomdotsizeEA/L/11_Ratio_500_L_12_R_6.png","img/500/equaldotanddens/L/4_Ratio_500_L_18_R_9.png","img/750/equaldotsize/L/6_Ratio_750_L_24_R_18.png","img/250/equaldotanddens/R/13_Ratio_250_L_2_R_8.png","img/900/equaldotanddens/R/11_Ratio_900_L_18_R_20.png","img/250/equaldotanddens/R/10_Ratio_250_L_4_R_16.png","img/900/equaldotsize/R/7_Ratio_900_L_9_R_10.png","img/750/equaldotanddens/R/3_Ratio_750_L_15_R_20.png","img/250/randomdotsizeEA/R/10_Ratio_250_L_4_R_16.png","img/250/randomdotsizeEA/L/14_Ratio_250_L_12_R_3.png","img/750/equaldotsize/R/15_Ratio_750_L_9_R_12.png","img/750/equaldotanddens/R/12_Ratio_750_L_3_R_4.png","img/900/equaldotanddens/L/10_Ratio_900_L_20_R_18.png","img/750/randomdotsizeEA/L/1_Ratio_750_L_20_R_15.png","img/900/randomdotsizeEA/R/6_Ratio_900_L_9_R_10.png","img/900/equaldotanddens/L/10_Ratio_900_L_20_R_18.png","img/750/randomdotsizeEA/L/1_Ratio_750_L_20_R_15.png","img/500/equaldotsize/R/15_Ratio_500_L_1_R_2.png","img/500/equaldotsize/R/3_Ratio_500_L_10_R_20.png","img/500/equaldotanddens/L/5_Ratio_500_L_4_R_2.png","img/250/equaldotsize/R/8_Ratio_250_L_1_R_4.png","img/900/equaldotsize/L/8_Ratio_900_L_20_R_18.png","img/750/randomdotsizeEA/R/12_Ratio_750_L_3_R_4.png","img/250/equaldotanddens/L/3_Ratio_250_L_8_R_2.png","img/500/equaldotanddens/L/4_Ratio_500_L_18_R_9.png","img/750/equaldotsize/R/11_Ratio_750_L_12_R_16.png","img/250/randomdotsizeEA/L/1_Ratio_250_L_8_R_2.png","img/750/randomdotsizeEA/L/13_Ratio_750_L_8_R_6.png","img/500/randomdotsizeEA/R/1_Ratio_500_L_9_R_18.png","img/500/randomdotsizeEA/L/7_Ratio_500_L_10_R_5.png","img/250/randomdotsizeEA/L/7_Ratio_250_L_8_R_2.png","img/750/equaldotsize/L/9_Ratio_750_L_4_R_3.png","img/750/equaldotsize/R/11_Ratio_750_L_12_R_16.png","img/500/equaldotanddens/R/2_Ratio_500_L_3_R_6.png","img/500/equaldotsize/L/13_Ratio_500_L_12_R_6.png","img/750/equaldotsize/L/8_Ratio_750_L_4_R_3.png","img/250/equaldotsize/R/12_Ratio_250_L_5_R_20.png","img/750/randomdotsizeEA/R/12_Ratio_750_L_3_R_4.png","img/750/randomdotsizeEA/R/11_Ratio_750_L_12_R_16.png","img/500/equaldotanddens/R/2_Ratio_500_L_3_R_6.png","img/750/equaldotsize/L/6_Ratio_750_L_24_R_18.png","img/900/equaldotsize/R/6_Ratio_900_L_9_R_10.png","img/500/randomdotsizeEA/R/12_Ratio_500_L_1_R_2.png","img/500/equaldotsize/R/3_Ratio_500_L_10_R_20.png","img/250/equaldotanddens/L/15_Ratio_250_L_12_R_3.png","img/900/randomdotsizeEA/L/8_Ratio_900_L_20_R_18.png","img/900/randomdotsizeEA/L/1_Ratio_900_L_10_R_9.png","img/900/equaldotanddens/R/6_Ratio_900_L_9_R_10.png","img/250/equaldotanddens/L/3_Ratio_250_L_8_R_2.png","img/250/equaldotsize/L/5_Ratio_250_L_24_R_6.png","img/900/equaldotsize/L/4_Ratio_900_L_20_R_18.png","img/500/randomdotsizeEA/R/12_Ratio_500_L_1_R_2.png","img/250/randomdotsizeEA/L/5_Ratio_250_L_24_R_6.png","img/900/randomdotsizeEA/L/4_Ratio_900_L_20_R_18.png","img/750/randomdotsizeEA/R/12_Ratio_750_L_3_R_4.png","img/900/randomdotsizeEA/L/8_Ratio_900_L_20_R_18.png","img/500/equaldotanddens/R/15_Ratio_500_L_1_R_2.png","img/250/equaldotsize/R/10_Ratio_250_L_4_R_16.png","img/750/randomdotsizeEA/R/12_Ratio_750_L_3_R_4.png","img/250/equaldotanddens/L/15_Ratio_250_L_12_R_3.png","img/750/equaldotanddens/R/12_Ratio_750_L_3_R_4.png","img/750/randomdotsizeEA/R/4_Ratio_750_L_15_R_20.png","img/250/randomdotsizeEA/R/12_Ratio_250_L_5_R_20.png","img/750/randomdotsizeEA/R/4_Ratio_750_L_15_R_20.png","img/750/equaldotanddens/R/4_Ratio_750_L_15_R_20.png","img/500/equaldotsize/L/8_Ratio_500_L_8_R_4.png","img/900/randomdotsizeEA/R/5_Ratio_900_L_9_R_10.png","img/250/randomdotsizeEA/L/1_Ratio_250_L_8_R_2.png","img/500/equaldotsize/L/11_Ratio_500_L_12_R_6.png","img/900/equaldotanddens/L/8_Ratio_900_L_20_R_18.png","img/900/equaldotanddens/R/12_Ratio_900_L_18_R_20.png","img/250/equaldotanddens/L/1_Ratio_250_L_8_R_2.png","img/500/randomdotsizeEA/R/1_Ratio_500_L_9_R_18.png","img/750/equaldotanddens/L/8_Ratio_750_L_4_R_3.png","img/500/equaldotanddens/R/14_Ratio_500_L_5_R_10.png","img/750/equaldotsize/L/13_Ratio_750_L_8_R_6.png","img/750/equaldotsize/R/12_Ratio_750_L_3_R_4.png","img/500/randomdotsizeEA/R/14_Ratio_500_L_5_R_10.png","img/250/equaldotanddens/R/10_Ratio_250_L_4_R_16.png","img/250/randomdotsizeEA/L/14_Ratio_250_L_12_R_3.png","img/900/equaldotanddens/R/14_Ratio_900_L_18_R_20.png","img/750/equaldotanddens/R/15_Ratio_750_L_9_R_12.png","img/250/equaldotsize/R/12_Ratio_250_L_5_R_20.png","img/900/equaldotsize/L/10_Ratio_900_L_20_R_18.png","img/900/equaldotsize/L/10_Ratio_900_L_20_R_18.png","img/250/equaldotsize/L/1_Ratio_250_L_8_R_2.png","img/900/randomdotsizeEA/L/8_Ratio_900_L_20_R_18.png","img/900/randomdotsizeEA/L/10_Ratio_900_L_20_R_18.png"],"Rat0":[["12_Ratio_0_L_9_R_0.png","13_Ratio_0_L_6_R_0.png","5_Ratio_0_L_2_R_0.png","6_Ratio_0_L_4_R_0.png","8_Ratio_0_L_6_R_0.png"],["1_Ratio_0_L_0_R_17.png","10_Ratio_0_L_0_R_22.png","11_Ratio_0_L_0_R_1.png","14_Ratio_0_L_0_R_24.png","15_Ratio_0_L_0_R_4.png","2_Ratio_0_L_0_R_5.png","3_Ratio_0_L_0_R_17.png","4_Ratio_0_L_0_R_7.png","7_Ratio_0_L_0_R_19.png","9_Ratio_0_L_0_R_15.png"]],"Rat250":[["1_Ratio_250_L_8_R_2.png","14_Ratio_250_L_12_R_3.png","15_Ratio_250_L_12_R_3.png","2_Ratio_250_L_16_R_4.png","3_Ratio_250_L_8_R_2.png","5_Ratio_250_L_24_R_6.png","7_Ratio_250_L_8_R_2.png"],["10_Ratio_250_L_4_R_16.png","11_Ratio_250_L_3_R_12.png","12_Ratio_250_L_5_R_20.png","13_Ratio_250_L_2_R_8.png","4_Ratio_250_L_3_R_12.png","6_Ratio_250_L_6_R_24.png","8_Ratio_250_L_1_R_4.png","9_Ratio_250_L_3_R_12.png"]],"Rat500":[["10_Ratio_500_L_4_R_2.png","11_Ratio_500_L_12_R_6.png","13_Ratio_500_L_12_R_6.png","4_Ratio_500_L_18_R_9.png","5_Ratio_500_L_4_R_2.png","7_Ratio_500_L_10_R_5.png","8_Ratio_500_L_8_R_4.png"],["1_Ratio_500_L_9_R_18.png","12_Ratio_500_L_1_R_2.png","14_Ratio_500_L_5_R_10.png","15_Ratio_500_L_1_R_2.png","2_Ratio_500_L_3_R_6.png","3_Ratio_500_L_10_R_20.png","6_Ratio_500_L_9_R_18.png","9_Ratio_500_L_2_R_4.png"]],"Rat750":[["1_Ratio_750_L_20_R_15.png","10_Ratio_750_L_4_R_3.png","13_Ratio_750_L_8_R_6.png","14_Ratio_750_L_8_R_6.png","6_Ratio_750_L_24_R_18.png","8_Ratio_750_L_4_R_3.png","9_Ratio_750_L_4_R_3.png"],["11_Ratio_750_L_12_R_16.png","12_Ratio_750_L_3_R_4.png","15_Ratio_750_L_9_R_12.png","2_Ratio_750_L_6_R_8.png","3_Ratio_750_L_15_R_20.png","4_Ratio_750_L_15_R_20.png","5_Ratio_750_L_15_R_20.png","7_Ratio_750_L_3_R_4.png"]],"Rat900":[["1_Ratio_900_L_10_R_9.png","10_Ratio_900_L_20_R_18.png","2_Ratio_900_L_20_R_18.png","4_Ratio_900_L_20_R_18.png","8_Ratio_900_L_20_R_18.png"],["11_Ratio_900_L_18_R_20.png","12_Ratio_900_L_18_R_20.png","13_Ratio_900_L_18_R_20.png","14_Ratio_900_L_18_R_20.png","15_Ratio_900_L_9_R_10.png","3_Ratio_900_L_9_R_10.png","5_Ratio_900_L_9_R_10.png","6_Ratio_900_L_9_R_10.png","7_Ratio_900_L_9_R_10.png","9_Ratio_900_L_18_R_20.png"]],"Rat1000":[["10_Ratio_1000_L_16_R_16.png","11_Ratio_1000_L_6_R_6.png","12_Ratio_1000_L_14_R_14.png","13_Ratio_1000_L_20_R_20.png","15_Ratio_1000_L_15_R_15.png","2_Ratio_1000_L_17_R_17.png","4_Ratio_1000_L_9_R_9.png","5_Ratio_1000_L_6_R_6.png","6_Ratio_1000_L_19_R_19.png","8_Ratio_1000_L_14_R_14.png","9_Ratio_1000_L_25_R_25.png"],["1_Ratio_1000_L_1_R_1.png","14_Ratio_1000_L_17_R_17.png","3_Ratio_1000_L_17_R_17.png","7_Ratio_1000_L_6_R_6.png"]]}},{"start_time":1551887520846,"click_time":1551887521903,"finger_time":1551887521823,"fix_duration":1300.107514614238,"trial":1,"RT":977,"MT":80,"sideResp":1,"stimulus":"img/500/equaldotsize/L/10_Ratio_500_L_4_R_2.png","xmouse":[797,797,797,797,797,797,797,797,797,797,797,797,797,797,797,797,797,797,797,797,797,797,797,797,797,797,797,797,797,797,797,797,797,797,797,797,797,797,797,797,797,797,797,797,797,795,788,772,725,557,498,450,432],"ymouse":[518,518,518,518,518,518,518,518,518,518,518,518,518,518,518,518,518,518,518,518,518,518,518,518,518,518,518,518,518,518,518,518,518,518,518,518,518,518,518,518,518,518,518,518,518,517,505,476,399,200,146,106,95],"timestamp_mouse":[30,38,57,77,97,118,137,158,178,197,217,237,257,277,298,318,337,357,378,397,417,437,458,477,497,517,537,558,577,597,618,637,657,677,698,717,739,758,777,797,817,838,857,877,899,917,938,957,977,997,1018,1039,1057],"xSR":741.5,"ySR":449.15000000000003,"xT1":424.9,"yT1":0,"xT2":1058.1,"yT2":0,"toosoon":0,"cond_shown":"equaldotsize","ratio_trial":500,"smaller_num":"2","larger_num":"4","correct_side":1,"subjID":"Juan_Felipe_Ospina_Gonzalez_12","gender":"0","age":"11","school":"6"},{"start_time":1551887523919,"click_time":1551887525605,"finger_time":1551887525523,"fix_duration":1374.5814460252932,"trial":2,"RT":1604,"MT":82,"sideResp":2,"stimulus":"img/750/equaldotsize/R/3_Ratio_750_L_15_R_20.png","xmouse":[783,783,783,783,783,783,783,783,783,783,783,783,783,783,783,783,783,783,783,783,783,783,783,783,783,783,783,783,783,783,783,783,783,783,783,783,782,782,781,780,780,780,780,780,780,780,780,779,776,774,773,773,773,773,773,774,780,780,781,781,781,781,781,781,780,780,780,781,783,785,787,788,788,788,788,788,788,788,791,802,832,932,994,1036,1096],"ymouse":[493,493,493,493,493,493,493,493,493,493,493,493,493,493,493,493,493,493,493,493,493,493,493,493,493,493,493,493,493,493,493,493,493,493,493,493,493,493,493,493,493,493,493,493,493,493,493,483,467,456,453,453,453,453,453,454,459,460,461,462,463,467,469,473,476,478,480,483,486,488,491,492,492,492,492,492,492,492,490,475,434,299,222,164,85],"timestamp_mouse":[10,32,44,64,85,105,125,144,165,184,205,226,244,265,285,305,324,345,365,384,405,424,444,464,484,505,524,544,565,584,604,624,645,664,684,705,724,745,765,786,804,824,845,866,884,904,924,945,964,985,1004,1025,1045,1065,1084,1104,1124,1145,1164,1184,1204,1226,1244,1265,1284,1304,1324,1345,1365,1384,1404,1425,1444,1465,1484,1505,1524,1544,1564,1584,1604,1624,1644,1665,1685],"xSR":741.5,"ySR":449.15000000000003,"xT1":424.9,"yT1":0,"xT2":1058.1,"yT2":0,"toosoon":0,"cond_shown":"equaldotsize","ratio_trial":750,"smaller_num":"15","larger_num":"20","correct_side":2,"subjID":"Juan_Felipe_Ospina_Gonzalez_12","gender":"0","age":"11","school":"6"},{"start_time":1551887527137,"click_time":1551887528325,"finger_time":1551887528145,"fix_duration":692.0418003897277,"trial":3,"RT":1008,"MT":180,"sideResp":1,"stimulus":"img/750/equaldotanddens/L/9_Ratio_750_L_4_R_3.png","xmouse":[780,780,780,780,780,780,780,780,780,780,780,780,780,780,780,780,780,780,780,780,780,780,780,780,780,780,780,780,780,780,780,780,780,780,780,780,780,780,780,780,780,780,780,780,780,780,780,780,780,779,747,701,637,598,549,531,524,523,523,519],"ymouse":[504,504,504,504,504,504,504,504,504,504,504,504,504,504,504,504,504,504,504,504,504,504,504,504,504,504,504,504,504,504,504,504,504,504,504,504,504,504,504,504,504,504,504,504,504,504,504,504,504,502,446,378,298,252,187,160,142,129,119,83],"timestamp_mouse":[10,32,47,67,86,107,128,146,166,186,207,226,246,266,286,306,326,346,367,386,406,426,446,468,488,506,526,548,567,586,606,626,647,667,688,707,727,746,766,786,807,827,846,868,887,906,926,947,966,987,1008,1027,1046,1067,1088,1106,1126,1146,1168,1188],"xSR":741.5,"ySR":449.15000000000003,"xT1":424.9,"yT1":0,"xT2":1058.1,"yT2":0,"toosoon":0,"cond_shown":"equaldotanddens","ratio_trial":750,"smaller_num":"3","larger_num":"4","correct_side":1,"subjID":"Juan_Felipe_Ospina_Gonzalez_12","gender":"0","age":"11","school":"6"},{"start_time":1551887531949,"click_time":1551887533143,"finger_time":1551887533083,"fix_duration":584.1425982006655,"trial":4,"RT":1134,"MT":60,"sideResp":1,"stimulus":"img/900/equaldotsize/R/12_Ratio_900_L_18_R_20.png","xmouse":[777,777,777,777,777,777,777,777,777,777,777,777,777,777,777,777,777,777,777,777,777,777,777,777,777,777,777,777,777,777,777,777,777,777,777,777,777,777,777,777,777,777,777,777,777,777,777,777,777,777,777,777,777,777,776,748,719,630,567,473],"ymouse":[501,501,501,501,501,501,501,501,501,501,501,501,501,501,501,501,501,501,501,501,501,501,501,501,501,501,501,501,501,501,501,501,501,501,501,501,501,501,501,501,501,501,501,501,501,501,501,501,501,501,501,501,501,501,495,461,426,294,197,34],"timestamp_mouse":[14,39,55,76,94,115,134,154,175,195,215,234,256,275,294,315,335,354,374,394,415,435,456,475,495,514,535,556,574,594,614,634,655,674,694,714,735,754,774,795,815,835,855,874,895,914,934,954,974,994,1014,1035,1054,1075,1094,1115,1134,1154,1174,1194],"xSR":741.5,"ySR":449.15000000000003,"xT1":424.9,"yT1":0,"xT2":1058.1,"yT2":0,"toosoon":0,"cond_shown":"equaldotsize","ratio_trial":900,"smaller_num":"18","larger_num":"20","correct_side":2,"subjID":"Juan_Felipe_Ospina_Gonzalez_12","gender":"0","age":"11","school":"6"},{"start_time":1551887534562,"click_time":1551887535843,"finger_time":1551887535544,"fix_duration":518.3955431840689,"trial":5,"RT":982,"MT":299,"sideResp":1,"stimulus":"img/900/equaldotanddens/L/4_Ratio_900_L_20_R_18.png","xmouse":[777,777,777,777,778,778,778,778,778,778,778,778,778,778,778,778,778,778,778,778,778,778,778,778,778,778,778,778,778,778,778,778,778,778,778,778,778,778,778,778,778,778,778,778,778,778,778,778,775,752,717,661,602,602,602,602,602,602,602,602,602,602,602,534,514],"ymouse":[513,513,513,513,512,512,512,512,512,512,512,512,512,512,512,512,512,512,512,512,512,512,512,512,512,512,512,512,512,512,512,512,512,512,512,512,512,512,512,512,512,512,512,512,512,512,509,503,490,411,292,139,22,22,22,22,22,22,22,22,22,22,22,0,54],"timestamp_mouse":[8,27,42,61,81,101,121,141,162,182,201,221,241,262,281,302,322,341,362,382,401,421,442,463,481,501,521,541,562,581,601,621,642,662,681,701,722,741,762,782,801,822,841,861,883,901,921,942,961,982,1002,1021,1042,1061,1082,1102,1122,1141,1161,1182,1202,1221,1241,1261,1281],"xSR":741.5,"ySR":449.15000000000003,"xT1":424.9,"yT1":0,"xT2":1058.1,"yT2":0,"toosoon":0,"cond_shown":"equaldotanddens","ratio_trial":900,"smaller_num":"18","larger_num":"20","correct_side":1,"subjID":"Juan_Felipe_Ospina_Gonzalez_12","gender":"0","age":"11","school":"6"},{"start_time":1551887538032,"click_time":1551887538944,"finger_time":1551887538902,"fix_duration":1308.146755585629,"trial":6,"RT":870,"MT":42,"sideResp":1,"stimulus":"img/500/equaldotanddens/L/8_Ratio_500_L_8_R_4.png","xmouse":[800,800,800,800,800,800,800,800,800,800,800,800,800,800,800,800,800,800,800,800,800,800,800,800,800,800,800,800,800,800,800,800,800,800,800,800,800,800,800,800,800,797,789,756,626,488],"ymouse":[500,500,500,500,500,500,500,500,500,500,500,500,500,500,500,500,500,500,500,500,500,500,500,500,500,500,500,500,500,500,500,500,500,500,500,500,500,500,500,500,500,485,466,403,206,40],"timestamp_mouse":[10,34,51,70,90,110,130,150,171,191,210,231,250,270,290,310,331,350,370,390,410,431,451,470,490,511,530,550,570,590,610,630,650,671,690,711,730,750,770,790,810,830,850,870,891,912],"xSR":741.5,"ySR":449.15000000000003,"xT1":424.9,"yT1":0,"xT2":1058.1,"yT2":0,"toosoon":0,"cond_shown":"equaldotanddens","ratio_trial":500,"smaller_num":"4","larger_num":"8","correct_side":1,"subjID":"Juan_Felipe_Ospina_Gonzalez_12","gender":"0","age":"11","school":"6"},{"start_time":1551887540741,"click_time":1551887541602,"finger_time":1551887541442,"fix_duration":857.1919948693421,"trial":7,"RT":701,"MT":160,"sideResp":2,"stimulus":"img/500/equaldotanddens/R/9_Ratio_500_L_2_R_4.png","xmouse":[806,806,806,806,806,806,806,806,806,806,806,806,806,806,806,806,806,806,806,806,806,806,806,806,806,806,806,806,806,806,806,807,808,812,818,842,864,897,940,992,1069,1086,1093,1095],"ymouse":[494,494,494,494,494,494,494,494,494,494,494,494,494,494,494,494,494,494,494,494,494,494,494,494,494,494,494,494,494,494,493,490,488,483,476,450,420,369,299,231,128,110,101,99],"timestamp_mouse":[8,30,42,63,81,101,121,142,161,181,202,222,241,262,281,302,322,343,361,382,402,423,442,462,482,502,521,543,561,582,602,622,641,661,681,701,721,743,763,782,801,821,843,861],"xSR":741.5,"ySR":449.15000000000003,"xT1":424.9,"yT1":0,"xT2":1058.1,"yT2":0,"toosoon":0,"cond_shown":"equaldotanddens","ratio_trial":500,"smaller_num":"2","larger_num":"4","correct_side":2,"subjID":"Juan_Felipe_Ospina_Gonzalez_12","gender":"0","age":"11","school":"6"},{"start_time":1551887542514,"click_time":1551887544123,"finger_time":1551887543802,"fix_duration":250,"trial":8,"RT":1288,"MT":321,"sideResp":1,"stimulus":"img/500/randomdotsizeEA/L/13_Ratio_500_L_12_R_6.png","xmouse":[823,823,823,823,823,823,823,823,823,823,823,823,823,823,823,823,823,823,823,823,823,823,823,823,823,823,823,823,823,823,823,823,823,823,823,823,823,823,823,823,823,821,817,809,800,793,786,786,786,786,786,783,782,782,782,782,782,782,782,782,782,779,775,770,764,740,726,708,688,670,629,608,599,595,593,591,583,575,562,543,504],"ymouse":[511,511,511,511,511,511,511,511,511,511,511,511,511,511,511,511,511,511,511,511,511,511,511,511,511,511,511,511,511,511,511,511,511,511,511,511,511,511,511,511,510,509,506,500,490,481,472,472,472,472,474,484,486,486,486,486,486,486,486,486,486,478,468,453,430,367,337,307,275,248,190,166,155,150,148,147,142,136,125,109,72],"timestamp_mouse":[8,36,49,69,89,109,128,149,169,190,208,228,248,269,288,309,328,348,369,388,408,428,448,469,488,509,528,549,568,589,609,628,649,668,689,709,728,748,768,788,809,829,848,868,888,908,928,948,969,988,1008,1028,1048,1069,1088,1108,1129,1148,1169,1188,1209,1228,1248,1269,1288,1309,1328,1349,1369,1389,1409,1428,1448,1468,1488,1508,1528,1548,1569,1588,1609],"xSR":741.5,"ySR":449.15000000000003,"xT1":424.9,"yT1":0,"xT2":1058.1,"yT2":0,"toosoon":0,"cond_shown":"randomdotsizeEA","ratio_trial":500,"smaller_num":"6","larger_num":"12","correct_side":1,"subjID":"Juan_Felipe_Ospina_Gonzalez_12","gender":"0","age":"11","school":"6"},{"start_time":1551887545959,"click_time":1551887547343,"finger_time":1551887546984,"fix_duration":1195.4107149255037,"trial":9,"RT":1025,"MT":359,"sideResp":2,"stimulus":"img/750/equaldotanddens/R/3_Ratio_750_L_15_R_20.png","xmouse":[797,797,797,797,797,797,797,797,797,797,797,797,797,797,797,797,797,797,797,797,797,797,797,797,797,797,797,797,797,797,797,797,797,797,797,797,797,797,797,797,797,797,797,800,802,807,812,816,818,820,824,834,850,906,941,977,1002,1049,1121,1128,1129,1129,1130,1130,1130,1130,1130,1130,1128,1122],"ymouse":[487,487,487,487,487,487,487,487,487,487,487,487,487,487,487,487,487,487,487,487,487,487,487,487,487,487,487,487,487,487,487,487,487,487,487,487,487,487,487,487,487,487,487,485,481,475,471,467,466,462,451,429,401,328,277,236,212,178,142,138,138,137,136,134,129,128,127,121,114,94],"timestamp_mouse":[10,27,44,64,83,105,123,143,164,183,203,224,244,264,284,303,324,343,364,384,403,424,443,464,485,503,523,544,564,583,603,623,643,663,683,703,724,743,764,785,804,824,843,864,883,904,923,943,964,983,1003,1025,1043,1064,1083,1103,1124,1143,1165,1183,1204,1224,1243,1264,1283,1304,1323,1343,1363,1383],"xSR":741.5,"ySR":449.15000000000003,"xT1":424.9,"yT1":0,"xT2":1058.1,"yT2":0,"toosoon":0,"cond_shown":"equaldotanddens","ratio_trial":750,"smaller_num":"15","larger_num":"20","correct_side":2,"subjID":"Juan_Felipe_Ospina_Gonzalez_12","gender":"0","age":"11","school":"6"},{"start_time":1551887548763,"click_time":1551887550402,"finger_time":1551887550223,"fix_duration":738.3591554212987,"trial":10,"RT":1460,"MT":179,"sideResp":1,"stimulus":"img/900/equaldotsize/R/15_Ratio_900_L_9_R_10.png","xmouse":[790,790,790,790,790,790,790,790,790,790,790,790,790,790,790,790,790,790,790,790,790,790,790,790,790,790,790,790,790,790,790,790,790,790,790,790,790,790,790,790,790,790,790,790,790,790,790,790,790,790,790,790,790,790,790,790,790,790,790,790,790,790,790,790,790,790,790,790,790,790,785,776,767,740,724,710,699,688,667,616,569,520,468],"ymouse":[486,486,486,486,486,486,486,486,486,486,486,486,486,486,486,486,486,486,486,486,486,486,486,486,486,486,486,486,486,486,486,486,486,486,486,486,486,486,486,486,486,486,486,486,486,486,486,486,486,486,486,486,486,486,486,486,486,486,486,486,486,486,486,486,486,486,486,486,486,486,480,473,469,454,447,440,433,424,398,292,205,114,28],"timestamp_mouse":[1,19,39,59,80,99,119,140,160,180,199,219,240,260,280,299,320,340,360,379,399,419,441,460,481,500,519,541,560,580,599,620,639,659,679,699,720,739,760,779,799,819,840,859,880,900,920,940,961,979,999,1019,1039,1059,1079,1100,1120,1139,1160,1179,1199,1219,1240,1261,1280,1299,1320,1339,1359,1379,1399,1420,1440,1460,1480,1500,1520,1539,1559,1579,1599,1620,1639],"xSR":741.5,"ySR":449.15000000000003,"xT1":424.9,"yT1":0,"xT2":1058.1,"yT2":0,"toosoon":0,"cond_shown":"equaldotsize","ratio_trial":900,"smaller_num":"9","larger_num":"10","correct_side":2,"subjID":"Juan_Felipe_Ospina_Gonzalez_12","gender":"0","age":"11","school":"6"},{"start_time":1551887551375,"click_time":1551887552442,"finger_time":1551887552322,"fix_duration":250,"trial":11,"RT":947,"MT":120,"sideResp":2,"stimulus":"img/750/equaldotanddens/R/2_Ratio_750_L_6_R_8.png","xmouse":[818,817,817,817,817,817,817,817,817,817,817,817,817,817,817,817,817,817,817,817,817,817,817,817,817,817,817,817,817,817,817,817,817,820,827,833,835,835,836,836,836,836,836,836,836,836,841,865,944,990,1021,1046,1080,1085],"ymouse":[499,500,500,500,500,500,500,500,500,500,500,500,500,500,500,500,500,500,500,500,500,500,500,500,500,500,500,500,500,500,500,500,500,496,482,471,467,466,466,466,466,466,466,466,466,466,458,427,315,247,196,158,105,88],"timestamp_mouse":[7,28,47,67,87,107,127,148,167,187,207,227,248,267,287,308,327,347,367,387,407,427,447,467,489,507,527,548,567,587,608,627,647,667,688,708,727,748,768,788,808,827,849,867,887,907,927,947,967,988,1007,1027,1048,1067],"xSR":741.5,"ySR":449.15000000000003,"xT1":424.9,"yT1":0,"xT2":1058.1,"yT2":0,"toosoon":0,"cond_shown":"equaldotanddens","ratio_trial":750,"smaller_num":"6","larger_num":"8","correct_side":2,"subjID":"Juan_Felipe_Ospina_Gonzalez_12","gender":"0","age":"11","school":"6"},{"start_time":1551887553592,"click_time":1551887555402,"finger_time":1551887555042,"fix_duration":268.90563741999216,"trial":12,"RT":1450,"MT":360,"sideResp":1,"stimulus":"img/500/randomdotsizeEA/L/5_Ratio_500_L_4_R_2.png","xmouse":[827,827,820,819,817,816,814,814,814,814,814,814,814,814,814,814,814,814,814,814,814,814,814,814,814,814,814,814,814,814,814,814,814,814,814,814,813,810,809,809,809,809,809,809,809,809,809,809,809,809,809,809,809,809,809,809,809,809,809,809,809,809,809,809,809,809,809,809,809,809,807,792,772,743,701,652,533,517,517,517,517,517,517,517,517,517,517,517,517,517,444],"ymouse":[530,530,527,526,524,523,522,522,522,522,522,522,522,522,522,522,522,522,522,522,522,522,522,522,522,522,522,522,522,522,522,522,522,522,522,522,522,522,522,522,522,522,522,522,522,522,522,522,522,522,522,522,522,522,522,522,522,522,522,522,522,522,522,522,522,522,522,522,521,518,513,482,435,358,261,153,9,0,0,0,0,0,0,0,0,0,0,0,0,0,2],"timestamp_mouse":[10,33,50,70,91,110,131,151,171,191,211,230,251,270,290,311,332,350,371,391,412,430,451,471,490,511,530,551,570,591,610,631,650,671,690,711,730,750,770,790,810,832,850,870,890,911,930,950,970,990,1010,1030,1050,1070,1091,1111,1131,1151,1171,1191,1210,1230,1252,1270,1291,1310,1330,1351,1370,1391,1410,1431,1450,1470,1491,1510,1531,1550,1570,1590,1611,1631,1650,1671,1691,1711,1730,1750,1771,1790,1810],"xSR":741.5,"ySR":449.15000000000003,"xT1":424.9,"yT1":0,"xT2":1058.1,"yT2":0,"toosoon":0,"cond_shown":"randomdotsizeEA","ratio_trial":500,"smaller_num":"2","larger_num":"4","correct_side":1,"subjID":"Juan_Felipe_Ospina_Gonzalez_12","gender":"0","age":"11","school":"6"},{"start_time":1551887557137,"click_time":1551887558763,"finger_time":1551887558342,"fix_duration":634.4706866211142,"trial":13,"RT":1205,"MT":421,"sideResp":1,"stimulus":"img/900/equaldotanddens/R/15_Ratio_900_L_9_R_10.png","xmouse":[810,810,810,810,810,810,810,810,810,810,808,807,806,806,806,806,806,806,806,806,806,806,806,806,806,806,806,806,806,806,806,806,806,806,806,806,806,806,806,806,806,806,806,806,806,806,806,806,806,806,806,806,806,806,804,802,800,796,789,778,742,732,710,688,664,625,608,590,579,574,574,574,574,574,571,570,568,563,557,539,529,521],"ymouse":[508,508,508,508,508,508,508,508,508,507,506,506,505,505,505,505,505,505,505,505,505,505,505,505,505,505,505,505,505,505,505,505,505,504,503,501,501,501,500,500,499,498,498,498,498,498,498,498,498,498,498,498,495,493,488,484,482,479,473,462,397,375,326,250,189,131,117,109,105,102,102,102,102,102,101,100,100,98,96,88,85,79],"timestamp_mouse":[11,32,45,66,85,105,126,145,166,185,207,226,245,265,285,306,326,345,366,386,405,425,445,465,485,506,525,547,565,585,605,625,645,665,685,706,726,745,766,785,805,825,847,865,885,905,926,947,966,985,1005,1025,1046,1065,1085,1105,1125,1145,1167,1186,1205,1225,1246,1265,1285,1305,1325,1345,1365,1386,1405,1426,1445,1465,1486,1505,1526,1545,1565,1586,1605,1626],"xSR":741.5,"ySR":449.15000000000003,"xT1":424.9,"yT1":0,"xT2":1058.1,"yT2":0,"toosoon":0,"cond_shown":"equaldotanddens","ratio_trial":900,"smaller_num":"9","larger_num":"10","correct_side":2,"subjID":"Juan_Felipe_Ospina_Gonzalez_12","gender":"0","age":"11","school":"6"},{"start_time":1551887562011,"click_time":1551887563242,"finger_time":1551887562903,"fix_duration":828.3086700140607,"trial":14,"RT":892,"MT":339,"sideResp":1,"stimulus":"img/900/equaldotsize/R/15_Ratio_900_L_9_R_10.png","xmouse":[789,789,789,789,789,789,789,789,789,789,789,789,789,789,789,789,789,789,789,789,789,789,789,789,789,789,798,807,817,822,824,827,827,827,827,827,827,827,827,826,824,822,821,817,817,814,727,679,615,589,589,589,589,589,589,589,589,589,589,589,589,475],"ymouse":[502,502,502,502,502,502,502,502,502,502,502,502,502,502,502,502,502,502,502,502,502,502,502,502,502,502,500,498,496,496,495,495,495,495,495,495,495,495,495,495,495,493,486,458,357,313,102,50,14,3,3,3,3,3,3,3,3,3,3,3,3,9],"timestamp_mouse":[13,32,52,72,91,111,132,151,171,192,211,231,252,272,293,311,332,351,372,391,412,431,451,472,491,511,531,551,572,591,611,632,651,672,692,711,731,751,771,791,811,831,853,872,892,912,932,952,971,991,1011,1031,1051,1072,1092,1112,1131,1151,1172,1191,1211,1231],"xSR":741.5,"ySR":449.15000000000003,"xT1":424.9,"yT1":0,"xT2":1058.1,"yT2":0,"toosoon":0,"cond_shown":"equaldotsize","ratio_trial":900,"smaller_num":"9","larger_num":"10","correct_side":2,"subjID":"Juan_Felipe_Ospina_Gonzalez_12","gender":"0","age":"11","school":"6"},{"start_time":1551887567246,"click_time":1551887568383,"finger_time":1551887567272,"fix_duration":1121.5935957887118,"trial":15,"RT":26,"MT":1111,"sideResp":1,"stimulus":"img/900/randomdotsizeEA/L/1_Ratio_900_L_10_R_9.png","xmouse":[785,785,785,785,785,785,785,785,785,785,785,785,785,785,785,785,785,785,785,785,785,785,785,785,785,785,785,785,785,782,779,778,777,773,768,767,766,763,759,740,724,705,673,522,461,421,403,399,398,398,398,398,399,405,409,415,426],"ymouse":[495,495,495,495,495,495,495,495,495,495,495,495,495,495,495,495,495,495,495,495,495,495,495,495,495,495,495,495,495,493,492,492,492,491,489,489,488,488,485,471,457,438,407,231,158,117,101,92,91,89,88,85,79,60,55,49,47],"timestamp_mouse":[26,36,57,77,96,116,137,157,177,196,216,236,256,276,296,316,336,356,376,397,416,436,456,477,497,517,536,556,576,596,616,637,657,676,696,716,737,758,777,796,817,836,856,877,896,916,937,957,976,997,1017,1036,1057,1077,1096,1116,1137],"xSR":741.5,"ySR":449.15000000000003,"xT1":424.9,"yT1":0,"xT2":1058.1,"yT2":0,"toosoon":0,"cond_shown":"randomdotsizeEA","ratio_trial":900,"smaller_num":"9","larger_num":"10","correct_side":1,"subjID":"Juan_Felipe_Ospina_Gonzalez_12","gender":"0","age":"11","school":"6"},{"start_time":1551887572048,"click_time":1551887573223,"finger_time":1551887572922,"fix_duration":1485.0761436875491,"trial":16,"RT":874,"MT":301,"sideResp":2,"stimulus":"img/500/equaldotsize/R/9_Ratio_500_L_2_R_4.png","xmouse":[790,790,790,790,790,790,787,784,783,781,781,780,779,779,779,779,779,779,779,779,779,779,779,779,779,779,779,779,779,779,779,779,779,779,779,779,779,779,779,779,779,779,782,804,842,867,898,927,962,1018,1035,1046,1056,1063,1072,1079,1090,1113,1148],"ymouse":[615,615,615,615,615,615,613,611,610,609,608,608,608,608,608,608,608,608,608,608,608,608,608,608,608,608,608,608,608,608,608,608,608,608,608,608,608,608,608,608,608,604,597,555,489,451,407,368,316,227,196,176,163,153,146,141,130,110,86],"timestamp_mouse":[20,36,55,74,94,114,135,154,174,194,214,235,255,275,294,314,334,354,376,394,414,435,456,474,494,514,534,555,576,594,615,635,654,674,694,714,735,756,775,794,815,835,854,874,894,914,935,955,974,994,1015,1035,1055,1074,1095,1114,1135,1154,1175],"xSR":741.5,"ySR":573.95,"xT1":424.9,"yT1":0,"xT2":1058.1,"yT2":0,"toosoon":0,"cond_shown":"equaldotsize","ratio_trial":500,"smaller_num":"2","larger_num":"4","correct_side":2,"subjID":"Juan_Felipe_Ospina_Gonzalez_12","gender":"0","age":"11","school":"6"},{"start_time":1551887574443,"click_time":1551887575183,"finger_time":1551887575142,"fix_duration":359.31341151464756,"trial":17,"RT":699,"MT":41,"sideResp":1,"stimulus":"img/250/equaldotsize/L/7_Ratio_250_L_8_R_2.png","xmouse":[806,806,806,806,806,806,806,806,806,806,806,806,806,806,806,806,806,806,806,806,806,806,806,806,806,806,806,806,806,806,806,796,794,785,631,526,449],"ymouse":[617,617,617,617,617,617,617,617,617,617,617,617,617,617,617,617,617,617,617,617,617,617,617,617,617,617,617,617,617,617,617,614,609,589,317,183,77],"timestamp_mouse":[28,39,59,79,99,119,139,159,179,199,220,239,260,279,299,319,340,359,379,399,420,439,459,480,501,519,539,559,579,599,619,639,660,680,699,720,740],"xSR":741.5,"ySR":573.95,"xT1":424.9,"yT1":0,"xT2":1058.1,"yT2":0,"toosoon":0,"cond_shown":"equaldotsize","ratio_trial":250,"smaller_num":"2","larger_num":"8","correct_side":1,"subjID":"Juan_Felipe_Ospina_Gonzalez_12","gender":"0","age":"11","school":"6"},{"start_time":1551887577252,"click_time":1551887578123,"finger_time":1551887578002,"fix_duration":1167.6986269250776,"trial":18,"RT":750,"MT":121,"sideResp":2,"stimulus":"img/500/equaldotanddens/R/2_Ratio_500_L_3_R_6.png","xmouse":[768,768,768,768,768,768,768,768,768,768,768,768,768,768,768,768,768,768,768,768,768,768,768,768,768,768,768,768,768,768,768,768,769,775,812,825,840,864,910,1027,1070,1088,1096,1098],"ymouse":[634,634,634,634,634,634,634,634,634,634,634,634,634,634,634,634,634,634,634,634,634,634,634,634,634,634,634,634,634,634,634,635,635,635,634,626,611,574,502,323,236,176,127,73],"timestamp_mouse":[11,32,50,70,90,110,130,150,170,192,210,230,250,270,290,310,330,350,370,391,412,430,450,470,491,510,530,550,570,590,612,631,650,670,690,711,731,750,771,791,810,831,850,871],"xSR":741.5,"ySR":573.95,"xT1":424.9,"yT1":0,"xT2":1058.1,"yT2":0,"toosoon":0,"cond_shown":"equaldotanddens","ratio_trial":500,"smaller_num":"3","larger_num":"6","correct_side":2,"subjID":"Juan_Felipe_Ospina_Gonzalez_12","gender":"0","age":"11","school":"6"},{"start_time":1551887579256,"click_time":1551887580062,"finger_time":1551887579983,"fix_duration":250,"trial":19,"RT":727,"MT":79,"sideResp":1,"stimulus":"img/250/equaldotsize/L/7_Ratio_250_L_8_R_2.png","xmouse":[776,777,778,779,779,779,779,779,779,779,779,779,779,779,779,779,779,779,779,779,779,779,779,779,779,779,779,779,779,779,778,776,774,771,765,759,747,721,665,536,491],"ymouse":[643,640,639,636,635,635,635,635,635,635,635,635,635,635,635,635,635,635,635,635,635,635,635,635,635,635,635,635,635,635,633,632,629,626,618,603,570,480,349,114,53],"timestamp_mouse":[7,26,46,66,87,107,126,146,167,186,206,227,246,267,286,307,326,346,367,387,406,426,446,466,487,506,526,546,567,587,607,626,646,667,686,706,727,746,766,786,806],"xSR":741.5,"ySR":573.95,"xT1":424.9,"yT1":0,"xT2":1058.1,"yT2":0,"toosoon":0,"cond_shown":"equaldotsize","ratio_trial":250,"smaller_num":"2","larger_num":"8","correct_side":1,"subjID":"Juan_Felipe_Ospina_Gonzalez_12","gender":"0","age":"11","school":"6"},{"start_time":1551887581713,"click_time":1551887582722,"finger_time":1551887582543,"fix_duration":728.4357528011374,"trial":20,"RT":830,"MT":179,"sideResp":2,"stimulus":"img/250/equaldotanddens/R/11_Ratio_250_L_3_R_12.png","xmouse":[780,780,780,780,780,780,780,780,780,780,780,780,780,780,780,780,780,780,780,778,778,778,778,778,778,778,778,778,778,778,778,778,778,778,778,778,778,778,780,783,812,908,967,1009,1032,1047,1050,1053,1060,1068,1084],"ymouse":[636,636,636,636,636,636,636,636,636,636,636,636,636,636,636,636,636,635,635,633,633,633,633,633,633,633,633,633,633,633,633,633,633,633,633,633,633,633,631,627,593,463,379,309,265,200,177,156,134,112,77],"timestamp_mouse":[12,30,49,69,89,110,131,149,169,190,209,229,250,269,289,310,330,349,369,391,410,430,449,469,489,509,529,549,569,590,610,629,650,669,689,709,729,750,770,789,809,830,849,870,890,910,929,949,971,989,1009],"xSR":741.5,"ySR":573.95,"xT1":424.9,"yT1":0,"xT2":1058.1,"yT2":0,"toosoon":0,"cond_shown":"equaldotanddens","ratio_trial":250,"smaller_num":"3","larger_num":"12","correct_side":2,"subjID":"Juan_Felipe_Ospina_Gonzalez_12","gender":"0","age":"11","school":"6"},{"start_time":1551887584808,"click_time":1551887586423,"finger_time":1551887586023,"fix_duration":1384.6789781012224,"trial":21,"RT":1215,"MT":400,"sideResp":1,"stimulus":"img/900/randomdotsizeEA/L/4_Ratio_900_L_20_R_18.png","xmouse":[783,783,783,783,783,783,783,783,783,783,783,783,783,783,783,783,783,783,783,783,783,783,783,783,783,783,783,783,783,783,783,783,783,783,781,780,780,779,779,779,779,779,779,779,779,779,780,780,780,780,780,780,780,780,778,777,774,770,765,757,732,707,671,629,569,386,351,335,330,330,333,338,342,345,350,360,374,386,401,417,434],"ymouse":[619,619,619,619,619,619,619,619,619,619,619,619,619,619,619,619,619,619,619,619,619,619,619,619,619,619,619,619,619,619,619,619,619,619,619,618,617,617,617,617,617,617,617,617,615,614,612,611,611,610,609,608,608,608,608,608,606,602,597,584,539,494,430,358,281,95,55,32,18,13,8,6,2,0,0,0,0,0,3,9,16],"timestamp_mouse":[15,34,55,75,95,115,134,154,174,195,214,235,255,274,294,315,334,354,374,394,415,434,454,474,494,515,535,556,574,594,614,635,654,674,694,714,734,755,776,794,815,834,854,874,894,914,935,954,974,995,1014,1034,1054,1074,1094,1114,1134,1154,1175,1194,1215,1234,1256,1275,1295,1315,1334,1355,1375,1395,1415,1434,1454,1474,1495,1515,1535,1554,1574,1595,1615],"xSR":741.5,"ySR":573.95,"xT1":424.9,"yT1":0,"xT2":1058.1,"yT2":0,"toosoon":0,"cond_shown":"randomdotsizeEA","ratio_trial":900,"smaller_num":"18","larger_num":"20","correct_side":1,"subjID":"Juan_Felipe_Ospina_Gonzalez_12","gender":"0","age":"11","school":"6"},{"start_time":1551887590094,"click_time":1551887591224,"finger_time":1551887591023,"fix_duration":950.7144822844851,"trial":22,"RT":929,"MT":201,"sideResp":1,"stimulus":"img/250/randomdotsizeEA/L/14_Ratio_250_L_12_R_3.png","xmouse":[780,780,780,780,780,780,780,780,780,780,780,780,780,780,780,780,780,780,780,780,780,780,780,780,780,780,780,780,780,780,780,780,780,780,780,780,780,780,780,780,780,780,780,779,772,753,692,656,622,602,592,585,569,563,549,531,519],"ymouse":[639,639,639,639,639,639,639,639,639,639,639,639,639,639,639,639,639,639,639,639,639,639,639,639,639,639,639,639,639,639,639,639,639,639,639,639,639,639,639,639,639,639,639,635,623,589,436,330,244,198,175,159,120,100,75,51,39],"timestamp_mouse":[8,31,49,68,89,108,129,149,168,188,209,228,248,269,289,308,329,349,369,388,410,429,448,470,488,509,530,548,569,590,609,629,649,669,689,708,729,748,769,790,809,829,848,868,888,908,929,948,969,990,1008,1029,1049,1069,1089,1109,1130],"xSR":741.5,"ySR":573.95,"xT1":424.9,"yT1":0,"xT2":1058.1,"yT2":0,"toosoon":0,"cond_shown":"randomdotsizeEA","ratio_trial":250,"smaller_num":"3","larger_num":"12","correct_side":1,"subjID":"Juan_Felipe_Ospina_Gonzalez_12","gender":"0","age":"11","school":"6"},{"start_time":1551887592939,"click_time":1551887593922,"finger_time":1551887593702,"fix_duration":1113.9119155424742,"trial":23,"RT":763,"MT":220,"sideResp":1,"stimulus":"img/900/equaldotsize/L/1_Ratio_900_L_10_R_9.png","xmouse":[786,786,786,786,786,786,786,786,786,786,786,786,786,786,786,786,786,786,786,786,786,786,786,786,786,786,786,786,786,786,786,786,786,786,785,781,777,773,768,759,676,638,607,585,561,552,543,537,530,523],"ymouse":[600,600,600,600,600,600,600,600,600,600,600,600,600,600,600,600,600,600,600,600,600,600,600,600,600,600,600,600,600,600,600,600,600,600,600,596,588,583,568,535,332,263,219,189,152,135,119,106,94,81],"timestamp_mouse":[8,33,43,64,84,104,123,143,164,183,203,224,245,263,284,303,323,344,364,383,404,424,443,463,484,503,525,543,564,584,604,623,644,663,684,704,724,744,763,783,804,823,844,864,884,903,923,943,963,983],"xSR":741.5,"ySR":573.95,"xT1":424.9,"yT1":0,"xT2":1058.1,"yT2":0,"toosoon":0,"cond_shown":"equaldotsize","ratio_trial":900,"smaller_num":"9","larger_num":"10","correct_side":1,"subjID":"Juan_Felipe_Ospina_Gonzalez_12","gender":"0","age":"11","school":"6"},{"start_time":1551887597552,"click_time":1551887598581,"finger_time":1551887598202,"fix_duration":1448.2448879962515,"trial":24,"RT":650,"MT":379,"sideResp":2,"stimulus":"img/250/equaldotanddens/R/8_Ratio_250_L_1_R_4.png","xmouse":[772,772,772,772,772,772,772,772,772,772,772,772,772,772,772,772,772,772,772,772,772,772,772,772,772,772,772,772,772,772,772,772,772,773,777,801,838,873,914,923,924,923,917,924,932,937,938,938,939,983,1027,1067],"ymouse":[586,586,586,586,586,586,586,586,586,586,586,586,586,586,586,586,586,586,586,586,586,586,586,586,586,586,586,586,586,586,585,575,555,523,360,276,202,160,123,99,82,58,27,0,0,0,0,0,0,7,16,31],"timestamp_mouse":[10,31,51,70,90,110,130,150,170,192,210,230,250,270,290,310,331,350,370,391,411,432,450,471,490,510,529,550,570,589,610,631,650,670,690,709,730,750,770,789,809,830,851,870,889,910,931,950,970,991,1010,1029],"xSR":741.5,"ySR":573.95,"xT1":424.9,"yT1":0,"xT2":1058.1,"yT2":0,"toosoon":0,"cond_shown":"equaldotanddens","ratio_trial":250,"smaller_num":"1","larger_num":"4","correct_side":2,"subjID":"Juan_Felipe_Ospina_Gonzalez_12","gender":"0","age":"11","school":"6"},{"start_time":1551887601189,"click_time":1551887602462,"finger_time":1551887601883,"fix_duration":1404.9246746820513,"trial":25,"RT":694,"MT":579,"sideResp":2,"stimulus":"img/500/equaldotsize/R/1_Ratio_500_L_9_R_18.png","xmouse":[787,787,787,787,787,787,787,787,787,787,787,787,787,787,787,787,787,787,787,787,787,787,787,787,787,787,787,787,787,787,787,787,787,782,775,760,739,730,717,714,714,714,714,714,714,724,833,923,1022,1107,1172,1204,1204,1193,1179,1169,1162,1162,1163,1164,1164,1164,1159,1145],"ymouse":[591,591,591,591,591,591,591,591,591,591,591,591,591,591,591,591,591,591,591,591,591,591,591,591,591,591,591,591,591,591,591,591,588,577,568,548,513,482,441,429,427,427,427,427,429,431,412,381,339,297,254,192,158,127,98,78,51,47,42,36,31,25,18,13],"timestamp_mouse":[13,32,54,73,92,113,134,153,174,192,214,234,253,272,293,314,333,352,374,393,412,432,453,472,493,513,533,554,574,593,613,634,653,672,694,714,746,752,773,793,814,833,852,873,892,913,934,952,973,992,1014,1034,1053,1073,1092,1114,1134,1152,1173,1193,1214,1233,1252,1273],"xSR":741.5,"ySR":573.95,"xT1":424.9,"yT1":0,"xT2":1058.1,"yT2":0,"toosoon":0,"cond_shown":"equaldotsize","ratio_trial":500,"smaller_num":"9","larger_num":"18","correct_side":2,"subjID":"Juan_Felipe_Ospina_Gonzalez_12","gender":"0","age":"11","school":"6"},{"start_time":1551887605034,"click_time":1551887606223,"finger_time":1551887606142,"fix_duration":409.2314253533904,"trial":26,"RT":1108,"MT":81,"sideResp":1,"stimulus":"img/500/randomdotsizeEA/L/8_Ratio_500_L_8_R_4.png","xmouse":[778,778,778,778,778,778,778,778,778,778,778,778,778,778,778,778,778,778,778,778,778,778,778,778,778,778,778,778,778,778,778,778,778,778,778,778,778,778,778,778,778,778,778,778,778,778,778,778,778,778,778,778,778,766,752,674,622,556,500,460],"ymouse":[646,646,646,646,646,646,646,646,646,646,646,646,646,646,646,646,646,646,646,646,646,646,646,646,646,646,646,646,646,646,646,646,646,646,646,646,646,646,646,646,646,646,646,646,646,646,646,646,646,646,646,645,641,623,599,444,343,212,101,4],"timestamp_mouse":[9,33,49,68,88,109,128,147,168,187,208,227,247,269,289,308,329,347,368,388,407,427,448,469,488,507,529,549,569,589,608,627,647,668,689,707,727,749,768,789,807,828,848,867,888,907,929,947,967,989,1007,1028,1047,1067,1088,1108,1128,1148,1167,1189],"xSR":741.5,"ySR":573.95,"xT1":424.9,"yT1":0,"xT2":1058.1,"yT2":0,"toosoon":0,"cond_shown":"randomdotsizeEA","ratio_trial":500,"smaller_num":"4","larger_num":"8","correct_side":1,"subjID":"Juan_Felipe_Ospina_Gonzalez_12","gender":"0","age":"11","school":"6"},{"start_time":1551887616858,"click_time":1551887618022,"finger_time":1551887617523,"fix_duration":935.9318807563154,"trial":27,"RT":665,"MT":499,"sideResp":1,"stimulus":"img/250/equaldotsize/L/2_Ratio_250_L_16_R_4.png","xmouse":[793,793,793,793,793,793,793,793,793,793,793,793,793,793,793,793,793,793,793,793,793,793,793,793,793,793,793,793,793,793,790,789,782,719,690,645,583,512,440,346,343,343,343,344,346,346,346,349,356,382,397,406,411,413,417,419,420,424,426],"ymouse":[614,614,614,614,614,614,614,614,614,614,614,614,614,614,614,614,614,614,614,614,614,614,614,614,614,614,614,614,614,614,607,606,602,564,545,512,448,362,218,0,0,0,0,0,0,0,0,0,2,17,25,30,33,33,35,35,35,35,35],"timestamp_mouse":[11,28,44,65,83,103,125,143,165,183,204,224,245,263,283,303,324,345,364,385,404,424,444,463,483,505,523,544,565,583,605,624,645,665,683,703,724,745,764,784,804,823,844,864,883,905,924,944,964,983,1003,1024,1044,1064,1084,1104,1125,1144,1164],"xSR":741.5,"ySR":573.95,"xT1":424.9,"yT1":0,"xT2":1058.1,"yT2":0,"toosoon":0,"cond_shown":"equaldotsize","ratio_trial":250,"smaller_num":"4","larger_num":"16","correct_side":1,"subjID":"Juan_Felipe_Ospina_Gonzalez_12","gender":"0","age":"11","school":"6"},{"start_time":1551887618993,"click_time":1551887619682,"finger_time":1551887619582,"fix_duration":250,"trial":28,"RT":589,"MT":100,"sideResp":1,"stimulus":"img/250/equaldotsize/L/14_Ratio_250_L_12_R_3.png","xmouse":[824,823,819,816,815,813,807,806,805,805,805,805,805,805,805,805,805,805,805,805,805,805,805,805,805,805,805,805,796,777,738,687,587,549,519],"ymouse":[606,606,607,607,607,607,609,610,610,610,610,610,610,610,610,610,610,610,610,610,610,610,610,610,610,610,610,610,594,544,457,362,188,131,89],"timestamp_mouse":[9,29,49,69,89,109,130,149,168,189,209,229,249,269,289,310,330,349,370,388,409,429,448,469,489,510,528,549,569,589,610,629,649,669,689],"xSR":741.5,"ySR":573.95,"xT1":424.9,"yT1":0,"xT2":1058.1,"yT2":0,"toosoon":0,"cond_shown":"equaldotsize","ratio_trial":250,"smaller_num":"3","larger_num":"12","correct_side":1,"subjID":"Juan_Felipe_Ospina_Gonzalez_12","gender":"0","age":"11","school":"6"},{"start_time":1551887620898,"click_time":1551887622442,"finger_time":1551887622142,"fix_duration":614.5178502798822,"trial":29,"RT":1244,"MT":300,"sideResp":2,"stimulus":"img/250/randomdotsizeEA/R/10_Ratio_250_L_4_R_16.png","xmouse":[779,779,779,779,779,779,779,779,779,779,779,779,779,779,779,779,779,779,779,779,779,779,779,779,779,779,779,779,779,779,779,779,779,779,779,779,779,779,779,779,779,779,779,779,779,779,779,779,779,779,779,779,779,779,779,779,779,779,779,779,779,779,803,812,809,798,837,890,961,1031,1092,1153,1171,1171,1171,1169,1163,1156],"ymouse":[600,600,600,600,600,600,600,600,600,600,600,600,600,600,600,600,600,600,600,600,600,600,600,600,600,600,600,600,600,600,600,600,600,600,600,600,600,600,600,600,600,600,600,600,600,600,600,600,600,600,600,590,578,577,577,577,577,577,577,577,577,577,444,246,45,0,0,0,0,0,0,0,0,0,0,5,10,18],"timestamp_mouse":[10,23,44,64,85,103,123,144,164,183,204,225,243,264,284,304,323,344,363,384,405,424,444,463,484,505,524,543,565,584,603,625,643,664,685,703,724,744,764,783,805,823,845,864,884,905,923,945,965,984,1004,1025,1044,1064,1084,1104,1125,1144,1164,1185,1203,1223,1244,1265,1284,1304,1325,1344,1364,1384,1405,1424,1444,1465,1483,1503,1523,1544],"xSR":741.5,"ySR":573.95,"xT1":424.9,"yT1":0,"xT2":1058.1,"yT2":0,"toosoon":0,"cond_shown":"randomdotsizeEA","ratio_trial":250,"smaller_num":"4","larger_num":"16","correct_side":2,"subjID":"Juan_Felipe_Ospina_Gonzalez_12","gender":"0","age":"11","school":"6"},{"start_time":1551887623860,"click_time":1551887625322,"finger_time":1551887625023,"fix_duration":436.96371261699704,"trial":30,"RT":1163,"MT":299,"sideResp":2,"stimulus":"img/900/equaldotanddens/L/2_Ratio_900_L_20_R_18.png","xmouse":[827,827,827,827,827,827,827,827,827,827,827,827,827,827,827,827,827,827,827,827,827,827,827,827,827,828,833,835,835,835,835,835,835,835,834,832,831,830,829,829,828,827,825,819,816,814,812,811,810,807,807,807,807,807,807,807,810,825,950,1038,1112,1154,1179,1181,1180,1179,1178,1178,1178,1178,1176,1171,1165,1150],"ymouse":[641,641,641,641,641,641,641,641,641,641,641,641,641,641,641,641,641,641,641,641,641,641,641,641,641,640,641,642,642,642,642,642,642,642,643,643,643,643,643,643,643,643,643,639,637,637,637,637,637,637,637,637,637,637,637,637,631,613,444,339,256,177,80,14,0,0,0,0,0,0,0,2,5,14],"timestamp_mouse":[9,28,41,61,83,101,122,141,162,181,203,221,242,262,282,302,321,342,363,381,403,421,442,461,482,502,523,542,562,581,602,622,642,662,682,701,722,742,762,782,803,822,842,863,882,902,921,942,963,983,1001,1023,1041,1062,1083,1102,1122,1142,1163,1182,1202,1222,1241,1262,1281,1301,1322,1341,1361,1382,1402,1422,1443,1462],"xSR":741.5,"ySR":573.95,"xT1":424.9,"yT1":0,"xT2":1058.1,"yT2":0,"toosoon":0,"cond_shown":"equaldotanddens","ratio_trial":900,"smaller_num":"18","larger_num":"20","correct_side":1,"subjID":"Juan_Felipe_Ospina_Gonzalez_12","gender":"0","age":"11","school":"6"},{"start_time":1551887628525,"click_time":1551887629941,"finger_time":1551887629842,"fix_duration":819.4053490776448,"trial":31,"RT":1317,"MT":99,"sideResp":2,"stimulus":"img/750/equaldotanddens/R/4_Ratio_750_L_15_R_20.png","xmouse":[785,785,785,785,785,785,785,785,785,785,785,785,785,785,785,785,785,785,785,785,785,785,785,785,785,785,785,785,785,785,785,785,785,785,785,785,785,785,785,785,785,785,785,785,785,785,785,785,785,785,785,785,785,785,785,785,785,785,785,785,785,785,785,785,790,830,887,928,954,1042,1074],"ymouse":[631,631,631,631,631,631,631,631,631,631,631,631,631,631,631,631,631,631,631,631,631,631,631,631,631,631,631,631,631,631,631,631,631,631,631,631,631,631,631,631,631,631,631,631,631,631,631,631,631,631,631,631,631,631,631,631,631,631,631,631,631,631,631,631,624,541,417,328,273,97,17],"timestamp_mouse":[17,38,57,76,98,116,136,156,178,196,217,237,257,277,296,317,336,357,377,398,417,436,458,477,496,518,537,558,577,596,618,636,657,676,696,716,736,758,776,796,818,836,857,876,897,917,937,957,976,996,1017,1036,1056,1076,1096,1118,1136,1157,1176,1196,1217,1237,1256,1277,1298,1317,1336,1356,1377,1398,1416],"xSR":741.5,"ySR":573.95,"xT1":424.9,"yT1":0,"xT2":1058.1,"yT2":0,"toosoon":0,"cond_shown":"equaldotanddens","ratio_trial":750,"smaller_num":"15","larger_num":"20","correct_side":2,"subjID":"Juan_Felipe_Ospina_Gonzalez_12","gender":"0","age":"11","school":"6"},{"start_time":1551887632750,"click_time":1551887633823,"finger_time":1551887633662,"fix_duration":685.3921033800223,"trial":32,"RT":912,"MT":161,"sideResp":1,"stimulus":"img/500/randomdotsizeEA/L/11_Ratio_500_L_12_R_6.png","xmouse":[788,788,788,788,788,788,788,788,788,788,788,788,788,788,788,788,788,788,788,788,788,788,788,788,788,788,788,788,788,788,788,788,788,788,788,788,788,788,788,788,788,788,787,763,745,728,679,620,569,508,499,495,494,495],"ymouse":[633,633,633,633,633,633,633,633,633,633,633,633,633,633,633,633,633,633,633,633,633,633,633,633,633,633,633,633,633,633,633,633,633,633,633,633,633,633,633,633,633,633,631,612,597,583,539,417,301,163,135,114,103,95],"timestamp_mouse":[11,34,53,73,93,111,132,153,173,191,212,232,253,272,292,311,332,352,371,393,413,431,452,471,492,511,533,551,571,592,611,632,651,673,692,712,732,753,772,791,812,831,852,873,892,912,932,951,972,991,1012,1033,1051,1073],"xSR":741.5,"ySR":573.95,"xT1":424.9,"yT1":0,"xT2":1058.1,"yT2":0,"toosoon":0,"cond_shown":"randomdotsizeEA","ratio_trial":500,"smaller_num":"6","larger_num":"12","correct_side":1,"subjID":"Juan_Felipe_Ospina_Gonzalez_12","gender":"0","age":"11","school":"6"},{"start_time":1551887635038,"click_time":1551887636122,"finger_time":1551887635901,"fix_duration":275.1379284246407,"trial":33,"RT":863,"MT":221,"sideResp":1,"stimulus":"img/500/equaldotanddens/L/4_Ratio_500_L_18_R_9.png","xmouse":[836,836,836,836,836,836,836,836,836,836,836,836,836,836,836,836,836,836,836,836,835,832,830,829,829,829,829,829,829,829,829,829,829,829,829,829,829,829,829,827,821,812,787,743,618,585,563,545,534,531,531,531,528,525,522],"ymouse":[613,613,613,613,613,613,613,613,613,613,613,613,613,613,613,613,613,613,613,613,613,613,613,613,613,613,613,613,613,613,613,613,613,613,613,613,613,613,613,613,613,608,594,571,465,416,365,310,264,232,179,158,139,121,96],"timestamp_mouse":[10,29,45,64,84,103,124,145,165,184,204,223,245,264,283,303,324,344,364,384,404,425,444,464,483,504,524,544,563,585,604,624,644,664,684,704,724,744,764,784,804,824,844,863,885,903,924,945,965,984,1004,1024,1044,1064,1084],"xSR":741.5,"ySR":573.95,"xT1":424.9,"yT1":0,"xT2":1058.1,"yT2":0,"toosoon":0,"cond_shown":"equaldotanddens","ratio_trial":500,"smaller_num":"9","larger_num":"18","correct_side":1,"subjID":"Juan_Felipe_Ospina_Gonzalez_12","gender":"0","age":"11","school":"6"},{"start_time":1551887636954,"click_time":1551887637902,"finger_time":1551887637822,"fix_duration":250,"trial":34,"RT":868,"MT":80,"sideResp":1,"stimulus":"img/750/equaldotsize/L/6_Ratio_750_L_24_R_18.png","xmouse":[806,806,806,806,806,806,806,806,806,806,806,806,806,806,806,806,806,806,806,806,806,806,806,806,806,806,806,806,806,806,806,806,806,806,806,806,806,806,806,806,806,800,784,747,616,542,478,432],"ymouse":[619,619,619,619,619,619,619,619,619,619,619,619,619,619,619,619,619,619,619,619,619,619,619,619,619,619,619,619,619,619,619,619,619,619,619,619,619,619,619,619,619,611,588,539,352,246,156,91],"timestamp_mouse":[7,34,48,69,87,107,128,148,168,187,209,227,249,268,288,308,327,349,368,388,408,429,449,469,488,508,528,547,569,589,608,629,649,669,688,708,728,747,767,789,808,828,848,868,888,908,928,948],"xSR":741.5,"ySR":573.95,"xT1":424.9,"yT1":0,"xT2":1058.1,"yT2":0,"toosoon":0,"cond_shown":"equaldotsize","ratio_trial":750,"smaller_num":"18","larger_num":"24","correct_side":1,"subjID":"Juan_Felipe_Ospina_Gonzalez_12","gender":"0","age":"11","school":"6"},{"start_time":1551887639707,"click_time":1551887640482,"finger_time":1551887640382,"fix_duration":962.906166809461,"trial":35,"RT":675,"MT":100,"sideResp":2,"stimulus":"img/250/equaldotanddens/R/13_Ratio_250_L_2_R_8.png","xmouse":[774,774,774,774,774,774,774,774,774,774,774,774,774,774,774,774,774,774,774,774,774,774,774,774,774,774,774,774,774,774,774,780,798,832,881,927,1037,1085,1119],"ymouse":[629,629,629,629,629,629,629,629,629,629,629,629,629,629,629,629,629,629,629,629,629,629,629,629,629,629,629,629,629,629,629,629,614,573,495,415,200,103,25],"timestamp_mouse":[15,35,55,75,95,115,135,156,175,195,215,234,255,274,295,315,335,355,374,395,416,435,455,475,496,516,535,555,575,595,615,635,655,675,695,715,735,754,774],"xSR":741.5,"ySR":573.95,"xT1":424.9,"yT1":0,"xT2":1058.1,"yT2":0,"toosoon":0,"cond_shown":"equaldotanddens","ratio_trial":250,"smaller_num":"2","larger_num":"8","correct_side":2,"subjID":"Juan_Felipe_Ospina_Gonzalez_12","gender":"0","age":"11","school":"6"},{"start_time":1551887642462,"click_time":1551887643442,"finger_time":1551887643342,"fix_duration":1139.9047626025044,"trial":36,"RT":880,"MT":100,"sideResp":2,"stimulus":"img/900/equaldotanddens/R/11_Ratio_900_L_18_R_20.png","xmouse":[788,788,788,788,788,788,788,788,788,788,788,788,788,788,788,788,788,788,788,788,788,788,788,788,793,793,793,793,793,793,793,793,793,793,793,793,793,793,793,793,793,793,794,798,842,880,918,964,1008,1086],"ymouse":[645,645,645,645,645,645,645,645,645,645,645,645,645,645,645,645,645,645,645,645,645,645,645,645,651,651,651,651,651,651,651,651,651,651,651,651,651,651,651,651,651,651,651,645,531,442,361,293,223,88],"timestamp_mouse":[1,28,40,59,81,99,121,140,160,180,201,219,240,261,279,300,319,340,360,380,400,419,441,459,479,500,521,539,561,580,599,620,640,660,679,701,719,740,760,779,801,821,840,860,879,900,920,940,960,980],"xSR":741.5,"ySR":573.95,"xT1":424.9,"yT1":0,"xT2":1058.1,"yT2":0,"toosoon":0,"cond_shown":"equaldotanddens","ratio_trial":900,"smaller_num":"18","larger_num":"20","correct_side":2,"subjID":"Juan_Felipe_Ospina_Gonzalez_12","gender":"0","age":"11","school":"6"},{"start_time":1551887645408,"click_time":1551887646343,"finger_time":1551887646003,"fix_duration":1165.5928419364204,"trial":37,"RT":595,"MT":340,"sideResp":2,"stimulus":"img/250/equaldotanddens/R/10_Ratio_250_L_4_R_16.png","xmouse":[788,788,788,788,788,788,788,789,792,793,793,793,793,793,793,793,793,793,793,793,793,793,793,793,793,793,796,800,814,842,898,1074,1156,1199,1229,1239,1239,1239,1239,1239,1239,1239,1239,1237,1229,1217,1142],"ymouse":[622,622,622,622,622,622,622,625,629,630,630,630,630,630,630,630,630,630,630,630,630,630,630,630,630,630,629,628,621,599,553,376,262,155,47,0,0,0,0,0,0,0,0,0,8,16,48],"timestamp_mouse":[14,34,54,75,93,113,134,154,173,193,214,233,255,274,294,314,334,354,375,394,415,435,453,473,494,513,534,554,574,595,613,634,653,675,695,714,734,754,774,795,814,835,855,875,894,913,934],"xSR":741.5,"ySR":573.95,"xT1":424.9,"yT1":0,"xT2":1058.1,"yT2":0,"toosoon":0,"cond_shown":"equaldotanddens","ratio_trial":250,"smaller_num":"4","larger_num":"16","correct_side":2,"subjID":"Juan_Felipe_Ospina_Gonzalez_12","gender":"0","age":"11","school":"6"},{"start_time":1551887647316,"click_time":1551887648282,"finger_time":1551887648162,"fix_duration":250,"trial":38,"RT":846,"MT":120,"sideResp":2,"stimulus":"img/900/equaldotsize/R/7_Ratio_900_L_9_R_10.png","xmouse":[777,777,777,777,777,777,777,777,777,777,777,777,777,777,777,777,777,777,777,777,777,777,777,777,777,777,781,781,781,781,781,781,781,781,781,781,781,781,781,781,781,794,814,843,879,926,1014,1045,1068],"ymouse":[634,634,634,634,634,634,634,634,634,634,634,634,634,634,634,634,634,634,634,634,634,634,634,634,634,633,631,631,631,631,631,631,631,631,631,631,631,631,631,631,631,607,561,474,365,252,88,46,17],"timestamp_mouse":[6,35,46,65,86,105,126,146,165,186,206,225,246,265,285,306,327,345,366,387,407,426,446,467,487,506,525,547,566,585,606,625,647,665,686,707,725,746,766,786,806,826,846,866,886,906,926,945,965],"xSR":741.5,"ySR":573.95,"xT1":424.9,"yT1":0,"xT2":1058.1,"yT2":0,"toosoon":0,"cond_shown":"equaldotsize","ratio_trial":900,"smaller_num":"9","larger_num":"10","correct_side":2,"subjID":"Juan_Felipe_Ospina_Gonzalez_12","gender":"0","age":"11","school":"6"},{"start_time":1551887650716,"click_time":1551887651543,"finger_time":1551887651422,"fix_duration":1452.374912967706,"trial":39,"RT":706,"MT":121,"sideResp":2,"stimulus":"img/750/equaldotanddens/R/3_Ratio_750_L_15_R_20.png","xmouse":[767,767,767,767,767,767,767,767,767,767,767,767,767,767,767,767,767,767,767,767,767,767,767,767,767,767,767,767,767,767,767,767,769,780,801,844,946,1000,1036,1056,1062,1062],"ymouse":[637,637,637,637,637,637,637,637,637,637,637,637,637,637,637,637,637,637,637,637,637,637,637,637,637,637,637,637,637,637,637,637,637,622,594,531,382,291,208,147,108,93],"timestamp_mouse":[10,34,46,66,87,105,125,147,167,186,205,225,247,266,286,305,327,346,365,386,406,427,446,467,486,506,527,546,565,586,606,625,646,666,686,706,726,746,766,786,806,827],"xSR":741.5,"ySR":573.95,"xT1":424.9,"yT1":0,"xT2":1058.1,"yT2":0,"toosoon":0,"cond_shown":"equaldotanddens","ratio_trial":750,"smaller_num":"15","larger_num":"20","correct_side":2,"subjID":"Juan_Felipe_Ospina_Gonzalez_12","gender":"0","age":"11","school":"6"},{"start_time":1551887653229,"click_time":1551887654901,"finger_time":1551887654223,"fix_duration":725.4476905992707,"trial":40,"RT":994,"MT":678,"sideResp":2,"stimulus":"img/250/randomdotsizeEA/R/10_Ratio_250_L_4_R_16.png","xmouse":[778,778,778,778,778,778,778,778,778,778,778,778,778,778,778,778,778,778,778,778,778,778,778,778,778,778,778,778,778,778,778,778,778,778,778,778,778,778,778,778,778,778,778,778,778,778,778,778,786,830,871,917,948,970,982,982,982,982,982,984,1004,1049,1139,1259,1367,1421,1421,1420,1413,1398,1356,1334,1296,1282,1256,1226,1225,1225,1225,1221,1218,1205,1166,1078],"ymouse":[602,602,602,602,602,602,602,602,602,602,602,602,602,602,602,602,602,602,602,602,602,602,602,602,602,602,602,602,602,602,602,602,602,602,602,602,602,602,602,602,602,602,602,602,602,602,602,602,592,471,353,233,155,118,93,89,85,79,68,53,21,0,0,0,0,0,0,1,2,2,6,14,31,36,45,53,53,53,53,38,35,35,41,78],"timestamp_mouse":[14,33,52,74,93,113,134,153,174,194,214,233,253,273,292,312,333,354,373,393,412,434,453,472,494,512,534,553,573,592,614,632,653,674,693,713,734,752,773,793,814,834,853,872,894,912,934,952,973,994,1013,1032,1053,1074,1094,1113,1134,1153,1173,1193,1213,1233,1253,1272,1292,1312,1333,1353,1372,1393,1412,1432,1453,1472,1493,1514,1533,1553,1573,1594,1612,1633,1653,1672],"xSR":741.5,"ySR":573.95,"xT1":424.9,"yT1":0,"xT2":1058.1,"yT2":0,"toosoon":0,"cond_shown":"randomdotsizeEA","ratio_trial":250,"smaller_num":"4","larger_num":"16","correct_side":2,"subjID":"Juan_Felipe_Ospina_Gonzalez_12","gender":"0","age":"11","school":"6"},{"start_time":1551887658323,"click_time":1551887659341,"finger_time":1551887659139,"fix_duration":1003.1609602737603,"trial":41,"RT":816,"MT":202,"sideResp":1,"stimulus":"img/250/randomdotsizeEA/L/14_Ratio_250_L_12_R_3.png","xmouse":[793,793,793,793,793,793,793,793,793,793,793,793,793,793,793,793,793,793,793,793,793,793,793,793,793,793,793,793,793,793,793,793,793,793,793,793,793,793,783,779,765,740,693,635,582,511,497,490,489,489,505],"ymouse":[626,626,626,626,626,626,626,626,626,626,626,626,626,626,626,626,626,626,626,626,626,626,626,626,626,626,626,626,626,626,626,626,626,626,626,626,626,626,605,587,543,497,422,348,284,194,169,152,134,114,58],"timestamp_mouse":[31,36,56,78,96,117,138,156,176,197,218,238,257,276,296,316,337,357,377,398,417,437,456,478,497,518,536,557,577,597,616,637,656,677,697,716,736,757,778,797,816,837,857,876,897,916,937,956,976,997,1018],"xSR":741.5,"ySR":573.95,"xT1":424.9,"yT1":0,"xT2":1058.1,"yT2":0,"toosoon":0,"cond_shown":"randomdotsizeEA","ratio_trial":250,"smaller_num":"3","larger_num":"12","correct_side":1,"subjID":"Juan_Felipe_Ospina_Gonzalez_12","gender":"0","age":"11","school":"6"},{"start_time":1551887661091,"click_time":1551887661960,"finger_time":1551887661881,"fix_duration":1009.2268090149217,"trial":42,"RT":790,"MT":79,"sideResp":2,"stimulus":"img/750/equaldotsize/R/15_Ratio_750_L_9_R_12.png","xmouse":[784,784,784,784,784,784,784,784,784,784,784,784,784,784,784,784,784,784,784,784,784,784,784,784,784,784,784,784,784,784,784,784,793,804,813,820,824,826,831,843,869,930,1045,1080],"ymouse":[629,629,629,629,629,629,629,629,629,629,629,629,629,629,629,629,629,629,629,629,629,629,629,629,629,629,629,629,629,629,629,629,619,610,602,596,593,588,580,552,486,344,147,88],"timestamp_mouse":[10,28,48,68,89,109,129,148,169,189,208,229,249,270,288,309,329,348,369,389,409,428,448,470,488,509,528,549,568,590,608,628,649,669,688,709,728,749,770,790,808,829,848,868],"xSR":741.5,"ySR":573.95,"xT1":424.9,"yT1":0,"xT2":1058.1,"yT2":0,"toosoon":0,"cond_shown":"equaldotsize","ratio_trial":750,"smaller_num":"9","larger_num":"12","correct_side":2,"subjID":"Juan_Felipe_Ospina_Gonzalez_12","gender":"0","age":"11","school":"6"},{"start_time":1551887663347,"click_time":1551887664461,"finger_time":1551887664080,"fix_duration":625.5652479293962,"trial":43,"RT":733,"MT":381,"sideResp":2,"stimulus":"img/750/equaldotanddens/R/12_Ratio_750_L_3_R_4.png","xmouse":[772,772,772,772,772,772,772,772,772,772,772,772,772,772,772,772,772,772,772,772,772,773,773,773,773,773,773,774,775,778,778,778,778,779,783,786,820,882,1096,1176,1214,1232,1240,1242,1242,1242,1242,1241,1232,1226,1214,1197,1182,1169,1160,1158],"ymouse":[618,618,618,618,618,618,618,618,618,618,618,618,618,618,618,618,618,618,618,618,618,618,618,618,618,618,618,617,615,611,610,609,609,608,601,596,557,479,221,139,91,64,52,47,44,43,43,42,41,41,41,45,46,46,43,42],"timestamp_mouse":[14,33,52,72,92,112,132,152,174,193,213,234,254,273,293,313,333,352,372,392,413,432,453,473,493,513,532,552,573,593,613,633,652,673,693,714,733,753,774,792,813,832,853,872,893,914,934,953,973,992,1013,1032,1053,1072,1093,1114],"xSR":741.5,"ySR":573.95,"xT1":424.9,"yT1":0,"xT2":1058.1,"yT2":0,"toosoon":0,"cond_shown":"equaldotanddens","ratio_trial":750,"smaller_num":"3","larger_num":"4","correct_side":2,"subjID":"Juan_Felipe_Ospina_Gonzalez_12","gender":"0","age":"11","school":"6"},{"start_time":1551887665369,"click_time":1551887666519,"finger_time":1551887666219,"fix_duration":308.7653422031372,"trial":44,"RT":850,"MT":300,"sideResp":1,"stimulus":"img/900/equaldotanddens/L/10_Ratio_900_L_20_R_18.png","xmouse":[789,789,789,789,789,789,789,789,789,789,789,789,789,789,789,789,789,789,789,789,789,789,789,789,789,789,789,789,789,789,789,789,789,789,789,789,789,789,789,789,779,767,727,644,600,560,539,527,526,525,525,525,525,525,525,525,522,516],"ymouse":[655,655,655,655,655,655,655,655,655,655,655,655,655,655,655,655,655,655,655,655,655,655,655,655,655,655,655,655,655,655,655,655,655,655,655,655,655,655,655,655,636,600,504,251,151,80,36,0,0,0,0,0,0,0,0,0,0,5],"timestamp_mouse":[10,42,51,70,91,111,130,150,171,190,211,231,250,271,290,311,330,350,371,390,410,430,450,471,492,511,530,552,570,590,611,632,650,670,691,712,731,750,771,791,812,831,850,870,891,912,931,952,970,992,1011,1031,1051,1070,1090,1111,1130,1150],"xSR":741.5,"ySR":573.95,"xT1":424.9,"yT1":0,"xT2":1058.1,"yT2":0,"toosoon":0,"cond_shown":"equaldotanddens","ratio_trial":900,"smaller_num":"18","larger_num":"20","correct_side":1,"subjID":"Juan_Felipe_Ospina_Gonzalez_12","gender":"0","age":"11","school":"6"},{"start_time":1551887668457,"click_time":1551887669321,"finger_time":1551887669240,"fix_duration":1077.125235678194,"trial":45,"RT":783,"MT":81,"sideResp":1,"stimulus":"img/750/randomdotsizeEA/L/1_Ratio_750_L_20_R_15.png","xmouse":[784,784,784,784,784,784,784,784,784,784,784,784,784,784,784,784,784,784,784,784,784,784,784,784,784,784,784,784,784,784,784,784,784,784,784,784,784,782,780,747,691,613,540,471],"ymouse":[632,632,632,632,632,632,632,632,632,632,632,632,632,632,632,632,632,632,632,632,632,632,632,632,632,632,632,632,632,632,632,632,632,632,632,632,632,627,620,533,412,283,167,59],"timestamp_mouse":[11,32,42,64,83,103,123,143,163,182,203,222,243,262,282,302,323,342,362,382,404,423,443,462,482,502,522,542,562,582,603,622,643,663,683,703,724,743,763,783,802,823,842,864],"xSR":741.5,"ySR":573.95,"xT1":424.9,"yT1":0,"xT2":1058.1,"yT2":0,"toosoon":0,"cond_shown":"randomdotsizeEA","ratio_trial":750,"smaller_num":"15","larger_num":"20","correct_side":1,"subjID":"Juan_Felipe_Ospina_Gonzalez_12","gender":"0","age":"11","school":"6"},{"start_time":1551887671598,"click_time":1551887673240,"finger_time":1551887672939,"fix_duration":1216.6684806085384,"trial":46,"RT":1341,"MT":301,"sideResp":2,"stimulus":"img/900/randomdotsizeEA/R/6_Ratio_900_L_9_R_10.png","xmouse":[780,780,780,780,780,780,780,780,780,780,782,784,788,788,788,788,788,788,788,788,788,788,788,788,788,788,788,788,788,788,788,788,788,788,788,788,788,788,788,788,788,788,788,788,788,788,788,788,788,788,788,788,788,788,788,788,788,788,788,788,788,788,791,795,800,811,823,860,872,886,905,972,1018,1065,1097,1115,1136,1138,1138,1138,1137,1129,1105],"ymouse":[634,634,634,634,634,634,634,634,634,634,634,633,630,629,629,629,629,629,629,629,629,629,629,629,629,629,629,629,629,629,629,629,629,629,629,629,629,629,629,629,629,629,629,629,629,629,629,629,629,629,629,629,629,629,629,629,629,629,629,629,629,629,626,623,618,609,599,573,562,546,519,423,365,309,271,252,230,221,214,206,193,166,98],"timestamp_mouse":[8,22,42,61,82,103,122,142,162,182,202,221,249,263,281,301,323,341,361,381,401,423,441,462,481,501,523,541,562,582,602,621,642,663,681,702,723,742,761,782,801,822,841,861,881,901,921,942,962,981,1002,1022,1041,1061,1081,1102,1121,1141,1161,1182,1201,1222,1242,1261,1282,1303,1322,1341,1361,1381,1401,1422,1441,1462,1482,1501,1522,1541,1562,1581,1602,1621,1642],"xSR":741.5,"ySR":573.95,"xT1":424.9,"yT1":0,"xT2":1058.1,"yT2":0,"toosoon":0,"cond_shown":"randomdotsizeEA","ratio_trial":900,"smaller_num":"9","larger_num":"10","correct_side":2,"subjID":"Juan_Felipe_Ospina_Gonzalez_12","gender":"0","age":"11","school":"6"},{"start_time":1551887675039,"click_time":1551887675899,"finger_time":1551887675819,"fix_duration":697.5730169689599,"trial":47,"RT":780,"MT":80,"sideResp":2,"stimulus":"img/900/equaldotanddens/L/10_Ratio_900_L_20_R_18.png","xmouse":[782,782,782,782,782,782,782,782,782,782,782,782,782,782,782,782,782,782,782,782,782,782,782,782,782,782,782,782,782,782,782,782,782,782,782,782,785,791,805,830,946,1019,1070,1130],"ymouse":[603,603,603,603,603,603,603,603,603,603,603,603,603,603,603,603,603,603,603,603,603,603,603,603,603,603,603,603,603,603,603,603,603,603,603,603,599,591,574,545,401,308,217,81],"timestamp_mouse":[10,31,41,60,81,101,120,141,160,182,201,220,241,260,282,301,321,341,360,380,402,420,440,460,482,500,521,540,561,580,601,621,642,662,680,701,721,742,762,780,800,821,842,860],"xSR":741.5,"ySR":573.95,"xT1":424.9,"yT1":0,"xT2":1058.1,"yT2":0,"toosoon":0,"cond_shown":"equaldotanddens","ratio_trial":900,"smaller_num":"18","larger_num":"20","correct_side":1,"subjID":"Juan_Felipe_Ospina_Gonzalez_12","gender":"0","age":"11","school":"6"},{"start_time":1551887677921,"click_time":1551887678521,"finger_time":1551887678440,"fix_duration":1298.385929256412,"trial":48,"RT":519,"MT":81,"sideResp":1,"stimulus":"img/750/randomdotsizeEA/L/1_Ratio_750_L_20_R_15.png","xmouse":[788,788,788,788,788,788,788,788,788,788,788,788,788,788,788,788,788,788,788,788,788,788,788,788,788,788,738,684,622,565,496],"ymouse":[631,631,631,631,631,631,631,631,631,631,631,631,631,631,631,631,631,631,631,631,631,631,631,631,631,624,512,386,254,152,43],"timestamp_mouse":[1,28,39,59,78,99,118,139,159,178,198,218,240,258,278,299,319,339,358,378,398,420,438,458,478,499,519,538,560,578,600],"xSR":741.5,"ySR":573.95,"xT1":424.9,"yT1":0,"xT2":1058.1,"yT2":0,"toosoon":0,"cond_shown":"randomdotsizeEA","ratio_trial":750,"smaller_num":"15","larger_num":"20","correct_side":1,"subjID":"Juan_Felipe_Ospina_Gonzalez_12","gender":"0","age":"11","school":"6"},{"start_time":1551887682150,"click_time":1551887683321,"finger_time":1551887683040,"fix_duration":1429.4864521678817,"trial":49,"RT":890,"MT":281,"sideResp":2,"stimulus":"img/500/equaldotsize/R/15_Ratio_500_L_1_R_2.png","xmouse":[791,791,791,791,791,791,791,791,791,791,791,791,791,791,791,791,791,791,791,791,791,791,791,791,791,791,791,791,791,791,791,791,791,791,791,791,791,791,791,791,791,791,800,814,930,1015,1092,1148,1180,1179,1175,1172,1170,1168,1168,1168,1165,1160,1143],"ymouse":[627,627,627,627,627,627,627,627,627,627,627,627,627,627,627,627,627,627,627,627,627,627,627,627,627,627,627,627,627,627,627,627,627,627,627,627,627,627,627,627,627,627,615,582,409,326,249,182,90,71,60,52,47,43,39,39,38,38,45],"timestamp_mouse":[10,30,49,69,89,109,129,150,170,191,209,229,249,269,290,310,330,349,369,389,409,430,449,471,490,511,529,550,569,589,610,630,650,671,690,709,730,749,770,789,809,829,850,870,890,911,931,950,970,989,1010,1030,1049,1070,1089,1110,1130,1149,1170],"xSR":741.5,"ySR":573.95,"xT1":424.9,"yT1":0,"xT2":1058.1,"yT2":0,"toosoon":0,"cond_shown":"equaldotsize","ratio_trial":500,"smaller_num":"1","larger_num":"2","correct_side":2,"subjID":"Juan_Felipe_Ospina_Gonzalez_12","gender":"0","age":"11","school":"6"},{"start_time":1551887685151,"click_time":1551887685920,"finger_time":1551887685840,"fix_duration":1089.0234948524646,"trial":50,"RT":689,"MT":80,"sideResp":2,"stimulus":"img/500/equaldotsize/R/3_Ratio_500_L_10_R_20.png","xmouse":[817,817,817,817,817,817,817,817,817,817,817,817,817,817,817,817,817,817,817,817,817,817,817,817,817,817,817,817,817,817,817,817,817,819,849,888,934,983,1070],"ymouse":[625,625,625,625,625,625,625,625,625,625,625,625,625,625,625,625,625,625,625,625,625,625,625,625,625,625,625,625,625,625,625,625,625,623,540,451,351,243,20],"timestamp_mouse":[9,29,49,68,88,110,129,150,168,189,209,230,248,269,288,308,329,348,370,390,409,429,449,469,488,509,528,549,568,588,609,629,649,670,689,708,728,748,769],"xSR":741.5,"ySR":573.95,"xT1":424.9,"yT1":0,"xT2":1058.1,"yT2":0,"toosoon":0,"cond_shown":"equaldotsize","ratio_trial":500,"smaller_num":"10","larger_num":"20","correct_side":2,"subjID":"Juan_Felipe_Ospina_Gonzalez_12","gender":"0","age":"11","school":"6"},{"start_time":1551887688472,"click_time":1551887689541,"finger_time":1551887689159,"fix_duration":250,"trial":51,"RT":687,"MT":382,"sideResp":1,"stimulus":"img/500/equaldotanddens/L/5_Ratio_500_L_4_R_2.png","xmouse":[797,797,797,797,797,797,797,797,797,797,797,797,797,797,797,797,797,797,797,797,797,797,797,797,797,797,797,797,797,797,797,797,797,785,762,735,698,636,613,598,589,584,582,582,582,582,582,582,581,580,570,551,533,520],"ymouse":[621,621,621,621,621,621,621,621,621,621,621,621,621,621,621,621,621,621,621,621,621,621,621,621,621,621,621,621,621,621,621,621,621,599,554,477,386,178,112,77,51,32,24,24,24,23,21,21,20,20,22,26,30,31],"timestamp_mouse":[9,27,49,68,88,107,129,148,167,188,208,227,248,268,288,307,328,348,368,387,408,428,448,468,487,508,528,548,568,588,608,629,647,667,687,709,727,749,768,788,807,827,849,867,887,907,928,949,969,988,1007,1028,1047,1069],"xSR":741.5,"ySR":573.95,"xT1":424.9,"yT1":0,"xT2":1058.1,"yT2":0,"toosoon":0,"cond_shown":"equaldotanddens","ratio_trial":500,"smaller_num":"2","larger_num":"4","correct_side":1,"subjID":"Juan_Felipe_Ospina_Gonzalez_12","gender":"0","age":"11","school":"6"},{"start_time":1551887690831,"click_time":1551887691821,"finger_time":1551887691620,"fix_duration":250,"trial":52,"RT":789,"MT":201,"sideResp":2,"stimulus":"img/250/equaldotsize/R/8_Ratio_250_L_1_R_4.png","xmouse":[756,756,756,756,756,756,756,756,756,756,756,756,756,756,756,756,756,756,756,756,756,756,756,756,756,756,758,765,769,769,769,769,769,770,775,778,783,794,807,828,891,917,940,955,998,1018,1036,1054,1070,1089],"ymouse":[627,627,627,627,627,627,627,627,627,627,627,627,627,627,627,627,627,627,627,627,627,627,627,627,627,627,628,629,630,630,630,630,630,630,629,626,622,611,594,563,474,431,400,377,291,243,195,152,112,85],"timestamp_mouse":[8,36,48,68,88,108,129,148,168,188,208,229,248,270,288,309,329,348,368,388,409,428,449,469,489,508,529,550,570,589,608,628,649,670,690,709,729,750,769,789,808,829,848,869,890,908,929,948,970,990],"xSR":741.5,"ySR":573.95,"xT1":424.9,"yT1":0,"xT2":1058.1,"yT2":0,"toosoon":0,"cond_shown":"equaldotsize","ratio_trial":250,"smaller_num":"1","larger_num":"4","correct_side":2,"subjID":"Juan_Felipe_Ospina_Gonzalez_12","gender":"0","age":"11","school":"6"},{"start_time":1551887693022,"click_time":1551887694900,"finger_time":1551887694440,"fix_duration":299.6923663458029,"trial":53,"RT":1418,"MT":460,"sideResp":2,"stimulus":"img/900/equaldotsize/L/8_Ratio_900_L_20_R_18.png","xmouse":[803,803,803,803,803,803,803,803,803,803,803,803,803,803,803,803,803,803,803,803,803,803,803,803,803,803,803,803,803,803,803,803,803,803,803,803,803,803,803,803,803,803,803,803,800,794,794,793,793,793,793,793,793,793,793,793,793,793,796,801,802,802,802,802,802,802,802,802,802,809,903,992,1092,1187,1262,1324,1325,1325,1325,1321,1313,1305,1294,1283,1263,1236,1227,1223,1220,1215,1210,1192,1165,1132],"ymouse":[609,609,609,609,609,609,609,609,609,609,609,609,609,609,609,609,609,609,609,609,609,609,609,609,609,609,609,609,609,609,609,609,609,609,609,609,609,609,609,609,609,609,609,607,602,593,593,591,591,591,591,591,591,591,591,591,591,591,592,595,595,595,595,595,595,595,595,595,595,592,486,374,258,155,87,34,30,29,28,28,27,28,33,38,46,60,64,65,66,66,66,66,69,74],"timestamp_mouse":[27,38,58,78,97,117,138,158,177,198,217,238,258,279,297,317,339,357,377,398,417,439,457,477,499,517,539,558,577,597,617,637,659,677,697,718,737,757,779,797,818,837,858,879,897,918,937,957,977,998,1018,1039,1057,1077,1097,1117,1137,1157,1178,1198,1218,1238,1257,1277,1298,1317,1338,1358,1378,1399,1418,1438,1457,1478,1497,1518,1538,1558,1577,1597,1617,1639,1659,1677,1698,1719,1737,1758,1778,1799,1817,1838,1858,1878],"xSR":741.5,"ySR":573.95,"xT1":424.9,"yT1":0,"xT2":1058.1,"yT2":0,"toosoon":0,"cond_shown":"equaldotsize","ratio_trial":900,"smaller_num":"18","larger_num":"20","correct_side":1,"subjID":"Juan_Felipe_Ospina_Gonzalez_12","gender":"0","age":"11","school":"6"},{"start_time":1551887701147,"click_time":1551887701840,"finger_time":1551887701740,"fix_duration":1005.3090556049244,"trial":54,"RT":593,"MT":100,"sideResp":1,"stimulus":"img/750/randomdotsizeEA/R/12_Ratio_750_L_3_R_4.png","xmouse":[782,782,782,782,782,782,782,782,782,782,782,782,782,782,782,782,782,782,782,782,782,782,782,782,782,782,782,774,767,708,666,622,588,551,504],"ymouse":[610,610,610,610,610,610,610,610,610,610,610,610,610,610,610,610,610,610,610,610,610,610,610,610,610,610,610,610,609,512,432,348,264,191,88],"timestamp_mouse":[13,35,52,73,93,112,133,152,172,194,212,232,254,272,292,313,333,352,374,394,413,432,452,474,493,513,533,554,573,593,612,633,653,673,693],"xSR":741.5,"ySR":573.95,"xT1":424.9,"yT1":0,"xT2":1058.1,"yT2":0,"toosoon":0,"cond_shown":"randomdotsizeEA","ratio_trial":750,"smaller_num":"3","larger_num":"4","correct_side":2,"subjID":"Juan_Felipe_Ospina_Gonzalez_12","gender":"0","age":"11","school":"6"},{"start_time":1551887703580,"click_time":1551887704640,"finger_time":1551887704340,"fix_duration":779.1860301264678,"trial":55,"RT":760,"MT":300,"sideResp":1,"stimulus":"img/250/equaldotanddens/L/3_Ratio_250_L_8_R_2.png","xmouse":[786,786,786,786,786,786,786,786,786,786,786,786,786,786,786,786,786,786,786,786,786,786,786,786,786,786,786,786,786,786,786,786,786,786,786,785,769,737,706,680,663,653,627,605,565,532,516,512,512,512,512,513,511],"ymouse":[636,636,636,636,636,636,636,636,636,636,636,636,636,636,636,636,636,636,636,636,636,636,636,636,636,636,636,636,636,636,636,636,636,636,636,632,587,515,448,393,355,330,281,255,214,184,171,154,148,139,126,110,88],"timestamp_mouse":[19,40,59,79,99,119,140,160,181,199,220,239,260,280,300,319,341,360,379,401,419,439,460,479,500,519,540,559,579,599,621,640,660,680,699,719,740,760,780,800,819,839,860,880,899,921,940,959,980,999,1019,1039,1059],"xSR":741.5,"ySR":573.95,"xT1":424.9,"yT1":0,"xT2":1058.1,"yT2":0,"toosoon":0,"cond_shown":"equaldotanddens","ratio_trial":250,"smaller_num":"2","larger_num":"8","correct_side":1,"subjID":"Juan_Felipe_Ospina_Gonzalez_12","gender":"0","age":"11","school":"6"},{"start_time":1551887706591,"click_time":1551887707899,"finger_time":1551887707140,"fix_duration":1230.9438568701246,"trial":56,"RT":549,"MT":759,"sideResp":1,"stimulus":"img/500/equaldotanddens/L/4_Ratio_500_L_18_R_9.png","xmouse":[825,825,825,825,825,825,825,825,825,825,825,825,825,825,825,825,825,825,825,825,825,825,825,825,825,825,811,791,750,690,618,578,540,541,545,548,551,551,551,551,551,551,551,551,551,551,552,557,559,559,559,548,541,533,523,519,516,515,515,513,510,510,510,510,512,514],"ymouse":[590,590,590,590,590,590,590,590,590,590,590,590,590,590,590,590,590,590,590,590,590,590,590,590,590,590,576,554,518,447,349,301,239,233,225,218,213,213,212,211,211,209,201,193,180,166,158,136,127,121,115,90,87,95,102,106,108,108,108,108,107,107,106,103,101,98],"timestamp_mouse":[9,28,48,69,90,109,129,148,168,188,209,228,249,268,290,309,328,349,369,389,409,429,449,470,489,509,529,549,568,589,608,628,648,669,690,709,728,749,768,788,809,830,849,868,889,908,929,949,969,989,1008,1030,1048,1070,1089,1110,1129,1149,1168,1189,1210,1228,1248,1269,1289,1308],"xSR":741.5,"ySR":573.95,"xT1":424.9,"yT1":0,"xT2":1058.1,"yT2":0,"toosoon":0,"cond_shown":"equaldotanddens","ratio_trial":500,"smaller_num":"9","larger_num":"18","correct_side":1,"subjID":"Juan_Felipe_Ospina_Gonzalez_12","gender":"0","age":"11","school":"6"},{"start_time":1551887713524,"click_time":1551887714501,"finger_time":1551887714240,"fix_duration":784.1297252882374,"trial":57,"RT":716,"MT":261,"sideResp":2,"stimulus":"img/750/equaldotsize/R/11_Ratio_750_L_12_R_16.png","xmouse":[803,803,803,803,803,803,803,803,803,803,803,803,803,803,803,803,803,803,803,803,803,803,803,803,803,803,803,803,803,803,803,803,803,803,803,808,842,895,947,990,1042,1048,1051,1052,1053,1053,1055,1058,1065],"ymouse":[616,616,616,616,616,616,616,616,616,616,616,616,616,616,616,616,616,616,616,616,616,616,616,616,616,616,616,616,616,616,616,616,616,611,592,567,481,375,279,202,95,79,71,66,56,49,40,27,9],"timestamp_mouse":[17,38,57,76,96,116,135,157,176,196,215,235,256,277,296,316,337,355,376,395,416,435,456,476,497,517,536,557,575,595,616,635,656,675,696,716,735,756,775,795,815,835,855,876,896,915,935,956,977],"xSR":741.5,"ySR":573.95,"xT1":424.9,"yT1":0,"xT2":1058.1,"yT2":0,"toosoon":0,"cond_shown":"equaldotsize","ratio_trial":750,"smaller_num":"12","larger_num":"16","correct_side":2,"subjID":"Juan_Felipe_Ospina_Gonzalez_12","gender":"0","age":"11","school":"6"},{"start_time":1551887718048,"click_time":1551887718959,"finger_time":1551887718900,"fix_duration":1347.173816376614,"trial":58,"RT":852,"MT":59,"sideResp":1,"stimulus":"img/250/randomdotsizeEA/L/1_Ratio_250_L_8_R_2.png","xmouse":[797,797,797,797,797,797,797,797,797,797,797,797,797,797,797,797,797,797,797,797,797,797,797,797,797,797,797,797,796,793,793,793,793,793,793,793,793,793,793,793,793,783,763,658,506,448],"ymouse":[643,643,643,643,643,643,643,643,643,643,643,643,643,643,643,643,643,643,643,643,643,643,643,643,643,643,643,643,629,621,620,620,620,620,620,620,620,620,620,620,620,605,570,396,182,97],"timestamp_mouse":[11,41,51,72,91,113,131,152,173,191,211,233,251,271,291,311,331,352,371,393,411,432,453,472,492,511,533,551,571,592,611,631,651,671,691,712,731,751,771,791,811,832,852,871,891,911],"xSR":741.5,"ySR":573.95,"xT1":424.9,"yT1":0,"xT2":1058.1,"yT2":0,"toosoon":0,"cond_shown":"randomdotsizeEA","ratio_trial":250,"smaller_num":"2","larger_num":"8","correct_side":1,"subjID":"Juan_Felipe_Ospina_Gonzalez_12","gender":"0","age":"11","school":"6"},{"start_time":1551887720452,"click_time":1551887721840,"finger_time":1551887721300,"fix_duration":250,"trial":59,"RT":848,"MT":540,"sideResp":1,"stimulus":"img/750/randomdotsizeEA/L/13_Ratio_750_L_8_R_6.png","xmouse":[834,834,834,834,834,834,834,834,834,834,834,834,834,834,834,834,834,834,834,834,834,834,834,834,834,834,834,834,834,834,834,834,834,834,834,834,834,834,834,834,833,828,823,816,792,771,737,699,671,620,604,597,592,591,591,591,591,591,591,591,590,589,581,577,548,540,530,527,525,524],"ymouse":[606,606,606,606,606,606,606,606,606,606,606,606,606,606,606,606,606,606,606,606,606,606,606,606,606,606,606,606,606,606,606,606,606,606,606,606,606,606,606,606,601,590,566,541,453,406,353,309,279,220,193,173,140,115,78,70,65,63,63,62,62,60,58,57,47,47,47,47,47,49],"timestamp_mouse":[9,34,48,67,88,108,129,147,167,187,207,227,249,268,287,308,327,348,368,388,408,427,447,467,487,507,527,548,568,587,607,627,648,668,688,708,728,747,767,787,807,829,848,868,888,907,927,949,967,987,1007,1027,1047,1067,1087,1108,1127,1148,1167,1187,1207,1229,1248,1267,1288,1308,1327,1348,1367,1388],"xSR":741.5,"ySR":573.95,"xT1":424.9,"yT1":0,"xT2":1058.1,"yT2":0,"toosoon":0,"cond_shown":"randomdotsizeEA","ratio_trial":750,"smaller_num":"6","larger_num":"8","correct_side":1,"subjID":"Juan_Felipe_Ospina_Gonzalez_12","gender":"0","age":"11","school":"6"},{"start_time":1551887723810,"click_time":1551887725280,"finger_time":1551887725181,"fix_duration":549.5060626390019,"trial":60,"RT":1371,"MT":99,"sideResp":2,"stimulus":"img/500/randomdotsizeEA/R/1_Ratio_500_L_9_R_18.png","xmouse":[771,772,772,772,772,772,772,772,772,774,774,775,776,777,777,777,777,777,777,777,777,777,777,777,777,777,777,777,777,777,777,777,777,777,777,777,777,777,777,777,777,777,777,777,777,777,777,777,777,777,777,777,777,777,777,777,777,777,777,777,777,777,777,777,777,778,786,797,820,861,969,1030,1081,1118],"ymouse":[639,637,636,636,636,636,636,636,636,635,635,633,633,633,633,633,632,632,632,632,632,632,632,632,632,632,632,632,632,632,632,632,632,632,632,632,632,632,632,632,632,632,632,632,632,632,632,632,632,632,632,632,632,632,632,632,632,632,632,632,632,632,632,632,632,632,621,605,568,506,329,224,133,72],"timestamp_mouse":[12,37,49,69,91,109,130,149,169,190,209,229,250,270,289,311,331,350,369,389,411,429,449,470,490,510,530,550,569,590,609,629,649,669,690,709,731,750,769,789,810,830,850,870,889,909,929,950,970,990,1009,1029,1049,1069,1089,1110,1129,1150,1169,1190,1209,1229,1250,1270,1289,1309,1329,1349,1371,1390,1410,1429,1449,1470],"xSR":741.5,"ySR":573.95,"xT1":424.9,"yT1":0,"xT2":1058.1,"yT2":0,"toosoon":0,"cond_shown":"randomdotsizeEA","ratio_trial":500,"smaller_num":"9","larger_num":"18","correct_side":2,"subjID":"Juan_Felipe_Ospina_Gonzalez_12","gender":"0","age":"11","school":"6"},{"start_time":1551887726842,"click_time":1551887727920,"finger_time":1551887727839,"fix_duration":680.3065897040638,"trial":61,"RT":997,"MT":81,"sideResp":1,"stimulus":"img/500/randomdotsizeEA/L/7_Ratio_500_L_10_R_5.png","xmouse":[778,778,778,778,778,778,778,778,778,778,778,778,778,778,778,778,778,778,778,778,778,778,778,778,778,778,778,778,778,778,778,778,778,778,778,778,778,778,778,778,778,778,778,778,778,778,778,778,778,771,747,698,620,474],"ymouse":[601,601,601,601,601,601,601,601,601,601,601,601,601,601,601,601,601,601,601,601,601,601,601,601,601,601,601,601,601,601,601,601,601,601,601,601,601,601,601,601,601,601,601,601,601,601,601,601,594,552,475,360,228,50],"timestamp_mouse":[27,37,57,79,97,117,138,157,177,197,217,237,258,277,297,318,337,359,377,397,418,437,457,477,498,517,538,557,577,598,617,637,657,677,697,718,738,758,778,797,817,838,857,878,897,918,937,958,977,997,1017,1038,1057,1078],"xSR":741.5,"ySR":573.95,"xT1":424.9,"yT1":0,"xT2":1058.1,"yT2":0,"toosoon":0,"cond_shown":"randomdotsizeEA","ratio_trial":500,"smaller_num":"5","larger_num":"10","correct_side":1,"subjID":"Juan_Felipe_Ospina_Gonzalez_12","gender":"0","age":"11","school":"6"},{"start_time":1551887730104,"click_time":1551887731100,"finger_time":1551887730920,"fix_duration":1263.564525961529,"trial":62,"RT":816,"MT":180,"sideResp":1,"stimulus":"img/250/randomdotsizeEA/L/7_Ratio_250_L_8_R_2.png","xmouse":[796,796,796,796,796,796,796,796,796,796,796,796,796,796,796,796,796,796,796,796,796,796,796,796,796,796,796,796,796,796,796,796,796,796,796,796,796,796,796,793,759,640,582,515,470,441,429,428,430,434],"ymouse":[648,648,648,648,648,648,648,648,648,648,648,648,648,648,648,648,648,648,648,648,648,648,648,648,648,648,648,648,648,648,648,648,648,648,648,648,648,648,644,625,490,325,292,252,217,193,167,148,112,72],"timestamp_mouse":[28,35,55,76,96,116,135,155,175,196,215,235,256,276,295,316,335,355,375,395,415,435,455,476,496,515,536,556,576,595,615,636,656,676,695,716,736,755,775,795,816,836,855,875,895,916,935,957,975,996],"xSR":741.5,"ySR":573.95,"xT1":424.9,"yT1":0,"xT2":1058.1,"yT2":0,"toosoon":0,"cond_shown":"randomdotsizeEA","ratio_trial":250,"smaller_num":"2","larger_num":"8","correct_side":1,"subjID":"Juan_Felipe_Ospina_Gonzalez_12","gender":"0","age":"11","school":"6"},{"start_time":1551887733149,"click_time":1551887734420,"finger_time":1551887734299,"fix_duration":1229.678651124785,"trial":63,"RT":1150,"MT":121,"sideResp":1,"stimulus":"img/750/equaldotsize/L/9_Ratio_750_L_4_R_3.png","xmouse":[812,812,812,812,812,812,812,812,812,812,812,812,812,812,812,812,812,812,812,812,812,812,812,812,812,812,812,812,812,812,812,812,812,812,812,812,812,812,812,812,812,812,812,812,812,812,812,812,812,812,812,812,812,812,812,812,809,791,779,674,633,585,545,512],"ymouse":[631,631,631,631,631,631,631,631,631,631,631,631,631,631,631,631,631,631,631,631,631,631,631,631,631,631,631,631,631,631,631,631,631,631,631,631,631,631,631,631,631,631,631,631,631,631,631,631,631,631,631,631,631,631,631,626,611,548,504,261,184,113,56,14],"timestamp_mouse":[10,30,51,71,91,110,130,151,170,190,211,230,251,270,290,311,331,351,370,391,411,431,450,471,491,511,530,552,570,591,611,630,650,670,690,710,730,750,770,790,811,831,851,872,891,911,931,952,970,991,1010,1031,1050,1070,1090,1111,1130,1150,1171,1190,1210,1231,1251,1271],"xSR":741.5,"ySR":573.95,"xT1":424.9,"yT1":0,"xT2":1058.1,"yT2":0,"toosoon":0,"cond_shown":"equaldotsize","ratio_trial":750,"smaller_num":"3","larger_num":"4","correct_side":1,"subjID":"Juan_Felipe_Ospina_Gonzalez_12","gender":"0","age":"11","school":"6"},{"start_time":1551887736640,"click_time":1551887737820,"finger_time":1551887737440,"fix_duration":1478.339012391507,"trial":64,"RT":800,"MT":380,"sideResp":1,"stimulus":"img/750/equaldotsize/R/11_Ratio_750_L_12_R_16.png","xmouse":[788,788,788,788,788,788,788,788,788,788,788,788,788,788,788,788,788,788,788,788,788,788,788,788,788,788,788,788,788,788,788,788,788,788,788,788,788,788,788,778,769,757,738,714,673,629,609,589,566,541,515,511,510,510,510,510,510,510,509,507],"ymouse":[618,618,618,618,618,618,618,618,618,618,618,618,618,618,618,618,618,618,618,618,618,618,618,618,618,618,618,618,618,618,618,618,618,618,618,618,618,616,612,577,547,508,441,354,254,176,161,150,140,130,120,117,117,117,117,117,117,115,108,98],"timestamp_mouse":[1,31,40,60,79,99,120,139,159,180,200,220,239,260,280,299,320,339,360,380,399,420,439,461,480,500,519,539,559,580,599,619,640,661,679,700,720,739,760,780,800,819,839,859,879,900,920,940,959,979,1000,1020,1039,1059,1080,1099,1120,1141,1160,1180],"xSR":741.5,"ySR":573.95,"xT1":424.9,"yT1":0,"xT2":1058.1,"yT2":0,"toosoon":0,"cond_shown":"equaldotsize","ratio_trial":750,"smaller_num":"12","larger_num":"16","correct_side":2,"subjID":"Juan_Felipe_Ospina_Gonzalez_12","gender":"0","age":"11","school":"6"},{"start_time":1551887739227,"click_time":1551887740021,"finger_time":1551887739939,"fix_duration":385.8998578274241,"trial":65,"RT":712,"MT":82,"sideResp":2,"stimulus":"img/500/equaldotanddens/R/2_Ratio_500_L_3_R_6.png","xmouse":[816,816,816,816,816,816,816,816,816,816,816,816,816,816,816,816,816,816,816,816,816,816,816,816,816,816,816,816,816,816,816,816,816,816,825,867,909,965,1017,1105],"ymouse":[645,645,645,645,645,645,645,645,645,645,645,645,645,645,645,645,645,645,645,645,645,645,645,645,645,645,645,645,645,645,645,645,645,645,617,521,434,325,225,63],"timestamp_mouse":[12,37,52,72,92,112,133,153,173,194,212,232,254,273,292,312,332,353,373,392,413,432,453,473,493,512,532,553,573,593,612,633,654,672,693,712,733,752,772,793],"xSR":741.5,"ySR":573.95,"xT1":424.9,"yT1":0,"xT2":1058.1,"yT2":0,"toosoon":0,"cond_shown":"equaldotanddens","ratio_trial":500,"smaller_num":"3","larger_num":"6","correct_side":2,"subjID":"Juan_Felipe_Ospina_Gonzalez_12","gender":"0","age":"11","school":"6"},{"start_time":1551887741131,"click_time":1551887742379,"finger_time":1551887741819,"fix_duration":250,"trial":66,"RT":688,"MT":560,"sideResp":1,"stimulus":"img/500/equaldotsize/L/13_Ratio_500_L_12_R_6.png","xmouse":[811,811,811,810,810,809,809,809,809,809,809,809,809,809,809,809,809,809,809,809,809,809,809,809,809,809,809,809,809,809,809,807,797,780,735,620,551,475,411,342,337,336,336,336,336,336,336,336,355,376,542,596,628,636,636,633,624,612,604,598,556,536,521],"ymouse":[646,638,636,635,635,635,635,635,635,635,635,635,635,635,635,635,635,635,635,635,635,635,635,635,635,635,635,635,635,635,634,632,623,593,515,274,134,0,0,0,0,0,0,0,0,0,0,3,31,52,195,244,269,274,274,274,260,234,199,170,97,75,64],"timestamp_mouse":[11,34,48,69,89,108,129,149,168,188,208,228,248,268,289,308,329,349,368,388,409,430,448,468,488,508,529,548,568,588,609,629,648,668,688,708,729,748,768,790,808,828,848,869,889,908,928,949,969,988,1009,1028,1049,1068,1090,1108,1128,1149,1168,1189,1208,1229,1248],"xSR":741.5,"ySR":573.95,"xT1":424.9,"yT1":0,"xT2":1058.1,"yT2":0,"toosoon":0,"cond_shown":"equaldotsize","ratio_trial":500,"smaller_num":"6","larger_num":"12","correct_side":1,"subjID":"Juan_Felipe_Ospina_Gonzalez_12","gender":"0","age":"11","school":"6"},{"start_time":1551887743131,"click_time":1551887743700,"finger_time":1551887743620,"fix_duration":250,"trial":67,"RT":489,"MT":80,"sideResp":1,"stimulus":"img/750/equaldotsize/L/8_Ratio_750_L_4_R_3.png","xmouse":[794,796,796,796,797,797,797,797,797,797,797,797,797,797,797,797,797,797,797,797,797,797,797,797,783,665,596,532,449],"ymouse":[599,603,605,606,607,607,607,607,607,607,607,607,607,607,607,607,607,607,607,607,607,607,607,589,558,363,268,173,56],"timestamp_mouse":[10,28,50,70,88,109,128,149,168,189,208,229,249,269,288,308,328,348,369,389,409,428,449,469,489,509,528,548,569],"xSR":741.5,"ySR":573.95,"xT1":424.9,"yT1":0,"xT2":1058.1,"yT2":0,"toosoon":0,"cond_shown":"equaldotsize","ratio_trial":750,"smaller_num":"3","larger_num":"4","correct_side":1,"subjID":"Juan_Felipe_Ospina_Gonzalez_12","gender":"0","age":"11","school":"6"},{"start_time":1551887745000,"click_time":1551887745660,"finger_time":1551887745460,"fix_duration":379.84289488646294,"trial":68,"RT":460,"MT":200,"sideResp":2,"stimulus":"img/250/equaldotsize/R/12_Ratio_250_L_5_R_20.png","xmouse":[790,790,790,790,790,790,790,790,790,790,790,790,790,790,790,790,790,790,790,790,790,806,842,891,946,992,1068,1087,1101,1109,1117,1120,1123],"ymouse":[640,640,640,640,640,640,640,640,640,640,640,640,640,640,640,640,640,640,640,640,640,624,567,489,403,323,190,162,139,126,108,101,91],"timestamp_mouse":[20,39,59,79,100,119,140,160,180,200,220,239,259,279,299,320,340,360,380,399,419,440,460,480,500,520,539,559,580,599,621,639,660],"xSR":741.5,"ySR":573.95,"xT1":424.9,"yT1":0,"xT2":1058.1,"yT2":0,"toosoon":0,"cond_shown":"equaldotsize","ratio_trial":250,"smaller_num":"5","larger_num":"20","correct_side":2,"subjID":"Juan_Felipe_Ospina_Gonzalez_12","gender":"0","age":"11","school":"6"},{"start_time":1551887747465,"click_time":1551887748120,"finger_time":1551887748020,"fix_duration":1102.9032432217525,"trial":69,"RT":555,"MT":100,"sideResp":1,"stimulus":"img/750/randomdotsizeEA/R/12_Ratio_750_L_3_R_4.png","xmouse":[781,781,781,781,781,781,781,781,781,781,781,781,781,781,781,781,781,781,781,781,781,781,781,781,781,781,781,766,716,665,609,512,459],"ymouse":[582,582,582,582,582,582,582,582,582,582,582,582,582,582,582,582,582,582,582,582,582,582,582,582,582,582,582,560,464,379,277,119,30],"timestamp_mouse":[14,34,55,74,94,115,134,154,174,195,214,234,254,275,295,315,334,355,376,394,416,435,455,474,495,515,535,555,574,595,615,634,654],"xSR":741.5,"ySR":573.95,"xT1":424.9,"yT1":0,"xT2":1058.1,"yT2":0,"toosoon":0,"cond_shown":"randomdotsizeEA","ratio_trial":750,"smaller_num":"3","larger_num":"4","correct_side":2,"subjID":"Juan_Felipe_Ospina_Gonzalez_12","gender":"0","age":"11","school":"6"},{"start_time":1551887749321,"click_time":1551887750639,"finger_time":1551887750119,"fix_duration":480.40646483123504,"trial":70,"RT":798,"MT":520,"sideResp":2,"stimulus":"img/750/randomdotsizeEA/R/11_Ratio_750_L_12_R_16.png","xmouse":[781,781,781,781,781,781,781,781,781,781,781,781,781,781,781,781,781,781,781,781,781,781,781,781,781,781,781,781,781,782,783,783,783,783,783,783,783,788,797,827,938,979,997,1023,1039,1063,1071,1080,1083,1087,1109,1120,1134,1148,1157,1176,1181,1182,1182,1182,1182,1183,1180,1176,1169,1151],"ymouse":[637,637,637,637,637,637,637,637,637,637,637,637,637,637,637,637,637,637,637,637,637,637,637,637,637,637,637,637,637,635,634,633,633,633,633,633,633,629,603,493,140,46,14,0,0,0,0,0,0,0,0,0,0,0,0,0,0,0,0,0,0,0,6,12,21,46],"timestamp_mouse":[18,42,58,79,98,119,138,158,178,198,218,238,260,279,299,318,339,359,378,398,419,438,458,479,498,518,538,558,580,599,619,639,659,678,698,719,738,758,779,798,818,839,858,879,898,918,940,959,980,998,1019,1038,1058,1079,1099,1118,1139,1158,1178,1198,1219,1238,1258,1278,1298,1318],"xSR":741.5,"ySR":573.95,"xT1":424.9,"yT1":0,"xT2":1058.1,"yT2":0,"toosoon":0,"cond_shown":"randomdotsizeEA","ratio_trial":750,"smaller_num":"12","larger_num":"16","correct_side":2,"subjID":"Juan_Felipe_Ospina_Gonzalez_12","gender":"0","age":"11","school":"6"},{"start_time":1551887752734,"click_time":1551887753380,"finger_time":1551887753279,"fix_duration":1392.969489437018,"trial":71,"RT":545,"MT":101,"sideResp":2,"stimulus":"img/500/equaldotanddens/R/2_Ratio_500_L_3_R_6.png","xmouse":[793,793,793,793,793,793,793,793,793,793,793,793,793,793,793,793,793,793,793,793,793,793,793,793,793,793,820,855,919,979,1048,1054,1061],"ymouse":[636,636,636,636,636,636,636,636,636,636,636,636,636,636,636,636,636,636,636,636,636,636,636,636,636,636,588,539,432,318,108,82,58],"timestamp_mouse":[11,30,46,65,85,105,126,147,166,186,206,226,246,265,286,305,326,345,366,387,405,426,445,465,486,506,525,545,565,586,605,625,645],"xSR":741.5,"ySR":573.95,"xT1":424.9,"yT1":0,"xT2":1058.1,"yT2":0,"toosoon":0,"cond_shown":"equaldotanddens","ratio_trial":500,"smaller_num":"3","larger_num":"6","correct_side":2,"subjID":"Juan_Felipe_Ospina_Gon