[{"start_time":1551800582167,"click_time":1551800584261,"finger_time":1551800583660,"fix_duration":544.6944768778583,"trial":0,"RT":1493,"MT":601,"sideResp":1,"stimulus":[],"xmouse":[775,775,775,775,775,775,775,775,775,775,775,775,775,775,775,775,775,775,775,775,775,775,775,775,775,775,775,775,775,775,775,775,775,775,775,775,775,775,775,775,775,775,775,775,775,775,775,775,775,775,775,775,775,775,775,775,775,775,775,775,775,775,775,775,775,775,775,775,775,764,756,752,745,742,734,716,696,622,604,589,576,549,533,511,488,470,459,459,459,461,464,466,467,469,472,473,473,467,463,461,458,456,456,456,461],"ymouse":[549,549,549,549,549,549,549,549,549,549,549,549,549,549,549,549,549,549,549,549,549,549,549,549,549,549,549,549,549,549,549,549,549,549,549,549,549,549,549,549,549,549,549,549,549,549,549,549,549,549,549,549,549,549,549,549,549,549,549,549,549,549,549,549,549,549,549,549,547,543,541,539,536,533,527,515,499,458,449,443,437,425,418,410,400,390,377,366,348,323,301,275,218,194,178,169,161,144,137,131,124,112,108,103,91],"timestamp_mouse":[14,34,53,73,94,113,133,152,173,194,214,233,254,274,293,314,333,353,374,392,413,433,453,474,493,513,533,554,572,594,613,633,654,672,692,713,734,754,774,793,812,833,853,873,894,913,933,954,973,993,1013,1033,1054,1073,1093,1112,1133,1154,1172,1193,1214,1232,1253,1273,1293,1313,1334,1352,1372,1394,1413,1433,1453,1473,1493,1514,1533,1554,1573,1592,1612,1634,1653,1673,1693,1713,1734,1753,1772,1792,1813,1832,1852,1873,1893,1913,1934,1953,1973,1994,2013,2033,2053,2073,2093],"xSR":741.5,"ySR":469.95,"xT1":424.9,"yT1":0,"xT2":1058.1,"yT2":0,"toosoon":0,"cond_shown":"Incongruent","ratio_trial":200,"L_num":4,"L_den":5,"R_num":6,"R_den":10,"correct_side":1,"subjID":"juanfelipeporrasduarte8","gender":"0","age":"11","school":"6","test":{"fix_dur":[250,1500],"timestim":1000,"targets_dim":[100,100],"targets_relative_coord":[0.3,0.7],"size_stim":[880,420],"start_dim":[100,100],"size_start":[300,300],"size_fix":60,"samplingrate":20,"img_types":["Congruent","Incongruent"],"ratios":[100,200,300],"rep_conds":19,"nTrials":120,"trials_to_rest":500,"Trials_order":[117,55,10,20,119,93,19,115,5,78,47,18,79,24,51,118,44,105,57,36,62,104,91,61,80,96,43,27,89,83,3,35,85,84,40,42,23,31,97,94,39,69,14,67,60,4,0,32,103,59,16,50,108,86,13,2,99,112,1,64,95,92,54,98,33,17,6,22,49,88,72,11,109,75,113,34,38,82,15,102,81,63,45,107,101,116,68,100,52,70,73,110,46,9,30,87,29,12,111,58,77,76,26,56,25,53,41,74,66,65,37,71,21,28,8,106,90,48,114,7],"cond_shown":["Incongruent","Incongruent","Congruent","Congruent","Incongruent","Incongruent","Incongruent","Incongruent","Incongruent","Congruent","Incongruent","Congruent","Incongruent","Congruent","Incongruent","Congruent","Congruent","Incongruent","Incongruent","Congruent","Congruent","Congruent","Incongruent","Incongruent","Congruent","Congruent","Incongruent","Incongruent","Incongruent","Incongruent","Incongruent","Incongruent","Incongruent","Congruent","Congruent","Congruent","Incongruent","Incongruent","Incongruent","Congruent","Incongruent","Incongruent","Congruent","Incongruent","Congruent","Congruent","Congruent","Congruent","Incongruent","Incongruent","Congruent","Congruent","Congruent","Congruent","Incongruent","Congruent","Incongruent","Congruent","Incongruent","Congruent","Incongruent","Congruent","Congruent","Congruent","Incongruent","Incongruent","Congruent","Congruent","Incongruent","Congruent","Congruent","Incongruent","Incongruent","Incongruent","Incongruent","Congruent","Congruent","Congruent","Incongruent","Congruent","Incongruent","Incongruent","Incongruent","Incongruent","Incongruent","Congruent","Congruent","Congruent","Congruent","Congruent","Incongruent","Congruent","Congruent","Incongruent","Congruent","Incongruent","Incongruent","Congruent","Incongruent","Congruent","Incongruent","Congruent","Congruent","Congruent","Incongruent","Incongruent","Incongruent","Congruent","Congruent","Incongruent","Incongruent","Incongruent","Incongruent","Congruent","Congruent","Congruent","Congruent","Congruent","Congruent","Incongruent"],"ratio_trial":[200,100,300,200,300,200,100,100,300,100,300,100,100,100,200,300,200,200,200,100,200,200,100,100,200,100,100,200,300,300,200,300,100,100,300,100,300,100,100,300,200,200,200,100,100,300,100,200,100,300,300,200,100,200,100,200,200,300,100,300,300,200,100,200,200,300,100,300,100,300,100,300,100,200,300,300,200,300,200,100,200,200,200,300,300,200,200,300,300,300,100,200,300,200,100,200,300,100,200,300,300,300,200,200,100,300,300,200,100,300,100,300,200,300,200,300,100,100,100,100],"left_num":[4,2,20,7,13,11,6,13,13,6,7,8,6,10,14,24,12,1,7,11,3,3,9,6,4,3,3,6,13,13,4,4,2,10,24,7,1,17,8,18,14,7,12,3,1,8,6,9,9,1,3,11,11,6,13,12,6,2,13,3,7,8,6,8,7,2,7,8,12,4,11,4,8,11,8,3,13,20,7,7,7,7,1,7,1,3,12,1,2,20,9,21,20,7,11,4,13,15,1,1,13,7,6,12,3,8,4,9,7,13,9,4,3,5,5,1,12,11,11,6],"right_num":[6,8,9,18,12,3,11,12,12,15,8,2,3,3,12,2,6,2,4,6,7,14,20,3,3,2,8,3,12,12,14,2,6,3,2,9,3,10,1,9,12,14,6,11,3,10,5,13,6,2,2,3,4,7,6,6,3,10,12,4,8,7,15,2,8,6,15,1,2,13,4,2,1,3,14,4,14,13,8,15,14,8,2,8,2,14,6,8,12,8,20,2,5,14,6,14,12,13,3,3,12,20,3,6,11,14,6,13,9,12,6,2,11,7,14,3,13,4,6,7],"left_den":[5,4,25,15,26,20,10,26,26,12,10,16,12,25,30,30,15,3,15,22,10,6,10,12,8,6,5,20,26,26,6,20,4,25,30,14,2,30,20,20,30,10,20,5,2,15,20,30,18,2,6,22,22,12,26,20,20,20,26,6,10,15,12,15,10,4,14,16,30,20,22,20,20,20,10,6,26,25,10,14,10,10,3,10,2,6,15,30,10,25,10,30,25,10,22,6,26,25,2,5,26,14,15,20,5,10,5,30,14,26,18,20,4,25,10,5,30,22,22,10],"right_den":[10,20,18,27,15,4,22,20,15,25,20,5,5,10,18,4,10,15,6,15,14,20,25,5,10,5,16,6,15,15,30,4,15,10,4,15,15,15,2,15,18,28,15,22,5,12,25,26,10,10,10,10,10,10,10,15,6,25,20,5,20,21,25,6,16,30,25,5,4,26,10,4,2,4,28,5,20,26,16,25,28,16,15,20,10,20,10,24,24,16,25,4,10,28,15,30,15,26,10,6,15,25,15,15,22,28,12,26,15,15,10,4,20,14,20,6,26,10,15,14],"correct_side":[1,1,1,2,2,2,1,2,2,2,1,1,2,1,2,1,1,1,2,1,2,2,1,2,1,1,1,2,2,2,1,2,1,1,1,2,1,2,2,1,2,1,1,1,2,2,1,2,2,1,1,1,1,2,2,1,2,2,2,2,1,1,2,1,1,1,2,1,2,2,1,2,2,2,1,2,2,1,1,2,1,1,1,1,1,2,1,2,2,1,1,1,1,1,1,1,2,1,1,2,2,2,1,1,1,1,1,2,2,2,2,2,1,2,2,2,2,1,1,1],"img_shown":["img2/200/Incongruent/L/I_Dist_200_LN_4_LD_5_RN_6_RD_10_0.png","img2/100/Incongruent/L/I_Dist_100_LN_2_LD_4_RN_8_RD_20_0.png","img2/300/Congruent/L/C_Dist_300_LN_20_LD_25_RN_9_RD_18_0.png","img2/200/Congruent/R/C_Dist_200_LN_7_LD_15_RN_18_RD_27_1.png","img2/300/Incongruent/R/I_Dist_300_LN_13_LD_26_RN_12_RD_15_1.png","img2/200/Incongruent/R/I_Dist_200_LN_11_LD_20_RN_3_RD_4_1.png","img2/100/Incongruent/L/I_Dist_100_LN_6_LD_10_RN_11_RD_22_0.png","img2/100/Incongruent/R/I_Dist_100_LN_13_LD_26_RN_12_RD_20_1.png","img2/300/Incongruent/R/I_Dist_300_LN_13_LD_26_RN_12_RD_15_1.png","img2/100/Congruent/R/C_Dist_100_LN_6_LD_12_RN_15_RD_25_1.png","img2/300/Incongruent/L/I_Dist_300_LN_7_LD_10_RN_8_RD_20_0.png","img2/100/Congruent/L/C_Dist_100_LN_8_LD_16_RN_2_RD_5_0.png","img2/100/Incongruent/R/I_Dist_100_LN_6_LD_12_RN_3_RD_5_1.png","img2/100/Congruent/L/C_Dist_100_LN_10_LD_25_RN_3_RD_10_0.png","img2/200/Incongruent/R/I_Dist_200_LN_14_LD_30_RN_12_RD_18_1.png","img2/300/Congruent/L/C_Dist_300_LN_24_LD_30_RN_2_RD_4_0.png","img2/200/Congruent/L/C_Dist_200_LN_12_LD_15_RN_6_RD_10_0.png","img2/200/Incongruent/L/I_Dist_200_LN_1_LD_3_RN_2_RD_15_0.png","img2/200/Incongruent/R/I_Dist_200_LN_7_LD_15_RN_4_RD_6_1.png","img2/100/Congruent/L/C_Dist_100_LN_11_LD_22_RN_6_RD_15_0.png","img2/200/Congruent/R/C_Dist_200_LN_3_LD_10_RN_7_RD_14_1.png","img2/200/Congruent/R/C_Dist_200_LN_3_LD_6_RN_14_RD_20_1.png","img2/100/Incongruent/L/I_Dist_100_LN_9_LD_10_RN_20_RD_25_0.png","img2/100/Incongruent/R/I_Dist_100_LN_6_LD_12_RN_3_RD_5_1.png","img2/200/Congruent/L/C_Dist_200_LN_4_LD_8_RN_3_RD_10_0.png","img2/100/Congruent/L/C_Dist_100_LN_3_LD_6_RN_2_RD_5_0.png","img2/100/Incongruent/L/I_Dist_100_LN_3_LD_5_RN_8_RD_16_0.png","img2/200/Incongruent/R/I_Dist_200_LN_6_LD_20_RN_3_RD_6_1.png","img2/300/Incongruent/R/I_Dist_300_LN_13_LD_26_RN_12_RD_15_1.png","img2/300/Incongruent/R/I_Dist_300_LN_13_LD_26_RN_12_RD_15_1.png","img2/200/Incongruent/L/I_Dist_200_LN_4_LD_6_RN_14_RD_30_0.png","img2/300/Incongruent/R/I_Dist_300_LN_4_LD_20_RN_2_RD_4_1.png","img2/100/Incongruent/L/I_Dist_100_LN_2_LD_4_RN_6_RD_15_0.png","img2/100/Congruent/L/C_Dist_100_LN_10_LD_25_RN_3_RD_10_0.png","img2/300/Congruent/L/C_Dist_300_LN_24_LD_30_RN_2_RD_4_0.png","img2/100/Congruent/R/C_Dist_100_LN_7_LD_14_RN_9_RD_15_1.png","img2/300/Incongruent/L/I_Dist_300_LN_1_LD_2_RN_3_RD_15_0.png","img2/100/Incongruent/R/I_Dist_100_LN_17_LD_30_RN_10_RD_15_1.png","img2/100/Incongruent/R/I_Dist_100_LN_8_LD_20_RN_1_RD_2_1.png","img2/300/Congruent/L/C_Dist_300_LN_18_LD_20_RN_9_RD_15_0.png","img2/200/Incongruent/R/I_Dist_200_LN_14_LD_30_RN_12_RD_18_1.png","img2/200/Incongruent/L/I_Dist_200_LN_7_LD_10_RN_14_RD_28_0.png","img2/200/Congruent/L/C_Dist_200_LN_12_LD_20_RN_6_RD_15_0.png","img2/100/Incongruent/L/I_Dist_100_LN_3_LD_5_RN_11_RD_22_0.png","img2/100/Congruent/R/C_Dist_100_LN_1_LD_2_RN_3_RD_5_1.png","img2/300/Congruent/R/C_Dist_300_LN_8_LD_15_RN_10_RD_12_1.png","img2/100/Congruent/L/C_Dist_100_LN_6_LD_20_RN_5_RD_25_0.png","img2/200/Congruent/R/C_Dist_200_LN_9_LD_30_RN_13_RD_26_1.png","img2/100/Incongruent/R/I_Dist_100_LN_9_LD_18_RN_6_RD_10_1.png","img2/300/Incongruent/L/I_Dist_300_LN_1_LD_2_RN_2_RD_10_0.png","img2/300/Congruent/L/C_Dist_300_LN_3_LD_6_RN_2_RD_10_0.png","img2/200/Congruent/L/C_Dist_200_LN_11_LD_22_RN_3_RD_10_0.png","img2/100/Congruent/L/C_Dist_100_LN_11_LD_22_RN_4_RD_10_0.png","img2/200/Congruent/R/C_Dist_200_LN_6_LD_12_RN_7_RD_10_1.png","img2/100/Incongruent/R/I_Dist_100_LN_13_LD_26_RN_6_RD_10_1.png","img2/200/Congruent/L/C_Dist_200_LN_12_LD_20_RN_6_RD_15_0.png","img2/200/Incongruent/R/I_Dist_200_LN_6_LD_20_RN_3_RD_6_1.png","img2/300/Congruent/R/C_Dist_300_LN_2_LD_20_RN_10_RD_25_1.png","img2/100/Incongruent/R/I_Dist_100_LN_13_LD_26_RN_12_RD_20_1.png","img2/300/Congruent/R/C_Dist_300_LN_3_LD_6_RN_4_RD_5_1.png","img2/300/Incongruent/L/I_Dist_300_LN_7_LD_10_RN_8_RD_20_0.png","img2/200/Congruent/L/C_Dist_200_LN_8_LD_15_RN_7_RD_21_0.png","img2/100/Congruent/R/C_Dist_100_LN_6_LD_12_RN_15_RD_25_1.png","img2/200/Congruent/L/C_Dist_200_LN_8_LD_15_RN_2_RD_6_0.png","img2/200/Incongruent/L/I_Dist_200_LN_7_LD_10_RN_8_RD_16_0.png","img2/300/Incongruent/L/I_Dist_300_LN_2_LD_4_RN_6_RD_30_0.png","img2/100/Congruent/R/C_Dist_100_LN_7_LD_14_RN_15_RD_25_1.png","img2/300/Congruent/L/C_Dist_300_LN_8_LD_16_RN_1_RD_5_0.png","img2/100/Incongruent/R/I_Dist_100_LN_12_LD_30_RN_2_RD_4_1.png","img2/300/Congruent/R/C_Dist_300_LN_4_LD_20_RN_13_RD_26_1.png","img2/100/Congruent/L/C_Dist_100_LN_11_LD_22_RN_4_RD_10_0.png","img2/300/Incongruent/R/I_Dist_300_LN_4_LD_20_RN_2_RD_4_1.png","img2/100/Incongruent/R/I_Dist_100_LN_8_LD_20_RN_1_RD_2_1.png","img2/200/Incongruent/R/I_Dist_200_LN_11_LD_20_RN_3_RD_4_1.png","img2/300/Incongruent/L/I_Dist_300_LN_8_LD_10_RN_14_RD_28_0.png","img2/300/Congruent/R/C_Dist_300_LN_3_LD_6_RN_4_RD_5_1.png","img2/200/Congruent/R/C_Dist_200_LN_13_LD_26_RN_14_RD_20_1.png","img2/300/Congruent/L/C_Dist_300_LN_20_LD_25_RN_13_RD_26_0.png","img2/200/Incongruent/L/I_Dist_200_LN_7_LD_10_RN_8_RD_16_0.png","img2/100/Congruent/R/C_Dist_100_LN_7_LD_14_RN_15_RD_25_1.png","img2/200/Incongruent/L/I_Dist_200_LN_7_LD_10_RN_14_RD_28_0.png","img2/200/Incongruent/L/I_Dist_200_LN_7_LD_10_RN_8_RD_16_0.png","img2/200/Incongruent/L/I_Dist_200_LN_1_LD_3_RN_2_RD_15_0.png","img2/300/Incongruent/L/I_Dist_300_LN_7_LD_10_RN_8_RD_20_0.png","img2/300/Incongruent/L/I_Dist_300_LN_1_LD_2_RN_2_RD_10_0.png","img2/200/Congruent/R/C_Dist_200_LN_3_LD_6_RN_14_RD_20_1.png","img2/200/Congruent/L/C_Dist_200_LN_12_LD_15_RN_6_RD_10_0.png","img2/300/Congruent/R/C_Dist_300_LN_1_LD_30_RN_8_RD_24_1.png","img2/300/Congruent/R/C_Dist_300_LN_2_LD_10_RN_12_RD_24_1.png","img2/300/Congruent/L/C_Dist_300_LN_20_LD_25_RN_8_RD_16_0.png","img2/100/Incongruent/L/I_Dist_100_LN_9_LD_10_RN_20_RD_25_0.png","img2/200/Congruent/L/C_Dist_200_LN_21_LD_30_RN_2_RD_4_0.png","img2/300/Congruent/L/C_Dist_300_LN_20_LD_25_RN_5_RD_10_0.png","img2/200/Incongruent/L/I_Dist_200_LN_7_LD_10_RN_14_RD_28_0.png","img2/100/Congruent/L/C_Dist_100_LN_11_LD_22_RN_6_RD_15_0.png","img2/200/Incongruent/L/I_Dist_200_LN_4_LD_6_RN_14_RD_30_0.png","img2/300/Incongruent/R/I_Dist_300_LN_13_LD_26_RN_12_RD_15_1.png","img2/100/Congruent/L/C_Dist_100_LN_15_LD_25_RN_13_RD_26_0.png","img2/200/Incongruent/L/I_Dist_200_LN_1_LD_2_RN_3_RD_10_0.png","img2/300/Congruent/R/C_Dist_300_LN_1_LD_5_RN_3_RD_6_1.png","img2/300/Incongruent/R/I_Dist_300_LN_13_LD_26_RN_12_RD_15_1.png","img2/300/Congruent/R/C_Dist_300_LN_7_LD_14_RN_20_RD_25_1.png","img2/200/Congruent/L/C_Dist_200_LN_6_LD_15_RN_3_RD_15_0.png","img2/200/Congruent/L/C_Dist_200_LN_12_LD_20_RN_6_RD_15_0.png","img2/100/Incongruent/L/I_Dist_100_LN_3_LD_5_RN_11_RD_22_0.png","img2/300/Incongruent/L/I_Dist_300_LN_8_LD_10_RN_14_RD_28_0.png","img2/300/Incongruent/L/I_Dist_300_LN_4_LD_5_RN_6_RD_12_0.png","img2/200/Congruent/R/C_Dist_200_LN_9_LD_30_RN_13_RD_26_1.png","img2/100/Congruent/R/C_Dist_100_LN_7_LD_14_RN_9_RD_15_1.png","img2/300/Incongruent/R/I_Dist_300_LN_13_LD_26_RN_12_RD_15_1.png","img2/100/Incongruent/R/I_Dist_100_LN_9_LD_18_RN_6_RD_10_1.png","img2/300/Incongruent/R/I_Dist_300_LN_4_LD_20_RN_2_RD_4_1.png","img2/200/Incongruent/L/I_Dist_200_LN_3_LD_4_RN_11_RD_20_0.png","img2/300/Congruent/R/C_Dist_300_LN_5_LD_25_RN_7_RD_14_1.png","img2/200/Congruent/R/C_Dist_200_LN_5_LD_10_RN_14_RD_20_1.png","img2/300/Congruent/R/C_Dist_300_LN_1_LD_5_RN_3_RD_6_1.png","img2/100/Congruent/R/C_Dist_100_LN_12_LD_30_RN_13_RD_26_1.png","img2/100/Congruent/L/C_Dist_100_LN_11_LD_22_RN_4_RD_10_0.png","img2/100/Congruent/L/C_Dist_100_LN_11_LD_22_RN_6_RD_15_0.png","img2/100/Incongruent/L/I_Dist_100_LN_6_LD_10_RN_7_RD_14_0.png"],"dist100_C":[["C_Dist_100_LN_10_LD_25_RN_3_RD_10_0.png","C_Dist_100_LN_11_LD_22_RN_4_RD_10_0.png","C_Dist_100_LN_11_LD_22_RN_6_RD_15_0.png","C_Dist_100_LN_15_LD_25_RN_13_RD_26_0.png","C_Dist_100_LN_3_LD_6_RN_2_RD_5_0.png","C_Dist_100_LN_6_LD_20_RN_5_RD_25_0.png","C_Dist_100_LN_8_LD_16_RN_2_RD_5_0.png","C_Dist_100_LN_9_LD_15_RN_8_RD_16_0.png"],["C_Dist_100_LN_1_LD_2_RN_18_RD_30_1.png","C_Dist_100_LN_1_LD_2_RN_3_RD_5_1.png","C_Dist_100_LN_12_LD_30_RN_13_RD_26_1.png","C_Dist_100_LN_2_LD_5_RN_11_RD_22_1.png","C_Dist_100_LN_2_LD_5_RN_6_RD_12_1.png","C_Dist_100_LN_3_LD_20_RN_4_RD_16_1.png","C_Dist_100_LN_4_LD_10_RN_15_RD_30_1.png","C_Dist_100_LN_4_LD_8_RN_6_RD_10_1.png","C_Dist_100_LN_6_LD_12_RN_15_RD_25_1.png","C_Dist_100_LN_7_LD_14_RN_15_RD_25_1.png","C_Dist_100_LN_7_LD_14_RN_9_RD_15_1.png"]],"dist100_I":[["I_Dist_100_LN_1_LD_2_RN_8_RD_20_0.png","I_Dist_100_LN_2_LD_4_RN_6_RD_15_0.png","I_Dist_100_LN_2_LD_4_RN_8_RD_20_0.png","I_Dist_100_LN_3_LD_5_RN_11_RD_22_0.png","I_Dist_100_LN_3_LD_5_RN_8_RD_16_0.png","I_Dist_100_LN_3_LD_6_RN_4_RD_10_0.png","I_Dist_100_LN_3_LD_9_RN_7_RD_30_0.png","I_Dist_100_LN_4_LD_8_RN_8_RD_20_0.png","I_Dist_100_LN_6_LD_10_RN_11_RD_22_0.png","I_Dist_100_LN_6_LD_10_RN_13_RD_26_0.png","I_Dist_100_LN_6_LD_10_RN_7_RD_14_0.png","I_Dist_100_LN_9_LD_10_RN_20_RD_25_0.png","I_Dist_100_LN_9_LD_15_RN_13_RD_26_0.png","I_Dist_100_LN_9_LD_15_RN_14_RD_28_0.png"],["I_Dist_100_LN_10_LD_25_RN_8_RD_16_1.png","I_Dist_100_LN_10_LD_25_RN_9_RD_18_1.png","I_Dist_100_LN_11_LD_22_RN_9_RD_15_1.png","I_Dist_100_LN_12_LD_24_RN_9_RD_15_1.png","I_Dist_100_LN_12_LD_30_RN_2_RD_4_1.png","I_Dist_100_LN_13_LD_26_RN_12_RD_20_1.png","I_Dist_100_LN_13_LD_26_RN_6_RD_10_1.png","I_Dist_100_LN_17_LD_30_RN_10_RD_15_1.png","I_Dist_100_LN_6_LD_12_RN_3_RD_5_1.png","I_Dist_100_LN_8_LD_16_RN_6_RD_10_1.png","I_Dist_100_LN_8_LD_20_RN_1_RD_2_1.png","I_Dist_100_LN_9_LD_18_RN_6_RD_10_1.png"]],"dist100_S":[["E_Dist_100_LN_2_LD_12_RN_2_RD_30_0.png","E_Dist_100_LN_6_LD_10_RN_6_RD_12_0.png"],["E_Dist_100_LN_6_LD_12_RN_6_RD_10_1.png"]],"dist200_C":[["C_Dist_200_LN_11_LD_22_RN_3_RD_10_0.png","C_Dist_200_LN_12_LD_15_RN_6_RD_10_0.png","C_Dist_200_LN_12_LD_20_RN_6_RD_15_0.png","C_Dist_200_LN_14_LD_28_RN_6_RD_20_0.png","C_Dist_200_LN_15_LD_25_RN_4_RD_10_0.png","C_Dist_200_LN_16_LD_20_RN_12_RD_20_0.png","C_Dist_200_LN_16_LD_30_RN_9_RD_27_0.png","C_Dist_200_LN_20_LD_25_RN_9_RD_15_0.png","C_Dist_200_LN_21_LD_30_RN_2_RD_4_0.png","C_Dist_200_LN_4_LD_10_RN_3_RD_15_0.png","C_Dist_200_LN_4_LD_8_RN_3_RD_10_0.png","C_Dist_200_LN_6_LD_15_RN_3_RD_15_0.png","C_Dist_200_LN_7_LD_21_RN_2_RD_15_0.png","C_Dist_200_LN_8_LD_15_RN_2_RD_6_0.png","C_Dist_200_LN_8_LD_15_RN_3_RD_9_0.png","C_Dist_200_LN_8_LD_15_RN_7_RD_21_0.png","C_Dist_200_LN_9_LD_20_RN_4_RD_16_0.png"],["C_Dist_200_LN_1_LD_2_RN_21_RD_30_1.png","C_Dist_200_LN_13_LD_26_RN_14_RD_20_1.png","C_Dist_200_LN_3_LD_10_RN_11_RD_22_1.png","C_Dist_200_LN_3_LD_10_RN_14_RD_28_1.png","C_Dist_200_LN_3_LD_10_RN_7_RD_14_1.png","C_Dist_200_LN_3_LD_12_RN_9_RD_20_1.png","C_Dist_200_LN_3_LD_6_RN_14_RD_20_1.png","C_Dist_200_LN_5_LD_10_RN_14_RD_20_1.png","C_Dist_200_LN_6_LD_12_RN_7_RD_10_1.png","C_Dist_200_LN_6_LD_20_RN_11_RD_22_1.png","C_Dist_200_LN_7_LD_15_RN_18_RD_27_1.png","C_Dist_200_LN_9_LD_30_RN_13_RD_26_1.png"]],"dist200_I":[["I_Dist_200_LN_1_LD_2_RN_3_RD_10_0.png","I_Dist_200_LN_1_LD_3_RN_2_RD_15_0.png","I_Dist_200_LN_3_LD_4_RN_11_RD_20_0.png","I_Dist_200_LN_4_LD_5_RN_6_RD_10_0.png","I_Dist_200_LN_4_LD_6_RN_14_RD_30_0.png","I_Dist_200_LN_7_LD_10_RN_12_RD_24_0.png","I_Dist_200_LN_7_LD_10_RN_14_RD_28_0.png","I_Dist_200_LN_7_LD_10_RN_8_RD_16_0.png"],["I_Dist_200_LN_11_LD_20_RN_3_RD_4_1.png","I_Dist_200_LN_14_LD_30_RN_12_RD_18_1.png","I_Dist_200_LN_14_LD_30_RN_6_RD_9_1.png","I_Dist_200_LN_3_LD_10_RN_1_RD_2_1.png","I_Dist_200_LN_4_LD_30_RN_1_RD_3_1.png","I_Dist_200_LN_6_LD_20_RN_3_RD_6_1.png","I_Dist_200_LN_7_LD_15_RN_4_RD_6_1.png","I_Dist_200_LN_7_LD_15_RN_6_RD_9_1.png","I_Dist_200_LN_9_LD_15_RN_8_RD_10_1.png"]],"dist200_S":[["E_Dist_200_LN_3_LD_6_RN_3_RD_10_0.png"],["E_Dist_200_LN_3_LD_10_RN_3_RD_6_1.png"]],"dist300_C":[["C_Dist_300_LN_11_LD_22_RN_1_RD_5_0.png","C_Dist_300_LN_11_LD_22_RN_2_RD_10_0.png","C_Dist_300_LN_11_LD_22_RN_4_RD_20_0.png","C_Dist_300_LN_12_LD_24_RN_2_RD_10_0.png","C_Dist_300_LN_18_LD_20_RN_9_RD_15_0.png","C_Dist_300_LN_20_LD_25_RN_13_RD_26_0.png","C_Dist_300_LN_20_LD_25_RN_14_RD_28_0.png","C_Dist_300_LN_20_LD_25_RN_5_RD_10_0.png","C_Dist_300_LN_20_LD_25_RN_8_RD_16_0.png","C_Dist_300_LN_20_LD_25_RN_9_RD_18_0.png","C_Dist_300_LN_24_LD_30_RN_2_RD_4_0.png","C_Dist_300_LN_24_LD_30_RN_8_RD_16_0.png","C_Dist_300_LN_3_LD_6_RN_2_RD_10_0.png","C_Dist_300_LN_4_LD_10_RN_1_RD_10_0.png","C_Dist_300_LN_4_LD_5_RN_2_RD_4_0.png","C_Dist_300_LN_8_LD_16_RN_1_RD_5_0.png","C_Dist_300_LN_9_LD_10_RN_3_RD_5_0.png"],["C_Dist_300_LN_1_LD_20_RN_7_RD_20_1.png","C_Dist_300_LN_1_LD_3_RN_19_RD_30_1.png","C_Dist_300_LN_1_LD_30_RN_8_RD_24_1.png","C_Dist_300_LN_1_LD_5_RN_11_RD_22_1.png","C_Dist_300_LN_1_LD_5_RN_3_RD_6_1.png","C_Dist_300_LN_1_LD_5_RN_6_RD_12_1.png","C_Dist_300_LN_2_LD_10_RN_12_RD_24_1.png","C_Dist_300_LN_2_LD_20_RN_10_RD_25_1.png","C_Dist_300_LN_3_LD_12_RN_11_RD_20_1.png","C_Dist_300_LN_3_LD_6_RN_4_RD_5_1.png","C_Dist_300_LN_4_LD_20_RN_13_RD_26_1.png","C_Dist_300_LN_5_LD_25_RN_6_RD_12_1.png","C_Dist_300_LN_5_LD_25_RN_7_RD_14_1.png","C_Dist_300_LN_7_LD_14_RN_20_RD_25_1.png","C_Dist_300_LN_8_LD_15_RN_10_RD_12_1.png"]],"dist300_I":[["I_Dist_300_LN_1_LD_2_RN_2_RD_10_0.png","I_Dist_300_LN_1_LD_2_RN_3_RD_15_0.png","I_Dist_300_LN_2_LD_4_RN_6_RD_30_0.png","I_Dist_300_LN_3_LD_6_RN_4_RD_20_0.png","I_Dist_300_LN_4_LD_5_RN_6_RD_12_0.png","I_Dist_300_LN_4_LD_5_RN_8_RD_16_0.png","I_Dist_300_LN_7_LD_10_RN_8_RD_20_0.png","I_Dist_300_LN_8_LD_10_RN_14_RD_28_0.png","I_Dist_300_LN_8_LD_10_RN_9_RD_18_0.png"],["I_Dist_300_LN_13_LD_26_RN_12_RD_15_1.png","I_Dist_300_LN_4_LD_20_RN_2_RD_4_1.png"]],"dist300_S":[["E_Dist_300_LN_9_LD_12_RN_9_RD_20_0.png"],["E_Dist_300_LN_18_LD_30_RN_18_RD_20_1.png","E_Dist_300_LN_3_LD_10_RN_3_RD_5_1.png","E_Dist_300_LN_9_LD_20_RN_9_RD_12_1.png"]],"dist500_C":[["C_Dist_500_LN_10_LD_13_RN_7_RD_26_0.png","C_Dist_500_LN_10_LD_15_RN_4_RD_24_0.png","C_Dist_500_LN_12_LD_16_RN_3_RD_12_0.png","C_Dist_500_LN_12_LD_18_RN_4_RD_24_0.png","C_Dist_500_LN_15_LD_18_RN_5_RD_15_0.png","C_Dist_500_LN_15_LD_20_RN_1_RD_4_0.png","C_Dist_500_LN_18_LD_27_RN_1_RD_6_0.png","C_Dist_500_LN_20_LD_24_RN_1_RD_3_0.png","C_Dist_500_LN_20_LD_24_RN_3_RD_9_0.png","C_Dist_500_LN_20_LD_24_RN_7_RD_21_0.png","C_Dist_500_LN_20_LD_28_RN_3_RD_14_0.png","C_Dist_500_LN_21_LD_28_RN_6_RD_24_0.png","C_Dist_500_LN_22_LD_28_RN_2_RD_7_0.png","C_Dist_500_LN_25_LD_30_RN_9_RD_27_0.png","C_Dist_500_LN_4_LD_6_RN_1_RD_6_0.png","C_Dist_500_LN_5_LD_6_RN_2_RD_6_0.png","C_Dist_500_LN_6_LD_9_RN_1_RD_6_0.png","C_Dist_500_LN_7_LD_10_RN_1_RD_5_0.png","C_Dist_500_LN_8_LD_12_RN_1_RD_6_0.png","C_Dist_500_LN_8_LD_12_RN_4_RD_24_0.png"],["C_Dist_500_LN_1_LD_4_RN_12_RD_16_1.png","C_Dist_500_LN_1_LD_4_RN_9_RD_12_1.png","C_Dist_500_LN_1_LD_9_RN_11_RD_18_1.png","C_Dist_500_LN_10_LD_24_RN_22_RD_24_1.png","C_Dist_500_LN_2_LD_12_RN_10_RD_15_1.png","C_Dist_500_LN_2_LD_12_RN_12_RD_18_1.png","C_Dist_500_LN_2_LD_12_RN_4_RD_6_1.png","C_Dist_500_LN_2_LD_24_RN_7_RD_12_1.png","C_Dist_500_LN_2_LD_5_RN_18_RD_20_1.png","C_Dist_500_LN_2_LD_5_RN_9_RD_10_1.png","C_Dist_500_LN_2_LD_8_RN_12_RD_16_1.png","C_Dist_500_LN_2_LD_8_RN_21_RD_28_1.png","C_Dist_500_LN_3_LD_10_RN_4_RD_5_1.png","C_Dist_500_LN_3_LD_12_RN_15_RD_20_1.png","C_Dist_500_LN_3_LD_30_RN_6_RD_10_1.png","C_Dist_500_LN_3_LD_8_RN_14_RD_16_1.png","C_Dist_500_LN_4_LD_16_RN_15_RD_20_1.png","C_Dist_500_LN_4_LD_24_RN_12_RD_18_1.png","C_Dist_500_LN_5_LD_14_RN_6_RD_7_1.png","C_Dist_500_LN_7_LD_21_RN_20_RD_24_1.png","C_Dist_500_LN_7_LD_28_RN_12_RD_16_1.png","C_Dist_500_LN_7_LD_28_RN_9_RD_12_1.png","C_Dist_500_LN_9_LD_27_RN_20_RD_24_1.png"]],"dist500_I":[["I_Dist_500_LN_2_LD_3_RN_4_RD_24_0.png","I_Dist_500_LN_5_LD_6_RN_6_RD_18_0.png","I_Dist_500_LN_7_LD_8_RN_9_RD_24_0.png"],["I_Dist_500_LN_7_LD_21_RN_5_RD_6_1.png"]],"dist500_S":[["E_Dist_500_LN_6_LD_8_RN_6_RD_24_0.png"],["E_Dist_500_LN_2_LD_12_RN_2_RD_3_1.png","E_Dist_500_LN_6_LD_24_RN_6_RD_8_1.png"]]}},{"start_time":1551800590512,"click_time":1551800592921,"finger_time":1551800592580,"fix_duration":250,"trial":1,"RT":2068,"MT":341,"sideResp":1,"stimulus":[],"xmouse":[804,804,804,804,804,804,804,804,804,804,804,804,804,804,804,804,804,804,804,804,804,804,804,804,804,804,804,804,804,804,804,804,804,804,804,804,804,804,804,804,804,804,804,804,804,804,804,804,804,804,804,804,804,804,804,804,804,804,804,804,804,804,804,804,804,804,804,804,804,804,804,804,804,804,804,804,804,804,804,804,804,804,804,804,804,804,804,804,804,804,804,804,804,804,804,804,804,804,804,804,800,786,763,723,682,540,487,438,395,372,366,366,371,377,384,392,407,410,415,420,425],"ymouse":[536,536,536,536,536,536,536,536,536,536,536,536,536,536,536,536,536,536,536,536,536,536,536,536,536,536,536,536,536,536,536,536,536,536,536,536,536,536,536,536,536,536,536,536,536,536,536,536,536,536,536,536,536,536,536,536,536,536,536,536,536,536,536,536,536,536,536,536,536,536,536,536,536,536,536,536,536,536,536,536,536,536,536,536,536,536,536,536,536,536,536,536,536,536,536,536,536,536,536,536,535,533,530,519,506,431,376,303,238,202,187,177,166,151,138,126,102,98,93,89,86],"timestamp_mouse":[9,39,49,68,87,108,129,149,168,188,208,228,248,267,288,308,327,348,368,388,408,429,447,469,488,508,529,548,568,588,608,629,648,667,688,709,729,747,769,789,808,828,848,867,888,908,929,948,969,989,1007,1028,1048,1068,1088,1108,1128,1148,1168,1188,1208,1227,1249,1269,1288,1307,1329,1349,1369,1388,1408,1428,1448,1469,1489,1509,1529,1548,1568,1589,1608,1629,1648,1667,1688,1709,1729,1748,1769,1789,1807,1829,1848,1869,1889,1907,1928,1948,1967,1988,2009,2027,2048,2068,2088,2109,2128,2147,2169,2188,2208,2227,2248,2267,2288,2308,2328,2348,2368,2388,2408],"xSR":741.5,"ySR":469.95,"xT1":424.9,"yT1":0,"xT2":1058.1,"yT2":0,"toosoon":0,"cond_shown":"Incongruent","ratio_trial":100,"L_num":2,"L_den":4,"R_num":8,"R_den":20,"correct_side":1,"subjID":"juanfelipeporrasduarte8","gender":"0","school":"6","age":"11"},{"start_time":1551800595412,"click_time":1551800600500,"finger_time":1551800597161,"fix_duration":250,"trial":2,"RT":1749,"MT":3339,"sideResp":2,"stimulus":[],"xmouse":[786,786,786,786,786,786,786,786,786,786,786,786,786,786,786,786,786,786,786,786,786,786,786,786,786,786,786,786,786,786,786,786,786,786,786,786,786,786,786,786,786,786,786,786,786,786,786,786,786,786,786,786,786,786,786,786,786,786,786,786,786,786,786,786,786,786,786,786,786,786,786,786,786,786,786,786,786,786,786,786,786,786,786,782,779,774,755,729,707,687,667,640,637,637,637,637,630,602,579,561,548,544,544,543,543,543,543,543,543,543,543,543,543,543,543,543,543,543,543,543,543,543,543,543,543,543,543,543,543,543,543,543,543,543,543,543,543,543,543,543,543,543,543,543,543,543,543,543,543,543,543,543,543,543,543,543,543,543,543,543,543,543,543,543,543,543,543,543,543,543,543,543,543,543,543,543,543,543,543,543,543,543,543,543,543,543,543,543,543,543,543,543,543,543,543,543,543,543,543,543,543,543,543,545,546,546,560,577,603,657,709,804,849,898,951,1005,1062,1062,1062,1062,1062,1062,1214,1207,1205,1205,1211,1215,1217,1219,1220,1220,1220,1220,1220,1219,1213,1204,1190,1178,1165,1130,1111,1100,1094,1093,1092,1092,1092,1092,1092,1092,1097,1103,1109],"ymouse":[544,544,544,544,544,544,544,544,544,544,544,544,544,544,544,544,544,544,544,544,544,544,544,544,544,544,544,544,544,544,544,544,544,544,544,544,544,544,544,544,544,544,544,544,544,544,544,544,544,544,544,544,544,544,544,544,544,544,544,544,544,544,544,544,544,544,544,544,544,544,544,544,544,544,544,544,544,544,544,544,544,544,544,542,542,541,541,541,541,541,541,541,541,541,541,541,541,541,541,540,538,537,537,537,537,537,537,537,537,537,537,537,537,537,537,537,537,537,537,537,537,537,537,537,537,537,537,537,537,537,537,537,537,537,537,537,537,537,537,537,537,537,537,537,537,537,537,537,537,537,537,537,537,537,537,537,537,537,537,537,537,537,537,537,537,537,537,537,537,537,537,537,537,537,537,537,537,537,537,537,537,537,537,537,537,537,537,537,537,537,537,537,537,537,537,537,537,537,537,537,537,537,539,543,544,544,545,547,554,569,584,630,653,675,694,708,718,718,718,718,718,718,705,680,650,615,556,535,512,484,459,415,403,395,390,387,368,350,324,302,280,219,185,165,155,150,144,144,144,144,141,131,120,106,92],"timestamp_mouse":[12,28,51,68,89,108,128,149,168,187,209,228,248,268,288,308,328,348,368,389,408,429,449,468,488,508,529,547,569,588,608,629,647,669,687,708,727,748,768,789,808,828,848,868,887,909,928,949,967,989,1008,1029,1047,1068,1088,1108,1128,1149,1168,1187,1208,1227,1248,1268,1287,1308,1329,1347,1369,1389,1409,1427,1448,1468,1488,1508,1529,1548,1568,1588,1608,1629,1647,1668,1688,1709,1727,1749,1768,1788,1807,1828,1848,1869,1888,1908,1928,1948,1967,1987,2008,2028,2048,2069,2088,2108,2128,2149,2167,2187,2207,2228,2248,2268,2288,2308,2328,2347,2369,2389,2409,2428,2448,2469,2488,2508,2528,2549,2568,2589,2609,2628,2648,2669,2688,2707,2728,2749,2769,2789,2809,2827,2848,2869,2888,2909,2928,2949,2967,2988,3009,3029,3048,3068,3089,3108,3128,3147,3168,3189,3208,3227,3249,3268,3288,3309,3327,3349,3368,3389,3409,3428,3448,3468,3488,3508,3528,3548,3568,3589,3608,3629,3648,3669,3689,3708,3729,3747,3768,3789,3807,3828,3848,3868,3887,3908,3928,3948,3968,3988,4007,4029,4047,4068,4088,4107,4129,4147,4167,4188,4208,4228,4248,4268,4288,4308,4328,4349,4368,4389,4408,4428,4448,4468,4488,4509,4527,4548,4567,4588,4609,4628,4648,4668,4689,4709,4728,4749,4768,4789,4808,4828,4847,4868,4888,4907,4929,4947,4968,4987,5009,5028,5047,5067,5088],"xSR":741.5,"ySR":469.95,"xT1":424.9,"yT1":0,"xT2":1058.1,"yT2":0,"toosoon":0,"cond_shown":"Congruent","ratio_trial":300,"L_num":20,"L_den":25,"R_num":9,"R_den":18,"correct_side":1,"subjID":"juanfelipeporrasduarte8","gender":"0","school":"6","age":"11"},{"start_time":1551800607117,"click_time":1551800615980,"finger_time":1551800615400,"fix_duration":1236.7595712715647,"trial":3,"RT":8283,"MT":580,"sideResp":1,"stimulus":[],"xmouse":[758,758,758,758,758,758,758,758,758,758,758,758,758,758,758,758,758,758,758,758,758,758,758,758,758,758,758,758,758,758,758,758,758,758,758,758,758,758,758,758,758,758,758,758,758,758,758,758,758,758,758,758,758,758,758,758,758,758,758,758,758,758,758,758,758,758,758,758,758,758,758,758,758,758,758,758,758,758,758,758,758,758,758,758,758,758,758,758,758,758,758,758,758,758,758,758,758,758,758,758,758,758,758,758,758,758,758,758,758,758,758,758,758,758,758,758,758,758,758,758,758,758,758,758,758,758,758,758,758,758,758,758,758,758,758,758,758,758,758,758,758,758,758,758,758,758,758,758,758,758,758,758,758,758,758,758,758,758,758,758,758,758,758,758,758,758,758,758,758,758,758,758,758,758,758,758,758,758,758,758,758,758,758,758,758,758,758,758,758,758,758,758,758,758,758,758,758,758,758,758,758,758,758,758,758,758,758,758,758,758,758,758,758,758,758,758,758,758,758,758,758,758,758,758,758,758,758,758,758,758,758,758,758,758,758,758,758,758,758,758,758,758,758,758,758,758,758,758,758,758,758,758,758,758,758,758,758,758,758,758,758,758,758,758,758,758,758,758,758,758,758,758,758,758,758,758,758,758,758,758,758,758,758,758,758,758,758,758,758,758,758,758,758,758,758,758,758,758,758,758,758,758,758,758,758,758,758,758,758,758,758,758,758,758,758,758,758,758,758,758,758,758,758,758,758,758,758,758,758,758,758,758,758,758,758,758,758,758,758,758,758,758,758,758,758,758,758,758,758,758,758,758,758,758,758,758,758,758,758,758,758,758,758,758,758,758,758,758,758,758,758,758,758,758,758,758,758,758,758,758,758,758,758,758,758,758,758,758,758,758,758,758,758,758,758,758,758,758,758,758,758,758,758,758,758,758,758,758,758,758,758,758,755,742,702,650,603,565,539,538,536,534,532,529,523,517,513,510,502,500,496,496,493,490,490,490,490,490,490,490,490,490,490,490],"ymouse":[507,507,507,507,507,507,507,507,507,507,507,507,507,507,507,507,507,507,507,507,507,507,507,507,507,507,507,507,507,507,507,507,507,507,507,507,507,507,507,507,507,507,507,507,507,507,507,507,507,507,507,507,507,507,507,507,507,507,507,507,507,507,507,507,507,507,507,507,507,507,507,507,507,507,507,507,507,507,507,507,507,507,507,507,507,507,507,507,507,507,507,507,507,507,507,507,507,507,507,507,507,507,507,507,507,507,507,507,507,507,507,507,507,507,507,507,507,507,507,507,507,507,507,507,507,507,507,507,507,507,507,507,507,507,507,507,507,507,507,507,507,507,507,507,507,507,507,507,507,507,507,507,507,507,507,507,507,507,507,507,507,507,507,507,507,507,507,507,507,507,507,507,507,507,507,507,507,507,507,507,507,507,507,507,507,507,507,507,507,507,507,507,507,507,507,507,507,507,507,507,507,507,507,507,507,507,507,507,507,507,507,507,507,507,507,507,507,507,507,507,507,507,507,507,507,507,507,507,507,507,507,507,507,507,507,507,507,507,507,507,507,507,507,507,507,507,507,507,507,507,507,507,507,507,507,507,507,507,507,507,507,507,507,507,507,507,507,507,507,507,507,507,507,507,507,507,507,507,507,507,507,507,507,507,507,507,507,507,507,507,507,507,507,507,507,507,507,507,507,507,507,507,507,507,507,507,507,507,507,507,507,507,507,507,507,507,507,507,507,507,507,507,507,507,507,507,507,507,507,507,507,507,507,507,507,507,507,507,507,507,507,507,507,507,507,507,507,507,507,507,507,507,507,507,507,507,507,507,507,507,507,507,507,507,507,507,507,507,507,507,507,507,507,507,507,507,507,507,507,507,507,507,507,507,507,507,507,507,507,507,507,507,507,507,507,507,507,507,507,507,507,507,507,507,507,507,507,507,507,507,507,507,503,493,468,452,439,428,417,416,414,412,410,406,396,386,377,362,308,271,235,202,176,158,157,157,157,157,157,157,153,142,112,46],"timestamp_mouse":[9,24,43,63,82,104,122,143,163,184,203,223,242,264,282,302,323,343,362,384,403,422,444,464,483,502,523,542,563,583,602,624,642,663,683,703,723,743,763,783,804,823,843,864,882,903,924,944,963,984,1003,1024,1043,1063,1083,1102,1123,1142,1163,1184,1203,1224,1243,1262,1283,1303,1324,1342,1363,1383,1404,1424,1442,1463,1483,1502,1523,1543,1562,1584,1603,1623,1643,1664,1683,1703,1724,1743,1762,1783,1802,1823,1843,1864,1883,1904,1922,1943,1963,1984,2004,2023,2043,2062,2083,2103,2123,2143,2164,2184,2203,2223,2243,2263,2282,2304,2323,2343,2363,2384,2403,2424,2443,2463,2484,2503,2524,2543,2564,2584,2604,2623,2644,2663,2683,2704,2724,2743,2764,2783,2804,2822,2843,2864,2883,2902,2923,2944,2963,2984,3004,3023,3044,3063,3082,3103,3124,3142,3162,3183,3202,3224,3243,3263,3283,3303,3324,3343,3362,3384,3402,3424,3443,3462,3484,3504,3523,3542,3564,3584,3604,3623,3643,3664,3684,3704,3724,3744,3764,3783,3804,3824,3843,3863,3883,3904,3923,3942,3963,3984,4004,4023,4044,4063,4083,4103,4124,4144,4164,4183,4202,4224,4244,4262,4283,4304,4323,4343,4362,4384,4402,4424,4442,4464,4484,4504,4524,4542,4563,4582,4604,4623,4644,4662,4683,4704,4724,4743,4763,4784,4804,4824,4844,4862,4883,4903,4923,4942,4963,4984,5003,5023,5044,5064,5084,5103,5123,5143,5164,5182,5204,5224,5242,5264,5284,5304,5324,5344,5363,5384,5404,5423,5444,5464,5484,5502,5523,5544,5562,5584,5604,5622,5644,5663,5682,5704,5723,5743,5762,5784,5803,5824,5844,5864,5883,5903,5923,5944,5963,5984,6004,6023,6042,6064,6083,6104,6123,6143,6163,6184,6204,6223,6244,6263,6284,6304,6324,6344,6363,6384,6404,6424,6442,6462,6483,6503,6523,6543,6564,6583,6604,6624,6644,6664,6683,6704,6724,6744,6764,6784,6803,6824,6843,6864,6883,6902,6924,6943,6963,6983,7002,7024,7042,7062,7083,7102,7124,7144,7164,7184,7203,7222,7243,7263,7284,7304,7323,7342,7362,7383,7403,7423,7443,7464,7482,7502,7524,7544,7563,7583,7603,7623,7643,7662,7682,7703,7723,7744,7763,7783,7804,7824,7843,7863,7884,7904,7923,7943,7962,7984,8003,8024,8043,8063,8084,8104,8123,8143,8164,8182,8204,8223,8243,8263,8283,8302,8322,8343,8363,8383,8404,8423,8442,8463,8482,8502,8523,8543,8563,8583,8603,8623,8643,8662,8682,8703,8723,8744,8763,8783,8802,8823,8843,8863],"xSR":741.5,"ySR":469.95,"xT1":424.9,"yT1":0,"xT2":1058.1,"yT2":0,"toosoon":0,"cond_shown":"Congruent","ratio_trial":200,"L_num":7,"L_den":15,"R_num":18,"R_den":27,"correct_side":2,"subjID":"juanfelipeporrasduarte8","gender":"0","school":"6","age":"11"},{"start_time":1551800622097,"click_time":1551800624301,"finger_time":1551800623660,"fix_duration":495.798760360923,"trial":4,"RT":1563,"MT":641,"sideResp":2,"stimulus":[],"xmouse":[792,792,792,792,792,792,792,792,792,792,792,792,792,792,792,792,792,792,792,792,792,792,792,792,792,792,792,792,792,792,792,792,792,792,792,792,792,792,792,792,792,792,792,792,792,792,792,792,792,792,792,792,792,792,792,792,792,792,792,792,792,792,792,792,792,792,792,792,792,792,792,792,792,792,792,793,807,839,880,915,937,945,950,954,964,998,1022,1056,1090,1122,1162,1177,1184,1187,1189,1191,1191,1190,1187,1181,1173,1170,1168,1165,1164,1164,1163,1163,1160,1159,1152],"ymouse":[525,525,525,525,525,525,525,525,525,525,525,525,525,525,525,525,525,525,525,525,525,525,525,525,525,525,525,525,525,525,525,525,525,525,525,525,525,525,525,525,525,525,525,525,525,525,525,525,525,525,525,525,525,525,525,525,525,525,525,525,525,525,525,525,525,525,525,525,525,525,525,525,525,525,525,526,538,559,576,585,589,589,587,585,580,554,533,497,457,417,344,308,293,282,275,254,241,224,204,183,145,125,113,107,104,103,102,100,96,92,83],"timestamp_mouse":[8,22,44,63,82,104,124,144,162,184,204,230,244,263,283,304,322,343,364,382,403,422,444,464,484,503,524,543,564,583,603,623,644,662,684,704,722,744,764,783,804,822,843,862,883,903,923,943,963,982,1003,1023,1042,1062,1083,1103,1123,1144,1163,1183,1204,1223,1243,1263,1283,1302,1324,1343,1364,1383,1404,1422,1444,1463,1483,1504,1523,1543,1563,1584,1603,1624,1642,1664,1683,1703,1724,1743,1763,1784,1803,1823,1843,1862,1882,1903,1923,1943,1963,1982,2003,2023,2042,2062,2084,2104,2123,2144,2163,2183,2204],"xSR":741.5,"ySR":469.95,"xT1":424.9,"yT1":0,"xT2":1058.1,"yT2":0,"toosoon":0,"cond_shown":"Incongruent","ratio_trial":300,"L_num":13,"L_den":26,"R_num":12,"R_den":15,"correct_side":2,"subjID":"juanfelipeporrasduarte8","gender":"0","school":"6","age":"11"},{"start_time":1551800629066,"click_time":1551800630961,"finger_time":1551800630460,"fix_duration":844.3422482270907,"trial":5,"RT":1394,"MT":501,"sideResp":2,"stimulus":[],"xmouse":[795,795,795,795,795,795,795,795,795,795,795,795,795,795,795,795,795,795,795,795,795,795,795,795,795,795,795,795,795,795,795,795,795,795,795,795,795,795,795,795,795,795,795,795,795,795,795,795,795,795,795,795,795,795,795,795,795,795,795,795,795,795,795,795,795,795,795,814,838,874,892,901,916,932,960,981,1000,1022,1029,1035,1040,1043,1049,1049,1050,1054,1058,1066,1070,1076,1080,1084,1092,1096,1098],"ymouse":[557,557,557,557,557,557,557,557,557,557,557,557,557,557,557,557,557,557,557,557,557,557,557,557,557,557,557,557,557,557,557,557,557,557,557,557,557,557,557,557,557,557,557,557,557,557,557,557,557,557,557,557,557,557,557,557,557,557,557,557,557,557,557,557,557,557,556,550,544,537,533,532,517,503,483,469,454,430,415,397,372,351,307,285,261,231,204,170,161,149,140,133,115,105,98],"timestamp_mouse":[21,39,54,74,94,114,134,155,175,195,214,234,254,274,294,314,335,356,374,394,415,434,455,474,495,514,535,554,575,595,616,634,655,674,694,714,734,755,774,795,814,835,854,875,894,916,934,954,974,996,1014,1034,1056,1075,1094,1116,1135,1155,1175,1194,1216,1234,1254,1274,1295,1315,1335,1355,1375,1394,1414,1434,1455,1474,1495,1514,1535,1554,1576,1594,1614,1634,1654,1675,1694,1715,1735,1754,1774,1794,1815,1834,1854,1874,1894],"xSR":741.5,"ySR":469.95,"xT1":424.9,"yT1":0,"xT2":1058.1,"yT2":0,"toosoon":0,"cond_shown":"Incongruent","ratio_trial":200,"L_num":11,"L_den":20,"R_num":3,"R_den":4,"correct_side":2,"subjID":"juanfelipeporrasduarte8","gender":"0","school":"6","age":"11"},{"start_time":1551800634223,"click_time":1551800636500,"finger_time":1551800635780,"fix_duration":1481.5526998379853,"trial":6,"RT":1557,"MT":720,"sideResp":1,"stimulus":[],"xmouse":[810,810,810,810,810,810,810,810,810,810,810,810,810,810,810,810,810,810,810,810,810,810,810,810,810,810,810,810,810,810,810,810,810,810,810,810,810,810,810,810,810,810,810,810,810,810,810,810,810,810,810,810,810,810,810,810,810,810,810,810,810,810,810,810,810,810,810,810,810,810,810,810,810,809,807,785,761,737,709,646,631,618,611,608,606,602,596,586,584,576,573,570,568,566,562,558,552,547,541,531,527,521,519,516,512,511,509,508,506,505,502,499,498,497],"ymouse":[545,545,545,545,545,545,545,545,545,545,545,545,545,545,545,545,545,545,545,545,545,545,545,545,545,545,545,545,545,545,545,545,545,545,545,545,545,545,545,545,545,545,545,545,545,545,545,545,545,545,545,545,545,545,545,545,545,545,545,545,545,545,545,545,545,545,545,545,545,545,545,545,545,545,545,549,553,557,559,559,559,556,553,550,548,534,515,477,462,404,386,372,362,358,342,326,306,282,256,206,194,185,177,171,159,154,148,144,140,133,123,114,106,96],"timestamp_mouse":[18,39,63,78,97,119,137,157,178,199,217,238,257,278,297,318,337,357,378,397,419,438,458,477,498,517,537,557,577,597,618,638,658,677,697,717,738,757,779,797,818,837,859,877,897,917,937,957,977,998,1018,1038,1058,1078,1098,1117,1137,1157,1178,1198,1217,1237,1257,1277,1298,1318,1337,1359,1377,1397,1417,1437,1458,1478,1498,1517,1538,1557,1577,1598,1617,1637,1658,1677,1698,1717,1737,1757,1777,1798,1817,1838,1858,1877,1899,1917,1937,1957,1978,1998,2017,2038,2057,2077,2098,2117,2137,2157,2178,2197,2218,2237,2258,2277],"xSR":741.5,"ySR":469.95,"xT1":424.9,"yT1":0,"xT2":1058.1,"yT2":0,"toosoon":0,"cond_shown":"Incongruent","ratio_trial":100,"L_num":6,"L_den":10,"R_num":11,"R_den":22,"correct_side":1,"subjID":"juanfelipeporrasduarte8","gender":"0","school":"6","age":"11"},{"start_time":1551800667113,"click_time":1551800670261,"finger_time":1551800669921,"fix_duration":250,"trial":7,"RT":2808,"MT":340,"sideResp":2,"stimulus":[],"xmouse":[777,777,777,777,777,777,777,777,777,777,777,777,777,777,777,777,777,777,777,777,777,777,777,777,777,777,777,777,777,777,777,777,777,777,777,777,777,777,777,777,777,777,777,777,777,777,777,777,777,777,777,777,777,777,777,777,777,777,777,777,777,777,777,777,777,777,777,777,777,777,777,777,777,777,777,777,777,777,777,777,777,777,777,777,777,777,777,777,777,777,777,777,777,777,777,777,777,777,777,777,777,777,777,777,777,777,777,777,777,777,777,777,777,777,777,777,777,777,777,777,777,777,777,777,777,777,777,777,777,777,777,777,777,778,782,788,794,800,805,812,821,826,834,842,858,867,878,890,904,933,946,966,990,1017,1062,1069,1070,1071],"ymouse":[526,526,526,526,526,526,526,526,526,526,526,526,526,526,526,526,526,526,526,526,526,526,526,526,526,526,526,526,526,526,526,526,526,526,526,526,526,526,526,526,526,526,526,526,526,526,526,526,526,526,526,526,526,526,526,526,526,526,526,526,526,526,526,526,526,526,526,526,526,526,526,526,526,526,526,526,526,526,526,526,526,526,526,526,526,526,526,526,526,526,526,526,526,526,526,526,526,526,526,526,526,526,526,526,526,526,526,526,526,526,526,526,526,526,526,526,526,526,526,526,526,526,526,526,526,526,526,526,526,526,526,526,526,526,523,514,506,497,486,474,457,445,429,417,394,378,361,343,324,285,266,239,205,169,113,104,100,99],"timestamp_mouse":[9,27,50,68,88,107,127,147,168,188,207,228,248,267,287,308,327,347,367,387,407,428,447,468,488,509,527,548,569,587,607,628,647,668,687,707,728,749,768,787,807,827,847,867,887,907,927,947,967,987,1007,1028,1048,1068,1087,1107,1127,1147,1167,1187,1208,1227,1248,1267,1287,1307,1329,1347,1368,1389,1407,1427,1448,1467,1487,1507,1527,1547,1567,1587,1608,1628,1647,1667,1687,1707,1727,1747,1767,1788,1807,1828,1847,1868,1887,1908,1927,1947,1967,1988,2007,2027,2047,2069,2088,2109,2128,2147,2167,2187,2208,2228,2247,2268,2287,2308,2328,2349,2369,2387,2408,2429,2448,2468,2487,2508,2527,2548,2567,2588,2608,2627,2647,2668,2687,2707,2727,2747,2767,2787,2808,2827,2848,2867,2887,2907,2927,2947,2967,2987,3007,3027,3047,3067,3087,3107,3127,3147],"xSR":741.5,"ySR":469.95,"xT1":424.9,"yT1":0,"xT2":1058.1,"yT2":0,"toosoon":0,"cond_shown":"Incongruent","ratio_trial":100,"L_num":13,"L_den":26,"R_num":12,"R_den":20,"correct_side":2,"subjID":"juanfelipeporrasduarte8","gender":"0","school":"6","age":"11"},{"start_time":1551800687507,"click_time":1551800689320,"finger_time":1551800688879,"fix_duration":766.19614761445,"trial":8,"RT":1372,"MT":441,"sideResp":2,"stimulus":[],"xmouse":[819,819,819,819,819,819,819,819,819,819,819,819,819,819,819,819,819,819,819,819,819,819,819,819,819,819,819,819,819,819,819,819,819,819,819,819,819,819,819,819,819,819,819,819,819,819,819,819,819,819,819,819,819,819,819,819,819,819,819,819,819,818,818,818,818,818,819,835,859,874,919,953,961,972,984,994,1006,1024,1032,1039,1052,1059,1077,1084,1086,1087,1088,1090,1092,1094,1096],"ymouse":[525,525,525,525,525,525,525,525,525,525,525,525,525,525,525,525,525,525,525,525,525,525,525,525,525,525,525,525,525,525,525,525,525,525,525,525,525,525,525,525,525,525,525,525,525,525,525,525,525,525,525,525,525,525,525,525,525,525,525,525,525,525,525,525,525,525,521,502,469,449,383,333,320,300,279,263,250,228,215,199,173,162,136,128,124,123,118,112,107,101,95],"timestamp_mouse":[14,35,54,72,93,112,132,154,174,193,213,233,253,274,293,314,333,352,373,393,412,433,454,472,493,513,532,554,572,592,614,633,653,673,692,714,733,753,773,792,813,832,854,872,893,913,932,952,974,992,1014,1032,1053,1073,1093,1112,1132,1152,1174,1192,1212,1233,1253,1274,1292,1312,1334,1353,1372,1392,1413,1434,1452,1472,1492,1513,1532,1552,1572,1593,1613,1632,1652,1673,1692,1712,1734,1752,1772,1793,1813],"xSR":741.5,"ySR":469.95,"xT1":424.9,"yT1":0,"xT2":1058.1,"yT2":0,"toosoon":0,"cond_shown":"Incongruent","ratio_trial":300,"L_num":13,"L_den":26,"R_num":12,"R_den":15,"correct_side":2,"subjID":"juanfelipeporrasduarte8","gender":"0","school":"6","age":"11"},{"start_time":1551800697912,"click_time":1551800719519,"finger_time":1551800708419,"fix_duration":250,"trial":9,"RT":10507,"MT":11100,"sideResp":1,"stimulus":[],"xmouse":[812,812,812,812,812,812,812,812,812,812,812,812,812,812,812,812,812,812,812,812,812,812,812,812,812,812,812,812,812,812,812,812,812,812,812,812,812,812,812,812,812,812,812,812,812,812,812,812,812,812,812,812,812,812,812,812,812,812,812,812,812,812,812,812,812,812,812,812,812,812,812,812,812,812,812,812,812,812,812,812,812,812,812,812,812,812,812,812,812,812,812,812,812,812,812,812,812,812,812,812,812,812,812,812,812,812,812,812,812,812,812,812,812,812,812,812,812,812,812,812,812,812,812,812,812,812,812,812,812,812,812,812,812,812,812,812,812,812,812,812,812,812,812,812,812,812,812,812,812,812,812,812,812,812,812,812,812,812,812,812,812,812,812,812,812,812,812,812,812,812,812,812,812,812,812,812,812,812,812,812,812,812,812,812,812,812,812,812,812,812,812,812,812,812,812,812,812,812,812,812,812,812,812,812,812,812,812,812,812,812,812,812,812,812,812,812,812,812,812,812,812,812,812,812,812,812,812,812,812,812,812,812,812,812,812,812,812,812,812,812,812,812,812,812,812,812,812,812,812,812,812,812,812,812,812,812,812,812,812,812,812,812,812,812,812,812,812,812,812,812,812,812,812,812,812,812,812,812,812,812,812,812,812,812,812,812,812,812,812,812,812,812,812,812,812,812,812,812,812,812,812,812,812,812,812,812,812,812,812,812,812,812,812,812,812,812,812,812,812,812,812,812,812,812,812,812,812,812,812,812,812,812,812,812,812,812,812,812,812,812,812,812,812,812,812,812,812,812,812,812,812,812,812,812,812,812,812,812,812,812,812,812,812,812,812,812,812,812,812,812,812,812,812,812,812,812,812,812,812,812,812,812,812,812,812,812,812,812,812,812,812,812,812,812,812,812,812,812,812,812,812,812,812,812,812,812,812,812,812,812,812,812,812,812,812,812,812,812,812,812,812,812,812,812,812,812,812,812,812,812,812,812,812,812,812,812,812,812,812,812,812,812,812,812,812,812,812,812,812,812,812,812,812,812,812,812,812,812,812,812,812,812,812,812,812,812,812,812,812,812,812,812,812,812,812,812,812,812,812,812,812,812,812,812,812,812,812,812,812,812,812,812,812,812,812,812,812,812,812,812,812,812,812,812,812,812,812,812,812,812,812,812,812,812,812,812,812,812,812,812,803,792,778,768,743,732,725,723,723,722,722,722,722,722,721,720,719,719,718,717,715,714,713,712,711,709,706,702,695,690,690,690,690,690,691,692,695,697,701,705,705,701,693,685,673,670,669,667,667,667,667,666,665,663,652,645,637,630,625,620,618,618,618,617,610,608,607,607,606,601,597,595,595,594,590,588,585,584,583,580,579,578,577,576,571,568,567,566,565,563,561,560,558,558,556,555,554,554,553,551,550,550,548,548,547,547,547,546,544,541,540,540,539,539,538,538,538,538,538,538,538,537,537,537,537,537,537,537,537,537,537,537,537,536,535,535,535,535,535,535,535,534,534,534,533,533,532,532,532,532,532,531,531,531,531,531,531,531,531,531,531,531,531,531,531,531,531,531,531,531,531,531,531,531,531,531,531,533,539,566,583,601,618,631,649,652,653,654,658,682,695,705,712,716,722,726,732,740,755,774,780,786,790,795,806,812,818,825,832,853,862,877,895,917,954,963,966,969,970,971,972,976,981,987,997,1000,1001,1002,1003,1004,1004,1005,1008,1009,1009,1010,1012,1014,1015,1018,1020,1021,1022,1023,1024,1024,1025,1026,1026,1026,1026,1026,1026,1026,1026,1026,1026,1026,1026,1028,1028,1028,1028,1028,1028,1028,1026,1019,1008,972,957,938,918,904,877,865,854,845,832,817,808,801,793,783,773,757,752,749,748,748,748,748,748,748,748,748,748,748,748,748,748,748,748,748,748,748,748,748,748,748,748,748,748,748,748,748,748,748,748,748,748,748,748,748,748,748,748,748,748,748,748,748,748,748,748,748,748,748,748,748,748,748,748,748,748,748,748,748,748,748,748,748,748,748,748,748,748,748,748,748,748,748,748,748,748,748,748,748,748,748,748,748,748,748,748,748,748,748,748,748,748,748,748,748,748,748,748,748,748,748,748,748,748,748,748,748,748,748,748,748,748,748,748,748,748,748,748,748,748,748,748,748,748,748,748,748,748,748,748,748,748,748,748,748,748,748,748,748,748,748,748,748,748,748,748,748,748,748,748,748,748,748,748,748,748,748,748,748,748,748,748,748,748,748,748,748,748,748,748,748,748,748,748,748,748,748,748,748,748,748,748,748,748,748,748,748,748,748,748,748,748,748,748,748,748,748,748,748,748,748,748,748,748,748,748,748,748,748,748,748,748,748,748,748,748,748,748,748,747,747,746,745,745,743,743,740,737,734,731,729,728,727,725,723,721,720,720,719,719,719,718,718,717,717,717,716,716,714,713,712,710,709,708,707,706,702,696,690,682,668,638,626,619,612,602,586,568,554,539,526,510],"ymouse":[536,536,536,536,536,536,536,536,536,536,536,536,536,536,536,536,536,536,536,536,536,536,536,536,536,536,536,536,536,536,536,536,536,536,536,536,536,536,536,536,536,536,536,536,536,536,536,536,536,536,536,536,536,536,536,536,536,536,536,536,536,536,536,536,536,536,536,536,536,536,536,536,536,536,536,536,536,536,536,536,536,536,536,536,536,536,536,536,536,536,536,536,536,536,536,536,536,536,536,536,536,536,536,536,536,536,536,536,536,536,536,536,536,536,536,536,536,536,536,536,536,536,536,536,536,536,536,536,536,536,536,536,536,536,536,536,536,536,536,536,536,536,536,536,536,536,536,536,536,536,536,536,536,536,536,536,536,536,536,536,536,536,536,536,536,536,536,536,536,536,536,536,536,536,536,536,536,536,536,536,536,536,536,536,536,536,536,536,536,536,536,536,536,536,536,536,536,536,536,536,536,536,536,536,536,536,536,536,536,536,536,536,536,536,536,536,536,536,536,536,536,536,536,536,536,536,536,536,536,536,536,536,536,536,536,536,536,536,536,536,536,536,536,536,536,536,536,536,536,536,536,536,536,536,536,536,536,536,536,536,536,536,536,536,536,536,536,536,536,536,536,536,536,536,536,536,536,536,536,536,536,536,536,536,536,536,536,536,536,536,536,536,536,536,536,536,536,536,536,536,536,536,536,536,536,536,536,536,536,536,536,536,536,536,536,536,536,536,536,536,536,536,536,536,536,536,536,536,536,536,536,536,536,536,536,536,536,536,536,536,536,536,536,536,536,536,536,536,536,536,536,536,536,536,536,536,536,536,536,536,536,536,536,536,536,536,536,536,536,536,536,536,536,536,536,536,536,536,536,536,536,536,536,536,536,536,536,536,536,536,536,536,536,536,536,536,536,536,536,536,536,536,536,536,536,536,536,536,536,536,536,536,536,536,536,536,536,536,536,536,536,536,536,536,536,536,536,536,536,536,536,536,536,536,536,536,536,536,536,536,536,536,536,536,536,536,536,536,536,536,536,536,536,536,536,536,536,536,536,536,536,536,536,536,536,536,536,536,536,536,536,536,536,536,536,536,536,536,536,536,536,536,536,536,536,536,536,536,536,536,536,536,536,536,536,536,536,536,536,536,536,536,536,536,536,536,536,536,536,536,536,536,536,536,536,536,536,536,536,536,536,534,529,525,514,509,506,504,504,504,504,504,503,503,502,501,500,500,500,498,496,494,491,488,477,466,448,428,412,394,390,387,386,385,380,371,363,354,342,312,299,273,253,234,211,207,204,201,199,196,195,192,186,180,154,138,128,117,110,104,102,102,102,100,94,92,91,91,91,87,84,83,83,83,79,77,75,74,74,72,71,71,70,69,66,64,62,61,61,58,57,55,54,53,50,48,47,46,45,42,40,39,37,36,35,34,34,32,31,26,25,25,24,23,23,22,22,22,21,20,19,17,17,17,16,16,16,16,16,16,15,15,15,15,13,13,13,13,12,12,12,11,11,10,9,9,8,8,8,7,6,6,6,6,6,6,6,6,6,6,6,6,6,6,6,6,6,6,6,6,6,6,6,6,6,6,6,6,6,13,15,18,20,22,25,26,26,26,27,32,33,35,36,37,37,37,37,37,37,37,37,37,37,37,37,37,37,37,37,37,37,37,37,37,39,40,40,40,40,40,40,40,40,40,39,38,37,37,36,35,35,35,34,33,33,32,31,30,29,27,26,25,24,24,23,22,22,21,21,20,20,20,20,20,20,20,20,20,20,20,20,20,20,20,20,20,20,20,20,20,20,25,34,41,58,66,74,81,89,102,109,115,125,137,148,172,179,185,186,186,186,186,186,186,186,186,186,186,186,186,186,186,186,186,186,186,186,186,186,186,186,186,186,186,186,186,186,186,186,186,186,186,186,186,186,186,186,186,186,186,186,186,186,186,186,186,186,186,186,186,186,186,186,186,186,186,186,186,186,186,186,186,186,186,186,186,186,186,186,186,186,186,186,186,186,186,186,186,186,186,186,186,186,186,186,186,186,186,186,186,186,186,186,186,186,186,186,186,186,186,186,186,186,186,186,186,186,186,186,186,186,186,186,186,186,186,186,186,186,186,186,186,186,186,186,186,186,186,186,186,186,186,186,186,186,186,186,186,186,186,186,186,186,186,186,186,186,186,186,186,186,186,186,186,186,186,186,186,186,186,186,186,186,186,186,186,186,186,186,186,186,186,186,186,186,186,186,186,186,186,186,186,186,186,186,186,186,186,186,186,186,186,186,186,186,186,186,186,186,186,186,186,186,186,186,186,186,186,186,186,186,186,186,186,186,186,186,186,187,187,187,187,187,187,187,187,187,186,186,185,184,183,183,182,181,181,181,181,181,181,181,181,181,181,181,181,181,181,181,181,180,179,178,178,177,177,174,174,171,170,165,161,160,157,152,145,136,127,119,112,98],"timestamp_mouse":[10,33,48,68,89,107,128,147,167,187,207,229,247,267,288,308,329,349,367,389,408,428,449,467,487,509,528,547,569,588,609,628,649,667,687,709,728,748,769,788,807,828,848,869,887,909,928,949,968,987,1007,1027,1048,1069,1087,1107,1128,1149,1168,1187,1208,1229,1248,1268,1288,1308,1328,1348,1368,1388,1407,1427,1448,1468,1488,1509,1528,1548,1567,1588,1607,1629,1648,1668,1688,1707,1728,1747,1769,1787,1808,1827,1848,1867,1889,1909,1927,1947,1968,1987,2009,2028,2048,2069,2088,2108,2127,2149,2168,2188,2209,2229,2247,2267,2289,2309,2327,2347,2369,2389,2408,2427,2447,2469,2487,2507,2529,2548,2567,2589,2607,2627,2649,2668,2687,2708,2727,2748,2769,2787,2807,2829,2849,2869,2888,2908,2929,2948,2967,2987,3009,3027,3047,3068,3089,3108,3129,3147,3169,3187,3208,3228,3247,3269,3289,3308,3329,3349,3369,3387,3408,3429,3448,3469,3488,3509,3527,3548,3567,3589,3607,3627,3648,3669,3687,3708,3727,3748,3767,3788,3809,3829,3848,3868,3889,3907,3928,3948,3969,3989,4007,4027,4049,4069,4089,4108,4127,4148,4168,4188,4208,4229,4248,4267,4288,4308,4328,4348,4369,4388,4408,4428,4449,4468,4488,4508,4529,4548,4567,4588,4609,4627,4648,4668,4688,4709,4728,4748,4768,4787,4808,4827,4847,4867,4888,4908,4928,4947,4967,4989,5007,5027,5047,5067,5088,5114,5128,5148,5167,5188,5207,5228,5248,5267,5287,5308,5327,5347,5367,5387,5408,5428,5448,5467,5489,5508,5529,5549,5567,5588,5607,5627,5647,5668,5688,5708,5727,5747,5768,5788,5808,5827,5848,5867,5888,5909,5928,5949,5967,5989,6008,6027,6048,6068,6088,6108,6128,6147,6167,6189,6208,6229,6247,6267,6288,6308,6327,6347,6369,6387,6407,6428,6448,6468,6489,6508,6527,6548,6568,6587,6608,6627,6647,6667,6687,6707,6728,6747,6769,6788,6808,6829,6848,6868,6887,6909,6927,6948,6968,6987,7008,7029,7048,7067,7087,7108,7129,7147,7167,7189,7208,7227,7247,7267,7288,7307,7328,7348,7368,7387,7407,7427,7447,7468,7488,7509,7528,7547,7569,7587,7608,7628,7647,7667,7688,7707,7727,7748,7768,7788,7808,7828,7848,7867,7887,7908,7928,7948,7968,7989,8008,8027,8047,8068,8087,8109,8128,8147,8168,8189,8207,8228,8247,8268,8287,8307,8327,8347,8367,8388,8407,8428,8448,8468,8489,8507,8528,8547,8569,8587,8608,8628,8647,8667,8687,8707,8727,8748,8767,8787,8807,8827,8848,8867,8887,8909,8928,8948,8967,8988,9007,9027,9047,9067,9088,9109,9127,9148,9167,9188,9208,9227,9248,9268,9287,9308,9328,9348,9368,9387,9407,9427,9448,9467,9488,9509,9528,9548,9567,9589,9607,9627,9647,9669,9687,9709,9727,9747,9767,9787,9808,9827,9848,9867,9889,9907,9927,9948,9968,9987,10007,10029,10048,10069,10089,10107,10127,10149,10167,10189,10208,10227,10248,10268,10289,10308,10328,10348,10369,10387,10407,10428,10449,10467,10487,10507,10527,10547,10567,10588,10607,10627,10647,10668,10688,10708,10727,10747,10768,10788,10808,10827,10847,10868,10888,10908,10927,10947,10969,10988,11009,11027,11048,11067,11087,11108,11127,11148,11168,11187,11208,11228,11247,11267,11289,11309,11327,11347,11368,11387,11408,11428,11448,11467,11487,11508,11527,11547,11568,11587,11607,11627,11647,11667,11688,11708,11728,11748,11767,11787,11808,11828,11848,11867,11887,11908,11928,11949,11968,11987,12007,12027,12048,12067,12088,12109,12128,12147,12167,12187,12208,12227,12247,12268,12287,12308,12327,12347,12368,12387,12408,12427,12447,12468,12488,12509,12527,12548,12568,12588,12607,12629,12648,12667,12689,12707,12727,12747,12768,12788,12808,12827,12848,12868,12888,12908,12928,12948,12967,12989,13009,13028,13047,13067,13088,13108,13127,13148,13168,13188,13209,13227,13247,13269,13288,13308,13327,13347,13368,13387,13407,13427,13447,13468,13487,13507,13527,13547,13568,13587,13608,13628,13649,13669,13689,13708,13728,13748,13768,13789,13809,13829,13848,13869,13889,13908,13928,13948,13968,13988,14009,14028,14049,14069,14088,14108,14128,14148,14169,14188,14209,14227,14248,14267,14288,14307,14327,14347,14367,14388,14408,14427,14448,14467,14487,14509,14527,14547,14567,14588,14608,14628,14648,14667,14687,14707,14728,14747,14767,14788,14807,14827,14848,14867,14889,14907,14928,14948,14967,14988,15008,15027,15047,15069,15088,15108,15127,15147,15167,15187,15207,15227,15248,15267,15288,15308,15327,15348,15367,15387,15407,15427,15447,15468,15489,15509,15527,15548,15567,15588,15608,15627,15648,15667,15688,15709,15728,15749,15768,15788,15808,15828,15848,15868,15887,15908,15928,15947,15967,15988,16007,16028,16047,16067,16088,16108,16128,16148,16168,16187,16208,16228,16247,16268,16288,16307,16328,16348,16367,16387,16409,16429,16448,16468,16488,16507,16528,16548,16568,16589,16609,16629,16648,16668,16689,16707,16728,16747,16768,16788,16809,16828,16847,16867,16888,16907,16929,16947,16967,16989,17009,17028,17047,17067,17088,17108,17128,17149,17167,17188,17208,17228,17248,17267,17287,17308,17328,17347,17367,17387,17409,17427,17447,17468,17489,17507,17527,17547,17568,17589,17607,17628,17649,17669,17688,17708,17729,17748,17767,17787,17807,17827,17848,17868,17887,17907,17928,17948,17968,17987,18007,18027,18048,18068,18089,18108,18127,18148,18169,18189,18207,18227,18247,18269,18287,18308,18328,18348,18368,18388,18407,18427,18448,18468,18488,18507,18528,18549,18568,18588,18608,18627,18647,18667,18688,18709,18727,18749,18768,18788,18808,18827,18848,18868,18888,18908,18928,18948,18967,18988,19009,19028,19049,19067,19088,19108,19127,19148,19168,19188,19209,19228,19247,19268,19287,19308,19327,19347,19368,19388,19408,19429,19449,19468,19488,19507,19527,19547,19568,19587,19608,19629,19648,19668,19688,19708,19727,19748,19768,19788,19807,19828,19848,19868,19887,19908,19928,19947,19968,19987,20008,20029,20048,20069,20088,20108,20127,20148,20168,20188,20208,20228,20248,20267,20288,20307,20327,20348,20368,20388,20409,20428,20448,20468,20488,20508,20529,20549,20569,20587,20607,20627,20647,20667,20688,20707,20729,20748,20768,20788,20807,20827,20848,20867,20888,20908,20929,20949,20968,20988,21007,21028,21048,21069,21089,21108,21128,21147,21168,21187,21208,21227,21249,21267,21288,21307,21328,21348,21368,21388,21407,21427,21447,21467,21487,21508,21528,21547,21568,21587,21607],"xSR":741.5,"ySR":469.95,"xT1":424.9,"yT1":0,"xT2":1058.1,"yT2":0,"toosoon":0,"cond_shown":"Congruent","ratio_trial":100,"L_num":6,"L_den":12,"R_num":15,"R_den":25,"correct_side":2,"subjID":"juanfelipeporrasduarte8","gender":"0","school":"6","age":"11"},{"start_time":1551800721647,"click_time":1551800723579,"finger_time":1551800723099,"fix_duration":526.2515175065494,"trial":10,"RT":1452,"MT":480,"sideResp":1,"stimulus":[],"xmouse":[792,792,792,792,792,792,792,792,792,792,792,792,792,792,792,792,792,792,792,792,792,792,792,792,792,792,792,792,792,792,792,792,792,792,792,792,792,792,792,792,792,792,792,792,792,792,792,792,792,792,792,792,792,792,792,792,792,792,792,792,792,792,792,792,792,792,792,791,789,785,783,779,772,760,713,678,634,590,546,518,512,508,505,502,501,501,501,503,508,509,510,510,510,509,506,505,505],"ymouse":[497,497,497,497,497,497,497,497,497,497,497,497,497,497,497,497,497,497,497,497,497,497,497,497,497,497,497,497,497,497,497,497,497,497,497,497,497,497,497,497,497,497,497,497,497,497,497,497,497,497,497,497,497,497,497,497,497,497,497,497,497,497,497,497,497,497,497,497,496,491,487,481,469,453,402,375,343,312,276,241,226,211,198,185,170,164,155,151,133,126,121,116,112,109,104,100,98],"timestamp_mouse":[12,32,53,73,93,113,132,154,172,192,213,232,254,273,292,313,333,352,373,394,413,434,452,473,494,512,533,554,572,594,613,633,654,673,693,713,733,752,773,793,813,833,852,874,892,914,932,954,972,993,1014,1032,1052,1072,1093,1113,1134,1154,1173,1193,1213,1233,1253,1272,1292,1312,1333,1353,1372,1393,1412,1432,1452,1474,1493,1512,1532,1553,1572,1592,1614,1632,1652,1672,1692,1713,1733,1753,1773,1792,1812,1832,1852,1872,1893,1913,1932],"xSR":741.5,"ySR":469.95,"xT1":424.9,"yT1":0,"xT2":1058.1,"yT2":0,"toosoon":0,"cond_shown":"Incongruent","ratio_trial":300,"L_num":7,"L_den":10,"R_num":8,"R_den":20,"correct_side":1,"subjID":"juanfelipeporrasduarte8","gender":"0","school":"6","age":"11"},{"start_time":1551800726588,"click_time":1551800728440,"finger_time":1551800728200,"fix_duration":1486.7526957190587,"trial":11,"RT":1612,"MT":240,"sideResp":1,"stimulus":[],"xmouse":[800,800,800,800,800,800,800,800,800,800,800,800,800,800,800,800,800,800,800,800,800,800,800,800,800,800,800,800,800,800,800,800,800,800,800,800,800,800,800,800,800,800,800,800,800,800,800,800,800,800,800,800,800,800,800,800,800,800,800,800,800,800,800,800,800,800,800,800,800,800,800,800,800,800,800,800,800,800,797,777,731,681,584,562,553,549,549,543,537,532,525,517,503],"ymouse":[543,543,543,543,543,543,543,543,543,543,543,543,543,543,543,543,543,543,543,543,543,543,543,543,543,543,543,543,543,543,543,543,543,543,543,543,543,543,543,543,543,543,543,543,543,543,543,543,543,543,543,543,543,543,543,543,543,543,543,543,543,543,543,543,543,543,543,543,543,543,543,543,543,543,543,543,543,543,531,483,401,320,196,173,162,155,153,144,134,127,119,108,89],"timestamp_mouse":[11,32,52,71,92,112,131,152,171,192,212,232,252,271,293,312,332,352,372,391,411,432,451,471,492,511,532,551,571,592,612,631,651,672,693,713,732,751,772,791,812,832,851,872,893,913,932,952,973,992,1012,1032,1051,1072,1093,1111,1132,1152,1173,1191,1212,1232,1252,1272,1292,1312,1331,1352,1371,1392,1412,1431,1453,1471,1493,1513,1532,1552,1572,1591,1612,1631,1651,1671,1693,1712,1733,1752,1772,1791,1812,1831,1851],"xSR":741.5,"ySR":469.95,"xT1":424.9,"yT1":0,"xT2":1058.1,"yT2":0,"toosoon":0,"cond_shown":"Congruent","ratio_trial":100,"L_num":8,"L_den":16,"R_num":2,"R_den":5,"correct_side":1,"subjID":"juanfelipeporrasduarte8","gender":"0","school":"6","age":"11"},{"start_time":1551800730203,"click_time":1551800732199,"finger_time":1551800731619,"fix_duration":542.9361412064857,"trial":12,"RT":1416,"MT":580,"sideResp":1,"stimulus":[],"xmouse":[759,759,759,759,759,759,759,759,759,759,759,759,759,759,759,759,759,759,759,759,759,759,759,759,759,759,759,759,759,759,759,759,759,759,759,759,759,759,759,759,759,759,759,759,759,759,759,759,759,759,759,759,759,759,759,759,759,759,759,759,759,759,759,759,759,759,759,759,751,746,736,719,713,706,702,695,686,678,669,658,646,630,583,545,504,447,407,396,392,391,391,391,391,392,393,395,398,410,419,433],"ymouse":[513,513,513,513,513,513,513,513,513,513,513,513,513,513,513,513,513,513,513,513,513,513,513,513,513,513,513,513,513,513,513,513,513,513,513,513,513,513,513,513,513,513,513,513,513,513,513,513,513,513,513,513,513,513,513,513,513,513,513,513,513,513,513,513,513,513,513,513,499,490,474,443,427,412,400,383,359,345,329,311,292,272,222,191,162,124,96,87,83,83,82,82,81,80,80,79,78,76,76,76],"timestamp_mouse":[17,42,58,77,97,117,137,157,176,197,217,236,256,277,297,318,336,356,376,397,416,438,458,476,497,518,537,556,576,596,617,637,658,676,697,716,737,757,776,796,818,837,857,877,898,917,937,958,977,996,1016,1037,1057,1078,1096,1117,1136,1158,1177,1197,1217,1237,1257,1276,1296,1317,1336,1356,1376,1397,1416,1438,1456,1477,1497,1518,1537,1556,1576,1596,1616,1637,1656,1676,1697,1716,1738,1756,1776,1798,1817,1838,1856,1877,1897,1917,1936,1956,1976,1996],"xSR":741.5,"ySR":469.95,"xT1":424.9,"yT1":0,"xT2":1058.1,"yT2":0,"toosoon":0,"cond_shown":"Incongruent","ratio_trial":100,"L_num":6,"L_den":12,"R_num":3,"R_den":5,"correct_side":2,"subjID":"juanfelipeporrasduarte8","gender":"0","school":"6","age":"11"},{"start_time":1551800736448,"click_time":1551800738720,"finger_time":1551800738159,"fix_duration":487.1381484971988,"trial":13,"RT":1711,"MT":561,"sideResp":1,"stimulus":[],"xmouse":[818,818,818,818,818,818,818,818,818,818,818,818,818,818,818,818,818,818,818,818,818,818,818,818,818,818,818,818,818,818,818,818,818,818,818,818,818,818,818,818,818,818,818,818,818,818,818,818,818,818,818,818,818,818,818,818,818,818,818,818,818,818,818,818,818,818,818,818,818,818,818,818,818,818,818,818,818,818,818,818,818,817,814,808,799,770,752,731,710,685,676,672,671,667,661,638,624,609,595,575,554,550,548,548,546,545,542,537,532,518,504,479,470,463],"ymouse":[535,535,535,535,535,535,535,535,535,535,535,535,535,535,535,535,535,535,535,535,535,535,535,535,535,535,535,535,535,535,535,535,535,535,535,535,535,535,535,535,535,535,535,535,535,535,535,535,535,535,535,535,535,535,535,535,535,535,535,535,535,535,535,535,535,535,535,535,535,535,535,535,535,535,535,535,535,535,535,535,535,534,529,517,500,460,442,425,412,396,384,376,367,357,343,308,288,270,253,231,212,208,203,201,198,192,185,177,166,150,137,112,102,92],"timestamp_mouse":[12,46,52,72,92,116,133,151,172,192,213,233,252,272,292,311,331,351,371,391,411,432,451,472,493,512,531,551,571,593,611,631,653,673,692,712,732,752,772,792,811,831,851,873,891,912,931,951,973,992,1013,1031,1051,1071,1092,1111,1132,1151,1173,1192,1211,1232,1251,1272,1293,1311,1332,1351,1373,1391,1411,1433,1452,1471,1493,1512,1531,1553,1571,1591,1612,1632,1653,1673,1692,1711,1732,1752,1773,1793,1812,1833,1852,1873,1893,1912,1933,1953,1973,1991,2012,2032,2052,2072,2092,2112,2132,2152,2172,2191,2212,2231,2251,2272],"xSR":741.5,"ySR":469.95,"xT1":424.9,"yT1":0,"xT2":1058.1,"yT2":0,"toosoon":0,"cond_shown":"Congruent","ratio_trial":100,"L_num":10,"L_den":25,"R_num":3,"R_den":10,"correct_side":1,"subjID":"juanfelipeporrasduarte8","gender":"0","school":"6","age":"11"},{"start_time":1551800741164,"click_time":1551800743561,"finger_time":1551800742820,"fix_duration":901.8924680116456,"trial":14,"RT":1656,"MT":741,"sideResp":2,"stimulus":[],"xmouse":[788,788,788,788,788,788,788,788,788,788,788,788,788,788,788,788,788,788,788,788,788,788,788,788,788,788,788,788,788,788,788,788,788,788,788,788,788,788,788,788,788,788,788,788,788,788,788,788,788,788,788,788,788,788,788,788,788,788,788,788,788,788,788,788,788,788,788,788,788,788,788,788,788,788,788,788,788,788,788,788,793,809,839,857,872,888,894,897,900,902,905,906,906,908,910,918,924,930,940,953,959,963,971,977,987,1006,1016,1024,1033,1041,1050,1055,1062,1066,1070,1078,1083,1088,1094,1100],"ymouse":[521,521,521,521,521,521,521,521,521,521,521,521,521,521,521,521,521,521,521,521,521,521,521,521,521,521,521,521,521,521,521,521,521,521,521,521,521,521,521,521,521,521,521,521,521,521,521,521,521,521,521,521,521,521,521,521,521,521,521,521,521,521,521,521,521,521,521,521,521,521,521,521,521,521,521,521,521,521,521,521,516,498,461,442,430,410,401,393,389,385,381,378,378,376,373,364,356,349,340,324,315,306,290,276,261,226,210,195,182,172,158,153,144,137,129,117,111,107,101,95],"timestamp_mouse":[15,35,57,76,96,117,136,156,176,195,217,235,255,275,295,316,337,356,377,396,415,435,455,477,497,516,535,556,577,597,616,635,655,676,697,716,735,755,775,796,815,837,855,875,897,916,936,956,975,996,1017,1037,1055,1076,1097,1115,1135,1157,1176,1195,1215,1235,1255,1276,1297,1315,1336,1356,1377,1397,1415,1436,1455,1477,1495,1515,1536,1555,1577,1595,1615,1636,1656,1675,1695,1716,1737,1756,1775,1796,1815,1836,1856,1876,1895,1916,1936,1955,1975,1997,2015,2036,2055,2075,2096,2116,2135,2155,2176,2196,2216,2235,2255,2275,2295,2316,2336,2355,2375,2396],"xSR":741.5,"ySR":469.95,"xT1":424.9,"yT1":0,"xT2":1058.1,"yT2":0,"toosoon":0,"cond_shown":"Incongruent","ratio_trial":200,"L_num":14,"L_den":30,"R_num":12,"R_den":18,"correct_side":2,"subjID":"juanfelipeporrasduarte8","gender":"0","school":"6","age":"11"},{"start_time":1551800745517,"click_time":1551800747802,"finger_time":1551800747460,"fix_duration":675.7399544206818,"trial":15,"RT":1943,"MT":342,"sideResp":1,"stimulus":[],"xmouse":[796,796,796,796,796,796,796,796,796,796,796,796,796,796,796,796,796,796,796,796,796,796,796,796,796,796,796,796,796,796,796,796,796,796,796,796,796,796,796,796,796,796,796,796,796,796,796,796,796,796,796,796,796,796,796,796,796,796,796,796,796,796,796,796,796,796,796,796,796,796,796,796,796,796,796,796,796,796,796,796,796,796,796,796,796,796,796,796,796,796,796,796,796,793,778,759,743,728,707,695,687,680,672,663,658,653,645,633,620,576,556,542,536,525,523],"ymouse":[521,521,521,521,521,521,521,521,521,521,521,521,521,521,521,521,521,521,521,521,521,521,521,521,521,521,521,521,521,521,521,521,521,521,521,521,521,521,521,521,521,521,521,521,521,521,521,521,521,521,521,521,521,521,521,521,521,521,521,521,521,521,521,521,521,521,521,521,521,521,521,521,521,521,521,521,521,521,521,521,521,521,521,521,521,521,521,521,521,521,521,521,521,519,504,488,472,455,419,402,388,375,358,337,326,315,294,270,246,184,160,142,128,103,97],"timestamp_mouse":[8,22,42,63,82,102,124,144,162,182,203,223,242,263,282,304,323,343,363,383,402,424,442,464,484,502,524,542,562,583,602,623,642,662,684,702,723,742,762,783,802,823,844,862,883,903,924,942,962,982,1002,1024,1043,1062,1084,1103,1122,1144,1162,1182,1204,1222,1242,1263,1284,1304,1322,1343,1362,1382,1403,1423,1444,1462,1484,1504,1523,1542,1562,1582,1603,1624,1643,1663,1684,1703,1723,1744,1763,1782,1804,1824,1843,1863,1883,1903,1923,1943,1962,1982,2004,2023,2044,2063,2085,2103,2123,2143,2163,2184,2203,2224,2243,2263,2285],"xSR":741.5,"ySR":469.95,"xT1":424.9,"yT1":0,"xT2":1058.1,"yT2":0,"toosoon":0,"cond_shown":"Congruent","ratio_trial":300,"L_num":24,"L_den":30,"R_num":2,"R_den":4,"correct_side":1,"subjID":"juanfelipeporrasduarte8","gender":"0","school":"6","age":"11"},{"start_time":1551800765015,"click_time":1551800766640,"finger_time":1551800766321,"fix_duration":751.4922770165874,"trial":16,"RT":1306,"MT":319,"sideResp":1,"stimulus":[],"xmouse":[772,772,772,772,772,772,772,772,772,772,772,772,772,772,772,772,772,772,772,772,772,772,772,772,772,772,772,772,772,772,772,772,772,772,772,772,772,772,772,772,772,772,772,772,772,772,772,772,772,772,772,772,772,772,772,772,772,772,771,771,768,768,768,767,762,733,713,694,682,661,648,618,602,587,580,573,567,562,558,546,530,520],"ymouse":[514,514,514,514,514,514,514,514,514,514,514,514,514,514,514,514,514,514,514,514,514,514,514,514,514,514,514,514,514,514,514,514,514,514,514,514,514,514,514,514,514,514,514,514,514,514,514,514,514,514,514,514,514,514,514,515,515,515,515,515,515,515,515,515,513,494,481,468,458,439,418,352,313,281,260,232,215,195,177,150,111,93],"timestamp_mouse":[9,38,45,65,86,106,126,145,166,185,205,225,245,266,285,305,326,346,365,385,406,426,445,465,485,505,526,545,566,586,606,625,645,666,685,705,726,745,766,785,805,826,845,866,885,905,925,945,965,987,1006,1025,1046,1067,1085,1105,1126,1146,1166,1186,1206,1225,1246,1265,1285,1306,1325,1346,1365,1385,1405,1425,1445,1466,1485,1506,1525,1546,1565,1585,1606,1625],"xSR":741.5,"ySR":469.95,"xT1":424.9,"yT1":0,"xT2":1058.1,"yT2":0,"toosoon":0,"cond_shown":"Congruent","ratio_trial":200,"L_num":12,"L_den":15,"R_num":6,"R_den":10,"correct_side":1,"subjID":"juanfelipeporrasduarte8","gender":"0","school":"6","age":"11"},{"start_time":1551800784678,"click_time":1551800786062,"finger_time":1551800785940,"fix_duration":1116.72383000944,"trial":17,"RT":1262,"MT":122,"sideResp":2,"stimulus":[],"xmouse":[771,771,771,771,771,771,771,771,771,771,771,771,771,771,771,771,771,771,771,771,771,771,771,771,771,771,771,771,771,771,771,771,771,771,771,771,771,771,771,771,771,771,771,771,771,771,771,771,771,771,771,771,771,771,771,771,771,771,771,771,771,774,788,813,910,986,1022,1036,1057,1065],"ymouse":[500,500,500,500,500,500,500,500,500,500,500,500,500,500,500,500,500,500,500,500,500,500,500,500,500,500,500,500,500,500,500,500,500,500,500,500,500,500,500,500,500,500,500,500,500,500,500,500,500,500,500,500,500,500,500,500,500,500,500,500,500,498,479,451,348,265,215,184,125,90],"timestamp_mouse":[9,22,43,63,83,102,122,142,163,184,202,223,243,262,284,302,323,342,364,383,402,423,442,463,483,504,522,542,562,582,603,622,643,663,684,702,723,742,762,782,803,823,844,863,883,902,922,942,963,983,1002,1023,1043,1063,1083,1102,1122,1142,1163,1183,1204,1222,1242,1262,1284,1303,1323,1343,1363,1383],"xSR":741.5,"ySR":469.95,"xT1":424.9,"yT1":0,"xT2":1058.1,"yT2":0,"toosoon":0,"cond_shown":"Incongruent","ratio_trial":200,"L_num":1,"L_den":3,"R_num":2,"R_den":15,"correct_side":1,"subjID":"juanfelipeporrasduarte8","gender":"0","school":"6","age":"11"},{"start_time":1551800811070,"click_time":1551800812780,"finger_time":1551800812641,"fix_duration":628.5988094040636,"trial":18,"RT":1571,"MT":139,"sideResp":2,"stimulus":[],"xmouse":[778,778,778,778,778,778,778,778,778,778,778,778,779,779,779,779,779,779,779,779,779,779,779,779,779,779,779,779,779,779,779,779,779,779,779,779,779,779,779,779,779,779,779,779,779,779,779,779,779,779,779,779,779,779,779,779,779,779,779,779,779,779,779,779,779,779,779,779,779,779,779,779,779,779,779,782,790,807,885,928,965,995,1016,1042,1057,1066],"ymouse":[528,528,528,528,528,528,528,528,528,528,528,529,529,529,529,529,529,529,529,529,529,529,529,529,529,529,529,529,529,529,529,529,529,529,529,529,529,529,529,529,529,529,529,529,529,529,529,529,529,529,529,529,529,529,529,529,529,529,529,529,529,529,529,529,529,529,529,529,529,529,529,529,529,529,529,528,518,488,350,278,214,167,139,105,85,75],"timestamp_mouse":[10,31,68,71,91,111,131,151,170,191,210,231,250,272,290,310,330,350,371,391,411,432,450,471,491,512,531,551,571,590,611,631,650,670,692,711,732,752,770,791,811,830,851,872,890,911,930,952,970,990,1010,1031,1051,1072,1091,1110,1130,1152,1170,1190,1212,1230,1263,1271,1291,1312,1331,1352,1371,1390,1411,1430,1451,1470,1491,1510,1530,1552,1571,1591,1612,1630,1651,1671,1691,1710],"xSR":741.5,"ySR":469.95,"xT1":424.9,"yT1":0,"xT2":1058.1,"yT2":0,"toosoon":0,"cond_shown":"Incongruent","ratio_trial":200,"L_num":7,"L_den":15,"R_num":4,"R_den":6,"correct_side":2,"subjID":"juanfelipeporrasduarte8","gender":"0","school":"6","age":"11"},{"start_time":1551800821071,"click_time":1551800822960,"finger_time":1551800822521,"fix_duration":250,"trial":19,"RT":1450,"MT":439,"sideResp":1,"stimulus":[],"xmouse":[799,799,799,799,799,799,799,799,799,799,799,799,799,799,799,799,799,799,799,799,799,799,799,799,799,799,799,799,799,799,799,799,799,799,799,799,799,799,799,799,799,799,799,799,799,799,799,799,799,799,799,799,799,799,799,799,799,799,799,799,799,799,799,799,799,799,799,799,799,799,797,783,759,720,643,611,590,578,571,566,566,566,566,566,563,560,558,554,550,543,543,543,542,537,508],"ymouse":[497,497,497,497,497,497,497,497,497,497,497,497,497,497,497,497,497,497,497,497,497,497,497,497,497,497,497,497,497,497,497,497,497,497,497,497,497,497,497,497,497,497,497,497,497,497,497,497,497,497,497,497,497,497,497,497,497,497,497,497,497,497,497,497,497,497,497,497,497,497,496,486,467,440,361,312,271,241,221,197,186,178,164,148,117,103,92,81,75,67,67,67,67,66,61],"timestamp_mouse":[10,37,50,69,89,109,129,151,170,189,210,229,250,269,290,309,330,350,369,389,410,430,449,470,490,509,529,550,569,589,610,631,650,669,690,710,731,751,771,790,810,830,849,869,889,909,929,949,969,989,1009,1030,1049,1069,1089,1110,1130,1149,1170,1189,1210,1231,1251,1269,1289,1310,1330,1351,1371,1391,1411,1430,1450,1471,1490,1511,1531,1551,1571,1589,1609,1629,1649,1669,1690,1710,1730,1749,1770,1789,1810,1830,1850,1869,1889],"xSR":741.5,"ySR":469.95,"xT1":424.9,"yT1":0,"xT2":1058.1,"yT2":0,"toosoon":0,"cond_shown":"Congruent","ratio_trial":100,"L_num":11,"L_den":22,"R_num":6,"R_den":15,"correct_side":1,"subjID":"juanfelipeporrasduarte8","gender":"0","school":"6","age":"11"},{"start_time":1551800825952,"click_time":1551800827581,"finger_time":1551800827241,"fix_duration":870.5690541478236,"trial":20,"RT":1289,"MT":340,"sideResp":2,"stimulus":[],"xmouse":[777,777,777,777,777,777,777,777,777,777,777,777,777,777,777,777,777,777,777,777,777,777,777,777,777,777,777,777,777,777,777,777,777,777,777,777,777,777,777,777,777,777,777,777,777,777,777,777,777,777,777,777,777,777,777,777,777,777,777,777,777,782,798,823,896,1006,1059,1099,1128,1150,1166,1187,1202,1204,1212,1213,1213,1213,1210,1200,1183,1148],"ymouse":[529,529,529,529,529,529,529,529,529,529,529,529,529,529,529,529,529,529,529,529,529,529,529,529,529,529,529,529,529,529,529,529,529,529,529,529,529,529,529,529,529,529,529,529,529,529,529,529,529,529,529,529,529,529,528,528,528,528,528,528,527,524,514,495,421,295,233,182,143,111,89,60,35,31,15,6,6,6,6,11,22,44],"timestamp_mouse":[8,28,49,75,88,109,130,149,168,188,208,228,250,270,288,308,334,348,368,388,408,428,449,468,489,509,528,548,569,588,609,628,648,668,689,709,729,749,768,789,808,830,849,868,890,909,929,948,968,988,1014,1028,1050,1070,1089,1109,1128,1148,1168,1188,1209,1229,1250,1269,1289,1308,1329,1348,1368,1389,1409,1429,1449,1468,1488,1510,1528,1549,1570,1590,1609,1629],"xSR":741.5,"ySR":469.95,"xT1":424.9,"yT1":0,"xT2":1058.1,"yT2":0,"toosoon":0,"cond_shown":"Congruent","ratio_trial":200,"L_num":3,"L_den":10,"R_num":7,"R_den":14,"correct_side":2,"subjID":"juanfelipeporrasduarte8","gender":"0","school":"6","age":"11"},{"start_time":1551800831173,"click_time":1551800833640,"finger_time":1551800833040,"fix_duration":250,"trial":21,"RT":1867,"MT":600,"sideResp":2,"stimulus":[],"xmouse":[753,753,753,753,753,753,753,753,753,753,753,753,753,753,753,753,753,753,753,753,753,753,753,753,753,753,753,753,753,753,753,753,753,753,753,753,753,753,753,753,753,753,753,753,753,753,753,753,753,753,753,753,753,753,753,753,753,753,753,753,753,753,753,753,753,753,753,753,753,753,753,753,753,753,753,753,753,753,753,753,753,753,753,753,753,753,753,753,753,753,753,758,775,799,814,853,873,894,910,920,948,967,997,1035,1066,1101,1106,1112,1121,1140,1158,1162,1163,1164,1164,1164,1164,1164,1164,1164,1164,1164,1162,1158],"ymouse":[507,507,507,507,507,507,507,507,507,507,507,507,507,507,507,507,507,507,507,507,507,507,507,507,507,507,507,507,507,507,507,507,507,507,507,507,507,507,507,507,507,507,507,507,507,507,507,507,507,507,507,507,507,507,507,507,507,507,507,507,507,507,507,507,507,507,507,507,507,507,507,507,507,507,507,507,507,507,507,507,507,507,507,507,507,507,507,507,507,507,507,501,472,439,416,371,351,331,316,304,268,246,220,196,173,151,147,142,135,119,101,94,91,90,90,90,90,90,90,90,90,89,89,89],"timestamp_mouse":[8,28,49,67,97,107,127,148,167,187,207,228,248,268,289,308,328,348,367,388,408,429,448,468,488,509,527,549,568,588,608,627,647,667,688,707,727,747,767,788,809,827,847,867,887,908,927,948,969,987,1007,1027,1049,1067,1087,1108,1127,1147,1167,1188,1208,1227,1247,1267,1287,1307,1327,1347,1367,1387,1407,1427,1447,1467,1487,1508,1527,1548,1567,1588,1607,1627,1647,1668,1687,1707,1727,1747,1767,1787,1807,1827,1847,1867,1887,1907,1928,1948,1967,1988,2007,2027,2047,2067,2087,2107,2127,2147,2167,2187,2207,2227,2248,2267,2287,2307,2327,2347,2367,2388,2407,2427,2448,2467],"xSR":741.5,"ySR":469.95,"xT1":424.9,"yT1":0,"xT2":1058.1,"yT2":0,"toosoon":0,"cond_shown":"Congruent","ratio_trial":200,"L_num":3,"L_den":6,"R_num":14,"R_den":20,"correct_side":2,"subjID":"juanfelipeporrasduarte8","gender":"0","school":"6","age":"11"},{"start_time":1551800836493,"click_time":1551800838261,"finger_time":1551800837720,"fix_duration":250,"trial":22,"RT":1227,"MT":541,"sideResp":1,"stimulus":[],"xmouse":[803,803,803,803,803,803,803,803,803,803,803,803,803,803,803,803,803,803,803,803,803,803,803,803,803,803,803,803,803,803,803,803,803,803,803,803,803,803,803,803,803,803,803,803,803,803,803,803,803,803,803,803,802,799,796,790,787,782,776,769,752,731,710,681,633,613,589,569,553,540,533,533,533,533,533,533,533,533,533,532,529,529,528,528,528,528,527,525,523],"ymouse":[554,554,554,554,554,554,554,554,554,554,554,554,554,554,554,554,554,554,554,554,554,554,554,554,554,554,554,554,554,554,554,554,554,554,554,554,554,554,554,554,554,554,554,554,554,554,554,554,554,554,554,554,554,554,550,544,542,538,533,525,501,470,438,390,307,275,242,218,199,186,177,175,174,173,171,163,158,151,145,138,125,123,117,112,98,91,84,78,74],"timestamp_mouse":[9,27,52,68,87,107,127,149,169,187,209,228,248,268,289,308,328,349,369,389,408,429,448,468,488,508,529,548,568,589,609,628,647,668,688,707,727,748,767,787,807,827,847,868,887,907,927,947,967,988,1008,1027,1048,1067,1088,1107,1127,1147,1167,1188,1208,1227,1248,1268,1288,1307,1327,1348,1368,1387,1407,1427,1447,1467,1488,1507,1527,1548,1568,1589,1607,1628,1648,1667,1689,1707,1727,1748,1768],"xSR":741.5,"ySR":469.95,"xT1":424.9,"yT1":0,"xT2":1058.1,"yT2":0,"toosoon":0,"cond_shown":"Incongruent","ratio_trial":100,"L_num":9,"L_den":10,"R_num":20,"R_den":25,"correct_side":1,"subjID":"juanfelipeporrasduarte8","gender":"0","school":"6","age":"11"},{"start_time":1551800840303,"click_time":1551800842100,"finger_time":1551800841782,"fix_duration":999.726022819931,"trial":23,"RT":1479,"MT":318,"sideResp":2,"stimulus":[],"xmouse":[771,771,771,771,771,771,771,771,771,771,771,771,771,771,771,771,771,771,771,771,771,771,771,771,771,771,771,771,771,771,771,771,771,771,771,771,771,771,771,771,771,771,771,771,771,771,771,771,771,771,771,771,771,771,771,771,771,771,771,771,771,771,771,771,771,771,771,771,771,771,771,782,814,839,883,912,930,943,960,1004,1014,1022,1032,1045,1064,1070,1075,1077,1079,1080],"ymouse":[501,501,501,501,501,501,501,501,501,501,501,501,501,501,501,501,501,501,501,501,501,501,501,501,501,501,501,501,501,501,501,501,501,501,501,501,501,501,501,501,501,501,501,501,501,501,501,501,501,501,501,501,501,501,501,501,501,501,501,501,501,501,501,501,501,501,501,501,501,501,501,496,472,448,372,321,292,272,249,188,177,167,156,144,128,121,112,108,101,95],"timestamp_mouse":[30,38,59,77,99,117,138,157,177,199,218,238,257,277,298,318,337,357,378,397,419,438,457,477,497,519,537,558,577,597,618,639,657,678,698,717,738,758,778,798,818,838,857,878,897,918,937,958,977,997,1018,1037,1057,1077,1098,1117,1137,1157,1178,1197,1217,1237,1257,1277,1297,1317,1337,1358,1378,1397,1417,1437,1457,1479,1498,1517,1537,1557,1577,1598,1619,1638,1657,1679,1698,1719,1739,1759,1777,1797],"xSR":741.5,"ySR":469.95,"xT1":424.9,"yT1":0,"xT2":1058.1,"yT2":0,"toosoon":0,"cond_shown":"Incongruent","ratio_trial":100,"L_num":6,"L_den":12,"R_num":3,"R_den":5,"correct_side":2,"subjID":"juanfelipeporrasduarte8","gender":"0","school":"6","age":"11"},{"start_time":1551800843906,"click_time":1551800845981,"finger_time":1551800845880,"fix_duration":864.1344546038607,"trial":24,"RT":1974,"MT":101,"sideResp":2,"stimulus":[],"xmouse":[827,827,827,827,827,827,827,827,827,827,827,827,827,827,827,827,827,827,827,827,827,827,827,827,827,827,827,827,827,827,827,827,827,827,827,827,827,827,827,827,827,827,827,827,827,827,827,827,827,827,827,827,827,827,827,827,827,827,827,827,827,827,827,827,827,827,827,827,827,827,827,827,827,827,827,827,827,827,827,827,827,827,827,827,827,827,827,827,827,827,827,827,827,827,827,827,827,831,854,952,1017,1072,1102,1114],"ymouse":[513,513,513,513,513,513,513,513,513,513,513,513,513,513,513,513,513,513,513,513,513,513,513,513,513,513,513,513,513,513,513,513,513,513,513,513,513,513,513,513,513,513,513,513,513,513,513,513,513,513,513,513,513,513,513,513,513,513,513,513,513,513,513,513,513,513,513,513,513,513,513,513,513,513,513,513,513,513,513,513,513,513,513,513,513,513,513,513,513,513,513,513,513,513,513,513,514,507,476,315,215,141,104,88],"timestamp_mouse":[21,47,55,75,94,115,136,155,175,196,215,235,254,274,295,314,335,354,374,394,415,434,455,476,495,515,535,555,574,594,614,636,656,674,694,716,735,756,775,795,814,835,855,875,894,915,935,954,974,995,1014,1035,1056,1074,1094,1115,1135,1154,1175,1195,1215,1235,1255,1276,1295,1314,1335,1355,1375,1394,1415,1435,1454,1476,1496,1515,1536,1556,1576,1594,1615,1636,1654,1675,1695,1715,1735,1756,1775,1796,1815,1834,1855,1875,1894,1915,1936,1954,1974,1996,2015,2034,2054,2074],"xSR":741.5,"ySR":469.95,"xT1":424.9,"yT1":0,"xT2":1058.1,"yT2":0,"toosoon":0,"cond_shown":"Congruent","ratio_trial":200,"L_num":4,"L_den":8,"R_num":3,"R_den":10,"correct_side":1,"subjID":"juanfelipeporrasduarte8","gender":"0","school":"6","age":"11"},{"start_time":1551800855846,"click_time":1551800857861,"finger_time":1551800857541,"fix_duration":324.7384530483624,"trial":25,"RT":1695,"MT":320,"sideResp":1,"stimulus":[],"xmouse":[786,786,786,786,786,786,786,786,786,786,786,786,786,786,786,786,786,786,786,786,786,786,786,786,786,786,786,786,786,786,786,786,786,786,786,786,786,786,786,786,786,786,786,786,786,786,786,786,786,786,786,786,786,786,786,786,786,786,786,786,786,786,786,786,786,786,786,786,786,786,786,786,786,786,786,786,786,786,786,786,786,786,784,776,740,702,647,591,548,506,500,496,495,492,488,486,486,485,485,488,490],"ymouse":[525,525,525,525,525,525,525,525,525,525,525,525,525,525,525,525,525,525,525,525,525,525,525,525,525,525,525,525,525,525,525,525,525,525,525,525,525,525,525,525,525,525,525,525,525,525,525,525,525,525,525,525,525,525,525,525,525,525,525,525,525,525,525,525,525,525,525,525,525,525,525,525,525,525,525,525,525,525,525,525,525,525,523,517,480,437,384,329,280,223,213,204,196,191,175,166,155,141,131,103,88],"timestamp_mouse":[14,39,55,74,95,116,134,154,176,195,214,234,254,274,295,314,335,355,374,395,414,434,456,474,494,515,534,556,574,596,614,634,655,674,696,715,734,755,774,795,815,834,855,876,894,915,934,955,976,994,1015,1034,1054,1075,1095,1114,1134,1154,1174,1195,1214,1235,1254,1276,1295,1314,1334,1356,1374,1396,1415,1435,1455,1474,1495,1515,1535,1555,1576,1594,1615,1635,1654,1674,1695,1716,1734,1754,1774,1794,1814,1834,1856,1875,1895,1915,1934,1954,1974,1994,2014],"xSR":741.5,"ySR":469.95,"xT1":424.9,"yT1":0,"xT2":1058.1,"yT2":0,"toosoon":0,"cond_shown":"Congruent","ratio_trial":100,"L_num":3,"L_den":6,"R_num":2,"R_den":5,"correct_side":1,"subjID":"juanfelipeporrasduarte8","gender":"0","school":"6","age":"11"},{"start_time":1551800859486,"click_time":1551800861361,"finger_time":1551800860962,"fix_duration":664.6238268452855,"trial":26,"RT":1476,"MT":399,"sideResp":1,"stimulus":[],"xmouse":[784,784,784,784,784,784,784,784,784,784,784,784,784,784,784,784,784,784,784,784,784,784,784,784,784,784,784,784,784,784,784,784,784,784,784,784,784,784,784,784,784,784,784,784,784,784,784,784,784,784,784,784,784,784,784,784,784,784,784,784,784,784,784,784,784,784,784,784,784,784,781,775,766,733,697,649,611,563,543,530,524,524,518,513,511,507,506,505,505,505,504,502,500,495],"ymouse":[527,527,527,527,527,527,527,527,527,527,527,527,527,527,527,527,527,527,527,527,527,527,527,527,527,527,527,527,527,527,527,527,527,527,527,527,527,527,527,527,527,527,527,527,527,527,527,527,527,527,527,527,527,527,527,527,527,527,527,527,527,527,527,527,527,527,527,527,527,527,527,525,522,497,469,427,386,310,274,248,227,223,204,193,184,174,167,160,143,135,126,113,105,96],"timestamp_mouse":[15,47,55,74,94,114,134,155,174,194,214,234,254,274,295,316,335,355,374,394,415,436,455,474,496,514,534,556,574,594,615,636,654,674,695,714,734,755,774,795,816,835,854,874,896,915,934,954,975,995,1014,1035,1055,1075,1095,1114,1134,1154,1175,1195,1216,1235,1254,1274,1295,1315,1334,1356,1374,1394,1414,1436,1454,1476,1494,1515,1534,1554,1574,1595,1615,1634,1654,1674,1694,1716,1736,1755,1774,1795,1814,1836,1854,1875],"xSR":741.5,"ySR":469.95,"xT1":424.9,"yT1":0,"xT2":1058.1,"yT2":0,"toosoon":0,"cond_shown":"Incongruent","ratio_trial":100,"L_num":3,"L_den":5,"R_num":8,"R_den":16,"correct_side":1,"subjID":"juanfelipeporrasduarte8","gender":"0","school":"6","age":"11"},{"start_time":1551800862723,"click_time":1551800864461,"finger_time":1551800864262,"fix_duration":519.092938807616,"trial":27,"RT":1539,"MT":199,"sideResp":1,"stimulus":[],"xmouse":[770,770,770,770,770,770,770,770,770,770,770,770,770,770,770,770,770,770,770,770,770,770,770,770,770,770,770,770,770,770,770,770,770,770,770,770,770,770,770,770,770,770,770,770,770,770,770,770,770,770,770,770,770,770,770,770,770,770,770,770,770,770,770,770,770,770,770,770,770,770,770,770,766,763,761,758,734,716,672,642,615,562,546,535,529,527,522],"ymouse":[525,525,525,525,525,525,525,525,525,525,525,525,525,525,525,525,525,525,525,525,525,525,525,525,525,525,525,525,525,525,525,525,525,525,525,525,525,525,525,525,525,525,525,525,525,525,525,525,525,525,525,525,525,525,525,525,525,525,525,525,525,525,525,525,525,525,525,525,525,525,525,521,513,508,501,489,405,345,258,221,187,131,118,110,105,102,87],"timestamp_mouse":[20,37,59,80,99,119,137,157,177,198,218,237,259,277,297,318,338,357,377,397,418,439,458,478,498,518,537,558,577,598,617,637,657,677,697,718,737,758,777,797,818,839,859,877,898,918,937,957,977,997,1018,1038,1057,1079,1098,1117,1138,1158,1178,1198,1218,1237,1258,1279,1298,1318,1337,1358,1377,1398,1417,1438,1458,1477,1498,1518,1539,1558,1577,1598,1618,1637,1659,1678,1698,1717,1738],"xSR":741.5,"ySR":469.95,"xT1":424.9,"yT1":0,"xT2":1058.1,"yT2":0,"toosoon":0,"cond_shown":"Incongruent","ratio_trial":200,"L_num":6,"L_den":20,"R_num":3,"R_den":6,"correct_side":2,"subjID":"juanfelipeporrasduarte8","gender":"0","school":"6","age":"11"},{"start_time":1551800867947,"click_time":1551800869581,"finger_time":1551800869180,"fix_duration":1485.244064943872,"trial":28,"RT":1233,"MT":401,"sideResp":2,"stimulus":[],"xmouse":[811,811,811,811,811,811,811,811,811,811,811,811,811,811,811,811,811,811,811,811,811,811,811,811,811,811,811,811,811,811,811,811,811,811,811,811,811,811,811,811,811,811,811,811,811,811,811,811,811,811,811,811,811,811,811,811,811,811,814,817,822,851,870,891,909,945,956,968,979,987,987,987,987,987,987,987,987,987,987,987,1058,1061],"ymouse":[542,542,542,542,542,542,542,542,542,542,542,542,542,542,542,542,542,542,542,542,542,542,542,542,542,542,542,542,542,542,542,542,542,542,542,542,542,542,542,542,542,542,542,542,542,542,542,542,542,542,542,542,542,542,542,541,537,532,523,512,490,395,330,262,199,81,55,35,17,2,2,2,2,2,2,2,2,2,2,2,2,7],"timestamp_mouse":[14,33,53,73,95,113,134,153,174,193,214,233,255,275,293,313,333,354,373,393,413,433,453,474,495,513,533,554,574,595,613,633,654,674,693,713,735,753,774,793,813,835,853,875,893,914,933,953,973,994,1013,1035,1054,1074,1093,1113,1133,1154,1174,1194,1213,1233,1255,1273,1294,1314,1333,1354,1375,1393,1414,1434,1454,1474,1494,1514,1535,1554,1574,1593,1613,1634],"xSR":741.5,"ySR":469.95,"xT1":424.9,"yT1":0,"xT2":1058.1,"yT2":0,"toosoon":0,"cond_shown":"Incongruent","ratio_trial":300,"L_num":13,"L_den":26,"R_num":12,"R_den":15,"correct_side":2,"subjID":"juanfelipeporrasduarte8","gender":"0","school":"6","age":"11"},{"start_time":1551800870975,"click_time":1551800872462,"finger_time":1551800872242,"fix_duration":512.9204297408455,"trial":29,"RT":1267,"MT":220,"sideResp":2,"stimulus":[],"xmouse":[818,818,818,818,818,818,818,818,818,818,818,818,818,818,818,818,818,818,818,818,818,818,818,818,818,818,818,818,818,818,818,818,818,818,818,818,818,818,818,818,818,818,818,818,818,818,818,818,818,818,818,818,818,818,818,818,818,818,818,818,818,818,820,843,883,962,990,1009,1022,1031,1033,1034,1037,1042,1059],"ymouse":[473,473,473,473,473,473,473,473,473,473,473,473,473,473,473,473,473,473,473,473,473,473,473,473,473,473,473,473,473,473,473,473,473,473,473,473,473,473,473,473,473,473,473,473,473,473,473,473,473,473,473,473,473,473,473,473,473,473,473,473,473,473,472,445,392,251,198,164,142,115,109,105,99,91,68],"timestamp_mouse":[8,25,45,66,86,106,125,145,166,186,205,225,245,266,285,305,325,345,365,385,407,425,446,466,490,505,525,546,566,585,605,625,645,666,686,707,725,746,766,785,805,826,845,865,885,905,926,945,965,985,1005,1026,1047,1065,1085,1106,1125,1145,1165,1186,1205,1225,1246,1267,1285,1305,1325,1346,1366,1387,1405,1426,1445,1466,1487],"xSR":741.5,"ySR":469.95,"xT1":424.9,"yT1":0,"xT2":1058.1,"yT2":0,"toosoon":0,"cond_shown":"Incongruent","ratio_trial":300,"L_num":13,"L_den":26,"R_num":12,"R_den":15,"correct_side":2,"subjID":"juanfelipeporrasduarte8","gender":"0","school":"6","age":"11"},{"start_time":1551800874014,"click_time":1551800875620,"finger_time":1551800875280,"fix_duration":723.6606749610796,"trial":30,"RT":1266,"MT":340,"sideResp":1,"stimulus":[],"xmouse":[820,820,820,820,820,820,820,820,820,820,820,820,820,820,820,820,820,820,820,820,820,820,820,820,820,820,820,820,820,820,820,820,820,820,820,820,820,820,820,820,820,820,820,820,820,820,820,820,820,820,820,820,820,820,820,820,820,820,820,820,820,813,805,729,671,599,528,433,389,388,388,391,393,399,403,408,411,411,411,462,483],"ymouse":[508,508,508,508,508,508,508,508,508,508,508,508,508,508,508,508,508,508,508,508,508,508,508,508,508,508,508,508,508,508,508,508,508,508,508,508,508,508,508,508,508,508,508,508,508,508,508,508,508,508,508,508,508,508,508,508,508,508,508,508,508,505,494,389,322,251,182,101,62,59,57,48,38,19,11,4,0,0,0,0,10],"timestamp_mouse":[9,27,55,66,87,108,127,148,166,186,206,227,248,267,287,306,328,346,366,386,406,426,447,466,487,506,527,547,567,587,607,626,646,666,687,706,726,746,767,788,807,826,846,866,886,906,927,946,968,986,1006,1026,1046,1066,1087,1106,1127,1148,1166,1186,1208,1226,1247,1266,1287,1306,1326,1346,1366,1387,1406,1427,1447,1466,1486,1506,1527,1548,1567,1586,1606],"xSR":741.5,"ySR":469.95,"xT1":424.9,"yT1":0,"xT2":1058.1,"yT2":0,"toosoon":0,"cond_shown":"Incongruent","ratio_trial":200,"L_num":4,"L_den":6,"R_num":14,"R_den":30,"correct_side":1,"subjID":"juanfelipeporrasduarte8","gender":"0","school":"6","age":"11"},{"start_time":1551800878171,"click_time":1551800880240,"finger_time":1551800879881,"fix_duration":1427.9066694874189,"trial":31,"RT":1710,"MT":359,"sideResp":2,"stimulus":[],"xmouse":[791,791,791,791,791,791,791,791,791,791,791,791,791,791,791,791,791,791,791,791,791,791,791,791,791,791,791,791,791,791,791,791,791,791,791,791,791,791,791,791,791,791,791,791,791,791,791,791,791,791,791,791,791,791,791,791,791,791,791,791,791,791,791,791,791,791,791,791,791,791,791,791,791,791,791,791,791,791,791,791,791,791,791,791,793,842,880,930,1022,1060,1087,1098,1107,1115,1127,1143,1150,1154,1154,1154,1153,1148,1142,1136],"ymouse":[489,489,489,489,489,489,489,489,489,489,489,489,489,489,489,489,489,489,489,489,489,489,489,489,489,489,489,489,489,489,489,489,489,489,489,489,489,489,489,489,489,489,489,489,489,489,489,489,489,489,489,489,489,489,489,489,489,489,489,489,489,489,489,489,489,489,489,489,489,489,489,489,489,489,489,489,489,489,489,489,489,489,489,489,489,446,413,370,284,251,221,209,197,187,175,154,147,142,139,137,130,122,107,89],"timestamp_mouse":[9,29,49,70,90,109,129,150,169,191,209,230,249,269,289,309,329,350,371,389,409,430,449,469,489,509,530,549,569,589,609,629,649,669,689,709,729,749,769,789,809,829,849,870,889,909,930,949,969,990,1009,1031,1049,1070,1089,1110,1130,1149,1170,1189,1210,1230,1250,1271,1289,1309,1330,1350,1371,1389,1409,1430,1450,1469,1490,1509,1531,1550,1570,1589,1610,1629,1650,1669,1689,1710,1729,1749,1770,1791,1811,1829,1849,1870,1890,1910,1929,1950,1970,1990,2010,2029,2049,2069],"xSR":741.5,"ySR":469.95,"xT1":424.9,"yT1":0,"xT2":1058.1,"yT2":0,"toosoon":0,"cond_shown":"Incongruent","ratio_trial":300,"L_num":4,"L_den":20,"R_num":2,"R_den":4,"correct_side":2,"subjID":"juanfelipeporrasduarte8","gender":"0","school":"6","age":"11"},{"start_time":1551800881351,"click_time":1551800882881,"finger_time":1551800882521,"fix_duration":250,"trial":32,"RT":1170,"MT":360,"sideResp":1,"stimulus":[],"xmouse":[795,795,795,795,795,795,795,795,795,795,795,795,795,795,795,795,795,795,795,795,795,795,795,795,795,795,795,795,795,795,795,795,795,795,795,795,795,795,795,795,795,795,795,795,795,795,795,795,795,795,795,795,795,795,795,795,793,777,757,739,724,708,673,655,634,620,607,587,579,573,569,566,556,548,535,520,504],"ymouse":[499,499,499,499,499,499,499,499,499,499,499,499,499,499,499,499,499,499,499,499,499,499,499,499,499,499,499,499,499,499,499,499,499,499,499,499,499,499,499,499,499,499,499,499,499,499,499,499,499,499,499,499,499,499,499,499,498,474,446,427,410,391,351,329,303,287,271,239,219,205,197,187,163,148,130,113,93],"timestamp_mouse":[9,39,49,70,90,109,129,149,169,189,209,230,249,269,289,309,329,351,369,389,409,429,449,469,489,509,529,549,569,589,610,629,649,670,690,710,730,750,769,789,810,829,849,869,889,909,929,949,970,989,1009,1029,1049,1069,1091,1110,1129,1150,1170,1190,1209,1230,1249,1270,1289,1310,1330,1350,1369,1389,1410,1429,1449,1470,1490,1511,1530],"xSR":741.5,"ySR":469.95,"xT1":424.9,"yT1":0,"xT2":1058.1,"yT2":0,"toosoon":0,"cond_shown":"Incongruent","ratio_trial":100,"L_num":2,"L_den":4,"R_num":6,"R_den":15,"correct_side":1,"subjID":"juanfelipeporrasduarte8","gender":"0","school":"6","age":"11"},{"start_time":1551800884731,"click_time":1551800887761,"finger_time":1551800886301,"fix_duration":890.2654499706291,"trial":33,"RT":1570,"MT":1460,"sideResp":1,"stimulus":[],"xmouse":[790,790,790,790,790,790,790,790,790,790,790,790,790,790,790,790,790,790,790,790,790,790,790,790,790,790,790,790,790,790,790,790,790,790,790,790,790,790,790,790,790,790,790,790,790,790,790,790,790,790,790,790,790,790,790,790,790,790,790,790,790,790,790,790,790,790,790,790,790,790,790,790,790,790,790,790,790,790,773,752,723,692,663,645,634,633,633,633,633,633,633,633,633,633,633,633,633,633,633,633,633,633,633,633,633,633,633,633,633,633,633,633,633,633,633,633,633,633,633,633,633,633,633,633,633,633,633,633,633,633,633,633,633,633,633,633,633,633,633,633,633,633,633,633,633,632,625,620,580,553,533,520],"ymouse":[511,511,511,511,511,511,511,511,511,511,511,511,511,511,511,511,511,511,511,511,511,511,511,511,511,511,511,511,511,511,511,511,511,511,511,511,511,511,511,511,511,511,511,511,511,511,511,511,511,511,511,511,511,511,511,511,511,511,511,511,511,511,511,511,511,511,511,511,511,511,511,511,511,511,511,511,511,509,451,397,347,296,255,231,217,216,216,216,216,216,216,216,216,216,216,216,216,216,216,216,216,216,216,216,216,216,216,216,216,216,216,216,216,216,216,216,216,216,216,216,216,216,216,216,216,216,216,216,216,216,216,216,216,216,216,216,216,216,216,216,216,216,216,216,216,215,202,194,142,119,105,93],"timestamp_mouse":[10,30,51,71,90,110,129,149,169,189,209,229,250,270,290,309,331,350,369,389,409,430,450,469,489,511,530,550,569,589,609,630,649,669,690,709,729,749,769,789,809,829,849,869,891,911,929,950,970,989,1009,1029,1049,1070,1090,1110,1129,1149,1169,1189,1209,1230,1249,1269,1290,1309,1330,1350,1369,1389,1409,1430,1449,1469,1489,1509,1530,1549,1569,1590,1610,1630,1649,1669,1689,1709,1731,1749,1771,1791,1809,1831,1849,1870,1889,1909,1930,1949,1970,1990,2009,2029,2050,2070,2089,2110,2129,2150,2170,2189,2210,2230,2250,2270,2289,2310,2329,2349,2370,2389,2409,2429,2451,2470,2489,2509,2529,2549,2571,2589,2609,2630,2649,2669,2689,2709,2731,2750,2770,2790,2809,2830,2851,2870,2890,2910,2929,2949,2969,2989,3010,3030],"xSR":741.5,"ySR":469.95,"xT1":424.9,"yT1":0,"xT2":1058.1,"yT2":0,"toosoon":0,"cond_shown":"Congruent","ratio_trial":100,"L_num":10,"L_den":25,"R_num":3,"R_den":10,"correct_side":1,"subjID":"juanfelipeporrasduarte8","gender":"0","school":"6","age":"11"},{"start_time":1551800890255,"click_time":1551800891961,"finger_time":1551800891626,"fix_duration":1472.349694580785,"trial":34,"RT":1371,"MT":335,"sideResp":2,"stimulus":[],"xmouse":[768,768,768,768,768,768,768,768,768,768,768,768,768,768,768,768,768,768,768,768,768,768,768,768,768,768,768,768,768,768,768,768,768,768,768,768,768,768,768,768,768,768,768,768,768,768,768,768,768,768,768,768,768,768,768,768,768,768,768,768,768,768,768,768,768,768,770,775,819,850,883,907,924,939,945,951,957,967,991,997,1002,1008,1017,1039,1058,1075],"ymouse":[489,489,489,489,489,489,489,489,489,489,489,489,489,489,489,489,489,489,489,489,489,489,489,489,489,489,489,489,489,489,489,489,489,489,489,489,489,489,489,489,489,489,489,489,489,489,489,489,489,489,489,489,489,489,489,489,489,489,489,489,489,489,489,489,489,489,489,484,436,376,295,248,221,193,179,166,152,137,108,103,99,95,91,84,78,73],"timestamp_mouse":[10,32,46,67,86,105,125,146,166,187,206,225,246,267,286,305,326,346,366,386,406,426,446,465,486,506,527,545,565,586,605,626,646,665,686,705,727,746,766,786,805,826,846,865,885,906,925,947,966,985,1005,1026,1046,1065,1086,1106,1125,1146,1165,1186,1207,1226,1246,1267,1286,1306,1326,1345,1371,1386,1405,1425,1445,1465,1485,1505,1525,1546,1565,1586,1605,1625,1646,1666,1685,1706],"xSR":741.5,"ySR":469.95,"xT1":424.9,"yT1":0,"xT2":1058.1,"yT2":0,"toosoon":0,"cond_shown":"Congruent","ratio_trial":300,"L_num":24,"L_den":30,"R_num":2,"R_den":4,"correct_side":1,"subjID":"juanfelipeporrasduarte8","gender":"0","school":"6","age":"11"},{"start_time":1551800895581,"click_time":1551800897841,"finger_time":1551800897501,"fix_duration":479.56721305416784,"trial":35,"RT":1920,"MT":340,"sideResp":2,"stimulus":[],"xmouse":[800,800,800,800,800,800,800,800,800,800,800,800,800,800,800,800,800,800,800,800,800,800,800,800,800,800,800,800,800,800,800,800,800,800,800,800,800,800,800,800,800,800,800,800,800,800,800,800,800,800,800,800,800,800,800,800,800,800,800,800,800,800,800,8