[{"start_time":1551801287933,"click_time":1551801289999,"finger_time":1551801289759,"fix_duration":308.87580898018894,"trial":0,"RT":1826,"MT":240,"sideResp":2,"stimulus":"img/900/equaldotanddens/R/14_Ratio_900_L_18_R_20.png","xmouse":[778,778,778,778,778,778,778,778,778,778,778,778,778,778,778,778,778,778,778,778,778,778,778,778,778,778,778,778,778,778,778,778,778,778,778,778,778,778,778,778,778,778,778,778,778,778,778,778,778,778,778,778,778,778,778,778,778,778,778,778,778,778,778,778,778,778,778,778,778,778,778,778,778,778,778,778,778,778,778,778,778,778,778,778,778,778,778,778,778,781,809,845,884,933,994,1008,1019,1028,1041,1073,1089,1113,1127,1131],"ymouse":[517,517,517,517,517,517,517,517,517,517,517,517,517,517,517,517,517,517,517,517,517,517,517,517,517,517,517,517,517,517,517,517,517,517,517,517,517,517,517,517,517,517,517,517,517,517,517,517,517,517,517,517,517,517,517,517,517,517,517,517,517,517,517,517,517,517,517,517,517,517,517,517,517,517,517,517,517,517,517,517,517,517,517,517,517,517,517,517,517,517,488,458,419,375,297,264,242,229,216,193,177,146,113,84],"timestamp_mouse":[9,31,47,66,86,105,125,146,166,185,206,226,246,266,285,305,327,346,366,387,407,426,447,467,486,506,525,545,566,587,605,625,647,666,685,705,725,747,766,785,807,825,846,865,885,906,927,946,965,985,1007,1026,1046,1065,1086,1105,1127,1145,1165,1186,1206,1226,1246,1265,1285,1305,1325,1346,1367,1385,1406,1427,1445,1466,1486,1507,1526,1546,1567,1586,1607,1627,1645,1666,1686,1706,1727,1747,1765,1786,1805,1826,1847,1866,1887,1906,1926,1946,1966,1987,2005,2025,2045,2065],"xSR":741.5,"ySR":469.95,"xT1":424.9,"yT1":0,"xT2":1058.1,"yT2":0,"toosoon":0,"cond_shown":"equaldotanddens","ratio_trial":900,"smaller_num":"18","larger_num":"20","correct_side":2,"subjID":"juanfelipeporrasduarte","gender":"0","age":"11","school":"6","test":{"fix_dur":[250,1500],"timestim":300,"targets_dim":[100,100],"targets_relative_coord":[0.3,0.7],"size_stim":[880,420],"start_dim":[100,100],"size_start":[300,300],"size_fix":60,"samplingrate":20,"img_types":["equaldotsize","equaldotanddens","randomdotsizeEA"],"ratios":[250,500,750,900],"rep_conds":9,"nTrials":120,"trials_to_rest":500,"Trials_order":[46,13,12,15,104,9,34,37,58,41,32,16,75,79,109,47,1,87,19,84,82,35,103,106,40,77,117,23,29,25,62,90,100,18,48,54,61,65,118,76,99,105,110,30,114,49,51,108,83,56,95,59,57,72,63,24,69,52,42,88,67,74,115,112,39,20,27,60,70,101,113,85,0,21,45,50,73,17,4,10,6,81,43,7,80,5,28,33,22,111,11,3,55,98,78,31,89,8,116,38,14,92,107,53,86,66,96,94,44,36,68,64,91,2,102,119,93,26,71,97],"cond_shown":["equaldotanddens","equaldotanddens","equaldotsize","equaldotsize","randomdotsizeEA","equaldotsize","equaldotanddens","equaldotanddens","equaldotanddens","randomdotsizeEA","randomdotsizeEA","equaldotanddens","equaldotsize","equaldotanddens","equaldotanddens","randomdotsizeEA","equaldotanddens","equaldotsize","equaldotanddens","equaldotsize","equaldotanddens","randomdotsizeEA","equaldotanddens","equaldotanddens","equaldotanddens","randomdotsizeEA","equaldotsize","randomdotsizeEA","randomdotsizeEA","equaldotanddens","randomdotsizeEA","equaldotsize","equaldotanddens","equaldotsize","equaldotsize","equaldotsize","equaldotanddens","randomdotsizeEA","equaldotanddens","equaldotanddens","equaldotsize","equaldotsize","randomdotsizeEA","equaldotsize","equaldotsize","equaldotanddens","equaldotsize","equaldotsize","randomdotsizeEA","randomdotsizeEA","randomdotsizeEA","randomdotsizeEA","equaldotsize","equaldotsize","equaldotsize","equaldotsize","equaldotsize","equaldotanddens","equaldotsize","equaldotanddens","equaldotanddens","randomdotsizeEA","equaldotanddens","equaldotanddens","equaldotsize","randomdotsizeEA","equaldotsize","equaldotsize","equaldotanddens","randomdotsizeEA","randomdotsizeEA","equaldotanddens","equaldotsize","equaldotsize","equaldotsize","randomdotsizeEA","equaldotanddens","randomdotsizeEA","equaldotanddens","equaldotanddens","equaldotsize","equaldotsize","equaldotanddens","equaldotanddens","randomdotsizeEA","randomdotsizeEA","equaldotanddens","equaldotsize","equaldotanddens","equaldotsize","randomdotsizeEA","equaldotsize","equaldotanddens","randomdotsizeEA","equaldotsize","equaldotanddens","randomdotsizeEA","randomdotsizeEA","randomdotsizeEA","randomdotsizeEA","randomdotsizeEA","randomdotsizeEA","randomdotsizeEA","randomdotsizeEA","randomdotsizeEA","equaldotsize","equaldotsize","equaldotanddens","randomdotsizeEA","equaldotsize","randomdotsizeEA","equaldotanddens","equaldotanddens","randomdotsizeEA","equaldotsize","randomdotsizeEA","equaldotsize","randomdotsizeEA","randomdotsizeEA","equaldotanddens"],"ratio_trial":[900,250,250,500,750,900,900,250,900,500,750,500,500,750,250,900,250,500,750,250,900,900,750,900,500,500,900,900,500,250,250,750,500,750,250,750,250,500,900,500,500,900,250,750,750,250,500,250,900,750,900,900,900,250,500,250,900,500,750,500,750,250,750,500,500,750,500,250,900,500,500,250,250,900,900,250,250,500,500,900,750,900,750,750,750,500,500,900,900,500,900,500,750,250,750,750,500,750,750,250,250,750,900,500,250,750,250,900,750,250,750,500,750,250,750,900,900,250,900,250],"smaller_num":["18","2","2","6","3","18","9","2","9","2","3","6","3","3","6","9","2","9","15","2","9","9","3","18","2","9","9","18","4","3","3","6","1","15","4","15","3","2","9","1","4","18","3","3","6","4","4","4","18","15","18","9","18","5","9","3","9","6","3","5","15","2","3","9","4","6","5","2","18","5","5","6","2","18","18","2","6","4","6","18","15","9","15","15","6","2","1","18","18","2","18","2","3","6","9","6","3","18","6","6","3","6","9","5","2","9","4","18","3","6","6","6","12","6","15","18","9","2","18","2"],"larger_num":["20","8","8","12","4","20","10","8","10","4","4","12","6","4","24","10","8","18","20","8","10","10","4","20","4","18","10","20","8","12","12","8","2","20","16","20","12","4","10","2","8","20","12","4","8","16","8","16","20","20","20","10","20","20","18","12","10","12","4","10","20","8","4","18","8","8","10","8","20","10","10","24","8","20","20","8","24","8","12","20","20","10","20","20","8","4","2","20","20","4","20","4","4","24","12","8","6","24","8","24","12","8","10","10","8","12","16","20","4","24","8","12","16","24","20","20","10","8","20","8"],"correct_side":[2,1,1,1,1,1,2,2,2,1,1,1,2,2,1,2,1,1,2,1,2,1,1,2,1,1,1,1,1,1,1,2,2,2,2,1,1,2,1,2,1,1,2,1,1,2,1,1,2,2,1,2,1,2,1,1,1,1,2,1,2,1,1,2,1,1,2,1,2,1,2,1,1,1,2,1,2,1,1,1,2,2,1,1,1,1,2,2,1,1,1,1,2,1,2,1,2,1,1,1,2,2,1,1,1,2,2,1,2,2,1,1,2,2,2,1,2,2,1,2],"img_shown":["img/900/equaldotanddens/R/14_Ratio_900_L_18_R_20.png","img/250/equaldotanddens/L/3_Ratio_250_L_8_R_2.png","img/250/equaldotsize/L/1_Ratio_250_L_8_R_2.png","img/500/equaldotsize/L/11_Ratio_500_L_12_R_6.png","img/750/randomdotsizeEA/L/8_Ratio_750_L_4_R_3.png","img/900/equaldotsize/L/2_Ratio_900_L_20_R_18.png","img/900/equaldotanddens/R/15_Ratio_900_L_9_R_10.png","img/250/equaldotanddens/R/13_Ratio_250_L_2_R_8.png","img/900/equaldotanddens/R/15_Ratio_900_L_9_R_10.png","img/500/randomdotsizeEA/L/10_Ratio_500_L_4_R_2.png","img/750/randomdotsizeEA/L/8_Ratio_750_L_4_R_3.png","img/500/equaldotanddens/L/11_Ratio_500_L_12_R_6.png","img/500/equaldotsize/R/2_Ratio_500_L_3_R_6.png","img/750/equaldotanddens/R/7_Ratio_750_L_3_R_4.png","img/250/equaldotanddens/L/5_Ratio_250_L_24_R_6.png","img/900/randomdotsizeEA/R/3_Ratio_900_L_9_R_10.png","img/250/equaldotanddens/L/3_Ratio_250_L_8_R_2.png","img/500/equaldotsize/L/4_Ratio_500_L_18_R_9.png","img/750/equaldotanddens/R/3_Ratio_750_L_15_R_20.png","img/250/equaldotsize/L/3_Ratio_250_L_8_R_2.png","img/900/equaldotanddens/R/5_Ratio_900_L_9_R_10.png","img/900/randomdotsizeEA/L/1_Ratio_900_L_10_R_9.png","img/750/equaldotanddens/L/8_Ratio_750_L_4_R_3.png","img/900/equaldotanddens/R/14_Ratio_900_L_18_R_20.png","img/500/equaldotanddens/L/10_Ratio_500_L_4_R_2.png","img/500/randomdotsizeEA/L/4_Ratio_500_L_18_R_9.png","img/900/equaldotsize/L/1_Ratio_900_L_10_R_9.png","img/900/randomdotsizeEA/L/10_Ratio_900_L_20_R_18.png","img/500/randomdotsizeEA/L/8_Ratio_500_L_8_R_4.png","img/250/equaldotanddens/L/15_Ratio_250_L_12_R_3.png","img/250/randomdotsizeEA/L/14_Ratio_250_L_12_R_3.png","img/750/equaldotsize/R/2_Ratio_750_L_6_R_8.png","img/500/equaldotanddens/R/12_Ratio_500_L_1_R_2.png","img/750/equaldotsize/R/5_Ratio_750_L_15_R_20.png","img/250/equaldotsize/R/10_Ratio_250_L_4_R_16.png","img/750/equaldotsize/L/1_Ratio_750_L_20_R_15.png","img/250/equaldotanddens/L/14_Ratio_250_L_12_R_3.png","img/500/randomdotsizeEA/R/9_Ratio_500_L_2_R_4.png","img/900/equaldotanddens/L/1_Ratio_900_L_10_R_9.png","img/500/equaldotanddens/R/15_Ratio_500_L_1_R_2.png","img/500/equaldotsize/L/8_Ratio_500_L_8_R_4.png","img/900/equaldotsize/L/4_Ratio_900_L_20_R_18.png","img/250/randomdotsizeEA/R/9_Ratio_250_L_3_R_12.png","img/750/equaldotsize/L/9_Ratio_750_L_4_R_3.png","img/750/equaldotsize/L/13_Ratio_750_L_8_R_6.png","img/250/equaldotanddens/R/10_Ratio_250_L_4_R_16.png","img/500/equaldotsize/L/8_Ratio_500_L_8_R_4.png","img/250/equaldotsize/L/2_Ratio_250_L_16_R_4.png","img/900/randomdotsizeEA/R/11_Ratio_900_L_18_R_20.png","img/750/randomdotsizeEA/R/4_Ratio_750_L_15_R_20.png","img/900/randomdotsizeEA/L/8_Ratio_900_L_20_R_18.png","img/900/randomdotsizeEA/R/6_Ratio_900_L_9_R_10.png","img/900/equaldotsize/L/4_Ratio_900_L_20_R_18.png","img/250/equaldotsize/R/12_Ratio_250_L_5_R_20.png","img/500/equaldotsize/L/4_Ratio_500_L_18_R_9.png","img/250/equaldotsize/L/15_Ratio_250_L_12_R_3.png","img/900/equaldotsize/L/1_Ratio_900_L_10_R_9.png","img/500/equaldotanddens/L/13_Ratio_500_L_12_R_6.png","img/750/equaldotsize/R/12_Ratio_750_L_3_R_4.png","img/500/equaldotanddens/L/7_Ratio_500_L_10_R_5.png","img/750/equaldotanddens/R/4_Ratio_750_L_15_R_20.png","img/250/randomdotsizeEA/L/3_Ratio_250_L_8_R_2.png","img/750/equaldotanddens/L/9_Ratio_750_L_4_R_3.png","img/500/equaldotanddens/R/6_Ratio_500_L_9_R_18.png","img/500/equaldotsize/L/8_Ratio_500_L_8_R_4.png","img/750/randomdotsizeEA/L/13_Ratio_750_L_8_R_6.png","img/500/equaldotsize/R/14_Ratio_500_L_5_R_10.png","img/250/equaldotsize/L/3_Ratio_250_L_8_R_2.png","img/900/equaldotanddens/R/13_Ratio_900_L_18_R_20.png","img/500/randomdotsizeEA/L/7_Ratio_500_L_10_R_5.png","img/500/randomdotsizeEA/R/14_Ratio_500_L_5_R_10.png","img/250/equaldotanddens/L/5_Ratio_250_L_24_R_6.png","img/250/equaldotsize/L/7_Ratio_250_L_8_R_2.png","img/900/equaldotsize/L/4_Ratio_900_L_20_R_18.png","img/900/equaldotsize/R/12_Ratio_900_L_18_R_20.png","img/250/randomdotsizeEA/L/3_Ratio_250_L_8_R_2.png","img/250/equaldotanddens/R/6_Ratio_250_L_6_R_24.png","img/500/randomdotsizeEA/L/8_Ratio_500_L_8_R_4.png","img/500/equaldotanddens/L/11_Ratio_500_L_12_R_6.png","img/900/equaldotanddens/L/8_Ratio_900_L_20_R_18.png","img/750/equaldotsize/R/3_Ratio_750_L_15_R_20.png","img/900/equaldotsize/R/15_Ratio_900_L_9_R_10.png","img/750/equaldotanddens/L/1_Ratio_750_L_20_R_15.png","img/750/equaldotanddens/L/1_Ratio_750_L_20_R_15.png","img/750/randomdotsizeEA/L/13_Ratio_750_L_8_R_6.png","img/500/randomdotsizeEA/L/5_Ratio_500_L_4_R_2.png","img/500/equaldotanddens/R/15_Ratio_500_L_1_R_2.png","img/900/equaldotsize/R/12_Ratio_900_L_18_R_20.png","img/900/equaldotanddens/L/2_Ratio_900_L_20_R_18.png","img/500/equaldotsize/L/5_Ratio_500_L_4_R_2.png","img/900/randomdotsizeEA/L/4_Ratio_900_L_20_R_18.png","img/500/equaldotsize/L/5_Ratio_500_L_4_R_2.png","img/750/equaldotanddens/R/7_Ratio_750_L_3_R_4.png","img/250/randomdotsizeEA/L/5_Ratio_250_L_24_R_6.png","img/750/equaldotsize/R/15_Ratio_750_L_9_R_12.png","img/750/equaldotanddens/L/14_Ratio_750_L_8_R_6.png","img/500/randomdotsizeEA/R/2_Ratio_500_L_3_R_6.png","img/750/randomdotsizeEA/L/6_Ratio_750_L_24_R_18.png","img/750/randomdotsizeEA/L/13_Ratio_750_L_8_R_6.png","img/250/randomdotsizeEA/L/5_Ratio_250_L_24_R_6.png","img/250/randomdotsizeEA/R/4_Ratio_250_L_3_R_12.png","img/750/randomdotsizeEA/R/2_Ratio_750_L_6_R_8.png","img/900/randomdotsizeEA/L/1_Ratio_900_L_10_R_9.png","img/500/randomdotsizeEA/L/7_Ratio_500_L_10_R_5.png","img/250/randomdotsizeEA/L/1_Ratio_250_L_8_R_2.png","img/750/equaldotsize/R/15_Ratio_750_L_9_R_12.png","img/250/equaldotsize/R/10_Ratio_250_L_4_R_16.png","img/900/equaldotanddens/L/4_Ratio_900_L_20_R_18.png","img/750/randomdotsizeEA/R/12_Ratio_750_L_3_R_4.png","img/250/equaldotsize/R/6_Ratio_250_L_6_R_24.png","img/750/randomdotsizeEA/L/13_Ratio_750_L_8_R_6.png","img/500/equaldotanddens/L/13_Ratio_500_L_12_R_6.png","img/750/equaldotanddens/R/11_Ratio_750_L_12_R_16.png","img/250/randomdotsizeEA/R/6_Ratio_250_L_6_R_24.png","img/750/equaldotsize/R/5_Ratio_750_L_15_R_20.png","img/900/randomdotsizeEA/L/8_Ratio_900_L_20_R_18.png","img/900/equaldotsize/R/3_Ratio_900_L_9_R_10.png","img/250/randomdotsizeEA/R/13_Ratio_250_L_2_R_8.png","img/900/randomdotsizeEA/L/2_Ratio_900_L_20_R_18.png","img/250/equaldotanddens/R/13_Ratio_250_L_2_R_8.png"],"Rat0":[["12_Ratio_0_L_9_R_0.png","13_Ratio_0_L_6_R_0.png","5_Ratio_0_L_2_R_0.png","6_Ratio_0_L_4_R_0.png","8_Ratio_0_L_6_R_0.png"],["1_Ratio_0_L_0_R_17.png","10_Ratio_0_L_0_R_22.png","11_Ratio_0_L_0_R_1.png","14_Ratio_0_L_0_R_24.png","15_Ratio_0_L_0_R_4.png","2_Ratio_0_L_0_R_5.png","3_Ratio_0_L_0_R_17.png","4_Ratio_0_L_0_R_7.png","7_Ratio_0_L_0_R_19.png","9_Ratio_0_L_0_R_15.png"]],"Rat250":[["1_Ratio_250_L_8_R_2.png","14_Ratio_250_L_12_R_3.png","15_Ratio_250_L_12_R_3.png","2_Ratio_250_L_16_R_4.png","3_Ratio_250_L_8_R_2.png","5_Ratio_250_L_24_R_6.png","7_Ratio_250_L_8_R_2.png"],["10_Ratio_250_L_4_R_16.png","11_Ratio_250_L_3_R_12.png","12_Ratio_250_L_5_R_20.png","13_Ratio_250_L_2_R_8.png","4_Ratio_250_L_3_R_12.png","6_Ratio_250_L_6_R_24.png","8_Ratio_250_L_1_R_4.png","9_Ratio_250_L_3_R_12.png"]],"Rat500":[["10_Ratio_500_L_4_R_2.png","11_Ratio_500_L_12_R_6.png","13_Ratio_500_L_12_R_6.png","4_Ratio_500_L_18_R_9.png","5_Ratio_500_L_4_R_2.png","7_Ratio_500_L_10_R_5.png","8_Ratio_500_L_8_R_4.png"],["1_Ratio_500_L_9_R_18.png","12_Ratio_500_L_1_R_2.png","14_Ratio_500_L_5_R_10.png","15_Ratio_500_L_1_R_2.png","2_Ratio_500_L_3_R_6.png","3_Ratio_500_L_10_R_20.png","6_Ratio_500_L_9_R_18.png","9_Ratio_500_L_2_R_4.png"]],"Rat750":[["1_Ratio_750_L_20_R_15.png","10_Ratio_750_L_4_R_3.png","13_Ratio_750_L_8_R_6.png","14_Ratio_750_L_8_R_6.png","6_Ratio_750_L_24_R_18.png","8_Ratio_750_L_4_R_3.png","9_Ratio_750_L_4_R_3.png"],["11_Ratio_750_L_12_R_16.png","12_Ratio_750_L_3_R_4.png","15_Ratio_750_L_9_R_12.png","2_Ratio_750_L_6_R_8.png","3_Ratio_750_L_15_R_20.png","4_Ratio_750_L_15_R_20.png","5_Ratio_750_L_15_R_20.png","7_Ratio_750_L_3_R_4.png"]],"Rat900":[["1_Ratio_900_L_10_R_9.png","10_Ratio_900_L_20_R_18.png","2_Ratio_900_L_20_R_18.png","4_Ratio_900_L_20_R_18.png","8_Ratio_900_L_20_R_18.png"],["11_Ratio_900_L_18_R_20.png","12_Ratio_900_L_18_R_20.png","13_Ratio_900_L_18_R_20.png","14_Ratio_900_L_18_R_20.png","15_Ratio_900_L_9_R_10.png","3_Ratio_900_L_9_R_10.png","5_Ratio_900_L_9_R_10.png","6_Ratio_900_L_9_R_10.png","7_Ratio_900_L_9_R_10.png","9_Ratio_900_L_18_R_20.png"]],"Rat1000":[["10_Ratio_1000_L_16_R_16.png","11_Ratio_1000_L_6_R_6.png","12_Ratio_1000_L_14_R_14.png","13_Ratio_1000_L_20_R_20.png","15_Ratio_1000_L_15_R_15.png","2_Ratio_1000_L_17_R_17.png","4_Ratio_1000_L_9_R_9.png","5_Ratio_1000_L_6_R_6.png","6_Ratio_1000_L_19_R_19.png","8_Ratio_1000_L_14_R_14.png","9_Ratio_1000_L_25_R_25.png"],["1_Ratio_1000_L_1_R_1.png","14_Ratio_1000_L_17_R_17.png","3_Ratio_1000_L_17_R_17.png","7_Ratio_1000_L_6_R_6.png"]]}},{"start_time":1551801294875,"click_time":1551801296039,"finger_time":1551801295738,"fix_duration":314.7070697381622,"trial":1,"RT":863,"MT":301,"sideResp":1,"stimulus":"img/250/equaldotanddens/L/3_Ratio_250_L_8_R_2.png","xmouse":[804,804,804,804,804,804,804,804,804,804,804,804,804,804,804,804,804,804,804,804,804,804,804,804,804,804,804,804,804,804,804,804,804,804,804,804,804,804,804,804,804,805,798,768,753,741,729,718,698,678,664,654,645,627,614,598,573,546,498],"ymouse":[504,504,504,504,504,504,504,504,504,504,504,504,504,504,504,504,504,504,504,504,504,504,504,504,504,504,504,504,504,504,504,504,504,504,504,504,504,504,504,504,504,504,484,435,415,400,384,367,328,297,278,262,249,221,203,182,155,130,87],"timestamp_mouse":[10,23,43,64,84,105,123,143,163,183,203,223,244,263,283,303,323,344,364,383,404,424,443,464,484,503,524,544,564,583,605,624,644,664,683,704,723,745,764,783,803,823,844,863,883,903,923,943,963,983,1004,1023,1043,1064,1084,1103,1124,1143,1164],"xSR":741.5,"ySR":469.95,"xT1":424.9,"yT1":0,"xT2":1058.1,"yT2":0,"toosoon":0,"cond_shown":"equaldotanddens","ratio_trial":250,"smaller_num":"2","larger_num":"8","correct_side":1,"subjID":"juanfelipeporrasduarte","gender":"0","age":"11","school":"6"},{"start_time":1551801297155,"click_time":1551801298058,"finger_time":1551801297818,"fix_duration":515.686216535624,"trial":2,"RT":663,"MT":240,"sideResp":1,"stimulus":"img/250/equaldotsize/L/1_Ratio_250_L_8_R_2.png","xmouse":[776,776,776,776,776,776,776,776,776,776,776,776,776,776,776,776,776,776,776,776,776,776,776,776,776,776,776,776,776,776,776,774,767,740,703,612,548,518,501,495,489,489,489,489,489,489],"ymouse":[524,524,524,524,524,524,524,524,524,524,524,524,524,524,524,524,524,524,524,524,524,524,524,524,524,524,524,524,524,524,524,511,496,455,412,314,243,194,159,134,108,105,103,102,101,99],"timestamp_mouse":[13,37,45,65,83,104,123,143,163,184,204,224,243,263,283,305,324,343,365,384,405,423,444,464,484,505,523,543,563,584,603,623,644,663,685,704,724,743,763,783,804,823,845,864,884,903],"xSR":741.5,"ySR":469.95,"xT1":424.9,"yT1":0,"xT2":1058.1,"yT2":0,"toosoon":0,"cond_shown":"equaldotsize","ratio_trial":250,"smaller_num":"2","larger_num":"8","correct_side":1,"subjID":"juanfelipeporrasduarte","gender":"0","age":"11","school":"6"},{"start_time":1551801299422,"click_time":1551801300739,"finger_time":1551801300578,"fix_duration":722.0387020270492,"trial":3,"RT":1156,"MT":161,"sideResp":1,"stimulus":"img/500/equaldotsize/L/11_Ratio_500_L_12_R_6.png","xmouse":[777,777,777,777,777,777,777,777,777,777,777,777,777,777,777,777,777,777,777,777,777,777,777,777,777,777,777,777,777,777,777,777,777,777,777,777,777,777,777,777,777,777,777,777,777,777,777,777,777,777,777,777,777,777,777,777,777,750,698,646,596,505,490,479,472,468],"ymouse":[528,528,528,528,528,528,528,528,528,528,528,528,528,528,528,528,528,528,528,528,528,528,528,528,528,528,528,528,528,528,528,528,528,528,528,528,528,528,528,528,528,528,528,528,528,528,528,528,528,528,528,528,528,528,528,528,521,461,383,312,253,157,137,119,105,94],"timestamp_mouse":[16,36,57,77,98,117,138,156,176,198,217,237,257,276,298,317,337,357,376,396,416,437,457,477,498,516,538,556,577,596,618,636,657,677,696,718,737,756,777,797,818,836,858,876,897,917,936,956,977,998,1017,1036,1056,1076,1097,1118,1137,1156,1177,1198,1217,1237,1256,1278,1298,1317],"xSR":741.5,"ySR":469.95,"xT1":424.9,"yT1":0,"xT2":1058.1,"yT2":0,"toosoon":0,"cond_shown":"equaldotsize","ratio_trial":500,"smaller_num":"6","larger_num":"12","correct_side":1,"subjID":"juanfelipeporrasduarte","gender":"0","age":"11","school":"6"},{"start_time":1551801301832,"click_time":1551801303079,"finger_time":1551801302778,"fix_duration":311.57632224161904,"trial":4,"RT":946,"MT":301,"sideResp":1,"stimulus":"img/750/randomdotsizeEA/L/8_Ratio_750_L_4_R_3.png","xmouse":[780,780,780,780,780,780,780,780,780,780,780,780,780,780,780,780,780,780,780,780,780,780,780,780,780,780,780,780,780,780,780,780,780,780,780,780,780,780,780,780,780,780,780,780,779,777,748,731,708,661,629,586,575,565,556,548,526,514,503,496,492,487,485],"ymouse":[519,519,519,519,519,519,519,519,519,519,519,519,519,519,519,519,519,519,519,519,519,519,519,519,519,519,519,519,519,519,519,519,519,519,519,519,519,519,519,519,519,519,519,519,518,516,487,464,433,376,340,287,263,240,219,201,164,148,134,125,118,105,98],"timestamp_mouse":[8,35,47,66,86,106,127,146,166,186,206,226,246,267,286,308,326,347,366,387,408,426,446,467,486,506,526,547,567,587,606,627,646,666,686,706,728,747,767,788,806,828,847,866,887,906,926,946,968,986,1006,1026,1046,1066,1087,1106,1127,1147,1166,1186,1208,1227,1247],"xSR":741.5,"ySR":469.95,"xT1":424.9,"yT1":0,"xT2":1058.1,"yT2":0,"toosoon":0,"cond_shown":"randomdotsizeEA","ratio_trial":750,"smaller_num":"3","larger_num":"4","correct_side":1,"subjID":"juanfelipeporrasduarte","gender":"0","age":"11","school":"6"},{"start_time":1551801304058,"click_time":1551801305659,"finger_time":1551801305358,"fix_duration":417.7957242516299,"trial":5,"RT":1300,"MT":301,"sideResp":2,"stimulus":"img/900/equaldotsize/L/2_Ratio_900_L_20_R_18.png","xmouse":[805,805,805,805,805,805,805,805,805,805,805,805,805,805,805,805,805,805,805,805,805,805,805,805,805,805,805,805,805,805,805,805,805,805,805,805,805,805,805,805,805,805,805,805,805,805,805,805,805,805,805,805,805,805,805,805,805,805,805,805,805,805,805,810,821,877,906,933,964,981,998,1004,1010,1017,1023,1035,1041,1048,1051,1055,1078],"ymouse":[529,529,529,529,529,529,529,529,529,529,529,529,529,529,529,529,529,529,529,529,529,529,529,529,529,529,529,529,529,529,529,529,529,529,529,529,529,529,529,529,529,529,529,529,529,529,529,529,529,529,529,529,529,529,529,529,529,529,529,529,529,529,529,526,509,408,360,303,231,200,169,158,149,139,133,120,114,109,107,105,96],"timestamp_mouse":[5,21,40,61,80,100,121,140,161,182,201,220,241,261,282,300,320,340,360,382,400,421,442,462,482,500,522,541,561,580,601,620,641,662,680,701,720,742,761,782,800,822,840,860,882,900,921,941,962,981,1000,1020,1040,1060,1081,1100,1120,1141,1160,1180,1201,1221,1241,1260,1281,1300,1320,1342,1361,1380,1401,1420,1440,1461,1480,1500,1520,1540,1560,1580,1600],"xSR":741.5,"ySR":469.95,"xT1":424.9,"yT1":0,"xT2":1058.1,"yT2":0,"toosoon":0,"cond_shown":"equaldotsize","ratio_trial":900,"smaller_num":"18","larger_num":"20","correct_side":1,"subjID":"juanfelipeporrasduarte","gender":"0","age":"11","school":"6"},{"start_time":1551801307738,"click_time":1551801308778,"finger_time":1551801308579,"fix_duration":698.8483107237797,"trial":6,"RT":841,"MT":199,"sideResp":2,"stimulus":"img/900/equaldotanddens/R/15_Ratio_900_L_9_R_10.png","xmouse":[803,803,803,803,803,803,803,803,803,803,803,803,803,803,803,803,803,803,803,803,803,803,803,803,803,803,803,803,803,803,803,803,803,803,803,803,803,803,803,803,804,806,863,900,940,977,1001,1025,1031,1037,1044,1053,1079],"ymouse":[528,528,528,528,528,528,528,528,528,528,528,528,528,528,528,528,528,528,528,528,528,528,528,528,528,528,528,528,528,528,528,528,528,528,528,528,528,528,528,528,526,522,426,355,288,221,172,128,117,109,101,91,65],"timestamp_mouse":[8,21,40,61,82,100,120,141,161,182,200,220,240,260,282,301,321,341,360,381,400,421,440,461,481,500,522,540,560,581,600,620,642,660,681,700,720,742,760,781,800,821,841,861,880,901,920,941,962,982,1000,1021,1040],"xSR":741.5,"ySR":469.95,"xT1":424.9,"yT1":0,"xT2":1058.1,"yT2":0,"toosoon":0,"cond_shown":"equaldotanddens","ratio_trial":900,"smaller_num":"9","larger_num":"10","correct_side":2,"subjID":"juanfelipeporrasduarte","gender":"0","age":"11","school":"6"},{"start_time":1551801310078,"click_time":1551801311159,"finger_time":1551801310958,"fix_duration":717.4471540891562,"trial":7,"RT":880,"MT":201,"sideResp":2,"stimulus":"img/250/equaldotanddens/R/13_Ratio_250_L_2_R_8.png","xmouse":[811,811,811,811,811,811,811,811,811,811,811,811,811,811,811,811,811,811,811,811,811,811,811,811,811,811,811,811,811,811,811,811,811,811,811,811,811,811,811,811,811,811,811,823,874,993,1022,1036,1043,1044,1044,1045,1049,1064,1076],"ymouse":[516,516,516,516,516,516,516,516,516,516,516,516,516,516,516,516,516,516,516,516,516,516,516,516,516,516,516,516,516,516,516,516,516,516,516,516,516,516,516,516,516,516,516,488,413,281,254,233,213,194,160,149,137,111,97],"timestamp_mouse":[10,20,40,61,80,101,122,141,162,181,202,221,242,261,281,301,322,340,361,381,401,420,441,460,480,501,520,541,561,580,600,620,640,661,682,701,720,741,760,780,802,820,841,861,880,900,920,940,961,980,1001,1021,1042,1060,1081],"xSR":741.5,"ySR":469.95,"xT1":424.9,"yT1":0,"xT2":1058.1,"yT2":0,"toosoon":0,"cond_shown":"equaldotanddens","ratio_trial":250,"smaller_num":"2","larger_num":"8","correct_side":2,"subjID":"juanfelipeporrasduarte","gender":"0","age":"11","school":"6"},{"start_time":1551801313722,"click_time":1551801315119,"finger_time":1551801314939,"fix_duration":479.1488013252637,"trial":8,"RT":1217,"MT":180,"sideResp":2,"stimulus":"img/900/equaldotanddens/R/15_Ratio_900_L_9_R_10.png","xmouse":[793,793,793,793,793,793,793,793,793,793,793,793,793,793,793,793,793,793,793,793,793,793,793,793,793,793,793,793,793,793,793,793,793,793,793,793,793,793,793,793,793,793,793,793,793,793,793,793,793,793,793,793,793,793,793,793,793,793,795,812,853,900,959,984,1005,1024,1037,1053,1082,1102],"ymouse":[523,523,523,523,523,523,523,523,523,523,523,523,523,523,523,523,523,523,523,523,523,523,523,523,523,523,523,523,523,523,523,523,523,523,523,523,523,523,523,523,523,523,523,523,523,523,523,523,523,523,523,523,523,523,523,523,523,523,522,503,441,387,322,293,264,234,212,184,133,98],"timestamp_mouse":[17,37,57,77,96,116,136,156,176,198,216,236,256,276,298,318,336,356,376,396,417,437,456,478,497,516,537,558,576,596,617,636,657,676,698,717,736,757,776,797,816,836,856,878,896,917,936,957,976,996,1017,1036,1057,1076,1097,1118,1137,1157,1178,1196,1217,1237,1257,1276,1297,1318,1337,1356,1376,1396],"xSR":741.5,"ySR":469.95,"xT1":424.9,"yT1":0,"xT2":1058.1,"yT2":0,"toosoon":0,"cond_shown":"equaldotanddens","ratio_trial":900,"smaller_num":"9","larger_num":"10","correct_side":2,"subjID":"juanfelipeporrasduarte","gender":"0","age":"11","school":"6"},{"start_time":1551801316567,"click_time":1551801317760,"finger_time":1551801317680,"fix_duration":607.4086404543893,"trial":9,"RT":1113,"MT":80,"sideResp":1,"stimulus":"img/500/randomdotsizeEA/L/10_Ratio_500_L_4_R_2.png","xmouse":[827,827,827,827,827,827,827,827,827,827,827,827,827,827,827,827,827,827,827,827,827,827,827,827,827,827,827,827,827,827,827,827,827,827,827,827,827,827,827,827,827,827,827,827,827,827,827,827,827,827,827,827,825,819,803,684,624,566,520,476],"ymouse":[524,524,524,524,524,524,524,524,524,524,524,524,524,524,524,524,524,524,524,524,524,524,524,524,524,524,524,524,524,524,524,524,524,524,524,524,524,524,524,524,524,524,524,524,524,524,524,524,524,524,524,524,524,519,497,359,282,212,142,77],"timestamp_mouse":[12,33,52,73,91,112,133,151,171,191,213,232,252,273,292,311,333,352,372,392,411,432,452,471,492,513,532,551,572,591,611,632,651,671,692,713,732,752,773,792,811,832,853,873,891,911,933,953,971,992,1011,1033,1051,1072,1092,1113,1131,1152,1172,1193],"xSR":741.5,"ySR":469.95,"xT1":424.9,"yT1":0,"xT2":1058.1,"yT2":0,"toosoon":0,"cond_shown":"randomdotsizeEA","ratio_trial":500,"smaller_num":"2","larger_num":"4","correct_side":1,"subjID":"juanfelipeporrasduarte","gender":"0","age":"11","school":"6"},{"start_time":1551801319543,"click_time":1551801321179,"finger_time":1551801320838,"fix_duration":1002.2423770596392,"trial":10,"RT":1295,"MT":341,"sideResp":1,"stimulus":"img/750/randomdotsizeEA/L/8_Ratio_750_L_4_R_3.png","xmouse":[815,815,815,815,815,815,815,815,815,815,815,815,815,815,815,815,815,815,815,815,815,815,815,815,815,815,815,815,815,815,815,815,815,815,815,815,815,815,815,815,815,815,815,815,815,815,815,815,815,815,815,815,815,815,815,815,815,815,815,815,815,815,814,806,787,739,706,650,639,635,634,633,628,620,608,589,572,555,547,540,532,523],"ymouse":[558,558,558,558,558,558,558,558,558,558,558,558,558,558,558,558,558,558,558,558,558,558,558,558,558,558,558,558,558,558,558,558,558,558,558,558,558,558,558,558,558,558,558,558,558,558,558,558,558,558,558,558,558,558,558,558,558,558,558,558,558,558,537,489,416,287,207,110,97,91,90,89,85,80,76,66,61,57,56,55,54,53],"timestamp_mouse":[15,35,56,75,96,115,135,156,175,196,215,235,254,275,296,316,335,354,376,396,416,435,454,476,494,515,535,555,576,594,616,635,655,674,695,715,735,756,775,795,816,834,856,876,896,916,935,955,976,994,1015,1036,1056,1074,1096,1116,1135,1156,1175,1195,1215,1235,1255,1275,1295,1315,1336,1356,1375,1395,1415,1435,1455,1475,1496,1514,1536,1555,1575,1594,1615,1636],"xSR":741.5,"ySR":469.95,"xT1":424.9,"yT1":0,"xT2":1058.1,"yT2":0,"toosoon":0,"cond_shown":"randomdotsizeEA","ratio_trial":750,"smaller_num":"3","larger_num":"4","correct_side":1,"subjID":"juanfelipeporrasduarte","gender":"0","age":"11","school":"6"},{"start_time":1551801323128,"click_time":1551801326899,"finger_time":1551801324998,"fix_duration":1328.5408938082282,"trial":11,"RT":1870,"MT":1901,"sideResp":1,"stimulus":"img/500/equaldotanddens/L/11_Ratio_500_L_12_R_6.png","xmouse":[790,790,790,790,790,790,790,790,790,790,790,790,790,790,790,790,790,790,790,790,790,790,790,790,790,790,790,790,790,790,790,790,790,790,790,790,790,790,790,790,790,790,790,790,790,790,790,790,790,790,790,790,790,790,790,790,790,790,790,790,790,790,790,790,790,790,790,790,790,790,790,790,790,790,790,790,790,790,790,790,790,790,790,790,790,790,790,786,781,773,766,755,743,733,715,710,705,702,702,702,702,702,702,702,702,702,702,702,705,793,888,995,1093,1153,1167,1167,1162,1157,1146,1113,1095,1073,1054,1003,955,906,855,810,779,754,753,753,753,753,753,753,753,753,753,753,753,753,753,753,753,753,753,753,753,753,753,753,753,753,753,753,753,753,753,753,753,753,753,753,753,753,753,753,753,753,753,753,751,744,645,581,514,454,388,379,377,377,377,390,398,406,413,417,425],"ymouse":[524,524,524,524,524,524,524,524,524,524,524,524,524,524,524,524,524,524,524,524,524,524,524,524,524,524,524,524,524,524,524,524,524,524,524,524,524,524,524,524,524,524,524,524,524,524,524,524,524,524,524,524,524,524,524,524,524,524,524,524,524,524,524,524,524,524,524,524,524,524,524,524,524,524,524,524,524,524,524,524,524,524,524,524,524,523,517,511,507,503,499,492,484,475,453,444,435,429,429,429,428,428,428,428,428,428,428,428,428,464,493,515,532,549,550,550,550,550,550,552,552,552,546,523,493,469,439,415,396,381,380,380,380,380,380,380,380,380,380,380,380,380,380,380,380,380,380,380,380,380,380,380,380,380,380,380,380,380,380,380,380,380,380,380,380,380,380,380,380,380,380,380,380,376,320,283,241,199,149,136,128,121,111,78,64,55,48,46,44],"timestamp_mouse":[9,32,50,70,89,111,130,151,170,191,211,229,250,271,290,311,331,351,370,390,410,429,450,469,489,511,530,549,570,589,610,631,649,670,690,710,731,751,769,791,810,830,849,871,890,909,930,950,969,991,1010,1030,1051,1071,1090,1111,1131,1151,1169,1190,1211,1231,1250,1270,1289,1311,1329,1351,1371,1391,1411,1431,1450,1469,1490,1511,1531,1551,1571,1591,1609,1631,1651,1671,1690,1709,1730,1750,1770,1791,1811,1830,1850,1870,1890,1909,1929,1949,1970,1990,2010,2030,2050,2070,2090,2110,2130,2149,2170,2190,2210,2231,2250,2270,2289,2311,2331,2350,2370,2390,2410,2429,2450,2471,2490,2510,2529,2550,2570,2590,2610,2629,2650,2670,2690,2710,2731,2751,2771,2790,2811,2831,2851,2870,2890,2910,2930,2950,2970,2990,3010,3031,3050,3071,3090,3111,3130,3149,3171,3191,3210,3231,3250,3270,3289,3311,3331,3351,3370,3390,3410,3431,3449,3471,3491,3510,3530,3550,3571,3590,3610,3630,3651,3671,3689,3709,3730,3749,3771],"xSR":741.5,"ySR":469.95,"xT1":424.9,"yT1":0,"xT2":1058.1,"yT2":0,"toosoon":0,"cond_shown":"equaldotanddens","ratio_trial":500,"smaller_num":"6","larger_num":"12","correct_side":1,"subjID":"juanfelipeporrasduarte","gender":"0","age":"11","school":"6"},{"start_time":1551801328982,"click_time":1551801329938,"finger_time":1551801329718,"fix_duration":1382.6713503481694,"trial":12,"RT":736,"MT":220,"sideResp":2,"stimulus":"img/500/equaldotsize/R/2_Ratio_500_L_3_R_6.png","xmouse":[782,782,782,782,782,782,782,782,782,782,782,782,782,782,782,782,782,782,782,782,782,782,782,782,782,782,782,782,782,782,782,782,782,782,782,802,866,923,972,1022,1045,1077,1085,1092,1100,1112,1132,1141],"ymouse":[533,533,533,533,533,533,533,533,533,533,533,533,533,533,533,533,533,533,533,533,533,533,533,533,533,533,533,533,533,533,533,533,533,533,533,517,433,356,295,244,221,195,187,180,168,152,118,99],"timestamp_mouse":[16,35,55,76,97,115,135,156,176,196,216,236,255,276,296,316,336,355,376,396,417,436,456,476,497,517,537,555,576,595,615,636,655,675,697,716,736,757,776,795,816,836,855,875,896,916,937,956],"xSR":741.5,"ySR":469.95,"xT1":424.9,"yT1":0,"xT2":1058.1,"yT2":0,"toosoon":0,"cond_shown":"equaldotsize","ratio_trial":500,"smaller_num":"3","larger_num":"6","correct_side":2,"subjID":"juanfelipeporrasduarte","gender":"0","age":"11","school":"6"},{"start_time":1551801331525,"click_time":1551801332858,"finger_time":1551801332259,"fix_duration":345.28223308173136,"trial":13,"RT":734,"MT":599,"sideResp":2,"stimulus":"img/750/equaldotanddens/R/7_Ratio_750_L_3_R_4.png","xmouse":[812,812,812,812,812,812,812,812,812,812,812,812,812,812,812,812,812,812,812,812,812,812,812,812,812,812,812,812,812,812,812,812,811,808,784,765,739,717,692,673,631,594,576,560,536,531,527,526,526,526,526,526,526,526,526,526,526,529,539,556,623,660,716,791,872,1026,1083],"ymouse":[544,544,544,544,544,544,544,544,544,544,544,544,544,544,544,544,544,544,544,544,544,544,544,544,544,544,544,544,544,544,544,544,544,543,521,506,484,461,436,417,367,325,303,282,245,234,228,226,226,226,226,226,226,226,226,226,226,230,240,250,272,275,269,242,202,89,33],"timestamp_mouse":[13,37,54,73,92,113,134,153,173,194,214,233,252,274,293,313,334,353,374,392,414,433,453,474,494,514,534,554,573,593,614,633,653,673,693,713,734,752,773,794,813,833,853,873,894,912,933,953,974,993,1012,1034,1053,1073,1094,1113,1133,1153,1172,1192,1213,1233,1253,1273,1292,1314,1333],"xSR":741.5,"ySR":469.95,"xT1":424.9,"yT1":0,"xT2":1058.1,"yT2":0,"toosoon":0,"cond_shown":"equaldotanddens","ratio_trial":750,"smaller_num":"3","larger_num":"4","correct_side":2,"subjID":"juanfelipeporrasduarte","gender":"0","age":"11","school":"6"},{"start_time":1551801334837,"click_time":1551801335737,"finger_time":1551801335458,"fix_duration":1097.5775268901214,"trial":14,"RT":621,"MT":279,"sideResp":1,"stimulus":"img/250/equaldotanddens/L/5_Ratio_250_L_24_R_6.png","xmouse":[807,807,807,807,807,807,807,807,807,807,807,807,807,807,807,807,807,807,807,807,807,807,807,807,807,807,807,807,807,806,783,744,692,631,580,534,532,528,524,520,506,498,490,484,479,471],"ymouse":[514,514,514,514,514,514,514,514,514,514,514,514,514,514,514,514,514,514,514,514,514,514,514,514,514,514,514,514,514,514,485,435,373,314,272,238,233,224,215,207,182,166,153,139,123,88],"timestamp_mouse":[9,28,41,62,81,102,122,142,162,180,200,220,242,260,282,300,321,342,361,381,401,422,441,460,481,501,522,542,562,582,600,621,642,662,681,701,720,740,762,781,801,820,842,862,881,900],"xSR":741.5,"ySR":469.95,"xT1":424.9,"yT1":0,"xT2":1058.1,"yT2":0,"toosoon":0,"cond_shown":"equaldotanddens","ratio_trial":250,"smaller_num":"6","larger_num":"24","correct_side":1,"subjID":"juanfelipeporrasduarte","gender":"0","age":"11","school":"6"},{"start_time":1551801340054,"click_time":1551801341358,"finger_time":1551801341118,"fix_duration":1154.7899129774078,"trial":15,"RT":1064,"MT":240,"sideResp":2,"stimulus":"img/900/randomdotsizeEA/R/3_Ratio_900_L_9_R_10.png","xmouse":[794,794,794,794,794,794,794,794,794,794,794,794,794,794,794,794,794,794,794,794,794,794,794,794,794,794,794,794,794,794,794,794,794,794,794,794,794,794,794,794,794,794,794,794,794,794,794,794,794,794,794,801,831,880,989,1007,1017,1021,1024,1030,1035,1040,1048,1056,1061,1062],"ymouse":[520,520,520,520,520,520,520,520,520,520,520,520,520,520,520,520,520,520,520,520,520,520,520,520,520,520,520,520,520,520,520,520,520,520,520,520,520,520,520,520,520,520,520,520,520,520,520,520,520,520,520,513,476,403,263,222,196,178,167,146,134,126,115,107,100,99],"timestamp_mouse":[9,36,44,64,84,103,125,144,165,184,205,224,244,263,284,303,324,344,365,384,404,425,444,465,485,504,524,543,564,583,604,624,644,664,684,704,724,743,765,784,804,824,844,864,883,905,928,944,965,984,1003,1025,1044,1064,1084,1103,1124,1145,1165,1184,1204,1224,1244,1264,1285,1304],"xSR":741.5,"ySR":469.95,"xT1":424.9,"yT1":0,"xT2":1058.1,"yT2":0,"toosoon":0,"cond_shown":"randomdotsizeEA","ratio_trial":900,"smaller_num":"9","larger_num":"10","correct_side":2,"subjID":"juanfelipeporrasduarte","gender":"0","age":"11","school":"6"},{"start_time":1551801345074,"click_time":1551801346058,"finger_time":1551801345838,"fix_duration":1494.710372258283,"trial":16,"RT":764,"MT":220,"sideResp":1,"stimulus":"img/250/equaldotanddens/L/3_Ratio_250_L_8_R_2.png","xmouse":[805,805,805,805,805,805,805,805,805,805,805,805,805,805,805,805,805,805,805,805,805,805,805,805,805,805,805,805,805,805,805,805,805,805,805,805,805,790,772,654,621,596,581,569,553,546,538,532,527,524],"ymouse":[525,525,525,525,525,525,525,525,525,525,525,525,525,525,525,525,525,525,525,525,525,525,525,525,525,525,525,525,525,525,525,525,525,525,525,525,520,479,442,268,217,181,158,136,106,94,84,78,74,72],"timestamp_mouse":[9,28,45,65,83,104,124,144,164,185,205,224,245,265,284,304,324,343,364,384,405,425,445,464,485,504,524,545,565,583,605,623,645,664,684,704,724,745,764,784,804,823,843,864,885,905,924,943,964,984],"xSR":741.5,"ySR":469.95,"xT1":424.9,"yT1":0,"xT2":1058.1,"yT2":0,"toosoon":0,"cond_shown":"equaldotanddens","ratio_trial":250,"smaller_num":"2","larger_num":"8","correct_side":1,"subjID":"juanfelipeporrasduarte","gender":"0","age":"11","school":"6"},{"start_time":1551801347289,"click_time":1551801348379,"finger_time":1551801348197,"fix_duration":268.8660014092956,"trial":17,"RT":908,"MT":182,"sideResp":1,"stimulus":"img/500/equaldotsize/L/4_Ratio_500_L_18_R_9.png","xmouse":[801,801,801,801,801,801,801,801,801,801,801,801,801,802,802,802,803,803,803,803,803,803,803,803,803,803,803,803,803,803,803,803,803,803,803,803,803,803,803,803,803,803,803,803,791,734,687,637,555,530,513,500,488,464,455],"ymouse":[548,548,548,548,548,548,548,548,548,548,546,544,542,539,538,538,538,538,538,538,538,538,538,538,538,538,538,538,538,538,538,538,538,538,538,538,538,538,538,538,538,538,538,534,509,428,364,303,211,184,166,150,136,100,86],"timestamp_mouse":[8,28,48,68,89,110,128,149,168,189,209,229,250,269,290,309,330,350,368,389,409,430,449,469,490,508,529,549,569,590,609,629,650,670,690,710,729,749,769,789,810,829,849,869,888,908,930,948,969,989,1009,1030,1049,1069,1090],"xSR":741.5,"ySR":469.95,"xT1":424.9,"yT1":0,"xT2":1058.1,"yT2":0,"toosoon":0,"cond_shown":"equaldotsize","ratio_trial":500,"smaller_num":"9","larger_num":"18","correct_side":1,"subjID":"juanfelipeporrasduarte","gender":"0","age":"11","school":"6"},{"start_time":1551801350371,"click_time":1551801351418,"finger_time":1551801351179,"fix_duration":1491.3695765332268,"trial":18,"RT":808,"MT":239,"sideResp":2,"stimulus":"img/750/equaldotanddens/R/3_Ratio_750_L_15_R_20.png","xmouse":[789,789,789,789,789,789,789,789,789,789,789,789,789,789,789,789,789,789,789,789,789,789,789,789,789,789,789,789,789,789,789,789,789,789,789,789,789,789,803,820,930,976,1009,1025,1050,1065,1080,1094,1103,1110,1111,1111,1111],"ymouse":[551,551,551,551,551,551,551,551,551,551,551,551,551,551,551,551,551,551,551,551,551,551,551,551,551,551,551,551,551,551,551,551,551,551,551,551,551,551,542,522,380,319,277,251,214,195,179,166,157,139,125,109,88],"timestamp_mouse":[8,32,47,68,87,107,127,147,166,188,207,227,247,268,286,307,327,348,367,388,406,427,447,466,486,507,528,548,566,586,608,626,648,667,688,708,728,746,767,787,808,828,848,866,888,907,927,947,967,988,1007,1027,1046],"xSR":741.5,"ySR":469.95,"xT1":424.9,"yT1":0,"xT2":1058.1,"yT2":0,"toosoon":0,"cond_shown":"equaldotanddens","ratio_trial":750,"smaller_num":"15","larger_num":"20","correct_side":2,"subjID":"juanfelipeporrasduarte","gender":"0","age":"11","school":"6"},{"start_time":1551801356605,"click_time":1551801357379,"finger_time":1551801357278,"fix_duration":266.5806399477063,"trial":19,"RT":673,"MT":101,"sideResp":1,"stimulus":"img/250/equaldotsize/L/3_Ratio_250_L_8_R_2.png","xmouse":[786,786,786,786,786,786,786,786,786,786,786,786,786,786,786,786,786,786,786,786,786,786,786,786,786,786,786,786,786,786,786,780,772,684,593,549,517,506,500],"ymouse":[515,515,515,515,515,515,515,515,515,515,515,515,515,515,515,515,515,515,515,515,515,515,515,515,515,515,515,515,515,515,515,510,502,411,307,247,196,155,94],"timestamp_mouse":[13,33,53,73,93,113,132,153,172,192,213,233,254,274,292,313,334,352,373,393,414,434,452,472,493,513,533,553,573,593,613,633,654,673,693,713,733,752,773],"xSR":741.5,"ySR":469.95,"xT1":424.9,"yT1":0,"xT2":1058.1,"yT2":0,"toosoon":0,"cond_shown":"equaldotsize","ratio_trial":250,"smaller_num":"2","larger_num":"8","correct_side":1,"subjID":"juanfelipeporrasduarte","gender":"0","age":"11","school":"6"},{"start_time":1551801358329,"click_time":1551801359299,"finger_time":1551801359038,"fix_duration":250,"trial":20,"RT":709,"MT":261,"sideResp":2,"stimulus":"img/900/equaldotanddens/R/5_Ratio_900_L_9_R_10.png","xmouse":[822,822,822,822,822,822,822,822,822,822,822,822,822,822,822,822,822,822,822,822,822,822,822,822,822,822,822,822,822,822,822,822,822,822,837,866,909,950,989,998,1006,1014,1028,1036,1042,1045,1048,1052,1063],"ymouse":[499,499,499,499,499,499,499,499,499,499,499,499,499,499,499,499,499,499,499,499,499,499,499,499,499,499,499,499,499,499,499,499,499,500,480,422,345,273,187,166,148,132,110,99,92,88,84,79,66],"timestamp_mouse":[10,31,49,68,90,110,128,149,169,190,208,230,249,270,290,309,330,349,370,389,408,429,449,468,489,510,528,549,569,589,610,628,649,669,689,709,729,750,769,790,808,829,849,869,889,909,929,950,970],"xSR":741.5,"ySR":469.95,"xT1":424.9,"yT1":0,"xT2":1058.1,"yT2":0,"toosoon":0,"cond_shown":"equaldotanddens","ratio_trial":900,"smaller_num":"9","larger_num":"10","correct_side":2,"subjID":"juanfelipeporrasduarte","gender":"0","age":"11","school":"6"},{"start_time":1551801361096,"click_time":1551801362898,"finger_time":1551801362658,"fix_duration":1395.3507170530409,"trial":21,"RT":1562,"MT":240,"sideResp":1,"stimulus":"img/900/randomdotsizeEA/L/1_Ratio_900_L_10_R_9.png","xmouse":[773,773,773,773,773,773,773,773,773,773,773,773,773,773,773,773,773,773,773,773,773,773,773,773,773,773,773,773,773,773,773,773,773,773,773,773,773,773,773,773,773,773,773,773,773,773,773,773,773,773,773,773,773,773,773,773,773,773,773,773,773,773,773,773,773,773,773,773,773,773,773,773,773,773,773,773,773,766,744,700,633,605,588,580,578,577,573,567,539,519,473],"ymouse":[509,509,509,509,509,509,509,509,509,509,509,509,509,509,509,509,509,509,509,509,509,509,509,509,509,509,509,509,509,509,509,509,509,509,509,509,509,509,509,509,509,509,509,509,509,509,509,509,509,509,509,509,509,509,509,509,509,509,509,509,509,509,509,509,509,509,509,509,509,509,509,509,509,509,509,509,502,489,456,409,351,331,317,309,304,293,283,267,220,181,99],"timestamp_mouse":[9,22,43,62,83,102,123,142,162,183,202,223,241,263,281,302,322,341,363,382,401,423,442,461,483,503,522,542,563,583,602,623,643,663,682,702,723,741,762,783,803,823,843,862,882,902,921,942,963,982,1002,1023,1042,1062,1082,1102,1122,1143,1163,1181,1202,1223,1241,1263,1281,1302,1323,1342,1362,1382,1402,1423,1442,1462,1482,1502,1523,1542,1562,1582,1602,1622,1642,1661,1682,1702,1722,1741,1763,1782,1801],"xSR":741.5,"ySR":469.95,"xT1":424.9,"yT1":0,"xT2":1058.1,"yT2":0,"toosoon":0,"cond_shown":"randomdotsizeEA","ratio_trial":900,"smaller_num":"9","larger_num":"10","correct_side":1,"subjID":"juanfelipeporrasduarte","gender":"0","age":"11","school":"6"},{"start_time":1551801364818,"click_time":1551801366778,"finger_time":1551801366418,"fix_duration":1179.26509114496,"trial":22,"RT":1600,"MT":360,"sideResp":1,"stimulus":"img/750/equaldotanddens/L/8_Ratio_750_L_4_R_3.png","xmouse":[778,779,779,779,779,779,779,779,779,779,779,779,779,779,779,779,779,779,779,779,779,779,779,779,779,779,779,779,779,779,779,779,779,779,779,779,779,779,779,779,779,779,779,779,779,779,779,779,779,779,779,779,779,779,779,779,779,779,779,779,779,779,777,771,765,765,765,765,765,765,765,765,765,765,765,765,765,765,764,758,746,718,695,675,652,647,642,636,627,605,594,578,569,558,533,520,509,502,499],"ymouse":[528,528,528,528,528,528,528,528,528,528,528,528,528,528,528,528,528,528,528,528,528,528,528,528,528,528,528,528,528,528,528,528,528,528,528,528,528,528,528,528,528,528,528,528,528,528,528,528,528,528,528,528,528,528,528,528,528,528,528,528,528,525,510,495,485,484,484,484,484,484,484,484,484,484,484,484,484,484,483,473,454,407,370,341,308,300,292,280,266,235,223,209,201,191,161,144,126,110,97],"timestamp_mouse":[1,19,44,59,80,100,120,140,161,180,199,221,241,260,281,301,320,340,360,381,401,420,440,461,481,499,519,539,559,581,599,621,639,660,680,700,720,741,760,781,801,821,840,859,881,899,921,940,960,980,1001,1020,1041,1060,1079,1099,1121,1140,1161,1180,1201,1220,1240,1260,1280,1300,1321,1340,1360,1380,1400,1419,1440,1460,1480,1500,1521,1541,1560,1580,1600,1619,1640,1660,1680,1699,1720,1741,1760,1781,1799,1820,1840,1861,1881,1900,1920,1941,1960],"xSR":741.5,"ySR":469.95,"xT1":424.9,"yT1":0,"xT2":1058.1,"yT2":0,"toosoon":0,"cond_shown":"equaldotanddens","ratio_trial":750,"smaller_num":"3","larger_num":"4","correct_side":1,"subjID":"juanfelipeporrasduarte","gender":"0","age":"11","school":"6"},{"start_time":1551801367809,"click_time":1551801368999,"finger_time":1551801368658,"fix_duration":250,"trial":23,"RT":849,"MT":341,"sideResp":2,"stimulus":"img/900/equaldotanddens/R/14_Ratio_900_L_18_R_20.png","xmouse":[802,802,802,802,802,802,802,802,802,802,802,802,802,802,802,802,802,802,802,802,802,802,802,802,802,802,802,802,802,802,802,802,802,802,802,802,802,802,802,802,805,821,852,883,911,939,949,962,972,992,1002,1010,1017,1017,1017,1017,1017,1017,1116,1118],"ymouse":[533,533,533,533,533,533,533,533,533,533,533,533,533,533,533,533,533,533,533,533,533,533,533,533,533,533,533,533,533,533,533,533,533,533,533,533,533,533,533,533,527,505,454,379,302,154,93,44,22,5,4,2,0,0,0,0,0,0,0,1],"timestamp_mouse":[8,34,49,69,89,108,130,150,169,189,209,230,249,269,290,310,330,349,368,388,409,429,450,468,488,509,530,548,569,589,610,629,649,669,689,710,728,749,770,789,808,829,849,869,889,909,929,950,969,990,1009,1030,1049,1070,1090,1108,1129,1150,1169,1190],"xSR":741.5,"ySR":469.95,"xT1":424.9,"yT1":0,"xT2":1058.1,"yT2":0,"toosoon":0,"cond_shown":"equaldotanddens","ratio_trial":900,"smaller_num":"18","larger_num":"20","correct_side":2,"subjID":"juanfelipeporrasduarte","gender":"0","age":"11","school":"6"},{"start_time":1551801370906,"click_time":1551801372799,"finger_time":1551801372179,"fix_duration":1226.2557278851175,"trial":24,"RT":1273,"MT":620,"sideResp":1,"stimulus":"img/500/equaldotanddens/L/10_Ratio_500_L_4_R_2.png","xmouse":[786,786,786,786,786,786,786,786,786,786,786,786,786,786,786,786,786,786,786,786,786,786,786,786,786,786,786,786,786,786,786,786,786,786,786,786,786,786,786,786,786,786,786,786,786,786,786,786,786,786,786,786,786,786,786,786,786,786,786,786,786,783,779,755,730,679,659,647,639,638,634,632,629,622,617,606,603,599,596,593,590,589,589,588,588,584,582,577,572,567,553,545,531,524,506],"ymouse":[508,508,508,508,508,508,508,508,508,508,508,508,508,508,508,508,508,508,508,508,508,508,508,508,508,508,508,508,508,508,508,508,508,508,508,508,508,508,508,508,508,508,508,508,508,508,508,508,508,508,508,508,508,508,508,508,508,508,508,508,508,505,494,454,422,371,358,350,346,345,342,338,331,313,299,273,264,254,245,238,233,232,231,230,229,223,219,211,204,195,169,154,123,110,77],"timestamp_mouse":[14,32,51,72,92,112,131,153,172,191,213,231,253,271,292,312,332,352,371,391,413,431,453,471,492,513,533,553,571,592,612,633,652,672,692,711,732,752,771,792,813,833,852,872,892,913,933,952,973,992,1012,1032,1051,1073,1092,1112,1131,1151,1172,1192,1212,1231,1252,1273,1293,1311,1332,1352,1373,1392,1412,1433,1452,1473,1492,1513,1533,1552,1572,1592,1611,1632,1652,1672,1693,1712,1732,1752,1772,1792,1812,1831,1852,1873,1893],"xSR":741.5,"ySR":469.95,"xT1":424.9,"yT1":0,"xT2":1058.1,"yT2":0,"toosoon":0,"cond_shown":"equaldotanddens","ratio_trial":500,"smaller_num":"2","larger_num":"4","correct_side":1,"subjID":"juanfelipeporrasduarte","gender":"0","age":"11","school":"6"},{"start_time":1551801375470,"click_time":1551801376639,"finger_time":1551801376339,"fix_duration":250,"trial":25,"RT":869,"MT":300,"sideResp":1,"stimulus":"img/500/randomdotsizeEA/L/4_Ratio_500_L_18_R_9.png","xmouse":[805,805,805,805,805,805,805,805,805,805,805,805,805,805,805,805,805,805,805,805,805,805,805,805,805,805,805,805,805,805,805,805,805,805,805,805,805,805,805,805,805,801,794,723,670,626,593,549,535,525,517,512,502,500,500,499,498,496,488],"ymouse":[539,539,539,539,539,539,539,539,539,539,539,539,539,539,539,539,539,539,539,539,539,539,539,539,539,539,539,539,539,539,539,539,539,539,539,539,539,539,539,539,539,535,522,411,349,301,263,208,188,172,160,149,131,125,123,122,119,115,98],"timestamp_mouse":[8,28,48,68,88,107,128,147,168,189,209,228,247,268,288,309,328,348,368,388,408,429,447,469,488,509,529,548,569,589,608,628,648,668,688,709,729,748,767,788,808,828,848,869,888,908,928,948,968,988,1009,1027,1049,1068,1087,1108,1129,1148,1168],"xSR":741.5,"ySR":469.95,"xT1":424.9,"yT1":0,"xT2":1058.1,"yT2":0,"toosoon":0,"cond_shown":"randomdotsizeEA","ratio_trial":500,"smaller_num":"9","larger_num":"18","correct_side":1,"subjID":"juanfelipeporrasduarte","gender":"0","age":"11","school":"6"},{"start_time":1551801378290,"click_time":1551801379359,"finger_time":1551801379138,"fix_duration":250,"trial":26,"RT":848,"MT":221,"sideResp":1,"stimulus":"img/900/equaldotsize/L/1_Ratio_900_L_10_R_9.png","xmouse":[793,793,793,793,793,793,793,793,793,793,793,793,793,793,793,793,793,793,793,793,793,793,793,793,793,793,793,793,793,793,793,793,793,793,793,793,793,793,793,793,793,793,780,769,751,729,707,676,669,666,660,656,570,524],"ymouse":[505,505,505,505,505,505,505,505,505,505,505,505,505,505,505,505,505,505,505,505,505,505,505,505,505,505,505,505,505,505,505,505,505,505,505,505,505,505,505,505,496,484,455,437,417,392,370,335,329,327,319,313,167,82],"timestamp_mouse":[10,32,47,68,88,107,129,148,168,189,208,228,247,268,288,309,328,348,368,388,408,429,449,469,488,509,529,549,568,589,609,629,649,668,687,708,727,749,769,788,808,828,848,869,888,909,928,948,968,988,1009,1029,1048,1069],"xSR":741.5,"ySR":469.95,"xT1":424.9,"yT1":0,"xT2":1058.1,"yT2":0,"toosoon":0,"cond_shown":"equaldotsize","ratio_trial":900,"smaller_num":"9","larger_num":"10","correct_side":1,"subjID":"juanfelipeporrasduarte","gender":"0","age":"11","school":"6"},{"start_time":1551801380986,"click_time":1551801382477,"finger_time":1551801382037,"fix_duration":1067.365535821299,"trial":27,"RT":1051,"MT":440,"sideResp":1,"stimulus":"img/900/randomdotsizeEA/L/10_Ratio_900_L_20_R_18.png","xmouse":[814,814,814,814,814,814,814,814,814,814,814,814,814,814,814,814,814,814,814,814,814,814,814,814,814,814,814,814,814,814,814,814,814,814,814,814,814,814,814,814,814,814,814,814,814,814,814,814,814,814,805,796,752,732,713,688,675,654,642,632,625,617,609,603,596,586,580,566,563,561,561,560,550,536,513],"ymouse":[543,543,543,543,543,543,543,543,543,543,543,543,543,543,543,543,543,543,543,543,543,543,543,543,543,543,543,543,543,543,543,543,543,543,543,543,543,543,543,543,543,543,543,543,543,543,543,543,543,543,526,506,445,424,404,375,356,318,296,274,256,240,206,181,158,129,114,84,75,70,70,69,65,63,60],"timestamp_mouse":[10,31,51,71,90,112,131,151,170,190,210,231,251,271,292,322,332,352,371,390,411,431,450,472,491,512,531,550,571,591,611,631,651,672,690,710,731,752,771,792,810,831,852,871,891,912,931,950,972,990,1011,1031,1051,1071,1090,1110,1132,1151,1170,1190,1211,1231,1251,1272,1291,1311,1332,1351,1371,1391,1411,1432,1452,1472,1491],"xSR":741.5,"ySR":469.95,"xT1":424.9,"yT1":0,"xT2":1058.1,"yT2":0,"toosoon":0,"cond_shown":"randomdotsizeEA","ratio_trial":900,"smaller_num":"18","larger_num":"20","correct_side":1,"subjID":"juanfelipeporrasduarte","gender":"0","age":"11","school":"6"},{"start_time":1551801385822,"click_time":1551801387197,"finger_time":1551801386856,"fix_duration":1264.3707023733612,"trial":28,"RT":1034,"MT":341,"sideResp":1,"stimulus":"img/500/randomdotsizeEA/L/8_Ratio_500_L_8_R_4.png","xmouse":[816,816,816,816,816,816,816,816,816,816,816,816,816,816,816,816,816,816,816,816,816,816,816,816,816,816,816,816,816,816,816,816,816,816,816,816,816,816,816,816,816,816,816,816,816,816,816,816,810,788,742,645,594,546,513,491,464,455,448,438,426,419,419,419,419,420,430,437,444],"ymouse":[562,562,562,562,562,562,562,562,562,562,562,562,562,562,562,562,562,562,562,562,562,562,562,562,562,562,562,562,562,562,562,562,562,562,562,562,562,562,562,562,562,562,562,562,562,562,562,562,554,526,472,382,351,331,317,308,293,286,272,253,220,183,169,157,147,138,116,104,96],"timestamp_mouse":[17,41,55,74,95,116,135,155,176,195,214,235,256,274,296,316,335,354,376,395,415,435,455,475,495,514,534,556,574,595,615,634,655,676,695,714,734,755,774,795,814,835,855,875,896,914,934,956,975,996,1015,1034,1055,1074,1094,1115,1135,1155,1174,1195,1215,1235,1255,1274,1295,1314,1335,1355,1375],"xSR":741.5,"ySR":469.95,"xT1":424.9,"yT1":0,"xT2":1058.1,"yT2":0,"toosoon":0,"cond_shown":"randomdotsizeEA","ratio_trial":500,"smaller_num":"4","larger_num":"8","correct_side":1,"subjID":"juanfelipeporrasduarte","gender":"0","age":"11","school":"6"},{"start_time":1551801388983,"click_time":1551801389896,"finger_time":1551801389576,"fix_duration":944.848785394852,"trial":29,"RT":593,"MT":320,"sideResp":1,"stimulus":"img/250/equaldotanddens/L/15_Ratio_250_L_12_R_3.png","xmouse":[769,769,769,769,769,769,769,769,769,769,769,769,769,769,769,769,769,769,769,769,769,769,769,769,769,769,769,770,758,744,726,699,683,663,656,645,635,624,600,584,568,544,532,519,514,509],"ymouse":[510,510,510,510,510,510,510,510,510,510,510,510,510,510,510,510,510,510,510,510,510,510,510,510,510,510,510,510,479,453,412,360,337,305,292,277,261,247,216,193,171,143,126,108,101,94],"timestamp_mouse":[14,33,55,74,94,114,134,154,175,193,215,234,254,274,295,314,333,354,374,393,415,434,453,475,493,515,535,553,574,593,615,634,654,674,694,713,734,755,774,794,814,833,853,873,894,913],"xSR":741.5,"ySR":469.95,"xT1":424.9,"yT1":0,"xT2":1058.1,"yT2":0,"toosoon":0,"cond_shown":"equaldotanddens","ratio_trial":250,"smaller_num":"3","larger_num":"12","correct_side":1,"subjID":"juanfelipeporrasduarte","gender":"0","age":"11","school":"6"},{"start_time":1551801390808,"click_time":1551801391837,"finger_time":1551801391517,"fix_duration":250,"trial":30,"RT":709,"MT":320,"sideResp":1,"stimulus":"img/250/randomdotsizeEA/L/14_Ratio_250_L_12_R_3.png","xmouse":[808,808,808,808,808,808,808,808,808,808,808,808,808,808,808,808,808,808,808,808,808,808,808,808,808,808,808,808,808,808,808,808,806,790,758,709,661,578,555,553,553,553,558,569,578,582,582,579,563,547,528,511],"ymouse":[537,537,537,537,537,537,537,537,537,537,537,537,537,537,537,537,537,537,537,537,537,537,537,537,537,537,537,537,537,537,537,537,534,518,479,427,375,281,250,246,245,243,226,210,194,183,176,158,136,120,105,93],"timestamp_mouse":[8,28,49,69,89,108,129,149,170,189,208,228,250,268,289,310,328,348,369,388,408,428,449,469,488,510,528,549,569,588,609,628,649,668,689,709,730,749,768,789,809,828,849,869,889,908,929,948,970,989,1010,1029],"xSR":741.5,"ySR":469.95,"xT1":424.9,"yT1":0,"xT2":1058.1,"yT2":0,"toosoon":0,"cond_shown":"randomdotsizeEA","ratio_trial":250,"smaller_num":"3","larger_num":"12","correct_side":1,"subjID":"juanfelipeporrasduarte","gender":"0","age":"11","school":"6"},{"start_time":1551801394270,"click_time":1551801395597,"finger_time":1551801395337,"fix_duration":250,"trial":31,"RT":1067,"MT":260,"sideResp":2,"stimulus":"img/750/equaldotsize/R/2_Ratio_750_L_6_R_8.png","xmouse":[793,793,793,793,793,793,793,793,793,793,793,793,793,793,793,793,793,793,793,793,793,793,793,793,793,793,793,793,793,793,793,793,793,793,793,793,793,793,793,793,793,793,793,793,793,793,793,793,793,793,793,805,833,870,935,944,952,959,967,973,991,999,1009,1022,1042,1057,1065],"ymouse":[537,537,537,537,537,537,537,537,537,537,537,537,537,537,537,537,537,537,537,537,537,537,537,537,537,537,537,537,537,537,537,537,537,537,537,537,537,537,537,537,537,537,537,537,537,537,537,537,537,537,537,510,471,421,307,286,265,247,229,207,174,165,155,142,125,108,97],"timestamp_mouse":[8,27,48,67,86,107,126,148,167,186,208,226,248,267,286,306,326,347,368,387,407,426,448,467,486,508,527,547,567,586,608,628,647,667,688,708,726,747,767,788,807,826,848,868,887,907,928,948,966,987,1007,1028,1047,1067,1088,1107,1127,1146,1167,1187,1207,1227,1247,1267,1287,1307,1327],"xSR":741.5,"ySR":469.95,"xT1":424.9,"yT1":0,"xT2":1058.1,"yT2":0,"toosoon":0,"cond_shown":"equaldotsize","ratio_trial":750,"smaller_num":"6","larger_num":"8","correct_side":2,"subjID":"juanfelipeporrasduarte","gender":"0","age":"11","school":"6"},{"start_time":1551801396550,"click_time":1551801397576,"finger_time":1551801397377,"fix_duration":252.04057178781957,"trial":32,"RT":827,"MT":199,"sideResp":2,"stimulus":"img/500/equaldotanddens/R/12_Ratio_500_L_1_R_2.png","xmouse":[806,806,806,806,806,806,806,800,787,778,777,777,777,777,777,777,777,777,777,777,777,777,777,777,777,777,777,777,777,777,777,777,777,777,777,777,777,777,777,777,783,824,863,904,940,967,1026,1048,1060,1066,1070,1074],"ymouse":[518,518,518,518,518,518,518,521,527,531,531,531,531,531,531,531,531,531,531,531,531,531,531,531,531,531,531,531,531,531,531,531,531,531,531,531,531,531,531,529,520,467,421,375,341,313,223,186,159,140,113,88],"timestamp_mouse":[6,26,48,67,87,106,127,147,167,186,207,227,248,267,287,306,326,348,367,386,407,428,446,467,488,506,528,548,566,588,606,627,647,666,686,707,726,748,768,787,806,827,847,867,886,907,927,947,967,986,1008,1026],"xSR":741.5,"ySR":469.95,"xT1":424.9,"yT1":0,"xT2":1058.1,"yT2":0,"toosoon":0,"cond_shown":"equaldotanddens","ratio_trial":500,"smaller_num":"1","larger_num":"2","correct_side":2,"subjID":"juanfelipeporrasduarte","gender":"0","age":"11","school":"6"},{"start_time":1551801399273,"click_time":1551801400257,"finger_time":1551801399977,"fix_duration":953.0758787158599,"trial":33,"RT":704,"MT":280,"sideResp":2,"stimulus":"img/750/equaldotsize/R/5_Ratio_750_L_15_R_20.png","xmouse":[789,789,789,789,789,789,789,789,789,789,789,789,789,789,789,789,789,789,789,789,789,789,789,789,789,789,789,789,789,789,789,789,801,817,833,886,916,956,995,1025,1045,1050,1050,1050,1050,1051,1052,1054,1056,1063],"ymouse":[543,543,543,543,543,543,543,543,543,543,543,543,543,543,543,543,543,543,543,543,543,543,543,543,543,543,543,543,543,543,543,541,520,496,473,389,333,267,202,161,118,95,88,74,67,62,62,60,58,55],"timestamp_mouse":[8,30,44,63,83,103,124,145,165,183,204,224,243,264,284,303,323,344,364,384,405,423,443,464,483,504,523,545,563,583,604,624,643,665,684,704,724,743,764,784,804,823,844,864,885,903,924,944,965,984],"xSR":741.5,"ySR":469.95,"xT1":424.9,"yT1":0,"xT2":1058.1,"yT2":0,"toosoon":0,"cond_shown":"equaldotsize","ratio_trial":750,"smaller_num":"15","larger_num":"20","correct_side":2,"subjID":"juanfelipeporrasduarte","gender":"0","age":"11","school":"6"},{"start_time":1551801402123,"click_time":1551801402837,"finger_time":1551801402758,"fix_duration":1224.7648262505609,"trial":34,"RT":635,"MT":79,"sideResp":2,"stimulus":"img/250/equaldotsize/R/10_Ratio_250_L_4_R_16.png","xmouse":[804,804,804,804,804,804,804,804,804,804,804,804,804,804,804,804,804,804,804,804,804,804,804,804,804,804,804,804,804,804,811,824,855,991,1073,1135],"ymouse":[510,510,510,510,510,510,510,510,510,510,510,510,510,510,510,510,510,510,510,510,510,510,510,510,510,510,510,510,510,510,495,468,410,222,142,90],"timestamp_mouse":[13,34,55,74,94,114,135,154,173,193,214,233,253,274,293,313,334,354,375,394,413,434,455,475,493,514,534,554,575,593,615,635,655,674,694,714],"xSR":741.5,"ySR":469.95,"xT1":424.9,"yT1":0,"xT2":1058.1,"yT2":0,"toosoon":0,"cond_shown":"equaldotsize","ratio_trial":250,"smaller_num":"4","larger_num":"16","correct_side":2,"subjID":"juanfelipeporrasduarte","gender":"0","age":"11","school":"6"},{"start_time":1551801404129,"click_time":1551801405437,"finger_time":1551801404978,"fix_duration":250,"trial":35,"RT":849,"MT":459,"sideResp":1,"stimulus":"img/750/equaldotsize/L/1_Ratio_750_L_20_R_15.png","xmouse":[801,801,801,801,801,801,801,801,801,801,801,801,801,801,801,801,801,801,801,801,801,801,801,801,801,801,801,801,801,801,801,801,801,801,801,801,801,801,801,801,797,784,733,682,617,555,493,413,345,330,327,327,327,327,327,327,333,346,358,364,370,377,384,412,421,428],"ymouse":[529,529,529,529,529,529,529,529,529,529,529,529,529,529,529,529,529,529,529,529,529,529,529,529,529,529,529,529,529,529,529,529,529,529,529,529,529,529,529,529,526,514,476,444,405,373,337,277,216,204,201,200,200,195,186,171,149,116,87,76,67,57,50,37,34,30],"timestamp_mouse":[8,27,49,68,88,109,128,148,169,188,207,228,253,267,289,307,329,348,369,388,407,428,448,467,489,507,528,548,568,589,607,628,649,667,688,709,728,749,767,788,807,828,849,867,888,907,929,948,968,988,1007,1029,1048,1068,1087,1109,1128,1148,1167,1188,1207,1227,1249,1268,1287,1308],"xSR":741.5,"ySR":469.95,"xT1":424.9,"yT1":0,"xT2":1058.1,"yT2":0,"toosoon":0,"cond_shown":"equaldotsize","ratio_trial":750,"smaller_num":"15","larger_num":"20","correct_side":1,"subjID":"juanfelipeporrasduarte","gender":"0","age":"11","school":"6"},{"start_time":1551801408820,"click_time":1551801409636,"finger_time":1551801409456,"fix_duration":1243.9534969956087,"trial":36,"RT":636,"MT":180,"sideResp":1,"stimulus":"img/250/equaldotanddens/L/14_Ratio_250_L_12_R_3.png","xmouse":[808,808,808,808,808,808,808,808,808,808,808,808,808,808,808,808,808,808,808,808,808,808,808,808,808,808,808,808,808,804,773,742,709,671,664,658,651,637,610,529,459],"ymouse":[559,559,559,559,559,559,559,559,559,559,559,559,559,559,559,559,559,559,559,559,559,559,559,559,559,559,559,559,559,549,484,423,374,317,300,281,258,228,187,113,77],"timestamp_mouse":[17,44,57,78,97,117,138,156,177,198,218,238,258,277,297,316,338,358,376,398,417,437,458,477,497,516,538,558,577,597,617,636,657,677,697,718,737,756,777,797,816],"xSR":741.5,"ySR":469.95,"xT1":424.9,"yT1":0,"xT2":1058.1,"yT2":0,"toosoon":0,"cond_shown":"equaldotanddens","ratio_trial":250,"smaller_num":"3","larger_num":"12","correct_side":1,"subjID":"juanfelipeporrasduarte","gender":"0","age":"11","school":"6"},{"start_time":1551801411827,"click_time":1551801413056,"finger_time":1551801412637,"fix_duration":1468.989361163095,"trial":37,"RT":810,"MT":419,"sideResp":2,"stimulus":"img/500/randomdotsizeEA/R/9_Ratio_500_L_2_R_4.png","xmouse":[783,783,783,783,783,783,783,783,783,783,783,783,783,783,783,783,783,783,783,783,783,783,783,783,783,783,783,783,783,783,783,783,783,783,783,783,783,783,784,811,836,863,918,978,1084,1122,1145,1165,1187,1199,1211,1222,1231,1238,1241,1241,1241,1241,1228,1192,1172,1158],"ymouse":[501,501,501,501,501,501,501,501,501,501,501,501,501,501,501,501,501,501,501,501,501,501,501,501,501,501,501,501,501,501,501,501,501,501,501,501,501,501,501,482,463,438,398,346,236,189,155,124,94,79,67,53,40,29,20,19,19,19,22,38,45,51],"timestamp_mouse":[11,32,49,69,89,110,129,150,170,189,211,229,249,270,290,309,329,350,370,391,410,429,450,470,490,510,530,550,570,589,610,630,649,671,691,709,729,751,769,789,810,830,849,869,890,909,930,951,971,989,1010,1029,1051,1070,1090,1110,1130,1150,1170,1189,1209,1229],"xSR":741.5,"ySR":469.95,"xT1":424.9,"yT1":0,"xT2":1058.1,"yT2":0,"toosoon":0,"cond_shown":"randomdotsizeEA","ratio_trial":500,"smaller_num":"2","larger_num":"4","correct_side":2,"subjID":"juanfelipeporrasduarte","gender":"0","age":"11","school":"6"},{"start_time":1551801415172,"click_time":1551801416197,"finger_time":1551801415876,"fix_duration":1314.6550310649097,"trial":38,"RT":704,"MT":321,"sideResp":2,"stimulus":"img/900/equaldotanddens/L/1_Ratio_900_L_10_R_9.png","xmouse":[800,800,800,800,800,800,800,800,800,800,800,800,800,800,800,800,800,800,800,800,800,800,800,800,800,800,800,800,800,800,800,800,800,800,807,842,882,925,935,941,948,950,952,952,952,956,962,989,1009,1032,1062,1076],"ymouse":[531,531,531,531,531,531,531,531,531,531,531,531,531,531,531,531,531,531,531,531,531,531,531,531,531,531,531,531,531,531,531,531,531,531,505,429,345,250,230,215,204,200,197,197,196,192,185,159,142,125,103,92],"timestamp_mouse":[8,25,46,64,85,105,124,146,164,184,206,224,244,265,284,306,324,344,365,384,406,424,445,464,485,504,525,544,565,584,606,625,644,665,686,704,724,745,766,786,805,826,845,865,884,905,925,945,965,986,1006,1025],"xSR":741.5,"ySR":469.95,"xT1":424.9,"yT1":0,"xT2":1058.1,"yT2":0,"toosoon":0,"cond_shown":"equaldotanddens","ratio_trial":900,"smaller_num":"9","larger_num":"10","correct_side":1,"subjID":"juanfelipeporrasduarte","gender":"0","age":"11","school":"6"},{"start_time":1551801418029,"click_time":1551801418817,"finger_time":1551801418718,"fix_duration":250,"trial":39,"RT":689,"MT":99,"sideResp":2,"stimulus":"img/500/equaldotanddens/R/15_Ratio_500_L_1_R_2.png","xmouse":[802,802,802,802,802,802,802,802,802,802,802,802,802,802,802,802,802,802,802,802,802,802,802,802,802,802,802,802,802,802,802,802,802,814,924,959,1024,1045,1062,1098],"ymouse":[535,535,535,535,535,535,535,535,535,535,535,535,535,535,535,535,535,535,535,535,535,535,535,535,535,535,535,535,535,535,535,535,535,514,356,317,213,162,112,6],"timestamp_mouse":[13,32,48,67,88,109,127,147,169,187,209,228,247,269,289,307,327,348,368,387,408,427,449,468,488,508,527,547,568,588,609,628,647,667,689,708,727,747,768,788],"xSR":741.5,"ySR":469.95,"xT1":424.9,"yT1":0,"xT2":1058.1,"yT2":0,"toosoon":0,"cond_shown":"equaldotanddens","ratio_trial":500,"smaller_num":"1","larger_num":"2","correct_side":2,"subjID":"juanfelipeporrasduarte","gender":"0","age":"11","school":"6"},{"start_time":1551801420780,"click_time":1551801421536,"finger_time":1551801421337,"fix_duration":1182.9838578473386,"trial":40,"RT":557,"MT":199,"sideResp":1,"stimulus":"img/500/equaldotsize/L/8_Ratio_500_L_8_R_4.png","xmouse":[800,800,800,800,800,800,800,800,800,800,800,800,800,800,800,800,800,800,800,800,800,800,800,796,790,759,745,659,613,569,536,521,513,513,513,513,513,513],"ymouse":[544,544,544,544,544,544,544,544,544,544,544,544,544,544,544,544,544,544,544,544,544,544,544,540,533,502,488,376,311,239,178,145,122,118,116,113,108,97],"timestamp_mouse":[17,43,57,76,98,118,136,158,178,196,218,237,256,277,297,317,337,357,378,396,418,437,458,476,497,516,536,557,577,598,617,637,656,678,697,716,736,756],"xSR":741.5,"ySR":469.95,"xT1":424.9,"yT1":0,"xT2":1058.1,"yT2":0,"toosoon":0,"cond_shown":"equaldotsize","ratio_trial":500,"smaller_num":"4","larger_num":"8","correct_side":1,"subjID":"juanfelipeporrasduarte","gender":"0","age":"11","school":"6"},{"start_time":1551801422450,"click_time":1551801423977,"finger_time":1551801423878,"fix_duration":250,"trial":41,"RT":1428,"MT":99,"sideResp":2,"stimulus":"img/900/equaldotsize/L/4_Ratio_900_L_20_R_18.png","xmouse":[778,778,778,778,778,778,778,778,778,778,778,778,778,778,778,778,778,778,778,778,778,778,778,778,778,778,778,778,778,778,778,778,778,778,778,778,778,778,778,778,778,778,778,778,778,778,778,778,780,780,781,781,781,781,781,781,781,781,781,781,781,781,781,781,781,781,781,781,781,781,789,810,850,931,1028,1061,1078],"ymouse":[488,488,488,488,488,488,488,488,488,488,488,488,488,488,488,488,488,488,488,488,488,488,488,488,488,488,488,488,488,488,488,488,488,488,488,488,488,488,488,488,488,488,488,488,488,488,488,488,487,484,484,483,483,483,483,483,483,483,483,483,483,483,483,483,483,483,483,483,483,483,474,450,402,307,172,114,80],"timestamp_mouse":[7,30,48,67,86,107,128,146,167,187,206,228,248,267,287,306,328,347,366,387,407,426,447,468,486,507,528,546,566,587,606,627,646,666,687,706,727,747,767,787,808,827,848,866,888,906,927,948,967,987,1007,1028,1047,1066,1088,1108,1126,1148,1166,1186,1207,1228,1246,1266,1287,1307,1327,1346,1367,1387,1407,1428,1446,1467,1486,1507,1527],"xSR":741.5,"ySR":469.95,"xT1":424.9,"yT1":0,"xT2":1058.1,"yT2":0,"toosoon":0,"cond_shown":"equaldotsize","ratio_trial":900,"smaller_num":"18","larger_num":"20","correct_side":1,"subjID":"juanfelipeporrasduarte","gender":"0","age":"11","school":"6"},{"start_time":1551801425896,"click_time":1551801426716,"finger_time":1551801426577,"fix_duration":978.5269597828546,"trial":42,"RT":681,"MT":139,"sideResp":2,"stimulus":"img/250/randomdotsizeEA/R/9_Ratio_250_L_3_R_12.png","xmouse":[771,771,771,771,771,771,771,771,771,771,771,771,771,771,771,771,771,771,771,771,777,785,787,787,787,787,787,787,787,787,787,787,795,822,878,948,1015,1053,1068,1071,1077,1084],"ymouse":[542,542,542,542,542,542,542,542,542,542,542,542,542,542,542,542,542,542,542,543,543,541,540,540,540,540,540,540,540,540,540,540,525,481,400,300,202,148,122,115,104,90],"timestamp_mouse":[11,20,42,62,81,100,120,142,161,182,201,221,241,262,280,301,321,341,361,381,401,421,441,460,482,500,522,541,561,581,601,621,641,661,681,701,722,741,761,781,801,820],"xSR":741.5,"ySR":469.95,"xT1":424.9,"yT1":0,"xT2":1058.1,"yT2":0,"toosoon":0,"cond_shown":"randomdotsizeEA","ratio_trial":250,"smaller_num":"3","larger_num":"12","correct_side":2,"subjID":"juanfelipeporrasduarte","gender":"0","age":"11","school":"6"},{"start_time":1551801430017,"click_time":1551801431076,"finger_time":1551801430757,"fix_duration":1076.930517038558,"trial":43,"RT":740,"MT":319,"sideResp":1,"stimulus":"img/750/equaldotsize/L/9_Ratio_750_L_4_R_3.png","xmouse":[796,796,796,796,796,796,796,796,796,796,796,796,796,796,796,796,796,796,796,796,796,796,796,796,796,796,796,796,796,796,796,796,796,796,796,791,785,738,706,677,645,594,582,573,567,563,560,557,557,557,555,554,535,524],"ymouse":[559,559,559,559,559,559,559,559,559,559,559,559,559,559,559,559,559,559,559,559,559,559,559,559,559,559,559,559,559,559,559,559,559,559,559,543,529,424,370,315,257,171,150,133,120,111,104,98,97,97,95,95,86,81],"timestamp_mouse":[8,21,40,60,79,101,119,139,161,181,200,220,241,260,279,300,321,341,360,381,401,421,439,459,480,500,521,540,559,579,600,621,641,660,680,700,721,740,760,780,800,821,839,860,880,901,920,940,960,980,999,1020,1040,1059],"xSR":741.5,"ySR":469.95,"xT1":424.9,"yT1":0,"xT2":1058.1,"yT2":0,"toosoon":0,"cond_shown":"equaldotsize","ratio_trial":750,"smaller_num":"3","larger_num":"4","correct_side":1,"subjID":"juanfelipeporrasduarte","gender":"0","age":"11","school":"6"},{"start_time":1551801433325,"click_time":1551801434217,"finger_time":1551801434077,"fix_duration":1287.2894782215383,"trial":44,"RT":752,"MT":140,"sideResp":1,"stimulus":"img/750/equaldotsize/L/13_Ratio_750_L_8_R_6.png","xmouse":[796,796,796,796,796,796,796,798,798,798,798,798,798,798,798,799,799,799,799,799,799,799,799,799,799,799,799,799,799,799,799,799,799,799,799,799,788,779,769,757,728,645,584,510,470],"ymouse":[495,495,495,495,495,496,497,498,499,499,499,499,499,500,501,502,504,504,504,504,504,504,504,504,504,504,504,504,504,504,504,504,504,504,504,500,479,465,451,430,387,264,195,107,66],"timestamp_mouse":[12,33,52,72,93,112,131,152,172,191,211,232,251,273,293,312,331,353,372,391,413,433,451,473,493,512,531,552,572,591,612,632,653,672,691,713,732,752,772,792,813,831,852,872,892],"xSR":741.5,"ySR":469.95,"xT1":424.9,"yT1":0,"xT2":1058.1,"yT2":0,"toosoon":0,"cond_shown":"equaldotsize","ratio_trial":750,"smaller_num":"6","larger_num":"8","correct_side":1,"subjID":"juanfelipeporrasduarte","gender":"0","age":"11","school":"6"},{"start_time":1551801435336,"click_time":1551801436377,"finger_time":1551801436038,"fix_duration":298.70534584503207,"trial":45,"RT":702,"MT":339,"sideResp":2,"stimulus":"img/250/equaldotanddens/R/10_Ratio_250_L_4_R_16.png","xmouse":[765,765,765,765,765,765,765,765,765,765,765,765,765,765,765,765,765,765,765,765,765,765,765,765,765,765,765,765,765,765,765,765,771,780,794,823,902,923,936,948,961,983,989,995,1000,1005,1009,1013,1023,1038,1057,1075,1097],"ymouse":[530,530,530,530,530,530,530,530,530,530,530,530,530,530,530,530,530,530,530,530,530,530,530,530,530,530,530,530,530,530,530,530,524,507,481,430,311,280,263,247,231,206,199,191,184,174,161,155,142,130,116,107,97],"timestamp_mouse":[8,21,41,61,82,100,122,141,161,181,201,221,241,260,281,302,321,341,361,380,400,421,440,460,481,500,521,540,561,582,601,620,641,661,681,702,722,740,761,782,802,821,842,860,880,901,921,940,961,982,1001,1021,1040],"xSR":741.5,"ySR":469.95,"xT1":424.9,"yT1":0,"xT2":1058.1,"yT2":0,"toosoon":0,"cond_shown":"equaldotanddens","ratio_trial":250,"smaller_num":"4","larger_num":"16","correct_side":2,"subjID":"juanfelipeporrasduarte","gender":"0","age":"11","school":"6"},{"start_time":1551801437388,"click_time":1551801438518,"finger_time":1551801438057,"fix_duration":250,"trial":46,"RT":669,"MT":461,"sideResp":1,"stimulus":"img/500/equaldotsize/L/8_Ratio_500_L_8_R_4.png","xmouse":[765,765,765,765,766,767,769,769,770,770,770,770,770,770,770,770,770,770,770,770,770,770,770,770,770,770,770,770,770,770,770,769,757,736,638,597,563,554,552,552,551,550,546,537,532,529,525,523,522,518,515,513,511,509,509,507,506],"ymouse":[555,555,555,553,552,550,549,548,547,547,547,547,547,547,547,547,547,547,547,547,547,547,547,547,547,547,547,547,547,547,547,540,524,496,379,319,272,254,250,246,243,237,228,208,200,191,185,179,175,159,151,143,134,121,112,104,94],"timestamp_mouse":[9,30,49,70,89,110,129,148,170,188,209,228,250,270,289,309,329,349,370,388,410,428,450,469,489,509,529,549,569,590,609,629,649,669,689,709,730,749,768,788,809,829,849,870,889,908,928,949,969,989,1009,1030,1050,1070,1089,1109,1129],"xSR":741.5,"ySR":469.95,"xT1":424.9,"yT1":0,"xT2":1058.1,"yT2":0,"toosoon":0,"cond_shown":"equaldotsize","ratio_trial":500,"smaller_num":"4","larger_num":"8","correct_side":1,"subjID":"juanfelipeporrasduarte","gender":"0","age":"11","school":"6"},{"start_time":1551801442026,"click_time":1551801443114,"finger_time":1551801442655,"fix_duration":250,"trial":47,"RT":629,"MT":459,"sideResp":1,"stimulus":"img/250/equaldotsize/L/2_Ratio_250_L_16_R_4.png","xmouse":[827,827,827,827,827,827,827,827,827,827,827,827,827,827,827,827,827,827,827,827,827,827,827,827,827,827,827,827,827,826,822,814,793,782,764,752,735,705,694,679,666,644,592,573,556,536,525,515,512,509,507,501,493,480,474],"ymouse":[491,491,491,491,491,491,491,491,491,491,491,491,491,491,491,491,491,491,491,491,491,491,491,491,491,491,491,491,491,488,481,464,432,418,397,382,366,338,327,313,300,279,227,212,196,181,171,159,155,151,146,138,128,106,96],"timestamp_mouse":[8,28,50,69,89,109,128,148,168,188,210,229,248,269,289,308,329,349,368,388,409,428,448,468,489,510,530,548,569,588,608,629,648,669,688,709,730,748,769,788,808,828,849,870,889,909,928,948,968,988,1010,1028,1048,1068,1088],"xSR":741.5,"ySR":469.95,"xT1":424.9,"yT1":0,"xT2":1058.1,"yT2":0,"toosoon":0,"cond_shown":"equaldotsize","ratio_trial":250,"smaller_num":"4","larger_num":"16","correct_side":1,"subjID":"juanfelipeporrasduarte","gender":"0","age":"11","school":"6"},{"start_time":1551801445149,"click_time":1551801446696,"finger_time":1551801445974,"fix_duration":1073.2667517613415,"trial":48,"RT":825,"MT":722,"sideResp":1,"stimulus":"img/900/randomdotsizeEA/R/11_Ratio_900_L_18_R_20.png","xmouse":[780,780,780,780,780,780,780,780,780,780,780,780,780,780,780,780,780,780,780,780,780,780,780,780,780,780,780,780,780,780,780,780,780,780,780,780,780,776,768,762,755,728,714,704,696,688,670,663,650,627,596,559,514,498,488,481,479,478,478,478,478,478,478,480,485,492,515,539,551,555,556,556,556,556,556,556,553,508],"ymouse":[504,504,504,504,504,504,504,504,504,504,504,504,504,504,504,504,504,504,504,504,504,504,504,504,504,504,504,504,504,504,504,504,504,504,504,504,504,500,493,484,472,403,376,357,343,328,300,288,269,245,216,184,150,136,124,112,106,105,105,105,105,105,104,103,102,102,102,106,108,109,109,109,109,109,109,109,109,96],"timestamp_mouse":[8,35,45,66,86,105,126,146,166,185,206,226,246,266,286,305,326,345,366,386,406,427,446,466,486,505,526,546,566,586,605,625,647,666,686,707,725,746,766,785,805,825,845,865,885,906,927,945,965,986,1005,1025,1045,1065,1087,1105,1126,1145,1166,1185,1205,1226,1245,1266,1285,1305,1326,1345,1366,1386,1405,1425,1445,1465,1489,1505,1526,1546],"xSR":741.5,"ySR":469.95,"xT1":424.9,"yT1":0,"xT2":1058.1,"yT2":0,"toosoon":0,"cond_shown":"randomdotsizeEA","ratio_trial":900,"smaller_num":"18","larger_num":"20","correct_side":2,"subjID":"juanfelipeporrasduarte","gender":"0","age":"11","school":"6"},{"start_time":1551801451752,"click_time":1551801452856,"finger_time":1551801452495,"fix_duration":1376.8559136785175,"trial":49,"RT":743,"MT":361,"sideResp":1,"stimulus":"img/750/randomdotsizeEA/R/4_Ratio_750_L_15_R_20.png","xmouse":[792,792,792,792,792,792,792,792,792,792,792,792,792,792,792,792,792,792,792,792,792,792,792,792,792,792,792,792,792,792,792,792,792,790,784,771,754,718,700,682,669,661,639,629,613,604,596,586,573,565,556,546,526,517,507,507],"ymouse":[524,524,524,524,524,524,524,524,524,524,524,524,524,524,524,524,524,524,524,524,524,524,524,524,524,524,524,524,524,524,524,524,524,522,516,503,483,441,420,400,380,365,327,309,280,263,246,231,206,194,181,168,140,125,101,91],"timestamp_mouse":[9,23,43,62,83,103,123,142,163,182,204,222,243,264,283,302,322,342,362,382,403,423,442,462,482,503,522,543,562,582,602,622,643,663,683,702,723,743,763,783,802,822,843,863,882,902,922,942,962,982,1002,1022,1042,1062,1082,1104],"xSR":741.5,"ySR":469.95,"xT1":424.9,"yT1":0,"xT2":1058.1,"yT2":0,"toosoon":0,"cond_shown":"randomdotsizeEA","ratio_trial":750,"smaller_num":"15","larger_num":"20","correct_side":2,"subjID":"juanfelipeporrasduarte","gender":"0","age":"11","school":"6"},{"start_time":1551801454347,"click_time":1551801455874,"finger_time":1551801455454,"fix_duration":250,"trial":50,"RT":1107,"MT":420,"sideResp":2,"stimulus":"img/900/randomdotsizeEA/L/8_Ratio_900_L_20_R_18.png","xmouse":[783,783,783,783,783,783,783,783,783,783,783,783,783,783,783,783,783,783,783,783,783,783,783,783,783,783,783,783,783,783,783,783,783,783,783,783,783,783,783,783,783,783,783,783,775,767,762,760,759,759,758,758,758,761,770,784,808,847,977,1059,1133,1188,1225,1230,1232,1232,1232,1232,1232,1232,1232,1232,1203,1186,1171,1160,1154],"ymouse":[550,550,550,550,550,550,550,550,550,550,550,550,550,550,550,550,550,550,550,550,550,550,550,550,550,550,550,550,550,550,550,550,550,550,550,550,550,550,550,550,550,550,550,548,540,531,525,520,519,519,517,514,502,490,475,452,417,362,224,161,108,67,24,6,1,1,1,1,1,1,1,1,30,41,49,52,53],"timestamp_mouse":[9,34,49,67,88,108,127,148,167,188,207,227,248,268,287,307,328,347,368,388,409,427,448,468,489,509,528,549,567,588,609,627,647,667,687,707,728,749,768,788,807,827,848,869,888,907,928,948,967,987,1008,1027,1048,1067,1087,1107,1127,1149,1167,1187,1207,1227,1248,1267,1287,1309,1328,1347,1367,1388,1407,1428,1448,1467,1487,1507,1527],"xSR":741.5,"ySR":469.95,"xT1":424.9,"yT1":0,"xT2":1058.1,"yT2":0,"toosoon":0,"cond_shown":"randomdotsizeEA","ratio_trial":900,"smaller_num":"18","larger_num":"20","correct_side":1,"subjID":"juanfelipeporrasduarte","gender":"0","age":"11","school":"6"},{"start_time":1551801457928,"click_time":1551801458734,"finger_time":1551801458614,"fix_duration":1011.7192747913308,"trial":51,"RT":686,"MT":120,"sideResp":1,"stimulus":"img/900/randomdotsizeEA/R/6_Ratio_900_L_9_R_10.png","xmouse":[805,805,805,805,805,805,805,805,805,805,805,805,805,805,805,805,805,805,805,805,805,805,805,805,805,805,805,805,805,805,805,803,796,778,697,632,569,529,498,468,462],"ymouse":[516,516,516,516,516,516,516,516,516,516,516,516,516,516,516,516,516,516,516,516,516,516,516,516,516,516,516,516,516,516,516,513,499,475,385,330,269,218,167,103,88],"timestamp_mouse":[8,28,46,67,88,106,127,146,166,186,206,226,246,267,286,307,326,347,366,387,406,426,447,467,486,506,526,548,566,587,606,626,646,668,686,706,726,746,768,787,806],"xSR":741.5,"ySR":469.95,"xT1":424.9,"yT1":0,"xT2":1058.1,"yT2":0,"toosoon":0,"cond_shown":"randomdotsizeEA","ratio_trial":900,"smaller_num":"9","larger_num":"10","correct_side":2,"subjID":"juanfelipeporrasduarte","gender":"0","age":"11","school":"6"},{"start_time":1551801460206,"click_time":1551801461514,"finger_time":1551801460914,"fix_duration":390.37387219430497,"trial":52,"RT":708,"MT":600,"sideResp":2,"stimulus":"img/900/equaldotsize/L/4_Ratio_900_L_20_R_18.png","xmouse":[816,816,816,816,816,816,816,816,816,816,816,816,816,816,816,816,816,816,816,816,816,816,816,816,816,816,816,816,816,816,816,816,819,821,823,826,827,829,830,830,830,830,830,830,830,842,872,940,994,1033,1064,1064,1064,1064,1064,1064,1064,1064,1064,1064,1064,1064,1064,1064,1064,1119],"ymouse":[558,558,558,558,558,558,558,558,558,558,558,558,557,555,554,554,554,554,554,554,554,554,554,554,554,554,554,554,554,553,542,528,508,489,473,456,452,449,448,448,448,448,448,448,445,421,358,223,132,58,0,0,0,0,0,0,0,0,0,0,0,0,0,0,0,75],"timestamp_mouse":[27,28,48,70,88,108,128,149,168,190,210,229,249,269,289,309,329,348,369,389,408,429,449,469,488,509,528,548,568,589,608,628,650,669,688,708,729,748,769,789,809,829,848,868,889,908,928,949,969,988,1008,1029,1049,1068,1088,1108,1128,1149,1169,1188,1208,1229,1249,1268,1289,1308],"xSR":741.5,"ySR":469.95,"xT1":424.9,"yT1":0,"xT2":1058.1,"yT2":0,"toosoon":0,"cond_shown":"equaldotsize","ratio_trial":900,"smaller_num":"18","larger_num":"20","correct_side":1,"subjID":"juanfelipeporrasduarte","gender":"0","age":"11","school":"6"},{"start_time":1551801463709,"click_time":1551801464735,"finger_time":1551801464275,"fix_duration":1053.5435140940046,"trial":53,"RT":566,"MT":460,"sideResp":2,"stimulus":"img/250/equaldotsize/R/12_Ratio_250_L_5_R_20.png","xmouse":[798,798,798,798,798,798,798,798,798,798,798,798,798,798,798,798,798,798,798,798,798,798,798,798,798,798,798,805,823,853,941,961,974,983,991,1005,1009,1012,1015,1016,1019,1019,1019,1019,1022,1028,1030,1034,1036,1041,1045,1059],"ymouse":[490,490,490,490,490,490,490,490,490,490,490,490,490,490,490,490,490,490,490,490,490,490,490,490,490,490,488,472,444,404,317,299,282,265,246,216,205,196,183,168,142,125,105,81,58,32,25,21,19,18,18,22],"timestamp_mouse":[7,25,46,65,86,107,125,145,165,185,205,226,247,266,286,305,325,345,366,385,405,426,445,465,486,506,526,546,566,585,607,625,645,666,685,706,726,745,766,785,807,825,845,866,887,906,925,946,966,985,1005,1025],"xSR":741.5,"ySR":469.95,"xT1":424.9,"yT1":0,"xT2":1058.1,"yT2":0,"toosoon":0,"cond_shown":"equaldotsize","ratio_trial":250,"smaller_num":"5","larger_num":"20","correct_side":2,"subjID":"juanfelipeporrasduarte","gender":"0","age":"11","school":"6"},{"start_time":1551801466260,"click_time":1551801467334,"finger_time":1551801466934,"fix_duration":282.13615817952274,"trial":54,"RT":674,"MT":400,"sideResp":1,"stimulus":"img/500/equaldotsize/L/4_Ratio_500_L_18_R_9.png","xmouse":[804,804,804,804,804,804,804,804,804,804,804,804,804,804,804,804,804,804,804,804,804,804,804,804,804,804,804,804,804,804,801,793,753,632,554,476,408,369,327,319,313,307,304,304,306,313,324,340,369,377,383,394,404,430],"ymouse":[566,566,566,566,566,566,566,566,566,566,566,566,566,566,566,566,566,566,566,566,566,566,566,566,566,566,566,566,566,566,564,562,542,453,384,316,256,219,170,152,135,119,113,110,109,108,108,108,106,103,101,97,93,78],"timestamp_mouse":[14,34,56,74,94,114,134,155,174,195,214,234,255,274,294,316,335,355,374,395,414,434,454,475,495,516,535,554,575,594,614,634,654,674,694,715,734,754,774,795,815,834,854,874,894,914,934,956,974,995,1014,1034,1056,1074],"xSR":741.5,"ySR":469.95,"xT1":424.9,"yT1":0,"xT2":1058.1,"yT2":0,"toosoon":0,"cond_shown":"equaldotsize","ratio_trial":500,"smaller_num":"9","larger_num":"18","correct_side":1,"subjID":"juanfelipeporrasduarte","gender":"0","age":"11","school":"6"},{"start_time":1551801469770,"click_time":1551801470674,"finger_time":1551801470314,"fix_duration":1434.0159534492986,"trial":55,"RT":544,"MT":360,"sideResp":1,"stimulus":"img/250/equaldotsize/L/15_Ratio_250_L_12_R_3.png","xmouse":[801,801,801,801,801,801,801,801,801,801,801,801,801,801,801,801,801,801,801,801,801,801,801,801,801,799,788,771,723,699,677,661,651,637,635,629,624,618,612,603,596,584,573,553,528,514],"ymouse":[517,517,517,517,517,517,517,517,517,517,517,517,517,517,517,517,517,517,517,517,517,517,517,517,517,507,482,439,341,298,261,232,213,181,176,166,159,151,144,133,129,122,115,102,88,80],"timestamp_mouse":[8,33,44,64,85,105,124,145,165,184,204,226,245,265,284,305,324,344,364,384,405,424,445,464,486,504,525,544,564,584,604,625,644,665,686,704,724,744,764,784,804,824,845,864,885,904],"xSR":741.5,"ySR":469.95,"xT1":424.9,"yT1":0,"xT2":1058.1,"yT2":0,"toosoon":0,"cond_shown":"equaldotsize","ratio_trial":250,"smaller_num":"3","larger_num":"12","correct_side":1,"subjID":"juanfelipeporrasduarte","gender":"0","age":"11","school":"6"},{"start_time":1551801475019,"click_time":1551801476675,"finger_time":1551801476115,"fix_duration":283.04045612623986,"trial":56,"RT":1096,"MT":560,"sideResp":2,"stimulus":"img/900/equaldotsize/L/1_Ratio_900_L_10_R_9.png","xmouse":[818,811,811,810,810,810,810,810,810,810,810,810,810,810,810,810,810,810,810,810,810,810,810,810,810,810,810,810,810,810,810,810,810,810,810,810,810,810,810,810,810,810,810,810,810,810,810,810,810,810,810,810,812,826,856,906,1025,1047,1049,1050,1050,1050,1050,1049,1046,1041,1017,999,973,939,923,904,901,901,901,901,901,901,901,903,913,1028,1117],"ymouse":[504,510,511,512,512,512,512,512,512,512,512,512,512,512,512,512,512,512,512,512,512,512,512,512,512,512,512,512,512,512,512,512,512,512,512,512,512,512,512,512,512,512,512,512,512,512,512,512,512,512,512,512,507,481,419,316,100,64,55,55,55,55,55,56,61,70,108,137,173,223,244,275,279,280,280,280,280,280,280,278,269,167,84],"timestamp_mouse":[16,35,55,75,96,115,136,155,175,195,215,236,255,275,296,315,335,355,376,397,415,435,457,477,496,515,535,555,575,595,615,636,655,675,696,715,735,756,775,795,815,835,856,876,895,916,935,956,975,995,1015,1035,1056,1075,1096,1115,1135,1156,1176,1195,1216,1236,1256,1275,1296,1316,1336,1355,1376,1396,1417,1435,1455,1475,1495,1516,1535,1556,1575,1597,1615,1635,1655],"xSR":741.5,"ySR":469.95,"xT1":424.9,"yT1":0,"xT2":1058.1,"yT2":0,"toosoon":0,"cond_shown":"equaldotsize","ratio_trial":900,"smaller_num":"9","larger_num":"10","correct_side":1,"subjID":"juanfelipeporrasduarte","gender":"0","age":"11","school":"6"},{"start_time":1551801480907,"click_time":1551801482095,"finger_time":1551801481556,"fix_duration":1331.9193800209412,"trial":57,"RT":649,"MT":539,"sideResp":1,"stimulus":"img/500/equaldotanddens/L/13_Ratio_500_L_12_R_6.png","xmouse":[811,811,811,811,811,811,811,811,811,811,811,811,811,811,811,811,811,811,811,811,811,811,811,811,811,811,811,811,811,809,801,786,749,737,724,711,700,690,674,668,663,656,638,632,623,616,611,583,564,542,522,507,497,491,491,489,489,489,488,488],"ymouse":[520,520,520,520,520,520,520,520,520,520,520,520,520,520,520,520,520,520,520,520,520,520,520,520,520,520,520,520,520,515,506,490,432,407,382,357,334,308,271,256,245,232,205,199,191,185,181,167,160,150,141,134,128,120,117,113,108,105,100,97],"timestamp_mouse":[9,29,49,68,87,107,127,147,167,187,207,227,248,267,287,307,327,348,367,388,408,427,448,467,487,507,527,547,567,589,607,627,649,667,687,707,727,748,767,788,808,828,848,867,888,907,927,948,967,988,1009,1028,1047,1067,1087,1107,1127,1147,1168,1188],"xSR":741.5,"ySR":469.95,"xT1":424.9,"yT1":0,"xT2":1058.1,"yT2":0,"toosoon":0,"cond_shown":"equaldotanddens","ratio_trial":500,"smaller_num":"6","larger_num":"12","correct_side":1,"subjID":"juanfelipeporrasduarte","gender":"0","age":"11","school":"6"},{"start_time":1551801483614,"click_time":1551801484675,"finger_time":1551801484474,"fix_duration":496.1239879850856,"trial":58,"RT":860,"MT":201,"sideResp":2,"stimulus":"img/750/equaldotsize/R/12_Ratio_750_L_3_R_4.png","xmouse":[790,790,790,790,790,790,790,790,790,790,790,790,790,790,790,790,790,790,790,790,790,790,790,790,790,790,790,790,790,790,790,790,790,790,790,790,790,790,790,790,795,804,829,882,910,933,953,1015,1064,1077,1088,1097,1104,1120],"ymouse":[526,526,526,526,526,526,526,526,526,526,526,526,526,526,526,526,526,526,526,526,526,526,526,526,526,526,526,526,526,526,526,526,526,526,526,526,526,526,526,526,525,510,470,395,356,325,297,204,148,137,127,122,116,96],"timestamp_mouse":[8,20,40,61,80,100,120,142,160,182,200,220,240,261,281,301,321,340,361,382,401,421,440,461,482,501,520,542,561,581,602,622,641,660,680,700,720,741,760,781,801,821,842,860,882,901,920,941,961,980,1001,1020,1040,1060],"xSR":741.5,"ySR":469.95,"xT1":424.9,"yT1":0,"xT2":1058.1,"yT2":0,"toosoon":0,"cond_shown":"equaldotsize","ratio_trial":750,"smaller_num":"3","larger_num":"4","correct_side":2,"subjID":"juanfelipeporrasduarte","gender":"0","age":"11","school":"6"},{"start_time":1551801486462,"click_time":1551801487294,"finger_time":1551801487134,"fix_duration":846.1430945263338,"trial":59,"RT":672,"MT":160,"sideResp":1,"stimulus":"img/500/equaldotanddens/L/7_Ratio_500_L_10_R_5.png","xmouse":[806,806,806,806,806,806,806,806,806,806,806,806,806,806,806,806,806,806,806,806,806,806,806,806,806,806,806,806,806,803,794,785,767,756,743,711,688,657,631,600,538,507],"ymouse":[529,529,529,529,529,529,529,529,529,529,529,529,529,529,529,529,529,529,529,529,529,529,529,529,529,529,529,529,529,524,515,504,485,468,448,403,365,324,281,239,140,68],"timestamp_mouse":[12,38,52,73,92,113,132,152,172,193,212,232,252,272,292,313,333,352,372,392,413,433,453,473,493,513,533,553,572,593,612,632,652,672,693,713,732,753,773,793,813,832],"xSR":741.5,"ySR":469.95,"xT1":424.9,"yT1":0,"xT2":1058.1,"yT2":0,"toosoon":0,"cond_shown":"equaldotanddens","ratio_trial":500,"smaller_num":"5","larger_num":"10","correct_side":1,"subjID":"juanfelipeporrasduarte","gender":"0","age":"11","school":"6"},{"start_time":1551801491181,"click_time":1551801491895,"finger_time":1551801491734,"fix_duration":1345.3329438455473,"trial":60,"RT":553,"MT":161,"sideResp":2,"stimulus":"img/750/equaldotanddens/R/4_Ratio_750_L_15_R_20.png","xmouse":[807,807,807,807,807,807,807,807,807,807,807,807,807,807,807,807,807,807,807,807,807,807,807,807,807,807,816,842,878,952,974,992,1007,1023,1055,1102],"ymouse":[508,508,508,508,508,508,508,508,508,508,508,508,508,508,508,508,508,508,508,508,508,508,508,508,508,508,499,479,453,380,338,295,255,212,136,42],"timestamp_mouse":[13,38,54,73,95,115,133,155,173,193,214,234,253,273,294,313,333,353,374,395,414,433,453,473,493,514,533,553,575,595,614,633,654,673,695,714],"xSR":741.5,"ySR":469.95,"xT1":424.9,"yT1":0,"xT2":1058.1,"yT2":0,"toosoon":0,"cond_shown":"equaldotanddens","ratio_trial":750,"smaller_num":"15","larger_num":"20","correct_side":2,"subjID":"juanfelipeporrasduarte","gender":"0","age":"11","school":"6"},{"start_time":1551801494063,"click_time":1551801494976,"finger_time":1551801494554,"fix_duration":1085.7585310567258,"trial":61,"RT":491,"MT":422,"sideResp":1,"stimulus":"img/250/randomdotsizeEA/L/3_Ratio_250_L_8_R_2.png","xmouse":[808,808,808,808,808,808,808,808,808,808,808,808,808,808,808,808,808,808,808,808,808,807,795,782,765,746,702,686,679,666,660,650,646,643,638,632,620,613,599,588,578,556,545,535,525,517],"ymouse":[542,542,542,542,542,542,542,542,542,542,542,542,542,542,542,542,542,542,542,542,542,523,497,470,427,382,303,276,265,242,230,214,208,203,197,190,174,166,149,135,126,107,98,89,80,74],"timestamp_mouse":[12,31,51,71,93,111,132,151,172,191,212,231,252,271,292,312,332,351,371,392,411,431,451,471,491,512,532,551,572,592,611,631,651,672,692,712,731,752,771,791,811,832,851,871,891,912],"xSR":741.5,"ySR":469.95,"xT1":424.9,"yT1":0,"xT2":1058.1,"yT2":0,"toosoon":0,"cond_shown":"randomdotsizeEA","ratio_trial":250,"smaller_num":"2","larger_num":"8","correct_side":1,"subjID":"juanfelipeporrasduarte","gender":"0","age":"11","school":"6"},{"start_time":1551801496677,"click_time":1551801499015,"finger_time":1551801498695,"fix_duration":781.6976041627316,"trial":62,"RT":2018,"MT":320,"sideResp":1,"stimulus":"img/750/equaldotanddens/L/9_Ratio_750_L_4_R_3.png","xmouse":[794,794,794,794,794,794,794,794,794,794,794,794,794,794,794,794,794,794,794,794,794,794,794,794,794,794,794,794,794,794,794,794,794,794,794,794,794,794,794,794,794,794,794,794,794,794,794,794,794,794,794,794,794,794,794,794,794,794,794,794,794,794,794,794,794,793,790,789,788,788,788,788,788,788,788,788,788,788,788,788,788,788,788,788,788,788,785,783,783,783,783,783,783,783,783,783,783,783,783,782,771,752,724,692,657,624,586,578,574,571,564,555,546,537,533,526,516],"ymouse":[521,521,521,521,521,521,521,521,521,521,521,521,521,521,521,521,521,521,521,521,521,521,521,521,521,521,521,521,521,521,521,521,521,521,521,521,521,521,521,521,521,521,521,521,521,521,521,521,521,521,521,521,521,521,521,521,521,521,521,521,521,521,521,519,518,513,508,507,504,503,503,503,503,503,503,503,503,503,503,503,503,503,503,503,503,503,500,498,498,498,498,498,498,498,498,498,498,498,498,496,467,424,374,320,269,224,169,159,154,151,144,134,124,115,111,104,93],"timestamp_mouse":[28,39,58,78,97,118,137,169,177,197,218,238,258,279,298,318,338,357,377,397,419,438,458,477,498,517,538,558,577,597,618,637,657,677,698,717,737,758,778,799,817,839,857,878,898,917,938,957,977,999,1019,1037,1057,1077,1098,1117,1137,1158,1177,1199,1217,1237,1259,1277,1297,1318,1337,1357,1377,1398,1418,1439,1457,1478,1497,1517,1537,1558,1577,1597,1617,1638,1658,1678,1697,1717,1738,1757,1777,1797,1818,1837,1857,1879,1898,1917,1938,1957,1979,1997,2018,2037,2057,2077,2098,2117,2137,2157,2178,2197,2218,2237,2257,2277,2299,2318,2338],"xSR":741.5,"ySR":469.95,"xT1":424.9,"yT1":0,"xT2":1058.1,"yT2":0,"toosoon":0,"cond_shown":"equaldotanddens","ratio_trial":750,"smaller_num":"3","larger_num":"4","correct_side":1,"subjID":"juanfelipeporrasduarte","gender":"0","age":"11","school":"6"},{"start_time":1551801504032,"click_time":1551801505232,"finger_time":1551801504713,"fix_duration":818.3066934938463,"trial":63,"RT":681,"MT":519,"sideResp":2,"stimulus":"img/500/equaldotanddens/R/6_Ratio_500_L_9_R_18.png","xmouse":[822,822,822,822,822,822,822,822,822,822,822,822,822,822,822,823,823,823,823,823,823,823,823,823,823,823,823,823,823,823,823,823,826,828,836,840,849,855,860,874,886,898,909,921,946,956,971,978,981,985,986,989,991,994,1001,1005,1013,1021,1037,1073,1094],"ymouse":[508,508,508,508,508,508,508,508,508,508,508,508,508,508,507,506,506,506,506,506,504,504,504,504,504,503,502,502,501,499,494,490,485,479,464,457,440,429,416,382,363,346,330,314,271,247,216,203,196,183,178,172,166,160,146,141,133,129,121,103,95],"timestamp_mouse":[8,20,41,61,81,102,121,142,161,181,200,221,241,260,281,300,322,340,361,381,401,421,441,461,481,502,521,540,561,580,601,620,641,660,681,702,720,741,762,781,800,822,841,861,881,901,921,941,960,981,1000,1021,1041,1060,1081,1102,1121,1141,1161,1181,1200],"xSR":741.5,"ySR":469.95,"xT1":424.9,"yT1":0,"xT2":1058.1,"yT2":0,"toosoon":0,"cond_shown":"equaldotanddens","ratio_trial":500,"smaller_num":"9","larger_num":"18","correct_side":2,"subjID":"juanfelipeporrasduarte","gender":"0","age":"11","school":"6"},{"start_time":1551801506543,"click_time":1551801507714,"finger_time":1551801507313,"fix_duration":568.2684357072878,"trial":64,"RT":770,"MT":401,"sideResp":1,"stimulus":"img/500/equaldotsize/L/8_Ratio_500_L_8_R_4.png","xmouse":[818,818,818,818,818,818,818,818,818,818,818,818,818,818,818,818,818,818,818,818,818,818,818,818,818,818,818,818,818,818,818,818,818,818,818,815,810,798,759,734,724,720,717,709,702,688,665,638,601,592,587,582,578,566,559,550,539,530,506],"ymouse":[509,509,509,509,509,509,509,509,509,509,509,509,509,509,509,509,509,509,509,509,509,509,509,509,509,509,509,509,509,509,509,509,509,509,509,507,501,488,449,424,414,410,404,383,361,328,283,245,193,181,175,170,165,152,143,134,120,109,81],"timestamp_mouse":[14,33,49,71,91,109,130,151,169,189,211,230,251,270,291,311,331,350,369,389,411,429,450,470,489,510,529,550,570,591,610,631,651,670,691,711,731,750,770,790,810,830,851,871,890,910,930,950,970,990,1010,1030,1050,1070,1090,1110,1130,1151,1170],"xSR":741.5,"ySR":469.95,"xT1":424.9,"yT1":0,"xT2":1058.1,"yT2":0,"toosoon":0,"cond_shown":"equaldotsize","ratio_trial":500,"smaller_num":"4","larger_num":"8","correct_side":1,"subjID":"juanfelipeporrasduarte","gender":"0","age":"11","school":"6"},{"start_time":1551801509438,"click_time":1551801510433,"finger_time":1551801510173,"fix_duration":1063.3666577171757,"trial":65,"RT":735,"MT":260,"sideResp":1,"stimulus":"img/750/randomdotsizeEA/L/13_Ratio_750_L_8_R_6.png","xmouse":[828,828,828,828,828,828,828,828,828,828,828,828,828,828,828,828,828,828,828,828,828,828,828,828,828,828,828,828,828,828,828,828,823,816,801,790,774,756,736,687,666,638,633,609,583,572,556,536,513,459],"ymouse":[534,534,534,534,534,534,534,534,534,534,534,534,534,534,534,534,534,534,534,534,534,534,534,534,534,534,534,534,534,534,533,528,519,507,486,471,453,432,403,336,306,258,246,208,177,167,157,143,126,86],"timestamp_mouse":[15,36,56,76,94,115,135,155,175,196,214,236,254,275,296,316,335,356,375,395,415,436,456,476,495,515,535,554,575,596,615,635,654,675,694,715,735,754,774,794,815,835,854,875,894,915,935,955,976,995],"xSR":741.5,"ySR":469.95,"xT1":424.9,"yT1":0,"xT2":1058.1,"yT2":0,"toosoon":0,"cond_shown":"randomdotsizeEA","ratio_trial":750,"smaller_num":"6","larger_num":"8","correct_side":1,"subjID":"juanfelipeporrasduarte","gender":"0","age":"11","school":"6"},{"start_time":1551801512110,"click_time":1551801513093,"finger_time":1551801512833,"fix_duration":915.1433028684518,"trial":66,"RT":723,"MT":260,"sideResp":2,"stimulus":"img/500/equaldotsize/R/14_Ratio_500_L_5_R_10.png","xmouse":[795,795,795,795,795,795,795,795,795,795,795,795,795,795,795,795,795,795,795,795,795,795,795,795,795,795,795,795,795,795,795,795,795,798,806,826,915,983,1067,1113,1149,1171,1172,1173,1173,1173,1173,1168,1152,1136],"ymouse":[514,514,514,514,514,514,514,514,514,514,514,514,514,514,514,514,514,514,514,514,514,514,514,514,514,514,514,514,514,514,514,514,514,511,503,486,409,347,269,218,185,164,162,162,162,162,154,142,112,84],"timestamp_mouse":[8,32,43,63,83,103,124,144,162,184,203,223,243,264,284,303,323,342,363,382,404,423,443,464,483,503,523,542,564,583,603,622,644,663,683,703,723,743,763,783,803,822,843,863,884,903,923,944,963,983],"xSR":741.5,"ySR":469.95,"xT1":424.9,"yT1":0,"xT2":1058.1,"yT2":0,"toosoon":0,"cond_shown":"equaldotsize","ratio_trial":500,"smaller_num":"5","larger_num":"10","correct_side":2,"subjID":"juanfelipeporrasduarte","gender":"0","age":"11","school":"6"},{"start_time":1551801518804,"click_time":1551801520092,"finger_time":1551801519573,"fix_duration":250,"trial":67,"RT":769,"MT":519,"sideResp":1,"stimulus":"img/250/equaldotsize/L/3_Ratio_250_L_8_R_2.png","xmouse":[798,798,798,798,798,798,798,798,798,798,798,798,798,798,798,798,798,798,798,798,798,798,798,798,798,798,798,798,798,798,794,789,782,781,779,776,770,753,741,730,719,698,666,651,636,620,606,587,580,575,569,562,550,545,539,535,533,528,525,520,517,515,513,510,509],"ymouse":[520,520,520,520,520,520,520,520,520,520,520,520,520,520,520,520,520,520,520,520,520,520,520,520,520,520,520,520,520,520,515,509,501,499,498,494,488,470,459,448,435,407,365,345,328,309,293,271,262,254,247,237,222,214,206,199,193,181,172,152,138,125,106,100,97],"timestamp_mouse":[10,28,49,69,89,109,130,148,168,190,209,228,250,270,290,310,330,349,369,389,409,429,449,469,489,508,528,549,569,588,609,629,648,669,689,709,729,749,769,789,809,829,848,868,889,908,929,949,970,989,1010,1029,1048,1069,1089,1109,1130,1148,1169,1189,1208,1230,1249,1269,1288],"xSR":741.5,"ySR":469.95,"xT1":424.9,"yT1":0,"xT2":1058.1,"yT2":0,"toosoon":0,"cond_shown":"equaldotsize","ratio_trial":250,"smaller_num":"2","larger_num":"8","correct_side":1,"subjID":"juanfelipeporrasduarte","gender":"0","age":"11","school":"6"},{"start_time":1551801535877,"click_time":1551801542973,"finger_time":1551801542593,"fix_duration":301.0754127232585,"trial":68,"RT":6716,"MT":380,"sideResp":2,"stimulus":"img/900/equaldotanddens/R/13_Ratio_900_L_18_R_20.png","xmouse":[809,809,809,809,809,809,809,809,809,809,809,809,809,809,809,809,809,809,809,809,809,809,809,809,809,809,809,809,809,809,809,809,809,809,809,809,809,809,809,809,809,809,809,809,809,809,809,809,809,809,809,809,809,809,809,809,809,809,809,809,809,809,809,809,809,809,809,809,809,809,809,809,809,809,809,809,809,809,809,809,809,809,809,809,809,809,809,809,809,809,809,809,809,809,809,809,809,809,809,809,809,809,809,809,809,809,809,809,809,809,809,809,809,809,809,809,809,809,809,809,809,809,809,809,809,809,809,809,809,809,809,809,809,809,809,809,809,809,809,809,809,809,809,809,809,809,809,809,809,809,809,809,809,809,809,809,809,809,809,809,809,809,809,809,809,809,809,809,809,809,809,809,809,809,809,809,809,809,809,809,809,809,809,809,809,809,809,809,809,809,809,809,809,809,809,809,809,809,809,809,809,809,8