[{"start_time":1551880609810,"click_time":1551880615477,"finger_time":1551880609819,"fix_duration":1008.414407201834,"trial":0,"RT":9,"MT":5658,"sideResp":2,"stimulus":[],"xmouse":[781,781,781,781,781,781,781,781,781,781,781,781,781,781,781,781,781,781,781,781,781,781,781,781,781,781,781,781,781,781,781,781,781,781,781,781,781,780,780,780,780,780,780,780,780,780,780,780,780,780,780,780,780,780,780,780,780,780,779,779,782,788,790,792,792,792,792,792,792,792,792,792,792,792,792,792,792,792,792,792,792,792,792,792,792,792,792,792,792,792,792,792,792,792,792,792,792,792,792,792,792,792,792,792,792,792,792,792,792,792,792,792,792,792,792,792,792,792,792,792,792,792,792,792,792,792,792,792,792,792,792,792,792,792,792,792,792,792,792,792,792,792,792,792,792,792,792,792,792,792,792,792,792,792,792,792,792,792,792,792,792,792,792,792,792,792,792,792,792,792,792,791,791,791,791,791,791,791,791,791,791,791,791,791,791,791,791,791,791,791,791,791,791,791,791,791,791,791,791,791,791,791,791,791,791,791,791,791,791,791,791,792,792,792,792,792,792,792,792,792,792,792,792,792,792,792,792,792,792,792,792,792,792,792,792,792,792,792,792,792,792,792,792,792,792,792,792,792,792,792,792,793,794,801,806,816,834,854,874,879,884,892,903,925,936,945,953,961,974,980,988,998,1005,1015,1017,1018,1021,1023,1040,1050,1052,1055,1058,1060],"ymouse":[496,496,496,496,496,496,496,496,496,497,497,497,497,497,497,497,497,497,497,497,497,497,497,497,498,498,498,499,499,499,499,499,499,499,499,499,499,499,499,499,499,499,499,499,499,499,499,499,499,499,499,499,500,503,505,507,512,519,542,554,568,586,595,600,600,601,601,601,601,601,601,601,602,602,602,602,602,602,602,602,602,602,602,602,602,602,602,602,602,602,602,603,603,604,604,604,604,605,605,606,606,607,608,608,608,608,608,608,608,608,608,608,608,608,608,609,610,612,613,614,615,617,617,618,619,619,620,620,620,620,621,621,621,621,622,622,622,623,623,623,623,623,623,623,623,623,623,623,623,623,623,623,623,623,623,623,623,623,623,623,623,623,623,623,623,623,623,623,623,623,623,621,621,620,620,620,620,620,620,620,620,620,620,620,620,620,620,620,620,620,620,620,620,620,620,620,620,620,620,620,620,618,618,618,618,618,617,617,617,617,618,619,619,620,621,621,621,621,621,621,621,621,621,621,621,621,621,621,621,621,621,622,622,622,623,623,623,623,623,623,623,623,623,623,623,623,623,623,623,623,623,623,622,611,592,563,512,466,427,417,405,391,376,348,331,316,297,274,202,158,116,87,70,55,54,53,52,52,54,59,60,63,65,66],"timestamp_mouse":[8,27,47,67,88,107,127,147,167,188,207,227,247,267,287,308,327,347,367,387,408,427,447,466,488,508,527,548,568,588,606,627,647,667,688,707,728,747,767,786,808,827,847,867,887,908,928,947,967,987,1007,1027,1047,1067,1087,1108,1127,1147,1168,1187,1207,1227,1247,1267,1287,1306,1327,1348,1367,1388,1407,1427,1448,1468,1487,1508,1527,1547,1568,1588,1608,1628,1648,1668,1688,1708,1727,1747,1767,1788,1807,1827,1848,1867,1887,1907,1927,1947,1968,1987,2007,2028,2047,2067,2088,2107,2127,2147,2168,2187,2207,2227,2247,2267,2287,2307,2327,2347,2368,2388,2408,2428,2448,2468,2487,2507,2528,2547,2567,2587,2607,2628,2647,2667,2687,2707,2728,2747,2767,2786,2807,2828,2848,2867,2888,2907,2927,2948,2967,2987,3008,3028,3047,3068,3086,3108,3127,3147,3167,3187,3208,3228,3247,3266,3288,3308,3326,3347,3368,3388,3407,3427,3447,3467,3487,3507,3527,3547,3568,3587,3607,3628,3648,3667,3687,3708,3727,3747,3767,3788,3806,3827,3847,3866,3888,3907,3927,3947,3967,3988,4007,4027,4048,4068,4088,4107,4128,4148,4168,4187,4207,4227,4246,4267,4287,4308,4327,4348,4367,4388,4407,4428,4447,4468,4487,4508,4528,4548,4567,4588,4606,4627,4647,4667,4687,4708,4727,4748,4767,4787,4808,4827,4847,4867,4886,4907,4927,4947,4968,4987,5007,5028,5047,5068,5087,5107,5127,5147,5167,5188,5207,5227,5247,5268,5287,5307,5327,5348,5368,5388,5407,5428,5447,5468,5488,5506,5528,5547,5567,5588,5607,5628,5647,5666],"xSR":741.5,"ySR":458.25,"xT1":424.9,"yT1":0,"xT2":1058.1,"yT2":0,"toosoon":0,"cond_shown":"Congruent","ratio_trial":300,"L_num":20,"L_den":25,"R_num":5,"R_den":10,"correct_side":1,"subjID":"Juan Fernando Martinez Aguilera 6","gender":"0","age":"11","school":"0","test":{"fix_dur":[250,1500],"timestim":1000,"targets_dim":[100,100],"targets_relative_coord":[0.3,0.7],"size_stim":[880,420],"start_dim":[100,100],"size_start":[300,300],"size_fix":60,"samplingrate":20,"img_types":["Congruent","Incongruent"],"ratios":[100,200,300],"rep_conds":19,"nTrials":120,"trials_to_rest":500,"Trials_order":[118,82,54,25,37,46,59,83,98,18,36,74,81,73,21,100,50,55,61,6,92,23,26,117,20,87,75,14,39,64,72,7,78,45,107,113,35,12,76,119,99,15,13,79,85,91,8,68,31,57,102,0,116,48,22,2,95,27,9,77,32,106,28,11,109,96,111,5,69,43,40,1,88,89,60,101,71,112,90,104,84,110,70,49,38,66,115,42,51,17,105,44,56,10,94,30,29,16,65,53,52,62,4,114,86,34,93,63,67,33,97,80,103,108,3,24,58,41,19,47],"cond_shown":["Congruent","Congruent","Congruent","Incongruent","Incongruent","Congruent","Incongruent","Incongruent","Congruent","Congruent","Congruent","Congruent","Incongruent","Incongruent","Incongruent","Congruent","Congruent","Incongruent","Incongruent","Congruent","Congruent","Incongruent","Congruent","Incongruent","Congruent","Incongruent","Incongruent","Congruent","Incongruent","Congruent","Congruent","Incongruent","Congruent","Incongruent","Incongruent","Incongruent","Incongruent","Congruent","Congruent","Incongruent","Incongruent","Incongruent","Incongruent","Incongruent","Incongruent","Incongruent","Congruent","Congruent","Incongruent","Incongruent","Congruent","Congruent","Congruent","Congruent","Congruent","Congruent","Incongruent","Incongruent","Incongruent","Incongruent","Congruent","Congruent","Congruent","Incongruent","Incongruent","Congruent","Incongruent","Incongruent","Incongruent","Incongruent","Congruent","Incongruent","Congruent","Incongruent","Congruent","Incongruent","Incongruent","Congruent","Congruent","Congruent","Congruent","Congruent","Congruent","Incongruent","Congruent","Congruent","Incongruent","Congruent","Incongruent","Incongruent","Incongruent","Congruent","Congruent","Congruent","Congruent","Congruent","Incongruent","Congruent","Incongruent","Incongruent","Congruent","Congruent","Congruent","Congruent","Congruent","Congruent","Incongruent","Incongruent","Incongruent","Incongruent","Incongruent","Congruent","Incongruent","Congruent","Incongruent","Congruent","Congruent","Incongruent","Incongruent","Incongruent"],"ratio_trial":[300,300,100,100,100,300,300,300,200,100,100,200,200,100,200,300,200,100,100,100,200,300,200,200,200,200,200,200,200,300,100,100,100,200,300,300,300,100,300,300,200,200,100,100,100,100,200,200,100,200,100,100,200,100,300,200,300,200,200,300,200,300,300,300,100,100,200,300,200,100,300,100,300,300,100,300,300,300,100,200,100,200,300,100,200,100,100,100,200,300,200,200,200,300,300,100,300,300,300,300,300,200,300,100,200,300,200,200,100,200,100,200,100,100,200,100,300,300,100,300],"left_num":[20,11,11,3,9,4,4,2,12,12,3,20,1,12,7,9,8,2,1,11,6,13,6,14,6,7,1,1,6,20,11,6,1,11,13,1,8,3,20,3,3,4,6,12,2,4,7,14,8,7,4,9,21,11,1,12,13,14,7,4,8,24,4,4,8,6,7,4,4,8,8,13,1,13,2,1,3,1,8,3,9,9,20,3,16,12,10,7,7,2,7,8,11,1,20,8,1,1,3,8,1,12,5,1,6,7,4,7,9,3,1,7,3,6,7,3,11,13,3,4],"right_num":[5,2,4,8,6,2,2,6,6,13,4,9,3,9,8,3,7,6,8,6,11,12,11,6,3,12,2,21,3,8,4,3,18,3,12,2,9,4,14,4,11,14,7,2,6,8,18,6,1,4,6,8,2,6,8,6,12,12,8,2,7,2,1,2,6,5,4,8,14,6,10,12,8,12,11,3,4,19,2,14,8,13,8,8,12,13,9,15,4,6,14,3,3,3,13,2,3,7,4,14,11,6,7,18,7,20,14,12,14,11,8,18,4,5,4,4,1,12,11,2],"left_den":[25,22,22,5,18,5,20,4,20,30,20,25,2,24,10,10,15,4,2,22,20,26,20,30,15,10,3,2,20,25,22,12,2,20,26,2,10,20,25,6,4,6,10,30,4,8,15,28,20,15,8,15,30,22,30,20,26,30,10,20,15,30,10,20,16,20,15,5,6,16,15,26,30,26,5,2,6,3,16,6,15,30,25,5,20,30,25,14,15,4,10,15,22,5,25,16,2,20,6,10,5,15,25,2,12,14,6,10,15,4,2,15,6,20,15,20,22,26,5,20],"right_den":[10,10,10,16,10,4,4,30,15,26,16,15,10,15,16,5,21,15,20,15,22,15,22,9,15,24,15,30,6,16,10,5,30,4,15,10,18,16,28,20,20,30,14,4,15,20,27,20,2,6,10,16,4,15,24,15,15,18,16,4,21,4,10,4,10,25,6,16,30,10,12,20,24,15,22,15,20,30,5,20,16,26,16,16,20,26,18,25,6,30,28,9,10,6,26,5,15,20,20,28,22,10,14,30,10,25,30,24,28,20,20,27,10,25,6,16,5,15,22,4],"correct_side":[1,1,1,1,2,1,2,1,1,2,2,1,1,2,1,1,1,1,1,1,2,2,2,2,1,1,1,2,2,1,1,2,2,2,2,1,1,2,1,1,1,1,1,2,1,1,2,1,2,2,2,1,1,1,2,1,2,2,1,2,1,1,1,2,2,1,2,1,1,2,2,2,2,2,2,1,1,2,1,2,1,2,1,1,1,2,2,2,2,1,1,1,1,2,1,1,1,2,1,1,2,1,2,2,2,2,1,1,1,1,1,2,1,1,2,2,1,2,1,2],"img_shown":["img2/300/Congruent/L/C_Dist_300_LN_20_LD_25_RN_5_RD_10_0.png","img2/300/Congruent/L/C_Dist_300_LN_11_LD_22_RN_2_RD_10_0.png","img2/100/Congruent/L/C_Dist_100_LN_11_LD_22_RN_4_RD_10_0.png","img2/100/Incongruent/L/I_Dist_100_LN_3_LD_5_RN_8_RD_16_0.png","img2/100/Incongruent/R/I_Dist_100_LN_9_LD_18_RN_6_RD_10_1.png","img2/300/Congruent/L/C_Dist_300_LN_4_LD_5_RN_2_RD_4_0.png","img2/300/Incongruent/R/I_Dist_300_LN_4_LD_20_RN_2_RD_4_1.png","img2/300/Incongruent/L/I_Dist_300_LN_2_LD_4_RN_6_RD_30_0.png","img2/200/Congruent/L/C_Dist_200_LN_12_LD_20_RN_6_RD_15_0.png","img2/100/Congruent/R/C_Dist_100_LN_12_LD_30_RN_13_RD_26_1.png","img2/100/Congruent/R/C_Dist_100_LN_3_LD_20_RN_4_RD_16_1.png","img2/200/Congruent/L/C_Dist_200_LN_20_LD_25_RN_9_RD_15_0.png","img2/200/Incongruent/L/I_Dist_200_LN_1_LD_2_RN_3_RD_10_0.png","img2/100/Incongruent/R/I_Dist_100_LN_12_LD_24_RN_9_RD_15_1.png","img2/200/Incongruent/L/I_Dist_200_LN_7_LD_10_RN_8_RD_16_0.png","img2/300/Congruent/L/C_Dist_300_LN_9_LD_10_RN_3_RD_5_0.png","img2/200/Congruent/L/C_Dist_200_LN_8_LD_15_RN_7_RD_21_0.png","img2/100/Incongruent/L/I_Dist_100_LN_2_LD_4_RN_6_RD_15_0.png","img2/100/Incongruent/L/I_Dist_100_LN_1_LD_2_RN_8_RD_20_0.png","img2/100/Congruent/L/C_Dist_100_LN_11_LD_22_RN_6_RD_15_0.png","img2/200/Congruent/R/C_Dist_200_LN_6_LD_20_RN_11_RD_22_1.png","img2/300/Incongruent/R/I_Dist_300_LN_13_LD_26_RN_12_RD_15_1.png","img2/200/Congruent/R/C_Dist_200_LN_6_LD_20_RN_11_RD_22_1.png","img2/200/Incongruent/R/I_Dist_200_LN_14_LD_30_RN_6_RD_9_1.png","img2/200/Congruent/L/C_Dist_200_LN_6_LD_15_RN_3_RD_15_0.png","img2/200/Incongruent/L/I_Dist_200_LN_7_LD_10_RN_12_RD_24_0.png","img2/200/Incongruent/L/I_Dist_200_LN_1_LD_3_RN_2_RD_15_0.png","img2/200/Congruent/R/C_Dist_200_LN_1_LD_2_RN_21_RD_30_1.png","img2/200/Incongruent/R/I_Dist_200_LN_6_LD_20_RN_3_RD_6_1.png","img2/300/Congruent/L/C_Dist_300_LN_20_LD_25_RN_8_RD_16_0.png","img2/100/Congruent/L/C_Dist_100_LN_11_LD_22_RN_4_RD_10_0.png","img2/100/Incongruent/R/I_Dist_100_LN_6_LD_12_RN_3_RD_5_1.png","img2/100/Congruent/R/C_Dist_100_LN_1_LD_2_RN_18_RD_30_1.png","img2/200/Incongruent/R/I_Dist_200_LN_11_LD_20_RN_3_RD_4_1.png","img2/300/Incongruent/R/I_Dist_300_LN_13_LD_26_RN_12_RD_15_1.png","img2/300/Incongruent/L/I_Dist_300_LN_1_LD_2_RN_2_RD_10_0.png","img2/300/Incongruent/L/I_Dist_300_LN_8_LD_10_RN_9_RD_18_0.png","img2/100/Congruent/R/C_Dist_100_LN_3_LD_20_RN_4_RD_16_1.png","img2/300/Congruent/L/C_Dist_300_LN_20_LD_25_RN_14_RD_28_0.png","img2/300/Incongruent/L/I_Dist_300_LN_3_LD_6_RN_4_RD_20_0.png","img2/200/Incongruent/L/I_Dist_200_LN_3_LD_4_RN_11_RD_20_0.png","img2/200/Incongruent/L/I_Dist_200_LN_4_LD_6_RN_14_RD_30_0.png","img2/100/Incongruent/L/I_Dist_100_LN_6_LD_10_RN_7_RD_14_0.png","img2/100/Incongruent/R/I_Dist_100_LN_12_LD_30_RN_2_RD_4_1.png","img2/100/Incongruent/L/I_Dist_100_LN_2_LD_4_RN_6_RD_15_0.png","img2/100/Incongruent/L/I_Dist_100_LN_4_LD_8_RN_8_RD_20_0.png","img2/200/Congruent/R/C_Dist_200_LN_7_LD_15_RN_18_RD_27_1.png","img2/200/Congruent/L/C_Dist_200_LN_14_LD_28_RN_6_RD_20_0.png","img2/100/Incongruent/R/I_Dist_100_LN_8_LD_20_RN_1_RD_2_1.png","img2/200/Incongruent/R/I_Dist_200_LN_7_LD_15_RN_4_RD_6_1.png","img2/100/Congruent/R/C_Dist_100_LN_4_LD_8_RN_6_RD_10_1.png","img2/100/Congruent/L/C_Dist_100_LN_9_LD_15_RN_8_RD_16_0.png","img2/200/Congruent/L/C_Dist_200_LN_21_LD_30_RN_2_RD_4_0.png","img2/100/Congruent/L/C_Dist_100_LN_11_LD_22_RN_6_RD_15_0.png","img2/300/Congruent/R/C_Dist_300_LN_1_LD_30_RN_8_RD_24_1.png","img2/200/Congruent/L/C_Dist_200_LN_12_LD_20_RN_6_RD_15_0.png","img2/300/Incongruent/R/I_Dist_300_LN_13_LD_26_RN_12_RD_15_1.png","img2/200/Incongruent/R/I_Dist_200_LN_14_LD_30_RN_12_RD_18_1.png","img2/200/Incongruent/L/I_Dist_200_LN_7_LD_10_RN_8_RD_16_0.png","img2/300/Incongruent/R/I_Dist_300_LN_4_LD_20_RN_2_RD_4_1.png","img2/200/Congruent/L/C_Dist_200_LN_8_LD_15_RN_7_RD_21_0.png","img2/300/Congruent/L/C_Dist_300_LN_24_LD_30_RN_2_RD_4_0.png","img2/300/Congruent/L/C_Dist_300_LN_4_LD_10_RN_1_RD_10_0.png","img2/300/Incongruent/R/I_Dist_300_LN_4_LD_20_RN_2_RD_4_1.png","img2/100/Incongruent/R/I_Dist_100_LN_8_LD_16_RN_6_RD_10_1.png","img2/100/Congruent/L/C_Dist_100_LN_6_LD_20_RN_5_RD_25_0.png","img2/200/Incongruent/R/I_Dist_200_LN_7_LD_15_RN_4_RD_6_1.png","img2/300/Incongruent/L/I_Dist_300_LN_4_LD_5_RN_8_RD_16_0.png","img2/200/Incongruent/L/I_Dist_200_LN_4_LD_6_RN_14_RD_30_0.png","img2/100/Incongruent/R/I_Dist_100_LN_8_LD_16_RN_6_RD_10_1.png","img2/300/Congruent/R/C_Dist_300_LN_8_LD_15_RN_10_RD_12_1.png","img2/100/Incongruent/R/I_Dist_100_LN_13_LD_26_RN_12_RD_20_1.png","img2/300/Congruent/R/C_Dist_300_LN_1_LD_30_RN_8_RD_24_1.png","img2/300/Incongruent/R/I_Dist_300_LN_13_LD_26_RN_12_RD_15_1.png","img2/100/Congruent/R/C_Dist_100_LN_2_LD_5_RN_11_RD_22_1.png","img2/300/Incongruent/L/I_Dist_300_LN_1_LD_2_RN_3_RD_15_0.png","img2/300/Incongruent/L/I_Dist_300_LN_3_LD_6_RN_4_RD_20_0.png","img2/300/Congruent/R/C_Dist_300_LN_1_LD_3_RN_19_RD_30_1.png","img2/100/Congruent/L/C_Dist_100_LN_8_LD_16_RN_2_RD_5_0.png","img2/200/Congruent/R/C_Dist_200_LN_3_LD_6_RN_14_RD_20_1.png","img2/100/Congruent/L/C_Dist_100_LN_9_LD_15_RN_8_RD_16_0.png","img2/200/Congruent/R/C_Dist_200_LN_9_LD_30_RN_13_RD_26_1.png","img2/300/Congruent/L/C_Dist_300_LN_20_LD_25_RN_8_RD_16_0.png","img2/100/Incongruent/L/I_Dist_100_LN_3_LD_5_RN_8_RD_16_0.png","img2/200/Congruent/L/C_Dist_200_LN_16_LD_20_RN_12_RD_20_0.png","img2/100/Congruent/R/C_Dist_100_LN_12_LD_30_RN_13_RD_26_1.png","img2/100/Incongruent/R/I_Dist_100_LN_10_LD_25_RN_9_RD_18_1.png","img2/100/Congruent/R/C_Dist_100_LN_7_LD_14_RN_15_RD_25_1.png","img2/200/Incongruent/R/I_Dist_200_LN_7_LD_15_RN_4_RD_6_1.png","img2/300/Incongruent/L/I_Dist_300_LN_2_LD_4_RN_6_RD_30_0.png","img2/200/Incongruent/L/I_Dist_200_LN_7_LD_10_RN_14_RD_28_0.png","img2/200/Congruent/L/C_Dist_200_LN_8_LD_15_RN_3_RD_9_0.png","img2/200/Congruent/L/C_Dist_200_LN_11_LD_22_RN_3_RD_10_0.png","img2/300/Congruent/R/C_Dist_300_LN_1_LD_5_RN_3_RD_6_1.png","img2/300/Congruent/L/C_Dist_300_LN_20_LD_25_RN_13_RD_26_0.png","img2/100/Congruent/L/C_Dist_100_LN_8_LD_16_RN_2_RD_5_0.png","img2/300/Incongruent/L/I_Dist_300_LN_1_LD_2_RN_3_RD_15_0.png","img2/300/Congruent/R/C_Dist_300_LN_1_LD_20_RN_7_RD_20_1.png","img2/300/Incongruent/L/I_Dist_300_LN_3_LD_6_RN_4_RD_20_0.png","img2/300/Incongruent/L/I_Dist_300_LN_8_LD_10_RN_14_RD_28_0.png","img2/300/Congruent/R/C_Dist_300_LN_1_LD_5_RN_11_RD_22_1.png","img2/200/Congruent/L/C_Dist_200_LN_12_LD_15_RN_6_RD_10_0.png","img2/300/Congruent/R/C_Dist_300_LN_5_LD_25_RN_7_RD_14_1.png","img2/100/Congruent/R/C_Dist_100_LN_1_LD_2_RN_18_RD_30_1.png","img2/200/Congruent/R/C_Dist_200_LN_6_LD_12_RN_7_RD_10_1.png","img2/300/Congruent/R/C_Dist_300_LN_7_LD_14_RN_20_RD_25_1.png","img2/200/Incongruent/L/I_Dist_200_LN_4_LD_6_RN_14_RD_30_0.png","img2/200/Incongruent/L/I_Dist_200_LN_7_LD_10_RN_12_RD_24_0.png","img2/100/Incongruent/L/I_Dist_100_LN_9_LD_15_RN_14_RD_28_0.png","img2/200/Incongruent/L/I_Dist_200_LN_3_LD_4_RN_11_RD_20_0.png","img2/100/Incongruent/L/I_Dist_100_LN_1_LD_2_RN_8_RD_20_0.png","img2/200/Congruent/R/C_Dist_200_LN_7_LD_15_RN_18_RD_27_1.png","img2/100/Incongruent/L/I_Dist_100_LN_3_LD_6_RN_4_RD_10_0.png","img2/100/Congruent/L/C_Dist_100_LN_6_LD_20_RN_5_RD_25_0.png","img2/200/Incongruent/R/I_Dist_200_LN_7_LD_15_RN_4_RD_6_1.png","img2/100/Congruent/R/C_Dist_100_LN_3_LD_20_RN_4_RD_16_1.png","img2/300/Congruent/L/C_Dist_300_LN_11_LD_22_RN_1_RD_5_0.png","img2/300/Incongruent/R/I_Dist_300_LN_13_LD_26_RN_12_RD_15_1.png","img2/100/Incongruent/L/I_Dist_100_LN_3_LD_5_RN_11_RD_22_0.png","img2/300/Incongruent/R/I_Dist_300_LN_4_LD_20_RN_2_RD_4_1.png"],"dist100_C":[["C_Dist_100_LN_10_LD_25_RN_3_RD_10_0.png","C_Dist_100_LN_11_LD_22_RN_4_RD_10_0.png","C_Dist_100_LN_11_LD_22_RN_6_RD_15_0.png","C_Dist_100_LN_15_LD_25_RN_13_RD_26_0.png","C_Dist_100_LN_3_LD_6_RN_2_RD_5_0.png","C_Dist_100_LN_6_LD_20_RN_5_RD_25_0.png","C_Dist_100_LN_8_LD_16_RN_2_RD_5_0.png","C_Dist_100_LN_9_LD_15_RN_8_RD_16_0.png"],["C_Dist_100_LN_1_LD_2_RN_18_RD_30_1.png","C_Dist_100_LN_1_LD_2_RN_3_RD_5_1.png","C_Dist_100_LN_12_LD_30_RN_13_RD_26_1.png","C_Dist_100_LN_2_LD_5_RN_11_RD_22_1.png","C_Dist_100_LN_2_LD_5_RN_6_RD_12_1.png","C_Dist_100_LN_3_LD_20_RN_4_RD_16_1.png","C_Dist_100_LN_4_LD_10_RN_15_RD_30_1.png","C_Dist_100_LN_4_LD_8_RN_6_RD_10_1.png","C_Dist_100_LN_6_LD_12_RN_15_RD_25_1.png","C_Dist_100_LN_7_LD_14_RN_15_RD_25_1.png","C_Dist_100_LN_7_LD_14_RN_9_RD_15_1.png"]],"dist100_I":[["I_Dist_100_LN_1_LD_2_RN_8_RD_20_0.png","I_Dist_100_LN_2_LD_4_RN_6_RD_15_0.png","I_Dist_100_LN_2_LD_4_RN_8_RD_20_0.png","I_Dist_100_LN_3_LD_5_RN_11_RD_22_0.png","I_Dist_100_LN_3_LD_5_RN_8_RD_16_0.png","I_Dist_100_LN_3_LD_6_RN_4_RD_10_0.png","I_Dist_100_LN_3_LD_9_RN_7_RD_30_0.png","I_Dist_100_LN_4_LD_8_RN_8_RD_20_0.png","I_Dist_100_LN_6_LD_10_RN_11_RD_22_0.png","I_Dist_100_LN_6_LD_10_RN_13_RD_26_0.png","I_Dist_100_LN_6_LD_10_RN_7_RD_14_0.png","I_Dist_100_LN_9_LD_10_RN_20_RD_25_0.png","I_Dist_100_LN_9_LD_15_RN_13_RD_26_0.png","I_Dist_100_LN_9_LD_15_RN_14_RD_28_0.png"],["I_Dist_100_LN_10_LD_25_RN_8_RD_16_1.png","I_Dist_100_LN_10_LD_25_RN_9_RD_18_1.png","I_Dist_100_LN_11_LD_22_RN_9_RD_15_1.png","I_Dist_100_LN_12_LD_24_RN_9_RD_15_1.png","I_Dist_100_LN_12_LD_30_RN_2_RD_4_1.png","I_Dist_100_LN_13_LD_26_RN_12_RD_20_1.png","I_Dist_100_LN_13_LD_26_RN_6_RD_10_1.png","I_Dist_100_LN_17_LD_30_RN_10_RD_15_1.png","I_Dist_100_LN_6_LD_12_RN_3_RD_5_1.png","I_Dist_100_LN_8_LD_16_RN_6_RD_10_1.png","I_Dist_100_LN_8_LD_20_RN_1_RD_2_1.png","I_Dist_100_LN_9_LD_18_RN_6_RD_10_1.png"]],"dist100_S":[["E_Dist_100_LN_2_LD_12_RN_2_RD_30_0.png","E_Dist_100_LN_6_LD_10_RN_6_RD_12_0.png"],["E_Dist_100_LN_6_LD_12_RN_6_RD_10_1.png"]],"dist200_C":[["C_Dist_200_LN_11_LD_22_RN_3_RD_10_0.png","C_Dist_200_LN_12_LD_15_RN_6_RD_10_0.png","C_Dist_200_LN_12_LD_20_RN_6_RD_15_0.png","C_Dist_200_LN_14_LD_28_RN_6_RD_20_0.png","C_Dist_200_LN_15_LD_25_RN_4_RD_10_0.png","C_Dist_200_LN_16_LD_20_RN_12_RD_20_0.png","C_Dist_200_LN_16_LD_30_RN_9_RD_27_0.png","C_Dist_200_LN_20_LD_25_RN_9_RD_15_0.png","C_Dist_200_LN_21_LD_30_RN_2_RD_4_0.png","C_Dist_200_LN_4_LD_10_RN_3_RD_15_0.png","C_Dist_200_LN_4_LD_8_RN_3_RD_10_0.png","C_Dist_200_LN_6_LD_15_RN_3_RD_15_0.png","C_Dist_200_LN_7_LD_21_RN_2_RD_15_0.png","C_Dist_200_LN_8_LD_15_RN_2_RD_6_0.png","C_Dist_200_LN_8_LD_15_RN_3_RD_9_0.png","C_Dist_200_LN_8_LD_15_RN_7_RD_21_0.png","C_Dist_200_LN_9_LD_20_RN_4_RD_16_0.png"],["C_Dist_200_LN_1_LD_2_RN_21_RD_30_1.png","C_Dist_200_LN_13_LD_26_RN_14_RD_20_1.png","C_Dist_200_LN_3_LD_10_RN_11_RD_22_1.png","C_Dist_200_LN_3_LD_10_RN_14_RD_28_1.png","C_Dist_200_LN_3_LD_10_RN_7_RD_14_1.png","C_Dist_200_LN_3_LD_12_RN_9_RD_20_1.png","C_Dist_200_LN_3_LD_6_RN_14_RD_20_1.png","C_Dist_200_LN_5_LD_10_RN_14_RD_20_1.png","C_Dist_200_LN_6_LD_12_RN_7_RD_10_1.png","C_Dist_200_LN_6_LD_20_RN_11_RD_22_1.png","C_Dist_200_LN_7_LD_15_RN_18_RD_27_1.png","C_Dist_200_LN_9_LD_30_RN_13_RD_26_1.png"]],"dist200_I":[["I_Dist_200_LN_1_LD_2_RN_3_RD_10_0.png","I_Dist_200_LN_1_LD_3_RN_2_RD_15_0.png","I_Dist_200_LN_3_LD_4_RN_11_RD_20_0.png","I_Dist_200_LN_4_LD_5_RN_6_RD_10_0.png","I_Dist_200_LN_4_LD_6_RN_14_RD_30_0.png","I_Dist_200_LN_7_LD_10_RN_12_RD_24_0.png","I_Dist_200_LN_7_LD_10_RN_14_RD_28_0.png","I_Dist_200_LN_7_LD_10_RN_8_RD_16_0.png"],["I_Dist_200_LN_11_LD_20_RN_3_RD_4_1.png","I_Dist_200_LN_14_LD_30_RN_12_RD_18_1.png","I_Dist_200_LN_14_LD_30_RN_6_RD_9_1.png","I_Dist_200_LN_3_LD_10_RN_1_RD_2_1.png","I_Dist_200_LN_4_LD_30_RN_1_RD_3_1.png","I_Dist_200_LN_6_LD_20_RN_3_RD_6_1.png","I_Dist_200_LN_7_LD_15_RN_4_RD_6_1.png","I_Dist_200_LN_7_LD_15_RN_6_RD_9_1.png","I_Dist_200_LN_9_LD_15_RN_8_RD_10_1.png"]],"dist200_S":[["E_Dist_200_LN_3_LD_6_RN_3_RD_10_0.png"],["E_Dist_200_LN_3_LD_10_RN_3_RD_6_1.png"]],"dist300_C":[["C_Dist_300_LN_11_LD_22_RN_1_RD_5_0.png","C_Dist_300_LN_11_LD_22_RN_2_RD_10_0.png","C_Dist_300_LN_11_LD_22_RN_4_RD_20_0.png","C_Dist_300_LN_12_LD_24_RN_2_RD_10_0.png","C_Dist_300_LN_18_LD_20_RN_9_RD_15_0.png","C_Dist_300_LN_20_LD_25_RN_13_RD_26_0.png","C_Dist_300_LN_20_LD_25_RN_14_RD_28_0.png","C_Dist_300_LN_20_LD_25_RN_5_RD_10_0.png","C_Dist_300_LN_20_LD_25_RN_8_RD_16_0.png","C_Dist_300_LN_20_LD_25_RN_9_RD_18_0.png","C_Dist_300_LN_24_LD_30_RN_2_RD_4_0.png","C_Dist_300_LN_24_LD_30_RN_8_RD_16_0.png","C_Dist_300_LN_3_LD_6_RN_2_RD_10_0.png","C_Dist_300_LN_4_LD_10_RN_1_RD_10_0.png","C_Dist_300_LN_4_LD_5_RN_2_RD_4_0.png","C_Dist_300_LN_8_LD_16_RN_1_RD_5_0.png","C_Dist_300_LN_9_LD_10_RN_3_RD_5_0.png"],["C_Dist_300_LN_1_LD_20_RN_7_RD_20_1.png","C_Dist_300_LN_1_LD_3_RN_19_RD_30_1.png","C_Dist_300_LN_1_LD_30_RN_8_RD_24_1.png","C_Dist_300_LN_1_LD_5_RN_11_RD_22_1.png","C_Dist_300_LN_1_LD_5_RN_3_RD_6_1.png","C_Dist_300_LN_1_LD_5_RN_6_RD_12_1.png","C_Dist_300_LN_2_LD_10_RN_12_RD_24_1.png","C_Dist_300_LN_2_LD_20_RN_10_RD_25_1.png","C_Dist_300_LN_3_LD_12_RN_11_RD_20_1.png","C_Dist_300_LN_3_LD_6_RN_4_RD_5_1.png","C_Dist_300_LN_4_LD_20_RN_13_RD_26_1.png","C_Dist_300_LN_5_LD_25_RN_6_RD_12_1.png","C_Dist_300_LN_5_LD_25_RN_7_RD_14_1.png","C_Dist_300_LN_7_LD_14_RN_20_RD_25_1.png","C_Dist_300_LN_8_LD_15_RN_10_RD_12_1.png"]],"dist300_I":[["I_Dist_300_LN_1_LD_2_RN_2_RD_10_0.png","I_Dist_300_LN_1_LD_2_RN_3_RD_15_0.png","I_Dist_300_LN_2_LD_4_RN_6_RD_30_0.png","I_Dist_300_LN_3_LD_6_RN_4_RD_20_0.png","I_Dist_300_LN_4_LD_5_RN_6_RD_12_0.png","I_Dist_300_LN_4_LD_5_RN_8_RD_16_0.png","I_Dist_300_LN_7_LD_10_RN_8_RD_20_0.png","I_Dist_300_LN_8_LD_10_RN_14_RD_28_0.png","I_Dist_300_LN_8_LD_10_RN_9_RD_18_0.png"],["I_Dist_300_LN_13_LD_26_RN_12_RD_15_1.png","I_Dist_300_LN_4_LD_20_RN_2_RD_4_1.png"]],"dist300_S":[["E_Dist_300_LN_9_LD_12_RN_9_RD_20_0.png"],["E_Dist_300_LN_18_LD_30_RN_18_RD_20_1.png","E_Dist_300_LN_3_LD_10_RN_3_RD_5_1.png","E_Dist_300_LN_9_LD_20_RN_9_RD_12_1.png"]],"dist500_C":[["C_Dist_500_LN_10_LD_13_RN_7_RD_26_0.png","C_Dist_500_LN_10_LD_15_RN_4_RD_24_0.png","C_Dist_500_LN_12_LD_16_RN_3_RD_12_0.png","C_Dist_500_LN_12_LD_18_RN_4_RD_24_0.png","C_Dist_500_LN_15_LD_18_RN_5_RD_15_0.png","C_Dist_500_LN_15_LD_20_RN_1_RD_4_0.png","C_Dist_500_LN_18_LD_27_RN_1_RD_6_0.png","C_Dist_500_LN_20_LD_24_RN_1_RD_3_0.png","C_Dist_500_LN_20_LD_24_RN_3_RD_9_0.png","C_Dist_500_LN_20_LD_24_RN_7_RD_21_0.png","C_Dist_500_LN_20_LD_28_RN_3_RD_14_0.png","C_Dist_500_LN_21_LD_28_RN_6_RD_24_0.png","C_Dist_500_LN_22_LD_28_RN_2_RD_7_0.png","C_Dist_500_LN_25_LD_30_RN_9_RD_27_0.png","C_Dist_500_LN_4_LD_6_RN_1_RD_6_0.png","C_Dist_500_LN_5_LD_6_RN_2_RD_6_0.png","C_Dist_500_LN_6_LD_9_RN_1_RD_6_0.png","C_Dist_500_LN_7_LD_10_RN_1_RD_5_0.png","C_Dist_500_LN_8_LD_12_RN_1_RD_6_0.png","C_Dist_500_LN_8_LD_12_RN_4_RD_24_0.png"],["C_Dist_500_LN_1_LD_4_RN_12_RD_16_1.png","C_Dist_500_LN_1_LD_4_RN_9_RD_12_1.png","C_Dist_500_LN_1_LD_9_RN_11_RD_18_1.png","C_Dist_500_LN_10_LD_24_RN_22_RD_24_1.png","C_Dist_500_LN_2_LD_12_RN_10_RD_15_1.png","C_Dist_500_LN_2_LD_12_RN_12_RD_18_1.png","C_Dist_500_LN_2_LD_12_RN_4_RD_6_1.png","C_Dist_500_LN_2_LD_24_RN_7_RD_12_1.png","C_Dist_500_LN_2_LD_5_RN_18_RD_20_1.png","C_Dist_500_LN_2_LD_5_RN_9_RD_10_1.png","C_Dist_500_LN_2_LD_8_RN_12_RD_16_1.png","C_Dist_500_LN_2_LD_8_RN_21_RD_28_1.png","C_Dist_500_LN_3_LD_10_RN_4_RD_5_1.png","C_Dist_500_LN_3_LD_12_RN_15_RD_20_1.png","C_Dist_500_LN_3_LD_30_RN_6_RD_10_1.png","C_Dist_500_LN_3_LD_8_RN_14_RD_16_1.png","C_Dist_500_LN_4_LD_16_RN_15_RD_20_1.png","C_Dist_500_LN_4_LD_24_RN_12_RD_18_1.png","C_Dist_500_LN_5_LD_14_RN_6_RD_7_1.png","C_Dist_500_LN_7_LD_21_RN_20_RD_24_1.png","C_Dist_500_LN_7_LD_28_RN_12_RD_16_1.png","C_Dist_500_LN_7_LD_28_RN_9_RD_12_1.png","C_Dist_500_LN_9_LD_27_RN_20_RD_24_1.png"]],"dist500_I":[["I_Dist_500_LN_2_LD_3_RN_4_RD_24_0.png","I_Dist_500_LN_5_LD_6_RN_6_RD_18_0.png","I_Dist_500_LN_7_LD_8_RN_9_RD_24_0.png"],["I_Dist_500_LN_7_LD_21_RN_5_RD_6_1.png"]],"dist500_S":[["E_Dist_500_LN_6_LD_8_RN_6_RD_24_0.png"],["E_Dist_500_LN_2_LD_12_RN_2_RD_3_1.png","E_Dist_500_LN_6_LD_24_RN_6_RD_8_1.png"]]}},{"start_time":1551880617498,"click_time":1551880619798,"finger_time":1551880619258,"fix_duration":1059.8669865010456,"trial":1,"RT":1760,"MT":540,"sideResp":1,"stimulus":[],"xmouse":[786,786,788,790,790,790,790,790,790,791,793,796,800,802,803,803,803,803,803,803,804,804,804,804,804,802,802,801,797,795,790,787,783,781,776,774,773,772,771,768,767,767,767,767,767,767,767,767,766,766,765,764,764,763,763,763,763,763,763,763,763,763,763,763,763,763,763,763,763,764,764,764,764,765,765,767,768,769,769,769,769,769,769,769,769,769,767,765,764,760,747,724,707,698,675,661,651,646,642,623,618,609,592,573,553,549,548,547,545,543,542,541,541,533,528,519],"ymouse":[617,617,617,617,617,617,617,617,617,617,617,617,617,617,617,617,617,617,617,617,618,618,618,619,623,625,626,626,630,631,633,636,639,641,645,646,648,649,650,654,655,656,656,656,656,656,656,657,657,660,661,663,665,667,667,667,667,667,667,667,667,667,667,667,667,667,667,667,667,666,666,665,665,664,664,663,663,663,663,663,663,662,660,658,639,624,609,592,570,521,482,428,390,371,330,306,288,276,268,239,226,207,178,146,107,92,84,80,77,76,76,77,79,82,83,83],"timestamp_mouse":[2,20,40,66,79,99,120,138,159,179,199,219,239,260,279,300,319,339,359,378,399,420,440,459,480,499,520,540,560,580,599,619,640,659,679,699,720,740,759,780,799,819,840,859,879,898,920,939,960,980,999,1020,1039,1059,1079,1099,1119,1140,1160,1179,1200,1219,1239,1259,1279,1298,1319,1339,1359,1379,1399,1419,1440,1459,1479,1500,1520,1539,1559,1579,1600,1619,1639,1660,1680,1700,1719,1739,1760,1779,1799,1820,1839,1860,1879,1899,1919,1939,1959,1979,1998,2019,2039,2059,2080,2099,2120,2140,2159,2180,2199,2220,2239,2260,2279,2300],"xSR":741.5,"ySR":573.95,"xT1":424.9,"yT1":0,"xT2":1058.1,"yT2":0,"toosoon":0,"cond_shown":"Congruent","ratio_trial":300,"L_num":11,"L_den":22,"R_num":2,"R_den":10,"correct_side":1,"subjID":"Juan Fernando Martinez Aguilera 6","gender":"0","school":"0","age":"11"},{"start_time":1551880621434,"click_time":1551880622897,"finger_time":1551880622777,"fix_duration":814.0750355726796,"trial":2,"RT":1343,"MT":120,"sideResp":1,"stimulus":[],"xmouse":[779,779,779,779,779,779,779,779,779,779,779,779,779,779,779,779,779,779,779,779,779,779,779,779,779,779,779,779,779,779,779,779,779,779,779,779,779,779,779,779,779,779,779,779,779,779,779,779,779,779,779,778,776,776,775,774,774,774,773,773,773,773,772,770,770,766,762,730,710,671,619,528,489,473],"ymouse":[617,617,618,618,618,618,619,619,619,619,619,619,619,619,619,619,619,619,619,619,619,619,619,619,619,619,619,619,619,619,619,619,619,619,619,619,619,619,619,619,619,619,619,619,619,619,619,619,619,619,620,620,620,621,621,621,621,621,621,621,621,621,621,620,620,617,616,591,564,480,379,210,138,89],"timestamp_mouse":[3,24,56,63,84,103,123,144,163,184,204,224,244,263,283,303,323,344,363,383,404,424,444,464,483,503,523,543,563,583,603,622,642,663,684,704,723,743,763,783,804,823,843,863,884,904,923,942,963,983,1003,1024,1044,1063,1084,1104,1124,1143,1163,1184,1203,1223,1243,1263,1282,1303,1323,1343,1363,1384,1403,1424,1442,1463],"xSR":741.5,"ySR":573.95,"xT1":424.9,"yT1":0,"xT2":1058.1,"yT2":0,"toosoon":0,"cond_shown":"Congruent","ratio_trial":100,"L_num":11,"L_den":22,"R_num":4,"R_den":10,"correct_side":1,"subjID":"Juan Fernando Martinez Aguilera 6","gender":"0","school":"0","age":"11"},{"start_time":1551880627267,"click_time":1551880629097,"finger_time":1551880628737,"fix_duration":1088.1730274676895,"trial":3,"RT":1470,"MT":360,"sideResp":2,"stimulus":[],"xmouse":[787,787,787,787,787,787,787,787,787,787,787,787,787,787,787,787,787,787,787,787,787,787,787,786,786,786,786,786,786,786,786,786,786,786,786,786,786,786,786,786,786,786,786,786,786,786,786,786,786,786,786,786,786,786,786,786,786,786,786,786,786,786,786,786,786,786,786,786,787,788,805,820,841,871,906,964,986,1009,1028,1042,1061,1074,1076,1077,1077,1079,1081,1082,1083,1087,1092,1095],"ymouse":[623,623,623,623,623,623,623,623,623,623,623,623,623,623,623,623,623,623,623,623,623,623,623,624,624,624,624,624,624,624,624,624,624,624,624,625,625,625,625,625,625,625,625,625,625,625,625,625,625,625,625,625,625,625,625,625,625,625,625,625,625,625,625,625,625,625,625,625,625,625,616,606,591,566,533,425,376,329,261,226,191,162,148,137,129,121,119,117,116,110,101,96],"timestamp_mouse":[10,30,52,70,90,110,130,151,171,190,211,231,249,270,290,310,330,350,370,390,410,431,450,471,491,510,530,550,570,591,611,630,650,671,690,711,730,751,770,790,810,831,850,870,890,911,930,950,971,989,1010,1030,1051,1071,1091,1110,1130,1150,1171,1191,1211,1231,1250,1271,1291,1310,1331,1351,1370,1390,1410,1430,1451,1470,1490,1510,1530,1550,1570,1590,1610,1630,1650,1670,1690,1711,1730,1750,1771,1791,1810,1829],"xSR":741.5,"ySR":573.95,"xT1":424.9,"yT1":0,"xT2":1058.1,"yT2":0,"toosoon":0,"cond_shown":"Incongruent","ratio_trial":100,"L_num":3,"L_den":5,"R_num":8,"R_den":16,"correct_side":1,"subjID":"Juan Fernando Martinez Aguilera 6","gender":"0","school":"0","age":"11"},{"start_time":1551880630267,"click_time":1551880631798,"finger_time":1551880631217,"fix_duration":289.433263238549,"trial":4,"RT":950,"MT":581,"sideResp":1,"stimulus":[],"xmouse":[782,783,783,783,783,784,785,785,785,785,785,785,785,785,785,785,785,785,786,786,786,786,786,786,786,786,786,786,786,786,786,786,786,786,786,786,786,786,786,786,786,785,784,784,783,780,778,776,778,784,772,753,746,745,745,744,734,715,699,694,692,686,672,647,625,595,589,586,582,578,566,558,551,547,544,527,518],"ymouse":[618,618,618,618,618,618,618,618,618,618,618,618,618,618,618,618,618,618,617,617,617,617,617,617,617,617,617,617,616,616,615,615,615,615,615,615,615,615,615,615,613,613,613,613,611,605,595,573,532,424,394,363,350,340,336,331,325,320,315,313,311,307,299,280,260,218,201,189,177,163,141,128,118,111,105,84,75],"timestamp_mouse":[10,30,55,70,90,111,130,151,171,190,210,231,250,270,291,310,331,349,370,390,410,430,451,471,491,510,530,550,570,590,610,631,650,671,690,710,731,750,770,791,811,830,850,871,891,910,930,950,970,991,1011,1030,1051,1070,1089,1110,1130,1150,1171,1191,1210,1230,1250,1271,1290,1311,1330,1350,1370,1390,1410,1430,1451,1470,1491,1510,1530],"xSR":741.5,"ySR":573.95,"xT1":424.9,"yT1":0,"xT2":1058.1,"yT2":0,"toosoon":0,"cond_shown":"Incongruent","ratio_trial":100,"L_num":9,"L_den":18,"R_num":6,"R_den":10,"correct_side":2,"subjID":"Juan Fernando Martinez Aguilera 6","gender":"0","school":"0","age":"11"},{"start_time":1551880633597,"click_time":1551880634737,"finger_time":1551880634238,"fix_duration":898.6260417569752,"trial":5,"RT":641,"MT":499,"sideResp":1,"stimulus":[],"xmouse":[778,778,778,778,778,778,778,778,778,778,778,778,778,778,778,778,778,778,778,778,778,778,778,778,778,778,778,778,778,776,768,747,709,642,627,609,581,558,525,514,510,509,509,502,490,486,485,485,485,485,485,484,484,487,493,501,503,500],"ymouse":[619,619,619,619,619,619,619,619,619,619,619,619,619,619,619,619,619,619,619,619,619,619,619,619,619,619,619,619,619,619,617,611,589,538,506,467,424,390,348,334,325,321,315,298,255,235,221,209,198,177,163,149,142,130,122,109,104,98],"timestamp_mouse":[2,20,40,61,80,100,120,141,159,181,201,221,241,261,281,300,321,341,359,381,401,420,440,461,481,500,521,540,560,580,600,620,641,661,681,700,720,740,761,780,801,820,840,860,880,900,921,941,960,981,1000,1020,1040,1061,1080,1100,1121,1139],"xSR":741.5,"ySR":573.95,"xT1":424.9,"yT1":0,"xT2":1058.1,"yT2":0,"toosoon":0,"cond_shown":"Congruent","ratio_trial":300,"L_num":4,"L_den":5,"R_num":2,"R_den":4,"correct_side":1,"subjID":"Juan Fernando Martinez Aguilera 6","gender":"0","school":"0","age":"11"},{"start_time":1551880636640,"click_time":1551880638338,"finger_time":1551880637737,"fix_duration":662.019225372904,"trial":6,"RT":1097,"MT":601,"sideResp":2,"stimulus":[],"xmouse":[791,791,791,791,791,791,791,791,791,791,791,791,791,791,791,791,791,791,791,791,791,791,791,791,791,791,791,791,791,791,791,791,791,791,791,792,792,792,792,792,792,792,792,792,792,794,796,797,797,798,799,800,803,808,817,830,831,831,831,831,832,840,840,842,845,852,874,881,884,893,921,944,955,959,962,966,973,978,985,991,996,1007,1016,1039,1081],"ymouse":[600,600,600,600,600,600,600,600,600,600,600,600,600,600,600,600,600,600,600,600,600,600,600,600,600,600,600,600,600,600,600,600,600,600,600,600,600,600,600,600,600,600,600,600,600,600,600,598,597,597,595,592,587,579,568,539,527,512,494,475,458,425,410,397,380,362,324,307,294,281,257,244,237,234,230,221,211,204,194,183,171,140,124,107,93],"timestamp_mouse":[17,38,65,78,97,117,137,157,178,198,217,237,258,277,298,318,337,357,378,397,418,438,457,478,497,517,537,558,578,597,617,637,657,677,698,717,737,757,777,797,817,837,857,877,898,918,937,958,977,998,1017,1037,1057,1077,1097,1118,1137,1158,1177,1197,1217,1237,1258,1278,1298,1317,1338,1357,1377,1398,1418,1437,1457,1477,1497,1518,1537,1557,1577,1597,1617,1637,1657,1677,1698],"xSR":741.5,"ySR":573.95,"xT1":424.9,"yT1":0,"xT2":1058.1,"yT2":0,"toosoon":0,"cond_shown":"Incongruent","ratio_trial":300,"L_num":4,"L_den":20,"R_num":2,"R_den":4,"correct_side":2,"subjID":"Juan Fernando Martinez Aguilera 6","gender":"0","school":"0","age":"11"},{"start_time":1551880639569,"click_time":1551880641877,"finger_time":1551880641058,"fix_duration":250,"trial":7,"RT":1489,"MT":819,"sideResp":1,"stimulus":[],"xmouse":[780,780,780,780,780,780,780,780,780,780,780,780,780,780,780,780,781,781,781,781,781,781,781,781,781,781,781,781,781,781,781,780,780,780,780,780,780,780,780,780,780,780,780,780,780,780,780,780,780,780,780,780,780,781,781,781,781,781,781,781,781,781,781,781,781,780,779,777,777,777,777,777,777,776,736,699,647,625,621,620,629,630,629,624,618,605,590,578,571,567,556,548,545,542,542,544,550,557,563,572,606,623,630,632,633,624,608,592,583,560,543,531,519,509,496,493],"ymouse":[605,605,605,606,607,609,610,611,611,611,611,611,611,611,611,611,612,612,612,612,612,612,612,612,612,612,612,612,612,612,613,613,613,613,613,613,613,613,613,612,612,612,612,612,612,612,612,612,612,612,612,611,611,610,610,610,610,610,610,610,610,610,610,610,610,609,608,607,607,605,603,600,592,574,495,443,374,330,306,283,237,222,210,201,192,178,167,160,155,152,144,141,138,137,137,137,137,137,140,145,157,162,163,163,157,146,138,130,126,119,114,111,107,104,100,95],"timestamp_mouse":[11,29,49,69,89,108,129,149,168,189,208,228,249,268,288,309,329,348,369,388,409,428,448,469,489,508,529,549,567,588,608,628,648,667,688,708,728,749,767,788,808,828,848,868,888,908,928,948,969,988,1009,1029,1048,1068,1089,1108,1128,1148,1168,1188,1208,1228,1248,1268,1289,1308,1328,1348,1368,1389,1408,1428,1448,1469,1489,1508,1528,1548,1568,1587,1609,1628,1649,1668,1688,1707,1728,1747,1768,1788,1809,1828,1848,1868,1888,1908,1928,1948,1969,1987,2008,2028,2049,2068,2089,2108,2128,2148,2168,2189,2208,2228,2249,2268,2289,2308],"xSR":741.5,"ySR":573.95,"xT1":424.9,"yT1":0,"xT2":1058.1,"yT2":0,"toosoon":0,"cond_shown":"Incongruent","ratio_trial":300,"L_num":2,"L_den":4,"R_num":6,"R_den":30,"correct_side":1,"subjID":"Juan Fernando Martinez Aguilera 6","gender":"0","school":"0","age":"11"},{"start_time":1551880643556,"click_time":1551880645178,"finger_time":1551880644818,"fix_duration":557.4059562765059,"trial":8,"RT":1262,"MT":360,"sideResp":1,"stimulus":[],"xmouse":[778,778,778,778,779,780,781,781,781,781,781,781,782,782,782,782,782,782,782,782,782,782,782,782,782,782,782,782,782,783,783,783,783,783,783,783,783,783,783,783,783,783,783,783,780,773,771,770,769,767,764,758,758,758,758,758,758,758,758,758,758,755,744,727,709,665,648,631,615,591,578,573,581,586,591,592,581,573,562,548,535,518],"ymouse":[605,605,605,605,605,606,606,606,607,608,610,611,612,612,612,612,612,612,613,613,613,613,613,613,613,613,613,613,613,613,614,614,614,614,614,614,614,614,614,614,614,614,614,615,613,608,606,605,604,603,602,598,598,598,597,597,596,595,594,594,594,590,584,573,561,514,475,411,359,300,265,203,177,156,140,121,107,99,91,83,75,65],"timestamp_mouse":[8,21,43,62,81,101,121,140,161,182,201,222,241,261,281,301,321,340,362,381,401,421,441,462,480,502,521,541,562,582,602,621,641,662,681,701,722,741,761,781,801,821,840,862,881,902,921,940,962,981,1001,1021,1041,1061,1081,1102,1120,1141,1161,1181,1202,1221,1241,1262,1282,1302,1321,1342,1361,1381,1401,1421,1442,1461,1481,1501,1521,1541,1562,1581,1600,1622],"xSR":741.5,"ySR":573.95,"xT1":424.9,"yT1":0,"xT2":1058.1,"yT2":0,"toosoon":0,"cond_shown":"Congruent","ratio_trial":200,"L_num":12,"L_den":20,"R_num":6,"R_den":15,"correct_side":1,"subjID":"Juan Fernando Martinez Aguilera 6","gender":"0","school":"0","age":"11"},{"start_time":1551880646956,"click_time":1551880648017,"finger_time":1551880647758,"fix_duration":637.2551481359926,"trial":9,"RT":802,"MT":259,"sideResp":2,"stimulus":[],"xmouse":[782,782,782,782,782,782,782,782,783,783,783,784,784,784,784,784,785,786,787,787,787,787,787,787,787,787,787,787,788,789,789,790,791,791,792,792,793,796,799,803,824,841,867,888,912,934,968,982,1001,1013,1025,1050,1058,1064],"ymouse":[605,605,605,605,605,605,605,605,605,605,605,605,604,604,604,604,604,602,602,601,601,601,601,601,601,601,601,601,601,600,600,598,597,597,596,595,593,589,585,581,561,539,503,468,424,375,207,170,140,123,109,94,89,85],"timestamp_mouse":[11,20,40,69,81,102,121,142,161,182,201,221,241,262,281,301,321,341,361,382,401,421,441,461,481,501,521,542,561,582,601,621,642,662,681,701,721,741,761,781,802,821,841,862,881,901,922,941,961,982,1001,1022,1042,1061],"xSR":741.5,"ySR":573.95,"xT1":424.9,"yT1":0,"xT2":1058.1,"yT2":0,"toosoon":0,"cond_shown":"Congruent","ratio_trial":100,"L_num":12,"L_den":30,"R_num":13,"R_den":26,"correct_side":2,"subjID":"Juan Fernando Martinez Aguilera 6","gender":"0","school":"0","age":"11"},{"start_time":1551880649330,"click_time":1551880650717,"finger_time":1551880650157,"fix_duration":250,"trial":10,"RT":827,"MT":560,"sideResp":2,"stimulus":[],"xmouse":[795,795,795,795,795,795,795,795,795,795,795,795,795,795,795,795,795,795,795,795,795,795,795,795,795,796,796,796,796,796,796,797,797,798,798,799,800,803,804,809,818,856,877,895,909,920,937,937,937,938,939,939,940,941,946,954,980,998,1009,1021,1032,1052,1057,1061,1065,1068,1069,1073,1078,1083],"ymouse":[619,619,619,619,619,620,620,620,620,620,620,620,620,620,620,620,620,620,620,620,620,620,620,620,620,619,619,619,619,619,619,617,617,617,617,617,616,615,615,613,611,601,591,578,563,539,455,404,390,349,321,291,279,268,255,243,219,208,201,192,185,169,164,155,145,136,129,111,101,88],"timestamp_mouse":[8,27,59,67,87,108,128,148,167,187,208,227,247,268,287,307,326,347,367,387,407,428,447,467,487,507,527,548,568,587,607,627,647,668,688,707,726,747,767,787,807,827,847,867,888,907,927,946,967,988,1008,1027,1047,1067,1088,1107,1127,1147,1167,1188,1207,1227,1247,1268,1287,1308,1327,1347,1367,1387],"xSR":741.5,"ySR":573.95,"xT1":424.9,"yT1":0,"xT2":1058.1,"yT2":0,"toosoon":0,"cond_shown":"Congruent","ratio_trial":100,"L_num":3,"L_den":20,"R_num":4,"R_den":16,"correct_side":2,"subjID":"Juan Fernando Martinez Aguilera 6","gender":"0","school":"0","age":"11"},{"start_time":1551880652495,"click_time":1551880653577,"finger_time":1551880653198,"fix_duration":535.2013982817588,"trial":11,"RT":703,"MT":379,"sideResp":1,"stimulus":[],"xmouse":[804,804,804,804,804,804,804,804,804,804,804,804,805,805,806,806,806,806,806,807,808,811,812,812,812,812,812,813,813,814,814,814,814,811,798,776,752,733,698,663,651,626,623,623,623,621,616,611,582,563,549,538,532,527,513],"ymouse":[604,604,604,604,604,604,604,604,604,604,604,604,604,604,605,605,605,605,605,605,605,605,605,605,605,605,605,605,605,605,605,605,605,596,581,562,542,526,486,429,406,333,307,274,257,234,215,194,144,121,102,85,78,75,70],"timestamp_mouse":[10,23,44,63,83,103,123,142,163,182,202,223,242,263,282,303,323,343,362,383,402,422,443,462,482,502,522,541,562,583,603,622,642,662,681,703,722,743,763,782,803,822,842,862,882,902,922,942,963,982,1003,1022,1043,1062,1082],"xSR":741.5,"ySR":573.95,"xT1":424.9,"yT1":0,"xT2":1058.1,"yT2":0,"toosoon":0,"cond_shown":"Congruent","ratio_trial":200,"L_num":20,"L_den":25,"R_num":9,"R_den":15,"correct_side":1,"subjID":"Juan Fernando Martinez Aguilera 6","gender":"0","school":"0","age":"11"},{"start_time":1551880654808,"click_time":1551880656817,"finger_time":1551880656037,"fix_duration":250,"trial":12,"RT":1229,"MT":780,"sideResp":2,"stimulus":[],"xmouse":[782,783,784,785,786,786,786,786,786,788,789,790,791,792,792,792,792,792,793,793,794,795,796,796,797,799,800,800,801,801,801,801,801,802,802,803,803,803,803,803,803,803,803,803,803,803,803,803,803,803,803,803,803,805,806,806,806,805,794,776,744,711,672,664,654,641,632,615,608,603,599,592,562,543,527,520,515,513,515,520,527,539,572,609,621,664,698,809,840,866,899,940,1063,1114,1148,1167,1166,1147,1145,1145,1149],"ymouse":[627,627,627,627,628,628,628,628,628,628,628,628,628,628,628,628,628,628,628,628,628,628,628,628,628,628,628,628,628,628,628,628,628,627,627,627,626,626,626,626,626,626,626,626,626,626,626,626,626,626,626,626,626,626,625,625,625,621,615,604,584,559,481,448,420,374,348,308,290,274,262,247,212,189,164,151,139,135,131,131,131,131,141,156,161,179,187,191,191,191,186,181,164,158,152,141,130,112,107,103,99],"timestamp_mouse":[10,30,49,70,89,110,129,149,169,190,209,229,249,269,290,310,330,348,369,389,410,430,450,470,489,509,530,550,568,589,609,629,650,669,689,710,730,750,769,789,810,829,849,869,890,909,929,949,969,990,1009,1029,1049,1068,1090,1110,1129,1149,1170,1189,1209,1229,1250,1269,1289,1309,1329,1349,1369,1390,1410,1428,1449,1468,1489,1509,1529,1549,1569,1590,1608,1630,1649,1668,1689,1709,1729,1749,1769,1789,1810,1830,1849,1869,1889,1909,1930,1949,1969,1989,2009],"xSR":741.5,"ySR":573.95,"xT1":424.9,"yT1":0,"xT2":1058.1,"yT2":0,"toosoon":0,"cond_shown":"Incongruent","ratio_trial":200,"L_num":1,"L_den":2,"R_num":3,"R_den":10,"correct_side":1,"subjID":"Juan Fernando Martinez Aguilera 6","gender":"0","school":"0","age":"11"},{"start_time":1551880658659,"click_time":1551880660258,"finger_time":1551880659778,"fix_duration":358.38790630402383,"trial":13,"RT":1119,"MT":480,"sideResp":1,"stimulus":[],"xmouse":[811,811,811,811,807,802,801,801,801,801,801,801,802,803,803,803,803,803,803,803,803,803,803,802,802,802,802,802,802,802,802,802,802,802,802,802,802,802,802,802,802,802,804,805,805,805,805,805,805,804,803,801,796,789,780,751,726,705,691,681,672,662,660,658,655,631,614,605,603,606,609,609,607,607,607,598,586,567,550,538,513],"ymouse":[608,608,608,608,612,617,619,620,620,620,620,620,620,619,619,619,619,619,619,619,619,618,618,618,618,618,618,618,618,618,618,618,618,618,618,618,618,618,618,618,618,618,618,617,616,616,616,616,616,615,615,615,615,611,606,584,566,545,524,500,475,447,439,422,402,344,310,291,271,246,211,202,192,178,171,154,145,134,122,112,93],"timestamp_mouse":[1,19,48,58,79,99,119,138,159,178,199,217,239,259,277,298,318,339,358,378,398,419,439,458,478,498,519,538,557,578,599,618,638,659,679,699,719,738,758,777,798,818,838,858,878,899,918,938,959,978,998,1019,1038,1058,1078,1098,1119,1138,1158,1179,1199,1219,1238,1259,1278,1299,1318,1338,1358,1379,1398,1418,1438,1458,1478,1498,1518,1538,1558,1578,1598],"xSR":741.5,"ySR":573.95,"xT1":424.9,"yT1":0,"xT2":1058.1,"yT2":0,"toosoon":0,"cond_shown":"Incongruent","ratio_trial":100,"L_num":12,"L_den":24,"R_num":9,"R_den":15,"correct_side":2,"subjID":"Juan Fernando Martinez Aguilera 6","gender":"0","school":"0","age":"11"},{"start_time":1551880661489,"click_time":1551880663038,"finger_time":1551880662518,"fix_duration":250,"trial":14,"RT":1029,"MT":520,"sideResp":1,"stimulus":[],"xmouse":[788,789,790,792,792,792,792,792,792,792,792,793,793,793,793,794,795,797,798,803,803,804,804,804,804,804,804,804,805,807,808,809,811,812,812,812,812,812,812,810,808,807,807,807,807,807,807,807,807,803,797,791,782,752,722,671,615,585,563,541,540,541,552,565,569,569,569,564,554,553,553,553,553,552,548,541,528,516],"ymouse":[600,600,600,600,600,600,600,600,600,600,600,601,601,601,601,601,601,601,600,598,598,598,598,598,598,598,598,598,598,596,595,595,593,592,592,592,592,592,592,592,592,591,591,590,589,587,586,585,584,578,574,571,565,544,520,473,428,389,356,293,257,248,220,190,177,168,159,141,107,100,98,97,95,89,86,84,80,77],"timestamp_mouse":[9,28,49,69,88,108,128,148,168,188,208,229,249,268,289,308,329,348,368,388,408,428,448,468,488,508,528,548,568,589,608,628,648,669,688,708,729,749,769,788,809,829,849,868,889,909,929,949,968,988,1008,1029,1048,1068,1087,1107,1129,1149,1168,1189,1208,1228,1249,1268,1288,1308,1328,1348,1368,1388,1408,1429,1448,1468,1489,1509,1528,1549],"xSR":741.5,"ySR":573.95,"xT1":424.9,"yT1":0,"xT2":1058.1,"yT2":0,"toosoon":0,"cond_shown":"Incongruent","ratio_trial":200,"L_num":7,"L_den":10,"R_num":8,"R_den":16,"correct_side":1,"subjID":"Juan Fernando Martinez Aguilera 6","gender":"0","school":"0","age":"11"},{"start_time":1551880664861,"click_time":1551880665737,"finger_time":1551880665478,"fix_duration":961.6174407734565,"trial":15,"RT":617,"MT":259,"sideResp":1,"stimulus":[],"xmouse":[787,787,787,787,785,784,784,784,784,784,784,784,784,784,784,784,784,784,784,784,784,784,784,784,784,784,784,781,780,757,725,679,599,570,557,545,540,535,524,499,492,486,480,476],"ymouse":[617,617,617,617,617,617,617,617,617,617,616,616,615,615,615,615,615,615,615,615,615,615,614,614,613,613,612,608,607,587,561,519,446,421,400,332,302,269,228,170,152,132,105,83],"timestamp_mouse":[17,36,62,77,97,116,137,157,177,195,216,236,256,276,296,316,336,356,377,396,416,436,456,476,497,516,537,556,576,596,617,637,657,676,696,716,736,756,776,796,817,837,857,876],"xSR":741.5,"ySR":573.95,"xT1":424.9,"yT1":0,"xT2":1058.1,"yT2":0,"toosoon":0,"cond_shown":"Congruent","ratio_trial":300,"L_num":9,"L_den":10,"R_num":3,"R_den":5,"correct_side":1,"subjID":"Juan Fernando Martinez Aguilera 6","gender":"0","school":"0","age":"11"},{"start_time":1551880666970,"click_time":1551880668478,"finger_time":1551880668238,"fix_duration":250,"trial":16,"RT":1268,"MT":240,"sideResp":1,"stimulus":[],"xmouse":[776,778,779,779,780,780,780,780,781,783,785,786,786,786,786,786,786,786,786,786,786,786,786,786,786,786,786,786,786,786,786,786,786,786,786,786,786,786,786,786,786,786,786,786,787,790,791,794,795,798,799,800,801,801,801,801,801,801,801,799,796,791,786,781,757,746,736,716,705,671,652,631,619,601,576,518],"ymouse":[590,590,590,590,591,592,592,592,592,592,592,592,592,592,592,592,592,592,592,592,592,592,592,592,592,592,592,592,592,592,592,592,592,592,592,592,592,592,592,592,592,592,592,592,592,592,592,591,590,589,588,587,587,586,584,583,583,583,582,580,580,577,575,572,559,552,541,511,482,380,320,261,218,182,148,96],"timestamp_mouse":[11,27,52,67,88,107,127,146,168,187,207,226,247,267,288,308,327,348,367,386,407,427,447,468,487,508,528,547,567,587,606,628,648,668,688,708,729,747,767,787,808,828,848,867,888,909,927,948,968,987,1008,1028,1049,1068,1087,1109,1128,1147,1168,1188,1208,1227,1248,1268,1288,1308,1328,1347,1367,1387,1408,1428,1449,1468,1487,1507],"xSR":741.5,"ySR":573.95,"xT1":424.9,"yT1":0,"xT2":1058.1,"yT2":0,"toosoon":0,"cond_shown":"Congruent","ratio_trial":200,"L_num":8,"L_den":15,"R_num":7,"R_den":21,"correct_side":1,"subjID":"Juan Fernando Martinez Aguilera 6","gender":"0","school":"0","age":"11"},{"start_time":1551880669975,"click_time":1551880671119,"finger_time":1551880670558,"fix_duration":435.94425250588733,"trial":17,"RT":583,"MT":561,"sideResp":2,"stimulus":[],"xmouse":[791,791,791,791,791,791,791,791,791,792,792,792,792,792,792,792,792,792,792,792,792,792,792,794,797,801,805,812,815,821,821,816,812,816,851,870,889,919,941,975,987,996,1008,1015,1017,1016,1010,1007,1007,1007,1007,1010,1015,1021,1041,1051,1059,1073],"ymouse":[583,584,584,584,586,587,587,587,587,587,587,587,587,587,587,587,587,587,587,587,587,587,587,587,587,586,585,584,581,569,553,530,510,494,460,445,428,402,384,356,344,330,314,299,255,231,200,174,166,150,144,135,127,120,109,106,104,97],"timestamp_mouse":[10,24,48,64,83,104,123,142,163,183,203,222,242,262,284,303,322,342,363,384,403,423,442,464,482,504,523,542,562,583,604,622,643,663,683,702,723,742,763,782,803,823,842,863,882,902,923,943,963,982,1004,1023,1044,1062,1082,1103,1123,1144],"xSR":741.5,"ySR":573.95,"xT1":424.9,"yT1":0,"xT2":1058.1,"yT2":0,"toosoon":0,"cond_shown":"Incongruent","ratio_trial":100,"L_num":2,"L_den":4,"R_num":6,"R_den":15,"correct_side":1,"subjID":"Juan Fernando Martinez Aguilera 6","gender":"0","school":"0","age":"11"},{"start_time":1551880672350,"click_time":1551880673358,"finger_time":1551880672998,"fix_duration":250,"trial":18,"RT":648,"MT":360,"sideResp":1,"stimulus":[],"xmouse":[812,812,812,814,815,824,827,828,828,828,828,828,828,828,829,829,831,832,832,832,832,832,832,832,832,832,832,828,826,814,792,776,753,723,702,683,675,667,657,654,645,637,616,593,585,580,551,542,536,532,523],"ymouse":[620,620,620,621,623,638,643,646,647,647,647,647,647,647,648,648,648,648,648,648,648,648,648,648,648,648,647,645,644,634,609,589,562,530,503,455,427,402,369,348,301,273,212,158,136,121,88,81,77,76,76],"timestamp_mouse":[14,27,47,67,88,108,129,148,168,188,208,227,248,268,289,309,328,347,367,388,407,427,447,469,487,508,528,548,568,588,608,627,648,668,688,707,728,747,769,789,808,827,848,868,889,908,928,947,968,989,1008],"xSR":741.5,"ySR":573.95,"xT1":424.9,"yT1":0,"xT2":1058.1,"yT2":0,"toosoon":0,"cond_shown":"Incongruent","ratio_trial":100,"L_num":1,"L_den":2,"R_num":8,"R_den":20,"correct_side":1,"subjID":"Juan Fernando Martinez Aguilera 6","gender":"0","school":"0","age":"11"},{"start_time":1551880675782,"click_time":1551880677219,"finger_time":1551880676757,"fix_duration":842.1553176834241,"trial":19,"RT":975,"MT":462,"sideResp":1,"stimulus":[],"xmouse":[768,768,768,768,769,770,772,774,775,775,775,775,775,775,775,775,775,775,775,775,775,775,775,775,775,775,775,775,775,776,776,776,776,776,776,776,776,776,776,776,776,776,776,776,776,776,774,770,757,748,727,679,612,565,529,526,526,526,524,521,519,517,513,511,514,517,521,523,523,520,518,514],"ymouse":[584,584,584,584,584,586,588,590,591,591,591,591,591,591,591,591,591,591,591,591,591,591,591,591,591,591,591,591,591,591,591,590,589,589,588,588,588,588,588,588,588,588,588,587,587,584,582,576,563,552,533,491,440,390,327,310,283,264,229,213,198,184,169,145,136,131,125,123,117,113,108,98],"timestamp_mouse":[18,49,56,76,95,116,136,155,176,196,215,236,255,276,297,315,337,355,376,395,415,436,456,475,496,515,536,556,576,597,615,637,657,675,696,716,736,755,777,796,815,837,855,876,896,916,937,957,975,996,1016,1036,1056,1076,1096,1116,1136,1157,1177,1195,1215,1236,1257,1275,1296,1316,1335,1355,1376,1396,1417,1437],"xSR":741.5,"ySR":573.95,"xT1":424.9,"yT1":0,"xT2":1058.1,"yT2":0,"toosoon":0,"cond_shown":"Congruent","ratio_trial":100,"L_num":11,"L_den":22,"R_num":6,"R_den":15,"correct_side":1,"subjID":"Juan Fernando Martinez Aguilera 6","gender":"0","school":"0","age":"11"},{"start_time":1551880678429,"click_time":1551880679677,"finger_time":1551880679258,"fix_duration":250,"trial":20,"RT":829,"MT":419,"sideResp":2,"stimulus":[],"xmouse":[791,791,791,792,792,792,792,792,792,792,792,792,792,792,792,792,792,792,792,792,792,792,792,792,792,792,793,794,794,794,794,794,794,794,794,794,794,795,797,798,803,812,833,846,855,859,865,886,901,919,939,966,1005,1018,1030,1043,1059,1060,1060,1063,1072,1084,1107],"ymouse":[601,601,601,601,601,601,601,601,601,601,601,601,601,601,601,601,601,601,601,601,601,601,601,601,601,601,601,601,601,601,601,601,601,601,601,601,601,601,596,592,583,570,538,515,495,475,449,392,366,344,326,308,272,261,250,237,207,191,178,165,154,138,94],"timestamp_mouse":[8,28,49,69,90,108,129,149,169,189,208,228,249,270,289,308,329,350,369,390,409,429,448,488,488,508,530,550,568,589,608,628,649,668,689,710,728,749,770,789,809,829,849,870,888,908,930,950,969,988,1008,1029,1049,1070,1088,1108,1130,1148,1170,1189,1208,1228,1248],"xSR":741.5,"ySR":573.95,"xT1":424.9,"yT1":0,"xT2":1058.1,"yT2":0,"toosoon":0,"cond_shown":"Congruent","ratio_trial":200,"L_num":6,"L_den":20,"R_num":11,"R_den":22,"correct_side":2,"subjID":"Juan Fernando Martinez Aguilera 6","gender":"0","school":"0","age":"11"},{"start_time":1551880683223,"click_time":1551880684738,"finger_time":1551880684079,"fix_duration":1384.198664598987,"trial":21,"RT":856,"MT":659,"sideResp":2,"stimulus":[],"xmouse":[792,792,792,792,792,792,792,792,792,792,792,792,792,792,792,792,792,792,792,792,792,792,792,791,787,784,783,781,781,781,780,779,777,777,777,776,776,776,775,775,774,774,783,798,812,832,852,874,887,903,915,924,942,949,955,962,972,976,978,983,990,1011,1024,1030,1035,1041,1050,1052,1052,1052,1053,1053,1054,1055,1056,1063],"ymouse":[627,627,627,627,627,627,627,627,627,627,627,627,627,627,627,627,627,627,627,627,627,627,627,627,627,627,627,627,627,627,626,626,624,624,624,623,623,623,623,622,619,617,565,525,483,435,392,333,303,273,254,238,207,195,183,170,157,139,133,128,122,112,102,96,90,84,76,67,62,57,54,51,50,50,49,48],"timestamp_mouse":[15,35,54,74,96,114,136,154,175,196,215,236,255,274,295,314,335,355,374,395,415,435,454,474,496,514,534,556,575,594,615,636,655,674,695,715,735,754,775,796,814,835,856,876,894,914,935,955,975,996,1015,1034,1054,1074,1094,1116,1135,1154,1174,1195,1214,1235,1255,1276,1295,1315,1334,1354,1374,1395,1415,1435,1454,1476,1494,1514],"xSR":741.5,"ySR":573.95,"xT1":424.9,"yT1":0,"xT2":1058.1,"yT2":0,"toosoon":0,"cond_shown":"Incongruent","ratio_trial":300,"L_num":13,"L_den":26,"R_num":12,"R_den":15,"correct_side":2,"subjID":"Juan Fernando Martinez Aguilera 6","gender":"0","school":"0","age":"11"},{"start_time":1551880686788,"click_time":1551880688278,"finger_time":1551880687758,"fix_duration":1129.3874006733836,"trial":22,"RT":970,"MT":520,"sideResp":2,"stimulus":[],"xmouse":[798,798,798,798,798,798,798,798,798,798,798,798,798,798,798,798,798,798,798,798,798,798,798,798,798,798,798,798,798,798,798,798,798,798,798,798,798,798,798,798,798,798,798,798,803,812,823,834,846,877,896,920,946,1001,1028,1037,1039,1039,1032,1014,1005,1000,997,997,1011,1022,1031,1034,1034,1039,1044,1048,1053,1053,1061],"ymouse":[604,604,604,604,604,604,605,606,606,606,606,606,606,606,606,606,607,607,608,609,609,609,609,609,609,609,609,609,609,609,609,609,609,609,609,609,609,609,609,609,609,609,609,609,605,599,591,583,574,544,523,496,470,421,384,359,335,312,289,253,234,219,208,187,166,154,142,132,124,104,96,85,70,70,58],"timestamp_mouse":[11,36,49,71,90,109,131,150,171,189,209,231,249,269,289,311,329,350,370,390,409,431,449,470,490,510,530,550,570,590,609,629,649,669,689,709,731,751,769,791,810,829,851,870,889,909,931,949,970,991,1010,1029,1050,1071,1089,1109,1129,1150,1170,1191,1211,1229,1250,1271,1289,1310,1331,1351,1371,1391,1410,1430,1455,1470,1490],"xSR":741.5,"ySR":573.95,"xT1":424.9,"yT1":0,"xT2":1058.1,"yT2":0,"toosoon":0,"cond_shown":"Congruent","ratio_trial":200,"L_num":6,"L_den":20,"R_num":11,"R_den":22,"correct_side":2,"subjID":"Juan Fernando Martinez Aguilera 6","gender":"0","school":"0","age":"11"},{"start_time":1551880689410,"click_time":1551880690899,"finger_time":1551880689999,"fix_duration":250,"trial":23,"RT":589,"MT":900,"sideResp":2,"stimulus":[],"xmouse":[807,807,807,807,807,807,807,807,807,807,807,807,807,807,807,807,807,807,807,807,807,807,807,807,807,806,803,794,758,723,692,670,645,639,638,638,636,632,609,595,580,570,562,548,536,529,522,515,508,508,508,509,522,569,606,631,659,690,807,851,884,916,951,961,972,990,1008,1020,1029,1029,1028,1028,1051,1072,1083],"ymouse":[607,607,607,607,607,607,607,607,607,607,607,607,607,607,607,607,607,607,607,607,607,607,607,607,607,608,608,602,576,552,529,512,496,493,493,493,493,490,472,459,442,423,406,371,346,326,311,299,282,279,277,276,275,275,276,276,276,276,276,276,276,273,258,235,215,195,180,167,144,135,126,121,112,105,99],"timestamp_mouse":[9,28,47,69,88,108,129,149,167,188,207,227,247,269,289,307,327,347,368,388,409,427,449,468,489,508,529,548,569,589,607,628,648,667,689,708,727,748,768,788,809,828,847,868,889,907,927,948,969,988,1009,1029,1047,1068,1088,1109,1129,1147,1168,1189,1207,1228,1249,1268,1288,1309,1329,1349,1368,1387,1408,1427,1448,1468,1489],"xSR":741.5,"ySR":573.95,"xT1":424.9,"yT1":0,"xT2":1058.1,"yT2":0,"toosoon":0,"cond_shown":"Incongruent","ratio_trial":200,"L_num":14,"L_den":30,"R_num":6,"R_den":9,"correct_side":2,"subjID":"Juan Fernando Martinez Aguilera 6","gender":"0","school":"0","age":"11"},{"start_time":1551880692210,"click_time":1551880693878,"finger_time":1551880693539,"fix_duration":270.4769929887717,"trial":24,"RT":1329,"MT":339,"sideResp":1,"stimulus":[],"xmouse":[794,794,794,794,794,794,794,794,794,794,794,794,794,794,794,794,794,794,794,794,794,794,794,794,794,794,794,794,794,794,796,797,797,798,798,798,798,798,798,798,798,798,798,799,799,799,799,799,799,799,799,799,799,799,799,799,799,799,799,799,799,799,798,793,782,763,728,690,623,602,583,567,555,540,534,526,507,484,460,460,460,460,461,461],"ymouse":[638,638,638,638,638,638,638,638,638,638,638,638,638,638,638,638,638,638,638,638,638,638,638,638,638,638,638,637,635,633,630,628,626,626,626,626,626,626,626,626,626,626,626,625,625,625,625,625,625,625,625,625,625,625,625,624,624,624,624,624,624,623,622,618,608,591,559,520,429,391,364,341,318,267,249,232,210,186,142,128,119,110,105,94],"timestamp_mouse":[8,27,49,67,87,109,128,147,168,188,208,229,248,267,289,307,328,349,367,389,408,428,448,469,489,507,528,548,569,589,607,629,648,668,687,707,727,748,767,787,807,829,848,868,888,907,928,947,969,987,1008,1028,1047,1067,1087,1108,1128,1147,1167,1187,1208,1228,1249,1269,1288,1309,1329,1348,1369,1387,1407,1428,1448,1469,1488,1507,1527,1548,1568,1588,1607,1628,1649,1668],"xSR":741.5,"ySR":573.95,"xT1":424.9,"yT1":0,"xT2":1058.1,"yT2":0,"toosoon":0,"cond_shown":"Congruent","ratio_trial":200,"L_num":6,"L_den":15,"R_num":3,"R_den":15,"correct_side":1,"subjID":"Juan Fernando Martinez Aguilera 6","gender":"0","school":"0","age":"11"},{"start_time":1551880695170,"click_time":1551880696498,"finger_time":1551880696259,"fix_duration":250,"trial":25,"RT":1089,"MT":239,"sideResp":1,"stimulus":[],"xmouse":[808,808,808,808,808,808,808,808,808,808,808,807,807,807,807,807,807,807,807,807,807,807,807,807,807,807,807,807,807,807,807,807,807,807,807,807,807,807,807,807,807,807,807,807,807,807,807,807,807,806,805,802,793,784,741,679,641,618,608,602,587,571,546,507,473,445,444],"ymouse":[631,631,631,631,631,631,631,631,631,631,631,631,632,632,632,632,632,632,632,632,632,632,632,632,632,632,632,632,632,632,632,632,632,632,632,632,632,632,632,632,632,632,632,632,632,632,632,632,632,633,633,632,623,605,508,392,325,271,246,233,210,195,176,148,122,103,99],"timestamp_mouse":[14,40,48,68,89,107,129,147,167,188,207,228,248,268,287,309,328,348,368,387,407,427,448,469,487,507,528,548,567,589,607,629,647,667,688,707,729,747,767,789,808,828,848,868,888,909,927,947,969,988,1009,1028,1048,1068,1089,1108,1128,1149,1168,1188,1209,1228,1248,1267,1288,1308,1328],"xSR":741.5,"ySR":573.95,"xT1":424.9,"yT1":0,"xT2":1058.1,"yT2":0,"toosoon":0,"cond_shown":"Incongruent","ratio_trial":200,"L_num":7,"L_den":10,"R_num":12,"R_den":24,"correct_side":1,"subjID":"Juan Fernando Martinez Aguilera 6","gender":"0","school":"0","age":"11"},{"start_time":1551880697718,"click_time":1551880699539,"finger_time":1551880699077,"fix_duration":258.8644645775702,"trial":26,"RT":1359,"MT":462,"sideResp":2,"stimulus":[],"xmouse":[773,773,773,773,773,773,773,773,773,773,773,773,773,773,773,773,773,773,773,773,773,773,773,773,773,773,773,773,773,773,773,773,773,773,773,773,773,773,773,773,773,773,773,773,773,773,773,773,773,773,773,773,773,773,773,773,773,773,772,772,772,772,772,771,771,769,769,768,762,755,753,754,758,785,801,816,836,870,889,915,931,952,975,981,986,993,998,1012,1029,1041,1052,1070],"ymouse":[600,600,600,600,600,600,600,600,600,600,600,600,600,600,600,600,600,600,600,600,600,600,600,600,600,600,600,600,600,600,600,600,600,600,600,600,600,600,600,600,600,600,600,600,600,600,600,600,600,600,600,600,600,600,600,600,600,599,599,599,598,598,598,595,593,591,588,584,565,539,526,521,518,502,488,473,450,397,364,317,288,257,217,199,179,160,141,107,84,75,68,61],"timestamp_mouse":[1,19,46,60,80,99,121,141,159,179,200,221,239,260,281,300,320,339,360,381,399,421,439,460,480,499,521,539,560,580,600,620,639,659,679,701,721,740,760,780,801,820,840,861,881,900,921,939,960,981,1000,1019,1039,1061,1079,1099,1121,1141,1159,1180,1199,1220,1240,1260,1279,1300,1320,1340,1359,1380,1400,1420,1440,1460,1481,1499,1520,1541,1560,1580,1599,1620,1641,1659,1680,1701,1721,1741,1759,1780,1801,1821],"xSR":741.5,"ySR":573.95,"xT1":424.9,"yT1":0,"xT2":1058.1,"yT2":0,"toosoon":0,"cond_shown":"Incongruent","ratio_trial":200,"L_num":1,"L_den":3,"R_num":2,"R_den":15,"correct_side":1,"subjID":"Juan Fernando Martinez Aguilera 6","gender":"0","school":"0","age":"11"},{"start_time":1551880701748,"click_time":1551880702777,"finger_time":1551880702378,"fix_duration":1187.3103806325373,"trial":27,"RT":630,"MT":399,"sideResp":1,"stimulus":[],"xmouse":[793,793,793,793,793,793,793,793,793,793,793,793,793,793,792,792,792,792,792,792,792,792,792,793,795,798,802,802,802,801,800,799,797,791,778,754,662,630,620,609,589,578,570,560,552,538,535,529,525,518,503,500],"ymouse":[621,621,621,621,621,621,621,621,621,621,621,621,621,621,621,618,613,610,609,608,608,608,607,607,606,604,595,589,582,578,575,572,568,559,542,519,452,419,395,367,303,270,242,219,199,169,160,148,139,127,101,89],"timestamp_mouse":[10,44,49,70,89,110,131,150,171,189,211,231,250,270,291,310,329,351,369,390,411,429,450,471,489,509,529,551,570,590,610,630,650,669,689,710,729,751,771,790,810,830,849,869,891,910,929,951,970,990,1012,1029],"xSR":741.5,"ySR":573.95,"xT1":424.9,"yT1":0,"xT2":1058.1,"yT2":0,"toosoon":0,"cond_shown":"Congruent","ratio_trial":200,"L_num":1,"L_den":2,"R_num":21,"R_den":30,"correct_side":2,"subjID":"Juan Fernando Martinez Aguilera 6","gender":"0","school":"0","age":"11"},{"start_time":1551880704579,"click_time":1551880706378,"finger_time":1551880706058,"fix_duration":1057.8910089208985,"trial":28,"RT":1479,"MT":320,"sideResp":1,"stimulus":[],"xmouse":[774,774,774,774,774,775,775,775,775,775,775,775,775,776,776,777,779,780,782,784,784,784,784,784,784,784,784,784,784,784,784,784,784,784,784,784,784,784,784,784,785,785,785,785,785,785,785,785,785,783,780,777,773,772,771,771,771,771,770,767,764,760,759,759,759,759,759,759,759,759,759,757,752,746,726,710,677,652,616,547,529,516,511,511,511,512,513,512,507,506,500],"ymouse":[627,627,627,627,627,627,627,627,627,627,627,627,627,627,627,627,627,627,626,626,626,626,626,626,626,626,626,626,626,626,626,626,626,626,626,626,626,626,626,626,626,626,626,626,626,626,626,626,626,625,624,622,619,618,617,617,617,617,617,615,612,610,609,608,608,608,608,608,608,608,608,606,602,596,563,534,474,412,346,240,219,201,192,187,180,164,150,138,124,110,89],"timestamp_mouse":[1,18,39,58,79,100,119,139,159,180,198,220,240,259,280,300,319,339,360,379,398,418,440,458,478,500,518,540,558,578,598,618,639,660,680,699,720,739,759,778,799,818,839,858,880,899,919,938,959,979,999,1020,1040,1058,1079,1099,1119,1138,1160,1179,1200,1218,1239,1259,1280,1298,1319,1340,1358,1378,1400,1419,1438,1458,1479,1499,1519,1539,1559,1580,1598,1620,1640,1658,1678,1700,1719,1739,1760,1779,1799],"xSR":741.5,"ySR":573.95,"xT1":424.9,"yT1":0,"xT2":1058.1,"yT2":0,"toosoon":0,"cond_shown":"Incongruent","ratio_trial":200,"L_num":6,"L_den":20,"R_num":3,"R_den":6,"correct_side":2,"subjID":"Juan Fernando Martinez Aguilera 6","gender":"0","school":"0","age":"11"},{"start_time":1551880711316,"click_time":1551880712459,"finger_time":1551880711979,"fix_duration":1096.7960267292697,"trial":29,"RT":663,"MT":480,"sideResp":1,"stimulus":[],"xmouse":[796,796,796,796,796,796,796,796,797,797,797,797,797,797,797,797,797,797,797,797,797,797,797,797,797,797,797,797,797,797,797,793,765,739,699,666,642,618,603,588,540,530,528,525,523,519,518,518,518,518,515,512,499,498,498,498,497,497],"ymouse":[614,614,614,614,614,614,614,614,614,614,614,614,614,614,615,615,615,615,615,615,615,615,615,615,615,617,618,621,622,622,622,622,590,547,487,436,393,335,294,277,233,220,209,205,199,194,192,191,189,184,171,157,127,114,107,104,101,99],"timestamp_mouse":[8,23,45,62,82,102,123,141,162,183,201,223,243,262,282,302,321,342,361,383,403,422,442,463,482,501,523,542,561,581,602,622,642,663,682,702,723,742,761,783,801,822,842,861,882,903,921,942,961,982,1003,1023,1042,1062,1081,1102,1121,1142],"xSR":741.5,"ySR":573.95,"xT1":424.9,"yT1":0,"xT2":1058.1,"yT2":0,"toosoon":0,"cond_shown":"Congruent","ratio_trial":300,"L_num":20,"L_den":25,"R_num":8,"R_den":16,"correct_side":1,"subjID":"Juan Fernando Martinez Aguilera 6","gender":"0","school":"0","age":"11"},{"start_time":1551880713798,"click_time":1551880715477,"finger_time":1551880714959,"fix_duration":517.4510701070416,"trial":30,"RT":1161,"MT":518,"sideResp":1,"stimulus":[],"xmouse":[798,798,798,798,798,798,798,798,799,800,800,800,800,800,800,800,800,800,800,800,800,800,800,800,800,800,800,800,800,800,800,800,800,800,800,800,800,800,800,800,802,802,802,803,803,803,803,803,803,803,803,803,802,802,801,795,788,774,732,698,667,642,627,614,609,601,584,574,559,553,542,518,482,426,412,410,407,407,411,411,411,411,411,418,425],"ymouse":[609,609,609,609,609,609,611,613,617,618,619,619,619,619,619,619,619,619,619,619,619,619,619,619,619,619,619,619,619,619,619,619,619,619,619,619,619,619,619,619,619,618,617,617,617,617,617,617,617,616,616,615,614,614,612,606,596,585,542,495,451,406,374,333,316,299,275,259,231,222,209,192,166,105,73,64,52,50,47,47,47,47,47,52,61],"timestamp_mouse":[10,20,40,61,79,99,121,140,160,180,200,219,241,261,279,299,320,339,361,379,400,420,441,461,479,501,519,539,560,579,600,619,640,660,680,699,721,740,760,781,800,819,840,861,880,900,919,940,959,979,1001,1021,1039,1059,1079,1101,1121,1140,1160,1179,1200,1220,1240,1260,1279,1299,1321,1340,1359,1379,1400,1421,1441,1460,1479,1501,1519,1540,1560,1580,1599,1620,1640,1660,1679],"xSR":741.5,"ySR":573.95,"xT1":424.9,"yT1":0,"xT2":1058.1,"yT2":0,"toosoon":0,"cond_shown":"Congruent","ratio_trial":100,"L_num":11,"L_den":22,"R_num":4,"R_den":10,"correct_side":1,"subjID":"Juan Fernando Martinez Aguilera 6","gender":"0","school":"0","age":"11"},{"start_time":1551880716629,"click_time":1551880718217,"finger_time":1551880717119,"fix_duration":250,"trial":31,"RT":490,"MT":1098,"sideResp":2,"stimulus":[],"xmouse":[804,802,802,801,800,799,793,791,791,791,791,791,790,790,790,790,789,787,785,783,776,759,751,746,739,736,735,735,735,735,735,736,737,733,716,703,691,685,677,670,663,655,652,649,641,632,614,603,590,574,558,539,537,537,541,551,592,615,637,666,713,837,962,1027,1045,1064,1074,1083,1097,1112,1127,1131,1130,1130,1132,1139,1141,1141,1141,1139],"ymouse":[638,638,638,638,638,638,639,639,639,639,639,639,639,639,639,639,639,637,634,629,620,597,585,578,569,566,565,565,564,563,561,555,543,533,509,494,478,472,467,461,455,447,442,437,423,407,367,345,320,297,276,240,231,228,223,221,220,220,220,220,222,237,248,258,261,262,252,239,222,207,195,166,153,143,130,117,109,105,100,94],"timestamp_mouse":[10,29,50,69,88,108,128,148,169,188,210,229,249,269,289,309,329,349,370,390,409,429,450,469,490,510,528,550,569,590,610,628,649,669,689,708,729,750,769,789,809,828,849,870,890,910,929,948,968,990,1009,1030,1049,1070,1089,1109,1129,1150,1169,1188,1210,1229,1248,1269,1288,1310,1329,1348,1369,1389,1408,1428,1449,1470,1490,1510,1530,1549,1569,1588],"xSR":741.5,"ySR":573.95,"xT1":424.9,"yT1":0,"xT2":1058.1,"yT2":0,"toosoon":0,"cond_shown":"Incongruent","ratio_trial":100,"L_num":6,"L_den":12,"R_num":3,"R_den":5,"correct_side":2,"subjID":"Juan Fernando Martinez Aguilera 6","gender":"0","school":"0","age":"11"},{"start_time":1551880719506,"click_time":1551880720619,"finger_time":1551880720297,"fix_duration":526.1859311192712,"trial":32,"RT":791,"MT":322,"sideResp":1,"stimulus":[],"xmouse":[803,803,803,803,803,803,803,803,803,803,802,802,801,801,801,800,800,800,800,800,800,800,800,800,800,800,800,800,800,800,801,801,801,801,801,801,800,793,783,771,733,708,696,697,701,700,687,657,644,634,624,617,607,565,523,492],"ymouse":[623,623,623,623,623,623,623,623,623,624,625,626,627,627,627,627,627,626,626,626,626,626,626,626,626,626,626,626,626,625,624,623,623,623,623,623,622,615,599,570,499,452,402,372,334,305,281,241,225,210,193,182,167,130,106,85],"timestamp_mouse":[12,40,52,72,91,111,131,153,172,193,211,232,251,272,291,313,331,353,371,391,413,432,451,472,493,513,533,551,571,591,613,633,653,671,692,713,731,751,772,791,812,833,852,871,892,913,932,951,972,993,1011,1032,1052,1073,1092,1113],"xSR":741.5,"ySR":573.95,"xT1":424.9,"yT1":0,"xT2":1058.1,"yT2":0,"toosoon":0,"cond_shown":"Congruent","ratio_trial":100,"L_num":1,"L_den":2,"R_num":18,"R_den":30,"correct_side":2,"subjID":"Juan Fernando Martinez Aguilera 6","gender":"0","school":"0","age":"11"},{"start_time":1551880721849,"click_time":1551880723058,"finger_time":1551880722738,"fix_duration":250,"trial":33,"RT":889,"MT":320,"sideResp":2,"stimulus":[],"xmouse":[794,794,794,794,794,793,793,792,792,792,791,791,791,790,790,790,790,790,791,792,792,792,792,792,792,792,792,792,792,793,794,795,796,796,797,797,801,803,804,804,805,809,817,836,857,909,925,936,954,972,1006,1017,1028,1036,1040,1045,1048,1051,1052,1053,1063],"ymouse":[601,601,601,601,601,602,605,610,615,621,625,627,627,628,628,628,628,624,623,622,622,622,622,621,621,621,621,616,615,612,609,607,605,602,601,600,595,593,591,591,591,590,587,580,567,513,470,434,401,369,302,259,206,180,164,148,140,133,123,112,93],"timestamp_mouse":[8,29,48,69,88,109,128,150,170,188,208,229,249,268,288,309,330,350,369,390,409,429,449,469,490,510,529,550,569,590,610,628,648,670,690,709,729,750,770,790,808,830,850,868,889,909,928,948,969,989,1010,1029,1048,1069,1089,1109,1128,1148,1170,1189,1209],"xSR":741.5,"ySR":573.95,"xT1":424.9,"yT1":0,"xT2":1058.1,"yT2":0,"toosoon":0,"cond_shown":"Incongruent","ratio_trial":200,"L_num":11,"L_den":20,"R_num":3,"R_den":4,"correct_side":2,"subjID":"Juan Fernando Martinez Aguilera 6","gender":"0","school":"0","age":"11"},{"start_time":1551880724692,"click_time":1551880726419,"finger_time":1551880725998,"fix_duration":932.0186075762118,"trial":34,"RT":1306,"MT":421,"sideResp":2,"stimulus":[],"xmouse":[789,789,789,789,790,792,793,793,793,793,793,793,793,793,793,793,793,793,793,793,793,793,793,793,793,793,793,793,793,793,793,793,793,793,793,793,793,793,793,793,793,793,793,793,793,793,793,793,793,793,793,793,793,793,793,793,793,793,793,793,793,793,797,819,836,849,859,870,895,918,947,974,1000,1015,1025,1037,1059,1080,1102,1102,1102,1102,1102,1102,1102,1102,1106],"ymouse":[634,634,634,635,636,638,639,639,639,639,639,639,639,639,639,639,639,639,639,639,639,639,639,639,639,639,639,639,639,639,639,639,639,639,639,639,639,639,639,639,639,639,639,639,639,640,640,640,640,640,640,640,640,640,640,640,640,640,640,640,640,640,640,632,624,613,603,585,529,492,451,412,367,330,314,293,246,202,160,155,152,148,148,138,128,113,98],"timestamp_mouse":[20,31,45,67,87,105,126,146,165,187,205,225,246,265,285,306,325,346,367,385,406,427,446,466,487,506,527,547,566,585,605,625,645,667,685,705,725,745,766,787,806,826,846,866,886,905,926,946,966,985,1006,1026,1047,1065,1086,1105,1126,1146,1167,1185,1205,1227,1246,1267,1287,1306,1327,1347,1366,1387,1405,1425,1446,1466,1487,1506,1526,1546,1565,1585,1607,1626,1647,1666,1687,1706,1727],"xSR":741.5,"ySR":573.95,"xT1":424.9,"yT1":0,"xT2":1058.1,"yT2":0,"toosoon":0,"cond_shown":"Incongruent","ratio_trial":300,"L_num":13,"L_den":26,"R_num":12,"R_den":15,"correct_side":2,"subjID":"Juan Fernando Martinez Aguilera 6","gender":"0","school":"0","age":"11"},{"start_time":1551880728644,"click_time":1551880731197,"finger_time":1551880731076,"fix_duration":1305.5561771251528,"trial":35,"RT":2432,"MT":121,"sideResp":1,"stimulus":[],"xmouse":[799,799,799,799,799,799,799,799,799,799,798,798,798,798,798,798,798,798,798,798,798,798,798,798,798,798,798,798,798,798,798,798,798,798,798,798,798,798,798,798,798,798,798,798,798,798,798,798,798,798,798,798,798,798,798,798,798,798,798,798,798,798,798,798,798,798,798,798,798,798,798,798,798,798,798,798,798,798,799,801,801,802,802,802,802,802,802,802,802,802,802,802,802,802,802,802,803,803,803,803,803,803,803,803,803,803,803,803,803,803,803,803,803,803,803,803,803,803,802,800,774,757,724,658,619,566,532,501],"ymouse":[620,620,620,620,620,620,620,620,621,621,621,621,621,621,621,621,621,621,621,621,621,621,621,621,621,621,621,621,621,621,621,621,621,621,621,621,621,621,621,621,621,621,621,621,621,621,621,621,621,621,621,621,621,621,621,621,621,621,621,621,621,621,621,621,621,621,621,621,621,621,621,621,621,621,621,621,621,621,621,620,620,620,620,620,620,620,620,620,620,620,620,620,620,620,620,620,619,619,619,619,619,619,619,619,619,619,619,619,619,619,619,619,619,619,619,619,619,619,618,616,593,558,487,353,266,152,98,54],"timestamp_mouse":[19,46,54,74,94,112,133,154,174,193,214,233,253,273,293,313,333,352,373,394,412,433,452,473,492,512,533,553,574,593,613,633,652,673,692,713,733,752,773,792,813,833,853,873,892,914,933,953,974,994,1013,1033,1053,1074,1092,1112,1133,1153,1173,1193,1213,1232,1252,1272,1293,1313,1333,1353,1374,1394,1414,1433,1453,1473,1492,1513,1533,1552,1572,1592,1613,1632,1652,1674,1692,1712,1734,1752,1773,1794,1812,1834,1852,1874,1893,1914,1932,1953,1972,1993,2013,2034,2054,2073,2094,2112,2133,2154,2173,2192,2213,2233,2253,2273,2292,2314,2332,2353,2373,2394,2414,2432,2452,2474,2494,2513,2532,2553],"xSR":741.5,"ySR":573.95,"xT1":424.9,"yT1":0,"xT2":1058.1,"yT2":0,"toosoon":0,"cond_shown":"Incongruent","ratio_trial":300,"L_num":1,"L_den":2,"R_num":2,"R_den":10,"correct_side":1,"subjID":"Juan Fernando Martinez Aguilera 6","gender":"0","school":"0","age":"11"},{"start_time":1551880733077,"click_time":1551880734758,"finger_time":1551880734458,"fix_duration":759.2196019766925,"trial":36,"RT":1381,"MT":300,"sideResp":1,"stimulus":[],"xmouse":[798,798,798,798,798,798,798,798,798,798,798,797,797,795,793,792,792,792,792,792,792,792,792,792,792,792,792,792,792,792,792,792,792,792,792,792,792,792,792,792,792,792,792,792,791,791,791,791,791,791,791,791,791,791,791,791,791,791,791,791,791,791,791,791,791,791,786,780,766,729,670,655,642,638,634,621,612,604,593,581,552,548,546,546,523],"ymouse":[626,626,626,626,628,628,628,628,628,628,628,629,630,630,631,631,631,631,631,631,631,631,631,631,631,631,631,631,631,631,631,631,631,631,631,631,631,631,631,631,631,631,631,631,631,631,631,631,631,631,631,631,631,631,631,631,631,631,631,631,631,631,631,631,631,631,624,617,594,535,422,396,368,320,281,237,217,195,166,141,90,81,79,79,76],"timestamp_mouse":[1,19,40,61,80,101,119,139,161,179,199,220,241,259,280,299,321,340,360,381,399,419,440,460,479,500,521,541,560,580,601,620,641,659,680,699,720,739,760,780,799,821,840,859,880,900,919,941,960,980,1000,1021,1039,1059,1080,1100,1120,1139,1159,1181,1201,1219,1241,1261,1279,1299,1320,1341,1361,1381,1401,1420,1440,1460,1480,1500,1521,1539,1560,1580,1601,1621,1640,1660,1681],"xSR":741.5,"ySR":573.95,"xT1":424.9,"yT1":0,"xT2":1058.1,"yT2":0,"toosoon":0,"cond_shown":"Incongruent","ratio_trial":300,"L_num":8,"L_den":10,"R_num":9,"R_den":18,"correct_side":1,"subjID":"Juan Fernando Martinez Aguilera 6","gender":"0","school":"0","age":"11"},{"start_time":1551880736380,"click_time":1551880738497,"finger_time":1551880738357,"fix_duration":822.2949787147264,"trial":37,"RT":1977,"MT":140,"sideResp":1,"stimulus":[],"xmouse":[766,766,766,766,766,766,766,766,766,766,766,766,766,766,766,766,766,766,767,767,768,768,768,768,768,768,768,768,768,768,768,768,768,768,768,768,768,768,768,768,768,768,768,768,768,768,768,768,768,768,768,768,768,768,768,768,768,768,768,768,768,768,768,768,768,768,768,768,768,768,768,768,768,768,768,768,768,768,768,768,768,768,768,768,768,768,768,768,768,768,768,768,768,768,769,769,765,750,720,644,620,601,584,558,487,446],"ymouse":[619,619,619,619,619,619,619,619,619,619,619,619,619,619,619,619,619,619,619,619,619,619,619,619,619,619,619,619,619,619,619,619,619,619,619,619,619,619,619,619,619,619,619,619,619,619,619,619,619,619,619,619,619,619,619,619,619,619,619,619,619,619,619,619,619,619,619,619,619,619,619,619,619,619,619,619,619,619,619,619,619,619,619,619,619,619,619,619,619,619,619,619,619,619,619,614,602,581,539,416,369,335,297,251,124,52],"timestamp_mouse":[34,37,58,76,98,117,136,157,176,196,217,237,257,278,298,318,337,358,376,396,418,438,456,478,498,516,537,558,578,598,616,636,658,678,696,718,738,758,777,797,818,838,858,877,897,916,936,956,977,998,1017,1037,1057,1077,1098,1117,1138,1156,1176,1198,1216,1238,1258,1276,1297,1317,1338,1357,1377,1397,1416,1437,1458,1476,1496,1517,1538,1557,1578,1596,1618,1637,1657,1678,1698,1718,1736,1757,1777,1798,1818,1837,1858,1876,1898,1918,1937,1958,1977,1996,2017,2038,2057,2077,2096,2117],"xSR":741.5,"ySR":573.95,"xT1":424.9,"yT1":0,"xT2":1058.1,"yT2":0,"toosoon":0,"cond_shown":"Congruent","ratio_trial":100,"L_num":3,"L_den":20,"R_num":4,"R_den":16,"correct_side":2,"subjID":"Juan Fernando Martinez Aguilera 6","gender":"0","school":"0","age":"11"},{"start_time":1551880740889,"click_time":1551880742017,"finger_time":1551880741776,"fix_duration":1491.2724406066823,"trial":38,"RT":887,"MT":241,"sideResp":1,"stimulus":[],"xmouse":[803,803,803,803,803,803,803,803,803,803,803,803,803,803,803,803,803,803,803,803,803,803,803,803,803,803,803,803,803,803,803,803,803,803,803,803,803,803,803,803,800,794,783,765,671,632,613,603,577,539,521,518,518,518,521,521,521],"ymouse":[626,626,626,626,626,626,626,626,626,626,626,626,626,626,626,626,626,626,626,626,626,626,626,626,626,626,626,626,626,626,626,626,626,626,626,626,626,626,626,626,626,624,620,609,554,526,509,490,410,317,257,220,196,176,142,119,96],"timestamp_mouse":[11,29,47,69,89,109,127,148,168,189,208,229,247,269,289,307,328,347,367,389,409,427,458,467,487,509,529,548,568,587,607,628,649,667,688,707,728,748,768,788,809,828,848,869,887,907,929,948,969,987,1007,1028,1049,1069,1088,1109,1128],"xSR":741.5,"ySR":573.95,"xT1":424.9,"yT1":0,"xT2":1058.1,"yT2":0,"toosoon":0,"cond_shown":"Congruent","ratio_trial":300,"L_num":20,"L_den":25,"R_num":14,"R_den":28,"correct_side":1,"subjID":"Juan Fernando Martinez Aguilera 6","gender":"0","school":"0","age":"11"},{"start_time":1551880743875,"click_time":1551880746097,"finger_time":1551880745777,"fix_duration":976.1355810079314,"trial":39,"RT":1902,"MT":320,"sideResp":1,"stimulus":[],"xmouse":[796,796,796,796,796,796,796,796,796,796,796,796,796,795,795,795,795,795,795,795,795,795,795,795,795,795,795,795,795,795,795,795,795,795,795,795,795,795,794,794,794,794,794,794,794,794,794,794,794,794,794,794,794,794,794,794,794,794,794,794,794,794,794,794,794,794,794,794,794,794,794,794,794,794,794,794,794,794,794,794,794,794,794,794,794,794,794,794,794,793,785,777,768,760,754,745,726,706,690,677,651,641,631,620,604,574,563,558,552,537,491,487],"ymouse":[607,607,607,607,607,607,607,607,607,607,607,607,607,609,609,609,609,609,609,609,609,609,609,609,609,609,609,609,609,609,609,609,609,609,609,609,609,609,610,610,610,610,610,610,610,610,610,610,610,610,610,610,610,610,610,610,610,610,610,610,610,610,610,610,611,611,611,611,611,611,611,611,611,611,611,611,611,611,611,611,611,611,611,611,611,611,611,611,611,611,611,611,610,605,586,554,486,413,361,320,249,228,209,193,176,143,132,126,124,118,100,97],"timestamp_mouse":[8,23,48,61,83,101,123,142,163,181,202,222,242,261,282,301,323,342,361,383,402,422,442,462,483,501,522,542,562,581,603,623,643,661,682,701,723,741,761,783,801,821,843,861,881,901,921,941,961,982,1002,1022,1042,1062,1081,1101,1123,1142,1161,1181,1203,1221,1242,1261,1282,1301,1321,1342,1361,1382,1402,1423,1441,1462,1483,1502,1522,1541,1561,1582,1601,1622,1642,1663,1682,1702,1723,1743,1763,1782,1802,1823,1843,1862,1883,1902,1922,1943,1963,1982,2003,2022,2041,2061,2082,2102,2122,2141,2162,2182,2202,2222],"xSR":741.5,"ySR":573.95,"xT1":424.9,"yT1":0,"xT2":1058.1,"yT2":0,"toosoon":0,"cond_shown":"Incongruent","ratio_trial":300,"L_num":3,"L_den":6,"R_num":4,"R_den":20,"correct_side":1,"subjID":"Juan Fernando Martinez Aguilera 6","gender":"0","school":"0","age":"11"},{"start_time":1551880748363,"click_time":1551880749658,"finger_time":1551880749296,"fix_duration":1264.2324975577008,"trial":40,"RT":933,"MT":362,"sideResp":1,"stimulus":[],"xmouse":[786,786,786,786,786,786,786,786,787,787,787,787,787,787,787,787,787,787,788,790,791,791,791,791,791,791,791,791,791,791,792,794,794,794,794,794,794,794,795,795,793,792,791,786,773,770,770,768,750,713,626,590,562,545,540,535,532,529,523,513,509,507,506,504,494],"ymouse":[615,615,615,615,615,615,615,615,615,615,615,615,615,615,615,615,615,615,615,614,613,613,613,613,613,613,613,613,613,613,613,613,613,613,613,613,613,613,613,613,614,614,614,614,608,597,555,511,453,389,296,270,255,242,236,228,215,203,187,154,139,125,115,106,87],"timestamp_mouse":[17,48,54,75,93,115,134,154,175,193,213,233,254,273,293,314,334,354,374,394,415,434,453,474,494,514,533,555,573,593,615,634,654,673,693,715,734,753,774,793,815,835,853,874,895,914,933,954,975,994,1014,1034,1055,1074,1093,1114,1133,1154,1173,1195,1214,1234,1255,1273,1295],"xSR":741.5,"ySR":573.95,"xT1":424.9,"yT1":0,"xT2":1058.1,"yT2":0,"toosoon":0,"cond_shown":"Incongruent","ratio_trial":200,"L_num":3,"L_den":4,"R_num":11,"R_den":20,"correct_side":1,"subjID":"Juan Fernando Martinez Aguilera 6","gender":"0","school":"0","age":"11"},{"start_time":1551880751940,"click_time":1551880752938,"finger_time":1551880752577,"fix_duration":1460.2286576481931,"trial":41,"RT":637,"MT":361,"sideResp":1,"stimulus":[],"xmouse":[794,794,794,794,794,794,794,796,797,798,798,798,798,798,798,798,798,798,798,798,798,798,798,798,798,798,798,792,777,762,750,728,715,698,677,647,621,594,570,546,525,504,501,501,507,514,519,519,519,514],"ymouse":[604,604,604,604,604,604,604,604,605,605,605,605,605,605,605,605,605,605,605,605,605,605,605,605,605,605,605,605,600,593,584,564,548,526,496,423,372,333,291,251,214,173,164,158,151,144,124,112,100,88],"timestamp_mouse":[16,38,56,78,97,116,138,158,177,197,217,236,257,278,296,317,338,357,377,398,416,438,457,477,497,516,536,558,577,598,617,637,656,678,698,717,736,757,777,796,817,837,858,876,896,917,937,957,976,997],"xSR":741.5,"ySR":573.95,"xT1":424.9,"yT1":0,"xT2":1058.1,"yT2":0,"toosoon":0,"cond_shown":"Incongruent","ratio_trial":200,"L_num":4,"L_den":6,"R_num":14,"R_den":30,"correct_side":1,"subjID":"Juan Fernando Martinez Aguilera 6","gender":"0","school":"0","age":"11"},{"start_time":1551880753928,"click_time":1551880755997,"finger_time":1551880755677,"fix_duration":250,"trial":42,"RT":1749,"MT":320,"sideResp":1,"stimulus":[],"xmouse":[770,770,770,770,770,770,770,770,770,770,770,771,773,774,774,775,775,776,776,776,776,776,776,776,776,776,776,777,778,778,778,778,778,778,778,778,778,778,778,778,778,778,778,778,778,778,778,778,778,778,778,778,778,778,778,778,778,778,778,778,778,778,778,778,778,778,778,778,778,778,778,778,778,778,778,778,778,778,778,778,778,778,778,778,778,778,776,733,688,633,592,569,556,555,553,548,530,522,522,522,522,523,523,520],"ymouse":[615,615,615,615,615,615,615,615,615,615,615,615,615,615,615,615,615,615,615,615,615,615,615,615,615,615,615,615,615,615,615,615,615,615,615,615,615,615,615,615,615,615,615,615,615,615,615,615,615,615,615,615,615,615,615,615,615,615,615,615,615,615,615,615,615,615,615,615,615,615,615,615,615,615,615,615,615,615,615,615,615,615,615,615,615,614,611,576,529,467,414,370,330,318,304,283,223,179,163,152,141,130,106,91],"timestamp_mouse":[15,30,61,70,89,109,129,149,168,188,208,228,249,270,289,309,329,349,369,388,409,429,448,470,488,508,530,549,569,589,608,628,648,670,689,709,729,748,768,789,809,828,850,869,888,909,929,950,969,988,1008,1030,1049,1068,1089,1108,1130,1148,1168,1188,1210,1229,1248,1268,1289,1309,1330,1348,1368,1388,1409,1428,1449,1469,1489,1510,1530,1548,1568,1589,1608,1628,1649,1669,1689,1709,1730,1749,1769,1789,1810,1829,1850,1868,1889,1910,1930,1949,1968,1990,2009,2028,2048,2069],"xSR":741.5,"ySR":573.95,"xT1":424.9,"yT1":0,"xT2":1058.1,"yT2":0,"toosoon":0,"cond_shown":"Incongruent","ratio_trial":100,"L_num":6,"L_den":10,"R_num":7,"R_den":14,"correct_side":1,"subjID":"Juan Fernando Martinez Aguilera 6","gender":"0","school":"0","age":"11"},{"start_time":1551880758536,"click_time":1551880760978,"finger_time":1551880760537,"fix_duration":1477.276867780942,"trial":43,"RT":2001,"MT":441,"sideResp":2,"stimulus":[],"xmouse":[778,778,778,778,778,778,778,778,778,778,778,778,778,778,778,778,778,778,778,778,778,778,778,778,778,778,778,778,778,778,778,778,778,778,778,778,778,778,778,778,778,778,778,778,778,778,778,778,778,778,778,778,778,778,778,778,778,778,778,778,778,778,778,778,779,779,780,780,780,781,781,781,781,781,781,781,781,781,781,781,781,781,782,783,783,784,786,786,786,787,787,788,788,789,789,789,789,790,790,794,802,816,857,884,908,928,959,979,990,994,997,1009,1010,1010,1011,1015,1020,1026,1034,1037,1040,1047,1060],"ymouse":[602,602,602,602,602,602,602,602,602,602,602,602,602,602,602,602,602,602,602,602,602,602,602,602,601,601,601,601,601,601,601,601,601,601,601,601,601,601,601,601,601,601,601,601,601,601,601,601,601,601,601,601,601,601,601,601,601,601,601,601,601,601,601,601,600,600,600,599,599,598,598,598,598,598,598,598,598,598,598,597,597,597,597,596,596,596,594,593,592,592,590,589,588,587,587,586,586,586,584,580,571,556,528,508,487,468,415,372,331,297,277,234,212,189,168,150,137,122,109,105,100,91,79],"timestamp_mouse":[8,22,45,62,80,101,120,141,161,181,201,221,240,262,280,300,321,340,362,381,400,420,441,462,481,501,522,542,561,582,600,622,642,661,682,700,720,742,760,780,802,820,840,861,881,901,922,941,961,982,1000,1021,1042,1061,1082,1100,1120,1141,1161,1182,1200,1220,1241,1262,1280,1300,1322,1342,1360,1381,1402,1422,1441,1462,1481,1500,1522,1542,1562,1580,1600,1622,1641,1662,1682,1700,1721,1742,1762,1782,1801,1821,1841,1861,1881,1902,1921,1941,1962,1982,2001,2020,2041,2061,2081,2101,2121,2141,2161,2181,2202,2221,2240,2261,2281,2301,2321,2342,2362,2381,2402,2422,2442],"xSR":741.5,"ySR":573.95,"xT1":424.9,"yT1":0,"xT2":1058.1,"yT2":0,"toosoon":0,"cond_shown":"Incongruent","ratio_trial":100,"L_num":12,"L_den":30,"R_num":2,"R_den":4,"correct_side":2,"subjID":"Juan Fernando Martinez Aguilera 6","gender":"0","school":"0","age":"11"},{"start_time":1551880762998,"click_time":1551880764898,"finger_time":1551880763958,"fix_duration":1037.0437957206498,"trial":44,"RT":960,"MT":940,"sideResp":1,"stimulus":[],"xmouse":[787,787,787,787,788,788,788,788,788,788,788,788,788,790,790,790,790,790,790,790,790,790,790,790,790,791,792,793,793,793,793,793,793,793,793,793,793,793,793,793,793,793,793,793,792,782,773,765,760,754,753,753,753,755,755,755,755,754,752,744,740,738,737,737,737,737,743,755,783,786,786,783,768,703,679,664,654,654,659,664,668,669,669,668,658,642,629,616,604,572,556,545,544,543,534,524],"ymouse":[619,619,619,619,619,619,619,619,619,619,619,619,618,618,618,617,617,617,617,617,617,617,617,617,617,616,615,615,615,615,615,615,615,615,615,615,615,615,615,615,615,615,615,615,612,603,590,575,557,529,525,520,518,514,513,511,510,507,505,493,485,482,479,479,479,479,482,495,521,526,526,527,524,481,459,435,398,376,321,293,274,257,241,225,195,167,151,139,128,110,103,97,96,96,93,88],"timestamp_mouse":[1,19,39,59,79,98,119,139,158,178,198,218,240,259,280,299,318,338,359,380,400,418,440,459,480,499,518,539,560,580,599,619,640,659,679,699,720,739,760,779,798,820,839,859,879,900,919,938,960,979,998,1020,1040,1060,1079,1099,1118,1139,1159,1179,1200,1219,1240,1260,1279,1300,1319,1339,1358,1378,1399,1420,1440,1459,1478,1498,1519,1540,1559,1579,1598,1618,1638,1659,1679,1698,1718,1739,1759,1778,1800,1820,1839,1859,1878,1899],"xSR":741.5,"ySR":573.95,"xT1":424.9,"yT1":0,"xT2":1058.1,"yT2":0,"toosoon":0,"cond_shown":"Incongruent","ratio_trial":100,"L_num":2,"L_den":4,"R_num":6,"R_den":15,"correct_side":1,"subjID":"Juan Fernando Martinez Aguilera 6","gender":"0","school":"0","age":"11"},{"start_time":1551880766162,"click_time":1551880767896,"finger_time":1551880767597,"fix_duration":424.8869449702406,"trial":45,"RT":1435,"MT":299,"sideResp":1,"stimulus":[],"xmouse":[776,776,776,776,776,776,776,776,776,776,776,776,776,776,776,776,776,776,776,776,776,776,776,776,776,776,776,776,776,776,776,776,776,776,776,776,776,776,776,776,776,776,776,776,776,776,776,776,776,776,776,776,776,776,776,776,776,776,776,776,776,776,776,776,776,776,776,776,776,774,761,741,715,703,695,695,695,688,676,635,611,586,566,552,534,528,524],"ymouse":[599,599,599,599,599,599,599,599,599,599,599,599,599,599,599,599,599,599,599,599,599,599,599,599,599,599,599,599,599,599,599,599,599,599,599,599,599,599,599,599,599,599,599,599,599,599,599,599,599,599,599,599,599,599,599,599,599,599,599,599,599,599,599,599,599,599,599,599,599,600,595,584,567,555,532,510,502,471,444,373,331,272,228,198,143,118,99],"timestamp_mouse":[14,34,55,76,94,116,134,156,176,194,214,235,254,275,295,314,335,356,376,395,415,436,456,475,495,516,534,554,575,595,616,635,655,674,695,714,736,754,776,796,814,834,856,875,895,916,935,955,975,996,1015,1035,1055,1074,1096,1114,1136,1155,1175,1195,1215,1236,1256,1274,1296,1316,1336,1355,1374,1395,1416,1435,1455,1476,1496,1514,1534,1555,1576,1595,1614,1635,1655,1675,1695,1715,1734],"xSR":741.5,"ySR":573.95,"xT1":424.9,"yT1":0,"xT2":1058.1,"yT2":0,"toosoon":0,"cond_shown":"Incongruent","ratio_trial":100,"L_num":4,"L_den":8,"R_num":8,"R_den":20,"correct_side":1,"subjID":"Juan Fernando Martinez Aguilera 6","gender":"0","school":"0","age":"11"},{"start_time":1551880770000,"click_time":1551880771298,"finger_time":1551880770957,"fix_duration":1042.9750605212596,"trial":46,"RT":957,"MT":341,"sideResp":2,"stimulus":[],"xmouse":[772,772,772,772,772,772,772,772,772,772,772,772,772,772,772,772,772,774,774,775,775,775,775,775,775,775,775,775,775,775,776,776,777,778,778,778,779,781,781,783,783,784,788,793,795,807,820,857,886,922,969,1022,1097,1106,1113,1117,1117,1117,1117,1117,1117,1117,1117,1115,1114],"ymouse":[601,601,601,601,601,601,601,601,601,601,601,601,601,601,601,601,601,601,601,601,601,601,601,601,601,601,601,601,601,601,601,601,601,601,601,601,601,601,601,601,600,600,599,596,595,589,583,557,529,482,425,364,262,235,206,170,154,138,137,136,134,129,120,104,93],"timestamp_mouse":[17,41,57,76,97,118,138,157,177,196,216,237,258,277,297,316,337,357,377,398,416,436,457,476,496,518,536,556,578,597,618,636,658,677,698,717,737,756,778,796,817,838,857,878,898,917,938,957,977,996,1018,1037,1057,1076,1096,1117,1137,1157,1177,1196,1217,1238,1257,1277,1297],"xSR":741.5,"ySR":573.95,"xT1":424.9,"yT1":0,"xT2":1058.1,"yT2":0,"toosoon":0,"cond_shown":"Congruent","ratio_trial":200,"L_num":7,"L_den":15,"R_num":18,"R_den":27,"correct_side":2,"subjID":"Juan Fernando Martinez Aguilera 6","gender":"0","school":"0","age":"11"},{"start_time":1551880774418,"click_time":1551880776118,"finger_time":1551880774618,"fix_duration":999.8238342578142,"trial":47,"RT":200,"MT":1500,"sideResp":2,"stimulus":[],"xmouse":[804,810,809,797,791,789,788,788,788,788,788,788,788,789,789,786,785,784,784,784,784,784,784,788,800,812,820,824,825,818,806,780,776,776,776,776,776,776,776,777,778,781,782,782,782,782,782,783,783,783,783,783,787,789,790,794,797,810,821,834,850,870,887,896,903,912,921,938,948,962,974,987,993,996,999,1002,1007,1017,1022,1024,1028,1042,1053,1057,1062],"ymouse":[600,599,608,618,625,634,641,663,670,675,675,675,675,668,646,629,623,621,618,618,618,611,595,581,566,555,550,549,552,575,596,630,634,634,634,634,633,631,629,627,626,625,625,625,625,625,625,625,625,625,625,625,622,620,619,613,606,570,541,509,462,400,374,362,352,343,334,316,301,282,264,235,205,176,161,146,132,111,101,95,90,82,78,75,73],"timestamp_mouse":[20,44,58,79,99,119,139,159,179,200,220,240,259,278,299,319,339,358,379,400,419,440,459,479,499,519,538,560,579,599,618,640,658,678,699,719,738,760,780,800,819,838,858,878,900,919,939,958,978,1000,1019,1040,1059,1079,1100,1119,1138,1159,1178,1199,1219,1240,1258,1280,1298,1319,1339,1360,1379,1398,1419,1439,1459,1479,1498,1519,1538,1558,1578,1599,1619,1640,1659,1678,1699],"xSR":741.5,"ySR":573.95,"xT1":424.9,"yT1":0,"xT2":1058.1,"yT2":0,"toosoon":0,"cond_shown":"Congruent","ratio_trial":200,"L_num":14,"L_den":28,"R_num":6,"R_den":20,"correct_side":1,"subjID":"Juan Fernando Martinez Aguilera 6","gender":"0","school":"0","age":"11"},{"start_time":1551880778489,"click_time":1551880780358,"finger_time":1551880780137,"fix_duration":970.7883952983158,"trial":48,"RT":1648,"MT":221,"sideResp":1,"stimulus":[],"xmouse":[764,764,764,764,764,766,767,767,767,767,767,767,767,767,767,767,767,767,767,767,767,768,768,768,768,768,768,768,768,768,770,770,770,770,770,770,770,770,770,770,770,770,770,770,770,770,770,770,770,770,770,770,770,770,770,770,770,770,770,770,770,770,770,770,770,770,770,770,770,770,770,770,770,770,770,770,770,770,770,770,770,759,729,627,593,586,587,597,603,575,531,486,462,452],"ymouse":[612,612,612,612,612,612,611,611,611,611,611,611,611,611,611,611,611,611,611,611,611,611,611,611,611,611,611,611,611,611,611,611,611,611,611,611,611,611,611,611,611,611,611,611,611,611,611,611,611,611,611,611,611,611,611,611,611,611,611,611,611,611,611,611,611,611,611,611,611,611,611,611,611,611,611,611,611,611,611,611,607,594,565,478,447,425,405,383,358,282,233,187,151,99],"timestamp_mouse":[9,27,48,69,91,107,127,147,168,188,207,227,247,269,287,307,327,348,368,387,407,429,449,467,487,509,527,548,569,589,608,628,647,669,688,708,727,748,769,787,808,827,848,869,887,908,928,948,967,989,1008,1028,1048,1069,1088,1109,1129,1147,1167,1188,1207,1227,1249,1269,1287,1309,1327,1349,1369,1388,1409,1427,1448,1468,1488,1507,1527,1549,1567,1587,1608,1627,1648,1669,1687,1708,1729,1749,1768,1787,1809,1828,1847,1868],"xSR":741.5,"ySR":573.95,"xT1":424.9,"yT1":0,"xT2":1058.1,"yT2":0,"toosoon":0,"cond_shown":"Incongruent","ratio_trial":100,"L_num":8,"L_den":20,"R_num":1,"R_den":2,"correct_side":2,"subjID":"Juan Fernando Martinez Aguilera 6","gender":"0","school":"0","age":"11"},{"start_time":1551880783013,"click_time":1551880784477,"finger_time":1551880784077,"fix_duration":1154.9114208344456,"trial":49,"RT":1064,"MT":400,"sideResp":2,"stimulus":[],"xmouse":[783,783,783,783,783,784,786,786,786,786,786,786,786,786,786,785,785,785,785,785,785,785,785,785,785,785,785,785,785,785,785,785,785,785,785,785,785,785,785,785,785,785,785,785,785,785,785,785,785,786,789,791,800,844,865,888,907,925,968,984,997,1010,1030,1031,1031,1031,1032,1037,1049,1057,1065,1073,1083,1098],"ymouse":[604,604,604,604,604,604,603,603,603,603,603,603,603,603,604,605,605,605,605,605,605,605,605,605,605,605,605,605,605,605,605,605,605,605,605,605,605,605,605,604,604,604,604,603,603,603,603,603,603,603,603,603,603,597,586,573,557,538,477,448,424,404,365,322,291,262,237,213,168,148,131,120,110,99],"timestamp_mouse":[8,25,61,64,84,103,124,144,164,184,204,225,243,264,284,304,323,345,365,383,403,424,443,465,484,504,524,544,563,583,604,624,643,664,683,704,724,745,764,783,805,825,844,865,884,904,923,944,965,983,1004,1024,1045,1064,1085,1104,1123,1143,1164,1185,1205,1223,1245,1263,1284,1304,1324,1343,1363,1384,1403,1423,1445,1464],"xSR":741.5,"ySR":573.95,"xT1":424.9,"yT1":0,"xT2":1058.1,"yT2":0,"toosoon":0,"cond_shown":"Incongruent","ratio_trial":200,"L_num":7,"L_den":15,"R_num":4,"R_den":6,"correct_side":2,"subjID":"Juan Fernando Martinez Aguilera 6","gender":"0","school":"0","age":"11"},{"start_time":1551880785904,"click_time":1551880788458,"finger_time":1551880787938,"fix_duration":686.8422181908082,"trial":50,"RT":2034,"MT":520,"sideResp":1,"stimulus":[],"xmouse":[784,786,787,787,789,789,789,789,789,790,790,791,793,793,793,794,794,794,794,794,794,794,794,794,794,794,794,794,794,794,794,794,794,794,794,794,794,794,794,794,794,794,794,794,794,794,794,794,794,794,794,794,794,794,794,794,794,794,794,794,794,794,794,793,793,793,793,793,793,793,793,793,793,793,793,792,792,792,792,792,791,791,791,791,791,791,791,791,791,791,791,790,789,785,781,778,773,771,772,775,778,782,782,785,787,790,795,798,800,800,796,785,766,700,626,530,437,348,344,344,342,340,340,351,369,389,405,433],"ymouse":[607,605,604,604,604,604,604,604,604,604,603,603,602,602,601,601,601,601,601,601,601,601,601,601,601,601,601,601,601,601,601,601,601,601,601,601,601,601,601,601,601,601,601,601,601,601,601,601,601,601,601,601,601,601,601,601,601,601,601,601,602,602,602,602,602,602,602,602,603,603,603,603,603,603,603,603,603,603,603,603,604,604,604,604,604,604,604,604,604,604,604,604,604,604,601,599,594,587,581,577,575,573,572,571,569,567,564,561,558,557,554,549,542,496,434,339,241,121,78,58,47,41,38,25,22,21,21,27],"timestamp_mouse":[13,32,53,74,93,113,132,152,173,194,212,233,253,274,293,313,332,353,374,394,413,433,452,474,492,512,533,553,572,593,613,633,654,673,693,713,733,753,773,793,812,833,853,874,894,912,932,953,972,992,1013,1032,1053,1072,1094,1113,1132,1154,1173,1192,1213,1234,1252,1272,1294,1313,1333,1354,1373,1392,1414,1434,1453,1474,1493,1513,1534,1554,1573,1594,1614,1633,1653,1674,1692,1713,1732,1753,1773,1793,1812,1833,1854,1874,1892,1914,1932,1954,1973,1994,2013,2034,2053,2072,2093,2114,2132,2152,2173,2194,2213,2233,2252,2272,2294,2314,2332,2353,2372,2392,2413,2433,2452,2473,2493,2512,2533,2554],"xSR":741.5,"ySR":573.95,"xT1":424.9,"yT1":0,"xT2":1058.1,"yT2":0,"toosoon":0,"cond_shown":"Congruent","ratio_trial":100,"L_num":4,"L_den":8,"R_num":6,"R_den":10,"correct_side":2,"subjID":"Juan Fernando Martinez Aguilera 6","gender":"0","school":"0","age":"11"},{"start_time":1551880790308,"click_time":1551880791956,"finger_time":1551880791557,"fix_duration":509.0262119128731,"trial":51,"RT":1249,"MT":399,"sideResp":1,"stimulus":[],"xmouse":[797,798,798,798,798,799,799,800,801,801,802,802,802,802,803,803,803,803,803,803,803,803,803,803,803,803,803,803,803,803,803,804,804,804,804,805,805,805,805,805,805,805,805,805,805,805,805,805,805,805,805,805,805,805,805,805,805,805,805,799,793,780,736,708,673,639,606,550,522,516,514,513,514,517,523,529,535,536,535,527,520,513,504],"ymouse":[610,609,609,609,609,608,608,606,606,605,605,605,605,605,604,604,604,604,604,604,604,604,604,604,604,604,604,604,603,603,603,603,603,603,603,603,603,603,603,603,603,603,603,603,603,603,603,603,603,603,603,603,603,603,603,603,603,603,603,603,601,598,578,561,534,497,439,309,246,226,211,202,189,184,175,165,152,141,125,113,106,101,95],"timestamp_mouse":[10,29,49,69,88,108,129,149,169,189,209,229,249,269,288,309,328,350,368,388,408,429,449,469,490,508,528,549,569,588,610,628,649,669,689,708,730,748,769,788,809,830,849,869,889,910,930,949,969,988,1008,1029,1050,1070,1088,1109,1129,1148,1168,1189,1210,1228,1249,1268,1289,1309,1329,1349,1369,1389,1408,1429,1449,1468,1488,1508,1528,1549,1570,1588,1609,1628,1648],"xSR":741.5,"ySR":573.95,"xT1":424.9,"yT1":0,"xT2":1058.1,"yT2":0,"toosoon":0,"cond_shown":"Congruent","ratio_trial":100,"L_num":9,"L_den":15,"R_num":8,"R_den":16,"correct_side":1,"subjID":"Juan Fernando Martinez Aguilera 6","gender":"0","school":"0","age":"11"},{"start_time":1551880794003,"click_time":1551880795557,"finger_time":1551880795157,"fix_duration":1125.7084412330985,"trial":52,"RT":1154,"MT":400,"sideResp":1,"stimulus":[],"xmouse":[816,816,816,816,816,816,816,814,813,811,811,811,811,811,811,810,810,809,809,809,809,809,809,809,809,809,809,809,808,805,801,791,782,771,766,764,764,764,764,765,766,767,767,767,768,769,770,772,772,772,772,772,772,772,772,772,764,740,716,693,676,669,669,661,648,627,606,588,586,582,577,565,549,513,506,507,509,505],"ymouse":[606,605,605,605,605,605,605,604,603,602,602,602,602,602,602,603,603,603,604,604,604,604,604,604,604,604,605,605,605,605,605,601,600,595,591,590,590,589,588,587,586,586,586,586,586,587,589,593,594,594,594,594,594,594,594,594,589,571,551,522,484,443,413,340,315,279,245,198,182,168,155,139,127,111,107,105,103,94],"timestamp_mouse":[15,34,53,74,93,113,134,154,174,193,214,233,253,273,294,314,335,354,373,393,414,435,454,473,494,515,534,554,574,593,614,634,655,675,693,714,733,754,775,793,814,835,854,874,894,914,934,954,973,995,1013,1033,1054,1073,1095,1113,1134,1154,1174,1193,1214,1234,1253,1275,1293,1313,1334,1354,1373,1394,1413,1433,1454,1474,1493,1515,1535,1553],"xSR":741.5,"ySR":573.95,"xT1":424.9,"yT1":0,"xT2":1058.1,"yT2":0,"toosoon":0,"cond