[{"start_time":1551881585654,"click_time":1551881587942,"finger_time":1551881587583,"fix_duration":586.6664499954252,"trial":0,"RT":1929,"MT":359,"sideResp":1,"stimulus":"img/750/equaldotsize/L/13_Ratio_750_L_8_R_6.png","xmouse":[799,799,799,799,799,799,799,799,799,799,799,799,799,799,799,799,799,799,799,799,799,799,799,799,799,799,799,799,799,799,799,799,799,799,799,799,799,799,799,799,799,799,799,799,799,799,799,799,799,799,799,799,799,799,799,799,799,799,799,799,799,799,799,799,799,799,799,799,799,799,799,799,799,799,799,799,799,799,799,799,799,800,800,800,800,800,800,800,800,800,800,800,800,800,794,789,776,763,726,711,693,663,615,542,523,508,501,496,485,484,482,478,476,471],"ymouse":[547,547,547,547,547,547,547,547,547,547,547,547,547,547,547,547,547,547,547,547,547,547,547,547,547,547,547,547,547,547,547,547,547,547,547,547,547,547,547,547,547,547,547,547,547,547,547,547,547,547,547,547,547,547,547,547,547,547,547,547,547,547,547,547,547,547,547,547,547,547,547,547,547,547,547,547,547,547,547,547,547,534,518,463,462,462,462,462,462,462,462,462,462,462,461,456,447,438,414,403,390,369,342,295,279,264,251,233,189,174,158,140,121,82],"timestamp_mouse":[9,49,68,88,109,128,148,168,188,209,228,249,268,288,308,328,348,369,389,408,429,449,468,488,508,529,549,569,588,609,628,648,668,688,708,729,748,769,788,809,828,848,868,888,908,929,948,969,989,1009,1029,1049,1069,1088,1108,1129,1149,1169,1190,1209,1229,1248,1268,1288,1308,1329,1348,1368,1388,1409,1429,1449,1468,1488,1508,1529,1549,1569,1588,1609,1628,1648,1669,1688,1708,1729,1749,1768,1788,1808,1828,1848,1868,1888,1908,1929,1948,1969,1988,2008,2028,2049,2068,2088,2108,2128,2148,2169,2188,2207,2228,2248,2269,2288],"xSR":741.5,"ySR":490.1,"xT1":424.9,"yT1":0,"xT2":1058.1,"yT2":0,"toosoon":0,"cond_shown":"equaldotsize","ratio_trial":750,"smaller_num":"6","larger_num":"8","correct_side":1,"subjID":"JuanFernandoMartinez6","gender":"0","age":"11","school":"6","test":{"fix_dur":[250,1500],"timestim":300,"targets_dim":[100,100],"targets_relative_coord":[0.3,0.7],"size_stim":[880,420],"start_dim":[100,100],"size_start":[300,300],"size_fix":60,"samplingrate":20,"img_types":["equaldotsize","equaldotanddens","randomdotsizeEA"],"ratios":[250,500,750,900],"rep_conds":9,"nTrials":120,"trials_to_rest":500,"Trials_order":[114,0,4,105,94,6,73,62,85,101,97,107,95,104,60,44,112,83,111,109,50,21,43,31,41,29,40,15,77,36,93,68,53,37,54,24,9,108,119,25,91,99,69,64,22,92,75,13,46,11,17,2,27,86,90,49,82,100,87,14,5,7,102,89,52,30,56,34,58,55,33,72,8,28,71,88,38,59,70,115,61,20,96,63,1,35,84,48,12,106,80,16,98,74,116,26,78,76,18,113,110,118,10,23,39,103,45,117,57,79,42,3,66,47,65,51,19,81,67,32],"cond_shown":["equaldotsize","equaldotsize","equaldotanddens","equaldotsize","equaldotanddens","equaldotsize","equaldotanddens","randomdotsizeEA","equaldotanddens","randomdotsizeEA","equaldotanddens","randomdotsizeEA","randomdotsizeEA","randomdotsizeEA","equaldotsize","randomdotsizeEA","equaldotanddens","randomdotsizeEA","equaldotsize","equaldotanddens","randomdotsizeEA","equaldotsize","equaldotanddens","equaldotanddens","randomdotsizeEA","randomdotsizeEA","equaldotanddens","equaldotsize","randomdotsizeEA","equaldotsize","equaldotsize","randomdotsizeEA","randomdotsizeEA","equaldotanddens","equaldotsize","equaldotsize","equaldotsize","equaldotsize","randomdotsizeEA","equaldotanddens","equaldotanddens","equaldotsize","equaldotsize","equaldotanddens","equaldotanddens","randomdotsizeEA","equaldotsize","equaldotanddens","equaldotanddens","randomdotsizeEA","randomdotsizeEA","randomdotsizeEA","equaldotsize","randomdotsizeEA","equaldotsize","equaldotanddens","equaldotanddens","equaldotanddens","equaldotsize","randomdotsizeEA","randomdotsizeEA","equaldotanddens","equaldotsize","randomdotsizeEA","equaldotanddens","equaldotsize","randomdotsizeEA","equaldotanddens","equaldotanddens","equaldotanddens","equaldotsize","equaldotsize","randomdotsizeEA","equaldotanddens","randomdotsizeEA","equaldotanddens","randomdotsizeEA","randomdotsizeEA","equaldotanddens","equaldotanddens","equaldotanddens","randomdotsizeEA","equaldotsize","equaldotsize","equaldotanddens","randomdotsizeEA","equaldotsize","equaldotsize","equaldotsize","equaldotanddens","randomdotsizeEA","equaldotanddens","randomdotsizeEA","randomdotsizeEA","randomdotsizeEA","randomdotsizeEA","equaldotsize","equaldotanddens","equaldotsize","randomdotsizeEA","randomdotsizeEA","equaldotanddens","equaldotanddens","randomdotsizeEA","equaldotsize","equaldotanddens","equaldotsize","equaldotsize","equaldotsize","equaldotanddens","equaldotsize","equaldotsize","equaldotsize","randomdotsizeEA","randomdotsizeEA","equaldotsize","equaldotanddens","equaldotsize","equaldotanddens","randomdotsizeEA"],"ratio_trial":[750,250,500,900,900,750,250,250,250,500,250,900,900,750,250,750,500,900,500,250,250,900,750,750,500,500,500,500,500,250,900,750,500,250,750,250,900,250,900,250,750,500,900,500,900,750,500,250,900,900,500,250,500,250,750,250,900,500,500,250,500,750,750,500,500,750,750,900,900,750,900,250,750,500,900,500,250,900,900,750,250,750,250,500,250,900,250,250,250,900,750,500,250,250,750,250,750,500,750,500,250,900,900,900,500,750,900,900,900,750,750,500,750,900,500,500,750,900,750,750],"smaller_num":["6","3","6","9","18","15","2","3","6","6","6","18","18","6","2","6","9","18","9","3","3","9","18","3","2","2","2","4","9","2","18","15","2","6","3","3","18","6","9","3","3","1","18","2","9","3","3","2","18","9","3","3","6","2","15","6","9","10","1","4","2","3","15","4","1","6","15","18","18","3","9","2","15","9","9","6","4","9","9","6","2","3","3","9","6","18","5","3","3","9","15","1","2","2","3","6","9","9","6","6","2","18","18","18","2","6","18","18","18","6","15","10","15","18","6","5","3","18","3","18"],"larger_num":["8","12","12","10","20","20","8","12","24","12","24","20","20","8","8","8","18","20","18","12","12","10","24","4","4","4","4","8","18","8","20","20","4","24","4","12","20","24","10","12","4","2","20","4","10","4","6","8","20","10","6","12","12","8","20","24","10","20","2","16","4","4","20","8","2","8","20","20","20","4","10","8","20","18","10","12","16","10","10","8","8","4","12","18","24","20","20","12","12","10","20","2","8","8","4","24","12","18","8","12","8","20","20","20","4","8","20","20","20","8","20","20","20","20","12","10","4","20","4","24"],"correct_side":[1,2,1,1,1,2,1,1,1,1,1,2,2,1,1,1,1,1,2,2,2,2,1,1,1,2,2,1,2,1,1,2,2,1,1,2,2,2,2,2,1,2,1,2,1,2,2,2,1,2,2,2,1,1,1,2,1,2,2,1,1,2,2,1,2,2,1,1,2,1,2,1,1,1,1,1,1,1,2,2,2,1,1,2,2,1,2,2,2,2,2,2,1,1,2,1,2,2,1,1,1,2,2,1,1,2,1,1,1,1,2,2,2,2,1,1,1,1,2,1],"img_shown":["img/750/equaldotsize/L/13_Ratio_750_L_8_R_6.png","img/250/equaldotsize/R/4_Ratio_250_L_3_R_12.png","img/500/equaldotanddens/L/13_Ratio_500_L_12_R_6.png","img/900/equaldotsize/L/1_Ratio_900_L_10_R_9.png","img/900/equaldotanddens/L/4_Ratio_900_L_20_R_18.png","img/750/equaldotsize/R/4_Ratio_750_L_15_R_20.png","img/250/equaldotanddens/L/3_Ratio_250_L_8_R_2.png","img/250/randomdotsizeEA/L/15_Ratio_250_L_12_R_3.png","img/250/equaldotanddens/L/5_Ratio_250_L_24_R_6.png","img/500/randomdotsizeEA/L/11_Ratio_500_L_12_R_6.png","img/250/equaldotanddens/L/5_Ratio_250_L_24_R_6.png","img/900/randomdotsizeEA/R/14_Ratio_900_L_18_R_20.png","img/900/randomdotsizeEA/R/13_Ratio_900_L_18_R_20.png","img/750/randomdotsizeEA/L/13_Ratio_750_L_8_R_6.png","img/250/equaldotsize/L/7_Ratio_250_L_8_R_2.png","img/750/randomdotsizeEA/L/14_Ratio_750_L_8_R_6.png","img/500/equaldotanddens/L/4_Ratio_500_L_18_R_9.png","img/900/randomdotsizeEA/L/4_Ratio_900_L_20_R_18.png","img/500/equaldotsize/R/1_Ratio_500_L_9_R_18.png","img/250/equaldotanddens/R/11_Ratio_250_L_3_R_12.png","img/250/randomdotsizeEA/R/9_Ratio_250_L_3_R_12.png","img/900/equaldotsize/R/3_Ratio_900_L_9_R_10.png","img/750/equaldotanddens/L/6_Ratio_750_L_24_R_18.png","img/750/equaldotanddens/L/9_Ratio_750_L_4_R_3.png","img/500/randomdotsizeEA/L/5_Ratio_500_L_4_R_2.png","img/500/randomdotsizeEA/R/9_Ratio_500_L_2_R_4.png","img/500/equaldotanddens/R/9_Ratio_500_L_2_R_4.png","img/500/equaldotsize/L/8_Ratio_500_L_8_R_4.png","img/500/randomdotsizeEA/R/1_Ratio_500_L_9_R_18.png","img/250/equaldotsize/L/3_Ratio_250_L_8_R_2.png","img/900/equaldotsize/L/8_Ratio_900_L_20_R_18.png","img/750/randomdotsizeEA/R/5_Ratio_750_L_15_R_20.png","img/500/randomdotsizeEA/R/9_Ratio_500_L_2_R_4.png","img/250/equaldotanddens/L/5_Ratio_250_L_24_R_6.png","img/750/equaldotsize/L/10_Ratio_750_L_4_R_3.png","img/250/equaldotsize/R/11_Ratio_250_L_3_R_12.png","img/900/equaldotsize/R/12_Ratio_900_L_18_R_20.png","img/250/equaldotsize/R/6_Ratio_250_L_6_R_24.png","img/900/randomdotsizeEA/R/6_Ratio_900_L_9_R_10.png","img/250/equaldotanddens/R/9_Ratio_250_L_3_R_12.png","img/750/equaldotanddens/L/10_Ratio_750_L_4_R_3.png","img/500/equaldotsize/R/15_Ratio_500_L_1_R_2.png","img/900/equaldotsize/L/8_Ratio_900_L_20_R_18.png","img/500/equaldotanddens/R/9_Ratio_500_L_2_R_4.png","img/900/equaldotanddens/L/1_Ratio_900_L_10_R_9.png","img/750/randomdotsizeEA/R/7_Ratio_750_L_3_R_4.png","img/500/equaldotsize/R/2_Ratio_500_L_3_R_6.png","img/250/equaldotanddens/R/13_Ratio_250_L_2_R_8.png","img/900/equaldotanddens/L/4_Ratio_900_L_20_R_18.png","img/900/randomdotsizeEA/R/5_Ratio_900_L_9_R_10.png","img/500/randomdotsizeEA/R/2_Ratio_500_L_3_R_6.png","img/250/randomdotsizeEA/R/9_Ratio_250_L_3_R_12.png","img/500/equaldotsize/L/13_Ratio_500_L_12_R_6.png","img/250/randomdotsizeEA/L/1_Ratio_250_L_8_R_2.png","img/750/equaldotsize/L/1_Ratio_750_L_20_R_15.png","img/250/equaldotanddens/R/6_Ratio_250_L_6_R_24.png","img/900/equaldotanddens/L/1_Ratio_900_L_10_R_9.png","img/500/equaldotanddens/R/3_Ratio_500_L_10_R_20.png","img/500/equaldotsize/R/15_Ratio_500_L_1_R_2.png","img/250/randomdotsizeEA/L/2_Ratio_250_L_16_R_4.png","img/500/randomdotsizeEA/L/10_Ratio_500_L_4_R_2.png","img/750/equaldotanddens/R/7_Ratio_750_L_3_R_4.png","img/750/equaldotsize/R/5_Ratio_750_L_15_R_20.png","img/500/randomdotsizeEA/L/8_Ratio_500_L_8_R_4.png","img/500/equaldotanddens/R/12_Ratio_500_L_1_R_2.png","img/750/equaldotsize/R/2_Ratio_750_L_6_R_8.png","img/750/randomdotsizeEA/L/1_Ratio_750_L_20_R_15.png","img/900/equaldotanddens/L/8_Ratio_900_L_20_R_18.png","img/900/equaldotanddens/R/13_Ratio_900_L_18_R_20.png","img/750/equaldotanddens/L/8_Ratio_750_L_4_R_3.png","img/900/equaldotsize/R/15_Ratio_900_L_9_R_10.png","img/250/equaldotsize/L/3_Ratio_250_L_8_R_2.png","img/750/randomdotsizeEA/L/1_Ratio_750_L_20_R_15.png","img/500/equaldotanddens/L/4_Ratio_500_L_18_R_9.png","img/900/randomdotsizeEA/L/1_Ratio_900_L_10_R_9.png","img/500/equaldotanddens/L/11_Ratio_500_L_12_R_6.png","img/250/randomdotsizeEA/L/2_Ratio_250_L_16_R_4.png","img/900/randomdotsizeEA/L/1_Ratio_900_L_10_R_9.png","img/900/equaldotanddens/R/15_Ratio_900_L_9_R_10.png","img/750/equaldotanddens/R/2_Ratio_750_L_6_R_8.png","img/250/equaldotanddens/R/13_Ratio_250_L_2_R_8.png","img/750/randomdotsizeEA/L/9_Ratio_750_L_4_R_3.png","img/250/equaldotsize/L/14_Ratio_250_L_12_R_3.png","img/500/equaldotsize/R/1_Ratio_500_L_9_R_18.png","img/250/equaldotanddens/R/6_Ratio_250_L_6_R_24.png","img/900/randomdotsizeEA/L/10_Ratio_900_L_20_R_18.png","img/250/equaldotsize/R/12_Ratio_250_L_5_R_20.png","img/250/equaldotsize/R/4_Ratio_250_L_3_R_12.png","img/250/equaldotsize/R/4_Ratio_250_L_3_R_12.png","img/900/equaldotanddens/R/3_Ratio_900_L_9_R_10.png","img/750/randomdotsizeEA/R/3_Ratio_750_L_15_R_20.png","img/500/equaldotanddens/R/12_Ratio_500_L_1_R_2.png","img/250/randomdotsizeEA/L/7_Ratio_250_L_8_R_2.png","img/250/randomdotsizeEA/L/7_Ratio_250_L_8_R_2.png","img/750/randomdotsizeEA/R/7_Ratio_750_L_3_R_4.png","img/250/randomdotsizeEA/L/5_Ratio_250_L_24_R_6.png","img/750/equaldotsize/R/15_Ratio_750_L_9_R_12.png","img/500/equaldotanddens/R/6_Ratio_500_L_9_R_18.png","img/750/equaldotsize/L/14_Ratio_750_L_8_R_6.png","img/500/randomdotsizeEA/L/13_Ratio_500_L_12_R_6.png","img/250/randomdotsizeEA/L/7_Ratio_250_L_8_R_2.png","img/900/equaldotanddens/R/9_Ratio_900_L_18_R_20.png","img/900/equaldotanddens/R/9_Ratio_900_L_18_R_20.png","img/900/randomdotsizeEA/L/8_Ratio_900_L_20_R_18.png","img/500/equaldotsize/L/10_Ratio_500_L_4_R_2.png","img/750/equaldotanddens/R/2_Ratio_750_L_6_R_8.png","img/900/equaldotsize/L/4_Ratio_900_L_20_R_18.png","img/900/equaldotsize/L/2_Ratio_900_L_20_R_18.png","img/900/equaldotsize/L/10_Ratio_900_L_20_R_18.png","img/750/equaldotanddens/L/13_Ratio_750_L_8_R_6.png","img/750/equaldotsize/R/5_Ratio_750_L_15_R_20.png","img/500/equaldotsize/R/3_Ratio_500_L_10_R_20.png","img/750/equaldotsize/R/4_Ratio_750_L_15_R_20.png","img/900/randomdotsizeEA/R/9_Ratio_900_L_18_R_20.png","img/500/randomdotsizeEA/L/13_Ratio_500_L_12_R_6.png","img/500/equaldotsize/L/7_Ratio_500_L_10_R_5.png","img/750/equaldotanddens/L/8_Ratio_750_L_4_R_3.png","img/900/equaldotsize/L/10_Ratio_900_L_20_R_18.png","img/750/equaldotanddens/R/7_Ratio_750_L_3_R_4.png","img/750/randomdotsizeEA/L/6_Ratio_750_L_24_R_18.png"],"Rat0":[["12_Ratio_0_L_9_R_0.png","13_Ratio_0_L_6_R_0.png","5_Ratio_0_L_2_R_0.png","6_Ratio_0_L_4_R_0.png","8_Ratio_0_L_6_R_0.png"],["1_Ratio_0_L_0_R_17.png","10_Ratio_0_L_0_R_22.png","11_Ratio_0_L_0_R_1.png","14_Ratio_0_L_0_R_24.png","15_Ratio_0_L_0_R_4.png","2_Ratio_0_L_0_R_5.png","3_Ratio_0_L_0_R_17.png","4_Ratio_0_L_0_R_7.png","7_Ratio_0_L_0_R_19.png","9_Ratio_0_L_0_R_15.png"]],"Rat250":[["1_Ratio_250_L_8_R_2.png","14_Ratio_250_L_12_R_3.png","15_Ratio_250_L_12_R_3.png","2_Ratio_250_L_16_R_4.png","3_Ratio_250_L_8_R_2.png","5_Ratio_250_L_24_R_6.png","7_Ratio_250_L_8_R_2.png"],["10_Ratio_250_L_4_R_16.png","11_Ratio_250_L_3_R_12.png","12_Ratio_250_L_5_R_20.png","13_Ratio_250_L_2_R_8.png","4_Ratio_250_L_3_R_12.png","6_Ratio_250_L_6_R_24.png","8_Ratio_250_L_1_R_4.png","9_Ratio_250_L_3_R_12.png"]],"Rat500":[["10_Ratio_500_L_4_R_2.png","11_Ratio_500_L_12_R_6.png","13_Ratio_500_L_12_R_6.png","4_Ratio_500_L_18_R_9.png","5_Ratio_500_L_4_R_2.png","7_Ratio_500_L_10_R_5.png","8_Ratio_500_L_8_R_4.png"],["1_Ratio_500_L_9_R_18.png","12_Ratio_500_L_1_R_2.png","14_Ratio_500_L_5_R_10.png","15_Ratio_500_L_1_R_2.png","2_Ratio_500_L_3_R_6.png","3_Ratio_500_L_10_R_20.png","6_Ratio_500_L_9_R_18.png","9_Ratio_500_L_2_R_4.png"]],"Rat750":[["1_Ratio_750_L_20_R_15.png","10_Ratio_750_L_4_R_3.png","13_Ratio_750_L_8_R_6.png","14_Ratio_750_L_8_R_6.png","6_Ratio_750_L_24_R_18.png","8_Ratio_750_L_4_R_3.png","9_Ratio_750_L_4_R_3.png"],["11_Ratio_750_L_12_R_16.png","12_Ratio_750_L_3_R_4.png","15_Ratio_750_L_9_R_12.png","2_Ratio_750_L_6_R_8.png","3_Ratio_750_L_15_R_20.png","4_Ratio_750_L_15_R_20.png","5_Ratio_750_L_15_R_20.png","7_Ratio_750_L_3_R_4.png"]],"Rat900":[["1_Ratio_900_L_10_R_9.png","10_Ratio_900_L_20_R_18.png","2_Ratio_900_L_20_R_18.png","4_Ratio_900_L_20_R_18.png","8_Ratio_900_L_20_R_18.png"],["11_Ratio_900_L_18_R_20.png","12_Ratio_900_L_18_R_20.png","13_Ratio_900_L_18_R_20.png","14_Ratio_900_L_18_R_20.png","15_Ratio_900_L_9_R_10.png","3_Ratio_900_L_9_R_10.png","5_Ratio_900_L_9_R_10.png","6_Ratio_900_L_9_R_10.png","7_Ratio_900_L_9_R_10.png","9_Ratio_900_L_18_R_20.png"]],"Rat1000":[["10_Ratio_1000_L_16_R_16.png","11_Ratio_1000_L_6_R_6.png","12_Ratio_1000_L_14_R_14.png","13_Ratio_1000_L_20_R_20.png","15_Ratio_1000_L_15_R_15.png","2_Ratio_1000_L_17_R_17.png","4_Ratio_1000_L_9_R_9.png","5_Ratio_1000_L_6_R_6.png","6_Ratio_1000_L_19_R_19.png","8_Ratio_1000_L_14_R_14.png","9_Ratio_1000_L_25_R_25.png"],["1_Ratio_1000_L_1_R_1.png","14_Ratio_1000_L_17_R_17.png","3_Ratio_1000_L_17_R_17.png","7_Ratio_1000_L_6_R_6.png"]]}},{"start_time":1551881590117,"click_time":1551881591362,"finger_time":1551881590982,"fix_duration":1032.189541027806,"trial":1,"RT":865,"MT":380,"sideResp":2,"stimulus":"img/250/equaldotsize/R/4_Ratio_250_L_3_R_12.png","xmouse":[802,802,802,802,802,802,802,802,802,802,802,802,802,802,802,802,802,802,802,802,802,802,802,802,802,802,802,802,802,802,802,802,802,802,802,802,802,802,802,802,804,822,838,850,861,873,897,918,931,945,956,985,995,1005,1014,1018,1025,1034,1039,1045,1058,1065,1072],"ymouse":[511,511,511,511,511,511,511,511,511,511,511,511,511,511,511,511,511,511,511,511,511,511,511,511,511,511,511,511,511,511,511,511,511,511,511,511,511,511,511,513,513,501,491,482,474,464,444,422,404,378,344,288,270,248,228,214,191,172,161,149,121,106,89],"timestamp_mouse":[9,25,47,70,86,106,125,145,166,185,205,225,245,265,285,305,325,345,366,387,406,425,446,466,486,505,526,545,566,586,605,625,645,665,686,705,725,746,765,785,806,826,845,865,886,906,925,946,966,985,1005,1025,1045,1065,1086,1106,1126,1146,1165,1185,1206,1225,1245],"xSR":741.5,"ySR":458.25,"xT1":424.9,"yT1":0,"xT2":1058.1,"yT2":0,"toosoon":0,"cond_shown":"equaldotsize","ratio_trial":250,"smaller_num":"3","larger_num":"12","correct_side":2,"subjID":"JuanFernandoMartinez6","gender":"0","age":"11","school":"6"},{"start_time":1551881592662,"click_time":1551881593703,"finger_time":1551881593443,"fix_duration":416.37836249374504,"trial":2,"RT":781,"MT":260,"sideResp":1,"stimulus":"img/500/equaldotanddens/L/13_Ratio_500_L_12_R_6.png","xmouse":[794,794,794,794,794,794,795,795,795,795,795,795,795,795,795,795,795,795,795,795,795,795,795,795,795,795,795,795,795,795,795,795,796,796,796,796,796,791,786,751,677,623,594,578,553,549,541,527,514,507,506,501,493],"ymouse":[482,482,482,482,482,482,483,483,483,483,483,483,483,483,483,483,483,483,483,483,483,483,483,483,483,483,483,483,483,483,483,483,484,484,484,484,485,482,467,380,267,207,178,161,136,130,122,113,109,107,107,103,98],"timestamp_mouse":[11,20,40,61,80,100,121,140,160,181,201,221,241,260,281,300,321,340,360,380,401,421,442,461,480,500,520,540,560,581,600,620,641,660,681,701,720,741,760,781,800,820,841,860,880,900,920,940,960,980,1001,1020,1041],"xSR":741.5,"ySR":458.25,"xT1":424.9,"yT1":0,"xT2":1058.1,"yT2":0,"toosoon":0,"cond_shown":"equaldotanddens","ratio_trial":500,"smaller_num":"6","larger_num":"12","correct_side":1,"subjID":"JuanFernandoMartinez6","gender":"0","age":"11","school":"6"},{"start_time":1551881595043,"click_time":1551881596003,"finger_time":1551881595723,"fix_duration":657.7426544888981,"trial":3,"RT":680,"MT":280,"sideResp":1,"stimulus":"img/900/equaldotsize/L/1_Ratio_900_L_10_R_9.png","xmouse":[774,774,774,774,774,774,774,774,774,774,774,774,774,774,774,775,775,775,775,775,775,775,775,775,775,775,775,775,775,775,775,770,759,743,734,716,688,642,590,547,510,503,502,502,502,497,489,484,481],"ymouse":[535,535,535,535,535,535,535,535,535,535,535,535,535,535,535,535,535,535,535,535,535,535,535,535,535,535,535,535,535,535,535,532,524,511,498,419,357,289,227,191,165,160,158,157,153,135,120,107,92],"timestamp_mouse":[1,19,40,68,80,99,119,139,159,179,201,219,239,259,279,300,319,340,359,379,400,420,440,459,479,499,519,539,559,579,599,620,640,659,680,699,719,739,759,779,799,819,839,859,880,899,919,939,959],"xSR":741.5,"ySR":458.25,"xT1":424.9,"yT1":0,"xT2":1058.1,"yT2":0,"toosoon":0,"cond_shown":"equaldotsize","ratio_trial":900,"smaller_num":"9","larger_num":"10","correct_side":1,"subjID":"JuanFernandoMartinez6","gender":"0","age":"11","school":"6"},{"start_time":1551881597117,"click_time":1551881598242,"finger_time":1551881597863,"fix_duration":353.56021702793504,"trial":4,"RT":746,"MT":379,"sideResp":1,"stimulus":"img/900/equaldotanddens/L/4_Ratio_900_L_20_R_18.png","xmouse":[802,802,802,802,802,802,802,802,802,802,802,802,802,802,802,802,802,802,802,802,802,802,802,802,802,802,802,802,802,802,802,802,799,797,793,786,748,683,601,518,476,463,460,458,454,451,447,447,447,450,459,461,464,467,472,474,478],"ymouse":[503,503,503,503,503,503,503,503,503,503,503,503,503,503,503,503,503,503,503,503,503,503,503,503,503,503,503,503,503,503,503,503,503,500,494,488,470,442,402,349,312,269,246,222,198,184,164,157,153,149,144,140,135,129,116,103,65],"timestamp_mouse":[9,25,45,73,85,106,125,146,166,185,205,225,245,265,286,305,326,346,365,385,406,425,445,466,485,506,526,546,565,585,605,625,645,666,686,706,725,746,765,785,806,826,845,865,885,905,925,945,965,985,1006,1025,1045,1066,1085,1105,1125],"xSR":741.5,"ySR":458.25,"xT1":424.9,"yT1":0,"xT2":1058.1,"yT2":0,"toosoon":0,"cond_shown":"equaldotanddens","ratio_trial":900,"smaller_num":"18","larger_num":"20","correct_side":1,"subjID":"JuanFernandoMartinez6","gender":"0","age":"11","school":"6"},{"start_time":1551881599735,"click_time":1551881600962,"finger_time":1551881600403,"fix_duration":791.1890375447668,"trial":5,"RT":668,"MT":559,"sideResp":2,"stimulus":"img/750/equaldotsize/R/4_Ratio_750_L_15_R_20.png","xmouse":[779,780,780,780,780,780,780,780,780,781,781,781,781,781,781,781,781,781,781,782,782,782,782,783,783,783,783,784,787,801,808,821,837,855,874,926,947,966,976,983,997,1004,1012,1019,1025,1032,1039,1046,1055,1064,1076,1080,1085,1093,1100,1102,1102,1102,1102,1102,1109,1111],"ymouse":[512,512,512,512,512,512,512,512,512,513,513,513,513,513,513,513,513,513,513,513,513,513,513,513,513,513,514,514,514,504,493,478,464,450,433,386,371,356,344,329,302,282,264,249,230,198,176,162,147,138,128,126,122,117,111,108,108,108,107,107,101,99],"timestamp_mouse":[10,27,54,67,87,107,128,148,167,187,207,227,248,267,287,307,327,348,367,387,407,427,447,468,487,507,527,547,567,588,607,627,648,668,687,707,728,747,767,788,806,827,847,868,887,907,927,947,967,987,1008,1028,1047,1067,1087,1107,1128,1147,1167,1188,1208,1227],"xSR":741.5,"ySR":458.25,"xT1":424.9,"yT1":0,"xT2":1058.1,"yT2":0,"toosoon":0,"cond_shown":"equaldotsize","ratio_trial":750,"smaller_num":"15","larger_num":"20","correct_side":2,"subjID":"JuanFernandoMartinez6","gender":"0","age":"11","school":"6"},{"start_time":1551881602144,"click_time":1551881603182,"finger_time":1551881602922,"fix_duration":300.1786231203215,"trial":6,"RT":778,"MT":260,"sideResp":1,"stimulus":"img/250/equaldotanddens/L/3_Ratio_250_L_8_R_2.png","xmouse":[787,787,787,787,789,789,790,790,790,790,790,790,790,790,790,790,790,790,790,790,790,790,790,790,790,790,790,790,790,790,790,790,790,790,790,790,788,776,728,586,541,525,517,508,486,484,480,477,476,477,483,485],"ymouse":[517,517,518,518,519,519,520,520,520,520,520,520,520,520,520,520,520,520,520,520,520,520,520,520,520,520,520,520,520,520,520,520,520,520,520,520,514,498,425,293,250,232,220,202,158,146,132,125,112,109,101,99],"timestamp_mouse":[18,39,62,79,98,119,139,158,178,198,218,239,258,279,299,319,338,359,378,400,418,438,458,478,498,518,539,558,579,599,618,638,658,678,698,719,738,758,778,798,819,838,859,878,898,918,938,959,979,998,1018,1038],"xSR":741.5,"ySR":458.25,"xT1":424.9,"yT1":0,"xT2":1058.1,"yT2":0,"toosoon":0,"cond_shown":"equaldotanddens","ratio_trial":250,"smaller_num":"2","larger_num":"8","correct_side":1,"subjID":"JuanFernandoMartinez6","gender":"0","age":"11","school":"6"},{"start_time":1551881604977,"click_time":1551881606463,"finger_time":1551881606283,"fix_duration":1013.9751610300674,"trial":7,"RT":1306,"MT":180,"sideResp":1,"stimulus":"img/250/randomdotsizeEA/L/15_Ratio_250_L_12_R_3.png","xmouse":[808,808,808,808,808,808,808,807,807,807,807,807,807,807,807,806,805,804,804,804,804,804,804,804,804,804,804,804,804,804,804,804,804,803,803,803,803,803,803,803,803,801,801,800,800,800,800,800,800,800,800,800,800,800,800,800,800,800,800,800,799,798,797,791,760,718,654,601,543,524,511,494,484,476,473],"ymouse":[524,524,524,524,524,522,522,522,522,521,521,521,521,521,521,521,521,521,521,521,521,521,521,521,521,521,521,521,521,521,521,521,521,521,521,521,521,521,521,521,521,521,521,521,521,521,521,521,521,521,521,521,521,521,521,521,521,521,521,521,521,520,519,512,492,468,433,401,315,252,206,170,143,110,87],"timestamp_mouse":[9,26,46,65,85,105,125,146,166,186,206,226,245,265,285,305,326,346,366,386,405,425,446,465,485,506,525,545,565,585,607,625,645,665,685,706,727,745,765,785,805,825,845,865,886,906,925,945,965,985,1006,1025,1045,1065,1086,1105,1126,1145,1165,1186,1205,1225,1246,1266,1285,1306,1325,1345,1365,1385,1407,1425,1446,1465,1486],"xSR":741.5,"ySR":458.25,"xT1":424.9,"yT1":0,"xT2":1058.1,"yT2":0,"toosoon":0,"cond_shown":"randomdotsizeEA","ratio_trial":250,"smaller_num":"3","larger_num":"12","correct_side":1,"subjID":"JuanFernandoMartinez6","gender":"0","age":"11","school":"6"},{"start_time":1551881607634,"click_time":1551881608764,"finger_time":1551881608322,"fix_duration":250,"trial":8,"RT":688,"MT":442,"sideResp":1,"stimulus":"img/250/equaldotanddens/L/5_Ratio_250_L_24_R_6.png","xmouse":[779,779,779,779,779,779,780,780,781,782,782,784,787,788,790,791,791,791,791,791,791,791,791,791,791,791,791,791,791,791,792,787,773,745,717,700,695,688,673,641,575,546,539,535,534,534,534,533,529,527,527,527,527,527,527,525,518],"ymouse":[507,507,507,507,507,507,508,508,509,509,509,509,508,507,507,507,506,506,506,506,506,506,506,506,506,506,506,506,506,506,506,500,490,470,448,433,415,397,370,325,257,223,204,187,171,133,113,99,87,84,84,83,83,83,83,81,76],"timestamp_mouse":[8,44,49,68,88,108,128,148,168,188,208,228,249,268,288,308,329,348,368,389,409,429,448,467,488,508,529,549,569,588,608,629,649,668,688,708,728,749,768,788,808,828,848,868,888,908,928,948,968,988,1008,1028,1049,1069,1088,1108,1129],"xSR":741.5,"ySR":458.25,"xT1":424.9,"yT1":0,"xT2":1058.1,"yT2":0,"toosoon":0,"cond_shown":"equaldotanddens","ratio_trial":250,"smaller_num":"6","larger_num":"24","correct_side":1,"subjID":"JuanFernandoMartinez6","gender":"0","age":"11","school":"6"},{"start_time":1551881609876,"click_time":1551881611323,"finger_time":1551881610962,"fix_duration":250,"trial":9,"RT":1086,"MT":361,"sideResp":1,"stimulus":"img/500/randomdotsizeEA/L/11_Ratio_500_L_12_R_6.png","xmouse":[810,809,807,806,804,804,804,804,803,803,801,800,799,799,799,799,799,799,799,799,799,799,799,799,799,799,799,799,799,799,799,799,799,799,799,799,799,797,792,791,790,790,789,789,789,789,789,789,789,786,780,771,764,756,747,736,729,725,712,692,680,675,672,666,656,647,641,637,612,599,575,532,505],"ymouse":[508,508,507,507,506,506,506,506,504,504,504,504,503,503,503,503,503,503,503,503,503,503,503,503,503,503,503,503,503,503,503,503,503,503,503,503,503,503,499,499,498,498,497,497,497,497,497,497,497,495,492,487,482,459,430,391,350,321,270,237,223,213,203,183,166,154,145,140,119,112,101,84,70],"timestamp_mouse":[8,27,47,67,86,107,127,146,166,187,205,226,246,267,286,306,326,347,366,386,406,427,446,466,486,507,526,545,566,586,606,626,646,666,687,706,727,747,766,787,806,826,847,866,886,906,926,947,967,986,1006,1026,1047,1066,1086,1106,1126,1146,1166,1185,1206,1226,1246,1266,1287,1306,1327,1347,1367,1387,1406,1426,1447],"xSR":741.5,"ySR":458.25,"xT1":424.9,"yT1":0,"xT2":1058.1,"yT2":0,"toosoon":0,"cond_shown":"randomdotsizeEA","ratio_trial":500,"smaller_num":"6","larger_num":"12","correct_side":1,"subjID":"JuanFernandoMartinez6","gender":"0","age":"11","school":"6"},{"start_time":1551881612414,"click_time":1551881613183,"finger_time":1551881612982,"fix_duration":250,"trial":10,"RT":568,"MT":201,"sideResp":1,"stimulus":"img/250/equaldotanddens/L/5_Ratio_250_L_24_R_6.png","xmouse":[799,799,799,799,798,798,798,798,798,798,798,798,798,798,798,798,798,798,798,798,799,800,801,801,801,801,799,769,689,597,517,434,430,426,426,427,428,428,428],"ymouse":[519,519,519,519,519,519,519,519,519,519,519,519,519,519,519,519,519,519,519,519,519,519,519,519,519,519,515,502,456,390,310,181,152,131,117,111,102,101,99],"timestamp_mouse":[8,28,48,68,89,107,128,149,168,187,209,228,248,268,289,309,329,349,369,388,408,428,448,468,488,509,528,549,568,588,608,628,648,668,688,708,728,747,769],"xSR":741.5,"ySR":458.25,"xT1":424.9,"yT1":0,"xT2":1058.1,"yT2":0,"toosoon":0,"cond_shown":"equaldotanddens","ratio_trial":250,"smaller_num":"6","larger_num":"24","correct_side":1,"subjID":"JuanFernandoMartinez6","gender":"0","age":"11","school":"6"},{"start_time":1551881614626,"click_time":1551881615623,"finger_time":1551881615442,"fix_duration":582.524918788712,"trial":11,"RT":816,"MT":181,"sideResp":1,"stimulus":"img/900/randomdotsizeEA/R/14_Ratio_900_L_18_R_20.png","xmouse":[797,797,797,797,797,797,797,797,797,797,797,797,797,796,796,796,796,796,796,796,796,796,796,796,796,795,795,795,794,794,794,793,792,792,791,789,787,782,774,766,742,728,697,671,645,613,593,574,536,481],"ymouse":[486,486,486,486,486,486,486,486,486,486,486,486,486,485,485,485,485,485,485,485,485,485,485,485,485,485,485,485,485,485,485,484,484,484,483,482,481,478,471,463,407,376,327,291,255,209,185,166,137,98],"timestamp_mouse":[16,37,65,77,96,116,136,156,176,197,216,236,256,276,296,316,337,356,376,397,415,436,456,476,497,516,536,556,576,596,616,637,656,676,696,716,736,757,776,796,816,836,856,876,897,916,937,956,975,997],"xSR":741.5,"ySR":458.25,"xT1":424.9,"yT1":0,"xT2":1058.1,"yT2":0,"toosoon":0,"cond_shown":"randomdotsizeEA","ratio_trial":900,"smaller_num":"18","larger_num":"20","correct_side":2,"subjID":"JuanFernandoMartinez6","gender":"0","age":"11","school":"6"},{"start_time":1551881616682,"click_time":1551881618582,"finger_time":1551881617523,"fix_duration":339.6497959414355,"trial":12,"RT":841,"MT":1059,"sideResp":1,"stimulus":"img/900/randomdotsizeEA/R/13_Ratio_900_L_18_R_20.png","xmouse":[799,799,799,799,799,799,799,799,799,799,799,799,800,800,800,800,801,801,801,801,801,801,801,801,801,801,801,801,801,801,801,801,801,801,801,801,801,801,800,794,784,770,757,748,748,751,758,771,827,850,874,889,919,934,951,966,978,991,1003,1008,1014,1022,1030,1044,1048,1050,1050,1050,1046,1030,1014,1003,989,951,919,875,816,746,624,616,610,599,587,564,555,551,545,542,536,532,531,531,531,531,529,524],"ymouse":[523,523,524,524,524,524,524,524,524,524,524,524,525,525,525,525,526,526,526,526,526,526,526,526,526,526,526,526,526,526,526,526,526,526,526,526,526,526,524,521,505,481,451,423,415,407,399,388,361,350,333,319,282,263,240,212,176,145,114,100,92,84,80,75,74,74,74,74,81,89,96,99,106,120,128,137,140,140,132,129,124,107,87,70,66,64,63,61,60,59,59,59,59,59,60,61],"timestamp_mouse":[8,20,41,60,79,100,120,140,160,180,201,221,240,261,281,300,320,340,360,381,401,421,440,460,481,501,521,540,561,580,600,619,640,660,681,701,720,740,760,780,800,821,841,860,879,900,920,941,960,981,1000,1020,1041,1060,1081,1100,1120,1141,1160,1180,1200,1220,1240,1259,1280,1300,1320,1341,1360,1381,1400,1421,1441,1460,1481,1500,1520,1539,1561,1580,1600,1621,1640,1660,1680,1700,1721,1741,1760,1780,1800,1820,1840,1860,1880,1900],"xSR":741.5,"ySR":458.25,"xT1":424.9,"yT1":0,"xT2":1058.1,"yT2":0,"toosoon":0,"cond_shown":"randomdotsizeEA","ratio_trial":900,"smaller_num":"18","larger_num":"20","correct_side":2,"subjID":"JuanFernandoMartinez6","gender":"0","age":"11","school":"6"},{"start_time":1551881620976,"click_time":1551881621823,"finger_time":1551881621643,"fix_duration":1431.5603404300923,"trial":13,"RT":667,"MT":180,"sideResp":1,"stimulus":"img/750/randomdotsizeEA/L/13_Ratio_750_L_8_R_6.png","xmouse":[799,799,799,799,799,799,799,799,799,799,799,799,799,799,799,799,799,799,799,799,799,799,799,799,799,799,799,799,799,799,799,794,790,737,707,669,636,616,592,576,552,529,512],"ymouse":[498,498,498,498,498,498,498,498,498,498,498,498,498,498,498,498,498,498,498,498,498,498,498,498,498,498,498,498,498,498,498,494,491,425,367,303,222,165,125,104,85,71,59],"timestamp_mouse":[9,26,46,67,86,106,127,146,167,186,206,226,246,266,286,307,326,346,366,386,406,425,445,465,485,505,525,545,565,585,605,625,645,667,685,705,727,746,766,786,806,826,847],"xSR":741.5,"ySR":458.25,"xT1":424.9,"yT1":0,"xT2":1058.1,"yT2":0,"toosoon":0,"cond_shown":"randomdotsizeEA","ratio_trial":750,"smaller_num":"6","larger_num":"8","correct_side":1,"subjID":"JuanFernandoMartinez6","gender":"0","age":"11","school":"6"},{"start_time":1551881623170,"click_time":1551881624083,"finger_time":1551881623842,"fix_duration":705.0556023234525,"trial":14,"RT":672,"MT":241,"sideResp":1,"stimulus":"img/250/equaldotsize/L/7_Ratio_250_L_8_R_2.png","xmouse":[800,800,800,800,800,800,800,800,800,800,800,800,800,800,800,800,800,800,800,800,800,800,800,800,800,800,800,800,800,800,799,795,778,709,671,655,647,639,628,622,608,590,568,509,474,460],"ymouse":[516,517,517,517,517,517,517,517,517,517,517,517,517,517,517,517,517,517,517,517,517,517,517,517,517,517,517,517,517,517,517,517,503,443,383,343,324,301,263,252,235,219,202,152,109,83],"timestamp_mouse":[13,32,52,72,92,113,131,152,173,192,212,233,252,271,292,312,333,351,373,393,412,433,453,472,493,512,532,552,572,593,612,632,652,672,693,711,732,753,773,792,812,832,853,872,892,913],"xSR":741.5,"ySR":458.25,"xT1":424.9,"yT1":0,"xT2":1058.1,"yT2":0,"toosoon":0,"cond_shown":"equaldotsize","ratio_trial":250,"smaller_num":"2","larger_num":"8","correct_side":1,"subjID":"JuanFernandoMartinez6","gender":"0","age":"11","school":"6"},{"start_time":1551881625521,"click_time":1551881627563,"finger_time":1551881626242,"fix_duration":438.53129923025193,"trial":15,"RT":721,"MT":1321,"sideResp":1,"stimulus":"img/750/randomdotsizeEA/L/14_Ratio_750_L_8_R_6.png","xmouse":[781,781,781,782,782,782,782,782,782,785,786,788,788,788,788,788,788,788,788,788,788,788,788,788,788,788,789,789,789,789,789,789,789,789,786,776,735,717,696,681,674,675,686,702,726,751,804,856,910,972,1032,1088,1107,1120,1124,1126,1126,1129,1132,1133,1133,1133,1133,1133,1130,1120,1040,965,927,902,888,864,849,836,824,804,785,765,741,720,707,700,699,699,699,699,699,699,697,695,694,687,684,672,642,616,570,556,544,531,524,514,511],"ymouse":[487,487,487,488,488,488,488,488,488,488,488,488,488,488,488,488,488,488,488,488,488,488,488,488,488,488,488,488,488,488,487,487,486,485,482,471,433,417,402,389,381,379,379,379,379,375,353,327,302,273,243,217,202,187,170,158,141,131,123,119,117,112,112,111,111,115,177,234,267,290,298,302,302,302,300,289,273,260,246,234,229,223,223,222,222,222,222,222,223,226,227,228,228,226,211,195,163,148,135,124,116,102,99],"timestamp_mouse":[9,22,45,61,82,101,122,142,161,181,202,221,242,262,281,301,321,341,362,381,402,421,442,462,482,502,522,542,562,581,601,621,642,661,681,701,721,741,761,782,802,821,842,861,881,901,921,942,961,982,1002,1020,1042,1061,1082,1102,1121,1141,1160,1181,1201,1221,1241,1261,1281,1301,1321,1342,1361,1381,1402,1422,1442,1461,1481,1502,1521,1542,1561,1580,1601,1622,1642,1661,1681,1702,1722,1741,1761,1782,1801,1821,1841,1860,1881,1902,1922,1942,1961,1982,2001,2021,2042],"xSR":741.5,"ySR":458.25,"xT1":424.9,"yT1":0,"xT2":1058.1,"yT2":0,"toosoon":0,"cond_shown":"randomdotsizeEA","ratio_trial":750,"smaller_num":"6","larger_num":"8","correct_side":1,"subjID":"JuanFernandoMartinez6","gender":"0","age":"11","school":"6"},{"start_time":1551881628647,"click_time":1551881629642,"finger_time":1551881629423,"fix_duration":344.8959647483352,"trial":16,"RT":776,"MT":219,"sideResp":1,"stimulus":"img/500/equaldotanddens/L/4_Ratio_500_L_18_R_9.png","xmouse":[795,797,798,798,798,798,798,798,798,796,796,796,797,798,800,802,802,802,802,802,802,802,802,802,802,802,801,801,801,801,801,801,801,801,799,795,780,761,744,717,694,675,656,636,586,566,551,539,532,515],"ymouse":[506,504,503,503,503,503,503,506,507,511,511,511,511,509,505,503,501,501,501,501,501,502,505,507,508,508,508,507,505,504,504,504,504,502,500,497,488,474,457,417,382,348,314,274,198,176,157,144,129,98],"timestamp_mouse":[17,36,58,74,95,114,136,156,176,195,215,235,255,276,295,315,335,355,375,396,416,436,456,475,495,515,536,556,574,595,615,636,655,675,696,715,736,755,776,795,816,835,855,876,895,915,935,955,975,995],"xSR":741.5,"ySR":458.25,"xT1":424.9,"yT1":0,"xT2":1058.1,"yT2":0,"toosoon":0,"cond_shown":"equaldotanddens","ratio_trial":500,"smaller_num":"9","larger_num":"18","correct_side":1,"subjID":"JuanFernandoMartinez6","gender":"0","age":"11","school":"6"},{"start_time":1551881631771,"click_time":1551881633343,"finger_time":1551881632642,"fix_duration":1108.3259227496217,"trial":17,"RT":871,"MT":701,"sideResp":2,"stimulus":"img/900/randomdotsizeEA/L/4_Ratio_900_L_20_R_18.png","xmouse":[780,780,780,780,780,780,780,780,780,780,780,780,780,779,778,778,778,778,778,778,778,778,778,778,778,778,778,778,778,778,778,778,778,778,778,778,778,777,770,763,759,756,755,754,754,754,754,754,754,755,755,755,755,755,755,756,756,756,758,758,758,758,759,768,777,792,815,851,918,940,970,1010,1043,1085,1100,1106,1107,1107,1102],"ymouse":[480,480,480,480,480,480,480,480,480,480,480,480,480,480,480,480,480,480,480,480,480,480,480,480,480,480,480,480,480,480,480,480,480,480,480,480,480,480,478,472,468,463,460,456,455,454,453,452,451,450,450,450,450,450,450,449,449,449,448,447,447,447,447,447,447,444,437,424,373,349,316,284,254,192,150,124,110,100,89],"timestamp_mouse":[11,32,63,71,92,111,131,150,172,192,211,231,252,271,290,311,332,351,371,391,411,432,451,471,492,512,530,552,570,592,612,631,651,671,691,712,731,751,771,791,811,831,852,871,890,911,931,952,971,990,1011,1031,1051,1071,1091,1111,1132,1151,1171,1192,1211,1231,1252,1271,1291,1311,1331,1352,1371,1392,1412,1432,1451,1471,1492,1512,1531,1551,1572],"xSR":741.5,"ySR":458.25,"xT1":424.9,"yT1":0,"xT2":1058.1,"yT2":0,"toosoon":0,"cond_shown":"randomdotsizeEA","ratio_trial":900,"smaller_num":"18","larger_num":"20","correct_side":1,"subjID":"JuanFernandoMartinez6","gender":"0","age":"11","school":"6"},{"start_time":1551881634960,"click_time":1551881636002,"finger_time":1551881635662,"fix_duration":817.2052590045764,"trial":18,"RT":702,"MT":340,"sideResp":2,"stimulus":"img/500/equaldotsize/R/1_Ratio_500_L_9_R_18.png","xmouse":[795,795,795,795,795,795,795,795,795,795,795,795,795,795,795,795,795,795,795,795,795,795,796,796,798,799,799,799,799,799,800,800,801,802,835,858,881,902,930,988,1006,1019,1029,1035,1049,1050,1051,1054,1058,1073,1081,1087,1093],"ymouse":[508,508,508,508,508,508,508,508,508,508,508,508,508,508,508,508,508,508,508,508,508,508,508,507,505,504,504,504,504,504,503,503,503,503,481,465,448,429,389,309,280,256,237,221,189,182,174,165,155,128,115,104,95],"timestamp_mouse":[9,21,43,62,82,102,122,143,163,183,202,222,242,263,282,302,322,342,363,382,402,422,442,462,482,502,522,543,562,583,602,622,642,663,682,702,722,742,763,782,803,822,842,862,882,902,921,942,963,982,1002,1023,1042],"xSR":741.5,"ySR":458.25,"xT1":424.9,"yT1":0,"xT2":1058.1,"yT2":0,"toosoon":0,"cond_shown":"equaldotsize","ratio_trial":500,"smaller_num":"9","larger_num":"18","correct_side":2,"subjID":"JuanFernandoMartinez6","gender":"0","age":"11","school":"6"},{"start_time":1551881637862,"click_time":1551881638642,"finger_time":1551881638482,"fix_duration":678.5547623199193,"trial":19,"RT":620,"MT":160,"sideResp":2,"stimulus":"img/250/equaldotanddens/R/11_Ratio_250_L_3_R_12.png","xmouse":[752,752,752,752,752,752,752,752,752,753,753,753,753,753,753,753,753,753,753,753,753,757,758,760,766,773,781,790,796,817,833,848,864,878,899,912,936,972,1023,1120],"ymouse":[485,485,485,485,485,485,485,485,485,485,485,485,485,485,485,485,485,485,485,485,485,487,487,488,489,489,489,488,488,482,474,467,455,440,402,377,339,285,223,96],"timestamp_mouse":[1,19,53,59,79,100,121,141,161,181,201,221,241,261,280,301,320,340,359,380,401,420,440,460,481,500,521,540,561,580,600,620,640,660,680,700,720,740,760,780],"xSR":741.5,"ySR":458.25,"xT1":424.9,"yT1":0,"xT2":1058.1,"yT2":0,"toosoon":0,"cond_shown":"equaldotanddens","ratio_trial":250,"smaller_num":"3","larger_num":"12","correct_side":2,"subjID":"JuanFernandoMartinez6","gender":"0","age":"11","school":"6"},{"start_time":1551881639792,"click_time":1551881640842,"finger_time":1551881640602,"fix_duration":269.8119590491302,"trial":20,"RT":810,"MT":240,"sideResp":2,"stimulus":"img/250/randomdotsizeEA/R/9_Ratio_250_L_3_R_12.png","xmouse":[785,785,785,785,785,785,785,785,785,785,785,785,785,785,785,785,785,785,785,785,785,785,785,785,785,785,785,785,785,785,785,786,786,789,791,794,799,814,822,833,846,858,886,908,924,937,965,988,1010,1034,1060,1076,1090],"ymouse":[510,510,510,510,510,510,510,510,510,510,510,510,510,510,510,510,511,511,511,511,511,511,511,511,511,511,511,511,511,511,511,511,511,511,509,507,504,493,489,481,472,460,433,404,382,363,316,274,223,173,133,111,79],"timestamp_mouse":[10,30,50,71,91,110,130,150,171,190,211,230,250,271,290,310,331,350,370,390,411,430,449,471,491,510,531,550,569,591,611,630,649,670,691,711,730,750,769,790,810,830,850,871,890,910,931,950,970,990,1010,1030,1050],"xSR":741.5,"ySR":458.25,"xT1":424.9,"yT1":0,"xT2":1058.1,"yT2":0,"toosoon":0,"cond_shown":"randomdotsizeEA","ratio_trial":250,"smaller_num":"3","larger_num":"12","correct_side":2,"subjID":"JuanFernandoMartinez6","gender":"0","age":"11","school":"6"},{"start_time":1551881644617,"click_time":1551881646323,"finger_time":1551881645362,"fix_duration":752.7074256657247,"trial":21,"RT":745,"MT":961,"sideResp":2,"stimulus":"img/900/equaldotsize/R/3_Ratio_900_L_9_R_10.png","xmouse":[777,778,779,779,779,779,779,779,779,779,779,779,779,779,779,779,779,779,779,779,779,779,779,779,779,780,780,780,780,780,780,780,780,780,780,778,748,711,686,680,679,683,706,735,787,852,940,969,1002,1042,1077,1124,1140,1143,1143,1143,1151,1161,1172,1178,1184,1183,1180,1178,1177,1176,1175,1175,1174,1169,1160,1133,1123,1115,1109,1108,1108,1108,1108,1110,1111,1112,1113,1113,1114,1115],"ymouse":[533,533,533,533,533,533,533,533,533,533,533,533,533,533,533,533,533,533,533,533,533,533,533,533,533,532,532,532,532,532,532,532,532,532,532,518,465,401,363,350,345,339,326,322,322,322,327,327,327,320,305,271,242,223,203,183,147,131,115,103,81,67,60,56,52,49,48,48,48,56,73,139,155,162,164,164,164,160,145,132,119,112,109,108,106,99],"timestamp_mouse":[10,26,57,65,86,106,126,144,165,186,204,226,244,265,285,305,325,346,365,386,405,426,445,465,486,505,525,545,566,585,605,625,646,665,685,704,725,745,766,785,806,825,845,865,885,905,925,945,965,985,1006,1025,1045,1065,1085,1105,1125,1146,1165,1185,1206,1225,1245,1265,1285,1305,1326,1345,1365,1386,1405,1425,1446,1466,1484,1504,1525,1545,1566,1585,1605,1625,1645,1665,1685,1706],"xSR":741.5,"ySR":458.25,"xT1":424.9,"yT1":0,"xT2":1058.1,"yT2":0,"toosoon":0,"cond_shown":"equaldotsize","ratio_trial":900,"smaller_num":"9","larger_num":"10","correct_side":2,"subjID":"JuanFernandoMartinez6","gender":"0","age":"11","school":"6"},{"start_time":1551881647483,"click_time":1551881648802,"finger_time":1551881648322,"fix_duration":439.4325230065701,"trial":22,"RT":839,"MT":480,"sideResp":1,"stimulus":"img/750/equaldotanddens/L/6_Ratio_750_L_24_R_18.png","xmouse":[788,788,788,788,788,788,788,788,788,788,788,788,788,788,788,788,788,788,788,788,788,788,788,788,788,788,788,788,788,788,788,788,788,789,790,790,790,790,790,786,776,768,755,712,688,669,653,640,613,596,587,587,587,587,587,587,587,587,550,549,544,543,542,539,538,533,523],"ymouse":[523,523,523,523,523,523,523,523,523,523,523,523,523,523,523,523,523,523,523,523,523,523,523,523,523,523,523,523,523,523,523,523,523,523,522,521,518,515,509,504,491,474,450,354,296,240,188,144,63,24,3,3,3,3,3,3,3,3,6,21,34,39,41,50,57,64,74],"timestamp_mouse":[2,19,39,72,80,99,119,140,160,179,200,219,238,259,280,299,320,338,360,379,399,420,439,459,479,500,519,538,559,580,599,620,640,660,679,700,720,739,759,779,800,819,839,859,880,899,919,939,959,979,999,1020,1039,1060,1080,1100,1118,1140,1159,1180,1199,1219,1238,1259,1278,1299,1319],"xSR":741.5,"ySR":458.25,"xT1":424.9,"yT1":0,"xT2":1058.1,"yT2":0,"toosoon":0,"cond_shown":"equaldotanddens","ratio_trial":750,"smaller_num":"18","larger_num":"24","correct_side":1,"subjID":"JuanFernandoMartinez6","gender":"0","age":"11","school":"6"},{"start_time":1551881650645,"click_time":1551881652443,"finger_time":1551881651283,"fix_duration":801.0089776024731,"trial":23,"RT":638,"MT":1160,"sideResp":1,"stimulus":"img/750/equaldotanddens/L/9_Ratio_750_L_4_R_3.png","xmouse":[805,805,805,805,805,805,805,805,805,805,805,805,805,805,805,805,805,805,805,805,805,805,805,805,805,805,805,805,805,783,764,733,679,634,622,622,622,622,622,622,622,623,623,627,638,649,659,669,681,714,723,730,735,738,740,741,743,746,749,752,752,752,750,746,736,734,734,734,732,731,730,730,730,730,725,715,701,688,679,650,628,615,606,598,581,574,566,558,545,515],"ymouse":[511,511,511,511,511,511,511,511,511,511,511,510,510,509,509,509,509,509,509,509,509,508,507,505,503,502,502,502,501,485,474,457,420,377,324,310,296,284,275,271,271,271,271,274,280,284,288,293,297,308,312,314,316,318,321,325,332,344,354,368,374,376,379,380,380,380,380,380,380,380,380,380,380,380,376,366,350,335,323,280,250,226,204,186,148,135,124,114,98,72],"timestamp_mouse":[17,38,61,78,98,118,137,156,178,197,217,238,258,278,297,317,336,357,376,397,417,437,457,477,498,516,537,557,577,597,617,638,657,677,698,717,737,757,778,797,817,837,858,877,897,917,937,958,978,997,1017,1037,1058,1078,1097,1117,1137,1157,1177,1197,1217,1236,1257,1278,1298,1317,1337,1358,1377,1398,1418,1438,1457,1477,1498,1517,1536,1557,1577,1598,1617,1638,1657,1677,1697,1717,1737,1757,1777,1798],"xSR":741.5,"ySR":458.25,"xT1":424.9,"yT1":0,"xT2":1058.1,"yT2":0,"toosoon":0,"cond_shown":"equaldotanddens","ratio_trial":750,"smaller_num":"3","larger_num":"4","correct_side":1,"subjID":"JuanFernandoMartinez6","gender":"0","age":"11","school":"6"},{"start_time":1551881654412,"click_time":1551881655402,"finger_time":1551881655102,"fix_duration":1189.5938580649163,"trial":24,"RT":690,"MT":300,"sideResp":1,"stimulus":"img/500/randomdotsizeEA/L/5_Ratio_500_L_4_R_2.png","xmouse":[785,785,785,785,785,785,785,785,785,785,785,785,785,785,785,785,785,785,785,785,785,785,785,785,785,785,785,785,785,785,785,783,763,748,737,719,707,693,667,633,597,553,544,541,539,538,527,512,481,459],"ymouse":[504,506,507,507,507,507,507,507,507,508,510,514,514,514,514,514,514,514,514,514,514,515,515,516,517,517,517,517,517,517,517,517,503,487,476,451,430,407,371,331,288,234,212,198,189,182,164,149,121,97],"timestamp_mouse":[9,31,58,69,91,111,130,151,171,190,211,229,250,271,291,310,331,351,370,390,409,430,451,470,491,510,531,550,571,590,611,631,650,670,690,711,730,751,770,791,810,830,849,870,891,910,930,950,970,990],"xSR":741.5,"ySR":458.25,"xT1":424.9,"yT1":0,"xT2":1058.1,"yT2":0,"toosoon":0,"cond_shown":"randomdotsizeEA","ratio_trial":500,"smaller_num":"2","larger_num":"4","correct_side":1,"subjID":"JuanFernandoMartinez6","gender":"0","age":"11","school":"6"},{"start_time":1551881656669,"click_time":1551881657802,"finger_time":1551881657403,"fix_duration":424.4806848671717,"trial":25,"RT":734,"MT":399,"sideResp":2,"stimulus":"img/500/randomdotsizeEA/R/9_Ratio_500_L_2_R_4.png","xmouse":[792,792,792,793,793,793,793,793,793,793,793,793,793,793,793,793,793,793,793,793,793,793,793,793,793,793,793,793,793,793,793,796,797,811,824,841,860,878,904,926,940,962,981,1014,1031,1043,1051,1052,1054,1060,1069,1078,1081,1087,1089,1090,1090],"ymouse":[500,500,500,501,501,502,503,503,503,503,503,503,503,503,503,503,503,503,503,503,503,503,503,503,503,503,503,503,503,503,503,503,503,502,496,485,469,451,416,373,338,284,248,216,206,197,190,186,178,165,156,149,146,129,116,101,86],"timestamp_mouse":[14,33,53,73,93,113,133,154,174,192,213,234,253,274,293,313,332,353,374,392,414,434,453,474,494,512,533,554,573,593,614,633,654,673,694,714,734,753,773,794,813,833,853,872,893,913,932,954,973,994,1014,1033,1053,1073,1093,1113,1133],"xSR":741.5,"ySR":458.25,"xT1":424.9,"yT1":0,"xT2":1058.1,"yT2":0,"toosoon":0,"cond_shown":"randomdotsizeEA","ratio_trial":500,"smaller_num":"2","larger_num":"4","correct_side":2,"subjID":"JuanFernandoMartinez6","gender":"0","age":"11","school":"6"},{"start_time":1551881660275,"click_time":1551881661423,"finger_time":1551881660962,"fix_duration":1472.7100376914707,"trial":26,"RT":687,"MT":461,"sideResp":2,"stimulus":"img/500/equaldotanddens/R/9_Ratio_500_L_2_R_4.png","xmouse":[791,791,791,791,791,791,791,791,791,791,791,791,791,791,791,791,791,791,791,791,791,791,791,791,791,791,791,791,792,792,795,796,797,814,833,856,879,895,924,935,939,946,956,982,997,1010,1016,1020,1032,1040,1048,1063,1078,1100,1104,1108,1112,1118],"ymouse":[510,510,510,510,510,510,510,510,510,510,510,510,510,510,510,510,510,510,510,510,510,510,510,510,510,510,510,510,510,510,510,510,510,483,449,405,361,332,282,254,242,230,216,186,173,164,160,156,143,136,131,124,118,109,105,101,100,98],"timestamp_mouse":[9,27,46,67,87,108,127,148,168,188,208,227,248,268,287,308,328,347,368,388,406,427,452,468,488,507,527,548,566,587,607,627,647,666,687,707,727,747,767,788,808,827,847,867,888,908,927,947,967,987,1006,1027,1047,1067,1087,1107,1127,1148],"xSR":741.5,"ySR":458.25,"xT1":424.9,"yT1":0,"xT2":1058.1,"yT2":0,"toosoon":0,"cond_shown":"equaldotanddens","ratio_trial":500,"smaller_num":"2","larger_num":"4","correct_side":2,"subjID":"JuanFernandoMartinez6","gender":"0","age":"11","school":"6"},{"start_time":1551881662494,"click_time":1551881663563,"finger_time":1551881663163,"fix_duration":250,"trial":27,"RT":669,"MT":400,"sideResp":1,"stimulus":"img/500/equaldotsize/L/8_Ratio_500_L_8_R_4.png","xmouse":[823,823,823,823,823,823,823,823,823,823,823,823,823,823,823,823,823,823,823,823,823,823,823,823,823,823,823,823,823,823,822,820,818,807,791,774,752,708,682,662,637,617,599,596,596,592,576,557,544,533,519,513,507,496],"ymouse":[479,479,479,479,479,479,479,479,479,479,479,479,479,479,479,479,479,479,479,479,479,479,479,479,479,479,479,479,479,479,479,478,473,454,433,410,383,337,310,294,275,260,244,239,235,227,203,177,160,145,130,119,104,87],"timestamp_mouse":[8,28,61,69,88,108,128,149,167,188,207,229,249,269,289,307,329,349,369,389,408,429,447,468,489,509,528,548,569,588,608,629,648,669,689,709,728,748,768,789,808,828,847,867,888,908,930,947,968,988,1009,1028,1049,1069],"xSR":741.5,"ySR":458.25,"xT1":424.9,"yT1":0,"xT2":1058.1,"yT2":0,"toosoon":0,"cond_shown":"equaldotsize","ratio_trial":500,"smaller_num":"4","larger_num":"8","correct_side":1,"subjID":"JuanFernandoMartinez6","gender":"0","age":"11","school":"6"},{"start_time":1551881666641,"click_time":1551881668563,"finger_time":1551881667541,"fix_duration":917.9546543184082,"trial":28,"RT":900,"MT":1022,"sideResp":2,"stimulus":"img/500/randomdotsizeEA/R/1_Ratio_500_L_9_R_18.png","xmouse":[808,808,808,808,808,808,808,808,808,808,808,808,808,808,808,808,808,808,808,808,808,808,808,808,808,808,808,808,808,808,808,808,808,808,808,808,808,808,808,809,814,820,826,831,832,824,820,819,818,818,835,844,853,861,871,895,907,914,915,915,893,886,880,868,841,719,659,619,596,574,534,529,529,529,536,558,571,589,614,647,794,834,870,904,933,960,966,972,977,983,1008,1020,1024,1025,1027,1046,1059],"ymouse":[531,531,531,531,534,536,536,536,536,536,536,536,536,536,536,536,536,536,536,536,536,536,536,536,536,536,536,536,536,536,536,536,536,536,536,536,532,526,521,517,502,495,486,477,466,438,427,418,406,393,354,338,326,316,306,285,271,259,250,239,217,213,211,206,199,164,144,128,117,103,83,80,80,80,84,93,94,94,94,94,108,113,114,114,114,112,108,103,99,93,78,71,68,67,65,59,55],"timestamp_mouse":[8,21,41,63,81,102,122,141,162,182,201,222,241,262,282,301,322,341,362,382,401,421,441,462,481,500,521,541,560,582,601,621,640,660,681,701,721,742,761,781,801,822,841,861,880,900,921,941,961,980,1001,1021,1041,1061,1080,1100,1121,1140,1161,1181,1201,1221,1240,1261,1281,1301,1322,1341,1361,1382,1401,1420,1441,1461,1481,1500,1521,1541,1560,1580,1600,1621,1641,1661,1681,1701,1721,1742,1762,1781,1800,1821,1842,1860,1882,1900,1921],"xSR":741.5,"ySR":458.25,"xT1":424.9,"yT1":0,"xT2":1058.1,"yT2":0,"toosoon":0,"cond_shown":"randomdotsizeEA","ratio_trial":500,"smaller_num":"9","larger_num":"18","correct_side":2,"subjID":"JuanFernandoMartinez6","gender":"0","age":"11","school":"6"},{"start_time":1551881670419,"click_time":1551881671442,"finger_time":1551881671123,"fix_duration":1136.666045078557,"trial":29,"RT":704,"MT":319,"sideResp":1,"stimulus":"img/250/equaldotsize/L/3_Ratio_250_L_8_R_2.png","xmouse":[803,803,803,805,806,807,809,809,809,809,809,809,809,810,810,810,810,810,810,810,810,810,810,810,810,809,808,808,808,808,808,808,803,795,789,778,720,652,576,516,476,430,423,413,399,380,380,381,383,383,383,432],"ymouse":[502,502,502,501,501,501,500,500,500,500,500,500,500,500,500,500,500,500,500,500,500,500,502,504,506,508,509,509,509,509,509,509,503,485,469,450,373,313,257,217,181,120,104,83,59,20,13,6,0,0,0,3],"timestamp_mouse":[2,22,43,63,82,103,123,142,164,183,202,222,243,263,283,302,322,343,364,382,402,424,442,462,482,503,523,543,564,584,602,623,644,663,683,704,723,742,763,782,802,822,843,863,883,904,923,943,963,982,1003,1023],"xSR":741.5,"ySR":458.25,"xT1":424.9,"yT1":0,"xT2":1058.1,"yT2":0,"toosoon":0,"cond_shown":"equaldotsize","ratio_trial":250,"smaller_num":"2","larger_num":"8","correct_side":1,"subjID":"JuanFernandoMartinez6","gender":"0","age":"11","school":"6"},{"start_time":1551881672823,"click_time":1551881674282,"finger_time":1551881673762,"fix_duration":338.60267276307155,"trial":30,"RT":939,"MT":520,"sideResp":2,"stimulus":"img/900/equaldotsize/L/8_Ratio_900_L_20_R_18.png","xmouse":[805,805,805,805,805,805,805,805,805,805,805,805,805,805,805,805,806,806,806,806,806,806,806,806,806,806,806,806,806,806,806,806,806,806,807,807,807,807,807,807,807,807,807,809,813,822,838,845,858,866,872,872,872,872,873,876,887,901,931,995,1064,1146,1164,1166,1167,1171,1181,1185,1186,1186,1182,1174,1167,1158],"ymouse":[535,535,535,535,535,535,535,535,535,535,535,534,533,533,533,533,533,533,533,533,533,533,533,533,533,533,533,533,533,533,533,533,533,533,532,531,530,530,530,530,530,530,530,524,517,503,482,474,461,456,451,450,450,450,449,444,426,408,374,318,269,183,128,106,94,82,64,55,50,46,44,44,48,53],"timestamp_mouse":[1,24,51,59,79,100,119,138,160,178,199,220,240,259,279,300,319,339,360,379,400,418,440,459,479,499,520,540,559,578,600,618,638,659,680,700,720,738,759,778,799,820,839,859,879,899,920,939,959,980,1000,1019,1039,1059,1079,1100,1118,1138,1159,1179,1198,1219,1240,1260,1279,1298,1318,1339,1359,1379,1400,1418,1438,1459],"xSR":741.5,"ySR":458.25,"xT1":424.9,"yT1":0,"xT2":1058.1,"yT2":0,"toosoon":0,"cond_shown":"equaldotsize","ratio_trial":900,"smaller_num":"18","larger_num":"20","correct_side":1,"subjID":"JuanFernandoMartinez6","gender":"0","age":"11","school":"6"},{"start_time":1551881676078,"click_time":1551881677283,"finger_time":1551881676882,"fix_duration":1034.2814834015724,"trial":31,"RT":804,"MT":401,"sideResp":1,"stimulus":"img/750/randomdotsizeEA/R/5_Ratio_750_L_15_R_20.png","xmouse":[799,801,801,802,802,802,802,802,802,802,802,802,802,802,802,802,802,802,802,802,802,802,802,802,802,802,802,802,802,802,802,802,802,802,802,802,800,797,786,779,773,769,766,761,756,744,718,670,559,522,511,503,499,498,496,493,489,488,493,493,493],"ymouse":[526,525,525,524,524,524,524,524,524,524,524,524,524,524,524,524,524,524,524,524,524,524,524,524,524,524,524,524,524,524,524,524,524,524,524,524,522,519,488,463,441,427,417,406,397,381,352,317,256,225,206,187,172,154,147,139,129,124,108,100,90],"timestamp_mouse":[4,25,54,63,84,104,124,144,164,184,204,224,245,263,283,304,324,343,364,384,404,424,445,463,485,505,524,545,564,584,605,623,644,664,685,703,724,744,763,784,804,825,844,864,885,904,924,944,964,983,1004,1024,1045,1064,1084,1104,1125,1144,1164,1184,1205],"xSR":741.5,"ySR":458.25,"xT1":424.9,"yT1":0,"xT2":1058.1,"yT2":0,"toosoon":0,"cond_shown":"randomdotsizeEA","ratio_trial":750,"smaller_num":"15","larger_num":"20","correct_side":2,"subjID":"JuanFernandoMartinez6","gender":"0","age":"11","school":"6"},{"start_time":1551881678254,"click_time":1551881680041,"finger_time":1551881678863,"fix_duration":250,"trial":32,"RT":609,"MT":1178,"sideResp":2,"stimulus":"img/500/randomdotsizeEA/R/9_Ratio_500_L_2_R_4.png","xmouse":[772,772,773,773,774,774,774,774,774,774,774,774,774,774,774,774,774,774,774,774,774,775,776,776,776,776,777,777,778,769,738,702,672,646,602,589,581,572,562,549,546,545,543,543,543,543,543,550,562,597,626,648,668,679,697,703,705,705,705,705,707,708,709,712,723,731,745,763,786,830,845,858,873,903,919,934,947,955,959,969,987,999,1008,1014,1027,1034,1040,1044,1051,1063],"ymouse":[538,538,538,538,538,538,538,538,538,538,538,538,538,538,538,538,538,538,538,538,538,538,538,538,538,538,538,538,534,487,445,396,349,316,268,256,244,230,218,199,194,192,190,190,190,189,190,199,214,261,296,317,333,341,353,355,355,355,355,356,357,358,360,362,362,355,341,320,302,265,244,219,195,155,142,134,128,123,119,111,105,102,94,87,73,68,64,62,60,57],"timestamp_mouse":[8,33,48,68,88,109,128,149,167,188,209,228,248,268,288,308,328,348,368,389,408,428,448,469,489,509,528,548,569,588,609,628,649,667,687,709,728,747,769,788,808,829,847,869,888,907,927,949,969,988,1008,1027,1048,1069,1087,1108,1128,1149,1168,1187,1207,1227,1248,1269,1288,1309,1328,1348,1368,1389,1408,1427,1448,1469,1487,1507,1528,1549,1568,1588,1608,1627,1648,1668,1688,1708,1728,1748,1767,1787],"xSR":741.5,"ySR":458.25,"xT1":424.9,"yT1":0,"xT2":1058.1,"yT2":0,"toosoon":0,"cond_shown":"randomdotsizeEA","ratio_trial":500,"smaller_num":"2","larger_num":"4","correct_side":2,"subjID":"JuanFernandoMartinez6","gender":"0","age":"11","school":"6"},{"start_time":1551881681367,"click_time":1551881682123,"finger_time":1551881681882,"fix_duration":404.62354731338957,"trial":33,"RT":515,"MT":241,"sideResp":1,"stimulus":"img/250/equaldotanddens/L/5_Ratio_250_L_24_R_6.png","xmouse":[806,806,806,805,805,805,805,805,805,805,805,805,805,805,805,805,805,805,805,805,805,805,805,797,763,712,651,626,609,603,594,585,577,551,543,535,528,523],"ymouse":[523,523,523,523,523,523,523,523,523,523,523,523,523,523,523,523,523,523,523,523,523,523,523,515,478,433,389,369,342,319,289,259,234,174,153,131,112,89],"timestamp_mouse":[15,40,54,75,96,116,134,156,175,195,216,235,254,275,295,316,335,354,374,395,416,434,455,475,495,515,536,554,574,596,616,634,655,675,695,715,735,756],"xSR":741.5,"ySR":458.25,"xT1":424.9,"yT1":0,"xT2":1058.1,"yT2":0,"toosoon":0,"cond_shown":"equaldotanddens","ratio_trial":250,"smaller_num":"6","larger_num":"24","correct_side":1,"subjID":"JuanFernandoMartinez6","gender":"0","age":"11","school":"6"},{"start_time":1551881683474,"click_time":1551881685042,"finger_time":1551881684862,"fix_duration":469.4241305091914,"trial":34,"RT":1388,"MT":180,"sideResp":1,"stimulus":"img/750/equaldotsize/L/10_Ratio_750_L_4_R_3.png","xmouse":[818,818,818,818,818,818,818,818,818,818,818,818,818,818,818,818,818,818,818,818,818,818,818,818,818,818,818,818,818,818,818,818,818,818,818,818,818,818,818,818,818,818,818,818,818,818,818,818,819,819,819,819,820,820,822,823,823,824,826,826,826,826,826,826,826,826,826,826,825,821,819,816,808,777,752,714,673,628,486],"ymouse":[505,505,505,505,505,505,505,505,505,505,505,505,505,505,505,505,505,505,505,505,505,505,505,505,505,505,505,505,505,505,505,505,505,505,505,505,505,505,505,505,505,505,505,505,505,505,505,505,505,504,504,504,504,503,501,501,500,498,496,495,495,495,495,495,495,493,490,483,462,452,449,444,430,359,304,245,192,139,22],"timestamp_mouse":[11,41,48,68,89,107,127,149,168,188,207,229,248,267,288,308,329,349,369,388,409,428,448,469,489,508,529,548,569,588,609,629,649,668,688,708,728,748,769,788,808,827,848,869,889,907,929,948,968,988,1009,1028,1048,1067,1088,1108,1129,1148,1167,1188,1208,1228,1247,1268,1288,1308,1327,1348,1369,1388,1408,1428,1448,1468,1489,1508,1528,1548,1568],"xSR":741.5,"ySR":458.25,"xT1":424.9,"yT1":0,"xT2":1058.1,"yT2":0,"toosoon":0,"cond_shown":"equaldotsize","ratio_trial":750,"smaller_num":"3","larger_num":"4","correct_side":1,"subjID":"JuanFernandoMartinez6","gender":"0","age":"11","school":"6"},{"start_time":1551881686372,"click_time":1551881687743,"finger_time":1551881687141,"fix_duration":449.40364660994345,"trial":35,"RT":769,"MT":602,"sideResp":2,"stimulus":"img/250/equaldotsize/R/11_Ratio_250_L_3_R_12.png","xmouse":[794,794,794,794,794,794,794,794,794,794,794,794,794,794,794,794,794,794,794,794,794,794,794,794,794,794,794,794,794,794,794,794,794,797,800,805,817,828,859,874,891,904,919,947,962,973,984,999,1050,1067,1077,1083,1087,1096,1101,1103,1103,1103,1103,1103,1103,1103,1103,1103,1103,1103,1103,1103,1103],"ymouse":[498,498,498,498,498,498,498,498,498,498,498,498,498,498,498,498,498,498,498,498,498,498,498,498,498,498,498,498,498,498,498,498,498,497,495,491,481,469,435,417,399,380,364,334,313,297,281,260,206,187,172,162,151,134,119,111,108,105,103,103,103,103,103,103,103,103,102,101,98],"timestamp_mouse":[10,30,49,70,91,110,130,151,169,191,210,230,251,270,291,309,330,351,370,391,411,429,451,470,491,510,530,551,571,591,610,631,651,671,691,709,730,750,769,789,810,829,850,870,890,910,929,951,970,990,1010,1029,1051,1070,1090,1109,1130,1150,1171,1190,1210,1231,1249,1270,1290,1311,1330,1350,1371],"xSR":741.5,"ySR":458.25,"xT1":424.9,"yT1":0,"xT2":1058.1,"yT2":0,"toosoon":0,"cond_shown":"equaldotsize","ratio_trial":250,"smaller_num":"3","larger_num":"12","correct_side":2,"subjID":"JuanFernandoMartinez6","gender":"0","age":"11","school":"6"},{"start_time":1551881690803,"click_time":1551881693102,"finger_time":1551881691842,"fix_duration":1459.907572853537,"trial":36,"RT":1039,"MT":1260,"sideResp":1,"stimulus":"img/900/equaldotsize/R/12_Ratio_900_L_18_R_20.png","xmouse":[790,790,790,790,790,790,790,790,790,790,790,790,790,790,790,790,790,790,790,790,790,791,793,793,795,795,797,798,799,800,800,800,800,800,800,800,800,800,800,800,800,800,800,800,800,800,800,800,800,800,800,800,800,803,808,812,813,813,813,813,813,814,814,815,815,818,819,819,819,819,819,819,819,820,821,822,822,824,825,826,826,826,826,826,826,826,826,826,826,826,826,826,826,826,826,826,826,826,826,826,826,826,822,819,809,790,765,693,658,629,602,578,555,541,529,524],"ymouse":[489,489,489,489,489,489,489,489,489,489,489,489,489,489,489,489,489,489,490,490,490,490,486,485,480,477,472,467,465,463,462,461,461,461,461,461,461,461,461,461,461,461,461,461,461,461,461,461,461,461,461,460,454,442,432,424,424,424,427,431,439,442,442,442,442,442,442,441,441,441,441,441,441,441,439,438,436,429,427,424,424,422,421,421,421,421,421,421,421,421,421,421,421,421,421,421,421,421,421,421,420,420,418,413,399,380,355,281,240,208,181,162,134,114,103,97],"timestamp_mouse":[1,20,49,60,80,100,120,140,160,180,199,219,239,259,280,299,318,340,358,379,399,419,438,458,480,499,520,538,560,579,599,619,638,658,679,699,719,739,759,780,804,818,839,859,879,899,919,940,959,979,998,1018,1039,1059,1079,1099,1118,1138,1158,1179,1198,1220,1239,1259,1280,1299,1319,1339,1359,1380,1399,1419,1439,1459,1480,1499,1519,1538,1559,1580,1600,1618,1638,1659,1679,1699,1718,1739,1759,1780,1799,1819,1839,1859,1878,1899,1920,1939,1959,1978,1999,2018,2039,2059,2080,2098,2120,2139,2159,2180,2198,2220,2239,2259,2278,2299],"xSR":741.5,"ySR":458.25,"xT1":424.9,"yT1":0,"xT2":1058.1,"yT2":0,"toosoon":0,"cond_shown":"equaldotsize","ratio_trial":900,"smaller_num":"18","larger_num":"20","correct_side":2,"subjID":"JuanFernandoMartinez6","gender":"0","age":"11","school":"6"},{"start_time":1551881694403,"click_time":1551881695242,"finger_time":1551881695042,"fix_duration":259.1526389303104,"trial":37,"RT":639,"MT":200,"sideResp":2,"stimulus":"img/250/equaldotsize/R/6_Ratio_250_L_6_R_24.png","xmouse":[783,783,786,786,786,786,786,789,789,789,789,789,789,789,789,789,789,789,789,789,789,789,789,790,790,790,790,790,790,794,800,807,828,839,860,886,920,1017,1057,1079,1093,1102,1107],"ymouse":[520,528,547,547,548,548,548,540,537,536,535,535,535,535,535,535,535,535,535,534,533,530,529,529,529,529,529,527,525,520,512,501,451,424,383,342,295,200,164,145,131,107,92],"timestamp_mouse":[1,20,54,58,79,99,118,138,159,178,198,219,238,258,279,299,318,339,359,379,400,420,439,458,479,498,519,539,559,579,598,619,639,660,678,699,719,739,759,779,799,820,838],"xSR":741.5,"ySR":458.25,"xT1":424.9,"yT1":0,"xT2":1058.1,"yT2":0,"toosoon":0,"cond_shown":"equaldotsize","ratio_trial":250,"smaller_num":"6","larger_num":"24","correct_side":2,"subjID":"JuanFernandoMartinez6","gender":"0","age":"11","school":"6"},{"start_time":1551881697205,"click_time":1551881698823,"finger_time":1551881698422,"fix_duration":1081.9717220000764,"trial":38,"RT":1217,"MT":401,"sideResp":1,"stimulus":"img/900/randomdotsizeEA/R/6_Ratio_900_L_9_R_10.png","xmouse":[817,817,817,817,817,817,817,817,817,817,817,817,817,817,817,817,817,817,817,817,817,817,817,817,817,817,817,817,817,817,817,817,817,817,817,817,817,817,817,817,817,817,817,817,817,817,817,817,817,817,817,817,817,817,817,817,817,810,803,782,757,714,702,695,683,632,599,583,573,563,552,540,536,536,536,536,536,536,535,530,519],"ymouse":[492,492,492,492,492,492,492,492,492,492,492,492,492,492,492,492,492,492,492,492,492,492,492,492,492,492,492,492,492,492,492,492,492,492,492,492,492,492,492,492,492,492,492,492,492,492,492,492,492,492,492,492,492,492,492,492,492,486,480,461,434,378,340,311,273,187,150,133,123,115,104,93,86,86,86,86,86,86,86,84,79],"timestamp_mouse":[17,38,57,76,97,118,137,157,177,198,217,238,258,278,298,317,338,357,377,396,418,436,458,477,498,518,537,557,577,598,618,638,657,677,697,718,737,758,778,798,817,837,857,878,898,918,938,957,976,998,1018,1037,1057,1076,1098,1130,1138,1158,1177,1197,1217,1237,1257,1277,1297,1318,1337,1357,1377,1396,1417,1437,1457,1478,1497,1517,1537,1557,1577,1596,1618],"xSR":741.5,"ySR":458.25,"xT1":424.9,"yT1":0,"xT2":1058.1,"yT2":0,"toosoon":0,"cond_shown":"randomdotsizeEA","ratio_trial":900,"smaller_num":"9","larger_num":"10","correct_side":2,"subjID":"JuanFernandoMartinez6","gender":"0","age":"11","school":"6"},{"start_time":1551881701708,"click_time":1551881702881,"finger_time":1551881702422,"fix_duration":1105.8118623936919,"trial":39,"RT":714,"MT":459,"sideResp":2,"stimulus":"img/250/equaldotanddens/R/9_Ratio_250_L_3_R_12.png","xmouse":[790,790,790,790,790,790,790,790,790,790,790,789,789,789,789,789,789,789,789,789,789,789,789,789,789,789,789,789,791,794,797,808,816,824,834,856,875,893,907,927,956,1004,1018,1024,1026,1028,1028,1028,1032,1036,1041,1045,1048,1053,1057,1060,1072,1085,1090],"ymouse":[520,520,520,520,520,520,520,520,520,520,520,519,517,517,517,517,517,517,517,517,517,517,517,517,517,517,517,516,516,513,508,494,485,475,463,437,418,396,381,362,335,285,264,244,229,223,210,204,198,193,186,164,154,145,140,134,114,100,92],"timestamp_mouse":[17,49,54,75,93,114,134,155,175,194,215,235,255,274,294,315,335,355,375,395,413,435,454,475,495,514,534,555,575,595,614,634,654,674,695,714,734,755,775,794,815,835,855,873,893,915,934,954,973,995,1014,1034,1054,1073,1093,1115,1134,1154,1173],"xSR":741.5,"ySR":458.25,"xT1":424.9,"yT1":0,"xT2":1058.1,"yT2":0,"toosoon":0,"cond_shown":"equaldotanddens","ratio_trial":250,"smaller_num":"3","larger_num":"12","correct_side":2,"subjID":"JuanFernandoMartinez6","gender":"0","age":"11","school":"6"},{"start_time":1551881705062,"click_time":1551881705922,"finger_time":1551881705801,"fix_duration":1419.7019867261024,"trial":40,"RT":739,"MT":121,"sideResp":1,"stimulus":"img/750/equaldotanddens/L/10_Ratio_750_L_4_R_3.png","xmouse":[799,799,799,799,799,799,799,799,799,797,797,797,796,794,794,794,794,794,794,794,794,794,794,794,794,794,794,794,794,794,794,794,794,793,783,768,746,703,638,535,500,485,470,463],"ymouse":[524,524,524,524,524,524,524,524,524,523,523,522,522,521,520,520,520,520,520,520,520,520,520,520,520,520,520,520,520,520,520,520,520,519,510,495,471,425,363,254,191,153,118,99],"timestamp_mouse":[8,30,39,59,80,101,119,140,160,180,200,219,240,260,280,300,321,339,359,379,401,419,440,460,480,500,520,539,560,581,599,620,640,661,681,699,719,739,761,780,800,821,841,860],"xSR":741.5,"ySR":458.25,"xT1":424.9,"yT1":0,"xT2":1058.1,"yT2":0,"toosoon":0,"cond_shown":"equaldotanddens","ratio_trial":750,"smaller_num":"3","larger_num":"4","correct_side":1,"subjID":"JuanFernandoMartinez6","gender":"0","age":"11","school":"6"},{"start_time":1551881708251,"click_time":1551881709442,"finger_time":1551881708842,"fix_duration":1208.5593049586191,"trial":41,"RT":591,"MT":600,"sideResp":2,"stimulus":"img/500/equaldotsize/R/15_Ratio_500_L_1_R_2.png","xmouse":[795,795,795,795,795,795,795,795,795,795,795,795,795,795,795,795,795,795,795,795,796,796,796,797,799,807,815,823,832,854,859,866,872,881,910,926,941,959,973,995,1002,1004,1005,1005,1009,1016,1027,1042,1048,1046,1040,1040,1040,1049,1052,1052,1052,1054,1058,1062],"ymouse":[496,496,496,496,496,496,496,496,496,496,496,496,496,496,496,496,496,496,497,501,505,505,505,506,506,502,497,490,483,466,459,450,441,428,393,370,347,317,292,245,223,216,207,195,164,151,135,116,98,69,60,60,59,56,54,54,54,54,55,59],"timestamp_mouse":[12,43,51,72,92,110,131,152,171,191,211,231,251,270,291,312,331,351,371,392,411,431,451,472,491,511,530,551,570,591,611,632,650,671,691,711,732,750,772,791,812,832,850,871,891,912,931,951,970,991,1012,1032,1052,1072,1090,1111,1131,1151,1171,1191],"xSR":741.5,"ySR":458.25,"xT1":424.9,"yT1":0,"xT2":1058.1,"yT2":0,"toosoon":0,"cond_shown":"equaldotsize","ratio_trial":500,"smaller_num":"1","larger_num":"2","correct_side":2,"subjID":"JuanFernandoMartinez6","gender":"0","age":"11","school":"6"},{"start_time":1551881711428,"click_time":1551881713922,"finger_time":1551881712782,"fix_duration":584.2434836575063,"trial":42,"RT":1354,"MT":1140,"sideResp":2,"stimulus":"img/900/equaldotsize/L/8_Ratio_900_L_20_R_18.png","xmouse":[812,812,812,812,811,811,811,811,812,813,814,814,814,814,814,814,814,814,814,814,814,814,814,814,814,814,814,814,814,814,814,814,814,814,814,814,814,814,814,814,814,814,814,814,814,814,814,814,814,814,814,814,814,815,815,815,815,815,815,815,815,815,815,815,815,815,814,813,813,812,812,812,811,811,810,810,810,810,810,810,811,815,819,821,824,826,826,826,826,826,826,826,826,826,826,826,826,826,826,826,826,826,826,827,831,834,837,839,844,849,872,894,909,931,977,1003,1029,1050,1066,1093,1107,1111,1113,1115,1117],"ymouse":[519,519,519,519,519,519,518,517,512,510,505,505,505,505,505,505,505,505,505,505,505,503,502,502,501,501,501,501,501,501,501,501,501,501,500,499,499,499,499,499,499,499,499,499,499,499,499,499,499,499,499,499,495,488,479,465,463,462,462,462,462,462,462,462,460,460,459,458,458,456,456,455,453,452,451,448,447,447,447,446,442,438,433,431,428,424,424,424,424,424,424,423,421,420,418,418,418,418,418,418,418,418,416,414,408,404,401,399,393,387,361,339,324,305,256,231,205,187,171,145,129,121,111,103,95],"timestamp_mouse":[13,33,55,74,94,114,134,153,174,194,214,234,254,274,295,314,334,354,375,393,414,435,455,473,495,514,534,554,575,595,614,634,653,674,694,714,735,755,775,794,814,835,853,874,894,914,935,955,975,995,1015,1034,1055,1074,1094,1115,1135,1155,1174,1194,1214,1234,1255,1273,1295,1315,1334,1354,1375,1395,1413,1434,1455,1474,1494,1514,1535,1554,1573,1595,1614,1634,1655,1674,1694,1714,1734,1754,1773,1793,1814,1835,1854,1875,1895,1913,1934,1954,1974,1995,2014,2035,2055,2074,2095,2113,2134,2153,2174,2194,2214,2235,2253,2274,2295,2314,2333,2354,2374,2395,2413,2434,2455,2475,2494],"xSR":741.5,"ySR":458.25,"xT1":424.9,"yT1":0,"xT2":1058.1,"yT2":0,"toosoon":0,"cond_shown":"equaldotsize","ratio_trial":900,"smaller_num":"18","larger_num":"20","correct_side":1,"subjID":"JuanFernandoMartinez6","gender":"0","age":"11","school":"6"},{"start_time":1551881718669,"click_time":1551881719402,"finger_time":1551881719303,"fix_duration":1086.6419890742218,"trial":43,"RT":634,"MT":99,"sideResp":2,"stimulus":"img/500/equaldotanddens/R/9_Ratio_500_L_2_R_4.png","xmouse":[774,774,774,774,774,774,774,774,774,774,775,775,775,775,775,775,775,775,775,775,775,775,775,775,775,775,776,777,778,784,794,818,865,994,1044,1076,1095],"ymouse":[536,536,536,536,536,536,536,536,536,536,534,534,534,534,534,534,534,534,534,534,534,534,534,534,534,534,532,532,529,516,493,447,381,223,164,118,84],"timestamp_mouse":[14,37,53,73,94,114,133,153,173,193,213,234,254,273,292,313,333,354,372,394,413,433,453,473,494,514,532,554,573,594,613,634,653,673,693,714,733],"xSR":741.5,"ySR":458.25,"xT1":424.9,"yT1":0,"xT2":1058.1,"yT2":0,"toosoon":0,"cond_shown":"equaldotanddens","ratio_trial":500,"smaller_num":"2","larger_num":"4","correct_side":2,"subjID":"JuanFernandoMartinez6","gender":"0","age":"11","school":"6"},{"start_time":1551881721624,"click_time":1551881723082,"finger_time":1551881722581,"fix_duration":1360.1991527779655,"trial":44,"RT":957,"MT":501,"sideResp":2,"stimulus":"img/900/equaldotanddens/L/1_Ratio_900_L_10_R_9.png","xmouse":[800,800,800,800,800,800,800,800,800,801,801,801,801,801,801,801,801,801,801,801,801,801,801,801,801,801,801,801,801,801,802,802,803,803,803,804,804,804,804,804,804,804,805,806,806,811,819,829,843,863,985,1129,1202,1237,1246,1249,1249,1249,1250,1250,1250,1250,1248,1246,1243,1231,1215,1194,1178,1168,1161,1160,1158],"ymouse":[504,504,504,504,504,504,504,504,504,504,504,504,504,504,504,504,504,504,504,504,504,504,504,504,504,504,504,504,504,504,504,504,502,501,499,498,498,498,498,498,498,497,495,494,493,482,468,454,434,405,284,159,89,59,46,39,34,32,30,30,29,29,28,28,28,31,37,42,47,49,51,51,51],"timestamp_mouse":[19,46,58,79,97,119,138,158,177,199,219,238,259,279,297,317,338,359,379,398,417,437,458,478,498,517,539,558,577,599,618,638,657,677,698,718,738,758,779,799,817,837,859,878,898,919,938,957,978,998,1018,1039,1059,1078,1098,1119,1138,1158,1178,1199,1218,1239,1259,1277,1298,1317,1337,1358,1378,1398,1418,1437,1457],"xSR":741.5,"ySR":458.25,"xT1":424.9,"yT1":0,"xT2":1058.1,"yT2":0,"toosoon":0,"cond_shown":"equaldotanddens","ratio_trial":900,"smaller_num":"9","larger_num":"10","correct_side":1,"subjID":"JuanFernandoMartinez6","gender":"0","age":"11","school":"6"},{"start_time":1551881725832,"click_time":1551881726841,"finger_time":1551881726723,"fix_duration":328.76630031803677,"trial":45,"RT":891,"MT":118,"sideResp":1,"stimulus":"img/750/randomdotsizeEA/R/7_Ratio_750_L_3_R_4.png","xmouse":[803,803,803,803,803,803,803,803,803,803,803,803,803,803,803,803,803,803,803,803,803,803,803,803,803,803,803,803,803,803,803,803,803,803,803,803,803,803,803,803,800,799,799,799,785,774,762,738,689,616,491],"ymouse":[485,485,485,485,485,485,485,485,485,485,485,485,485,485,485,485,485,485,485,485,485,485,485,485,485,485,485,485,485,485,485,485,485,485,485,485,485,485,484,483,474,469,467,463,437,400,342,265,192,129,53],"timestamp_mouse":[10,31,50,69,90,111,129,150,170,190,209,230,251,270,290,310,330,351,370,390,409,431,450,469,490,510,530,550,571,591,610,631,650,671,690,710,731,751,770,789,810,830,849,871,891,910,929,950,971,990,1009],"xSR":741.5,"ySR":458.25,"xT1":424.9,"yT1":0,"xT2":1058.1,"yT2":0,"toosoon":0,"cond_shown":"randomdotsizeEA","ratio_trial":750,"smaller_num":"3","larger_num":"4","correct_side":2,"subjID":"JuanFernandoMartinez6","gender":"0","age":"11","school":"6"},{"start_time":1551881730127,"click_time":1551881731202,"finger_time":1551881730901,"fix_duration":683.1338523674193,"trial":46,"RT":774,"MT":301,"sideResp":2,"stimulus":"img/500/equaldotsize/R/2_Ratio_500_L_3_R_6.png","xmouse":[833,831,831,828,827,826,826,826,826,826,826,826,826,826,826,826,826,826,826,826,826,826,826,826,826,826,826,826,826,826,826,826,826,826,826,826,826,830,851,893,981,1003,1013,1017,1025,1029,1030,1032,1035,1039,1052,1058,1064,1070],"ymouse":[492,492,492,489,489,487,487,487,487,487,487,487,487,487,487,487,487,487,487,487,487,487,487,487,487,487,487,487,487,487,487,487,487,487,487,487,487,484,470,437,347,310,280,251,217,202,192,179,162,148,121,111,103,96],"timestamp_mouse":[15,34,60,75,96,116,136,155,176,195,214,240,255,274,296,315,334,356,374,394,415,434,456,475,496,515,534,554,575,595,615,635,654,674,695,714,736,755,774,795,815,835,854,875,896,914,935,955,975,996,1015,1035,1054,1075],"xSR":741.5,"ySR":458.25,"xT1":424.9,"yT1":0,"xT2":1058.1,"yT2":0,"toosoon":0,"cond_shown":"equaldotsize","ratio_trial":500,"smaller_num":"3","larger_num":"6","correct_side":2,"subjID":"JuanFernandoMartinez6","gender":"0","age":"11","school":"6"},{"start_time":1551881733361,"click_time":1551881734262,"finger_time":1551881734023,"fix_duration":1278.848025283678,"trial":47,"RT":662,"MT":239,"sideResp":2,"stimulus":"img/250/equaldotanddens/R/13_Ratio_250_L_2_R_8.png","xmouse":[816,816,816,816,816,816,816,816,816,816,816,816,816,816,816,816,816,816,816,815,815,814,814,814,814,814,814,814,814,814,814,820,824,863,926,971,1004,1016,1027,1032,1035,1035,1037,1043,1061,1069],"ymouse":[498,498,498,498,498,498,498,498,498,498,498,498,498,498,498,498,498,498,499,501,502,502,503,503,504,504,504,504,504,504,504,496,487,418,333,277,235,205,165,154,148,144,141,130,103,86],"timestamp_mouse":[0,20,40,60,81,102,121,140,161,181,200,221,241,260,281,301,320,341,361,380,400,421,442,461,482,501,522,541,562,581,600,621,641,662,681,700,720,741,762,780,801,821,842,861,880,901],"xSR":741.5,"ySR":458.25,"xT1":424.9,"yT1":0,"xT2":1058.1,"yT2":0,"toosoon":0,"cond_shown":"equaldotanddens","ratio_trial":250,"smaller_num":"2","larger_num":"8","correct_side":2,"subjID":"JuanFernandoMartinez6","gender":"0","age":"11","school":"6"},{"start_time":1551881736021,"click_time":1551881737562,"finger_time":1551881737243,"fix_duration":776.1546075101945,"trial":48,"RT":1222,"MT":319,"sideResp":1,"stimulus":"img/900/equaldotanddens/L/4_Ratio_900_L_20_R_18.png","xmouse":[806,806,806,806,806,806,806,806,806,806,806,806,806,806,806,806,806,806,806,806,806,806,806,806,806,805,805,805,805,805,805,805,805,805,805,805,805,805,805,805,805,803,803,803,802,802,802,802,802,802,802,802,802,802,802,802,802,802,802,801,791,752,696,627,573,547,527,524,523,522,519,515,514,514,514,514,513,512],"ymouse":[472,472,474,475,476,477,477,477,477,477,477,479,481,482,483,485,486,486,486,486,486,486,486,486,486,487,487,487,487,487,487,487,487,487,487,487,487,487,487,487,487,486,485,483,483,483,483,483,483,483,483,483,483,483,483,483,483,483,483,481,470,442,406,354,309,273,209,185,165,152,142,130,125,122,120,117,100,93],"timestamp_mouse":[8,33,41,62,80,101,122,141,161,181,200,222,240,261,281,302,320,340,362,381,401,420,442,461,482,501,522,540,561,582,600,620,642,661,680,702,720,742,760,781,800,820,842,861,880,901,920,940,961,980,1000,1021,1041,1061,1082,1101,1121,1140,1161,1182,1202,1222,1240,1261,1282,1301,1320,1341,1360,1381,1400,1420,1441,1461,1482,1501,1521,1541],"xSR":741.5,"ySR":458.25,"xT1":424.9,"yT1":0,"xT2":1058.1,"yT2":0,"toosoon":0,"cond_shown":"equaldotanddens","ratio_trial":900,"smaller_num":"18","larger_num":"20","correct_side":1,"subjID":"JuanFernandoMartinez6","gender":"0","age":"11","school":"6"},{"start_time":1551881738813,"click_time":1551881740201,"finger_time":1551881739861,"fix_duration":250,"trial":49,"RT":1048,"MT":340,"sideResp":1,"stimulus":"img/900/randomdotsizeEA/R/5_Ratio_900_L_9_R_10.png","xmouse":[810,810,810,810,810,810,809,809,808,808,808,808,808,808,808,808,808,808,808,808,808,808,808,807,807,807,807,807,807,807,807,807,807,807,807,807,807,807,807,807,807,806,806,806,805,805,805,805,805,805,805,792,775,758,742,718,701,674,644,623,595,579,571,568,562,549,543,537,530,519],"ymouse":[537,537,537,536,535,534,529,526,523,522,522,522,522,522,522,522,522,522,522,522,522,522,522,522,522,522,522,522,522,522,522,522,522,522,522,522,522,522,522,522,522,519,517,515,514,514,514,514,514,512,510,484,457,426,390,308,267,222,178,144,94,68,59,55,51,47,47,47,48,50],"timestamp_mouse":[11,30,51,70,88,109,129,150,169,188,209,228,249,270,290,309,329,349,368,388,409,429,449,469,489,508,529,549,570,590,608,629,649,669,689,708,730,750,770,790,808,830,848,868,888,909,929,949,969,990,1009,1028,1048,1070,1089,1110,1128,1150,1169,1189,1210,1229,1249,1269,1288,1310,1329,1349,1370,1388],"xSR":741.5,"ySR":458.25,"xT1":424.9,"yT1":0,"xT2":1058.1,"yT2":0,"toosoon":0,"cond_shown":"randomdotsizeEA","ratio_trial":900,"smaller_num":"9","larger_num":"10","correct_side":2,"subjID":"JuanFernandoMartinez6","gender":"0","age":"11","school":"6"},{"start_time":1551881742813,"click_time":1551881743822,"finger_time":1551881743463,"fix_duration":1089.1011670134328,"trial":50,"RT":650,"MT":359,"sideResp":2,"stimulus":"img/500/randomdotsizeEA/R/2_Ratio_500_L_3_R_6.png","xmouse":[792,792,792,792,792,792,792,792,792,792,792,792,792,792,792,792,792,793,794,796,797,802,803,804,804,805,806,808,809,814,816,836,850,857,865,878,930,968,993,1012,1029,1055,1063,1066,1069,1074,1077,1079,1080,1080,1080],"ymouse":[503,503,503,503,503,503,503,503,503,503,503,503,503,503,503,503,503,503,502,501,500,498,498,498,498,498,497,497,496,494,493,483,475,469,457,442,388,338,293,263,240,208,191,181,167,133,121,113,109,104,98],"timestamp_mouse":[8,43,48,69,88,109,129,148,169,189,209,228,249,270,290,310,330,349,368,390,409,429,449,469,489,509,528,550,569,589,609,629,650,670,690,708,729,749,770,789,808,828,849,869,889,910,929,949,968,988,1009],"xSR":741.5,"ySR":458.25,"xT1":424.9,"yT1":0,"xT2":1058.1,"yT2":0,"toosoon":0,"cond_shown":"randomdotsizeEA","ratio_trial":500,"smaller_num":"3","larger_num":"6","correct_side":2,"subjID":"JuanFernandoMartinez6","gender":"0","age":"11","school":"6"},{"start_time":1551881745499,"click_time":1551881746543,"finger_time":1551881746283,"fix_duration":1056.406637389655,"trial":51,"RT":784,"MT":260,"sideResp":2,"stimulus":"img/250/randomdotsizeEA/R/9_Ratio_250_L_3_R_12.png","xmouse":[778,778,778,780,780,781,781,781,781,781,781,781,781,781,781,781,781,781,781,781,781,781,781,781,781,781,782,784,784,784,784,784,784,784,786,788,792,808,835,866,906,941,1005,1027,1039,1043,1044,1044,1044,1044,1044,1048,1069],"ymouse":[527,527,527,523,522,521,521,521,521,521,521,521,521,521,521,521,521,521,521,521,521,521,521,521,521,521,519,517,517,517,517,517,517,517,516,516,513,497,465,421,357,296,207,179,161,147,140,127,125,119,113,103,77],"timestamp_mouse":[10,23,42,62,84,103,122,143,163,184,204,222,243,262,282,302,323,342,363,383,403,422,442,464,482,502,523,544,563,584,602,624,643,662,684,702,723,744,763,784,804,822,843,863,883,903,923,943,963,984,1004,1023,1044],"xSR":741.5,"ySR":458.25,"xT1":424.9,"yT1":0,"xT2":1058.1,"yT2":0,"toosoon":0,"cond_shown":"randomdotsizeEA","ratio_trial":250,"smaller_num":"3","larger_num":"12","correct_side":2,"subjID":"JuanFernandoMartinez6","gender":"0","age":"11","school":"6"},{"start_time":1551881747512,"click_time":1551881748482,"finger_time":1551881748241,"fix_duration":250,"trial":52,"RT":729,"MT":241,"sideResp":1,"stimulus":"img/500/equaldotsize/L/13_Ratio_500_L_12_R_6.png","xmouse":[804,804,804,804,804,804,804,804,804,804,804,804,804,804,804,804,804,804,804,804,804,804,804,804,804,804,804,804,804,804,804,804,804,804,804,803,768,733,698,674,660,629,604,584,568,553,540,532,524],"ymouse":[482,482,482,482,482,482,482,482,482,482,482,482,482,482,482,482,482,482,482,482,482,482,482,482,483,483,483,483,483,483,483,483,483,483,481,478,448,429,406,388,374,332,297,262,229,175,132,108,90],"timestamp_mouse":[11,30,58,71,91,109,131,150,170,189,210,230,249,270,289,310,331,349,370,389,409,430,449,470,490,509,531,550,570,590,610,631,649,670,690,710,729,749,770,790,809,829,849,869,891,911,930,949,969],"xSR":741.5,"ySR":458.25,"xT1":424.9,"yT1":0,"xT2":1058.1,"yT2":0,"toosoon":0,"cond_shown":"equaldotsize","ratio_trial":500,"smaller_num":"6","larger_num":"12","correct_side":1,"subjID":"JuanFernandoMartinez6","gender":"0","age":"11","school":"6"},{"start_time":1551881750072,"click_time":1551881751042,"finger_time":1551881750781,"fix_duration":769.0413759096876,"trial":53,"RT":709,"MT":261,"sideResp":1,"stimulus":"img/250/randomdotsizeEA/L/1_Ratio_250_L_8_R_2.png","xmouse":[792,792,792,792,792,792,792,792,792,792,792,792,792,792,792,792,792,792,792,792,792,792,792,792,792,792,792,792,792,792,792,792,792,790,769,727,670,610,538,501,484,477,474,468,462,459,458,457,457],"ymouse":[497,497,497,497,497,497,497,497,497,497,497,497,497,497,497,497,497,497,497,497,497,497,497,497,497,497,497,497,497,497,497,497,497,494,478,449,407,364,297,240,200,178,159,131,118,109,104,100,95],"timestamp_mouse":[10,46,50,70,91,110,131,149,170,190,211,229,250,270,289,310,330,349,371,390,409,430,451,469,491,510,529,550,570,591,609,631,650,671,690,709,730,750,769,790,810,830,850,870,889,910,930,950,970],"xSR":741.5,"ySR":458.25,"xT1":424.9,"yT1":0,"xT2":1058.1,"yT2":0,"toosoon":0,"cond_shown":"randomdotsizeEA","ratio_trial":250,"smaller_num":"2","larger_num":"8","correct_side":1,"subjID":"JuanFernandoMartinez6","gender":"0","age":"11","school":"6"},{"start_time":1551881752236,"click_time":1551881753283,"finger_time":1551881752982,"fix_duration":693.303436157955,"trial":54,"RT":746,"MT":301,"sideResp":1,"stimulus":"img/750/equaldotsize/L/1_Ratio_750_L_20_R_15.png","xmouse":[811,811,811,811,811,811,811,811,811,811,811,811,811,811,811,811,811,811,811,811,811,811,811,811,811,811,811,811,811,811,810,808,807,805,804,795,777,738,678,584,556,527,515,509,507,500,499,499,499,499,499,498,494],"ymouse":[513,513,513,513,513,513,513,513,513,513,513,513,513,513,513,513,513,513,513,513,513,513,513,513,513,513,513,513,513,513,512,508,506,503,500,489,472,446,403,327,294,253,232,216,202,177,167,161,155,148,130,106,89],"timestamp_mouse":[9,26,46,66,87,105,127,145,166,186,206,226,246,266,287,305,327,347,366,387,405,427,447,467,486,505,526,546,567,586,606,625,647,666,686,707,726,746,766,787,805,825,845,867,886,907,926,947,965,985,1006,1027,1047],"xSR":741.5,"ySR":458.25,"xT1":424.9,"yT1":0,"xT2":1058.1,"yT2":0,"toosoon":0,"cond_shown":"equaldotsize","ratio_trial":750,"smaller_num":"15","larger_num":"20","correct_side":1,"subjID":"JuanFernandoMartinez6","gender":"0","age":"11","school":"6"},{"start_time":1551881755246,"click_time":1551881756324,"finger_time":1551881755841,"fix_duration":1101.4541936479925,"trial":55,"RT":595,"MT":483,"sideResp":2,"stimulus":"img/250/equaldotanddens/R/6_Ratio_250_L_6_R_24.png","xmouse":[795,795,795,795,796,796,796,796,796,796,796,797,797,797,797,797,797,797,797,798,798,798,798,798,798,798,800,803,815,854,882,895,905,919,949,970,990,1012,1031,1057,1065,1069,1071,1082,1088,1092,1095,1097,1099,1101,1103,1105,1110,1119],"ymouse":[480,480,480,480,480,480,480,480,480,481,481,482,482,482,483,483,483,483,483,484,484,484,484,484,484,484,484,484,479,450,422,400,377,353,309,285,267,250,237,221,214,210,205,184,172,163,153,145,140,128,124,118,108,88],"timestamp_mouse":[17,45,56,77,96,116,136,155,177,195,216,236,256,277,297,316,336,355,377,397,416,437,457,476,496,515,536,556,576,595,616,635,656,676,696,716,737,755,776,796,815,835,856,877,896,917,935,956,976,996,1017,1037,1056,1077],"xSR":741.5,"ySR":458.25,"xT1":424.9,"yT1":0,"xT2":1058.1,"yT2":0,"toosoon":0,"cond_shown":"equaldotanddens","ratio_trial":250,"smaller_num":"6","larger_num":"24","correct_side":2,"subjID":"JuanFernandoMartinez6","gender":"0","age":"11","school":"6"},{"start_time":1551881757344,"click_time":1551881758523,"finger_time":1551881758082,"fix_duration":319.6871246798404,"trial":56,"RT":738,"MT":441,"sideResp":1,"stimulus":"img/900/equaldotanddens/L/1_Ratio_900_L_10_R_9.png","xmouse":[760,760,756,756,756,755,754,754,754,754,754,754,754,754,754,754,754,754,754,754,754,754,754,754,754,754,754,754,754,754,754,754,754,754,752,746,739,724,696,636,627,621,613,603,573,557,546,540,534,519,517,515,515,513,512,512,512,510,510],"ymouse":[523,523,526,526,526,527,528,528,528,528,528,528,528,528,528,528,528,528,528,528,528,528,528,528,528,528,528,528,528,528,528,528,528,528,529,519,505,480,439,340,318,300,283,266,229,211,200,194,182,157,147,138,130,124,113,111,107,105,99],"timestamp_mouse":[33,38,57,78,98,119,138,157,177,198,219,237,257,277,298,319,338,358,379,398,417,438,458,479,498,518,539,557,577,599,617,639,658,679,697,719,738,759,777,797,817,838,858,877,899,918,939,959,978,999,1019,1038,1058,1079,1098,1118,1137,1157,1179],"xSR":741.5,"ySR":458.25,"xT1":424.9,"yT1":0,"xT2":1058.1,"yT2":0,"toosoon":0,"cond_shown":"equaldotanddens","ratio_trial":900,"smaller_num":"9","larger_num":"10","correct_side":1,"subjID":"JuanFernandoMartinez6","gender":"0","age":"11","school":"6"},{"start_time":1551881759731,"click_time":1551881760743,"finger_time":1551881760342,"fix_duration":406.069060943682,"trial":57,"RT":611,"MT":401,"sideResp":2,"stimulus":"img/500/equaldotanddens/R/3_Ratio_500_L_10_R_20.png","xmouse":[794,796,797,797,798,798,799,799,799,799,799,799,799,799,799,799,799,799,798,798,798,798,798,798,798,798,800,803,806,809,825,837,851,866,886,940,982,999,1010,1029,1037,1044,1047,1049,1052,1064,1069,1071,1078,1085,1096],"ymouse":[472,472,472,472,472,472,473,473,473,473,473,473,473,473,473,473,473,474,474,474,474,474,474,474,474,474,472,469,466,460,442,428,408,389,367,318,281,266,255,229,221,214,211,208,201,178,152,133,115,101,83],"timestamp_mouse":[16,31,58,71,92,111,132,151,172,191,212,232,251,271,292,311,330,351,371,392,411,432,451,471,490,511,530,550,571,592,611,632,651,671,691,711,732,751,771,792,811,831,850,870,891,911,931,952,970,991,1012],"xSR":741.5,"ySR":458.25,"xT1":424.9,"yT1":0,"xT2":1058.1,"yT2":0,"toosoon":0,"cond_shown":"equaldotanddens","ratio_trial":500,"smaller_num":"10","larger_num":"20","correct_side":2,"subjID":"JuanFernandoMartinez6","gender":"0","age":"11","school":"6"},{"start_time":1551881762249,"click_time":1551881763661,"finger_time":1551881762823,"fix_duration":886.0679080104995,"trial":58,"RT":574,"MT":838,"sideResp":2,"stimulus":"img/500/equaldotsize/R/15_Ratio_500_L_1_R_2.png","xmouse":[801,801,801,801,801,801,801,801,801,801,801,801,801,801,801,801,801,801,801,801,801,801,801,802,806,809,816,833,861,932,956,975,988,1005,1012,1023,1033,1047,1062,1121,1125,1125,1125,1126,1129,1130,1131,1131,1125,1115,1113,1112,1112,1112,1112,1112,1112,1112,1112,1112,1110,1100,1081,1061,1043,1043,1048,1071,1096,1152,1154],"ymouse":[529,529,529,529,529,529,529,529,529,529,529,529,528,528,528,528,528,528,528,528,528,528,528,527,522,520,517,511,503,472,453,432,410,363,337,314,291,267,249,212,207,206,204,199,190,183,168,150,131,113,109,104,103,102,102,102,102,102,102,102,108,126,148,167,179,179,178,158,140,101,98],"timestamp_mouse":[29,33,52,74,93,112,133,154,172,193,212,232,253,274,293,313,333,353,373,392,413,432,452,472,494,512,532,554,574,593,614,633,654,674,693,712,734,754,772,793,812,833,853,874,893,913,934,952,972,992,1014,1034,1054,1073,1093,1113,1132,1154,1174,1193,1213,1233,1252,1273,1294,1313,1333,1354,1373,1394,1412],"xSR":741.5,"ySR":458.25,"xT1":424.9,"yT1":0,"xT2":1058.1,"yT2":0,"toosoon":0,"cond_shown":"equaldotsize","ratio_trial":500,"smaller_num":"1","larger_num":"2","correct_side":2,"subjID":"JuanFernandoMartinez6","gender":"0","age":"11","school":"6"},{"start_time":1551881766727,"click_time":1551881767662,"finger_time":1551881767363,"fix_duration":663.5347155972034,"trial":59,"RT":636,"MT":299,"sideResp":1,"stimulus":"img/250/randomdotsizeEA/L/2_Ratio_250_L_16_R_4.png","xmouse":[797,797,797,797,797,797,797,797,797,797,797,797,797,797,797,797,797,797,797,797,797,797,797,797,797,797,797,797,795,787,746,718,687,664,652,638,636,631,624,610,607,606,602,591,578,526,493],"ymouse":[532,531,531,531,531,531,531,531,531,531,531,531,531,531,531,531,531,531,531,531,531,531,531,531,531,531,531,531,527,520,488,460,416,365,331,283,274,265,254,234,227,218,207,187,166,94,54],"timestamp_mouse":[20,35,62,75,96,114,136,156,174,194,216,234,255,274,296,315,336,354,374,396,415,434,455,475,495,514,535,556,575,594,615,636,656,675,694,714,736,756,776,796,815,835,854,875,896,914,935],"xSR":741.5,"ySR":458.25,"xT1":424.9,"yT1":0,"xT2":1058.1,"yT2":0,"toosoon":0,"cond_shown":"randomdotsizeEA","ratio_trial":250,"smaller_num":"4","larger_num":"16","correct_side":1,"subjID":"JuanFernandoMartinez6","gender":"0","age":"11","school":"6"},{"start_time":1551881771480,"click_time":1551881772482,"finger_time":1551881772203,"fix_duration":1496.9254421342093,"trial":60,"RT":723,"MT":279,"sideResp":1,"stimulus":"img/500/randomdotsizeEA/L/10_Ratio_500_L_4_R_2.png","xmouse":[799,799,799,799,799,799,799,799,799,799,799,799,799,799,799,799,799,799,799,799,799,799,798,798,798,798,798,798,798,798,798,798,798,798,798,788,767,695,627,566,506,458,434,424,422,421,418,417,417,421,426],"ymouse":[519,519,519,519,519,519,519,519,519,519,519,519,519,519,519,519,519,519,519,519,519,519,519,519,518,518,518,518,518,518,518,518,516,508,500,480,450,369,313,268,224,184,158,128,119,110,104,100,88,75,67],"timestamp_mouse":[8,21,50,61,82,103,122,141,162,183,203,221,243,261,282,301,322,341,361,382,402,422,443,462,481,503,522,542,562,582,601,622,643,661,682,702,723,743,761,782,803,822,842,861,883,903,921,941,962,983,1002],"xSR":741.5,"ySR":458.25,"xT1":424.9,"yT1":0,"xT2":1058.1,"yT2":0,"toosoon":0,"cond_shown":"randomdotsizeEA","ratio_trial":500,"smaller_num":"2","larger_num":"4","correct_side":1,"subjID":"JuanFernandoMartinez6","gender":"0","age":"11","school":"6"},{"start_time":1551881774516,"click_time":1551881775841,"finger_time":1551881775322,"fix_duration":1412.7626407241164,"trial":61,"RT":806,"MT":519,"sideResp":2,"stimulus":"img/750/equaldotanddens/R/7_Ratio_750_L_3_R_4.png","xmouse":[794,794,794,794,794,794,794,794,794,794,794,794,794,794,794,794,794,794,794,794,794,794,794,794,794,794,794,794,794,794,794,794,794,794,794,794,794,794,801,813,822,850,860,877,894,919,929,945,954,965,972,985,993,1001,1013,1020,1033,1037,1042,1043,1044,1045,1046,1046,1048,1055,1066],"ymouse":[507,507,507,507,507,507,507,507,507,507,507,507,507,507,507,507,507,507,507,507,507,507,507,507,507,507,507,507,507,507,507,507,507,507,507,507,507,507,495,469,444,382,363,343,323,287,270,241,224,199,171,122,102,87,73,67,63,63,63,63,63,63,63,63,64,68,71],"timestamp_mouse":[8,25,47,72,87,107,125,146,166,186,205,226,247,266,285,307,326,345,366,386,406,427,445,466,486,507,526,546,566,587,606,625,647,667,686,706,727,745,765,786,806,826,846,867,887,907,925,947,966,987,1005,1025,1046,1067,1086,1106,1126,1145,1165,1186,1206,1225,1245,1266,1286,1307,1325],"xSR":741.5,"ySR":458.25,"xT1":424.9,"yT1":0,"xT2":1058.1,"yT2":0,"toosoon":0,"cond_shown":"equaldotanddens","ratio_trial":750,"smaller_num":"3","larger_num":"4","correct_side":2,"subjID":"JuanFernandoMartinez6","gender":"0","age":"11","school":"6"},{"start_time":1551881777529,"click_time":1551881778623,"finger_time":1551881778341,"fix_duration":1045.635175938558,"trial":62,"RT":812,"MT":282,"sideResp":1,"stimulus":"img/750/equaldotsize/R/5_Ratio_750_L_15_R_20.png","xmouse":[769,769,769,769,769,769,769,769,769,769,769,769,769,769,769,769,769,769,769,769,769,769,769,769,769,769,769,769,769,769,769,769,769,770,770,770,766,760,753,747,726,705,682,666,652,601,586,572,561,551,536,535,531,525,515],"ymouse":[525,525,525,525,525,525,525,525,525,525,525,525,525,525,525,525,525,525,525,525,525,525,525,525,525,525,525,525,525,525,525,525,525,525,524,514,503,489,474,460,416,375,318,264,222,134,119,108,102,97,91,91,90,87,84],"timestamp_mouse":[13,32,58,72,94,113,132,154,172,193,214,233,253,273,293,313,333,354,372,392,413,433,452,474,492,512,532,554,573,593,613,633,652,672,693,712,732,752,772,792,812,832,853,873,892,912,933,952,973,992,1013,1033,1053,1072,1093],"xSR":741.5,"ySR":458.25,"xT1":424.9,"yT1":0,"xT2":1058.1,"yT2":0,"toosoon":0,"cond_shown":"equaldotsize","ratio_trial":750,"smaller_num":"15","larger_num":"20","correct_side":2,"subjID":"JuanFernandoMartinez6","gender":"0","age":"11","school":"6"},{"start_time":1551881780116,"click_time":1551881781282,"finger_time":1551881780743,"fix_duration":291.86358115671806,"trial":63,"RT":627,"MT":539,"sideResp":1,"stimulus":"img/500/randomdotsizeEA/L/8_Ratio_500_L_8_R_4.png","xmouse":[805,805,805,805,805,805,805,805,805,805,805,805,805,805,805,805,805,805,805,805,805,805,805,805,805,805,806,810,815,823,832,849,856,861,868,873,879,882,882,882,882,866,850,821,778,729,652,641,635,632,630,614,595,571,559,553,537,529,517],"ymouse":[499,499,499,499,499,499,499,499,499,499,499,499,499,499,499,499,499,499,499,499,499,499,499,499,499,499,499,500,500,497,489,463,451,439,429,419,403,396,392,391,388,380,373,361,342,320,267,245,222,203,189,157,136,113,104,99,83,76,69],"timestamp_mouse":[8,26,47,66,85,105,125,145,166,186,207,227,246,267,286,305,327,346,366,387,407,425,446,467,486,507,526,547,567,587,607,627,645,666,687,706,727,745,766,786,806,827,846,867,885,906,926,947,965,987,1006,1027,1046,1065,1086,1107,1125,1146,1165],"xSR":741.5,"ySR":458.25,"xT1":424.9,"yT1":0,"xT2":1058.1,"yT2":0,"toosoon":0,"cond_shown":"randomdotsizeEA","ratio_trial":500,"smaller_num":"4","larger_num":"8","correct_side":1,"subjID":"JuanFernandoMartinez6","gender":"0","age":"11","school":"6"},{"start_time":1551881783138,"click_time":1551881784102,"finger_time":1551881783782,"fix_duration":1094.2975088067708,"trial":64,"RT":644,"MT":320,"sideResp":2,"stimulus":"img/500/equaldotanddens/R/12_Ratio_500_L_1_R_2.png","xmouse":[818,818,818,817,817,816,814,812,807,802,797,796,795,793,790,790,789,789,789,789,789,789,789,789,789,789,789,789,790,793,813,831,864,893,944,971,1009,1033,1058,1082,1113,1124,1131,1132,1136,1139,1140,1144,1147],"ymouse":[530,530,530,530,530,529,528,527,525,523,521,521,520,519,516,515,515,515,515,515,515,515,515,515,515,515,515,514,514,513,494,472,437,411,369,349,317,292,261,225,183,169,160,151,134,121,112,102,88],"timestamp_mouse":[9,23,46,64,85,104,125,143,165,184,205,225,245,264,285,304,323,345,364,383,405,425,445,463,485,504,524,544,563,584,604,624,644,665,685,704,723,743,764,785,804,825,845,863,885,904,924,943,964],"xSR":741.5,"ySR":458.25,"xT1":424.9,"yT1":0,"xT2":1058.1,"yT2":0,"toosoon":0,"cond_shown":"equaldotanddens","ratio_trial":500,"smaller_num":"1","larger_num":"2","correct_side":2,"subjID":"JuanFernandoMartinez6","gender":"0","age":"11","school":"6"},{"start_time":1551881786049,"click_time":1551881787441,"finger_time":1551881786924,"fix_duration":1185.7856968344051,"trial":65,"RT":875,"MT":517,"sideResp":2,"stimulus":"img/750/equaldotsize/R/2_Ratio_750_L_6_R_8.png","xmouse":[789,789,789,789,789,789,789,789,789,789,789,789,790,790,790,791,791,791,791,791,792,793,793,793,793,793,793,794,794,790,786,778,772,767,767,765,764,761,758,757,755,753,749,740,738,736,736,736,736,736,736,739,743,753,811,872,932,990,1047,1146,1161,1166,1166,1163,1161,1161,1161,1163,1166,1155],"ymouse":[503,503,503,503,503,503,503,503,503,503,503,503,503,503,503,503,503,503,503,503,503,503,503,503,503,503,503,503,503,502,501,498,497,494,494,492,490,486,484,483,482,480,477,470,468,464,464,463,463,461,461,461,461,460,454,451,443,431,408,320,282,252,230,198,189,179,164,148,113,88],"timestamp_mouse":[12,43,52,73,92,112,134,154,173,193,214,232,253,274,293,313,334,353,374,394,413,434,453,472,493,514,532,553,572,593,614,633,654,673,693,713,733,753,773,792,814,833,854,875,892,912,934,953,973,994,1014,1032,1054,1073,1094,1113,1132,1154,1173,1194,1213,1232,1253,1274,1293,1313,1332,1354,1374,1392],"xSR":741.5,"ySR":458.25,"xT1":424.9,"yT1":0,"xT2":1058.1,"yT2":0,"toosoon":0,"cond_shown":"equaldotsize","ratio_trial":750,"smaller_num":"6","larger_num":"8","correct_side":2,"subjID":"JuanFernandoMartinez6","gender":"0","age":"11","school":"6"},{"start_time":1551881788455,"click_time":1551881789401,"finger_time":1551881789062,"fix_duration":291.08749413164537,"trial":66,"RT":607,"MT":339,"sideResp":1,"stimulus":"img/750/randomdotsizeEA/L/1_Ratio_750_L_20_R_15.png","xmouse":[810,810,810,810,810,808,807,807,807,807,807,807,807,807,807,807,807,807,807,807,807,807,807,807,807,807,807,806,797,779,719,654,605,590,588,588,587,584,583,579,576,575,575,571,532,509,487,468],"ymouse":[515,515,515,515,515,517,518,518,518,518,518,518,518,518,518,518,518,518,518,518,518,518,518,518,518,518,518,518,511,497,453,408,366,342,305,282,260,242,234,215,206,202,197,188,145,122,100,82],"timestamp_mouse":[6,26,52,67,87,108,127,146,166,187,207,226,246,267,286,306,327,348,366,387,407,426,446,467,487,508,526,546,568,586,607,628,647,667,688,707,726,748,767,787,807,826,848,867,886,907,928,946],"xSR":741.5,"ySR":458.25,"xT1":424.9,"yT1":0,"xT2":1058.1,"yT2":0,"toosoon":0,"cond_shown":"randomdotsizeEA","ratio_trial":750,"smaller_num":"15","larger_num":"20","correct_side":1,"subjID":"JuanFernandoMartinez6","gender":"0","age":"11","school":"6"},{"start_time":1551881790884,"click_time":1551881792003,"finger_time":1551881791761,"fix_duration":761.946822970014,"trial":67,"RT":877,"MT":242,"sideResp":1,"stimulus":"img/900/equaldotanddens/L/8_Ratio_900_L_20_R_18.png","xmouse":[792,792,792,792,792,792,792,792,792,792,792,792,792,792,792,792,792,792,792,792,792,792,792,792,792,792,792,792,792,792,792,792,792,792,792,792,792,794,797,799,801,802,802,798,793,782,758,712,699,693,690,685,670,624,550,459],"ymouse":[510,510,510,510,510,510,510,510,510,510,510,510,510,510,510,510,510,510,510,510,510,510,510,510,510,510,510,510,510,510,510,510,510,510,510,510,510,511,507,503,496,489,462,446,431,414,388,351,333,320,305,272,241,183,108,2],"timestamp_mouse":[18,45,58,78,99,117,138,158,179,199,217,237,259,277,298,319,338,358,378,397,418,438,458,477,497,519,538,557,577,597,619,637,657,678,698,719,737,758,777,799,818,839,858,877,898,918,938,957,978,999,1018,1039,1057,1078,1099,1119],"xSR":741.5,"ySR":458.25,"xT1":424.9,"yT1":0,"xT2":1058.1,"yT2":0,"toosoon":0,"cond_shown":"equaldotanddens","ratio_trial":900,"smaller_num":"18","larger_n