[{"start_time":1551882336776,"click_time":1551882424549,"finger_time":1551882336784,"fix_duration":730.7200537814596,"trial":0,"RT":8,"MT":87765,"sideResp":2,"stimulus":[],"xmouse":[838,837,836,835,833,832,831,829,829,829,828,825,817,814,814,814,814,814,814,814,814,814,814,814,814,814,814,815,813,813,813,813,813,812,810,809,807,804,804,803,800,800,800,800,800,800,800,800,800,800,800,800,800,800,800,801,802,803,803,803,803,803,803,803,803,803,803,803,803,803,803,804,806,806,806,806,806,806,806,807,807,807,807,807,807,807,807,807,807,807,807,807,807,807,807,807,807,807,807,807,807,807,807,807,807,807,807,807,806,805,804,804,804,804,804,802,796,786,782,781,781,781,781,781,781,781,781,781,781,781,781,781,781,781,781,781,781,781,781,781,781,781,781,781,781,781,781,781,781,781,781,781,781,781,781,781,781,781,781,781,781,781,781,781,781,781,781,781,781,781,781,781,781,781,781,781,781,781,781,781,781,781,781,781,781,781,781,781,781,781,781,781,781,781,781,781,781,781,781,781,781,781,781,781,781,781,781,781,781,781,781,781,781,781,781,781,781,781,781,781,781,781,781,781,781,781,781,781,781,781,781,781,781,781,781,781,781,781,781,781,781,781,781,781,781,781,781,781,781,781,781,781,781,781,781,781,781,781,781,781,781,781,781,781,781,781,781,781,781,781,781,781,781,781,781,781,781,781,781,781,781,781,781,781,781,781,781,781,781,781,781,781,781,781,781,781,781,781,781,781,781,781,781,781,781,781,781,781,781,781,781,781,781,781,781,781,781,781,781,781,781,781,781,781,781,781,781,781,781,781,781,781,781,781,781,781,781,781,781,781,781,781,781,781,781,781,781,781,781,781,781,781,781,781,781,781,781,781,781,781,781,781,781,781,781,781,781,781,781,781,781,781,781,781,781,781,781,781,781,781,781,781,781,781,781,781,781,781,781,781,781,781,781,781,781,781,781,781,781,781,781,781,781,781,781,781,781,781,781,781,781,781,781,781,781,781,781,781,781,781,781,781,781,781,781,781,781,781,781,781,781,781,781,781,781,781,781,781,781,781,781,781,781,781,781,781,781,781,781,781,781,781,781,781,781,781,781,781,781,781,781,781,781,781,781,781,781,781,781,781,781,781,781,781,781,781,781,781,781,781,781,781,781,781,781,781,781,781,781,781,781,781,781,781,781,781,781,781,781,781,781,781,781,781,781,781,781,781,781,781,781,781,781,781,781,781,781,781,781,781,781,781,781,781,781,781,781,781,781,781,781,781,781,781,781,781,781,781,781,781,781,781,781,781,781,781,781,781,781,781,781,781,781,781,781,781,781,781,781,781,781,781,781,781,781,781,781,781,781,781,781,781,781,781,781,781,781,781,781,781,781,781,781,781,781,781,781,781,781,781,781,781,781,781,781,781,781,781,781,781,781,781,781,781,781,781,781,781,781,781,781,781,781,781,781,781,781,781,781,781,781,781,781,781,781,781,781,781,781,781,781,781,781,781,781,781,781,781,781,781,781,781,781,781,781,781,781,781,781,781,781,781,781,781,781,781,781,781,781,781,781,781,781,781,781,781,781,781,781,781,781,781,781,781,781,781,781,781,781,781,781,781,781,781,781,781,781,781,781,781,781,781,781,781,781,781,781,781,781,781,781,781,781,781,781,781,781,781,781,781,781,781,781,781,781,781,781,781,781,781,781,781,781,781,781,781,781,781,781,781,781,781,781,781,781,781,781,781,781,781,781,781,781,781,781,781,781,781,781,781,781,781,781,781,781,781,781,781,781,781,781,781,781,781,781,781,781,781,781,781,781,781,781,781,781,781,781,781,781,781,781,781,781,781,781,781,781,781,781,781,781,781,781,781,781,781,781,781,781,781,781,781,781,781,781,781,781,781,781,781,781,781,781,781,781,781,781,781,781,781,781,781,781,781,781,781,781,781,781,781,781,781,781,781,781,781,781,781,781,781,781,781,781,781,781,781,781,781,781,781,781,781,781,781,781,781,781,781,781,781,781,781,781,781,781,781,781,781,781,781,781,781,781,781,781,781,781,781,781,781,781,781,781,781,781,781,781,781,781,781,781,781,781,781,781,781,781,781,781,781,781,781,781,781,781,781,781,781,781,781,781,781,781,781,781,781,781,781,781,781,781,781,781,781,781,781,781,781,781,781,781,781,781,781,781,781,781,781,781,781,781,781,781,781,781,781,781,781,781,781,781,781,781,781,781,781,781,781,781,781,781,781,781,781,781,781,781,781,781,781,781,781,781,781,781,781,781,781,781,781,781,781,781,781,781,781,781,781,781,781,781,781,781,781,781,781,781,781,781,781,781,781,781,781,781,781,781,781,781,781,781,781,781,781,781,781,781,781,781,781,781,781,781,781,781,781,781,781,781,781,781,781,781,781,781,781,781,781,781,781,781,781,781,781,781,781,781,781,781,781,781,781,781,781,781,781,781,781,781,781,781,781,781,781,781,781,781,781,781,781,781,781,781,781,781,781,781,781,781,781,781,781,781,781,781,781,781,781,781,781,781,781,781,781,781,781,781,781,781,781,781,781,781,781,781,781,781,781,781,781,781,781,781,781,781,781,781,781,781,781,781,781,781,781,781,781,781,781,781,781,781,781,781,781,781,781,781,781,781,781,781,781,781,781,781,781,781,781,781,781,781,781,781,781,781,781,781,781,781,781,781,781,781,781,781,781,781,781,781,781,781,781,781,781,781,781,781,781,781,781,781,781,781,781,781,781,781,781,781,781,781,781,781,781,781,781,781,781,781,781,781,781,781,781,781,781,781,781,781,781,781,781,781,781,781,781,781,781,781,781,781,781,781,781,781,781,781,781,781,781,781,781,781,781,781,781,781,781,781,781,781,781,781,781,781,781,781,781,781,781,781,781,781,781,781,781,781,781,781,781,781,781,781,781,781,781,781,781,781,781,781,781,781,781,781,781,781,781,781,781,781,781,781,781,781,781,781,781,781,781,781,781,781,781,781,781,781,781,781,781,781,781,781,781,781,781,781,781,781,781,781,781,781,781,781,781,781,781,781,781,781,781,781,781,781,781,781,781,781,781,781,781,781,781,781,781,781,781,781,781,781,781,781,781,781,781,781,781,781,781,781,781,781,781,781,781,781,781,781,781,781,781,781,781,781,781,781,781,781,781,781,781,781,781,781,781,781,781,781,781,781,781,781,781,781,781,781,781,781,781,781,781,781,781,781,781,781,781,781,781,781,781,781,781,781,781,781,781,781,781,781,781,781,781,781,781,781,781,781,781,781,781,781,781,781,781,781,781,781,781,781,781,781,781,781,781,781,781,781,781,781,781,781,781,781,781,781,781,781,781,781,781,781,781,781,781,781,781,781,781,781,781,781,781,781,781,781,781,781,781,781,781,781,781,781,781,781,781,781,781,781,781,781,781,781,781,781,781,781,781,781,781,781,781,781,781,781,781,781,781,781,781,781,781,781,781,781,781,781,781,781,781,781,781,781,781,781,781,781,781,781,781,781,781,781,781,781,781,781,781,781,781,781,781,781,781,781,781,781,781,781,781,781,781,781,781,781,781,781,781,781,781,781,781,781,781,781,781,781,781,781,781,781,781,781,781,781,781,781,781,781,781,781,781,781,781,781,781,781,781,781,781,781,781,781,781,781,781,781,781,781,781,781,781,781,781,781,781,781,781,781,781,781,781,781,781,781,781,781,781,781,781,781,781,781,781,781,781,781,781,781,781,781,781,781,781,781,781,781,781,781,781,781,781,781,781,781,781,781,781,781,781,781,781,781,781,781,781,781,781,781,781,781,781,781,781,781,781,781,781,781,781,781,781,781,781,781,781,781,781,781,781,781,781,781,781,781,781,781,781,781,781,781,781,781,781,781,781,781,781,781,781,781,781,781,781,781,781,781,781,781,781,781,781,781,781,781,781,781,781,781,781,781,781,781,781,781,781,781,781,781,781,781,781,781,781,781,781,781,781,781,781,781,781,781,781,781,781,781,781,781,781,781,781,781,781,781,781,781,781,781,781,781,781,781,781,781,781,781,781,781,781,781,781,781,781,781,781,781,781,781,781,781,781,781,781,781,781,781,781,781,781,781,781,781,781,781,781,781,781,781,781,781,781,781,781,781,781,781,781,781,781,781,781,781,781,781,781,781,781,781,781,781,781,781,781,781,781,781,781,781,781,781,781,781,781,781,781,781,781,781,781,781,781,781,781,781,781,781,781,781,781,781,781,781,781,781,781,781,781,781,781,781,781,781,781,781,781,781,781,781,781,781,781,781,781,781,781,781,781,781,781,781,781,781,781,781,781,781,781,781,781,781,781,781,781,781,781,781,781,781,781,781,781,781,781,781,781,781,781,781,781,781,781,781,781,781,781,781,781,781,781,781,781,781,781,781,781,781,781,781,781,781,781,781,781,781,781,781,781,781,781,781,781,781,781,781,781,781,781,781,781,781,781,781,781,781,781,781,781,781,781,781,781,781,781,781,781,781,781,781,781,781,781,781,781,781,781,781,781,781,781,781,781,781,781,781,781,781,781,781,781,781,781,781,781,781,781,781,781,781,781,781,781,781,781,781,781,781,781,781,781,781,781,781,781,781,781,781,781,781,781,781,781,781,781,781,781,781,781,781,781,781,781,781,781,781,781,781,781,781,781,781,781,781,781,781,781,781,781,781,781,781,781,781,781,781,781,781,781,781,781,781,781,781,781,781,781,781,781,781,781,781,781,781,781,781,781,781,781,781,781,781,781,781,781,781,781,781,781,781,781,781,781,781,781,781,781,781,781,781,781,781,781,781,781,781,781,781,781,781,781,781,781,781,781,781,781,781,781,781,781,781,781,781,781,781,781,781,781,781,781,781,781,781,781,781,781,781,781,781,781,781,781,781,781,781,781,781,781,781,781,781,781,781,781,781,781,781,781,781,781,781,781,781,781,781,781,781,781,781,781,781,781,781,781,781,781,781,781,781,781,781,781,781,781,781,781,781,781,781,781,781,781,781,781,781,781,781,781,781,781,781,781,781,781,781,781,781,781,781,781,781,781,781,781,781,781,781,781,781,781,781,781,781,781,781,781,781,781,781,781,781,781,781,781,781,781,781,781,781,781,781,781,781,781,781,781,781,781,781,781,781,781,781,781,781,781,781,781,781,781,781,781,781,781,781,781,781,781,781,781,781,781,781,781,781,781,781,781,781,781,781,781,781,781,781,781,781,781,781,781,781,781,781,781,781,781,781,781,781,781,781,781,781,781,781,781,781,781,781,781,781,781,781,781,781,781,781,781,781,781,781,781,781,781,781,781,781,781,781,781,781,781,781,781,781,781,781,781,781,781,781,781,781,781,781,781,781,781,781,781,781,781,781,781,781,781,781,781,781,781,781,781,781,781,781,781,781,781,781,781,781,781,781,781,781,781,781,781,781,781,781,781,781,781,781,781,781,781,781,781,781,781,781,781,781,781,781,781,781,781,781,781,781,781,781,781,781,781,781,781,781,781,781,781,781,781,781,781,781,781,781,781,781,781,781,781,781,781,781,781,781,781,781,781,781,781,781,781,781,781,781,781,781,781,781,781,781,781,781,781,781,781,781,781,781,781,781,781,781,781,781,781,781,781,781,781,781,781,781,781,781,781,781,781,781,781,781,781,781,781,781,781,781,781,781,781,781,781,781,781,781,781,781,781,781,781,781,781,781,781,781,781,781,781,781,781,781,781,781,781,781,781,781,781,781,781,781,781,781,781,781,781,781,781,781,781,781,781,781,781,781,781,781,781,781,781,781,781,781,781,781,781,781,781,781,781,781,781,781,781,781,781,781,781,781,781,781,781,781,781,781,781,781,781,781,781,781,781,781,781,781,781,781,781,781,781,781,781,781,781,781,781,781,781,781,781,781,781,781,781,781,781,781,781,781,781,781,781,781,781,781,781,781,781,781,781,781,781,781,781,781,781,781,781,781,781,781,781,781,781,781,781,781,781,781,781,781,781,781,781,781,781,781,781,781,781,781,781,781,781,781,781,781,781,781,781,781,781,781,781,781,781,781,781,781,781,781,781,781,781,781,781,781,781,781,781,781,781,781,781,781,781,781,781,781,781,781,781,781,781,781,781,781,781,781,781,781,781,781,781,781,781,781,781,781,781,781,781,781,781,781,781,781,781,781,781,781,781,781,781,781,781,781,781,781,781,781,781,781,781,781,781,781,781,781,781,781,781,781,781,781,781,781,781,781,781,781,781,781,781,781,781,781,781,781,781,781,781,781,781,781,781,781,781,781,781,781,781,781,781,781,781,781,781,781,781,781,781,781,781,781,781,781,781,781,781,781,781,781,781,781,781,781,781,781,781,781,781,781,781,781,781,781,781,781,781,781,781,781,781,781,781,781,781,781,781,781,781,781,781,781,781,781,781,781,781,781,781,781,781,781,781,781,781,781,781,781,781,781,781,781,781,781,781,781,781,781,781,781,781,781,781,781,781,781,781,781,781,781,781,781,781,781,781,781,781,781,781,781,781,781,781,781,781,781,781,781,781,781,781,781,781,781,781,781,781,781,781,781,781,781,781,781,781,781,781,781,781,781,781,781,781,781,781,781,781,781,781,781,781,781,781,781,781,781,781,781,781,781,781,781,781,781,781,781,781,781,781,781,781,781,781,781,781,781,781,781,781,781,781,781,781,781,781,781,781,781,781,781,781,781,781,781,781,781,781,781,781,781,781,781,781,781,781,781,781,781,781,781,781,781,781,781,781,781,781,781,781,781,781,781,781,781,781,781,781,781,781,781,781,781,781,781,781,781,781,781,781,781,781,781,781,781,781,781,781,781,781,781,781,781,781,781,781,781,781,781,781,781,781,781,781,781,781,781,781,781,781,781,781,781,781,781,781,781,781,781,781,781,781,781,781,781,781,781,781,781,781,781,781,781,781,781,781,781,781,781,781,781,781,781,781,781,781,781,781,781,781,781,781,781,781,781,781,781,781,781,781,781,781,781,781,781,781,781,781,781,781,781,781,781,781,781,781,781,781,781,781,781,781,781,781,781,781,781,781,781,781,781,781,781,781,781,781,781,781,781,781,781,781,781,781,781,781,781,781,781,781,781,781,781,781,781,781,781,781,781,781,781,781,781,781,781,781,781,781,781,781,781,781,781,781,781,781,781,781,781,781,781,781,781,781,781,781,781,781,781,781,781,781,781,781,781,781,781,781,781,781,781,781,781,781,781,781,781,781,781,781,781,781,781,781,781,781,781,781,781,781,781,781,781,781,781,781,781,781,781,781,781,781,781,781,781,781,781,781,781,781,781,781,781,781,781,781,781,781,781,781,781,781,781,781,781,781,781,781,781,781,781,781,781,781,781,781,781,781,781,781,781,781,781,781,781,781,781,781,781,781,781,781,781,781,781,781,781,781,781,781,781,781,781,781,781,781,781,781,781,781,781,781,781,781,781,781,781,781,781,781,781,781,781,781,781,781,781,781,781,781,781,781,781,781,781,781,781,781,781,781,781,781,781,781,781,781,781,781,781,781,781,781,781,781,781,781,781,781,781,781,781,781,781,781,781,781,781,781,781,781,781,781,781,781,781,781,781,781,781,781,781,781,781,781,781,781,781,781,781,781,781,781,781,781,781,781,781,781,781,781,781,781,781,781,781,781,781,781,781,781,781,781,781,781,781,781,781,781,781,781,781,781,781,781,781,781,781,781,781,781,781,781,781,781,781,781,781,781,781,781,781,781,781,781,781,781,781,781,781,781,781,781,781,781,781,781,781,781,781,781,781,781,781,781,781,781,781,781,781,781,781,781,781,781,781,781,781,781,781,781,781,781,781,781,781,781,781,781,781,781,781,781,781,781,781,781,781,781,781,781,781,781,781,781,781,781,781,781,781,781,781,781,781,781,781,781,781,781,781,781,781,781,781,781,781,781,781,781,781,781,781,781,781,781,781,781,781,781,781,781,781,781,781,781,781,781,781,781,781,781,781,781,781,781,781,781,781,781,781,781,781,781,781,781,781,781,781,781,781,781,781,781,781,781,781,781,781,781,781,781,781,781,781,781,781,781,781,781,781,781,781,781,781,781,781,781,781,781,781,781,781,781,781,781,781,781,781,781,781,781,781,781,781,781,781,781,781,781,781,781,781,781,781,781,781,781,781,781,781,781,781,781,781,781,781,781,781,781,781,781,781,781,781,781,781,781,781,781,781,781,781,781,781,781,781,781,781,781,781,781,781,781,781,781,781,781,781,781,781,781,781,781,781,781,781,781,781,781,781,781,781,781,781,781,781,781,781,781,781,781,781,781,781,781,781,781,781,781,781,781,781,781,781,781,781,781,781,781,781,781,781,781,781,781,781,781,781,781,781,781,781,781,781,781,781,781,781,781,781,781,781,781,781,781,781,781,781,781,781,781,781,781,781,781,781,781,781,781,781,781,781,781,781,781,781,781,781,781,781,781,781,781,781,781,781,781,781,781,781,781,781,781,781,781,781,781,781,781,781,781,781,781,781,781,781,781,781,781,781,781,781,781,781,781,781,781,781,781,781,781,781,781,781,781,781,781,781,781,781,781,781,781,781,781,781,781,781,781,781,781,781,781,781,781,781,781,781,781,781,781,781,781,781,781,781,781,781,781,781,781,781,781,781,781,781,781,781,781,781,781,781,781,781,781,781,781,781,781,781,781,781,781,781,781,781,781,781,781,781,781,781,781,781,781,781,781,781,781,781,781,781,781,781,781,781,781,781,781,781,781,781,781,781,781,781,781,781,781,781,781,781,781,781,781,781,781,781,781,781,781,781,781,781,781,781,781,781,781,781,781,781,781,781,781,781,781,781,781,781,781,781,781,781,781,781,781,781,781,781,781,781,781,781,781,781,781,781,781,781,781,781,781,781,781,781,781,781,781,781,781,781,781,781,781,781,781,781,781,781,781,781,781,781,781,781,781,781,781,777,766,758,756,756,756,756,756,756,756,756,754,751,746,746,746,746,746,746,746,746,746,746,746,746,746,746,746,746,746,746,746,746,746,743,699,578,418,323,305,306,306,306,306,306,306,306,306,306,314,331,354,376,405,422,431,440,444,444,420,411,409,409,409,409,412,422,434,459,567,621,663,687,710,713,713,713,713,712,711,711,711,712,717,730,738,745,749,749,749,749,749,749,750,751,751,752,753,757,761,762,763,764,765,765,765,765,766,767,767,767,767,767,767,767,767,767,767,767,767,767,767,767,767,767,767,767,767,767,767,767,767,767,767,767,767,767,767,767,769,770,772,772,772,772,772,772,772,772,772,772,772,772,761,756,756,756,756,756,756,756,756,756,756,756,756,761,762,764,765,765,765,765,765,765,765,765,765,765,765,769,774,780,783,785,785,785,785,785,785,785,785,785,785,785,786,786,786,786,785,786,788,789,789,789,792,796,799,800,801,800,798,794,787,787,787,787,787,787,787,790,792,792,792,792,792,792,793,800,808,810,810,810,810,810,810,810,810,810,810,810,810,810,810,810,810,810,810,810,810,810,810,810,807,802,802,802,802,802,802,801,801,801,801,801,801,801,801,801,799,798,797,797,797,797,797,797,797,797,797,797,797,797,797,797,797,797,797,797,797,797,797,797,797,797,797,797,797,797,797,797,797,797,797,799,809,818,830,844,853,855,855,855,855,858,860,863,868,874,894,908,921,928,929,929,929,929,929,929,929,929,929,929,929,929,930,930,929,924,913,909,904,901,896,889,881,869,862,856,845,830,824,820,819,816,809,806,799,793,792,792,792,792,792,792,792,792,792,792,792,792,790,789,788,786,784,782,780,780,780,780,780,780,780,780,780,780,780,780,780,780,780,780,780,784,787,789,789,789,788,788,786,776,762,758,758,759,760,764,772,769,762,759,759,759,770,773,778,778,784,794,801,806,810,811,811,821,870,966,1095,1291,1358,1399,1420,1431,1434,1434,1434,1434,1422,1399,1362,1309,1242,1180,1047,1029,1001,992,989,991,993,994,995,995,995,997,1001,1006,1042,1074],"ymouse":[345,356,377,383,387,389,391,398,404,409,413,417,425,427,427,427,427,427,427,427,427,427,427,427,427,428,434,443,446,449,453,457,467,471,481,489,502,515,521,526,532,534,534,534,534,534,534,534,534,534,535,535,535,534,531,526,514,511,511,511,511,511,511,511,511,511,511,511,511,511,511,512,517,518,518,520,520,520,520,521,521,521,521,521,521,521,521,521,521,521,521,521,521,521,521,521,521,521,521,521,521,521,521,521,521,521,521,520,515,508,508,508,507,507,507,507,507,504,500,500,500,499,499,499,499,499,499,499,499,499,499,499,499,499,499,499,499,499,499,499,499,499,499,499,499,499,499,499,499,499,499,499,499,499,499,499,499,499,499,499,499,499,499,499,499,499,499,499,499,499,499,499,499,499,499,499,499,499,499,499,499,499,499,499,499,499,499,499,499,499,499,499,499,499,499,499,499,499,499,499,499,499,499,499,499,499,499,499,499,499,499,499,499,499,499,499,499,499,499,499,499,499,499,499,499,499,499,499,499,499,499,499,499,499,499,499,499,499,499,499,499,499,499,499,499,499,499,499,499,499,499,499,499,499,499,499,499,499,499,499,499,499,499,499,499,499,499,499,499,499,499,499,499,499,499,499,499,499,499,499,499,499,499,499,499,499,499,499,499,499,499,499,499,499,499,499,499,499,499,499,499,499,499,499,499,499,499,499,499,499,499,499,499,499,499,499,499,499,499,499,499,499,499,499,499,499,499,499,499,499,499,499,499,499,499,499,499,499,499,499,499,499,499,499,499,499,499,499,499,499,499,499,499,499,499,499,499,499,499,499,499,499,499,499,499,499,499,499,499,499,499,499,499,499,499,499,499,499,499,499,499,499,499,499,499,499,499,499,499,499,499,499,499,499,499,499,499,499,499,499,499,499,499,499,499,499,499,499,499,499,499,499,499,499,499,499,499,499,499,499,499,499,499,499,499,499,499,499,499,499,499,499,499,499,499,499,499,499,499,499,499,499,499,499,499,499,499,499,499,499,499,499,499,499,499,499,499,499,499,499,499,499,499,499,499,499,499,499,499,499,499,499,499,499,499,499,499,499,499,499,499,499,499,499,499,499,499,499,499,499,499,499,499,499,499,499,499,499,499,499,499,499,499,499,499,499,499,499,499,499,499,499,499,499,499,499,499,499,499,499,499,499,499,499,499,499,499,499,499,499,499,499,499,499,499,499,499,499,499,499,499,499,499,499,499,499,499,499,499,499,499,499,499,499,499,499,499,499,499,499,499,499,499,499,499,499,499,499,499,499,499,499,499,499,499,499,499,499,499,499,499,499,499,499,499,499,499,499,499,499,499,499,499,499,499,499,499,499,499,499,499,499,499,499,499,499,499,499,499,499,499,499,499,499,499,499,499,499,499,499,499,499,499,499,499,499,499,499,499,499,499,499,499,499,499,499,499,499,499,499,499,499,499,499,499,499,499,499,499,499,499,499,499,499,499,499,499,499,499,499,499,499,499,499,499,499,499,499,499,499,499,499,499,499,499,499,499,499,499,499,499,499,499,499,499,499,499,499,499,499,499,499,499,499,499,499,499,499,499,499,499,499,499,499,499,499,499,499,499,499,499,499,499,499,499,499,499,499,499,499,499,499,499,499,499,499,499,499,499,499,499,499,499,499,499,499,499,499,499,499,499,499,499,499,499,499,499,499,499,499,499,499,499,499,499,499,499,499,499,499,499,499,499,499,499,499,499,499,499,499,499,499,499,499,499,499,499,499,499,499,499,499,499,499,499,499,499,499,499,499,499,499,499,499,499,499,499,499,499,499,499,499,499,499,499,499,499,499,499,499,499,499,499,499,499,499,499,499,499,499,499,499,499,499,499,499,499,499,499,499,499,499,499,499,499,499,499,499,499,499,499,499,499,499,499,499,499,499,499,499,499,499,499,499,499,499,499,499,499,499,499,499,499,499,499,499,499,499,499,499,499,499,499,499,499,499,499,499,499,499,499,499,499,499,499,499,499,499,499,499,499,499,499,499,499,499,499,499,499,499,499,499,499,499,499,499,499,499,499,499,499,499,499,499,499,499,499,499,499,499,499,499,499,499,499,499,499,499,499,499,499,499,499,499,499,499,499,499,499,499,499,499,499,499,499,499,499,499,499,499,499,499,499,499,499,499,499,499,499,499,499,499,499,499,499,499,499,499,499,499,499,499,499,499,499,499,499,499,499,499,499,499,499,499,499,499,499,499,499,499,499,499,499,499,499,499,499,499,499,499,499,499,499,499,499,499,499,499,499,499,499,499,499,499,499,499,499,499,499,499,499,499,499,499,499,499,499,499,499,499,499,499,499,499,499,499,499,499,499,499,499,499,499,499,499,499,499,499,499,499,499,499,499,499,499,499,499,499,499,499,499,499,499,499,499,499,499,499,499,499,499,499,499,499,499,499,499,499,499,499,499,499,499,499,499,499,499,499,499,499,499,499,499,499,499,499,499,499,499,499,499,499,499,499,499,499,499,499,499,499,499,499,499,499,499,499,499,499,499,499,499,499,499,499,499,499,499,499,499,499,499,499,499,499,499,499,499,499,499,499,499,499,499,499,499,499,499,499,499,499,499,499,499,499,499,499,499,499,499,499,499,499,499,499,499,499,499,499,499,499,499,499,499,499,499,499,499,499,499,499,499,499,499,499,499,499,499,499,499,499,499,499,499,499,499,499,499,499,499,499,499,499,499,499,499,499,499,499,499,499,499,499,499,499,499,499,499,499,499,499,499,499,499,499,499,499,499,499,499,499,499,499,499,499,499,499,499,499,499,499,499,499,499,499,499,499,499,499,499,499,499,499,499,499,499,499,499,499,499,499,499,499,499,499,499,499,499,499,499,499,499,499,499,499,499,499,499,499,499,499,499,499,499,499,499,499,499,499,499,499,499,499,499,499,499,499,499,499,499,499,499,499,499,499,499,499,499,499,499,499,499,499,499,499,499,499,499,499,499,499,499,499,499,499,499,499,499,499,499,499,499,499,499,499,499,499,499,499,499,499,499,499,499,499,499,499,499,499,499,499,499,499,499,499,499,499,499,499,499,499,499,499,499,499,499,499,499,499,499,499,499,499,499,499,499,499,499,499,499,499,499,499,499,499,499,499,499,499,499,499,499,499,499,499,499,499,499,499,499,499,499,499,499,499,499,499,499,499,499,499,499,499,499,499,499,499,499,499,499,499,499,499,499,499,499,499,499,499,499,499,499,499,499,499,499,499,499,499,499,499,499,499,499,499,499,499,499,499,499,499,499,499,499,499,499,499,499,499,499,499,499,499,499,499,499,499,499,499,499,499,499,499,499,499,499,499,499,499,499,499,499,499,499,499,499,499,499,499,499,499,499,499,499,499,499,499,499,499,499,499,499,499,499,499,499,499,499,499,499,499,499,499,499,499,499,499,499,499,499,499,499,499,499,499,499,499,499,499,499,499,499,499,499,499,499,499,499,499,499,499,499,499,499,499,499,499,499,499,499,499,499,499,499,499,499,499,499,499,499,499,499,499,499,499,499,499,499,499,499,499,499,499,499,499,499,499,499,499,499,499,499,499,499,499,499,499,499,499,499,499,499,499,499,499,499,499,499,499,499,499,499,499,499,499,499,499,499,499,499,499,499,499,499,499,499,499,499,499,499,499,499,499,499,499,499,499,499,499,499,499,499,499,499,499,499,499,499,499,499,499,499,499,499,499,499,499,499,499,499,499,499,499,499,499,499,499,499,499,499,499,499,499,499,499,499,499,499,499,499,499,499,499,499,499,499,499,499,499,499,499,499,499,499,499,499,499,499,499,499,499,499,499,499,499,499,499,499,499,499,499,499,499,499,499,499,499,499,499,499,499,499,499,499,499,499,499,499,499,499,499,499,499,499,499,499,499,499,499,499,499,499,499,499,499,499,499,499,499,499,499,499,499,499,499,499,499,499,499,499,499,499,499,499,499,499,499,499,499,499,499,499,499,499,499,499,499,499,499,499,499,499,499,499,499,499,499,499,499,499,499,499,499,499,499,499,499,499,499,499,499,499,499,499,499,499,499,499,499,499,499,499,499,499,499,499,499,499,499,499,499,499,499,499,499,499,499,499,499,499,499,499,499,499,499,499,499,499,499,499,499,499,499,499,499,499,499,499,499,499,499,499,499,499,499,499,499,499,499,499,499,499,499,499,499,499,499,499,499,499,499,499,499,499,499,499,499,499,499,499,499,499,499,499,499,499,499,499,499,499,499,499,499,499,499,499,499,499,499,499,499,499,499,499,499,499,499,499,499,499,499,499,499,499,499,499,499,499,499,499,499,499,499,499,499,499,499,499,499,499,499,499,499,499,499,499,499,499,499,499,499,499,499,499,499,499,499,499,499,499,499,499,499,499,499,499,499,499,499,499,499,499,499,499,499,499,499,499,499,499,499,499,499,499,499,499,499,499,499,499,499,499,499,499,499,499,499,499,499,499,499,499,499,499,499,499,499,499,499,499,499,499,499,499,499,499,499,499,499,499,499,499,499,499,499,499,499,499,499,499,499,499,499,499,499,499,499,499,499,499,499,499,499,499,499,499,499,499,499,499,499,499,499,499,499,499,499,499,499,499,499,499,499,499,499,499,499,499,499,499,499,499,499,499,499,499,499,499,499,499,499,499,499,499,499,499,499,499,499,499,499,499,499,499,499,499,499,499,499,499,499,499,499,499,499,499,499,499,499,499,499,499,499,499,499,499,499,499,499,499,499,499,499,499,499,499,499,499,499,499,499,499,499,499,499,499,499,499,499,499,499,499,499,499,499,499,499,499,499,499,499,499,499,499,499,499,499,499,499,499,499,499,499,499,499,499,499,499,499,499,499,499,499,499,499,499,499,499,499,499,499,499,499,499,499,499,499,499,499,499,499,499,499,499,499,499,499,499,499,499,499,499,499,499,499,499,499,499,499,499,499,499,499,499,499,499,499,499,499,499,499,499,499,499,499,499,499,499,499,499,499,499,499,499,499,499,499,499,499,499,499,499,499,499,499,499,499,499,499,499,499,499,499,499,499,499,499,499,499,499,499,499,499,499,499,499,499,499,499,499,499,499,499,499,499,499,499,499,499,499,499,499,499,499,499,499,499,499,499,499,499,499,499,499,499,499,499,499,499,499,499,499,499,499,499,499,499,499,499,499,499,499,499,499,499,499,499,499,499,499,499,499,499,499,499,499,499,499,499,499,499,499,499,499,499,499,499,499,499,499,499,499,499,499,499,499,499,499,499,499,499,499,499,499,499,499,499,499,499,499,499,499,499,499,499,499,499,499,499,499,499,499,499,499,499,499,499,499,499,499,499,499,499,499,499,499,499,499,499,499,499,499,499,499,499,499,499,499,499,499,499,499,499,499,499,499,499,499,499,499,499,499,499,499,499,499,499,499,499,499,499,499,499,499,499,499,499,499,499,499,499,499,499,499,499,499,499,499,499,499,499,499,499,499,499,499,499,499,499,499,499,499,499,499,499,499,499,499,499,499,499,499,499,499,499,499,499,499,499,499,499,499,499,499,499,499,499,499,499,499,499,499,499,499,499,499,499,499,499,499,499,499,499,499,499,499,499,499,499,499,499,499,499,499,499,499,499,499,499,499,499,499,499,499,499,499,499,499,499,499,499,499,499,499,499,499,499,499,499,499,499,499,499,499,499,499,499,499,499,499,499,499,499,499,499,499,499,499,499,499,499,499,499,499,499,499,499,499,499,499,499,499,499,499,499,499,499,499,499,499,499,499,499,499,499,499,499,499,499,499,499,499,499,499,499,499,499,499,499,499,499,499,499,499,499,499,499,499,499,499,499,499,499,499,499,499,499,499,499,499,499,499,499,499,499,499,499,499,499,499,499,499,499,499,499,499,499,499,499,499,499,499,499,499,499,499,499,499,499,499,499,499,499,499,499,499,499,499,499,499,499,499,499,499,499,499,499,499,499,499,499,499,499,499,499,499,499,499,499,499,499,499,499,499,499,499,499,499,499,499,499,499,499,499,499,499,499,499,499,499,499,499,499,499,499,499,499,499,499,499,499,499,499,499,499,499,499,499,499,499,499,499,499,499,499,499,499,499,499,499,499,499,499,499,499,499,499,499,499,499,499,499,499,499,499,499,499,499,499,499,499,499,499,499,499,499,499,499,499,499,499,499,499,499,499,499,499,499,499,499,499,499,499,499,499,499,499,499,499,499,499,499,499,499,499,499,499,499,499,499,499,499,499,499,499,499,499,499,499,499,499,499,499,499,499,499,499,499,499,499,499,499,499,499,499,499,499,499,499,499,499,499,499,499,499,499,499,499,499,499,499,499,499,499,499,499,499,499,499,499,499,499,499,499,499,499,499,499,499,499,499,499,499,499,499,499,499,499,499,499,499,499,499,499,499,499,499,499,499,499,499,499,499,499,499,499,499,499,499,499,499,499,499,499,499,499,499,499,499,499,499,499,499,499,499,499,499,499,499,499,499,499,499,499,499,499,499,499,499,499,499,499,499,499,499,499,499,499,499,499,499,499,499,499,499,499,499,499,499,499,499,499,499,499,499,499,499,499,499,499,499,499,499,499,499,499,499,499,499,499,499,499,499,499,499,499,499,499,499,499,499,499,499,499,499,499,499,499,499,499,499,499,499,499,499,499,499,499,499,499,499,499,499,499,499,499,499,499,499,499,499,499,499,499,499,499,499,499,499,499,499,499,499,499,499,499,499,499,499,499,499,499,499,499,499,499,499,499,499,499,499,499,499,499,499,499,499,499,499,499,499,499,499,499,499,499,499,499,499,499,499,499,499,499,499,499,499,499,499,499,499,499,499,499,499,499,499,499,499,499,499,499,499,499,499,499,499,499,499,499,499,499,499,499,499,499,499,499,499,499,499,499,499,499,499,499,499,499,499,499,499,499,499,499,499,499,499,499,499,499,499,499,499,499,499,499,499,499,499,499,499,499,499,499,499,499,499,499,499,499,499,499,499,499,499,499,499,499,499,499,499,499,499,499,499,499,499,499,499,499,499,499,499,499,499,499,499,499,499,499,499,499,499,499,499,499,499,499,499,499,499,499,499,499,499,499,499,499,499,499,499,499,499,499,499,499,499,499,499,499,499,499,499,499,499,499,499,499,499,499,499,499,499,499,499,499,499,499,499,499,499,499,499,499,499,499,499,499,499,499,499,499,499,499,499,499,499,499,499,499,499,499,499,499,499,499,499,499,499,499,499,499,499,499,499,499,499,499,499,499,499,499,499,499,499,499,499,499,499,499,499,499,499,499,499,499,499,499,499,499,499,499,499,499,499,499,499,499,499,499,499,499,499,499,499,499,499,499,499,499,499,499,499,499,499,499,499,499,499,499,499,499,499,499,499,499,499,499,499,499,499,499,499,499,499,499,499,499,499,499,499,499,499,499,499,499,499,499,499,499,499,499,499,499,499,499,499,499,499,499,499,499,499,499,499,499,499,499,499,499,499,499,499,499,499,499,499,499,499,499,499,499,499,499,499,499,499,499,499,499,499,499,499,499,499,499,499,499,499,499,499,499,499,499,499,499,499,499,499,499,499,499,499,499,499,499,499,499,499,499,499,499,499,499,499,499,499,499,499,499,499,499,499,499,499,499,499,499,499,499,499,499,499,499,499,499,499,499,499,499,499,499,499,499,499,499,499,499,499,499,499,499,499,499,499,499,499,499,499,499,499,499,499,499,499,499,499,499,499,499,499,499,499,499,499,499,499,499,499,499,499,499,499,499,499,499,499,499,499,499,499,499,499,499,499,499,499,499,499,499,499,499,499,499,499,499,499,499,499,499,499,499,499,499,499,499,499,499,499,499,499,499,499,499,499,499,499,499,499,499,499,499,499,499,499,499,499,499,499,499,499,499,499,499,499,499,499,499,499,499,499,499,499,499,499,499,499,499,499,499,499,499,499,499,499,499,499,499,499,499,499,499,499,499,499,499,499,499,499,499,499,499,499,499,499,499,499,499,499,499,499,499,499,499,499,499,499,499,499,499,499,499,499,499,499,499,499,499,499,499,499,499,499,499,499,499,499,499,499,499,499,499,499,499,499,499,499,499,499,499,499,499,499,499,499,499,499,499,499,499,499,499,499,499,499,499,499,499,499,499,499,499,499,499,499,499,499,499,499,499,499,499,499,499,499,499,499,499,499,499,499,499,499,499,499,499,499,499,499,499,499,499,499,499,499,499,499,499,499,499,499,499,499,499,499,499,499,499,499,499,499,499,499,499,499,499,499,499,499,499,499,499,499,499,499,499,499,499,499,499,499,499,499,499,499,499,499,499,499,499,499,499,499,499,499,499,499,499,499,499,499,499,499,499,499,499,499,499,499,499,499,499,499,499,499,499,499,499,499,499,499,499,499,499,499,499,499,499,499,499,499,499,499,499,499,499,499,499,499,499,499,499,499,499,499,499,499,499,499,499,499,499,499,499,499,499,499,499,499,499,499,499,499,499,499,499,499,499,499,499,499,499,499,499,499,499,499,499,499,499,499,499,499,499,499,499,499,499,499,499,499,499,499,499,499,499,499,499,499,499,499,499,499,499,499,499,499,499,499,499,499,499,499,499,499,499,499,499,499,499,499,499,499,499,499,499,499,499,499,499,499,499,499,499,499,499,499,499,499,499,499,499,499,499,499,499,499,499,499,499,499,499,499,499,499,499,499,499,499,499,499,499,499,499,499,499,499,499,499,499,499,499,499,499,499,499,499,499,499,499,499,499,499,499,499,499,499,499,499,499,499,499,499,499,499,499,499,499,499,499,499,499,499,499,499,499,499,499,499,499,499,499,499,499,499,499,499,499,499,499,499,499,499,499,499,499,499,499,499,499,499,499,499,499,499,499,499,499,499,499,499,499,499,499,499,499,499,499,499,498,498,493,476,476,476,476,476,476,476,476,476,476,476,476,476,476,476,476,476,476,476,476,476,475,469,453,425,400,362,361,361,361,361,361,361,361,361,360,359,359,368,381,404,413,417,421,425,428,498,519,524,524,524,525,524,522,522,528,588,612,627,629,624,621,619,619,618,618,618,618,618,617,617,627,633,638,640,640,640,640,640,634,631,630,630,630,630,632,633,633,633,633,632,632,632,632,631,631,631,631,631,631,631,632,632,632,632,632,632,632,632,632,632,632,632,632,632,632,632,632,632,632,632,632,632,632,632,632,631,620,606,600,600,600,600,600,600,600,600,600,600,599,599,599,599,599,599,599,599,599,599,599,599,599,599,599,599,599,599,599,599,599,599,599,599,599,599,599,599,603,609,615,619,623,624,624,624,624,624,624,624,624,624,624,624,620,618,615,594,588,586,584,584,584,591,605,619,630,641,643,643,643,626,617,611,605,603,603,603,609,619,628,646,648,648,648,647,636,617,612,612,612,612,612,612,612,612,612,612,612,612,612,612,612,612,612,612,612,612,612,615,616,620,625,625,625,625,625,625,624,624,624,624,624,624,624,624,621,617,615,614,612,612,612,612,612,612,612,612,612,612,612,612,612,612,612,612,612,612,612,612,612,612,612,612,612,612,612,612,612,612,612,611,604,589,577,562,541,530,528,528,528,528,527,526,524,522,520,513,507,502,500,499,499,499,499,499,499,499,499,499,499,499,499,499,504,509,518,534,539,545,550,553,560,566,571,575,576,576,577,577,577,577,579,583,585,589,594,595,595,595,595,595,595,595,595,595,595,595,595,598,600,602,608,612,616,618,618,618,618,618,618,618,618,618,618,618,618,618,617,617,614,613,600,587,569,544,524,513,513,513,532,590,732,766,777,778,761,698,567,512,497,497,513,581,599,616,616,584,529,482,454,438,436,435,440,434,360,249,5,0,0,0,0,0,0,0,0,0,5,21,51,78,84,49,39,15,0,0,0,0,0,0,0,0,1,6,11,27,34],"timestamp_mouse":[8,28,48,67,86,106,128,147,167,186,207,228,247,268,288,308,327,348,367,387,407,428,447,467,487,507,527,546,567,586,606,627,646,667,687,712,732,752,772,792,812,833,854,872,892,912,933,953,972,992,1013,1034,1052,1072,1092,1113,1133,1152,1172,1193,1213,1233,1253,1272,1293,1312,1333,1352,1372,1394,1412,1433,1452,1472,1493,1512,1533,1552,1573,1592,1613,1632,1653,1674,1694,1712,1732,1752,1773,1792,1812,1833,1852,1873,1892,1912,1933,1953,1973,1992,2012,2032,2052,2073,2093,2113,2134,2153,2172,2192,2212,2233,2253,2273,2292,2312,2333,2352,2372,2393,2413,2433,2452,2473,2493,2512,2533,2552,2572,2592,2614,2633,2652,2672,2693,2712,2733,2752,2773,2793,2813,2833,2853,2872,2892,2914,2933,2952,2973,2993,3012,3034,3052,3072,3092,3112,3132,3152,3172,3193,3212,3232,3252,3272,3293,3312,3333,3353,3372,3393,3412,3433,3453,3473,3493,3512,3533,3552,3572,3593,3612,3632,3652,3673,3692,3713,3734,3752,3772,3792,3812,3832,3852,3872,3892,3913,3933,3952,3973,3992,4012,4032,4053,4072,4093,4113,4133,4152,4173,4192,4213,4233,4252,4273,4292,4313,4333,4353,4372,4392,4412,4432,4452,4473,4492,4512,4533,4552,4572,4594,4614,4633,4652,4673,4693,4712,4733,4753,4772,4793,4813,4833,4852,4872,4893,4913,4932,4952,4973,4993,5012,5033,5053,5073,5092,5113,5133,5153,5172,5193,5212,5232,5252,5274,5293,5313,5333,5353,5372,5392,5413,5433,5452,5472,5493,5514,5533,5553,5572,5592,5612,5633,5653,5672,5692,5712,5732,5753,5773,5792,5813,5832,5852,5872,5893,5913,5933,5952,5973,5993,6013,6033,6053,6072,6093,6113,6133,6152,6172,6193,6214,6233,6252,6272,6292,6313,6333,6353,6372,6393,6412,6432,6452,6473,6492,6513,6532,6552,6572,6592,6612,6633,6653,6672,6692,6712,6733,6753,6774,6792,6812,6832,6852,6872,6894,6913,6932,6952,6973,6993,7012,7032,7053,7073,7093,7113,7133,7154,7172,7193,7212,7233,7252,7272,7292,7313,7332,7352,7372,7392,7413,7433,7452,7472,7493,7513,7533,7552,7572,7592,7613,7632,7652,7672,7693,7712,7734,7753,7772,7793,7812,7833,7852,7872,7892,7912,7933,7952,7973,7992,8014,8033,8053,8072,8092,8113,8133,8152,8172,8192,8214,8233,8253,8272,8292,8312,8333,8352,8372,8392,8413,8433,8452,8472,8493,8513,8533,8553,8572,8593,8612,8634,8653,8672,8692,8712,8734,8752,8773,8792,8813,8832,8852,8873,8892,8912,8933,8952,8972,8993,9013,9034,9052,9072,9092,9112,9133,9152,9172,9193,9213,9233,9252,9272,9293,9312,9332,9352,9372,9392,9413,9433,9452,9472,9492,9512,9532,9552,9572,9593,9613,9633,9653,9673,9693,9712,9733,9753,9772,9793,9812,9833,9852,9873,9893,9912,9932,9952,9972,9992,10013,10034,10052,10073,10092,10112,10133,10152,10172,10193,10212,10233,10252,10272,10293,10313,10334,10352,10373,10392,10413,10432,10453,10472,10493,10514,10532,10553,10572,10593,10613,10632,10652,10673,10692,10713,10732,10754,10773,10793,10813,10832,10852,10873,10893,10913,10932,10954,10972,10992,11013,11033,11052,11072,11093,11113,11132,11153,11172,11192,11213,11232,11252,11272,11293,11314,11332,11352,11372,11392,11412,11433,11452,11473,11492,11513,11533,11552,11573,11593,11612,11633,11652,11673,11693,11714,11733,11752,11773,11792,11812,11833,11853,11872,11892,11913,11933,11952,11973,11993,12013,12033,12053,12074,12093,12112,12132,12152,12174,12192,12212,12233,12252,12273,12293,12312,12334,12352,12373,12392,12413,12432,12453,12473,12492,12513,12533,12552,12574,12593,12612,12633,12652,12672,12692,12713,12732,12752,12773,12792,12812,12833,12852,12872,12893,12913,12932,12952,12973,12993,13012,13033,13053,13073,13093,13112,13132,13152,13173,13193,13213,13232,13253,13272,13292,13313,13333,13353,13372,13393,13412,13434,13452,13473,13492,13513,13532,13553,13572,13593,13612,13633,13652,13672,13692,13712,13733,13753,13772,13793,13812,13833,13853,13872,13893,13913,13932,13952,13972,13992,14012,14033,14053,14072,14092,14112,14132,14152,14173,14193,14214,14233,14253,14272,14292,14312,14332,14352,14373,14392,14412,14433,14452,14474,14492,14512,14533,14552,14573,14593,14612,14632,14653,14672,14692,14712,14733,14752,14772,14793,14812,14833,14852,14872,14892,14913,14932,14953,14972,14993,15012,15033,15052,15072,15093,15113,15132,15153,15173,15192,15212,15232,15252,15273,15292,15313,15333,15352,15372,15394,15413,15434,15453,15474,15494,15513,15533,15553,15573,15593,15612,15633,15653,15673,15692,15714,15733,15752,15772,15792,15813,15832,15854,15872,15893,15912,15932,15953,15972,15992,16012,16033,16052,16072,16093,16112,16133,16152,16173,16192,16212,16233,16252,16272,16293,16312,16333,16353,16373,16392,16412,16433,16452,16472,16492,16512,16532,16554,16574,16592,16613,16632,16652,16673,16692,16713,16733,16752,16772,16792,16812,16832,16854,16872,16893,16913,16933,16953,16972,16992,17013,17033,17052,17072,17093,17113,17132,17152,17172,17192,17212,17233,17252,17273,17292,17313,17333,17352,17373,17392,17412,17433,17452,17472,17493,17512,17532,17552,17572,17593,17614,17633,17652,17673,17692,17713,17733,17752,17773,17793,17812,17832,17852,17872,17892,17912,17950,17952,17973,17992,18012,18032,18052,18072,18092,18113,18133,18152,18173,18193,18213,18234,18253,18272,18292,18312,18332,18352,18373,18392,18413,18433,18453,18472,18492,18512,18532,18553,18573,18592,18612,18633,18652,18673,18693,18712,18733,18753,18772,18792,18813,18834,18852,18872,18892,18912,18932,18953,18972,18993,19013,19033,19052,19072,19092,19112,19132,19153,19173,19192,19213,19232,19252,19273,19293,19314,19333,19353,19373,19392,19412,19433,19452,19472,19493,19512,19533,19552,19573,19592,19612,19632,19652,19673,19693,19713,19733,19752,19773,19793,19814,19833,19852,19873,19893,19913,19932,19952,19972,19992,20013,20033,20053,20073,20093,20112,20133,20153,20172,20193,20212,20233,20252,20273,20293,20313,20332,20353,20373,20393,20413,20433,20452,20473,20492,20512,20533,20553,20573,20593,20612,20632,20654,20673,20692,20712,20732,20752,20772,20793,20812,20833,20853,20873,20893,20912,20933,20952,20973,20993,21013,21032,21052,21073,21093,21112,21133,21152,21173,21192,21212,21232,21252,21273,21293,21313,21333,21352,21372,21393,21413,21432,21453,21472,21492,21512,21533,21552,21572,21593,21612,21633,21653,21673,21692,21713,21733,21752,21773,21793,21813,21833,21852,21873,21892,21913,21932,21952,21972,21993,22012,22033,22053,22074,22093,22112,22133,22152,22172,22192,22213,22233,22254,22272,22292,22312,22333,22352,22372,22393,22413,22433,22452,22472,22492,22514,22533,22553,22573,22593,22612,22633,22652,22672,22693,22713,22733,22752,22772,22793,22812,22833,22852,22873,22893,22912,22933,22953,22974,22993,23013,23033,23052,23072,23092,23113,23132,23152,23172,23193,23212,23232,23253,23272,23293,23312,23332,23352,23373,23392,23412,23432,23453,23472,23493,23512,23532,23552,23572,23592,23613,23632,23652,23672,23693,23712,23732,23752,23773,23792,23813,23832,23852,23872,23893,23912,23933,23952,23973,23992,24012,24033,24053,24072,24092,24112,24133,24152,24173,24192,24213,24232,24252,24272,24292,24312,24333,24353,24372,24392,24413,24433,24452,24474,24493,24513,24532,24552,24573,24594,24613,24633,24653,24673,24692,24713,24732,24752,24772,24793,24812,24832,24853,24872,24892,24913,24932,24953,24973,24992,25013,25033,25052,25073,25092,25113,25134,25153,25173,25192,25213,25232,25252,25273,25293,25313,25333,25353,25372,25392,25413,25433,25453,25472,25493,25513,25532,25553,25572,25593,25612,25633,25652,25673,25692,25712,25734,25754,25773,25792,25813,25832,25852,25872,25893,25913,25933,25953,25972,25993,26012,26032,26052,26073,26092,26113,26133,26152,26172,26193,26213,26232,26252,26273,26292,26312,26333,26353,26373,26393,26412,26433,26453,26473,26492,26512,26533,26554,26573,26592,26612,26633,26653,26672,26693,26712,26733,26753,26772,26792,26813,26832,26852,26872,26892,26912,26932,26953,26973,26993,27013,27033,27053,27072,27094,27112,27132,27152,27173,27192,27213,27232,27252,27272,27292,27313,27332,27352,27372,27393,27412,27432,27452,27473,27492,27513,27533,27552,27572,27592,27613,27633,27652,27672,27692,27713,27733,27753,27772,27792,27813,27832,27853,27873,27892,27913,27932,27952,27972,27994,28013,28032,28052,28073,28092,28113,28133,28153,28173,28193,28212,28232,28252,28273,28292,28312,28332,28353,28372,28393,28413,28432,28452,28473,28493,28513,28532,28553,28572,28592,28614,28633,28653,28673,28692,28713,28732,28752,28772,28792,28812,28832,28852,28872,28892,28912,28932,28953,28973,28992,29012,29033,29052,29072,29092,29113,29132,29152,29173,29192,29213,29232,29253,29272,29292,29312,29333,29353,29372,29393,29413,29433,29452,29473,29493,29512,29534,29553,29573,29593,29612,29632,29653,29672,29692,29713,29732,29753,29772,29793,29812,29833,29852,29873,29892,29914,29933,29952,29972,29992,30012,30032,30052,30072,30092,30113,30133,30153,30172,30193,30212,30232,30252,30273,30292,30313,30333,30352,30372,30392,30412,30432,30453,30473,30492,30513,30532,30552,30573,30593,30613,30633,30652,30672,30692,30712,30733,30752,30773,30793,30812,30832,30853,30873,30893,30912,30932,30954,30973,30993,31012,31032,31052,31073,31092,31113,31132,31154,31173,31193,31212,31232,31252,31273,31292,31312,31332,31353,31373,31392,31412,31433,31452,31472,31492,31513,31533,31553,31573,31592,31612,31633,31653,31672,31692,31712,31732,31753,31772,31793,31813,31833,31853,31873,31892,31913,31933,31952,31972,31992,32012,32032,32052,32073,32093,32113,32133,32153,32172,32193,32212,32233,32252,32272,32293,32312,32332,32352,32372,32394,32413,32433,32453,32472,32493,32513,32533,32554,32574,32592,32612,32632,32652,32673,32694,32714,32733,32753,32773,32793,32813,32832,32852,32872,32893,32912,32933,32953,32972,32992,33013,33033,33053,33073,33092,33113,33133,33152,33172,33194,33212,33234,33252,33272,33292,33312,33332,33352,33372,33393,33413,33433,33452,33473,33492,33513,33533,33552,33572,33593,33612,33633,33653,33672,33692,33712,33733,33753,33773,33793,33812,33832,33852,33873,33892,33913,33933,33953,33973,33992,34012,34033,34052,34072,34093,34113,34132,34152,34172,34193,34212,34232,34252,34272,34292,34312,34333,34353,34372,34393,34413,34432,34453,34473,34493,34512,34532,34552,34572,34593,34614,34633,34652,34672,34693,34712,34732,34752,34772,34794,34812,34833,34852,34872,34893,34913,34933,34953,34972,34993,35013,35032,35053,35073,35093,35112,35133,35152,35173,35192,35212,35233,35253,35272,35293,35313,35332,35352,35372,35392,35413,35433,35452,35473,35493,35513,35532,35552,35572,35592,35613,35632,35653,35673,35693,35712,35732,35752,35773,35792,35812,35833,35852,35872,35893,35912,35933,35952,35973,35992,36012,36032,36053,36072,36093,36113,36133,36152,36172,36194,36213,36232,36253,36272,36293,36313,36334,36352,36373,36392,36413,36432,36452,36473,36492,36512,36532,36552,36572,36592,36613,36633,36652,36672,36692,36712,36733,36753,36772,36793,36812,36832,36853,36872,36892,36913,36932,36953,36974,36992,37013,37033,37052,37073,37092,37112,37133,37152,37172,37194,37212,37232,37252,37272,37292,37312,37333,37352,37373,37393,37412,37433,37453,37472,37493,37512,37532,37552,37572,37593,37612,37633,37652,37672,37692,37712,37732,37752,37772,37793,37813,37833,37852,37873,37892,37912,37933,37952,37972,37992,38012,38033,38052,38073,38093,38112,38133,38153,38172,38192,38212,38232,38253,38273,38293,38312,38332,38352,38372,38393,38413,38432,38453,38472,38493,38512,38532,38552,38572,38593,38612,38633,38652,38672,38693,38713,38734,38752,38772,38793,38813,38833,38853,38873,38893,38912,38933,38952,38972,38993,39012,39033,39052,39072,39092,39113,39133,39152,39173,39193,39213,39234,39253,39273,39293,39313,39333,39352,39373,39392,39413,39433,39453,39472,39493,39512,39532,39552,39572,39592,39612,39632,39652,39673,39692,39712,39733,39752,39772,39793,39814,39833,39852,39872,39892,39913,39933,39953,39972,39992,40013,40032,40052,40072,40092,40113,40133,40152,40172,40193,40213,40233,40252,40272,40292,40312,40332,40352,40372,40393,40412,40433,40453,40473,40493,40513,40533,40552,40573,40592,40612,40632,40653,40673,40694,40712,40734,40753,40774,40792,40813,40832,40853,40873,40892,40913,40932,40953,40973,40993,41012,41032,41052,41073,41093,41112,41132,41152,41172,41193,41212,41233,41253,41273,41293,41313,41333,41353,41372,41392,41412,41432,41453,41472,41494,41512,41533,41552,41572,41592,41612,41633,41653,41672,41693,41713,41733,41752,41773,41793,41812,41833,41852,41873,41892,41912,41933,41953,41973,41993,42012,42032,42053,42073,42093,42113,42133,42152,42172,42193,42213,42232,42252,42272,42292,42313,42332,42353,42372,42392,42412,42433,42452,42472,42492,42514,42532,42552,42572,42592,42612,42634,42653,42673,42693,42712,42733,42753,42773,42792,42813,42833,42853,42872,42893,42912,42932,42953,42973,42992,43012,43033,43053,43072,43092,43112,43132,43152,43172,43193,43212,43233,43252,43272,43292,43312,43334,43353,43372,43392,43413,43432,43452,43472,43492,43514,43532,43553,43572,43593,43613,43633,43652,43672,43692,43712,43733,43753,43773,43793,43813,43832,43852,43873,43892,43912,43932,43953,43973,43992,44013,44033,44052,44072,44092,44113,44133,44152,44172,44193,44212,44232,44253,44272,44293,44312,44333,44352,44372,44392,44412,44433,44452,44473,44493,44513,44533,44552,44572,44593,44612,44633,44652,44672,44692,44712,44733,44752,44773,44792,44813,44832,44852,44873,44892,44912,44933,44953,44973,44992,45013,45033,45052,45072,45093,45113,45133,45152,45172,45193,45212,45232,45253,45273,45292,45312,45332,45352,45374,45394,45413,45432,45452,45473,45492,45513,45533,45553,45572,45592,45613,45633,45652,45672,45693,45712,45733,45752,45772,45792,45812,45833,45853,45873,45893,45913,45933,45953,45972,45992,46013,46032,46052,46072,46092,46112,46132,46153,46173,46193,46212,46233,46252,46272,46292,46312,46334,46352,46372,46393,46412,46433,46452,46473,46493,46512,46532,46552,46572,46593,46613,46633,46652,46672,46693,46713,46732,46753,46772,46793,46812,46832,46852,46873,46892,46912,46933,46953,46972,46993,47012,47032,47052,47073,47092,47112,47134,47153,47172,47193,47213,47232,47252,47273,47292,47312,47333,47353,47372,47392,47412,47433,47452,47472,47493,47512,47534,47553,47572,47593,47613,47633,47653,47672,47693,47713,47733,47752,47772,47793,47812,47833,47852,47873,47892,47912,47933,47953,47973,47992,48013,48032,48053,48072,48092,48112,48134,48153,48173,48193,48212,48232,48253,48273,48293,48313,48332,48352,48372,48394,48413,48432,48452,48473,48492,48512,48534,48553,48573,48593,48613,48633,48653,48673,48692,48713,48733,48752,48773,48793,48813,48833,48852,48873,48892,48913,48933,48952,48973,48993,49012,49033,49052,49072,49094,49113,49132,49152,49172,49193,49213,49233,49252,49272,49293,49312,49333,49352,49373,49393,49412,49433,49452,49473,49492,49513,49532,49552,49572,49594,49612,49632,49652,49673,49693,49713,49733,49752,49772,49793,49812,49833,49853,49873,49894,49912,49932,49952,49973,49992,50013,50032,50052,50073,50093,50112,50132,50152,50173,50193,50212,50233,50252,50273,50292,50313,50334,50354,50373,50392,50413,50432,50452,50472,50493,50513,50532,50553,50573,50592,50613,50633,50653,50672,50692,50712,50733,50752,50773,50793,50813,50832,50852,50872,50892,50913,50932,50952,50974,50994,51012,51033,51053,51072,51092,51112,51133,51153,51173,51192,51212,51232,51252,51274,51292,51313,51332,51352,51372,51392,51414,51432,51452,51472,51493,51513,51532,51552,51573,51593,51613,51633,51652,51672,51692,51712,51733,51753,51772,51792,51813,51834,51852,51872,51892,51913,51932,51952,51973,51992,52012,52032,52053,52073,52092,52112,52132,52152,52172,52192,52212,52232,52253,52273,52293,52312,52332,52352,52372,52392,52414,52432,52452,52472,52493,52514,52532,52552,52572,52593,52613,52632,52652,52672,52694,52712,52732,52752,52772,52792,52812,52832,52852,52872,52893,52913,52932,52953,52973,52993,53013,53033,53053,53072,53093,53113,53132,53153,53172,53193,53213,53233,53252,53272,53292,53312,53332,53353,53374,53392,53412,53432,53453,53473,53493,53512,53533,53552,53573,53593,53613,53633,53653,53672,53693,53712,53732,53753,53772,53792,53813,53833,53854,53872,53893,53913,53933,53952,53972,53993,54012,54033,54053,54073,54092,54113,54132,54152,54174,54193,54212,54233,54252,54272,54292,54312,54332,54353,54373,54393,54413,54433,54453,54472,54493,54512,54533,54553,54572,54592,54612,54633,54652,54672,54692,54712,54733,54752,54772,54792,54813,54832,54853,54873,54893,54913,54933,54953,54974,54992,55013,55034,55052,55072,55092,55113,55133,55152,55172,55193,55212,55233,55252,55272,55292,55312,55332,55352,55373,55392,55412,55432,55452,55473,55492,55512,55533,55552,55572,55592,55612,55633,55652,55673,55693,55713,55733,55753,55772,55792,55812,55833,55852,55872,55892,55913,55932,55953,55973,55992,56012,56033,56052,56073,56092,56112,56132,56152,56173,56194,56212,56233,56253,56272,56292,56313,56332,56352,56372,56393,56412,56433,56452,56473,56492,56512,56532,56552,56573,56593,56612,56633,56652,56673,56692,56712,56732,56752,56774,56793,56813,56833,56853,56873,56893,56912,56933,56954,56972,56992,57012,57032,57053,57073,57092,57114,57132,57152,57172,57193,57214,57232,57252,57274,57293,57313,57333,57352,57373,57393,57412,57433,57453,57472,57492,57512,57533,57552,57572,57593,57612,57632,57652,57672,57692,57713,57732,57752,57772,57793,57812,57832,57853,57873,57893,57913,57933,57953,57972,57992,58012,58032,58052,58073,58092,58113,58134,58154,58172,58193,58212,58233,58252,58273,58293,58313,58333,58352,58372,58392,58412,58433,58452,58473,58493,58514,58533,58553,58572,58593,58612,58634,58653,58672,58692,58713,58733,58753,58772,58793,58812,58832,58852,58872,58893,58913,58933,58952,58973,58992,59012,59032,59053,59072,59092,59112,59133,59152,59172,59193,59213,59233,59253,59272,59292,59312,59332,59352,59372,59392,59413,59432,59453,59473,59492,59512,59533,59552,59572,59593,59613,59632,59652,59673,59692,59712,59733,59752,59772,59793,59813,59832,59852,59873,59892,59913,59933,59953,59972,59992,60014,60032,60053,60074,60093,60113,60132,60152,60173,60193,60213,60233,60252,60273,60292,60313,60333,60352,60373,60393,60412,60433,60452,60472,60492,60513,60533,60553,60573,60593,60612,60633,60653,60673,60692,60712,60732,60752,60772,60793,60812,60832,60853,60873,60892,60913,60933,60952,60972,60992,61012,61032,61052,61073,61092,61113,61132,61152,61172,61192,61213,61233,61252,61272,61293,61312,61333,61352,61372,61392,61413,61432,61453,61472,61492,61513,61533,61552,61572,61593,61612,61632,61653,61672,61693,61713,61732,61752,61773,61792,61813,61833,61852,61872,61893,61913,61933,61952,61973,61992,62013,62032,62052,62072,62093,62113,62133,62152,62173,62192,62212,62233,62252,62272,62292,62312,62333,62352,62372,62392,62413,62433,62453,62473,62492,62513,62533,62553,62572,62593,62613,62632,62652,62673,62692,62713,62733,62753,62772,62792,62812,62833,62852,62872,62893,62912,62933,62952,62973,62992,63012,63033,63052,63073,63092,63113,63132,63153,63172,63193,63212,63232,63252,63272,63293,63312,63333,63352,63373,63393,63412,63432,63452,63472,63493,63511,63533,63553,63572,63592,63613,63633,63653,63673,63692,63713,63732,63752,63773,63792,63813,63832,63853,63872,63893,63912,63932,63952,63972,63992,64012,64033,64052,64072,64093,64111,64133,64153,64172,64192,64212,64232,64252,64273,64293,64312,64333,64351,64372,64392,64412,64433,64453,64472,64493,64512,64532,64552,64573,64592,64612,64632,64652,64672,64693,64713,64732,64752,64773,64793,64812,64833,64853,64873,64892,64913,64932,64952,64973,64993,65012,65032,65052,65072,65093,65112,65133,65152,65172,65193,65212,65233,65253,65273,65293,65312,65333,65352,65372,65392,65413,65433,65452,65472,65493,65512,65533,65552,65572,65592,65612,65633,65652,65672,65692,65713,65733,65753,65773,65793,65813,65832,65852,65872,65893,65913,65933,65953,65972,65993,66013,66032,66052,66072,66093,66113,66133,66153,66173,66192,66212,66232,66252,66273,66292,66313,66332,66352,66372,66392,66412,66432,66452,66473,66492,66513,66532,66552,66573,66592,66611,66632,66652,66673,66693,66713,66732,66752,66772,66792,66812,66832,66852,66872,66892,66912,66933,66952,66973,66993,67012,67033,67053,67072,67092,67112,67133,67152,67172,67192,67212,67232,67253,67272,67292,67313,67333,67352,67373,67392,67412,67432,67452,67472,67492,67513,67532,67552,67572,67592,67613,67632,67652,67672,67693,67712,67733,67752,67773,67792,67813,67832,67852,67872,67892,67913,67933,67952,67973,67992,68012,68032,68052,68072,68092,68112,68133,68152,68172,68192,68212,68233,68252,68272,68292,68312,68332,68352,68373,68392,68413,68433,68452,68472,68493,68513,68533,68552,68572,68593,68612,68632,68653,68673,68692,68712,68733,68752,68772,68792,68813,68833,68851,68872,68892,68913,68932,68952,68972,68992,69013,69032,69052,69072,69092,69113,69132,69152,69173,69192,69211,69233,69252,69272,69293,69312,69333,69352,69372,69392,69412,69433,69452,69472,69492,69512,69532,69553,69572,69593,69612,69632,69652,69672,69692,69712,69732,69753,69772,69793,69812,69833,69852,69873,69892,69913,69933,69952,69972,69992,70013,70032,70052,70073,70092,70112,70132,70152,70172,70192,70213,70232,70252,70272,70292,70312,70333,70352,70373,70392,70412,70432,70452,70472,70492,70512,70533,70552,70573,70593,70613,70633,70652,70672,70692,70712,70733,70752,70772,70793,70813,70833,70852,70872,70893,70913,70932,70952,70972,70993,71012,71033,71053,71072,71093,71112,71133,71152,71172,71193,71212,71232,71252,71273,71293,71312,71333,71352,71372,71392,71413,71433,71452,71472,71493,71513,71533,71552,71572,71592,71612,71632,71653,71672,71693,71712,71733,71753,71773,71792,71813,71832,71852,71873,71893,71913,71933,71952,71973,71992,72012,72033,72053,72072,72093,72113,72132,72153,72172,72192,72212,72233,72252,72273,72292,72312,72332,72352,72372,72392,72413,72432,72453,72472,72493,72512,72533,72553,72572,72592,72612,72632,72652,72673,72692,72712,72732,72753,72772,72792,72812,72832,72852,72872,72893,72912,72933,72952,72973,72992,73013,73033,73052,73072,73093,73112,73133,73152,73172,73192,73213,73232,73252,73273,73293,73312,73332,73352,73373,73392,73413,73433,73452,73473,73493,73512,73533,73552,73572,73593,73613,73631,73653,73673,73692,73713,73733,73752,73773,73792,73812,73833,73852,73872,73893,73912,73933,73953,73973,73992,74012,74032,74052,74073,74092,74113,74133,74153,74172,74193,74212,74232,74253,74272,74292,74312,74333,74352,74372,74393,74413,74432,74452,74473,74493,74512,74533,74552,74573,74592,74613,74633,74652,74672,74692,74713,74733,74752,74772,74793,74812,74833,74852,74872,74893,74913,74932,74952,74972,74992,75013,75032,75053,75072,75092,75112,75133,75153,75173,75192,75212,75233,75252,75272,75292,75312,75332,75352,75373,75393,75412,75432,75452,75473,75492,75512,75532,75552,75572,75592,75613,75632,75652,75673,75693,75713,75732,75752,75772,75792,75813,75832,75852,75873,75892,75913,75933,75952,75973,75992,76013,76033,76052,76073,76093,76112,76132,76153,76172,76193,76212,76232,76253,76273,76293,76313,76332,76353,76372,76392,76412,76432,76452,76473,76493,76513,76532,76552,76572,76592,76612,76632,76652,76672,76693,76712,76733,76752,76772,76792,76813,76833,76853,76872,76893,76912,76933,76952,76972,76992,77013,77032,77053,77072,77093,77112,77132,77152,77172,77193,77213,77233,77253,77272,77293,77313,77332,77351,77372,77392,77413,77433,77452,77473,77492,77512,77533,77553,77572,77592,77612,77633,77652,77672,77693,77712,77732,77752,77772,77793,77812,77833,77852,77873,77892,77913,77932,77952,77973,77993,78012,78032,78053,78072,78093,78112,78132,78152,78172,78192,78212,78233,78253,78272,78292,78312,78333,78353,78372,78393,78412,78433,78452,78472,78493,78513,78533,78553,78573,78592,78612,78633,78652,78672,78692,78712,78732,78752,78772,78792,78813,78833,78852,78873,78892,78913,78933,78952,78972,78993,79012,79033,79052,79073,79092,79112,79132,79152,79173,79192,79212,79232,79252,79273,79292,79312,79332,79352,79372,79393,79413,79433,79452,79472,79493,79512,79532,79552,79571,79592,79612,79633,79652,79672,79693,79712,79732,79752,79773,79792,79813,79832,79852,79873,79892,79912,79932,79952,79972,79993,80012,80033,80052,80072,80092,80113,80133,80152,80172,80193,80212,80232,80253,80272,80293,80313,80333,80353,80372,80392,80413,80433,80453,80474,80492,80512,80533,80552,80572,80592,80613,80632,80653,80673,80693,80712,80733,80752,80773,80792,80812,80833,80853,80873,80892,80913,80932,80952,80973,80993,81012,81033,81052,81072,81092,81113,81132,81152,81173,81192,81213,81232,81252,81273,81292,81312,81332,81353,81372,81392,81413,81432,81452,81473,81494,81512,81533,81553,81573,81593,81613,81633,81653,81673,81693,81713,81732,81753,81773,81793,81812,81833,81853,81874,81893,81912,81932,81952,81972,81992,82012,82032,82052,82072,82092,82113,82132,82152,82172,82192,82212,82232,82253,82272,82292,82312,82332,82352,82372,82392,82412,82433,82452,82472,82492,82512,82532,82552,82573,82592,82612,82633,82653,82672,82692,82712,82733,82753,82773,82793,82813,82833,82853,82872,82893,82913,82932,82953,82972,82992,83012,83033,83053,83073,83092,83112,83133,83152,83173,83192,83212,83232,83252,83272,83293,83313,83332,83353,83373,83392,83413,83432,83452,83472,83492,83512,83533,83552,83573,83593,83613,83632,83653,83673,83692,83712,83733,83752,83772,83793,83812,83832,83853,83873,83893,83913,83933,83952,83972,83992,84012,84033,84052,84072,84092,84113,84132,84152,84172,84192,84213,84232,84253,84272,84293,84313,84333,84352,84373,84392,84412,84432,84452,84473,84492,84513,84532,84553,84573,84593,84613,84632,84652,84673,84692,84713,84733,84751,84772,84792,84812,84832,84852,84872,84892,84912,84932,84952,84973,84992,85012,85033,85052,85072,85092,85112,85133,85153,85173,85193,85212,85232,85252,85272,85292,85312,85332,85353,85372,85392,85412,85433,85452,85472,85492,85512,85532,85552,85572,85592,85612,85632,85652,85672,85693,85713,85732,85753,85772,85792,85812,85833,85852,85872,85893,85913,85932,85952,85973,85993,86013,86032,86052,86073,86092,86112,86132,86152,86173,86193,86212,86232,86252,86273,86293,86313,86332,86352,86373,86393,86412,86433,86453,86472,86493,86512,86533,86552,86572,86592,86612,86633,86652,86672,86692,86713,86732,86752,86773,86792,86812,86832,86852,86872,86892,86912,86932,86952,86973,86992,87012,87032,87052,87073,87092,87113,87132,87152,87172,87193,87212,87232,87252,87272,87292,87312,87332,87352,87372,87393,87413,87432,87452,87472,87492,87512,87532,87553,87572,87592,87613,87633,87652,87672,87692,87712,87733,87752,87772],"xSR":741.5,"ySR":481,"xT1":424.9,"yT1":0,"xT2":1058.1,"yT2":0,"toosoon":0,"cond_shown":"Incongruent","ratio_trial":300,"L_num":1,"L_den":2,"R_num":2,"R_den":10,"correct_side":1,"subjID":"juanitapardocastrillon28","gender":"1","age":"11","school":"6","test":{"fix_dur":[250,1500],"timestim":1000,"targets_dim":[100,100],"targets_relative_coord":[0.3,0.7],"size_stim":[880,420],"start_dim":[100,100],"size_start":[300,300],"size_fix":60,"samplingrate":20,"img_types":["Congruent","Incongruent"],"ratios":[100,200,300],"rep_conds":19,"nTrials":120,"trials_to_rest":500,"Trials_order":[113,75,88,61,102,105,106,117,33,3,99,44,53,45,32,52,38,94,57,31,78,27,110,47,56,62,24,40,67,97,115,11,7,59,107,26,29,86,91,48,93,65,16,13,34,20,71,109,82,100,81,80,8,39,119,108,15,19,69,72,43,64,9,6,112,18,4,63,30,95,111,98,2,28,14,96,60,118,89,21,17,103,70,36,55,76,74,42,50,35,68,22,58,77,1,101,84,12,41,104,83,114,92,73,66,90,51,37,0,10,116,23,5,49,79,87,25,54,85,46],"cond_shown":["Incongruent","Incongruent","Congruent","Incongruent","Congruent","Incongruent","Congruent","Incongruent","Incongruent","Incongruent","Incongruent","Congruent","Incongruent","Incongruent","Congruent","Congruent","Congruent","Congruent","Incongruent","Incongruent","Congruent","Incongruent","Congruent","Incongruent","Congruent","Congruent","Congruent","Congruent","Incongruent","Incongruent","Incongruent","Incongruent","Incongruent","Incongruent","Incongruent","Congruent","Incongruent","Congruent","Incongruent","Congruent","Incongruent","Incongruent","Congruent","Incongruent","Congruent","Congruent","Incongruent","Incongruent","Congruent","Congruent","Incongruent","Congruent","Congruent","Incongruent","Incongruent","Congruent","Incongruent","Incongruent","Incongruent","Congruent","Incongruent","Congruent","Incongruent","Congruent","Congruent","Congruent","Congruent","Incongruent","Congruent","Incongruent","Incongruent","Congruent","Congruent","Congruent","Congruent","Congruent","Congruent","Congruent","Incongruent","Incongruent","Incongruent","Incongruent","Congruent","Congruent","Incongruent","Congruent","Congruent","Congruent","Congruent","Incongruent","Congruent","Congruent","Congruent","Incongruent","Incongruent","Incongruent","Congruent","Congruent","Incongruent","Congruent","Incongruent","Congruent","Congruent","Incongruent","Congruent","Congruent","Incongruent","Incongruent","Congruent","Congruent","Congruent","Incongruent","Incongruent","Incongruent","Incongruent","Incongruent","Incongruent","Congruent","Incongruent","Congruent"],"ratio_trial":[300,200,300,100,100,200,300,200,200,200,200,200,300,200,200,300,200,300,200,100,100,200,200,300,200,200,100,300,100,100,100,300,100,300,300,200,300,200,100,100,200,300,300,100,300,200,300,100,300,300,200,200,200,200,300,100,200,100,200,100,100,300,200,100,300,100,300,200,100,300,200,200,200,300,200,100,100,300,300,200,300,100,300,100,100,300,200,100,200,300,200,300,300,300,100,300,100,100,300,200,300,100,200,100,100,100,200,100,100,300,200,300,300,100,100,200,100,100,100,300],"left_num":[1,1,5,9,9,7,11,7,1,4,1,6,4,11,15,24,3,9,7,8,11,7,11,13,8,3,11,12,6,13,12,2,9,13,8,20,8,3,9,9,14,7,24,9,1,3,13,9,8,20,7,12,3,7,7,6,1,1,4,4,12,24,14,7,20,1,8,9,4,13,7,6,15,7,3,15,4,5,4,7,7,2,11,9,8,20,12,9,9,3,9,18,1,4,13,4,4,9,4,4,13,7,6,6,9,3,1,9,11,20,3,4,13,12,6,4,3,12,8,3],"right_num":[2,3,7,13,8,14,2,4,3,6,2,7,2,3,4,8,11,3,14,1,4,8,3,12,7,11,4,2,3,6,9,6,6,12,14,9,14,14,13,8,12,8,2,6,6,14,12,14,10,13,14,6,9,14,8,5,3,8,6,15,2,2,6,15,5,18,10,8,6,12,6,7,4,20,14,13,15,6,2,6,8,6,1,8,6,5,6,8,13,4,13,9,6,6,6,2,15,8,2,3,12,15,3,13,8,4,3,20,6,5,9,6,12,9,7,1,11,13,6,11],"left_den":[2,2,25,15,15,10,22,15,2,5,3,12,20,20,25,30,10,10,10,20,22,10,22,26,15,10,22,24,12,26,24,4,18,26,10,25,10,6,15,15,30,10,30,18,5,10,26,15,15,25,10,20,12,10,10,20,2,2,5,10,30,30,30,14,25,2,15,15,8,26,15,12,25,14,6,25,10,25,20,15,10,4,22,15,16,25,15,15,30,6,30,20,5,5,26,20,10,15,20,8,26,14,15,10,15,20,2,10,22,25,12,5,26,24,10,30,5,30,16,12],"right_den":[10,10,14,26,16,28,10,6,10,10,15,10,4,4,10,16,22,5,28,2,10,16,10,15,21,22,10,10,5,10,15,30,10,15,28,15,28,20,26,16,18,20,4,10,12,28,15,28,12,26,28,15,20,28,20,25,10,20,10,30,4,4,9,25,10,30,12,10,10,15,9,10,10,25,20,26,30,12,4,9,20,15,5,16,10,10,10,16,26,20,26,15,12,12,10,4,30,16,4,10,15,25,15,26,16,16,10,25,15,10,20,12,15,15,14,3,22,26,10,20],"correct_side":[1,1,2,1,1,1,1,2,1,1,1,2,2,2,1,1,2,1,1,2,1,1,1,2,1,2,1,1,2,2,2,1,2,2,1,1,1,2,1,1,2,1,1,2,2,2,2,1,2,1,1,1,2,1,1,1,1,1,1,2,2,1,2,2,1,2,2,2,2,2,2,2,1,2,2,1,2,2,2,2,1,1,1,1,2,1,1,1,2,1,2,1,2,1,2,2,2,1,2,1,2,2,1,1,1,2,1,1,1,1,2,1,2,2,1,2,1,2,2,2],"img_shown":["img2/300/Incongruent/L/I_Dist_300_LN_1_LD_2_RN_2_RD_10_0.png","img2/200/Incongruent/L/I_Dist_200_LN_1_LD_2_RN_3_RD_10_0.png","img2/300/Congruent/R/C_Dist_300_LN_5_LD_25_RN_7_RD_14_1.png","img2/100/Incongruent/L/I_Dist_100_LN_9_LD_15_RN_13_RD_26_0.png","img2/100/Congruent/L/C_Dist_100_LN_9_LD_15_RN_8_RD_16_0.png","img2/200/Incongruent/L/I_Dist_200_LN_7_LD_10_RN_14_RD_28_0.png","img2/300/Congruent/L/C_Dist_300_LN_11_LD_22_RN_2_RD_10_0.png","img2/200/Incongruent/R/I_Dist_200_LN_7_LD_15_RN_4_RD_6_1.png","img2/200/Incongruent/L/I_Dist_200_LN_1_LD_2_RN_3_RD_10_0.png","img2/200/Incongruent/L/I_Dist_200_LN_4_LD_5_RN_6_RD_10_0.png","img2/200/Incongruent/L/I_Dist_200_LN_1_LD_3_RN_2_RD_15_0.png","img2/200/Congruent/R/C_Dist_200_LN_6_LD_12_RN_7_RD_10_1.png","img2/300/Incongruent/R/I_Dist_300_LN_4_LD_20_RN_2_RD_4_1.png","img2/200/Incongruent/R/I_Dist_200_LN_11_LD_20_RN_3_RD_4_1.png","img2/200/Congruent/L/C_Dist_200_LN_15_LD_25_RN_4_RD_10_0.png","img2/300/Congruent/L/C_Dist_300_LN_24_LD_30_RN_8_RD_16_0.png","img2/200/Congruent/R/C_Dist_200_LN_3_LD_10_RN_11_RD_22_1.png","img2/300/Congruent/L/C_Dist_300_LN_9_LD_10_RN_3_RD_5_0.png","img2/200/Incongruent/L/I_Dist_200_LN_7_LD_10_RN_14_RD_28_0.png","img2/100/Incongruent/R/I_Dist_100_LN_8_LD_20_RN_1_RD_2_1.png","img2/100/Congruent/L/C_Dist_100_LN_11_LD_22_RN_4_RD_10_0.png","img2/200/Incongruent/L/I_Dist_200_LN_7_LD_10_RN_8_RD_16_0.png","img2/200/Congruent/L/C_Dist_200_LN_11_LD_22_RN_3_RD_10_0.png","img2/300/Incongruent/R/I_Dist_300_LN_13_LD_26_RN_12_RD_15_1.png","img2/200/Congruent/L/C_Dist_200_LN_8_LD_15_RN_7_RD_21_0.png","img2/200/Congruent/R/C_Dist_200_LN_3_LD_10_RN_11_RD_22_1.png","img2/100/Congruent/L/C_Dist_100_LN_11_LD_22_RN_4_RD_10_0.png","img2/300/Congruent/L/C_Dist_300_LN_12_LD_24_RN_2_RD_10_0.png","img2/100/Incongruent/R/I_Dist_100_LN_6_LD_12_RN_3_RD_5_1.png","img2/100/Incongruent/R/I_Dist_100_LN_13_LD_26_RN_6_RD_10_1.png","img2/100/Incongruent/R/I_Dist_100_LN_12_LD_24_RN_9_RD_15_1.png","img2/300/Incongruent/L/I_Dist_300_LN_2_LD_4_RN_6_RD_30_0.png","img2/100/Incongruent/R/I_Dist_100_LN_9_LD_18_RN_6_RD_10_1.png","img2/300/Incongruent/R/I_Dist_300_LN_13_LD_26_RN_12_RD_15_1.png","img2/300/Incongruent/L/I_Dist_300_LN_8_LD_10_RN_14_RD_28_0.png","img2/200/Congruent/L/C_Dist_200_LN_20_LD_25_RN_9_RD_15_0.png","img2/300/Incongruent/L/I_Dist_300_LN_8_LD_10_RN_14_RD_28_0.png","img2/200/Congruent/R/C_Dist_200_LN_3_LD_6_RN_14_RD_20_1.png","img2/100/Incongruent/L/I_Dist_100_LN_9_LD_15_RN_13_RD_26_0.png","img2/100/Congruent/L/C_Dist_100_LN_9_LD_15_RN_8_RD_16_0.png","img2/200/Incongruent/R/I_Dist_200_LN_14_LD_30_RN_12_RD_18_1.png","img2/300/Incongruent/L/I_Dist_300_LN_7_LD_10_RN_8_RD_20_0.png","img2/300/Congruent/L/C_Dist_300_LN_24_LD_30_RN_2_RD_4_0.png","img2/100/Incongruent/R/I_Dist_100_LN_9_LD_18_RN_6_RD_10_1.png","img2/300/Congruent/R/C_Dist_300_LN_1_LD_5_RN_6_RD_12_1.png","img2/200/Congruent/R/C_Dist_200_LN_3_LD_10_RN_14_RD_28_1.png","img2/300/Incongruent/R/I_Dist_300_LN_13_LD_26_RN_12_RD_15_1.png","img2/100/Incongruent/L/I_Dist_100_LN_9_LD_15_RN_14_RD_28_0.png","img2/300/Congruent/R/C_Dist_300_LN_8_LD_15_RN_10_RD_12_1.png","img2/300/Congruent/L/C_Dist_300_LN_20_LD_25_RN_13_RD_26_0.png","img2/200/Incongruent/L/I_Dist_200_LN_7_LD_10_RN_14_RD_28_0.png","img2/200/Congruent/L/C_Dist_200_LN_12_LD_20_RN_6_RD_15_0.png","img2/200/Congruent/R/C_Dist_200_LN_3_LD_12_RN_9_RD_20_1.png","img2/200/Incongruent/L/I_Dist_200_LN_7_LD_10_RN_14_RD_28_0.png","img2/300/Incongruent/L/I_Dist_300_LN_7_LD_10_RN_8_RD_20_0.png","img2/100/Congruent/L/C_Dist_100_LN_6_LD_20_RN_5_RD_25_0.png","img2/200/Incongruent/L/I_Dist_200_LN_1_LD_2_RN_3_RD_10_0.png","img2/100/Incongruent/L/I_Dist_100_LN_1_LD_2_RN_8_RD_20_0.png","img2/200/Incongruent/L/I_Dist_200_LN_4_LD_5_RN_6_RD_10_0.png","img2/100/Congruent/R/C_Dist_100_LN_4_LD_10_RN_15_RD_30_1.png","img2/100/Incongruent/R/I_Dist_100_LN_12_LD_30_RN_2_RD_4_1.png","img2/300/Congruent/L/C_Dist_300_LN_24_LD_30_RN_2_RD_4_0.png","img2/200/Incongruent/R/I_Dist_200_LN_14_LD_30_RN_6_RD_9_1.png","img2/100/Congruent/R/C_Dist_100_LN_7_LD_14_RN_15_RD_25_1.png","img2/300/Congruent/L/C_Dist_300_LN_20_LD_25_RN_5_RD_10_0.png","img2/100/Congruent/R/C_Dist_100_LN_1_LD_2_RN_18_RD_30_1.png","img2/300/Congruent/R/C_Dist_300_LN_8_LD_15_RN_10_RD_12_1.png","img2/200/Incongruent/R/I_Dist_200_LN_9_LD_15_RN_8_RD_10_1.png","img2/100/Congruent/R/C_Dist_100_LN_4_LD_8_RN_6_RD_10_1.png","img2/300/Incongruent/R/I_Dist_300_LN_13_LD_26_RN_12_RD_15_1.png","img2/200/Incongruent/R/I_Dist_200_LN_7_LD_15_RN_6_RD_9_1.png","img2/200/Congruent/R/C_Dist_200_LN_6_LD_12_RN_7_RD_10_1.png","img2/200/Congruent/L/C_Dist_200_LN_15_LD_25_RN_4_RD_10_0.png","img2/300/Congruent/R/C_Dist_300_LN_7_LD_14_RN_20_RD_25_1.png","img2/200/Congruent/R/C_Dist_200_LN_3_LD_6_RN_14_RD_20_1.png","img2/100/Congruent/L/C_Dist_100_LN_15_LD_25_RN_13_RD_26_0.png","img2/100/Congruent/R/C_Dist_100_LN_4_LD_10_RN_15_RD_30_1.png","img2/300/Congruent/R/C_Dist_300_LN_5_LD_25_RN_6_RD_12_1.png","img2/300/Incongruent/R/I_Dist_300_LN_4_LD_20_RN_2_RD_4_1.png","img2/200/Incongruent/R/I_Dist_200_LN_7_LD_15_RN_6_RD_9_1.png","img2/300/Incongruent/L/I_Dist_300_LN_7_LD_10_RN_8_RD_20_0.png","img2/100/Incongruent/L/I_Dist_100_LN_2_LD_4_RN_6_RD_15_0.png","img2/300/Congruent/L/C_Dist_300_LN_11_LD_22_RN_1_RD_5_0.png","img2/100/Congruent/L/C_Dist_100_LN_9_LD_15_RN_8_RD_16_0.png","img2/100/Incongruent/R/I_Dist_100_LN_8_LD_16_RN_6_RD_10_1.png","img2/300/Congruent/L/C_Dist_300_LN_20_LD_25_RN_5_RD_10_0.png","img2/200/Congruent/L/C_Dist_200_LN_12_LD_15_RN_6_RD_10_0.png","img2/100/Congruent/L/C_Dist_100_LN_9_LD_15_RN_8_RD_16_0.png","img2/200/Congruent/R/C_Dist_200_LN_9_LD_30_RN_13_RD_26_1.png","img2/300/Incongruent/L/I_Dist_300_LN_3_LD_6_RN_4_RD_20_0.png","img2/200/Congruent/R/C_Dist_200_LN_9_LD_30_RN_13_RD_26_1.png","img2/300/Congruent/L/C_Dist_300_LN_18_LD_20_RN_9_RD_15_0.png","img2/300/Congruent/R/C_Dist_300_LN_1_LD_5_RN_6_RD_12_1.png","img2/300/Incongruent/L/I_Dist_300_LN_4_LD_5_RN_6_RD_12_0.png","img2/100/Incongruent/R/I_Dist_100_LN_13_LD_26_RN_6_RD_10_1.png","img2/300/Incongruent/R/I_Dist_300_LN_4_LD_20_RN_2_RD_4_1.png","img2/100/Congruent/R/C_Dist_100_LN_4_LD_10_RN_15_RD_30_1.png","img2/100/Congruent/L/C_Dist_100_LN_9_LD_15_RN_8_RD_16_0.png","img2/300/Incongruent/R/I_Dist_300_LN_4_LD_20_RN_2_RD_4_1.png","img2/200/Congruent/L/C_Dist_200_LN_4_LD_8_RN_3_RD_10_0.png","img2/300/Incongruent/R/I_Dist_300_LN_13_LD_26_RN_12_RD_15_1.png","img2/100/Congruent/R/C_Dist_100_LN_7_LD_14_RN_15_RD_25_1.png","img2/200/Congruent/L/C_Dist_200_LN_6_LD_15_RN_3_RD_15_0.png","img2/100/Incongruent/L/I_Dist_100_LN_6_LD_10_RN_13_RD_26_0.png","img2/100/Congruent/L/C_Dist_100_LN_9_LD_15_RN_8_RD_16_0.png","img2/100/Congruent/R/C_Dist_100_LN_3_LD_20_RN_4_RD_16_1.png","img2/200/Incongruent/L/I_Dist_200_LN_1_LD_2_RN_3_RD_10_0.png","img2/100/Incongruent/L/I_Dist_100_LN_9_LD_10_RN_20_RD_25_0.png","img2/100/Congruent/L/C_Dist_100_LN_11_LD_22_RN_6_RD_15_0.png","img2/300/Congruent/L/C_Dist_300_LN_20_LD_25_RN_5_RD_10_0.png","img2/200/Congruent/R/C_Dist_200_LN_3_LD_12_RN_9_RD_20_1.png","img2/300/Incongruent/L/I_Dist_300_LN_4_LD_5_RN_6_RD_12_0.png","img2/300/Incongruent/R/I_Dist_300_LN_13_LD_26_RN_12_RD_15_1.png","img2/100/Incongruent/R/I_Dist_100_LN_12_LD_24_RN_9_RD_15_1.png","img2/100/Incongruent/L/I_Dist_100_LN_6_LD_10_RN_7_RD_14_0.png","img2/200/Incongruent/R/I_Dist_200_LN_4_LD_30_RN_1_RD_3_1.png","img2/100/Incongruent/L/I_Dist_100_LN_3_LD_5_RN_11_RD_22_0.png","img2/100/Congruent/R/C_Dist_100_LN_12_LD_30_RN_13_RD_26_1.png","img2/100/Incongruent/R/I_Dist_100_LN_8_LD_16_RN_6_RD_10_1.png","img2/300/Congruent/R/C_Dist_300_LN_3_LD_12_RN_11_RD_20_1.png"],"dist100_C":[["C_Dist_100_LN_10_LD_25_RN_3_RD_10_0.png","C_Dist_100_LN_11_LD_22_RN_4_RD_10_0.png","C_Dist_100_LN_11_LD_22_RN_6_RD_15_0.png","C_Dist_100_LN_15_LD_25_RN_13_RD_26_0.png","C_Dist_100_LN_3_LD_6_RN_2_RD_5_0.png","C_Dist_100_LN_6_LD_20_RN_5_RD_25_0.png","C_Dist_100_LN_8_LD_16_RN_2_RD_5_0.png","C_Dist_100_LN_9_LD_15_RN_8_RD_16_0.png"],["C_Dist_100_LN_1_LD_2_RN_18_RD_30_1.png","C_Dist_100_LN_1_LD_2_RN_3_RD_5_1.png","C_Dist_100_LN_12_LD_30_RN_13_RD_26_1.png","C_Dist_100_LN_2_LD_5_RN_11_RD_22_1.png","C_Dist_100_LN_2_LD_5_RN_6_RD_12_1.png","C_Dist_100_LN_3_LD_20_RN_4_RD_16_1.png","C_Dist_100_LN_4_LD_10_RN_15_RD_30_1.png","C_Dist_100_LN_4_LD_8_RN_6_RD_10_1.png","C_Dist_100_LN_6_LD_12_RN_15_RD_25_1.png","C_Dist_100_LN_7_LD_14_RN_15_RD_25_1.png","C_Dist_100_LN_7_LD_14_RN_9_RD_15_1.png"]],"dist100_I":[["I_Dist_100_LN_1_LD_2_RN_8_RD_20_0.png","I_Dist_100_LN_2_LD_4_RN_6_RD_15_0.png","I_Dist_100_LN_2_LD_4_RN_8_RD_20_0.png","I_Dist_100_LN_3_LD_5_RN_11_RD_22_0.png","I_Dist_100_LN_3_LD_5_RN_8_RD_16_0.png","I_Dist_100_LN_3_LD_6_RN_4_RD_10_0.png","I_Dist_100_LN_3_LD_9_RN_7_RD_30_0.png","I_Dist_100_LN_4_LD_8_RN_8_RD_20_0.png","I_Dist_100_LN_6_LD_10_RN_11_RD_22_0.png","I_Dist_100_LN_6_LD_10_RN_13_RD_26_0.png","I_Dist_100_LN_6_LD_10_RN_7_RD_14_0.png","I_Dist_100_LN_9_LD_10_RN_20_RD_25_0.png","I_Dist_100_LN_9_LD_15_RN_13_RD_26_0.png","I_Dist_100_LN_9_LD_15_RN_14_RD_28_0.png"],["I_Dist_100_LN_10_LD_25_RN_8_RD_16_1.png","I_Dist_100_LN_10_LD_25_RN_9_RD_18_1.png","I_Dist_100_LN_11_LD_22_RN_9_RD_15_1.png","I_Dist_100_LN_12_LD_24_RN_9_RD_15_1.png","I_Dist_100_LN_12_LD_30_RN_2_RD_4_1.png","I_Dist_100_LN_13_LD_26_RN_12_RD_20_1.png","I_Dist_100_LN_13_LD_26_RN_6_RD_10_1.png","I_Dist_100_LN_17_LD_30_RN_10_RD_15_1.png","I_Dist_100_LN_6_LD_12_RN_3_RD_5_1.png","I_Dist_100_LN_8_LD_16_RN_6_RD_10_1.png","I_Dist_100_LN_8_LD_20_RN_1_RD_2_1.png","I_Dist_100_LN_9_LD_18_RN_6_RD_10_1.png"]],"dist100_S":[["E_Dist_100_LN_2_LD_12_RN_2_RD_30_0.png","E_Dist_100_LN_6_LD_10_RN_6_RD_12_0.png"],["E_Dist_100_LN_6_LD_12_RN_6_RD_10_1.png"]],"dist200_C":[["C_Dist_200_LN_11_LD_22_RN_3_RD_10_0.png","C_Dist_200_LN_12_LD_15_RN_6_RD_10_0.png","C_Dist_200_LN_12_LD_20_RN_6_RD_15_0.png","C_Dist_200_LN_14_LD_28_RN_6_RD_20_0.png","C_Dist_200_LN_15_LD_25_RN_4_RD_10_0.png","C_Dist_200_LN_16_LD_20_RN_12_RD_20_0.png","C_Dist_200_LN_16_LD_30_RN_9_RD_27_0.png","C_Dist_200_LN_20_LD_25_RN_9_RD_15_0.png","C_Dist_200_LN_21_LD_30_RN_2_RD_4_0.png","C_Dist_200_LN_4_LD_10_RN_3_RD_15_0.png","C_Dist_200_LN_4_LD_8_RN_3_RD_10_0.png","C_Dist_200_LN_6_LD_15_RN_3_RD_15_0.png","C_Dist_200_LN_7_LD_21_RN_2_RD_15_0.png","C_Dist_200_LN_8_LD_15_RN_2_RD_6_0.png","C_Dist_200_LN_8_LD_15_RN_3_RD_9_0.png","C_Dist_200_LN_8_LD_15_RN_7_RD_21_0.png","C_Dist_200_LN_9_LD_20_RN_4_RD_16_0.png"],["C_Dist_200_LN_1_LD_2_RN_21_RD_30_1.png","C_Dist_200_LN_13_LD_26_RN_14_RD_20_1.png","C_Dist_200_LN_3_LD_10_RN_11_RD_22_1.png","C_Dist_200_LN_3_LD_10_RN_14_RD_28_1.png","C_Dist_200_LN_3_LD_10_RN_7_RD_14_1.png","C_Dist_200_LN_3_LD_12_RN_9_RD_20_1.png","C_Dist_200_LN_3_LD_6_RN_14_RD_20_1.png","C_Dist_200_LN_5_LD_10_RN_14_RD_20_1.png","C_Dist_200_LN_6_LD_12_RN_7_RD_10_1.png","C_Dist_200_LN_6_LD_20_RN_11_RD_22_1.png","C_Dist_200_LN_7_LD_15_RN_18_RD_27_1.png","C_Dist_200_LN_9_LD_30_RN_13_RD_26_1.png"]],"dist200_I":[["I_Dist_200_LN_1_LD_2_RN_3_RD_10_0.png","I_Dist_200_LN_1_LD_3_RN_2_RD_15_0.png","I_Dist_200_LN_3_LD_4_RN_11_RD_20_0.png","I_Dist_200_LN_4_LD_5_RN_6_RD_10_0.png","I_Dist_200_LN_4_LD_6_RN_14_RD_30_0.png","I_Dist_200_LN_7_LD_10_RN_12_RD_24_0.png","I_Dist_200_LN_7_LD_10_RN_14_RD_28_0.png","I_Dist_200_LN_7_LD_10_RN_8_RD_16_0.png"],["I_Dist_200_LN_11_LD_20_RN_3_RD_4_1.png","I_Dist_200_LN_14_LD_30_RN_12_RD_18_1.png","I_Dist_200_LN_14_LD_30_RN_6_RD_9_1.png","I_Dist_200_LN_3_LD_10_RN_1_RD_2_1.png","I_Dist_200_LN_4_LD_30_RN_1_RD_3_1.png","I_Dist_200_LN_6_LD_20_RN_3_RD_6_1.png","I_Dist_200_LN_7_LD_15_RN_4_RD_6_1.png","I_Dist_200_LN_7_LD_15_RN_6_RD_9_1.png","I_Dist_200_LN_9_LD_15_RN_8_RD_10_1.png"]],"dist200_S":[["E_Dist_200_LN_3_LD_6_RN_3_RD_10_0.png"],["E_Dist_200_LN_3_LD_10_RN_3_RD_6_1.png"]],"dist300_C":[["C_Dist_300_LN_11_LD_22_RN_1_RD_5_0.png","C_Dist_300_LN_11_LD_22_RN_2_RD_10_0.png","C_Dist_300_LN_11_LD_22_RN_4_RD_20_0.png","C_Dist_300_LN_12_LD_24_RN_2_RD_10_0.png","C_Dist_300_LN_18_LD_20_RN_9_RD_15_0.png","C_Dist_300_LN_20_LD_25_RN_13_RD_26_0.png","C_Dist_300_LN_20_LD_25_RN_14_RD_28_0.png","C_Dist_300_LN_20_LD_25_RN_5_RD_10_0.png","C_Dist_300_LN_20_LD_25_RN_8_RD_16_0.png","C_Dist_300_LN_20_LD_25_RN_9_RD_18_0.png","C_Dist_300_LN_24_LD_30_RN_2_RD_4_0.png","C_Dist_300_LN_24_LD_30_RN_8_RD_16_0.png","C_Dist_300_LN_3_LD_6_RN_2_RD_10_0.png","C_Dist_300_LN_4_LD_10_RN_1_RD_10_0.png","C_Dist_300_LN_4_LD_5_RN_2_RD_4_0.png","C_Dist_300_LN_8_LD_16_RN_1_RD_5_0.png","C_Dist_300_LN_9_LD_10_RN_3_RD_5_0.png"],["C_Dist_300_LN_1_LD_20_RN_7_RD_20_1.png","C_Dist_300_LN_1_LD_3_RN_19_RD_30_1.png","C_Dist_300_LN_1_LD_30_RN_8_RD_24_1.png","C_Dist_300_LN_1_LD_5_RN_11_RD_22_1.png","C_Dist_300_LN_1_LD_5_RN_3_RD_6_1.png","C_Dist_300_LN_1_LD_5_RN_6_RD_12_1.png","C_Dist_300_LN_2_LD_10_RN_12_RD_24_1.png","C_Dist_300_LN_2_LD_20_RN_10_RD_25_1.png","C_Dist_300_LN_3_LD_12_RN_11_RD_20_1.png","C_Dist_300_LN_3_LD_6_RN_4_RD_5_1.png","C_Dist_300_LN_4_LD_20_RN_13_RD_26_1.png","C_Dist_300_LN_5_LD_25_RN_6_RD_12_1.png","C_Dist_300_LN_5_LD_25_RN_7_RD_14_1.png","C_Dist_300_LN_7_LD_14_RN_20_RD_25_1.png","C_Dist_300_LN_8_LD_15_RN_10_RD_12_1.png"]],"dist300_I":[["I_Dist_300_LN_1_LD_2_RN_2_RD_10_0.png","I_Dist_300_LN_1_LD_2_RN_3_RD_15_0.png","I_Dist_300_LN_2_LD_4_RN_6_RD_30_0.png","I_Dist_300_LN_3_LD_6_RN_4_RD_20_0.png","I_Dist_300_LN_4_LD_5_RN_6_RD_12_0.png","I_Dist_300_LN_4_LD_5_RN_8_RD_16_0.png","I_Dist_300_LN_7_LD_10_RN_8_RD_20_0.png","I_Dist_300_LN_8_LD_10_RN_14_RD_28_0.png","I_Dist_300_LN_8_LD_10_RN_9_RD_18_0.png"],["I_Dist_300_LN_13_LD_26_RN_12_RD_15_1.png","I_Dist_300_LN_4_LD_20_RN_2_RD_4_1.png"]],"dist300_S":[["E_Dist_300_LN_9_LD_12_RN_9_RD_20_0.png"],["E_Dist_300_LN_18_LD_30_RN_18_RD_20_1.png","E_Dist_300_LN_3_LD_10_RN_3_RD_5_1.png","E_Dist_300_LN_9_LD_20_RN_9_RD_12_1.png"]],"dist500_C":[["C_Dist_500_LN_10_LD_13_RN_7_RD_26_0.png","C_Dist_500_LN_10_LD_15_RN_4_RD_24_0.png","C_Dist_500_LN_12_LD_16_RN_3_RD_12_0.png","C_Dist_500_LN_12_LD_18_RN_4_RD_24_0.png","C_Dist_500_LN_15_LD_18_RN_5_RD_15_0.png","C_Dist_500_LN_15_LD_20_RN_1_RD_4_0.png","C_Dist_500_LN_18_LD_27_RN_1_RD_6_0.png","C_Dist_500_LN_20_LD_24_RN_1_RD_3_0.png","C_Dist_500_LN_20_LD_24_RN_3_RD_9_0.png","C_Dist_500_LN_20_LD_24_RN_7_RD_21_0.png","C_Dist_500_LN_20_LD_28_RN_3_RD_14_0.png","C_Dist_500_LN_21_LD_28_RN_6_RD_24_0.png","C_Dist_500_LN_22_LD_28_RN_2_RD_7_0.png","C_Dist_500_LN_25_LD_30_RN_9_RD_27_0.png","C_Dist_500_LN_4_LD_6_RN_1_RD_6_0.png","C_Dist_500_LN_5_LD_6_RN_2_RD_6_0.png","C_Dist_500_LN_6_LD_9_RN_1_RD_6_0.png","C_Dist_500_LN_7_LD_10_RN_1_RD_5_0.png","C_Dist_500_LN_8_LD_12_RN_1_RD_6_0.png","C_Dist_500_LN_8_LD_12_RN_4_RD_24_0.png"],["C_Dist_500_LN_1_LD_4_RN_12_RD_16_1.png","C_Dist_500_LN_1_LD_4_RN_9_RD_12_1.png","C_Dist_500_LN_1_LD_9_RN_11_RD_18_1.png","C_Dist_500_LN_10_LD_24_RN_22_RD_24_1.png","C_Dist_500_LN_2_LD_12_RN_10_RD_15_1.png","C_Dist_500_LN_2_LD_12_RN_12_RD_18_1.png","C_Dist_500_LN_2_LD_12_RN_4_RD_6_1.png","C_Dist_500_LN_2_LD_24_RN_7_RD_12_1.png","C_Dist_500_LN_2_LD_5_RN_18_RD_20_1.png","C_Dist_500_LN_2_LD_5_RN_9_RD_10_1.png","C_Dist_500_LN_2_LD_8_RN_12_RD_16_1.png","C_Dist_500_LN_2_LD_8_RN_21_RD_28_1.png","C_Dist_500_LN_3_LD_10_RN_4_RD_5_1.png","C_Dist_500_LN_3_LD_12_RN_15_RD_20_1.png","C_Dist_500_LN_3_LD_30_RN_6_RD_10_1.png","C_Dist_500_LN_3_LD_8_RN_14_RD_16_1.png","C_Dist_500_LN_4_LD_16_RN_15_RD_20_1.png","C_Dist_500_LN_4_LD_24_RN_12_RD_18_1.png","C_Dist_500_LN_5_LD_14_RN_6_RD_7_1.png","C_Dist_500_LN_7_LD_21_RN_20_RD_24_1.png","C_Dist_500_LN_7_LD_28_RN_12_RD_16_1.png","C_Dist_500_LN_7_LD_28_RN_9_RD_12_1.png","C_Dist_500_LN_9_LD_27_RN_20_RD_24_1.png"]],"dist500_I":[["I_Dist_500_LN_2_LD_3_RN_4_RD_24_0.png","I_Dist_500_LN_5_LD_6_RN_6_RD_18_0.png","I_Dist_500_LN_7_LD_8_RN_9_RD_24_0.png"],["I_Dist_500_LN_7_LD_21_RN_5_RD_6_1.png"]],"dist500_S":[["E_Dist_500_LN_6_LD_8_RN_6_RD_24_0.png"],["E_Dist_500_LN_2_LD_12_RN_2_RD_3_1.png","E_Dist_500_LN_6_LD_24_RN_6_RD_8_1.png"]]}},{"start_time":1551882431244,"click_time":1551882433170,"finger_time":1551882432768,"fix_duration":1395.100572124917,"trial":1,"RT":1524,"MT":402,"sideResp":1,"stimulus":[],"xmouse":[793,793,793,793,793,793,793,793,793,793,793,793,793,793,793,793,793,793,793,793,793,793,793,793,793,793,793,793,793,793,793,793,793,793,793,793,793,793,793,793,793,793,793,793,793,793,793,793,793,793,793,793,793,793,793,793,793,793,793,793,793,793,793,793,793,793,793,793,793,793,793,793,793,792,787,783,779,776,772,759,752,741,723,707,683,635,610,584,565,529,514,501,497,493,490,490,490],"ymouse":[613,613,613,613,613,613,613,613,613,613,613,613,613,613,613,613,613,613,613,613,613,613,613,613,613,613,613,613,613,613,613,613,613,613,613,613,613,613,613,613,613,613,613,613,613,613,613,613,613,613,613,613,613,613,613,613,613,613,613,613,613,613,613,613,613,613,613,613,613,613,613,615,614,608,587,574,559,541,526,483,461,431,387,351,311,246,217,191,172,141,127,116,111,106,102,101,99],"timestamp_mouse":[12,25,51,64,85,104,124,144,165,185,205,225,244,264,285,304,324,344,365,384,406,424,444,464,485,504,525,545,565,584,604,624,645,664,685,704,724,745,765,784,804,824,844,864,884,904,925,944,964,986,1004,1024,1044,1064,1085,1104,1124,1144,1164,1184,1204,1224,1244,1264,1284,1304,1324,1344,1365,1384,1404,1424,1445,1465,1484,1504,1524,1544,1564,1584,1604,1624,1645,1664,1684,1704,1724,1745,1764,1784,1804,1824,1845,1865,1884,1905,1925],"xSR":741.5,"ySR":573.95,"xT1":424.9,"yT1":0,"xT2":1058.1,"yT2":0,"toosoon":0,"cond_shown":"Incongruent","ratio_trial":200,"L_num":1,"L_den":2,"R_num":3,"R_den":10,"correct_side":1,"subjID":"juanitapardocastrillon28","gender":"1","school":"6","age":"11"},{"start_time":1551882435898,"click_time":1551882437808,"finger_time":1551882437609,"fix_duration":1429.6307605049326,"trial":2,"RT":1711,"MT":199,"sideResp":2,"stimulus":[],"xmouse":[768,768,768,768,768,768,768,768,768,768,768,768,768,768,768,768,768,768,768,768,768,768,768,768,768,768,768,768,768,768,768,768,768,768,768,768,768,768,768,768,768,768,768,768,768,768,768,768,768,768,768,768,768,768,768,768,768,768,768,768,768,768,768,768,768,768,768,768,768,768,768,768,768,768,768,768,768,768,768,768,768,768,770,774,781,786,806,823,842,857,890,950,983,1011,1042,1074],"ymouse":[583,583,586,587,589,589,589,589,589,589,589,589,589,589,589,589,589,594,596,596,596,596,597,597,597,597,597,597,597,597,597,597,597,597,597,597,597,597,597,597,597,597,597,597,597,597,597,597,597,597,597,597,597,597,597,597,597,597,597,597,597,597,597,597,597,597,597,597,597,597,597,597,597,597,597,597,597,597,597,597,597,597,597,592,583,567,520,479,436,401,345,264,220,176,132,88],"timestamp_mouse":[10,40,51,70,90,111,130,151,170,191,211,230,250,270,291,310,331,351,371,390,410,430,451,471,490,510,531,550,570,591,610,630,651,670,690,710,730,751,770,790,810,831,851,870,890,912,930,950,970,991,1011,1030,1050,1071,1090,1110,1131,1151,1171,1191,1210,1231,1250,1271,1291,1311,1331,1350,1370,1391,1411,1431,1451,1470,1490,1512,1531,1550,1570,1591,1610,1630,1650,1671,1691,1711,1730,1750,1770,1790,1810,1830,1851,1870,1890,1910],"xSR":741.5,"ySR":573.95,"xT1":424.9,"yT1":0,"xT2":1058.1,"yT2":0,"toosoon":0,"cond_shown":"Congruent","ratio_trial":300,"L_num":5,"L_den":25,"R_num":7,"R_den":14,"correct_side":2,"subjID":"juanitapardocastrillon28","gender":"1","school":"6","age":"11"},{"start_time":1551882441094,"click_time":1551882443748,"finger_time":1551882442648,"fix_duration":503.04701661616656,"trial":3,"RT":1554,"MT":1100,"sideResp":1,"stimulus":[],"xmouse":[821,821,821,821,821,821,821,821,818,812,810,810,810,810,810,810,810,810,810,810,810,810,810,810,810,810,810,810,810,810,810,810,810,810,810,810,810,810,810,810,810,810,810,810,810,810,810,810,810,810,810,810,810,810,810,810,810,810,810,810,810,810,810,810,810,810,809,809,809,809,809,808,808,808,808,808,808,808,808,814,829,871,891,904,910,913,913,913,913,913,913,913,913,911,901,883,815,752,694,607,542,418,365,316,277,255,237,236,236,236,238,246,249,254,264,276,299,304,310,314,322,333,334,335,336,339,352,356,359,365,376,421,447],"ymouse":[645,645,645,645,645,645,645,645,644,637,635,634,634,634,634,634,634,634,634,634,634,634,634,634,634,634,634,634,634,634,634,634,634,634,634,634,634,634,634,634,634,634,634,634,634,634,634,634,634,634,634,634,634,634,634,634,634,634,634,634,634,634,634,634,634,634,621,604,597,585,581,577,577,577,577,577,575,564,558,533,499,409,353,319,296,283,282,282,282,282,282,282,281,281,280,274,251,230,208,171,145,88,60,29,1,0,0,0,0,0,0,0,0,0,3,7,19,22,27,30,34,35,35,35,35,35,34,32,30,30,30,35,39],"timestamp_mouse":[14,40,54,74,95,114,134,154,175,194,215,234,254,275,295,314,334,355,374,394,415,435,454,475,494,514,535,555,575,594,614,635,656,674,695,714,734,754,774,794,815,835,854,874,894,914,934,954,974,994,1014,1034,1054,1075,1094,1114,1134,1154,1174,1194,1214,1234,1254,1274,1294,1314,1335,1354,1374,1395,1414,1434,1455,1474,1494,1515,1535,1554,1575,1595,1615,1634,1655,1674,1695,1715,1734,1755,1774,1794,1814,1834,1855,1874,1894,1914,1934,1954,1975,1994,2014,2034,2055,2074,2095,2115,2135,2154,2174,2195,2214,2235,2254,2275,2294,2315,2334,2354,2374,2394,2415,2434,2454,2474,2494,2515,2534,2554,2574,2594,2615,2634,2654],"xSR":741.5,"ySR":573.95,"xT1":424.9,"yT1":0,"xT2":1058.1,"yT2":0,"toosoon":0,"cond_shown":"Incongruent","ratio_trial":100,"L_num":9,"L_den":15,"R_num":13,"R_den":26,"correct_side":1,"subjID":"juanitapardocastrillon28","gender":"1","school":"6","age":"11"},{"start_time":1551882446599,"click_time":1551882448648,"finger_time":1551882448009,"fix_duration":250,"trial":4,"RT":1410,"MT":639,"sideResp":1,"stimulus":[],"xmouse":[804,804,804,804,804,804,804,804,804,804,804,804,804,804,804,804,804,804,804,804,804,804,804,804,804,804,804,804,804,804,804,804,804,804,804,804,804,804,804,804,804,804,804,804,804,804,804,804,804,804,804,804,804,804,804,804,804,804,804,804,804,804,804,804,804,804,804,804,804,802,797,793,788,781,778,772,756,746,732,716,700,661,636,615,586,569,542,540,537,535,534,534,534,534,534,534,530,528,526,524,521,516,512],"ymouse":[629,629,629,629,629,629,629,629,629,629,629,629,629,629,629,629,629,629,629,629,629,629,629,629,629,629,629,629,629,629,629,629,629,629,629,629,629,629,629,629,629,629,629,629,629,629,629,629,629,629,629,629,629,629,629,629,629,629,629,629,629,629,629,629,629,629,629,615,591,575,559,544,513,481,472,443,400,377,352,324,300,253,235,221,204,195,180,178,176,173,171,169,166,164,161,153,137,134,129,123,118,107,97],"timestamp_mouse":[10,29,53,69,89,109,129,150,169,190,209,230,249,269,289,310,329,349,369,389,409,430,450,469,489,509,529,549,570,589,609,630,649,669,689,710,731,749,769,790,809,829,849,869,890,910,930,950,970,990,1010,1030,1050,1069,1089,1109,1129,1149,1170,1189,1210,1229,1250,1269,1290,1309,1330,1350,1370,1390,1410,1429,1449,1469,1491,1510,1529,1548,1569,1590,1609,1629,1649,1670,1689,1710,1729,1750,1770,1790,1810,1829,1849,1869,1890,1909,1929,1950,1969,1989,2009,2029,2049],"xSR":741.5,"ySR":573.95,"xT1":424.9,"yT1":0,"xT2":1058.1,"yT2":0,"toosoon":0,"cond_shown":"Congruent","ratio_trial":100,"L_num":9,"L_den":15,"R_num":8,"R_den":16,"correct_side":1,"subjID":"juanitapardocastrillon28","gender":"1","school":"6","age":"11"},{"start_time":1551882451042,"click_time":1551882452548,"finger_time":1551882451829,"fix_duration":1171.2286630255949,"trial":5,"RT":787,"MT":719,"sideResp":1,"stimulus":[],"xmouse":[771,770,770,770,768,767,764,763,763,763,763,763,763,763,763,763,763,763,763,763,763,763,763,763,763,763,763,763,763,763,763,763,763,763,763,763,763,763,762,744,727,701,643,597,550,461,419,393,375,360,355,354,354,354,354,355,355,360,370,390,398,407,413,414,415,415,415,415,415,415,415,415,415,415,421,428],"ymouse":[614,612,612,612,610,608,606,606,606,606,606,606,607,607,607,607,607,607,607,607,607,607,607,607,607,607,607,607,607,607,607,607,607,607,607,607,607,607,598,559,531,486,406,350,297,210,173,147,128,106,93,90,84,81,77,76,75,75,75,73,71,68,64,58,49,45,43,43,43,43,43,43,43,43,43,44],"timestamp_mouse":[11,25,52,67,86,106,126,146,166,187,207,227,246,268,286,306,327,346,366,387,407,426,446,467,486,506,527,547,566,586,607,626,646,666,686,707,727,746,766,787,807,826,847,866,886,906,926,946,966,987,1006,1026,1046,1067,1086,1106,1126,1148,1167,1186,1206,1227,1246,1267,1286,1307,1326,1346,1367,1387,1406,1426,1446,1467,1486,1506],"xSR":741.5,"ySR":573.95,"xT1":424.9,"yT1":0,"xT2":1058.1,"yT2":0,"toosoon":0,"cond_shown":"Incongruent","ratio_trial":200,"L_num":7,"L_den":10,"R_num":14,"R_den":28,"correct_side":1,"subjID":"juanitapardocastrillon28","gender":"1","school":"6","age":"11"},{"start_time":1551882455070,"click_time":1551882457988,"finger_time":1551882457828,"fix_duration":1458.0261348072459,"trial":6,"RT":2758,"MT":160,"sideResp":2,"stimulus":[],"xmouse":[780,780,780,780,780,780,780,780,780,780,780,780,780,780,780,780,780,780,780,780,780,780,780,780,780,780,780,780,780,780,780,780,780,780,780,780,780,780,780,780,780,780,780,780,780,780,780,780,780,780,780,780,780,780,780,780,780,780,780,780,780,780,780,780,780,780,780,780,780,780,780,780,780,780,780,780,780,780,780,780,780,780,780,780,780,780,780,780,780,783,784,786,789,791,792,792,792,792,792,792,792,792,792,792,792,792,792,793,793,793,793,793,793,793,793,793,793,793,793,793,793,793,793,793,793,793,793,793,793,793,793,793,793,793,793,793,794,796,811,831,871,903,936,1001,1028,1047,1060],"ymouse":[620,620,620,620,620,620,620,620,620,620,620,620,620,620,620,620,620,620,620,620,620,620,620,620,620,620,620,620,620,620,620,620,620,620,620,620,620,620,620,620,620,620,620,620,620,620,620,620,620,620,620,620,620,620,620,620,620,620,620,620,620,620,620,620,620,620,620,620,620,620,620,620,620,620,620,620,620,620,620,620,620,620,620,620,620,620,620,620,620,618,614,608,603,596,595,595,595,595,595,595,595,595,595,595,595,594,594,593,592,592,592,592,592,592,592,592,592,592,592,592,592,592,592,592,592,592,592,592,592,592,592,592,592,592,592,592,589,584,542,498,425,366,306,191,144,116,97],"timestamp_mouse":[1,19,38,58,80,98,119,138,158,178,199,219,238,258,278,298,319,339,359,378,398,418,439,458,478,498,518,538,558,578,598,619,638,658,678,698,718,738,759,778,798,818,839,858,879,898,919,939,958,978,999,1018,1038,1058,1078,1099,1119,1138,1158,1178,1198,1219,1239,1258,1279,1298,1318,1339,1359,1378,1398,1419,1439,1458,1478,1499,1520,1539,1558,1579,1598,1618,1638,1659,1678,1699,1719,1739,1758,1779,1798,1818,1838,1859,1879,1898,1918,1939,1959,1979,1998,2019,2038,2059,2078,2098,2119,2138,2158,2178,2198,2219,2239,2259,2278,2298,2319,2338,2358,2379,2399,2419,2438,2459,2477,2499,2518,2538,2558,2579,2598,2618,2639,2658,2677,2698,2717,2738,2758,2779,2798,2818,2839,2857,2878,2897,2917],"xSR":741.5,"ySR":573.95,"xT1":424.9,"yT1":0,"xT2":1058.1,"yT2":0,"toosoon":0,"cond_shown":"Congruent","ratio_trial":300,"L_num":11,"L_den":22,"R_num":2,"R_den":10,"correct_side":1,"subjID":"juanitapardocastrillon28","gender":"1","school":"6","age":"11"},{"start_time":1551882460262,"click_time":1551882462448,"finger_time":1551882461887,"fix_duration":733.4751352500002,"trial":7,"RT":1625,"MT":561,"sideResp":1,"stimulus":[],"xmouse":[775,775,775,775,775,775,775,775,775,775,775,775,775,775,775,775,775,775,775,775,775,775,775,775,775,775,775,775,775,775,775,775,775,775,775,775,775,775,775,775,775,775,775,775,775,775,775,775,775,775,775,775,775,775,775,775,775,775,775,775,775,775,775,775,775,775,775,775,775,775,775,775,775,775,775,775,775,775,775,775,771,763,756,740,734,727,719,711,680,662,646,623,605,578,566,555,549,545,538,537,536,535,534,534,533,531,528,526,515,514],"ymouse":[611,611,611,611,611,611,611,611,611,611,611,611,611,611,611,611,611,611,611,611,611,611,611,611,611,611,611,611,611,611,611,611,611,611,611,611,611,611,611,611,611,611,611,611,611,611,611,611,611,611,611,611,611,611,611,611,611,611,611,611,611,611,611,611,611,611,611,611,611,611,611,611,611,611,611,611,611,610,610,606,592,573,556,517,494,473,446,422,352,320,291,256,231,197,185,171,162,155,144,141,138,136,134,134,128,124,119,116,100,97],"timestamp_mouse":[8,37,47,66,86,106,127,146,167,186,206,225,247,266,285,306,327,346,367,386,407,427,446,467,486,506,526,547,567,585,606,627,645,667,687,706,726,747,766,787,806,825,847,867,887,907,927,946,966,987,1006,1026,1045,1066,1086,1106,1126,1145,1166,1186,1206,1226,1246,1266,1286,1305,1326,1346,1367,1385,1406,1427,1447,1467,1486,1507,1526,1547,1565,1586,1607,1625,1646,1666,1686,1706,1725,1745,1766,1785,1807,1826,1845,1866,1886,1906,1927,1947,1966,1986,2005,2026,2046,2065,2086,2107,2127,2146,2167,2186],"xSR":741.5,"ySR":573.95,"xT1":424.9,"yT1":0,"xT2":1058.1,"yT2":0,"toosoon":0,"cond_shown":"Incongruent","ratio_trial":200,"L_num":7,"L_den":15,"R_num":4,"R_den":6,"correct_side":2,"subjID":"juanitapardocastrillon28","gender":"1","school":"6","age":"11"},{"start_time":1551882464023,"click_time":1551882465988,"finger_time":1551882465849,"fix_duration":673.5963758921575,"trial":8,"RT":1826,"MT":139,"sideResp":1,"stimulus":[],"xmouse":[781,781,781,781,781,781,781,781,781,781,781,781,781,781,781,781,781,781,781,781,781,781,781,781,781,781,781,781,781,781,781,781,781,781,781,781,781,781,781,781,781,781,781,781,781,781,781,781,781,781,781,781,781,781,781,781,781,781,781,781,781,781,781,781,781,781,781,781,781,781,781,781,781,781,781,781,781,781,781,781,781,781,781,780,780,780,780,780,779,778,767,755,743,728,692,624,585,538,496],"ymouse":[605,605,605,605,605,605,605,605,605,605,605,605,605,605,605,605,605,605,605,605,605,605,605,605,605,605,605,605,605,605,605,605,605,605,605,605,605,605,605,605,605,605,605,605,605,605,605,605,605,605,605,605,605,605,605,605,605,605,605,605,605,605,605,605,605,605,605,605,605,605,605,605,605,605,605,605,605,605,605,605,605,605,605,605,605,605,605,605,603,601,577,553,524,479,397,270,206,143,92],"timestamp_mouse":[15,33,46,64,85,105,126,145,164,186,205,225,244,265,285,305,325,345,365,385,406,425,444,465,485,505,524,545,565,584,606,625,645,665,685,706,724,745,765,785,805,824,844,866,885,906,925,944,966,984,1005,1025,1045,1064,1085,1105,1125,1145,1166,1185,1205,1225,1245,1266,1285,1306,1326,1344,1366,1385,1406,1425,1445,1465,1484,1506,1525,1544,1566,1584,1606,1624,1646,1665,1686,1705,1726,1745,1764,1784,1806,1826,1846,1865,1886,1905,1925,1945,1965],"xSR":741.5,"ySR":573.95,"xT1":424.9,"yT1":0,"xT2":1058.1,"yT2":0,"toosoon":0,"cond_shown":"Incongruent","ratio_trial":200,"L_num":1,"L_den":2,"R_num":3,"R_den":10,"correct_side":1,"subjID":"juanitapardocastrillon28","gender":"1","school":"6","age":"11"},{"start_time":1551882468453,"click_time":1551882470429,"finger_time":1551882469708,"fix_duration":1384.8039309146714,"trial":9,"RT":1255,"MT":721,"sideResp":1,"stimulus":[],"xmouse":[785,785,785,785,785,785,785,785,785,785,785,785,785,785,785,785,785,785,785,785,785,785,785,785,785,785,785,785,785,785,785,785,785,785,785,785,785,785,785,785,785,785,785,785,785,785,785,785,785,785,785,785,785,785,785,783,781,779,774,768,763,760,752,737,727,718,703,692,673,667,658,650,641,630,624,619,614,610,597,593,588,580,576,565,562,560,559,557,550,547,544,538,533,522,517,510,502,496,489],"ymouse":[611,611,611,611,611,611,611,611,611,611,611,611,611,611,611,611,611,611,611,611,611,611,611,611,611,611,611,611,611,611,611,611,611,611,611,611,611,611,611,611,611,611,611,611,611,611,611,611,611,611,611,611,611,611,611,608,605,603,595,588,582,578,566,539,524,509,489,477,450,439,426,416,401,381,371,361,352,345,325,316,306,289,282,262,255,250,246,238,224,219,211,201,190,164,150,134,117,104,84],"timestamp_mouse":[15,40,55,75,95,115,134,155,175,196,215,235,254,276,296,316,335,356,374,396,414,434,455,475,496,515,535,555,575,595,614,635,656,675,694,715,735,755,775,794,815,835,854,874,896,915,935,956,975,995,1014,1034,1055,1075,1094,1116,1135,1155,1174,1196,1215,1235,1255,1275,1295,1314,1334,1354,1375,1395,1416,1436,1455,1474,1496,1515,1534,1554,1575,1594,1615,1636,1655,1676,1694,1715,1735,1755,1776,1796,1814,1834,1855,1875,1895,1914,1934,1954,1975],"xSR":741.5,"ySR":573.95,"xT1":424.9,"yT1":0,"xT2":1058.1,"yT2":0,"toosoon":0,"cond_shown":"Incongruent","ratio_trial":200,"L_num":4,"L_den":5,"R_num":6,"R_den":10,"correct_side":1,"subjID":"juanitapardocastrillon28","gender":"1","school":"6","age":"11"},{"start_time":1551882471820,"click_time":1551882473968,"finger_time":1551882473107,"fix_duration":250,"trial":10,"RT":1287,"MT":861,"sideResp":1,"stimulus":[],"xmouse":[791,791,791,791,791,791,791,791,791,791,791,791,791,791,791,791,791,791,791,791,791,791,791,791,791,791,791,791,793,796,796,796,796,796,796,796,796,796,796,796,796,796,796,796,796,796,796,796,796,796,796,796,796,796,796,796,796,796,796,796,796,796,793,789,782,767,765,762,759,756,753,752,751,750,750,750,750,750,750,750,750,747,743,735,731,699,684,670,654,640,617,604,590,577,558,550,549,549,549,549,549,549,549,549,549,536,527,523],"ymouse":[602,602,602,602,602,602,602,602,602,602,602,602,602,602,602,602,602,602,602,602,602,602,602,602,602,602,602,602,600,599,599,599,599,599,599,599,599,599,599,599,599,599,599,599,599,599,599,599,599,599,599,599,599,599,599,599,599,599,599,599,599,593,589,582,571,549,546,541,537,532,525,523,520,519,519,519,519,519,519,515,506,499,485,454,445,367,335,300,269,246,205,185,168,152,134,126,125,125,125,125,125,125,125,125,123,100,88,82],"timestamp_mouse":[10,40,48,67,88,108,128,148,168,188,208,227,247,268,289,308,327,347,367,388,408,428,448,468,488,509,529,549,567,588,609,628,648,669,688,708,729,749,769,787,808,828,848,868,888,909,928,949,967,988,1009,1029,1048,1067,1088,1107,1128,1147,1169,1189,1208,1229,1249,1267,1287,1308,1328,1348,1367,1387,1408,1428,1448,1469,1488,1508,1529,1549,1569,1589,1608,1628,1649,1668,1688,1708,1728,1748,1767,1789,1807,1828,1847,1868,1889,1909,1928,1948,1968,1988,2009,2028,2048,2068,2087,2107,2129,2148],"xSR":741.5,"ySR":573.95,"xT1":424.9,"yT1":0,"xT2":1058.1,"yT2":0,"toosoon":0,"cond_shown":"Incongruent","ratio_trial":200,"L_num":1,"L_den":3,"R_num":2,"R_den":15,"correct_side":1,"subjID":"juanitapardocastrillon28","gender":"1","school":"6","age":"11"},{"start_time":1551882475494,"click_time":1551882477488,"finger_time":1551882476928,"fix_duration":366.3198024556266,"trial":11,"RT":1434,"MT":560,"sideResp":2,"stimulus":[],"xmouse":[808,808,808,808,808,808,808,808,808,808,808,808,808,808,808,808,808,808,808,808,808,808,808,808,808,808,808,808,808,808,808,808,808,808,808,808,808,808,808,808,808,808,808,808,808,808,808,808,808,808,808,808,808,808,808,808,808,808,808,808,808,808,808,808,808,808,808,808,808,808,809,810,812,818,823,831,851,865,881,904,912,950,965,980,990,999,1013,1019,1023,1026,1033,1044,1048,1049,1049,1051,1053,1055,1057,1059],"ymouse":[597,597,597,597,597,597,597,597,597,597,597,597,597,597,