[{"start_time":1551899937251,"click_time":1551899943627,"finger_time":1551899937266,"fix_duration":1000.1992830178427,"trial":0,"RT":15,"MT":6361,"sideResp":1,"stimulus":[],"xmouse":[782,782,782,782,782,782,782,782,782,782,782,782,782,782,782,782,782,782,782,782,782,782,782,782,782,782,782,782,782,782,782,782,782,782,782,782,782,782,782,782,782,782,782,782,782,782,782,782,782,782,782,782,782,782,782,782,782,782,782,782,782,782,782,782,782,782,781,781,781,781,781,781,781,781,781,781,781,781,783,783,784,784,785,787,787,790,790,791,793,793,793,793,793,793,793,793,793,793,793,793,793,793,793,793,793,793,793,793,793,793,793,793,793,793,793,793,793,793,793,793,793,793,793,793,793,793,793,793,793,793,793,793,793,793,793,793,793,793,793,793,793,793,793,793,793,793,793,793,793,793,793,793,793,793,793,793,793,793,793,793,793,793,793,793,793,793,793,793,793,793,793,793,793,793,793,793,793,793,793,793,793,793,793,793,793,793,793,793,793,793,793,793,793,793,793,793,793,793,793,793,793,793,793,793,793,793,793,793,793,793,793,793,793,793,793,793,793,793,793,793,793,793,793,793,793,793,793,793,793,793,793,793,793,793,793,793,793,793,793,793,793,793,793,793,793,793,793,793,793,793,793,793,793,793,793,793,793,793,793,793,793,793,793,793,793,793,793,793,793,793,793,793,793,793,793,793,793,793,793,793,793,793,793,793,793,793,793,786,749,749,749,749,749,749,749,749,749,749,749,749,749,749,749,749,749,749,746,742,717,700,682,660,637,586,565,553,539,528,517],"ymouse":[539,539,539,539,539,539,539,539,539,539,539,539,539,539,539,539,539,539,539,539,539,539,539,539,539,539,539,539,539,539,539,539,539,539,539,539,539,539,539,539,539,539,539,539,539,539,539,539,539,539,539,539,539,539,539,539,539,539,539,539,539,539,539,539,539,539,539,550,563,563,563,563,563,563,564,564,567,569,572,574,576,578,580,587,590,596,601,604,608,608,608,608,608,608,608,608,608,608,608,608,608,608,608,608,608,608,608,608,608,608,608,608,608,608,608,608,608,608,608,608,608,608,608,608,608,608,608,608,608,608,608,608,608,608,608,608,608,608,608,608,608,608,608,608,608,608,608,608,608,608,608,608,608,608,608,608,608,608,608,608,608,608,608,608,608,608,608,608,608,608,608,608,608,608,608,608,608,608,608,608,608,608,608,608,608,608,608,608,608,608,608,608,608,608,608,608,608,608,608,608,608,608,608,608,608,608,608,608,608,608,608,608,608,608,608,608,608,608,608,608,608,608,608,608,608,608,608,608,608,608,608,608,608,608,608,608,608,608,608,608,608,608,608,608,608,608,608,608,608,608,608,608,608,608,608,608,608,608,608,608,608,608,608,608,608,608,608,608,608,608,608,608,608,608,608,608,608,608,608,608,608,608,608,608,608,608,610,616,640,640,640,640,640,640,640,640,640,640,640,640,640,640,640,640,640,640,637,626,549,494,441,360,286,141,82,46,22,8,3],"timestamp_mouse":[15,35,56,75,95,114,136,155,175,194,215,235,256,275,295,315,335,356,375,395,415,434,456,476,495,515,535,555,576,595,614,635,655,676,695,715,735,754,775,795,815,835,856,875,895,915,935,954,975,995,1015,1035,1055,1075,1095,1114,1135,1154,1175,1195,1215,1235,1255,1275,1295,1315,1334,1354,1375,1395,1416,1436,1456,1475,1495,1515,1535,1555,1574,1595,1616,1634,1655,1675,1696,1715,1736,1756,1774,1794,1814,1836,1854,1875,1896,1915,1935,1954,1975,1994,2016,2036,2055,2076,2095,2115,2136,2155,2175,2194,2215,2234,2254,2276,2295,2316,2336,2354,2376,2396,2415,2435,2455,2476,2496,2514,2535,2554,2574,2596,2616,2636,2655,2676,2696,2715,2735,2756,2776,2795,2814,2834,2856,2876,2896,2916,2936,2954,2976,2995,3016,3034,3055,3075,3094,3115,3134,3155,3174,3194,3214,3235,3255,3275,3296,3316,3334,3354,3376,3395,3414,3436,3454,3475,3495,3516,3535,3554,3576,3596,3615,3634,3655,3676,3694,3715,3735,3755,3776,3795,3814,3836,3856,3876,3896,3915,3935,3955,3974,3995,4015,4034,4054,4075,4095,4114,4135,4154,4174,4196,4215,4236,4254,4276,4296,4314,4334,4355,4374,4395,4414,4436,4455,4476,4495,4515,4536,4554,4576,4595,4614,4636,4655,4676,4695,4715,4735,4755,4774,4796,4815,4835,4855,4876,4894,4915,4934,4956,4974,4995,5016,5035,5054,5076,5095,5116,5134,5156,5174,5195,5216,5234,5254,5274,5295,5315,5334,5355,5375,5395,5414,5434,5455,5475,5496,5515,5535,5554,5576,5596,5616,5636,5655,5674,5696,5715,5735,5756,5775,5796,5814,5835,5856,5876,5895,5915,5934,5955,5976,5995,6016,6036,6055,6075,6096,6115,6136,6154,6175,6194,6215,6235,6255,6275,6294,6315,6335,6356,6375],"xSR":741.5,"ySR":469.95,"xT1":424.9,"yT1":0,"xT2":1058.1,"yT2":0,"toosoon":0,"cond_shown":"Incongruent","ratio_trial":200,"L_num":1,"L_den":3,"R_num":2,"R_den":15,"correct_side":1,"subjID":"juanitapavamartinez17","gender":"1","age":"11","school":"6","test":{"fix_dur":[250,1500],"timestim":1000,"targets_dim":[100,100],"targets_relative_coord":[0.3,0.7],"size_stim":[880,420],"start_dim":[100,100],"size_start":[300,300],"size_fix":60,"samplingrate":20,"img_types":["Congruent","Incongruent"],"ratios":[100,200,300],"rep_conds":19,"nTrials":120,"trials_to_rest":500,"Trials_order":[111,46,66,75,67,50,40,91,33,36,22,63,79,112,56,64,28,84,8,106,97,101,74,15,65,45,104,48,58,70,81,92,72,18,35,11,55,82,7,17,31,115,32,83,2,38,44,1,42,117,12,53,108,61,76,116,118,60,93,6,51,29,34,24,41,77,113,98,39,78,59,4,94,9,13,87,26,102,103,5,109,27,14,37,119,107,99,25,86,95,89,100,49,3,21,57,68,23,20,30,52,62,54,43,90,85,73,69,71,114,96,19,47,10,105,16,80,88,0,110],"cond_shown":["Incongruent","Congruent","Congruent","Incongruent","Incongruent","Congruent","Congruent","Incongruent","Incongruent","Congruent","Congruent","Incongruent","Incongruent","Congruent","Congruent","Congruent","Congruent","Congruent","Congruent","Congruent","Incongruent","Incongruent","Congruent","Incongruent","Incongruent","Incongruent","Congruent","Congruent","Congruent","Congruent","Incongruent","Congruent","Congruent","Congruent","Incongruent","Incongruent","Incongruent","Congruent","Incongruent","Incongruent","Incongruent","Incongruent","Congruent","Incongruent","Congruent","Congruent","Congruent","Incongruent","Congruent","Incongruent","Congruent","Incongruent","Congruent","Incongruent","Congruent","Congruent","Congruent","Congruent","Incongruent","Congruent","Incongruent","Incongruent","Congruent","Congruent","Incongruent","Incongruent","Incongruent","Congruent","Incongruent","Congruent","Incongruent","Congruent","Congruent","Incongruent","Incongruent","Incongruent","Congruent","Congruent","Incongruent","Incongruent","Incongruent","Incongruent","Congruent","Incongruent","Incongruent","Incongruent","Incongruent","Incongruent","Congruent","Incongruent","Incongruent","Congruent","Incongruent","Incongruent","Incongruent","Incongruent","Congruent","Incongruent","Congruent","Congruent","Congruent","Congruent","Congruent","Incongruent","Congruent","Incongruent","Incongruent","Incongruent","Incongruent","Congruent","Congruent","Incongruent","Incongruent","Congruent","Incongruent","Congruent","Congruent","Congruent","Congruent","Congruent"],"ratio_trial":[200,300,100,200,100,200,300,100,200,100,300,200,100,300,200,300,300,100,200,300,100,300,200,200,300,200,200,100,300,300,200,200,100,100,300,300,100,300,100,300,100,100,200,300,200,200,200,100,100,200,100,300,100,100,300,200,300,100,200,100,200,300,300,100,300,300,300,200,200,100,300,300,300,200,100,200,200,100,100,300,100,200,200,100,300,300,200,100,200,300,300,300,100,200,200,200,200,300,200,100,300,200,100,100,100,100,100,200,300,100,100,100,300,300,200,300,200,300,100,200],"left_num":[1,4,8,4,9,7,4,6,14,3,7,3,9,9,16,1,12,3,4,1,6,2,13,14,13,4,6,11,3,20,6,6,4,4,13,3,10,4,8,1,8,3,16,4,3,9,7,6,3,7,4,13,2,9,3,3,5,1,3,11,4,4,12,2,4,8,3,6,7,7,4,20,24,4,17,7,12,11,3,4,6,4,16,17,4,4,1,9,21,1,4,7,10,4,14,14,3,1,3,4,3,3,6,3,2,6,11,1,4,3,6,9,4,24,4,1,3,11,7,1],"right_num":[2,1,2,1,6,2,2,7,12,4,20,11,20,3,12,6,2,4,3,19,11,6,14,6,12,1,7,4,11,9,3,11,15,6,12,4,8,2,1,2,6,7,12,6,11,13,2,7,2,12,6,12,11,6,11,7,7,18,1,6,1,2,2,11,2,9,4,3,12,15,8,13,2,6,10,8,6,6,8,8,3,14,9,10,8,6,3,20,2,3,2,20,9,6,12,6,11,3,11,15,2,14,5,11,6,3,9,3,2,2,15,13,2,2,14,6,11,4,15,21],"left_den":[3,10,16,30,18,21,5,10,30,20,14,4,10,10,20,5,24,20,8,3,10,4,26,30,26,30,12,22,12,25,20,20,10,8,26,6,25,5,20,2,16,9,20,5,10,30,21,10,6,10,8,26,5,18,12,10,25,2,10,22,30,20,24,5,20,10,6,15,10,14,5,25,30,5,30,10,20,22,5,5,12,6,30,30,5,5,2,10,30,2,20,14,25,5,30,30,10,2,10,10,6,6,20,5,5,12,22,2,20,6,12,15,20,30,6,5,10,22,14,2],"right_den":[15,10,5,3,10,15,4,14,18,16,25,20,25,5,20,12,10,16,10,30,22,30,20,9,15,3,10,10,20,18,6,22,30,10,15,20,16,4,2,10,10,30,20,12,22,26,15,14,5,24,10,15,22,10,20,14,14,30,2,15,3,4,10,22,4,18,20,15,24,25,16,26,4,10,15,16,15,15,16,16,5,30,27,15,16,12,10,25,4,15,4,25,18,10,18,9,22,15,22,30,10,20,25,22,12,5,15,10,4,5,25,26,4,4,30,12,22,20,25,30],"correct_side":[1,1,1,2,2,1,1,1,2,2,2,1,1,1,1,2,1,2,1,2,1,1,2,2,2,2,2,1,2,1,2,2,2,2,2,1,2,1,2,1,2,1,1,1,2,2,1,1,1,1,2,2,2,2,2,2,2,2,2,1,2,2,1,2,2,1,1,1,1,2,1,1,1,1,2,1,1,1,1,1,2,1,1,2,1,1,1,1,1,1,2,2,2,1,2,2,2,1,2,2,1,2,1,1,2,2,2,1,2,1,2,1,2,1,1,2,2,1,2,2],"img_shown":["img2/200/Incongruent/L/I_Dist_200_LN_1_LD_3_RN_2_RD_15_0.png","img2/300/Congruent/L/C_Dist_300_LN_4_LD_10_RN_1_RD_10_0.png","img2/100/Congruent/L/C_Dist_100_LN_8_LD_16_RN_2_RD_5_0.png","img2/200/Incongruent/R/I_Dist_200_LN_4_LD_30_RN_1_RD_3_1.png","img2/100/Incongruent/R/I_Dist_100_LN_9_LD_18_RN_6_RD_10_1.png","img2/200/Congruent/L/C_Dist_200_LN_7_LD_21_RN_2_RD_15_0.png","img2/300/Congruent/L/C_Dist_300_LN_4_LD_5_RN_2_RD_4_0.png","img2/100/Incongruent/L/I_Dist_100_LN_6_LD_10_RN_7_RD_14_0.png","img2/200/Incongruent/R/I_Dist_200_LN_14_LD_30_RN_12_RD_18_1.png","img2/100/Congruent/R/C_Dist_100_LN_3_LD_20_RN_4_RD_16_1.png","img2/300/Congruent/R/C_Dist_300_LN_7_LD_14_RN_20_RD_25_1.png","img2/200/Incongruent/L/I_Dist_200_LN_3_LD_4_RN_11_RD_20_0.png","img2/100/Incongruent/L/I_Dist_100_LN_9_LD_10_RN_20_RD_25_0.png","img2/300/Congruent/L/C_Dist_300_LN_9_LD_10_RN_3_RD_5_0.png","img2/200/Congruent/L/C_Dist_200_LN_16_LD_20_RN_12_RD_20_0.png","img2/300/Congruent/R/C_Dist_300_LN_1_LD_5_RN_6_RD_12_1.png","img2/300/Congruent/L/C_Dist_300_LN_12_LD_24_RN_2_RD_10_0.png","img2/100/Congruent/R/C_Dist_100_LN_3_LD_20_RN_4_RD_16_1.png","img2/200/Congruent/L/C_Dist_200_LN_4_LD_8_RN_3_RD_10_0.png","img2/300/Congruent/R/C_Dist_300_LN_1_LD_3_RN_19_RD_30_1.png","img2/100/Incongruent/L/I_Dist_100_LN_6_LD_10_RN_11_RD_22_0.png","img2/300/Incongruent/L/I_Dist_300_LN_2_LD_4_RN_6_RD_30_0.png","img2/200/Congruent/R/C_Dist_200_LN_13_LD_26_RN_14_RD_20_1.png","img2/200/Incongruent/R/I_Dist_200_LN_14_LD_30_RN_6_RD_9_1.png","img2/300/Incongruent/R/I_Dist_300_LN_13_LD_26_RN_12_RD_15_1.png","img2/200/Incongruent/R/I_Dist_200_LN_4_LD_30_RN_1_RD_3_1.png","img2/200/Congruent/R/C_Dist_200_LN_6_LD_12_RN_7_RD_10_1.png","img2/100/Congruent/L/C_Dist_100_LN_11_LD_22_RN_4_RD_10_0.png","img2/300/Congruent/R/C_Dist_300_LN_3_LD_12_RN_11_RD_20_1.png","img2/300/Congruent/L/C_Dist_300_LN_20_LD_25_RN_9_RD_18_0.png","img2/200/Incongruent/R/I_Dist_200_LN_6_LD_20_RN_3_RD_6_1.png","img2/200/Congruent/R/C_Dist_200_LN_6_LD_20_RN_11_RD_22_1.png","img2/100/Congruent/R/C_Dist_100_LN_4_LD_10_RN_15_RD_30_1.png","img2/100/Congruent/R/C_Dist_100_LN_4_LD_8_RN_6_RD_10_1.png","img2/300/Incongruent/R/I_Dist_300_LN_13_LD_26_RN_12_RD_15_1.png","img2/300/Incongruent/L/I_Dist_300_LN_3_LD_6_RN_4_RD_20_0.png","img2/100/Incongruent/R/I_Dist_100_LN_10_LD_25_RN_8_RD_16_1.png","img2/300/Congruent/L/C_Dist_300_LN_4_LD_5_RN_2_RD_4_0.png","img2/100/Incongruent/R/I_Dist_100_LN_8_LD_20_RN_1_RD_2_1.png","img2/300/Incongruent/L/I_Dist_300_LN_1_LD_2_RN_2_RD_10_0.png","img2/100/Incongruent/R/I_Dist_100_LN_8_LD_16_RN_6_RD_10_1.png","img2/100/Incongruent/L/I_Dist_100_LN_3_LD_9_RN_7_RD_30_0.png","img2/200/Congruent/L/C_Dist_200_LN_16_LD_20_RN_12_RD_20_0.png","img2/300/Incongruent/L/I_Dist_300_LN_4_LD_5_RN_6_RD_12_0.png","img2/200/Congruent/R/C_Dist_200_LN_3_LD_10_RN_11_RD_22_1.png","img2/200/Congruent/R/C_Dist_200_LN_9_LD_30_RN_13_RD_26_1.png","img2/200/Congruent/L/C_Dist_200_LN_7_LD_21_RN_2_RD_15_0.png","img2/100/Incongruent/L/I_Dist_100_LN_6_LD_10_RN_7_RD_14_0.png","img2/100/Congruent/L/C_Dist_100_LN_3_LD_6_RN_2_RD_5_0.png","img2/200/Incongruent/L/I_Dist_200_LN_7_LD_10_RN_12_RD_24_0.png","img2/100/Congruent/R/C_Dist_100_LN_4_LD_8_RN_6_RD_10_1.png","img2/300/Incongruent/R/I_Dist_300_LN_13_LD_26_RN_12_RD_15_1.png","img2/100/Congruent/R/C_Dist_100_LN_2_LD_5_RN_11_RD_22_1.png","img2/100/Incongruent/R/I_Dist_100_LN_9_LD_18_RN_6_RD_10_1.png","img2/300/Congruent/R/C_Dist_300_LN_3_LD_12_RN_11_RD_20_1.png","img2/200/Congruent/R/C_Dist_200_LN_3_LD_10_RN_7_RD_14_1.png","img2/300/Congruent/R/C_Dist_300_LN_5_LD_25_RN_7_RD_14_1.png","img2/100/Congruent/R/C_Dist_100_LN_1_LD_2_RN_18_RD_30_1.png","img2/200/Incongruent/R/I_Dist_200_LN_3_LD_10_RN_1_RD_2_1.png","img2/100/Congruent/L/C_Dist_100_LN_11_LD_22_RN_6_RD_15_0.png","img2/200/Incongruent/R/I_Dist_200_LN_4_LD_30_RN_1_RD_3_1.png","img2/300/Incongruent/R/I_Dist_300_LN_4_LD_20_RN_2_RD_4_1.png","img2/300/Congruent/L/C_Dist_300_LN_12_LD_24_RN_2_RD_10_0.png","img2/100/Congruent/R/C_Dist_100_LN_2_LD_5_RN_11_RD_22_1.png","img2/300/Incongruent/R/I_Dist_300_LN_4_LD_20_RN_2_RD_4_1.png","img2/300/Incongruent/L/I_Dist_300_LN_8_LD_10_RN_9_RD_18_0.png","img2/300/Incongruent/L/I_Dist_300_LN_3_LD_6_RN_4_RD_20_0.png","img2/200/Congruent/L/C_Dist_200_LN_6_LD_15_RN_3_RD_15_0.png","img2/200/Incongruent/L/I_Dist_200_LN_7_LD_10_RN_12_RD_24_0.png","img2/100/Congruent/R/C_Dist_100_LN_7_LD_14_RN_15_RD_25_1.png","img2/300/Incongruent/L/I_Dist_300_LN_4_LD_5_RN_8_RD_16_0.png","img2/300/Congruent/L/C_Dist_300_LN_20_LD_25_RN_13_RD_26_0.png","img2/300/Congruent/L/C_Dist_300_LN_24_LD_30_RN_2_RD_4_0.png","img2/200/Incongruent/L/I_Dist_200_LN_4_LD_5_RN_6_RD_10_0.png","img2/100/Incongruent/R/I_Dist_100_LN_17_LD_30_RN_10_RD_15_1.png","img2/200/Incongruent/L/I_Dist_200_LN_7_LD_10_RN_8_RD_16_0.png","img2/200/Congruent/L/C_Dist_200_LN_12_LD_20_RN_6_RD_15_0.png","img2/100/Congruent/L/C_Dist_100_LN_11_LD_22_RN_6_RD_15_0.png","img2/100/Incongruent/L/I_Dist_100_LN_3_LD_5_RN_8_RD_16_0.png","img2/300/Incongruent/L/I_Dist_300_LN_4_LD_5_RN_8_RD_16_0.png","img2/100/Incongruent/R/I_Dist_100_LN_6_LD_12_RN_3_RD_5_1.png","img2/200/Incongruent/L/I_Dist_200_LN_4_LD_6_RN_14_RD_30_0.png","img2/200/Congruent/L/C_Dist_200_LN_16_LD_30_RN_9_RD_27_0.png","img2/100/Incongruent/R/I_Dist_100_LN_17_LD_30_RN_10_RD_15_1.png","img2/300/Incongruent/L/I_Dist_300_LN_4_LD_5_RN_8_RD_16_0.png","img2/300/Incongruent/L/I_Dist_300_LN_4_LD_5_RN_6_RD_12_0.png","img2/200/Incongruent/L/I_Dist_200_LN_1_LD_2_RN_3_RD_10_0.png","img2/100/Incongruent/L/I_Dist_100_LN_9_LD_10_RN_20_RD_25_0.png","img2/200/Congruent/L/C_Dist_200_LN_21_LD_30_RN_2_RD_4_0.png","img2/300/Incongruent/L/I_Dist_300_LN_1_LD_2_RN_3_RD_15_0.png","img2/300/Incongruent/R/I_Dist_300_LN_4_LD_20_RN_2_RD_4_1.png","img2/300/Congruent/R/C_Dist_300_LN_7_LD_14_RN_20_RD_25_1.png","img2/100/Incongruent/R/I_Dist_100_LN_10_LD_25_RN_9_RD_18_1.png","img2/200/Incongruent/L/I_Dist_200_LN_4_LD_5_RN_6_RD_10_0.png","img2/200/Incongruent/R/I_Dist_200_LN_14_LD_30_RN_12_RD_18_1.png","img2/200/Incongruent/R/I_Dist_200_LN_14_LD_30_RN_6_RD_9_1.png","img2/200/Congruent/R/C_Dist_200_LN_3_LD_10_RN_11_RD_22_1.png","img2/300/Incongruent/L/I_Dist_300_LN_1_LD_2_RN_3_RD_15_0.png","img2/200/Congruent/R/C_Dist_200_LN_3_LD_10_RN_11_RD_22_1.png","img2/100/Congruent/R/C_Dist_100_LN_4_LD_10_RN_15_RD_30_1.png","img2/300/Congruent/L/C_Dist_300_LN_3_LD_6_RN_2_RD_10_0.png","img2/200/Congruent/R/C_Dist_200_LN_3_LD_6_RN_14_RD_20_1.png","img2/100/Congruent/L/C_Dist_100_LN_6_LD_20_RN_5_RD_25_0.png","img2/100/Incongruent/L/I_Dist_100_LN_3_LD_5_RN_11_RD_22_0.png","img2/100/Congruent/R/C_Dist_100_LN_2_LD_5_RN_6_RD_12_1.png","img2/100/Incongruent/R/I_Dist_100_LN_6_LD_12_RN_3_RD_5_1.png","img2/100/Incongruent/R/I_Dist_100_LN_11_LD_22_RN_9_RD_15_1.png","img2/200/Incongruent/L/I_Dist_200_LN_1_LD_2_RN_3_RD_10_0.png","img2/300/Incongruent/R/I_Dist_300_LN_4_LD_20_RN_2_RD_4_1.png","img2/100/Congruent/L/C_Dist_100_LN_3_LD_6_RN_2_RD_5_0.png","img2/100/Congruent/R/C_Dist_100_LN_6_LD_12_RN_15_RD_25_1.png","img2/100/Incongruent/L/I_Dist_100_LN_9_LD_15_RN_13_RD_26_0.png","img2/300/Incongruent/R/I_Dist_300_LN_4_LD_20_RN_2_RD_4_1.png","img2/300/Congruent/L/C_Dist_300_LN_24_LD_30_RN_2_RD_4_0.png","img2/200/Incongruent/L/I_Dist_200_LN_4_LD_6_RN_14_RD_30_0.png","img2/300/Congruent/R/C_Dist_300_LN_1_LD_5_RN_6_RD_12_1.png","img2/200/Congruent/R/C_Dist_200_LN_3_LD_10_RN_11_RD_22_1.png","img2/300/Congruent/L/C_Dist_300_LN_11_LD_22_RN_4_RD_20_0.png","img2/100/Congruent/R/C_Dist_100_LN_7_LD_14_RN_15_RD_25_1.png","img2/200/Congruent/R/C_Dist_200_LN_1_LD_2_RN_21_RD_30_1.png"],"dist100_C":[["C_Dist_100_LN_10_LD_25_RN_3_RD_10_0.png","C_Dist_100_LN_11_LD_22_RN_4_RD_10_0.png","C_Dist_100_LN_11_LD_22_RN_6_RD_15_0.png","C_Dist_100_LN_15_LD_25_RN_13_RD_26_0.png","C_Dist_100_LN_3_LD_6_RN_2_RD_5_0.png","C_Dist_100_LN_6_LD_20_RN_5_RD_25_0.png","C_Dist_100_LN_8_LD_16_RN_2_RD_5_0.png","C_Dist_100_LN_9_LD_15_RN_8_RD_16_0.png"],["C_Dist_100_LN_1_LD_2_RN_18_RD_30_1.png","C_Dist_100_LN_1_LD_2_RN_3_RD_5_1.png","C_Dist_100_LN_12_LD_30_RN_13_RD_26_1.png","C_Dist_100_LN_2_LD_5_RN_11_RD_22_1.png","C_Dist_100_LN_2_LD_5_RN_6_RD_12_1.png","C_Dist_100_LN_3_LD_20_RN_4_RD_16_1.png","C_Dist_100_LN_4_LD_10_RN_15_RD_30_1.png","C_Dist_100_LN_4_LD_8_RN_6_RD_10_1.png","C_Dist_100_LN_6_LD_12_RN_15_RD_25_1.png","C_Dist_100_LN_7_LD_14_RN_15_RD_25_1.png","C_Dist_100_LN_7_LD_14_RN_9_RD_15_1.png"]],"dist100_I":[["I_Dist_100_LN_1_LD_2_RN_8_RD_20_0.png","I_Dist_100_LN_2_LD_4_RN_6_RD_15_0.png","I_Dist_100_LN_2_LD_4_RN_8_RD_20_0.png","I_Dist_100_LN_3_LD_5_RN_11_RD_22_0.png","I_Dist_100_LN_3_LD_5_RN_8_RD_16_0.png","I_Dist_100_LN_3_LD_6_RN_4_RD_10_0.png","I_Dist_100_LN_3_LD_9_RN_7_RD_30_0.png","I_Dist_100_LN_4_LD_8_RN_8_RD_20_0.png","I_Dist_100_LN_6_LD_10_RN_11_RD_22_0.png","I_Dist_100_LN_6_LD_10_RN_13_RD_26_0.png","I_Dist_100_LN_6_LD_10_RN_7_RD_14_0.png","I_Dist_100_LN_9_LD_10_RN_20_RD_25_0.png","I_Dist_100_LN_9_LD_15_RN_13_RD_26_0.png","I_Dist_100_LN_9_LD_15_RN_14_RD_28_0.png"],["I_Dist_100_LN_10_LD_25_RN_8_RD_16_1.png","I_Dist_100_LN_10_LD_25_RN_9_RD_18_1.png","I_Dist_100_LN_11_LD_22_RN_9_RD_15_1.png","I_Dist_100_LN_12_LD_24_RN_9_RD_15_1.png","I_Dist_100_LN_12_LD_30_RN_2_RD_4_1.png","I_Dist_100_LN_13_LD_26_RN_12_RD_20_1.png","I_Dist_100_LN_13_LD_26_RN_6_RD_10_1.png","I_Dist_100_LN_17_LD_30_RN_10_RD_15_1.png","I_Dist_100_LN_6_LD_12_RN_3_RD_5_1.png","I_Dist_100_LN_8_LD_16_RN_6_RD_10_1.png","I_Dist_100_LN_8_LD_20_RN_1_RD_2_1.png","I_Dist_100_LN_9_LD_18_RN_6_RD_10_1.png"]],"dist100_S":[["E_Dist_100_LN_2_LD_12_RN_2_RD_30_0.png","E_Dist_100_LN_6_LD_10_RN_6_RD_12_0.png"],["E_Dist_100_LN_6_LD_12_RN_6_RD_10_1.png"]],"dist200_C":[["C_Dist_200_LN_11_LD_22_RN_3_RD_10_0.png","C_Dist_200_LN_12_LD_15_RN_6_RD_10_0.png","C_Dist_200_LN_12_LD_20_RN_6_RD_15_0.png","C_Dist_200_LN_14_LD_28_RN_6_RD_20_0.png","C_Dist_200_LN_15_LD_25_RN_4_RD_10_0.png","C_Dist_200_LN_16_LD_20_RN_12_RD_20_0.png","C_Dist_200_LN_16_LD_30_RN_9_RD_27_0.png","C_Dist_200_LN_20_LD_25_RN_9_RD_15_0.png","C_Dist_200_LN_21_LD_30_RN_2_RD_4_0.png","C_Dist_200_LN_4_LD_10_RN_3_RD_15_0.png","C_Dist_200_LN_4_LD_8_RN_3_RD_10_0.png","C_Dist_200_LN_6_LD_15_RN_3_RD_15_0.png","C_Dist_200_LN_7_LD_21_RN_2_RD_15_0.png","C_Dist_200_LN_8_LD_15_RN_2_RD_6_0.png","C_Dist_200_LN_8_LD_15_RN_3_RD_9_0.png","C_Dist_200_LN_8_LD_15_RN_7_RD_21_0.png","C_Dist_200_LN_9_LD_20_RN_4_RD_16_0.png"],["C_Dist_200_LN_1_LD_2_RN_21_RD_30_1.png","C_Dist_200_LN_13_LD_26_RN_14_RD_20_1.png","C_Dist_200_LN_3_LD_10_RN_11_RD_22_1.png","C_Dist_200_LN_3_LD_10_RN_14_RD_28_1.png","C_Dist_200_LN_3_LD_10_RN_7_RD_14_1.png","C_Dist_200_LN_3_LD_12_RN_9_RD_20_1.png","C_Dist_200_LN_3_LD_6_RN_14_RD_20_1.png","C_Dist_200_LN_5_LD_10_RN_14_RD_20_1.png","C_Dist_200_LN_6_LD_12_RN_7_RD_10_1.png","C_Dist_200_LN_6_LD_20_RN_11_RD_22_1.png","C_Dist_200_LN_7_LD_15_RN_18_RD_27_1.png","C_Dist_200_LN_9_LD_30_RN_13_RD_26_1.png"]],"dist200_I":[["I_Dist_200_LN_1_LD_2_RN_3_RD_10_0.png","I_Dist_200_LN_1_LD_3_RN_2_RD_15_0.png","I_Dist_200_LN_3_LD_4_RN_11_RD_20_0.png","I_Dist_200_LN_4_LD_5_RN_6_RD_10_0.png","I_Dist_200_LN_4_LD_6_RN_14_RD_30_0.png","I_Dist_200_LN_7_LD_10_RN_12_RD_24_0.png","I_Dist_200_LN_7_LD_10_RN_14_RD_28_0.png","I_Dist_200_LN_7_LD_10_RN_8_RD_16_0.png"],["I_Dist_200_LN_11_LD_20_RN_3_RD_4_1.png","I_Dist_200_LN_14_LD_30_RN_12_RD_18_1.png","I_Dist_200_LN_14_LD_30_RN_6_RD_9_1.png","I_Dist_200_LN_3_LD_10_RN_1_RD_2_1.png","I_Dist_200_LN_4_LD_30_RN_1_RD_3_1.png","I_Dist_200_LN_6_LD_20_RN_3_RD_6_1.png","I_Dist_200_LN_7_LD_15_RN_4_RD_6_1.png","I_Dist_200_LN_7_LD_15_RN_6_RD_9_1.png","I_Dist_200_LN_9_LD_15_RN_8_RD_10_1.png"]],"dist200_S":[["E_Dist_200_LN_3_LD_6_RN_3_RD_10_0.png"],["E_Dist_200_LN_3_LD_10_RN_3_RD_6_1.png"]],"dist300_C":[["C_Dist_300_LN_11_LD_22_RN_1_RD_5_0.png","C_Dist_300_LN_11_LD_22_RN_2_RD_10_0.png","C_Dist_300_LN_11_LD_22_RN_4_RD_20_0.png","C_Dist_300_LN_12_LD_24_RN_2_RD_10_0.png","C_Dist_300_LN_18_LD_20_RN_9_RD_15_0.png","C_Dist_300_LN_20_LD_25_RN_13_RD_26_0.png","C_Dist_300_LN_20_LD_25_RN_14_RD_28_0.png","C_Dist_300_LN_20_LD_25_RN_5_RD_10_0.png","C_Dist_300_LN_20_LD_25_RN_8_RD_16_0.png","C_Dist_300_LN_20_LD_25_RN_9_RD_18_0.png","C_Dist_300_LN_24_LD_30_RN_2_RD_4_0.png","C_Dist_300_LN_24_LD_30_RN_8_RD_16_0.png","C_Dist_300_LN_3_LD_6_RN_2_RD_10_0.png","C_Dist_300_LN_4_LD_10_RN_1_RD_10_0.png","C_Dist_300_LN_4_LD_5_RN_2_RD_4_0.png","C_Dist_300_LN_8_LD_16_RN_1_RD_5_0.png","C_Dist_300_LN_9_LD_10_RN_3_RD_5_0.png"],["C_Dist_300_LN_1_LD_20_RN_7_RD_20_1.png","C_Dist_300_LN_1_LD_3_RN_19_RD_30_1.png","C_Dist_300_LN_1_LD_30_RN_8_RD_24_1.png","C_Dist_300_LN_1_LD_5_RN_11_RD_22_1.png","C_Dist_300_LN_1_LD_5_RN_3_RD_6_1.png","C_Dist_300_LN_1_LD_5_RN_6_RD_12_1.png","C_Dist_300_LN_2_LD_10_RN_12_RD_24_1.png","C_Dist_300_LN_2_LD_20_RN_10_RD_25_1.png","C_Dist_300_LN_3_LD_12_RN_11_RD_20_1.png","C_Dist_300_LN_3_LD_6_RN_4_RD_5_1.png","C_Dist_300_LN_4_LD_20_RN_13_RD_26_1.png","C_Dist_300_LN_5_LD_25_RN_6_RD_12_1.png","C_Dist_300_LN_5_LD_25_RN_7_RD_14_1.png","C_Dist_300_LN_7_LD_14_RN_20_RD_25_1.png","C_Dist_300_LN_8_LD_15_RN_10_RD_12_1.png"]],"dist300_I":[["I_Dist_300_LN_1_LD_2_RN_2_RD_10_0.png","I_Dist_300_LN_1_LD_2_RN_3_RD_15_0.png","I_Dist_300_LN_2_LD_4_RN_6_RD_30_0.png","I_Dist_300_LN_3_LD_6_RN_4_RD_20_0.png","I_Dist_300_LN_4_LD_5_RN_6_RD_12_0.png","I_Dist_300_LN_4_LD_5_RN_8_RD_16_0.png","I_Dist_300_LN_7_LD_10_RN_8_RD_20_0.png","I_Dist_300_LN_8_LD_10_RN_14_RD_28_0.png","I_Dist_300_LN_8_LD_10_RN_9_RD_18_0.png"],["I_Dist_300_LN_13_LD_26_RN_12_RD_15_1.png","I_Dist_300_LN_4_LD_20_RN_2_RD_4_1.png"]],"dist300_S":[["E_Dist_300_LN_9_LD_12_RN_9_RD_20_0.png"],["E_Dist_300_LN_18_LD_30_RN_18_RD_20_1.png","E_Dist_300_LN_3_LD_10_RN_3_RD_5_1.png","E_Dist_300_LN_9_LD_20_RN_9_RD_12_1.png"]],"dist500_C":[["C_Dist_500_LN_10_LD_13_RN_7_RD_26_0.png","C_Dist_500_LN_10_LD_15_RN_4_RD_24_0.png","C_Dist_500_LN_12_LD_16_RN_3_RD_12_0.png","C_Dist_500_LN_12_LD_18_RN_4_RD_24_0.png","C_Dist_500_LN_15_LD_18_RN_5_RD_15_0.png","C_Dist_500_LN_15_LD_20_RN_1_RD_4_0.png","C_Dist_500_LN_18_LD_27_RN_1_RD_6_0.png","C_Dist_500_LN_20_LD_24_RN_1_RD_3_0.png","C_Dist_500_LN_20_LD_24_RN_3_RD_9_0.png","C_Dist_500_LN_20_LD_24_RN_7_RD_21_0.png","C_Dist_500_LN_20_LD_28_RN_3_RD_14_0.png","C_Dist_500_LN_21_LD_28_RN_6_RD_24_0.png","C_Dist_500_LN_22_LD_28_RN_2_RD_7_0.png","C_Dist_500_LN_25_LD_30_RN_9_RD_27_0.png","C_Dist_500_LN_4_LD_6_RN_1_RD_6_0.png","C_Dist_500_LN_5_LD_6_RN_2_RD_6_0.png","C_Dist_500_LN_6_LD_9_RN_1_RD_6_0.png","C_Dist_500_LN_7_LD_10_RN_1_RD_5_0.png","C_Dist_500_LN_8_LD_12_RN_1_RD_6_0.png","C_Dist_500_LN_8_LD_12_RN_4_RD_24_0.png"],["C_Dist_500_LN_1_LD_4_RN_12_RD_16_1.png","C_Dist_500_LN_1_LD_4_RN_9_RD_12_1.png","C_Dist_500_LN_1_LD_9_RN_11_RD_18_1.png","C_Dist_500_LN_10_LD_24_RN_22_RD_24_1.png","C_Dist_500_LN_2_LD_12_RN_10_RD_15_1.png","C_Dist_500_LN_2_LD_12_RN_12_RD_18_1.png","C_Dist_500_LN_2_LD_12_RN_4_RD_6_1.png","C_Dist_500_LN_2_LD_24_RN_7_RD_12_1.png","C_Dist_500_LN_2_LD_5_RN_18_RD_20_1.png","C_Dist_500_LN_2_LD_5_RN_9_RD_10_1.png","C_Dist_500_LN_2_LD_8_RN_12_RD_16_1.png","C_Dist_500_LN_2_LD_8_RN_21_RD_28_1.png","C_Dist_500_LN_3_LD_10_RN_4_RD_5_1.png","C_Dist_500_LN_3_LD_12_RN_15_RD_20_1.png","C_Dist_500_LN_3_LD_30_RN_6_RD_10_1.png","C_Dist_500_LN_3_LD_8_RN_14_RD_16_1.png","C_Dist_500_LN_4_LD_16_RN_15_RD_20_1.png","C_Dist_500_LN_4_LD_24_RN_12_RD_18_1.png","C_Dist_500_LN_5_LD_14_RN_6_RD_7_1.png","C_Dist_500_LN_7_LD_21_RN_20_RD_24_1.png","C_Dist_500_LN_7_LD_28_RN_12_RD_16_1.png","C_Dist_500_LN_7_LD_28_RN_9_RD_12_1.png","C_Dist_500_LN_9_LD_27_RN_20_RD_24_1.png"]],"dist500_I":[["I_Dist_500_LN_2_LD_3_RN_4_RD_24_0.png","I_Dist_500_LN_5_LD_6_RN_6_RD_18_0.png","I_Dist_500_LN_7_LD_8_RN_9_RD_24_0.png"],["I_Dist_500_LN_7_LD_21_RN_5_RD_6_1.png"]],"dist500_S":[["E_Dist_500_LN_6_LD_8_RN_6_RD_24_0.png"],["E_Dist_500_LN_2_LD_12_RN_2_RD_3_1.png","E_Dist_500_LN_6_LD_24_RN_6_RD_8_1.png"]]}},{"start_time":1551899947938,"click_time":1551899950186,"finger_time":1551899949586,"fix_duration":570.2552658133179,"trial":1,"RT":1648,"MT":600,"sideResp":1,"stimulus":[],"xmouse":[788,788,788,788,788,788,788,788,788,788,788,788,788,788,788,788,788,788,788,788,788,788,788,788,788,788,788,788,788,788,788,788,788,788,788,788,788,788,788,788,788,788,788,788,788,788,788,788,788,788,788,788,788,788,788,788,788,788,788,788,788,788,788,788,788,788,788,788,788,788,788,788,788,788,788,788,788,788,788,788,785,783,771,752,679,635,584,532,484,406,378,354,336,322,315,315,315,317,324,341,349,360,373,383,403,407,409,410,410,413,419,424,429],"ymouse":[660,660,660,660,660,660,660,660,660,660,660,660,660,660,660,660,660,660,660,660,660,660,660,660,660,660,660,660,660,660,660,660,660,660,660,660,660,660,660,660,660,660,660,660,660,660,660,660,660,660,660,660,660,660,660,660,660,660,660,660,660,660,660,660,660,660,660,660,660,660,660,660,660,660,660,660,660,660,660,660,638,600,523,440,229,150,74,5,0,0,0,0,0,0,0,0,0,3,14,38,52,66,81,90,102,103,103,103,103,98,91,86,82],"timestamp_mouse":[17,40,48,68,88,108,128,148,169,189,207,229,249,267,289,308,329,348,368,389,407,429,448,467,488,509,528,547,568,588,607,627,648,669,688,708,727,748,767,787,808,828,848,869,889,908,929,949,967,989,1008,1028,1048,1067,1089,1109,1128,1148,1168,1187,1209,1229,1249,1267,1289,1308,1327,1347,1368,1387,1409,1428,1449,1468,1488,1508,1528,1548,1569,1589,1607,1628,1648,1669,1687,1708,1728,1749,1768,1787,1807,1828,1848,1869,1889,1908,1929,1949,1969,1988,2007,2027,2048,2069,2088,2107,2127,2148,2169,2188,2209,2229,2247],"xSR":741.5,"ySR":573.95,"xT1":424.9,"yT1":0,"xT2":1058.1,"yT2":0,"toosoon":0,"cond_shown":"Congruent","ratio_trial":300,"L_num":4,"L_den":10,"R_num":1,"R_den":10,"correct_side":1,"subjID":"juanitapavamartinez17","gender":"1","school":"6","age":"11"},{"start_time":1551899959040,"click_time":1551899960886,"finger_time":1551899960485,"fix_duration":250,"trial":2,"RT":1445,"MT":401,"sideResp":1,"stimulus":[],"xmouse":[795,795,795,795,795,795,795,795,795,795,795,795,795,795,795,795,795,795,795,795,795,795,795,795,795,795,795,795,795,795,795,795,795,795,795,795,795,795,795,795,795,795,795,795,795,795,795,795,795,795,795,795,795,795,795,795,795,795,795,795,795,795,795,795,795,795,795,795,795,795,795,795,807,816,824,824,824,822,814,801,801,801,756,721,666,636,614,591,581,557,548,536,520],"ymouse":[580,580,580,580,580,580,580,580,580,580,580,580,580,580,580,580,580,580,580,580,580,580,580,580,580,580,580,580,580,580,580,580,580,580,580,580,580,580,580,580,580,580,580,580,580,580,580,580,580,580,580,580,580,580,580,580,580,580,580,580,580,580,580,580,580,580,580,580,580,580,580,580,490,411,201,136,87,50,21,1,1,1,0,0,0,0,0,0,0,8,12,14,16],"timestamp_mouse":[10,33,46,67,85,107,126,145,167,187,205,226,246,266,287,306,325,347,366,386,406,427,447,467,486,506,527,546,567,586,606,625,646,666,687,706,725,747,766,786,806,825,846,867,887,906,927,945,966,986,1007,1026,1046,1065,1086,1107,1127,1146,1166,1187,1206,1226,1247,1267,1287,1306,1325,1346,1366,1385,1407,1427,1445,1466,1486,1507,1526,1545,1567,1586,1606,1626,1647,1667,1686,1705,1727,1747,1767,1786,1805,1827,1846],"xSR":741.5,"ySR":573.95,"xT1":424.9,"yT1":0,"xT2":1058.1,"yT2":0,"toosoon":0,"cond_shown":"Congruent","ratio_trial":100,"L_num":8,"L_den":16,"R_num":2,"R_den":5,"correct_side":1,"subjID":"juanitapavamartinez17","gender":"1","school":"6","age":"11"},{"start_time":1551899964292,"click_time":1551899966346,"finger_time":1551899965226,"fix_duration":963.6550612936273,"trial":3,"RT":934,"MT":1120,"sideResp":2,"stimulus":[],"xmouse":[774,774,774,774,774,774,774,774,774,774,774,774,774,774,774,774,774,774,774,774,774,774,774,774,774,774,774,774,774,774,774,774,774,774,774,774,786,795,804,812,817,819,820,820,823,825,839,847,854,859,863,871,878,888,904,923,947,948,950,950,950,950,956,965,976,989,1007,1009,1009,1010,1015,1028,1034,1045,1052,1056,1063,1066,1069,1076,1086,1108,1115,1118,1121,1122,1122,1122,1122,1122,1122,1122,1122,1122,1122,1122,1122,1122,1122,1122,1122,1124,1124],"ymouse":[632,632,632,632,632,632,632,632,632,632,632,632,632,632,632,632,632,632,632,632,632,632,632,632,632,632,632,632,632,632,632,632,632,632,632,630,616,608,599,593,589,587,586,586,584,582,573,567,561,557,554,545,535,519,486,443,372,362,361,361,361,359,351,336,315,291,256,253,252,252,251,244,239,232,220,211,192,186,180,173,163,133,121,116,110,108,108,108,108,108,108,108,108,108,108,108,108,108,108,108,108,104,99],"timestamp_mouse":[14,34,55,74,94,113,135,154,174,193,213,235,253,274,295,315,335,354,374,393,415,433,454,475,493,514,535,554,575,594,614,634,654,674,695,714,733,754,775,793,814,833,854,875,894,914,933,954,974,993,1013,1033,1054,1074,1094,1115,1134,1154,1174,1194,1214,1233,1254,1275,1293,1315,1334,1354,1375,1393,1414,1433,1454,1473,1493,1515,1534,1554,1574,1594,1614,1633,1654,1675,1694,1714,1734,1753,1773,1794,1814,1833,1854,1874,1893,1913,1933,1955,1975,1995,2014,2034,2054],"xSR":741.5,"ySR":573.95,"xT1":424.9,"yT1":0,"xT2":1058.1,"yT2":0,"toosoon":0,"cond_shown":"Incongruent","ratio_trial":200,"L_num":4,"L_den":30,"R_num":1,"R_den":3,"correct_side":2,"subjID":"juanitapavamartinez17","gender":"1","school":"6","age":"11"},{"start_time":1551899970836,"click_time":1551899973206,"finger_time":1551899972345,"fix_duration":486.87118160347086,"trial":4,"RT":1509,"MT":861,"sideResp":1,"stimulus":[],"xmouse":[810,810,810,810,810,810,810,810,810,810,810,810,810,810,810,810,810,810,810,810,810,810,810,810,810,810,810,810,810,810,810,810,810,810,810,810,810,810,810,810,810,810,810,810,810,810,810,810,810,810,810,810,810,810,810,810,810,810,810,810,810,810,810,810,810,810,810,810,810,810,810,810,810,810,809,796,773,755,739,718,716,713,711,709,704,698,690,679,667,636,624,613,602,595,582,577,570,564,562,557,556,555,555,554,549,549,548,548,548,545,544,543,543,542,541,538,535,528,518],"ymouse":[603,603,603,603,603,603,603,603,603,603,603,603,603,603,603,603,603,603,603,603,603,603,603,603,603,603,603,603,603,603,603,603,603,603,603,603,603,603,603,603,603,603,603,603,603,603,603,603,603,603,603,603,603,603,603,603,603,603,603,603,603,603,603,603,603,603,603,603,603,603,603,603,603,603,602,555,510,486,463,423,414,407,399,392,379,369,357,342,330,293,278,263,249,235,212,201,189,179,172,152,146,139,133,125,118,116,116,116,116,108,106,104,102,102,100,97,92,84,76],"timestamp_mouse":[10,37,49,70,90,110,131,149,169,191,211,229,250,270,289,311,330,350,370,389,410,431,450,469,491,510,529,551,570,591,610,629,651,669,691,710,730,750,770,789,811,831,850,871,890,909,931,951,969,990,1009,1030,1050,1070,1091,1111,1130,1151,1170,1191,1211,1230,1251,1269,1290,1310,1331,1351,1369,1390,1411,1429,1449,1470,1490,1509,1530,1549,1570,1590,1610,1630,1650,1671,1690,1710,1729,1749,1771,1790,1810,1831,1849,1870,1890,1910,1929,1950,1970,1990,2010,2030,2050,2071,2091,2110,2130,2149,2171,2190,2210,2230,2250,2269,2290,2311,2330,2349,2369],"xSR":741.5,"ySR":573.95,"xT1":424.9,"yT1":0,"xT2":1058.1,"yT2":0,"toosoon":0,"cond_shown":"Incongruent","ratio_trial":100,"L_num":9,"L_den":18,"R_num":6,"R_den":10,"correct_side":2,"subjID":"juanitapavamartinez17","gender":"1","school":"6","age":"11"},{"start_time":1551899979542,"click_time":1551899983227,"finger_time":1551899982726,"fix_duration":614.7060912596419,"trial":5,"RT":3184,"MT":501,"sideResp":1,"stimulus":[],"xmouse":[807,807,807,807,807,807,807,807,807,807,807,807,807,807,807,807,807,807,807,807,807,807,807,807,807,807,807,807,807,807,807,807,807,807,807,807,807,807,807,807,807,807,807,807,807,807,807,807,807,807,807,807,807,807,807,807,807,807,807,807,807,807,807,807,807,807,807,807,807,807,807,807,807,807,807,807,807,807,807,807,807,807,807,807,807,807,807,807,807,807,807,807,807,807,807,807,807,807,807,807,807,807,807,807,807,807,807,807,807,807,807,807,807,807,807,807,807,807,807,807,807,807,807,807,807,807,807,807,807,807,807,807,807,807,807,807,807,807,807,807,807,807,807,807,807,807,807,807,807,807,807,807,807,807,807,807,807,808,808,808,808,804,799,792,773,762,753,743,736,710,693,675,649,626,569,551,533,519,510,509,509,509,508,506,491],"ymouse":[613,613,613,613,613,613,613,613,613,613,613,613,613,613,613,613,613,613,613,613,613,613,613,613,613,613,613,613,613,613,613,613,613,613,613,613,613,613,613,613,613,613,613,613,613,613,613,613,613,613,613,613,613,613,613,613,613,613,613,613,613,613,613,613,613,613,613,613,613,613,613,613,613,613,613,613,613,613,613,613,613,613,613,613,613,613,613,613,613,613,613,613,613,613,613,613,613,613,613,613,613,613,613,613,613,613,613,613,613,613,613,613,613,613,613,613,613,613,613,613,613,613,613,613,613,613,613,613,613,613,613,613,613,613,613,613,613,613,613,613,613,613,613,613,613,613,613,613,613,613,613,613,613,613,613,613,613,612,599,461,396,340,301,269,208,188,170,150,132,88,68,48,33,20,0,0,0,0,0,0,0,0,0,0,9],"timestamp_mouse":[10,35,45,63,84,105,125,143,164,184,204,224,244,264,285,304,324,344,363,384,403,424,443,465,485,504,523,545,564,584,603,625,644,664,683,705,723,744,764,784,804,824,845,864,885,904,925,944,963,985,1003,1024,1044,1065,1085,1105,1124,1143,1164,1183,1205,1225,1244,1263,1284,1304,1325,1343,1365,1385,1404,1425,1445,1465,1484,1504,1524,1544,1565,1583,1603,1624,1643,1663,1684,1705,1723,1743,1765,1784,1805,1824,1844,1864,1884,1904,1924,1944,1964,1984,2003,2024,2045,2063,2084,2105,2124,2144,2163,2184,2204,2223,2243,2265,2285,2305,2324,2344,2365,2384,2404,2424,2445,2464,2485,2504,2523,2544,2564,2585,2603,2625,2643,2665,2685,2704,2724,2745,2764,2784,2804,2823,2843,2865,2885,2904,2923,2943,2965,2985,3005,3024,3044,3063,3085,3104,3124,3144,3163,3184,3204,3224,3244,3265,3283,3304,3324,3345,3364,3383,3404,3424,3444,3465,3484,3503,3524,3545,3564,3584,3604,3623,3645,3664,3684],"xSR":741.5,"ySR":573.95,"xT1":424.9,"yT1":0,"xT2":1058.1,"yT2":0,"toosoon":0,"cond_shown":"Congruent","ratio_trial":200,"L_num":7,"L_den":21,"R_num":2,"R_den":15,"correct_side":1,"subjID":"juanitapavamartinez17","gender":"1","school":"6","age":"11"},{"start_time":1551899987167,"click_time":1551899989426,"finger_time":1551899988627,"fix_duration":979.8958204419473,"trial":6,"RT":1460,"MT":799,"sideResp":1,"stimulus":[],"xmouse":[807,807,807,807,807,807,807,807,807,807,807,807,807,807,807,807,807,807,807,807,807,807,807,807,807,807,807,807,807,807,807,807,807,807,807,807,807,807,807,807,807,807,807,807,807,807,807,807,807,807,807,807,807,807,807,807,807,807,807,807,807,807,807,807,807,807,807,807,807,802,797,788,764,759,757,757,756,754,752,750,747,746,740,734,720,706,691,668,658,646,635,623,592,585,581,581,584,589,589,589,588,582,565,561,560,559,556,547,543,540,535,531,517],"ymouse":[616,616,616,616,616,616,616,616,616,616,616,616,616,616,616,616,616,616,616,616,616,616,616,616,616,616,616,616,616,616,616,616,616,616,616,616,616,616,616,616,616,616,616,616,616,616,616,616,616,616,616,616,616,616,616,616,616,616,616,616,616,616,616,616,616,616,616,616,616,615,609,594,555,544,539,536,535,532,530,527,524,523,512,501,480,457,432,385,351,311,272,227,113,80,60,46,35,27,26,23,22,18,10,9,8,8,8,8,9,11,14,18,26],"timestamp_mouse":[19,38,58,80,99,120,139,159,179,200,218,238,260,280,298,319,340,359,379,400,418,440,458,479,498,519,540,559,579,599,618,640,658,679,699,719,738,758,779,799,818,840,860,880,899,919,938,959,979,999,1018,1038,1060,1078,1100,1120,1140,1159,1179,1200,1220,1239,1260,1279,1299,1319,1338,1360,1379,1399,1419,1440,1460,1480,1499,1519,1540,1558,1579,1599,1619,1639,1659,1679,1699,1719,1739,1759,1779,1799,1818,1839,1859,1879,1899,1919,1938,1959,1980,1999,2019,2040,2059,2079,2098,2119,2139,2159,2179,2199,2219,2239,2259],"xSR":741.5,"ySR":573.95,"xT1":424.9,"yT1":0,"xT2":1058.1,"yT2":0,"toosoon":0,"cond_shown":"Congruent","ratio_trial":300,"L_num":4,"L_den":5,"R_num":2,"R_den":4,"correct_side":1,"subjID":"juanitapavamartinez17","gender":"1","school":"6","age":"11"},{"start_time":1551899993607,"click_time":1551899995307,"finger_time":1551899995106,"fix_duration":480.14055808037494,"trial":7,"RT":1499,"MT":201,"sideResp":2,"stimulus":[],"xmouse":[807,807,807,807,807,807,807,807,807,807,807,807,807,807,807,807,807,807,807,807,807,807,807,807,807,807,807,807,807,807,807,807,807,807,807,807,807,807,807,807,807,807,807,807,808,808,808,808,808,808,808,808,808,808,808,808,808,808,808,808,808,808,808,808,808,808,808,808,808,808,808,808,811,826,842,894,918,944,967,988,1038,1055,1065,1078,1086],"ymouse":[643,643,643,643,643,643,643,643,643,643,643,643,643,643,643,643,643,643,643,643,643,643,643,643,643,643,643,643,643,643,643,643,643,643,643,643,643,643,643,643,643,643,643,643,643,643,643,643,643,643,643,643,643,643,643,643,643,643,643,643,643,643,643,643,643,643,643,643,643,643,643,643,642,619,584,489,440,385,331,278,172,141,121,106,91],"timestamp_mouse":[20,50,58,79,99,119,139,159,179,199,218,239,260,278,299,320,339,359,379,398,418,439,459,479,498,520,539,560,578,598,620,639,659,679,698,719,739,760,778,798,819,838,858,878,899,920,939,958,979,998,1019,1039,1060,1078,1099,1120,1139,1159,1179,1199,1220,1239,1260,1278,1300,1319,1339,1359,1380,1400,1419,1438,1459,1479,1499,1518,1538,1559,1578,1599,1620,1639,1659,1678,1700],"xSR":741.5,"ySR":573.95,"xT1":424.9,"yT1":0,"xT2":1058.1,"yT2":0,"toosoon":0,"cond_shown":"Incongruent","ratio_trial":100,"L_num":6,"L_den":10,"R_num":7,"R_den":14,"correct_side":1,"subjID":"juanitapavamartinez17","gender":"1","school":"6","age":"11"},{"start_time":1551899999994,"click_time":1551900002126,"finger_time":1551900001426,"fix_duration":927.6578224926261,"trial":8,"RT":1432,"MT":700,"sideResp":2,"stimulus":[],"xmouse":[802,802,802,802,802,802,802,802,802,802,802,802,802,802,802,802,802,802,802,802,802,802,802,802,802,802,802,802,802,802,802,802,802,802,802,802,802,802,802,802,802,802,802,802,802,802,802,802,802,802,802,802,802,802,802,802,802,802,802,802,802,802,802,802,802,802,802,801,791,769,749,739,739,739,739,739,751,768,788,804,820,850,857,866,871,874,880,884,891,900,910,939,956,976,994,1013,1053,1073,1085,1093,1099,1100,1100,1100,1100,1101,1105],"ymouse":[588,588,588,588,588,588,588,588,588,588,588,588,588,588,588,588,588,588,588,588,588,588,588,588,588,588,588,588,588,588,588,588,588,588,588,588,588,588,588,588,588,588,588,588,588,588,588,588,588,588,588,588,588,588,588,588,588,588,588,588,588,588,588,588,588,588,588,591,599,614,620,623,623,623,623,623,608,583,559,539,517,482,472,465,459,454,446,440,431,416,396,333,304,268,241,218,168,147,130,116,108,106,106,106,106,105,94],"timestamp_mouse":[12,34,53,72,93,113,133,154,172,192,213,234,254,273,292,313,332,353,373,392,413,432,452,473,492,512,533,553,573,592,614,633,653,673,693,713,733,752,772,792,814,834,852,874,892,912,933,953,973,993,1012,1034,1052,1072,1093,1112,1134,1154,1172,1192,1212,1232,1253,1272,1292,1314,1332,1352,1373,1392,1413,1432,1453,1473,1492,1513,1532,1553,1574,1594,1612,1632,1652,1672,1693,1714,1733,1752,1772,1792,1813,1833,1853,1872,1892,1913,1932,1952,1972,1994,2012,2034,2052,2072,2094,2112,2132],"xSR":741.5,"ySR":573.95,"xT1":424.9,"yT1":0,"xT2":1058.1,"yT2":0,"toosoon":0,"cond_shown":"Incongruent","ratio_trial":200,"L_num":14,"L_den":30,"R_num":12,"R_den":18,"correct_side":2,"subjID":"juanitapavamartinez17","gender":"1","school":"6","age":"11"},{"start_time":1551900006079,"click_time":1551900009227,"finger_time":1551900008486,"fix_duration":250,"trial":9,"RT":2407,"MT":741,"sideResp":2,"stimulus":[],"xmouse":[807,807,807,807,807,807,807,807,807,807,807,807,807,807,807,807,807,807,807,807,807,807,807,807,807,807,807,807,807,807,807,807,807,807,807,807,807,807,807,807,807,807,807,807,807,807,807,807,807,807,807,807,807,807,807,807,807,807,807,807,807,807,807,807,807,807,807,807,807,807,807,807,807,807,807,807,807,807,807,807,807,807,807,807,807,807,807,807,807,807,807,807,807,807,807,807,807,807,807,807,807,807,807,807,807,807,807,807,807,807,807,807,807,807,807,807,806,813,818,825,833,841,858,865,870,876,880,896,904,914,920,926,940,950,962,973,987,1011,1022,1031,1039,1044,1060,1065,1073,1079,1085,1092,1094,1095,1097,1099,1103,1104,1106,1108,1108,1108],"ymouse":[618,618,618,618,618,618,618,618,618,618,618,618,618,618,618,618,618,618,618,618,618,618,618,618,618,618,618,618,618,618,618,618,618,618,618,618,618,618,618,618,618,618,618,618,618,618,618,618,618,618,618,618,618,618,618,618,618,618,618,618,618,618,618,618,618,618,618,618,618,618,618,618,618,618,618,618,618,618,618,618,618,618,618,618,618,618,618,618,618,618,618,618,618,618,618,618,618,618,618,618,618,618,618,618,618,618,618,618,618,618,618,618,618,618,618,618,616,595,586,574,561,550,521,509,500,491,483,458,446,431,420,412,391,379,364,355,343,322,312,304,296,286,267,260,248,236,225,206,197,189,181,177,166,156,146,133,118,71],"timestamp_mouse":[22,28,47,68,87,107,127,148,168,188,207,227,248,268,287,307,329,347,367,388,407,428,447,467,487,508,529,548,568,589,608,627,649,668,688,708,727,748,767,789,807,827,847,867,887,908,928,949,969,989,1009,1028,1048,1069,1088,1107,1129,1148,1168,1189,1208,1227,1249,1269,1288,1307,1327,1348,1369,1387,1409,1429,1448,1467,1487,1509,1527,1548,1568,1588,1607,1629,1648,1668,1687,1707,1728,1748,1769,1787,1808,1828,1848,1869,1889,1908,1927,1948,1967,1987,2009,2028,2048,2067,2087,2109,2128,2147,2168,2188,2207,2228,2248,2268,2288,2308,2327,2347,2368,2388,2407,2429,2448,2468,2487,2507,2529,2548,2569,2588,2609,2627,2647,2668,2687,2709,2728,2748,2769,2787,2807,2827,2848,2868,2888,2907,2928,2947,2968,2988,3008,3027,3047,3068,3087,3108,3127,3148],"xSR":741.5,"ySR":573.95,"xT1":424.9,"yT1":0,"xT2":1058.1,"yT2":0,"toosoon":0,"cond_shown":"Congruent","ratio_trial":100,"L_num":3,"L_den":20,"R_num":4,"R_den":16,"correct_side":2,"subjID":"juanitapavamartinez17","gender":"1","school":"6","age":"11"},{"start_time":1551900012781,"click_time":1551900015427,"finger_time":1551900013927,"fix_duration":393.08181178680377,"trial":10,"RT":1146,"MT":1500,"sideResp":2,"stimulus":[],"xmouse":[765,765,765,765,765,765,765,765,765,765,765,765,765,765,765,765,765,765,765,765,765,765,765,765,765,765,765,765,765,765,765,765,765,765,765,765,765,765,765,765,765,765,765,765,765,765,765,765,765,765,765,765,765,765,765,766,770,786,791,798,800,802,810,814,817,820,824,834,841,847,853,866,871,876,882,887,890,897,899,903,907,914,937,944,950,958,963,975,980,985,994,1008,1054,1073,1089,1100,1104,1106,1106,1107,1108,1110,1114,1114,1114,1114,1114,1114,1114,1115,1116,1118,1118,1119,1120,1120,1120,1121,1121,1121,1121,1121,1123,1123,1123,1123,1123,1124,1124,1124,1125,1125,1125],"ymouse":[629,629,629,629,629,629,629,629,629,629,629,629,629,629,629,629,629,629,629,629,629,629,629,629,629,629,629,629,629,629,629,629,629,629,629,629,629,629,629,629,629,629,629,629,629,629,629,629,629,629,629,629,629,629,629,612,601,558,542,529,517,508,489,478,472,463,454,429,415,398,382,360,352,345,337,330,326,321,317,309,304,295,265,255,245,234,226,213,207,202,196,189,168,164,159,154,153,151,151,150,148,146,141,141,141,141,141,141,139,137,133,129,126,124,122,120,119,115,114,114,114,114,111,111,111,111,111,109,108,106,104,103,98],"timestamp_mouse":[8,39,46,66,85,105,127,145,166,185,207,226,246,267,285,306,325,346,366,385,406,427,445,465,487,505,526,546,566,586,606,625,646,666,685,705,726,747,765,786,807,826,846,866,885,906,927,946,965,986,1005,1026,1046,1066,1086,1106,1126,1146,1165,1185,1207,1227,1246,1265,1286,1306,1325,1346,1366,1385,1405,1435,1445,1465,1486,1506,1526,1546,1566,1585,1606,1625,1645,1666,1685,1705,1727,1745,1767,1786,1806,1826,1845,1865,1886,1907,1927,1946,1967,1985,2006,2026,2047,2065,2085,2105,2126,2146,2166,2186,2206,2226,2246,2266,2285,2305,2327,2346,2365,2385,2406,2426,2445,2465,2486,2505,2526,2546,2566,2585,2605,2626,2646],"xSR":741.5,"ySR":573.95,"xT1":424.9,"yT1":0,"xT2":1058.1,"yT2":0,"toosoon":0,"cond_shown":"Congruent","ratio_trial":300,"L_num":7,"L_den":14,"R_num":20,"R_den":25,"correct_side":2,"subjID":"juanitapavamartinez17","gender":"1","school":"6","age":"11"},{"start_time":1551900021603,"click_time":1551900023366,"finger_time":1551900022907,"fix_duration":713.2575625352038,"trial":11,"RT":1304,"MT":459,"sideResp":2,"stimulus":[],"xmouse":[763,763,763,763,763,763,763,763,763,763,763,763,763,763,763,763,763,763,763,763,763,763,763,763,763,763,763,763,763,763,763,763,763,763,763,763,763,763,763,763,763,763,763,763,763,763,763,763,763,763,763,763,763,763,768,782,809,819,824,825,825,825,825,826,828,838,879,916,949,966,986,1037,1057,1070,1080,1085,1089,1089,1089,1089,1089,1089,1091,1092,1095,1097,1099,1100,1100],"ymouse":[642,642,642,642,642,642,642,642,642,642,642,642,642,642,642,642,642,642,642,642,642,642,642,642,642,642,642,642,642,642,642,642,642,642,642,642,642,642,642,642,642,642,642,642,642,642,642,642,642,642,642,642,642,641,635,619,594,586,583,582,582,582,582,582,578,563,502,450,401,367,342,256,224,200,184,175,162,161,159,159,159,157,153,149,141,133,115,105,97],"timestamp_mouse":[11,39,43,64,83,104,125,144,163,185,205,224,244,264,284,303,324,344,364,384,403,425,444,464,483,504,524,544,563,583,604,624,643,664,684,704,724,743,764,785,804,824,843,864,883,904,924,943,963,983,1003,1024,1044,1064,1083,1104,1123,1144,1163,1184,1204,1223,1244,1264,1284,1304,1323,1343,1363,1385,1405,1424,1444,1463,1483,1504,1525,1544,1563,1584,1604,1624,1645,1664,1683,1703,1724,1744,1763],"xSR":741.5,"ySR":573.95,"xT1":424.9,"yT1":0,"xT2":1058.1,"yT2":0,"toosoon":0,"cond_shown":"Incongruent","ratio_trial":200,"L_num":3,"L_den":4,"R_num":11,"R_den":20,"correct_side":1,"subjID":"juanitapavamartinez17","gender":"1","school":"6","age":"11"},{"start_time":1551900030281,"click_time":1551900032627,"finger_time":1551900032068,"fix_duration":853.1054941320393,"trial":12,"RT":1787,"MT":559,"sideResp":1,"stimulus":[],"xmouse":[811,811,811,811,811,811,811,811,811,811,811,811,811,811,811,811,811,811,811,811,811,811,811,811,811,811,811,811,811,811,811,811,811,811,811,811,811,811,811,811,811,811,811,811,811,811,811,811,811,811,811,811,811,811,811,811,811,811,811,811,811,811,811,811,811,811,811,811,811,811,811,811,811,811,811,811,811,811,811,811,811,811,811,811,811,811,811,794,783,776,772,770,769,765,758,748,736,706,696,692,685,681,666,656,639,624,608,593,593,593,593,593,593,590,584,572,554,508],"ymouse":[597,597,597,597,597,597,597,597,597,597,597,597,597,597,597,597,597,597,597,597,597,597,597,597,597,597,597,597,597,597,597,597,597,597,597,597,597,597,597,597,597,597,597,597,597,597,597,597,597,597,597,597,597,597,597,597,597,597,597,597,597,597,597,597,597,597,597,597,597,597,597,597,597,597,597,597,597,597,597,597,597,597,597,597,597,597,597,591,581,570,558,541,494,460,421,388,358,273,235,206,182,160,114,90,64,42,22,0,0,0,0,0,0,0,0,6,10,17],"timestamp_mouse":[10,34,45,65,87,106,125,145,166,186,206,225,246,265,285,307,327,346,366,385,406,425,445,465,486,505,525,547,565,585,606,625,646,667,686,707,726,745,767,786,806,826,845,867,886,906,925,945,966,986,1005,1026,1045,1066,1085,1105,1125,1146,1166,1185,1208,1226,1247,1265,1285,1306,1325,1345,1365,1387,1406,1426,1445,1466,1485,1507,1525,1545,1566,1585,1606,1625,1658,1667,1686,1707,1726,1745,1765,1787,1806,1825,1845,1865,1885,1906,1925,1945,1966,1985,2005,2026,2045,2066,2086,2105,2125,2146,2165,2186,2206,2226,2247,2266,2286,2307,2327,2346],"xSR":741.5,"ySR":573.95,"xT1":424.9,"yT1":0,"xT2":1058.1,"yT2":0,"toosoon":0,"cond_shown":"Incongruent","ratio_trial":100,"L_num":9,"L_den":10,"R_num":20,"R_den":25,"correct_side":1,"subjID":"juanitapavamartinez17","gender":"1","school":"6","age":"11"},{"start_time":1551900035760,"click_time":1551900038206,"finger_time":1551900037527,"fix_duration":250,"trial":13,"RT":1767,"MT":679,"sideResp":1,"stimulus":[],"xmouse":[792,792,792,792,792,792,792,792,792,792,792,792,792,792,792,792,792,792,792,792,792,792,792,792,792,792,792,792,792,792,792,792,792,792,792,792,792,792,792,792,792,792,792,792,792,792,792,792,792,792,792,792,792,792,792,792,792,792,792,792,792,792,792,792,792,792,792,792,792,792,792,792,792,792,792,792,792,792,792,792,792,793,794,802,805,806,807,807,803,799,793,789,785,774,771,769,765,759,742,733,722,702,658,604,587,571,557,550,547,547,547,547,547,547,546,546,542,537,533,530,527,525,520],"ymouse":[634,634,634,634,634,634,634,634,634,634,634,634,634,634,634,634,634,634,634,634,634,634,634,634,634,634,634,634,634,634,634,634,634,634,634,634,634,634,634,634,634,634,634,634,634,634,634,634,634,634,634,634,634,634,634,634,634,634,634,634,634,634,634,634,634,634,634,634,634,634,634,634,634,634,634,634,634,634,634,634,634,634,634,634,630,617,599,574,532,518,505,494,485,461,452,443,435,422,396,384,374,357,318,256,234,216,195,176,151,142,130,119,109,97,95,91,85,76,65,58,54,52,48],"timestamp_mouse":[8,39,47,66,87,106,128,146,167,187,207,226,247,266,288,307,326,346,368,387,406,427,447,466,487,506,527,548,567,586,606,628,647,667,686,706,727,747,767,786,806,828,846,867,886,908,926,948,968,987,1006,1027,1046,1067,1086,1107,1128,1146,1167,1186,1206,1226,1247,1267,1286,1307,1326,1346,1366,1386,1406,1428,1447,1467,1488,1506,1527,1548,1566,1587,1608,1626,1647,1666,1686,1707,1727,1747,1767,1787,1806,1826,1847,1867,1887,1906,1927,1947,1966,1987,2007,2027,2048,2066,2087,2107,2127,2146,2166,2187,2207,2228,2247,2267,2288,2308,2328,2348,2367,2388,2408,2428,2446],"xSR":741.5,"ySR":573.95,"xT1":424.9,"yT1":0,"xT2":1058.1,"yT2":0,"toosoon":0,"cond_shown":"Congruent","ratio_trial":300,"L_num":9,"L_den":10,"R_num":3,"R_den":5,"correct_side":1,"subjID":"juanitapavamartinez17","gender":"1","school":"6","age":"11"},{"start_time":1551900041228,"click_time":1551900043168,"finger_time":1551900042727,"fix_duration":1400.55342005267,"trial":14,"RT":1499,"MT":441,"sideResp":1,"stimulus":[],"xmouse":[771,771,771,771,771,771,771,771,771,771,771,771,771,771,771,771,771,771,771,771,771,771,771,771,771,771,771,771,771,771,771,771,771,771,771,771,771,771,771,771,771,771,771,771,771,771,771,771,771,771,771,771,771,771,771,771,771,771,771,771,771,771,771,771,771,771,771,771,771,773,777,780,787,791,791,791,788,786,785,785,784,784,781,778,770,766,759,758,739,656,615,579,546,531,519,517,516],"ymouse":[670,670,670,670,670,670,670,670,670,670,670,670,670,670,670,670,670,670,670,670,670,670,670,670,670,670,670,670,670,670,670,670,670,670,670,670,670,670,670,670,670,670,670,670,670,670,670,670,670,670,670,670,670,670,670,670,670,670,670,670,670,670,670,670,670,670,670,670,670,663,650,634,613,590,515,486,461,443,428,398,392,389,382,373,360,354,344,342,323,264,237,211,183,164,130,109,82],"timestamp_mouse":[21,38,59,79,98,120,139,158,178,200,220,238,259,279,298,319,338,359,379,399,419,438,460,478,498,518,539,558,579,599,618,639,658,679,699,719,739,760,779,798,820,838,859,878,899,919,938,960,979,999,1018,1039,1058,1079,1099,1119,1138,1158,1179,1200,1220,1238,1258,1278,1300,1318,1338,1358,1378,1398,1419,1439,1459,1479,1499,1518,1538,1558,1580,1599,1619,1639,1658,1679,1699,1720,1739,1758,1779,1798,1818,1839,1858,1878,1899,1919,1940],"xSR":741.5,"ySR":573.95,"xT1":424.9,"yT1":0,"xT2":1058.1,"yT2":0,"toosoon":0,"cond_shown":"Congruent","ratio_trial":200,"L_num":16,"L_den":20,"R_num":12,"R_den":20,"correct_side":1,"subjID":"juanitapavamartinez17","gender":"1","school":"6","age":"11"},{"start_time":1551900048903,"click_time":1551900052288,"finger_time":1551900051586,"fix_duration":294.61518096832265,"trial":15,"RT":2683,"MT":702,"sideResp":2,"stimulus":[],"xmouse":[772,772,772,772,772,772,772,772,772,772,772,772,772,772,772,772,772,772,772,772,772,772,772,772,772,772,772,772,772,772,772,772,772,772,772,772,772,772,772,772,772,772,772,772,772,772,772,772,772,772,772,772,772,772,772,772,772,772,772,772,772,772,772,772,772,772,772,772,772,772,772,772,772,772,772,772,772,772,772,772,772,772,772,772,772,772,772,772,772,772,772,772,772,772,772,772,772,772,772,772,772,772,772,772,772,772,772,772,772,772,772,772,772,772,772,772,772,772,772,772,772,772,772,772,772,772,772,772,772,772,772,772,774,777,779,779,780,780,780,780,780,781,783,786,793,800,829,846,862,875,886,898,901,913,927,941,984,999,1015,1024,1028,1035,1038,1043,1047,1053,1073,1081,1087,1087],"ymouse":[583,583,583,583,583,583,583,583,583,583,583,583,583,583,583,583,583,583,583,583,583,583,583,583,583,583,583,583,583,583,583,583,583,583,583,583,583,583,583,583,583,583,583,583,583,583,583,583,583,583,583,583,583,583,583,583,583,583,583,583,583,583,583,583,583,583,583,583,583,583,583,583,583,583,583,583,583,583,583,583,583,583,583,583,583,583,583,583,583,583,583,583,583,583,583,583,583,583,583,583,583,583,583,583,583,583,583,583,583,583,583,583,583,583,583,583,583,583,583,583,583,583,583,583,583,583,583,583,583,583,583,583,583,578,570,567,566,566,566,566,566,559,553,544,532,522,488,472,452,429,406,370,364,335,307,283,224,209,196,192,191,191,191,190,187,179,157,133,106,54],"timestamp_mouse":[8,23,44,64,84,103,123,143,164,183,203,224,244,263,285,304,324,343,363,384,405,424,443,464,483,505,524,544,564,584,603,625,644,665,684,705,724,744,763,784,804,823,843,864,883,904,924,944,964,984,1004,1024,1044,1072,1084,1104,1124,1143,1165,1184,1204,1224,1244,1263,1283,1305,1324,1344,1365,1384,1404,1423,1444,1463,1483,1504,1524,1543,1564,1584,1603,1623,1643,1664,1683,1704,1723,1744,1763,1784,1803,1824,1844,1864,1883,1904,1925,1944,1964,1983,2003,2024,2045,2064,2083,2104,2124,2145,2163,2184,2203,2224,2244,2264,2284,2305,2325,2344,2363,2384,2403,2424,2444,2463,2484,2504,2524,2543,2563,2583,2604,2624,2643,2663,2683,2704,2725,2743,2763,2783,2804,2824,2844,2863,2883,2904,2923,2944,2963,2983,3005,3024,3043,3063,3083,3103,3124,3144,3163,3184,3204,3225,3243,3263,3284,3304,3324,3344,3363,3385],"xSR":741.5,"ySR":573.95,"xT1":424.9,"yT1":0,"xT2":1058.1,"yT2":0,"toosoon":0,"cond_shown":"Congruent","ratio_trial":300,"L_num":1,"L_den":5,"R_num":6,"R_den":12,"correct_side":2,"subjID":"juanitapavamartinez17","gender":"1","school":"6","age":"11"},{"start_time":1551900055218,"click_time":1551900057408,"finger_time":1551900056726,"fix_duration":250,"trial":16,"RT":1508,"MT":682,"sideResp":1,"stimulus":[],"xmouse":[800,800,800,800,800,800,800,800,800,800,800,800,800,800,800,800,800,800,800,800,800,800,800,800,800,800,800,800,800,800,800,800,800,800,800,800,800,800,800,800,800,800,800,800,800,800,800,800,800,800,800,800,800,800,800,800,800,800,800,800,800,800,800,800,800,800,800,800,800,800,800,800,800,797,795,781,775,771,769,767,765,760,752,742,729,693,678,663,650,638,614,604,591,578,568,560,560,560,560,560,560,559,555,549,543,538,535,531,526,515],"ymouse":[616,616,616,616,616,616,616,616,616,616,616,616,616,616,616,616,616,616,616,616,616,616,616,616,616,616,616,616,616,616,616,616,616,616,616,616,616,616,616,616,616,616,616,616,616,616,616,616,616,616,616,616,616,616,616,616,616,616,616,616,616,616,616,616,616,616,616,616,616,616,616,616,616,616,611,564,539,514,492,468,421,404,385,360,331,260,238,212,187,164,69,19,0,0,0,0,0,0,0,0,0,9,20,29,37,43,45,46,48,50],"timestamp_mouse":[9,30,48,70,89,110,142,149,168,189,208,230,248,268,288,308,328,349,368,389,409,430,448,468,488,508,530,548,569,589,608,629,648,669,689,709,728,749,769,788,809,828,849,869,889,908,928,949,968,989,1008,1028,1049,1068,1089,1108,1129,1148,1169,1189,1209,1229,1249,1270,1289,1309,1328,1348,1368,1389,1410,1429,1448,1469,1489,1508,1530,1548,1568,1589,1608,1629,1649,1668,1689,1708,1729,1749,1769,1788,1808,1829,1848,1869,1889,1908,1928,1948,1968,1988,2010,2029,2049,2068,2089,2110,2128,2149,2168,2190],"xSR":741.5,"ySR":573.95,"xT1":424.9,"yT1":0,"xT2":1058.1,"yT2":0,"toosoon":0,"cond_shown":"Congruent","ratio_trial":300,"L_num":12,"L_den":24,"R_num":2,"R_den":10,"correct_side":1,"subjID":"juanitapavamartinez17","gender":"1","school":"6","age":"11"},{"start_time":1551900060744,"click_time":1551900064128,"finger_time":1551900062427,"fix_duration":834.2815676514456,"trial":17,"RT":1683,"MT":1701,"sideResp":2,"stimulus":[],"xmouse":[808,808,808,808,808,808,808,808,808,808,808,808,808,808,808,808,808,808,808,808,808,808,808,808,808,808,808,808,808,808,808,808,808,808,808,808,808,808,808,808,808,808,808,808,808,808,808,808,808,808,808,808,808,808,808,808,808,808,808,808,808,808,808,808,808,808,808,808,808,808,808,808,808,808,808,808,808,808,808,808,808,808,807,807,829,834,838,843,848,885,914,941,963,978,1001,1012,1022,1034,1044,1074,1086,1092,1096,1097,1097,1097,1097,1097,1097,1097,1097,1097,1097,1097,1097,1097,1097,1097,1097,1097,1097,1097,1097,1097,1097,1097,1097,1097,1097,1097,1097,1097,1097,1097,1097,1097,1097,1097,1097,1097,1097,1097,1097,1097,1097,1097,1097,1097,1097,1097,1097,1097,1097,1097,1097,1097,1097,1097,1097,1097,1097,1097,1097,1097,1097,1097,1097,1097,1097,1097],"ymouse":[621,621,621,621,621,621,621,621,621,621,621,621,621,621,621,621,621,621,621,621,621,621,621,621,621,621,621,621,621,621,621,621,621,621,621,621,621,621,621,621,621,621,621,621,621,621,621,621,621,621,621,621,621,621,621,621,621,621,621,621,621,621,621,621,621,621,621,621,621,621,621,621,621,621,621,621,621,621,621,621,621,621,620,610,524,494,463,442,420,292,220,160,111,74,21,4,0,0,0,0,0,0,0,0,0,0,0,0,0,0,0,0,0,0,0,0,0,0,0,0,0,0,0,0,0,0,0,0,0,0,0,0,0,0,0,0,0,0,0,0,0,0,0,0,0,0,0,0,0,0,0,0,0,0,0,0,0,0,0,0,0,0,0,0,0,0,0,0,0,7],"timestamp_mouse":[11,33,43,62,82,103,123,142,163,183,202,223,243,263,283,303,322,342,362,383,403,422,443,462,482,503,522,542,564,582,602,622,643,663,682,703,722,742,763,782,802,823,842,863,882,904,923,943,962,983,1003,1022,1042,1062,1083,1102,1123,1143,1162,1182,1203,1223,1242,1264,1283,1302,1322,1342,1364,1383,1402,1422,1442,1462,1483,1503,1523,1544,1562,1583,1603,1622,1642,1663,1683,1703,1722,1743,1763,1783,1802,1822,1842,1863,1882,1903,1922,1942,1962,1983,2002,2022,2042,2063,2082,2103,2123,2143,2162,2183,2203,2222,2243,2263,2284,2303,2322,2343,2362,2383,2403,2422,2443,2463,2482,2502,2522,2544,2564,2582,2602,2622,2643,2664,2683,2702,2722,2742,2762,2783,2803,2822,2843,2862,2882,2903,2923,2942,2963,2984,3003,3022,3043,3062,3083,3103,3122,3143,3163,3182,3202,3222,3242,3263,3283,3303,3324,3342,3362,3383],"xSR":741.5,"ySR":573.95,"xT1":424.9,"yT1":0,"xT2":1058.1,"yT2":0,"toosoon":0,"cond_shown":"Congruent","ratio_trial":100,"L_num":3,"L_den":20,"R_num":4,"R_den":16,"correct_side":2,"subjID":"juanitapavamartinez17","gender":"1","school":"6","age":"11"},{"start_time":1551900066716,"click_time":1551900068646,"finger_time":1551900068307,"fix_duration":1288.987103052018,"trial":18,"RT":1591,"MT":339,"sideResp":1,"stimulus":[],"xmouse":[788,788,788,788,788,788,788,788,788,788,788,788,788,788,788,788,788,788,788,788,788,788,788,788,788,788,788,788,788,788,788,788,788,788,788,788,788,788,788,788,788,788,788,788,788,788,788,788,788,788,788,788,788,788,788,788,788,788,788,788,788,788,788,788,788,788,788,788,788,788,788,788,788,788,788,788,785,779,769,753,708,694,686,682,680,675,672,667,659,650,625,614,599,584,567,527,518],"ymouse":[635,635,635,635,635,635,635,635,635,635,635,635,635,635,635,635,635,635,635,635,635,635,635,635,635,635,635,635,635,635,635,635,635,635,635,635,635,635,635,635,635,635,635,635,635,635,635,635,635,635,635,635,635,635,635,635,635,635,635,635,635,635,635,635,635,635,635,635,635,635,635,635,635,635,635,635,636,634,610,557,455,422,400,384,374,350,337,319,302,274,218,196,176,158,141,107,99],"timestamp_mouse":[10,30,51,71,90,111,130,151,172,191,211,231,250,271,290,311,332,351,372,391,411,430,451,471,490,511,530,551,571,591,611,630,652,670,691,710,731,750,770,790,812,830,850,871,890,912,930,950,971,992,1011,1031,1051,1072,1090,1111,1130,1152,1171,1190,1211,1231,1252,1271,1291,1311,1331,1350,1372,1391,1410,1430,1450,1470,1490,1510,1530,1550,1570,1591,1610,1630,1651,1670,1690,1710,1731,1751,1771,1790,1810,1830,1850,1870,1892,1911,1930],"xSR":741.5,"ySR":573.95,"xT1":424.9,"yT1":0,"xT2":1058.1,"yT2":0,"toosoon":0,"cond_shown":"Congruent","ratio_trial":200,"L_num":4,"L_den":8,"R_num":3,"R_den":10,"correct_side":1,"subjID":"juanitapavamartinez17","gender":"1","school":"6","age":"11"},{"start_time":1551900072338,"click_time":1551900074327,"finger_time":1551900073066,"fix_duration":250,"trial":19,"RT":728,"MT":1261,"sideResp":1,"stimulus":[],"xmouse":[801,801,801,801,801,801,801,800,800,800,800,800,800,799,799,799,799,799,799,799,799,798,798,798,798,798,798,798,797,797,797,797,797,797,799,802,805,810,817,829,835,841,845,850,860,865,870,875,880,888,893,900,907,916,935,940,942,942,942,942,942,942,942,942,942,942,942,942,942,937,927,911,896,878,836,818,800,781,767,756,754,753,749,741,713,695,676,655,635,599,588,582,577,576,575,573,566,556,545,512],"ymouse":[609,609,609,609,609,609,607,607,607,607,607,606,606,606,606,606,606,606,605,605,605,605,605,605,605,605,605,605,605,605,604,604,602,601,593,585,571,554,536,509,497,482,465,447,411,399,390,382,373,353,338,320,300,278,235,223,218,216,216,216,216,215,215,215,215,215,215,215,215,215,215,215,215,215,215,215,214,213,210,209,209,208,205,201,179,164,141,116,88,32,19,13,13,13,13,13,15,20,24,32],"timestamp_mouse":[8,28,56,69,89,109,128,148,169,188,209,228,248,269,290,309,328,349,369,389,408,428,448,468,490,508,528,549,568,588,608,628,649,668,688,708,728,749,768,789,808,828,849,869,888,908,928,950,968,989,1009,1029,1048,1069,1089,1108,1128,1148,1169,1190,1209,1230,1249,1269,1289,1309,1328,1348,1368,1388,1409,1428,1448,1468,1488,1509,1528,1548,1569,1589,1609,1628,1649,1668,1688,1709,1730,1749,1769,1788,1809,1828,1848,1869,1888,1908,1928,1949,1970,1989],"xSR":741.5,"ySR":573.95,"xT1":424.9,"yT1":0,"xT2":1058.1,"yT2":0,"toosoon":0,"cond_shown":"Congruent","ratio_trial":300,"L_num":1,"L_den":3,"R_num":19,"R_den":30,"correct_side":2,"subjID":"juanitapavamartinez17","gender":"1","school":"6","age":"11"},{"start_time":1551900076612,"click_time":1551900078406,"finger_time":1551900077987,"fix_duration":524.6954420667137,"trial":20,"RT":1375,"MT":419,"sideResp":1,"stimulus":[],"xmouse":[833,833,833,833,833,833,833,833,833,833,833,833,833,833,833,833,833,833,833,833,833,833,833,833,832,832,832,832,832,832,832,832,832,832,832,832,832,832,832,832,832,832,832,831,831,831,831,831,831,831,831,831,830,830,830,830,830,830,830,830,829,829,828,828,827,817,810,800,788,778,745,733,721,701,689,656,640,625,612,596,580,572,563,554,546,535,530,527,523,515],"ymouse":[623,623,623,622,622,622,622,622,622,622,622,622,622,622,622,622,622,622,622,622,622,622,622,622,620,620,620,620,620,620,620,620,620,620,620,620,620,620,620,620,620,620,620,620,620,620,620,620,620,620,619,619,618,618,618,618,618,618,618,618,618,617,616,614,612,602,592,581,569,553,499,476,455,427,408,362,342,325,309,288,270,259,248,236,221,183,162,141,120,98],"timestamp_mouse":[20,35,54,75,95,115,135,154,174,194,214,234,255,275,295,316,334,354,375,396,415,434,454,475,494,514,534,554,575,596,615,635,654,674,694,715,734,755,775,794,816,834,855,875,895,914,934,954,974,995,1014,1035,1054,1074,1096,1116,1135,1154,1175,1194,1214,1235,1254,1275,1296,1314,1335,1355,1375,1395,1414,1435,1454,1475,1494,1515,1535,1555,1576,1594,1614,1635,1654,1675,1696,1715,1735,1754,1774,1794],"xSR":741.5,"ySR":573.95,"xT1":424.9,"yT1":0,"xT2":1058.1,"yT2":0,"toosoon":0,"cond_shown":"Incongruent","ratio_trial":100,"L_num":6,"L_den":10,"R_num":11,"R_den":22,"correct_side":1,"subjID":"juanitapavamartinez17","gender":"1","school":"6","age":"11"},{"start_time":1551900080856,"click_time":1551900083686,"finger_time":1551900082147,"fix_duration":1148.188690637021,"trial":21,"RT":1291,"MT":1539,"sideResp":1,"stimulus":[],"xmouse":[778,778,778,778,778,778,778,778,777,777,777,777,777,776,776,775,775,775,775,775,775,775,775,775,775,775,775,774,773,773,773,772,772,771,771,771,770,770,770,770,770,770,770,770,770,770,770,770,770,770,770,770,770,770,770,769,768,768,767,767,766,765,762,747,733,715,696,676,641,631,625,619,616,606,601,596,593,587,581,579,579,579,579,579,579,579,579,578,581,582,583,584,586,590,593,597,602,603,603,605,605,605,605,605,605,605,605,605,605,605,605,604,603,601,599,597,595,592,584,578,572,566,564,563,563,563,562,559,542,533,523,511,497,475,471,470,470,471,472,472,473,473],"ymouse":[609,609,609,609,609,609,609,609,609,609,609,609,609,609,609,609,609,609,609,609,609,609,609,609,609,609,609,608,607,606,606,605,605,603,602,602,599,599,599,598,598,598,598,598,598,598,598,598,598,598,598,598,598,598,598,598,598,598,598,598,596,596,593,582,573,561,549,536,497,480,460,438,415,377,359,342,328,313,302,300,299,299,299,299,299,299,299,299,305,308,313,318,322,332,337,340,343,344,344,344,344,344,344,345,346,346,346,346,346,346,346,346,344,331,321,307,292,273,224,209,198,189,186,185,185,185,184,182,173,167,160,152,143,127,122,118,116,115,111,108,102,95],"timestamp_mouse":[11,37,50,72,92,111,130,150,171,190,210,231,251,271,290,311,330,350,370,391,410,432,450,471,490,511,530,551,571,590,610,630,650,670,690,712,730,751,771,790,811,830,850,870,891,910,930,951,971,990,1011,1031,1050,1072,1091,1111,1131,1152,1171,1190,1210,1232,1252,1271,1291,1310,1331,1350,1371,1390,1411,1430,1451,1470,1490,1512,1531,1550,1571,1590,1611,1631,1650,1671,1691,1710,1730,1751,1770,1790,1811,1830,1850,1871,1891,1910,1930,1950,1970,1991,2010,2031,2050,2070,2091,2111,2130,2150,2171,2190,2211,2231,2251,2271,2290,2310,2332,2351,2372,2390,2410,2431,2450,2470,2490,2510,2531,2551,2570,2591,2611,2630,2651,2670,2691,2711,2730,2751,2771,2791,2810,2830],"xSR":741.5,"ySR":573.95,"xT1":424.9,"yT1":0,"xT2":1058.1,"yT2":0,"toosoon":0,"cond_shown":"Incongruent","ratio_trial":300,"L_num":2,"L_den":4,"R_num":6,"R_den":30,"correct_side":1,"subjID":"juanitapavamartinez17","gender":"1","school":"6","age":"11"},{"start_time":1551900087401,"click_time":1551900089226,"finger_time":1551900088787,"fix_duration":674.2791667279645,"trial":22,"RT":1386,"MT":439,"sideResp":2,"stimulus":[],"xmouse":[794,794,794,794,794,794,794,794,794,794,794,794,794,794,794,794,794,794,794,794,794,794,794,794,794,794,794,794,794,794,794,794,794,794,794,794,794,794,794,794,794,794,794,794,794,794,794,794,794,794,794,794,794,794,794,794,794,794,794,794,794,794,794,794,794,794,804,813,823,836,848,896,925,951,976,993,1010,1010,1010,1010,1010,1010,1010,1010,1010,1010,1010,1010,1011,1020,1047,1083],"ymouse":[657,657,657,657,657,657,657,657,657,657,657,657,657,657,657,657,657,657,657,657,657,657,657,657,657,657,657,657,657,657,657,657,657,657,657,657,657,657,657,657,657,657,657,657,657,657,657,657,657,657,657,657,657,657,657,657,657,657,657,657,657,657,657,657,654,647,621,600,578,551,521,387,315,248,184,131,76,60,49,40,34,33,32,32,32,32,32,32,32,32,32,34],"timestamp_mouse":[11,39,46,65,85,106,125,145,166,185,206,225,245,265,285,305,326,346,366,386,406,426,445,465,487,506,526,546,567,586,606,626,645,665,686,706,725,746,766,786,805,825,846,865,885,906,926,945,965,986,1007,1027,1045,1065,1086,1106,1127,1145,1165,1185,1205,1226,1245,1266,1285,1305,1325,1346,1367,1386,1406,1426,1446,1465,1485,1506,1526,1545,1565,1585,1606,1625,1646,1667,1685,1705,1726,1746,1765,1786,1806,1825],"xSR":741.5,"ySR":573.95,"xT1":424.9,"yT1":0,"xT2":1058.1,"yT2":0,"toosoon":0,"cond_shown":"Congruent","ratio_trial":200,"L_num":13,"L_den":26,"R_num":14,"R_den":20,"correct_side":2,"subjID":"juanitapavamartinez17","gender":"1","school":"6","age":"11"},{"start_time":1551900093689,"click_time":1551900095686,"finger_time":1551900095007,"fix_duration":861.6268845185821,"trial":23,"RT":1318,"MT":679,"sideResp":2,"stimulus":[],"xmouse":[775,775,775,775,775,775,775,775,775,775,775,775,775,775,775,775,775,775,775,775,775,775,775,775,775,775,775,775,775,775,775,775,775,775,775,775,775,775,775,775,775,775,775,775,775,775,775,775,775,775,775,775,775,775,775,775,775,775,775,778,786,793,803,813,832,916,955,979,993,1005,1022,1031,1037,1046,1050,1053,1053,1053,1053,1053,1055,1057,1061,1065,1067,1069,1069,1069,1069,1069,1069,1069,1069,1069,1070,1072,1074,1078,1082],"ymouse":[658,658,658,658,658,658,658,658,658,658,658,658,658,658,658,658,658,658,658,658,658,658,658,658,658,658,658,658,658,658,658,658,658,658,658,658,658,658,658,658,658,658,658,658,658,658,658,658,658,658,658,658,658,658,658,658,658,658,658,652,640,624,605,583,547,410,364,331,306,281,234,216,199,185,174,166,166,166,166,166,160,153,147,142,138,134,134,134,134,134,134,133,132,131,128,122,114,101,88],"timestamp_mouse":[40,57,77,98,118,138,157,177,199,217,238,258,277,297,317,337,357,377,398,418,439,457,478,498,517,537,557,577,598,617,638,657,678,697,718,738,757,778,798,819,838,857,879,897,917,937,957,978,997,1018,1038,1058,1077,1098,1117,1139,1157,1177,1199,1218,1238,1258,1277,1297,1318,1338,1357,1377,1398,1417,1438,1458,1477,1497,1517,1537,1558,1579,1597,1618,1638,1658,1678,1697,1718,1739,1758,1778,1798,1818,1838,1858,1877,1897,1918,1937,1958,1978,1997],"xSR":741.5,"ySR":573.95,"xT1":424.9,"yT1":0,"xT2":1058.1,"yT2":0,"toosoon":0,"cond_shown":"Incongruent","ratio_trial":200,"L_num":14,"L_den":30,"R_num":6,"R_den":9,"correct_side":2,"subjID":"juanitapavamartinez17","gender":"1","school":"6","age":"11"},{"start_time":1551900099914,"click_time":1551900102026,"finger_time":1551900101306,"fix_duration":786.1941293570616,"trial":24,"RT":1392,"MT":720,"sideResp":2,"stimulus":[],"xmouse":[755,755,755,755,755,755,755,755,755,755,755,755,755,755,755,755,755,755,755,755,755,755,755,755,755,755,755,755,755,755,755,755,755,755,755,755,755,755,755,755,755,755,755,755,755,755,755,755,755,755,755,755,755,755,755,755,755,755,755,755,755,755,755,755,755,755,755,755,760,764,783,797,813,831,852,866,874,883,893,905,926,930,933,934,935,935,936,939,946,961,984,992,999,1001,1003,1011,1014,1020,1026,1033,1044,1048,1055,1062,1072,1091],"ymouse":[591,591,591,591,591,591,591,591,591,591,591,591,591,591,591,591,591,591,591,591,591,591,591,591,591,591,591,591,591,591,591,591,591,591,591,591,591,591,591,591,591,591,591,591,591,591,591,591,591,591,591,591,591,591,591,591,591,591,591,591,591,591,591,591,591,591,591,591,577,568,520,490,453,408,351,293,272,251,229,208,171,163,157,156,155,155,154,154,154,154,154,151,148,148,147,143,142,139,137,133,127,125,119,114,106,85],"timestamp_mouse":[13,32,53,73,92,112,132,153,173,192,213,232,253,273,292,312,333,352,373,393,413,432,453,474,493,512,532,553,574,592,613,632,653,673,693,713,733,752,774,793,813,832,854,873,893,913,933,953,972,993,1013,1032,1052,1073,1092,1113,1133,1152,1172,1193,1213,1232,1252,1273,1292,1313,1332,1352,1373,1392,1412,1433,1454,1473,1493,1512,1533,1552,1573,1592,1612,1633,1652,1673,1693,1713,1733,1752,1773,1793,1813,1832,1852,1872,1893,1912,1934,1952,1972,1993,2013,2032,2052,2073,2092,2112],"xSR":741.5,"ySR":573.95,"xT1":424.9,"yT1":0,"xT2":1058.1,"yT2":0,"toosoon":0,"cond_shown":"Incongruent","ratio_trial":300,"L_num":13,"L_den":26,"R_num":12,"R_den":15,"correct_side":2,"subjID":"juanitapavamartinez17","gender":"1","school":"6","age":"11"},{"start_time":1551900105998,"click_time":1551900107427,"finger_time":1551900107027,"fix_duration":250,"trial":25,"RT":1029,"MT":400,"sideResp":2,"stimulus":[],"xmouse":[832,832,832,832,832,832,832,832,832,832,832,832,832,832,832,832,832,832,832,832,832,832,832,832,832,832,832,832,832,832,832,832,832,832,832,832,832,832,832,832,832,832,832,832,832,832,832,832,832,832,832,843,855,866,878,890,909,917,923,930,935,955,965,975,986,996,1020,1029,1039,1052,1069,1100],"ymouse":[639,639,639,639,639,639,639,639,639,639,639,639,639,639,639,639,639,639,639,639,639,639,639,639,639,639,639,639,639,639,639,639,639,639,639,639,639,639,639,639,639,639,639,639,639,639,639,639,639,639,639,636,629,621,612,603,590,582,573,563,554,513,490,465,439,406,336,283,231,174,122,55],"timestamp_mouse":[9,34,48,69,88,108,128,149,168,189,208,229,248,268,289,310,329,348,368,388,410,428,448,468,489,509,530,548,569,588,609,629,648,669,690,710,729,748,770,788,809,829,849,868,888,909,929,949,970,989,1009,1029,1048,1070,1089,1108,1128,1149,1168,1189,1209,1228,1250,1269,1288,1308,1329,1349,1368,1388,1408,1429],"xSR":741.5,"ySR":573.95,"xT1":424.9,"yT1":0,"xT2":1058.1,"yT2":0,"toosoon":0,"cond_shown":"Incongruent","ratio_trial":200,"L_num":4,"L_den":30,"R_num":1,"R_den":3,"correct_side":2,"subjID":"juanitapavamartinez17","gender":"1","school":"6","age":"11"},{"start_time":1551900114780,"click_time":1551900116926,"finger_time":1551900116406,"fix_duration":472.64113243363903,"trial":26,"RT":1626,"MT":520,"sideResp":2,"stimulus":[],"xmouse":[762,762,762,762,762,762,762,762,762,762,762,762,762,762,762,762,762,762,762,762,762,762,762,762,762,762,762,762,762,762,762,762,762,762,762,762,762,762,762,762,762,762,762,762,762,762,762,762,762,762,762,762,762,762,762,762,762,762,762,762,762,762,762,762,762,762,762,762,762,762,762,762,762,762,762,762,762,763,773,788,801,813,850,867,881,895,909,935,947,958,966,976,1004,1020,1038,1054,1069,1081,1081,1081,1081,1081,1083,1083,1083,1083,1083,1083],"ymouse":[623,623,623,623,623,623,623,623,623,623,623,623,623,623,623,623,623,623,623,623,623,623,623,623,623,623,623,623,623,623,623,623,623,623,623,623,623,623,623,623,623,623,623,623,623,623,623,623,623,623,623,623,623,623,623,623,623,623,623,623,623,623,623,623,623,623,623,623,623,623,623,623,623,623,623,623,623,621,608,593,578,563,517,498,478,456,436,396,376,359,343,326,278,257,234,213,193,165,160,157,153,143,130,124,115,108,103,96],"timestamp_mouse":[15,26,46,67,86,107,126,146,166,186,207,227,247,266,286,306,326,348,366,386,407,426,447,467,487,507,527,546,566,586,606,628,647,666,687,707,727,748,766,786,806,828,846,866,887,906,927,947,967,986,1007,1027,1047,1066,1087,1106,1126,1147,1167,1186,1207,1227,1247,1267,1286,1306,1327,1346,1367,1386,1408,1426,1448,1466,1486,1507,1528,1547,1568,1587,1607,1626,1647,1667,1686,1707,1727,1747,1767,1786,1806,1827,1847,1866,1886,1908,1927,1946,1966,1986,2007,2027,2047,2067,2086,2106,2126,2146],"xSR":741.5,"ySR":573.95,"xT1":424.9,"yT1":0,"xT2":1058.1,"yT2":0,"toosoon":0,"cond_shown":"Congruent","ratio_trial":200,"L_num":6,"L_den":12,"R_num":7,"R_den":10,"correct_side":2,"subjID":"juanitapavamartinez17","gender":"1","school":"6","age":"11"},{"start_time":1551900118737,"click_time":1551900121546,"finger_time":1551900120107,"fix_duration":250,"trial":27,"RT":1370,"MT":1439,"sideResp":1,"stimulus":[],"xmouse":[786,786,786,786,786,786,786,786,786,786,786,786,786,786,786,786,786,786,786,786,786,786,786,786,786,786,786,786,786,786,786,786,786,786,786,786,786,786,786,786,786,786,786,786,786,786,786,786,786,786,786,786,786,786,786,786,786,786,786,786,786,786,786,786,786,786,786,789,792,800,804,809,811,813,818,819,821,822,823,825,826,826,827,827,827,827,827,827,827,827,828,828,828,828,828,828,828,828,828,828,828,828,829,829,840,846,856,868,887,934,953,971,986,999,1006,1007,1007,1009,1009,1014,1020,1024,1031,1034,1038,1038,1038,1038,1038,1038,1038,1038,1038,1034,988,925,858,787,718,579,521],"ymouse":[584,584,584,584,584,584,584,584,584,584,584,584,584,584,584,584,584,584,584,584,584,584,584,584,584,584,584,584,584,584,584,584,584,584,584,584,584,584,584,584,584,584,584,584,584,584,584,584,584,584,584,584,584,584,584,584,584,584,584,584,584,584,584,584,584,584,581,575,571,560,554,547,542,538,526,520,515,509,504,490,485,484,482,482,482,482,482,482,482,481,480,480,480,480,480,480,480,480,480,480,480,480,478,475,448,433,412,389,348,292,267,247,231,215,207,205,204,202,201,190,178,168,157,152,145,145,145,145,145,145,145,145,145,142,123,103,87,77,73,76,79],"timestamp_mouse":[11,37,48,69,90,108,129,150,169,188,209,229,250,269,289,309,328,348,369,390,409,428,449,470,489,509,529,549,568,590,609,628,648,669,690,708,730,748,769,788,808,829,848,869,889,909,929,949,969,989,1009,1028,1048,1069,1088,1110,1129,1148,1169,1190,1210,1228,1248,1270,1289,1308,1328,1349,1370,1389,1409,1428,1448,1469,1489,1509,1529,1550,1569,1588,1610,1628,1648,1669,1690,1708,1728,1749,1768,1788,1809,1828,1848,1870,1890,1909,1929,1949,1968,1989,2008,2029,2050,2069,2089,2108,2128,2148,2168,2188,2208,2228,2248,2268,2288,2308,2329,2349,2370,2389,2409,2428,2448,2468,2488,2508,2529,2550,2568,2589,2609,2628,2648,2669,2688,2709,2729,2748,2768,2789,2809],"xSR":741.5,"ySR":573.95,"xT1":424.9,"yT1":0,"xT2":1058.1,"yT2":0,"toosoon":0,"cond_shown":"Congruent","ratio_trial":100,"L_num":11,"L_den":22,"R_num":4,"R_den":10,"correct_side":1,"subjID":"juanitapavamartinez17","gender":"1","school":"6","age":"11"},{"start_time":1551900127362,"click_time":1551900129125,"finger_time":1551900128685,"fix_duration":1155.904979496605,"trial":28,"RT":1323,"MT":440,"sideResp":2,"stimulus":[],"xmouse":[786,786,786,786,786,786,786,786,786,786,786,786,786,786,786,786,786,786,786,786,786,786,786,786,786,786,786,786,786,786,786,786,786,786,786,786,786,786,786,786,786,786,786,786,786,786,786,786,786,786,786,786,786,786,786,786,786,786,786,786,786,786,786,786,787,787,787,788,794,804,816,832,852,872,880,889,895,901,910,917,926,937,958,976,990,1005,1022,1036,1066],"ymouse":[589,589,589,589,589,589,589,589,589,589,589,589,589,589,589,589,589,589,589,589,589,588,585,582,582,582,580,580,580,580,580,580,580,580,580,580,580,580,580,580,580,580,580,580,580,580,580,580,580,580,580,580,580,578,576,575,575,575,575,575,575,575,575,575,574,574,573,571,558,537,510,477,445,410,397,381,368,353,314,289,264,241,195,162,141,122,104,89,65],"timestamp_mouse":[9,32,44,63,83,103,123,143,165,183,204,223,244,263,283,304,323,343,363,384,404,423,444,464,483,504,524,545,564,583,603,624,644,664,683,704,723,745,764,783,803,825,843,864,883,903,924,944,964,983,1004,1023,1044,1063,1083,1103,1124,1143,1164,1183,1203,1223,1243,1263,1283,1304,1323,1343,1363,1385,1405,1424,1443,1464,1484,1504,1524,1545,1563,1584,1603,1624,1645,1663,1684,1703,1723,1745,1763],"xSR":741.5,"ySR":573.95,"xT1":424.9,"yT1":0,"xT2":1058.1,"yT2":0,"toosoon":0,"cond_shown":"Congruent","ratio_trial":300,"L_num":3,"L_den":12,"R_num":11,"R_den":20,"correct_side":2,"subjID":"juanitapavamartinez17","gender":"1","school":"6","age":"11"},{"start_time":1551900132501,"click_time":1551900134626,"finger_time":1551900133866,"fix_duration":973.6966124140475,"trial":29,"RT":1365,"MT":760,"sideResp":1,"stimulus":[],"xmouse":[804,804,804,804,804,804,804,804,804,804,804,804,804,804,804,804,804,804,804,804,804,804,804,804,804,804,804,804,804,804,804,804,804,804,804,804,804,804,804,804,804,804,804,804,804,804,804,804,804,804,804,804,804,804,804,804,804,804,804,804,804,804,804,804,804,801,767,749,732,721,712,705,705,705,705,705,703,697,688,676,662,614,587,563,535,513,472,470,470,470,470,470,470,470,470,470,470,470,470,470,470,470,470,470,470,470,470],"ymouse":[615,615,615,615,615,615,615,615,615,615,615,615,615,615,615,615,615,615,615,615,615,615,615,615,615,615,615,615,615,615,615,615,615,615,615,615,615,615,615,615,615,615,615,615,615,615,615,615,615,615,615,615,615,615,615,615,615,615,615,615,615,615,615,615,614,614,591,578,566,556,545,532,532,532,532,532,531,521,509,488,464,380,332,289,237,188,123,120,120,120,120,120,120,119,118,114,111,111,110,110,110,110,110,108,105,100,90],"timestamp_mouse":[10,39,45,64,84,106,126,144,166,185,204,226,245,264,285,306,324,344,365,386,406,425,444,464,484,505,524,544,564,585,605,625,645,666,686,705,726,744,765,784,804,826,844,864,885,905,925,944,965,984,1004,1025,1045,1065,1085,1104,1125,1146,1165,1184,1204,1225,1244,1264,1285,1306,1325,1345,1365,1384,1406,1425,1444,1464,1485,1505,1524,1545,1565,1584,1605,1626,1645,1664,1684,1705,1724,1745,1764,1784,1804,1825,1845,1865,1886,1906,1925,1944,1964,1985,2006,2025,2044,2064,2085,2106,2124],"xSR":741.5,"ySR":573.95,"xT1":424.9,"yT1":0,"xT2":1058.1,"yT2":0,"toosoon":0,"cond_shown":"Congruent","ratio_trial":300,"L_num":20,"L_den":25,"R_num":9,"R_den":18,"correct_side":1,"subjID":"juanitapavamartinez17","gender":"1","school":"6","age":"11"},{"start_time":1551900136535,"click_time":1551900138666,"finger_time":1551900138166,"fix_duration":988.044137074562,"trial":30,"RT":1631,"MT":500,"sideResp":2,"stimulus":[],"xmouse":[788,788,788,788,788,788,788,788,788,788,788,788,788,788,788,788,788,788,788,788,788,788,788,788,788,788,788,788,788,788,788,788,788,788,788,788,788,788,788,788,788,788,788,788,788,788,788,788,788,788,788,788,788,788,788,788,788,788,788,788,788,791,792,792,792,792,792,792,792,792,793,793,795,798,801,803,804,804,805,811,816,827,846,878,1008,1057,1108,1150,1186,1230,1241,1245,1248,1249,1249,1249,1249,1249,1249,1249,1248,1245,1236,1226,1184,1164,1145],"ymouse":[620,620,620,620,620,620,620,620,620,620,620,620,620,620,620,620,620,620,620,620,620,620,620,620,620,620,620,620,620,620,620,620,620,620,620,620,620,620,620,620,620,620,620,620,620,620,620,620,620,620,620,620,620,620,620,620,620,620,620,620,617,614,613,613,613,613,613,613,613,613,613,612,609,605,600,598,596,595,594,588,580,565,540,500,351,287,223,168,118,53,40,31,25,23,23,23,23,23,23,23,22,22,25,29,51,59,63],"timestamp_mouse":[11,36,51,70,90,111,132,150,172,190,210,232,251,270,290,311,330,351,372,392,410,430,451,471,490,511,530,551,571,591,610,631,651,671,691,711,730,750,772,791,811,830,851,871,890,910,932,951,971,990,1010,1030,1051,1072,1092,1110,1131,1151,1170,1192,1210,1230,1251,1270,1291,1310,1330,1350,1372,1398,1411,1430,1451,1470,1490,1510,1531,1552,1571,1590,1610,1631,1651,1672,1691,1710,1730,1751,1770,1791,1811,1831,1850,1870,1890,1912,1931,1950,1972,1992,2014,2031,2051,2072,2090,2111,2131],"xSR":741.5,"ySR":573.95,"xT1":424.9,"yT1":0,"xT2":1058.1,"yT2":0,"toosoon":0,"cond_shown":"Incongruent","ratio_trial":200,"L_num":6,"L_den":20,"R_num":3,"R_den":6,"correct_side":2,"subjID":"juanitapavamartinez17","gender":"1","school":"6","age":"11"},{"start_time":1551900140450,"click_time":1551900141947,"finger_time":1551900141805,"fix_duration":683.3071369267562,"trial":31,"RT":1355,"MT":142,"sideResp":2,"stimulus":[],"xmouse":[776,776,776,776,776,776,776,776,776,776,776,776,776,776,776,776,776,776,776,776,776,776,776,776,776,776,776,776,776,776,776,776,776,776,776,776,776,776,776,776,776,776,776,776,776,776,776,776,776,776,776,776,776,776,776,776,776,776,776,776,776,776,776,776,778,786,795,807,851,887,930,971,1010,1071,1096],"ymouse":[617,617,617,617,617,617,617,617,617,617,617,617,617,617,617,617,617,617,617,617,617,617,617,617,617,617,617,617,617,617,617,617,617,617,617,617,617,617,617,617,617,617,617,617,617,617,617,617,617,617,617,617,617,617,617,617,617,617,617,617,617,617,617,617,612,601,589,573,508,453,388,316,242,105,46],"timestamp_mouse":[15,41,56,76,95,116,135,156,176,196,216,237,256,276,295,315,336,355,376,395,416,437,456,475,495,515,535,556,575,595,615,637,656,676,695,716,735,755,776,796,815,837,856,877,895,915,935,956,976,996,1015,1035,1056,1075,1096,1115,1136,1155,1177,1196,1217,1236,1255,1276,1296,1316,1335,1355,1375,1396,1417,1436,1456,1476,1496],"xSR":741.5,"ySR":573.95,"xT1":424.9,"yT1":0,"xT2":1058.1,"yT2":0,"toosoon":0,"cond_shown":"Congruent","ratio_trial":200,"L_num":6,"L_den":20,"R_num":11,"R_den":22,"correct_side":2,"subjID":"juanitapavamartinez17","gender":"1","school":"6","age":"11"},{"start_time":1551900144842,"click_time":1551900147126,"finger_time":1551900146787,"fix_duration":1353.5072617859864,"trial":32,"RT":1945,"MT":339,"sideResp":2,"stimulus":[],"xmouse":[792,792,792,792,792,792,792,792,792,792,792,792,792,792,792,792,792,792,792,792,792,792,792,792,792,792,792,792,792,792,792,792,792,792,792,792,792,792,792,792,792,792,792,792,792,792,792,792,792,792,792,792,792,792,792,792,792,792,792,792,792,792,792,792,792,792,792,792,792,792,792,792,792,792,792,792,792,792,792,792,792,792,792,792,792,792,792,792,792,792,792,792,792,792,792,798,811,842,878,944,958,968,979,988,1003,1007,1010,1012,1017,1028,1036,1049,1061,1071,1084],"ymouse":[621,621,621,621,621,621,621,621,621,621,621,621,621,621,621,621,621,621,621,621,621,621,621,621,621,621,621,621,621,621,621,621,621,621,621,621,621,621,621,621,621,621,621,621,621,621,621,621,621,621,621,621,621,621,621,621,621,621,621,621,621,621,621,621,621,621,621,621,621,621,621,621,621,621,621,621,621,621,621,621,621,621,621,621,621,621,621,621,621,621,621,621,621,621,621,601,575,508,446,309,276,253,231,215,194,189,185,182,173,158,148,132,115,101,84],"timestamp_mouse":[13,35,43,63,84,105,123,143,163,185,203,224,245,264,284,303,324,345,364,384,403,424,444,464,483,503,524,545,564,584,604,625,644,663,684,703,725,745,764,785,803,824,844,863,883,904,923,945,963,984,1003,1024,1043,1064,1084,1104,1125,1144,1165,1184,1203,1223,1243,1264,1285,1304,1323,1343,1364,1384,1405,1424,1444,1463,1485,1503,1523,1543,1563,1585,1604,1624,1644,1664,1685,1703,1723,1745,1765,1784,1803,1825,1844,1864,1884,1903,1923,1945,1965,1984,2004,2023,2044,2064,2084,2104,2123,2144,2163,2183,2204,2223,2244,2264,2284],"xSR":741.5,"ySR":573.95,"xT1":424.9,"yT1":0,"xT2":1058.1,"yT2":0,"toosoon":0,"cond_shown":"Congruent","ratio_trial":100,"L_num":4,"L_den":10,"R_num":15,"R_den":30,"correct_side":2,"subjID":"juanitapavamartinez17","gender":"1","school":"6","age":"11"},{"start_time":1551900149497,"click_time":1551900151506,"finger_time":1551900150926,"fix_duration":250,"trial":33,"RT":1429,"MT":580,"sideResp":2,"stimulus":[],"xmouse":[786,786,786,786,786,786,786,786,786,786,786,786,786,786,786,786,786,786,786,786,786,786,786,786,786,786,786,786,786,786,786,786,786,786,786,786,786,786,786,786,786,786,786,786,786,786,786,786,786,786,786,786,786,786,786,786,786,786,786,786,786,786,786,786,786,786,786,786,786,786,786,794,800,809,816,828,842,849,855,861,865,873,878,883,889,894,912,921,929,938,943,952,954,955,958,969,997,1019,1037,1051,1059],"ymouse":[625,625,625,625,625,625,625,625,625,625,625,625,625,625,625,625,625,625,625,625,625,625,625,625,625,625,625,625,625,625,625,625,625,625,625,625,625,625,625,625,625,625,625,625,625,625,625,625,625,625,625,625,625,625,625,625,625,625,625,625,625,625,625,625,625,625,625,625,625,625,619,572,543,508,479,440,402,385,373,362,356,345,339,330,322,312,271,256,238,225,215,206,204,202,197,182,141,111,84,64,51],"timestamp_mouse":[11,42,50,68,88,108,130,148,169,189,208,229,249,269,288,309,329,348,368,390,409,428,450,469,489,508,529,550,569,588,608,629,649,669,688,708,728,749,769,788,808,829,848,868,888,910,928,949,969,989,1008,1029,1048,1069,1088,1110,1130,1149,1170,1188,1209,1228,1249,1268,1288,1308,1328,1350,1370,1389,1408,1429,1449,1468,1490,1508,1528,1549,1568,1588,1608,1628,1650,1670,1688,1708,1728,1749,1768,1788,1808,1828,1849,1869,1888,1909,1928,1948,1969,1988,2009],"xSR":741.5,"ySR":573.95,"xT1":424.9,"yT1":0,"xT2":1058.1,"yT2":0,"toosoon":0,"cond_shown":"Congruent","ratio_trial":100,"L_num":4,"L_den":8,"R_num":6,"R_den":10,"correct_side":2,"subjID":"juanitapavamartinez17","gender":"1","school":"6","age":"11"},{"start_time":1551900154683,"click_time":1551900156206,"finger_time":1551900155845,"fix_duration":795.1049782773221,"trial":34,"RT":1162,"MT":361,"sideResp":2,"stimulus":[],"xmouse":[801,801,801,801,801,801,801,801,801,801,801,801,801,801,801,801,801,801,801,801,801,801,801,801,801,801,801,801,801,801,801,801,801,801,801,801,801,801,801,801,801,803,813,820,822,822,822,822,822,822,822,822,822,822,822,822,823,835,846,865,886,912,972,998,1017,1031,1043,1064,1067,1072,1075,1078,1084,1088,1091,1095,1100],"ymouse":[576,576,576,576,576,576,576,576,576,576,576,576,576,576,576,576,576,576,576,576,576,576,576,576,576,576,576,576,576,576,576,576,576,576,576,576,576,576,576,576,576,577,582,585,586,586,586,586,586,586,586,586,586,586,586,586,586,576,566,549,527,493,417,380,352,329,305,254,236,219,201,184,146,129,117,106,93],"timestamp_mouse":[10,23,43,63,84,103,122,143,162,183,203,223,244,263,282,302,323,342,362,383,402,424,444,463,482,504,523,543,562,584,602,623,644,663,684,703,723,742,762,783,804,823,842,862,883,903,923,943,962,983,1002,1023,1043,1063,1082,1103,1123,1143,1162,1182,1203,1222,1243,1263,1282,1303,1324,1342,1363,1383,1404,1424,1442,1463,1482,1502,1523],"xSR":741.5,"ySR":573.95,"xT1":424.9,"yT1":0,"xT2":1058.1,"yT2":0,"toosoon":0,"cond_shown":"Incongruent","ratio_trial":300,"L_num":13,"L_den":26,"R_num":12,"R_den":15,"correct_side":2,"subjID":"juanitapavamartinez17","gender":"1","school":"6","age":"11"},{"start_time":1551900161683,"click_time":1551900163886,"finger_time":1551900163086,"fix_duration":1355.4785485792079,"trial":35,"RT":1403,"MT":800,"sideResp":1,"stimulus":[],"xmouse":[810,810,810,810,810,810,809,807,807,807,807,807,807,807,807,807,807,807,807,807,807,807,807,807,807,807,807,807,807,807,807,807,807,807,807,807,807,807,807,807,807,807,807,807,807,807,807,807,807,807,807,807,807,807,807,807,807,807,807,807,807,807,807,807,807,807,807,805,801,792,775,752,691,669,653,643,628,610,604,598,593,587,567,556,542,527,508,455,433,414,402,399,398,398,398,398,398,400,403,405,408,411,415,416,417,417,417,417,418,420,427],"ymouse":[580,580,580,581,583,585,586,591,591,591,591,591,591,591,591,591,591,591,591,591,591,591,591,591,591,591,591,591,591,591,591,591,591,591,591,591,591,591,591,591,591,591,591,591,591,591,591,591,591,591,591,591,591,591,591,591,591,591,591,591,591,591,591,591,591,591,591,591,590,584,571,556,501,480,463,447,424,392,379,366,356,340,302,280,254,229,199,141,122,107,98,94,94,94,94,92,89,85,81,78,75,72,69,67,67,67,67,67,67,67,66],"timestamp_mouse":[10,23,42,63,82,103,124,143,164,182,202,223,243,264,282,302,322,344,363,383,404,422,443,464,482,504,523,543,562,582,603,623,643,662,683,702,722,744,764,782,802,824,844,862,883,904,922,943,962,983,1003,1022,1043,1063,1082,1102,1123,1143,1163,1182,1204,1223,1243,1262,1283,1303,1323,1342,1363,1383,1403,1423,1443,1462,1482,1503,1523,1544,1563,1582,1602,1622,1642,1663,1684,1703,1722,1742,1762,1782,1803,1823,1842,1862,1882,1903,1923,1943,1962,1982,2002,2022,2042,2063,2083,2103,2124,2144,2163,2183,2202],"xSR":741.5,"ySR":573.95,"xT1":424.9,"yT1":0,"xT2":1058.1,"yT2":0,"toosoon":0,"cond_shown":"Incongruent","ratio_trial":300,"L_num":3,"L_den":6,"R_num":4,"R_den":20,"correct_side":1,"subjID":"juanitapavamartinez17","gender":"1","school":"6","age":"11"},{"start_time":1551900170476,"click_time":1551900172125,"finger_time":1551900171566,"fix_duration":250,"trial":36,"RT":1090,"MT":559,"sideResp":2,"stimulus":[],"xmouse":[753,753,753,753,753,753,753,753,753,753,753,753,753,753,753,753,753,753,753,753,753,753,753,753,753,753,753,753,753,753,753,753,753,753,753,753,753,753,753,753,753,753,753,753,753,753,753,753,753,753,753,753,753,759,769,800,817,859,874,889,905,922,954,982,1005,1035,1067,1118,1135,1151,1166,1179,1191,1192,1193,1193,1193,1193,1193,1185,1167,1149,1116],"ymouse":[585,585,585,585,585,585,585,585,585,585,585,585,585,585,585,585,585,585,585,585,585,585,585,585,585,585,585,585,585,585,585,585,585,585,585,585,585,585,585,585,585,585,585,585,585,585,585,585,585,585,585,585,585,578,570,542,522,483,470,457,443,426,386,354,328,298,265,213,193,174,158,146,134,131,128,124,122,122,121,114,106,101,85],"timestamp_mouse":[11,33,50,70,91,109,130,150,171,190,210,229,250,270,289,309,330,351,370,389,410,429,449,469,491,510,529,550,569,590,610,629,650,671,690,709,730,750,771,789,810,829,850,871,889,910,930,949,969,989,1011,1030,1050,1071,1090,1109,1129,1149,1169,1190,1210,1229,1249,1270,1289,1309,1331,1350,1370,1389,1409,1430,1450,1470,1489,1510,1530,1550,1569,1589,1609,1629,1649],"xSR":741.5,"ySR":573.95,"xT1":424.9,"yT1":0,"xT2":1058.1,"yT2":0,"toosoon":0,"cond_shown":"Incongruent","ratio_trial":100,"L_num":10,"L_den":25,"R_num":8,"R_den":16,"correct_side":2,"subjID":"juanitapavamartinez17","gender":"1","school":"6","age":"11"},{"start_time":1551900175956,"click_time":1551900177386,"finger_time":1551900176825,"fix_duration":1169.6937528939682,"trial":37,"RT":869,"MT":561,"sideResp":1,"stimulus":[],"xmouse":[766,766,766,766,766,766,766,766,766,766,766,766,766,766,766,766,766,766,766,766,766,766,766,766,766,766,766,766,766,766,766,766,766,766,766,766,766,766,766,765,764,760,755,739,731,722,712,698,661,645,633,626,616,605,603,601,598,595,583,576,567,560,552,547,544,542,541,538,535,531,528,524],"ymouse":[612,612,612,612,612,612,612,612,612,612,612,612,612,612,612,612,612,612,612,612,612,612,612,612,612,612,612,612,612,612,612,612,612,612,612,612,612,612,612,612,609,600,592,572,559,548,535,518,474,454,435,422,406,386,380,373,363,351,320,305,281,257,235,209,202,196,185,169,127,107,85,62],"timestamp_mouse":[11,36,49,70,89,110,130,149,170,190,209,229,249,270,290,309,329,349,369,389,409,429,450,470,489,509,530,550,570,589,609,629,651,670,689,709,729,749,771,790,810,830,850,869,890,909,930,950,969,990,1010,1030,1049,1070,1090,1110,1130,1150,1170,1190,1209,1229,1250,1270,1289,1309,1329,1349,1370,1390,1411,1430],"xSR":741.5,"ySR":573.95,"xT1":424.9,"yT1":0,"xT2":1058.1,"yT2":0,"toosoon":0,"cond_shown":"Congruent","ratio_trial":300,"L_num":4,"L_den":5,"R_num":2,"R_den":4,"correct_side":1,"subjID":"juanitapavamartinez17","gender":"1","school":"6","age":"11"},{"start_time":1551900180665,"click_time":1551900182667,"finger_time":1551900181907,"fix_duration":716.6004644113498,"trial":38,"RT":1242,"MT":760,"sideResp":2,"stimulus":[],"xmouse":[772,772,772,772,772,772,772,772,772,772,772,772,772,772,772,772,772,772,772,772,772,772,772,772,772,772,772,772,772,772,772,772,772,772,772,772,772,772,772,772,772,772,772,772,769,766,766,766,766,766,766,766,766,766,766,766,766,766,778,795,802,807,813,829,844,867,898,931,986,1017,1034,1038,1040,1040,1040,1041,1041,1043,1052,1055,1058,1061,1062,1069,1070,1072,1074,1075,1086,1091,1097,1102,1104,1107,1107,1109,1109,1111,1120,1126,1132],"ymouse":[633,633,633,633,633,633,633,633,633,633,633,633,633,633,633,633,633,633,633,633,633,633,633,633,633,633,633,633,633,633,633,633,633,633,633,633,633,633,633,633,633,633,633,633,634,634,634,634,634,634,634,634,634,634,634,634,634,634,613,592,582,574,561,531,504,464,418,373,312,289,277,273,273,273,273,272,272,270,257,253,248,242,238,227,224,222,219,216,192,182,172,164,158,151,147,145,143,139,116,103,94],"timestamp_mouse":[9,21,41,62,81,102,121,142,161,181,201,221,242,261,281,301,321,341,362,382,401,423,442,462,481,502,521,542,562,582,601,621,641,661,681,702,721,742,762,782,801,822,842,862,881,903,921,942,961,982,1001,1021,1043,1061,1081,1101,1121,1141,1161,1181,1201,1222,1242,1262,1281,1301,1322,1341,1363,1382,1401,1422,1442,1462,1481,1501,1521,1542,1562,1581,1601,1621,1641,1662,1681,1701,1722,1741,1762,1782,1801,1821,1842,1861,1881,1901,1921,1941,1962,1982,2002],"xSR":741.5,"ySR":573.95,"xT1":424.9,"yT1":0,"xT2":1058.1,"yT2":0,"toosoon":0,"cond_shown":"Incongruent","ratio_trial":100,"L_num":8,"L_den":20,"R_num":1,"R_den":2,"correct_side":2,"subjID":"juanitapavamartinez17","gender":"1","school":"6","age":"11"},{"start_time":1551900186617,"click_time":1551900188726,"finger_time":1551900187387,"fix_duration":1249.124798347274,"trial":39,"RT":770,"MT":1339,"sideResp":1,"stimulus":[],"xmouse":[750,750,750,750,750,750,750,750,750,750,750,750,750,750,750,750,750,750,750,750,750,750,750,750,750,750,750,750,750,750,750,750,750,750,750,750,754,755,758,761,762,762,762,762,762,762,762,762,762,760,748,743,738,735,727,717,717,717,717,717,717,717,717,717,717,717,717,717,717,717,717,717,717,717,717,717,717,717,717,716,704,677,645,612,598,567,565,565,565,565,565,565,565,565,565,562,562,562,561,559,555,552,547,544,540,513],"ymouse":[594,594,594,594,594,594,594,594,594,594,594,594,594,594,594,594,594,594,594,594,594,594,594,594,594,594,594,594,594,594,594,594,594,594,594,594,592,581,560,547,532,528,522,518,514,509,507,505,501,495,477,470,464,461,457,452,452,452,452,452,452,452,452,452,452,452,452,452,452,452,452,452,452,452,452,452,452,452,452,445,356,256,153,63,27,0,0,0,0,0,0,0,0,0,0,7,13,17,20,25,30,33,35,36,37,38],"timestamp_mouse":[11,40,49,70,89,110,129,149,169,190,210,230,249,269,289,310,330,349,369,389,409,430,450,469,489,509,530,549,570,590,610,629,650,670,690,709,729,750,770,789,809,829,849,869,889,909,929,950,969,990,1010,1029,1050,1069,1090,1110,1129,1150,1169,1189,1210,1229,1249,1269,1290,1309,1330,1349,1370,1389,1410,1429,1450,1469,1491,1509,1530,1550,1569,1590,1610,1630,1649,1669,1689,1709,1729,1750,1769,1790,1810,1829,1850,1870,1890,1910,1929,1949,1969,1990,2009,2029,2050,2070,2090,2109],"xSR":741.5,"ySR":573.95,"xT1":424.9,"yT1":0,"xT2":1058.1,"yT2":0,"toosoon":0,"cond_shown":"Incongruent","ratio_trial":300,"L_num":1,"L_den":2,"R_num":2,"R_den":10,"correct_side":1,"subjID":"juanitapavamartinez17","gender":"1","school":"6","age":"11"},{"start_time":1551900191718,"click_time":1551900194007,"finger_time":1551900193206,"fix_duration":250,"trial":40,"RT":1488,"MT":801,"sideResp":2,"stimulus":[],"xmouse":[783,783,783,783,783,783,783,783,783,783,783,783,783,783,783,783,783,783,783,783,783,783,783,783,783,783,783,783,783,783,783,783,783,783,783,783,783,783,783,783,783,783,783,783,783,783,783,783,783,783,783,783,783,783,783,783,783,783,783,783,783,783,783,783,783,783,783,783,783,783,783,786,798,827,935,1117,1195,1247,1282,1298,1323,1331,1339,1344,1349,1357,1357,1351,1342,1330,1296,1278,1256,1239,1228,1225,1225,1225,1224,1223,1217,1208,1200,1193,1188,1180,1180,1180,1180,1178,1173,1172,1170,1166,1153],"ymouse":[640,640,640,640,640,640,640,640,640,640,640,640,640,640,640,640,640,640,640,640,640,640,640,640,640,640,640,640,640,640,640,640,640,640,640,640,640,640,640,640,640,640,640,640,640,640,640,640,640,640,640,640,640,640,640,640,640,640,640,640,640,640,640,640,640,640,640,640,640,640,640,637,627,613,567,464,415,376,349,334,302,282,264,250,235,195,181,168,158,148,130,124,118,116,115,115,115,115,115,114,106,97,90,83,79,67,64,61,58,52,43,42,42,42,40],"timestamp_mouse":[8,28,48,68,89,108,128,149,170,189,209,228,249,268,288,308,328,348,369,389,409,429,448,469,488,509,528,549,568,588,609,628,648,669,689,708,729,748,769,789,808,828,848,868,889,908,929,948,970,988,1009,1029,1048,1068,1089,1108,1128,1149,1168,1188,1209,1228,1248,1268,1288,1308,1328,1349,1369,1389,1409,1428,1449,1468,1488,1508,1529,1548,1569,1588,1609,1628,1648,1669,1689,1709,1728,1749,1768,1788,1808,1828,1848,1868,1888,1908,1928,1948,1968,1989,2009,2028,2048,2068,2088,2109,2129,2148,2168,2189,2208,2229,2248,2269,2289],"xSR":741.5,"ySR":573.95,"xT1":424.9,"yT1":0,"xT2":1058.1,"yT2":0,"toosoon":0,"cond_shown":"Incongruent","ratio_trial":100,"L_num":8,"L_den":16,"R_num":6,"R_den":10,"correct_side":2,"subjID":"juanitapavamartinez17","gender":"1","school":"6","age":"11"},{"start_time":1551900196900,"click_time":1551900199166,"finger_time":1551900198367,"fix_duration":993.459888819712,"trial":41,"RT":1467,"MT":799,"sideResp":1,"stimulus":[],"xmouse":[835,835,835,835,835,835,835,835,835,835,835,835,835,835,835,835,835,835,835,835,835,835,835,835,835,835,835,835,835,835,835,835,835,835,835,835,835,835,835,835,835,835,835,835,835,835,835,835,835,835,835,835,835,835,835,835,835,835,835,835,835,835,835,835,835,835,835,835,835,835,835,835,834,811,774,731,690,682,674,667,662,658,657,655,652,651,649,643,638,631,624,611,603,597,589,576,565,560,558,557,557,557,557,557,557,557,557,552,549,546,542,529,523,520],"ymouse":[616,616,616,616,616,616,616,616,616,616,616,616,616,616,616,616,616,616,616,616,616,616,616,616,616,616,616,616,616,616,616,616,616,616,616,616,616,616,616,616,616,616,616,616,616,616,616,616,616,616,616,616,616,616,616,616,616,616,616,616,616,616,616,616,616,616,616,616,616,616,616,616,590,506,382,272,208,203,196,190,186,181,178,173,169,168,163,157,153,147,141,132,128,125,120,115,111,108,108,107,107,107,107,107,107,107,107,106,104,103,102,101,100,99],"timestamp_mouse":[15,38,48,66,87,106,127,147,166,187,207,228,246,266,286,307,327,346,367,388,406,427,447,466,487,507,528,547,567,587,607,627,648,666,686,706,727,746,766,786,807,828,846,866,886,906,927,946,966,987,1006,1026,1047,1066,1087,1106,1126,1146,1167,1187,1207,1227,1246,1268,1287,1307,1327,1346,1366,1386,1406,1426,1447,1467,1486,1507,1526,1547,1567,1587,1607,1627,1646,1667,1687,1707,1727,1746,1766,1786,1806,1827,1846,1866,1887,1907,1926,1946,1966,1986,2006,2027,2046,2066,2087,2106,2127,2147,2166,2186,2206,2227,2248,2266],"xSR":741.5,"ySR":573.95,"xT1":424.9,"yT1":0,"xT2":1058.1,"yT2":0,"toosoon":0,"cond_shown":"Incongruent","ratio_trial":100,"L_num":3,"L_den":9,"R_num":7,"R_den":30,"correct_side":1,"subjID":"juanitapavamartinez17","gender":"1","school":"6","age":"11"},{"start_time":1551900201618,"click_time":1551900203646,"finger_time":1551900203087,"fix_duration":1190.3535422080