[{"start_time":1551901453067,"click_time":1551901459628,"finger_time":1551901453077,"fix_duration":355.8901078073178,"trial":0,"RT":10,"MT":6551,"sideResp":2,"stimulus":"img/750/equaldotanddens/L/10_Ratio_750_L_4_R_3.png","xmouse":[809,809,809,809,809,809,809,809,809,809,809,809,809,809,809,809,809,809,809,809,809,809,809,809,809,809,809,809,809,809,809,809,809,809,809,809,809,809,809,809,809,809,809,809,809,809,809,809,809,809,809,809,809,809,809,807,805,805,805,805,805,805,805,805,805,805,804,804,804,804,804,804,804,803,803,803,803,803,803,803,803,803,803,803,803,803,803,803,803,803,803,803,803,803,803,803,803,803,803,803,803,803,803,803,803,803,803,803,803,803,803,803,803,803,803,803,803,803,803,803,803,803,803,803,803,803,803,803,803,803,803,803,803,803,803,803,803,803,803,803,803,803,803,803,803,803,803,803,803,803,803,803,803,803,803,803,803,803,803,803,803,803,803,803,803,803,803,803,803,803,803,803,803,803,803,803,803,803,803,803,803,803,803,803,803,803,803,803,803,803,803,803,803,803,803,803,803,803,803,803,803,803,803,803,803,803,803,803,803,803,803,803,803,803,803,803,803,803,803,803,803,803,803,803,803,803,803,803,803,803,803,803,803,803,803,803,803,803,803,803,803,803,803,803,803,803,803,803,803,803,803,803,803,803,803,803,803,803,803,803,803,803,803,803,803,803,803,803,803,803,803,803,803,803,803,803,803,803,803,803,803,803,803,803,803,803,803,803,803,803,803,803,803,803,803,803,803,803,803,803,803,803,803,805,811,823,900,934,964,986,1001,1009,1029,1046,1063,1092,1124,1132,1136,1137,1137,1137,1137,1138,1141,1147,1149,1150,1150],"ymouse":[503,503,503,503,503,503,503,503,503,503,503,503,503,503,503,503,503,503,503,503,503,503,503,503,503,503,503,503,503,503,503,503,503,503,503,503,503,503,503,503,503,503,503,503,503,503,503,503,503,503,503,503,503,503,503,519,538,557,559,559,559,559,559,560,563,570,584,587,588,588,588,588,588,589,589,590,591,591,591,591,591,591,591,591,591,591,591,591,591,591,591,591,591,591,591,591,591,591,591,591,591,591,591,591,591,591,591,591,591,591,591,591,591,591,591,591,591,591,591,591,591,591,591,591,591,591,591,591,591,591,591,591,591,591,591,591,591,591,591,591,591,591,591,591,591,591,591,591,591,591,591,591,591,591,591,591,591,591,591,591,591,591,591,591,591,591,591,591,591,591,591,591,591,591,591,591,591,591,591,591,591,591,591,591,591,591,591,591,591,591,591,591,591,591,591,591,591,591,591,591,591,591,591,591,591,591,591,591,591,591,591,591,591,591,591,591,591,591,591,591,591,591,591,591,591,591,591,591,591,591,591,591,591,591,591,591,591,591,591,591,591,591,591,591,591,591,591,591,591,591,591,591,591,591,591,591,591,591,591,591,591,591,591,591,591,591,591,591,591,591,591,591,591,591,591,591,591,591,591,591,591,591,591,591,591,591,591,591,591,591,591,591,591,591,591,591,591,591,591,591,591,591,591,591,583,571,449,390,353,324,309,301,281,267,252,220,172,153,144,142,142,142,142,140,131,110,101,100,99],"timestamp_mouse":[10,21,40,61,80,100,120,139,161,180,200,220,241,260,281,300,320,340,361,380,400,420,440,460,480,501,521,540,560,580,600,620,640,661,680,700,721,741,760,780,800,821,840,861,881,900,921,940,961,981,1000,1021,1040,1060,1081,1100,1120,1140,1161,1181,1200,1220,1239,1260,1281,1300,1321,1340,1361,1380,1401,1420,1439,1461,1480,1501,1521,1540,1561,1581,1600,1621,1640,1660,1680,1700,1720,1740,1760,1780,1801,1821,1840,1861,1880,1901,1921,1940,1960,1980,2001,2020,2040,2060,2081,2101,2120,2140,2159,2180,2201,2220,2240,2261,2280,2301,2321,2340,2361,2380,2400,2421,2440,2460,2480,2500,2520,2540,2560,2580,2600,2620,2640,2661,2681,2700,2720,2740,2760,2780,2800,2821,2840,2860,2880,2901,2921,2940,2960,2981,3001,3020,3040,3060,3080,3100,3121,3140,3161,3180,3200,3220,3240,3261,3281,3300,3321,3340,3361,3381,3401,3421,3441,3460,3480,3500,3521,3540,3560,3580,3600,3621,3640,3661,3681,3700,3720,3740,3761,3780,3801,3821,3840,3860,3880,3900,3920,3940,3960,3980,4001,4020,4040,4060,4081,4101,4121,4140,4161,4181,4201,4220,4240,4261,4280,4300,4321,4340,4361,4381,4400,4420,4441,4461,4480,4500,4520,4540,4560,4581,4601,4620,4640,4660,4680,4701,4720,4740,4760,4781,4801,4820,4840,4860,4881,4901,4921,4941,4960,4980,5001,5020,5040,5060,5080,5100,5120,5140,5160,5181,5201,5220,5240,5261,5280,5300,5320,5340,5360,5381,5400,5420,5440,5461,5480,5500,5521,5540,5560,5580,5601,5621,5640,5660,5680,5701,5721,5740,5761,5781,5801,5821,5840,5860,5880,5900,5920,5940,5960,5980,6000,6020,6040,6061,6080,6100,6121,6141,6160,6180,6200,6220,6240,6260,6280,6301,6321,6340,6360,6381,6401,6421,6440,6460,6480,6500,6520,6540,6561],"xSR":741.5,"ySR":469.95,"xT1":424.9,"yT1":0,"xT2":1058.1,"yT2":0,"toosoon":0,"cond_shown":"equaldotanddens","ratio_trial":750,"smaller_num":"3","larger_num":"4","correct_side":1,"subjID":"juanitapavamartinez17","gender":"No_gender","age":"11","school":"No_school","test":{"fix_dur":[250,1500],"timestim":300,"targets_dim":[100,100],"targets_relative_coord":[0.3,0.7],"size_stim":[880,420],"start_dim":[100,100],"size_start":[300,300],"size_fix":60,"samplingrate":20,"img_types":["equaldotsize","equaldotanddens","randomdotsizeEA"],"ratios":[250,500,750,900],"rep_conds":9,"nTrials":120,"trials_to_rest":500,"Trials_order":[31,30,35,17,49,8,91,44,80,79,116,100,25,12,43,88,87,21,9,6,37,39,61,22,112,68,23,115,51,52,47,54,24,117,75,89,57,18,1,33,111,70,59,36,103,71,41,60,48,5,63,78,98,7,19,119,114,55,69,94,67,118,4,83,16,3,46,42,10,104,32,102,101,13,56,99,86,76,97,58,53,84,81,74,93,64,85,110,62,45,0,96,38,26,65,77,34,2,11,66,82,107,113,106,28,92,73,108,20,95,72,50,40,109,29,27,90,105,15,14],"cond_shown":["equaldotanddens","equaldotsize","randomdotsizeEA","randomdotsizeEA","equaldotanddens","randomdotsizeEA","equaldotanddens","randomdotsizeEA","randomdotsizeEA","equaldotanddens","randomdotsizeEA","equaldotanddens","equaldotanddens","equaldotsize","equaldotanddens","equaldotanddens","equaldotsize","equaldotsize","equaldotsize","equaldotsize","equaldotanddens","equaldotsize","equaldotanddens","equaldotanddens","equaldotanddens","randomdotsizeEA","randomdotsizeEA","equaldotanddens","equaldotsize","equaldotanddens","randomdotsizeEA","equaldotsize","equaldotsize","equaldotsize","equaldotsize","randomdotsizeEA","equaldotsize","equaldotsize","equaldotanddens","equaldotsize","equaldotsize","equaldotanddens","randomdotsizeEA","equaldotsize","equaldotanddens","randomdotsizeEA","randomdotsizeEA","equaldotsize","equaldotsize","randomdotsizeEA","equaldotsize","equaldotsize","randomdotsizeEA","equaldotanddens","equaldotanddens","randomdotsizeEA","equaldotsize","equaldotanddens","equaldotsize","equaldotanddens","equaldotanddens","equaldotanddens","equaldotanddens","randomdotsizeEA","equaldotanddens","equaldotsize","equaldotanddens","equaldotsize","equaldotanddens","randomdotsizeEA","randomdotsizeEA","equaldotsize","randomdotsizeEA","equaldotanddens","randomdotsizeEA","equaldotsize","randomdotsizeEA","equaldotanddens","equaldotanddens","equaldotanddens","randomdotsizeEA","equaldotsize","equaldotsize","randomdotsizeEA","equaldotsize","equaldotanddens","equaldotanddens","randomdotsizeEA","randomdotsizeEA","equaldotsize","equaldotsize","equaldotsize","randomdotsizeEA","randomdotsizeEA","randomdotsizeEA","randomdotsizeEA","equaldotanddens","randomdotsizeEA","randomdotsizeEA","equaldotsize","equaldotanddens","randomdotsizeEA","randomdotsizeEA","equaldotanddens","equaldotanddens","randomdotsizeEA","equaldotanddens","equaldotsize","randomdotsizeEA","randomdotsizeEA","equaldotsize","randomdotsizeEA","equaldotanddens","equaldotanddens","randomdotsizeEA","equaldotsize","equaldotsize","equaldotsize","equaldotsize","randomdotsizeEA"],"ratio_trial":[750,750,900,500,250,750,750,750,750,750,750,500,250,250,750,500,500,900,900,750,250,500,250,900,500,750,900,750,500,500,900,750,250,900,500,500,900,750,250,900,500,900,900,250,750,900,500,250,250,500,500,750,250,750,750,900,750,750,900,900,750,900,500,900,500,500,900,750,900,750,750,750,500,250,750,500,250,500,250,900,500,250,900,250,900,500,250,250,250,900,250,250,250,250,500,500,900,250,900,750,900,900,500,900,500,750,250,250,750,900,250,250,500,250,500,500,750,900,500,250],"smaller_num":["3","6","9","3","3","15","3","6","6","15","3","5","3","2","18","9","6","9","9","3","2","1","3","18","9","3","18","6","3","5","18","12","6","18","9","9","18","18","2","18","2","18","9","2","15","18","5","2","4","1","9","12","4","3","6","9","18","15","18","18","15","9","1","9","5","5","9","18","18","3","3","3","2","3","12","9","3","9","4","9","2","6","18","3","9","2","5","2","3","18","3","6","6","4","9","9","18","3","9","15","18","18","6","9","9","3","2","4","6","18","5","2","2","3","2","2","6","9","5","4"],"larger_num":["4","8","10","6","12","20","4","8","8","20","4","10","12","8","24","18","12","10","10","4","8","2","12","20","18","4","20","8","6","10","20","16","24","20","18","18","20","24","8","20","4","20","10","8","20","20","10","8","16","2","18","16","16","4","8","10","24","20","20","20","20","10","2","10","10","10","10","24","20","4","4","4","4","12","16","18","12","18","16","10","4","24","20","12","10","4","20","8","12","20","12","24","24","16","18","18","20","12","10","20","20","20","12","10","18","4","8","16","8","20","20","8","4","12","4","4","8","10","10","16"],"correct_side":[1,1,2,2,1,2,2,1,1,2,1,1,1,1,1,1,1,2,2,2,1,2,1,1,1,1,2,2,2,1,2,2,1,1,2,1,2,1,1,2,1,1,2,1,2,1,2,1,1,2,1,2,1,2,2,1,1,2,1,1,1,2,2,2,1,1,2,1,2,1,1,1,1,1,2,1,1,2,1,1,1,2,1,2,2,1,2,1,1,1,2,1,1,1,1,1,1,2,2,2,1,2,1,2,2,1,2,1,1,1,2,1,1,2,1,1,1,2,1,2],"img_shown":["img/750/equaldotanddens/L/10_Ratio_750_L_4_R_3.png","img/750/equaldotsize/L/13_Ratio_750_L_8_R_6.png","img/900/randomdotsizeEA/R/15_Ratio_900_L_9_R_10.png","img/500/randomdotsizeEA/R/2_Ratio_500_L_3_R_6.png","img/250/equaldotanddens/L/14_Ratio_250_L_12_R_3.png","img/750/randomdotsizeEA/R/4_Ratio_750_L_15_R_20.png","img/750/equaldotanddens/R/12_Ratio_750_L_3_R_4.png","img/750/randomdotsizeEA/L/13_Ratio_750_L_8_R_6.png","img/750/randomdotsizeEA/L/13_Ratio_750_L_8_R_6.png","img/750/equaldotanddens/R/3_Ratio_750_L_15_R_20.png","img/750/randomdotsizeEA/L/10_Ratio_750_L_4_R_3.png","img/500/equaldotanddens/L/7_Ratio_500_L_10_R_5.png","img/250/equaldotanddens/L/14_Ratio_250_L_12_R_3.png","img/250/equaldotsize/L/1_Ratio_250_L_8_R_2.png","img/750/equaldotanddens/L/6_Ratio_750_L_24_R_18.png","img/500/equaldotanddens/L/4_Ratio_500_L_18_R_9.png","img/500/equaldotsize/L/13_Ratio_500_L_12_R_6.png","img/900/equaldotsize/R/15_Ratio_900_L_9_R_10.png","img/900/equaldotsize/R/3_Ratio_900_L_9_R_10.png","img/750/equaldotsize/R/7_Ratio_750_L_3_R_4.png","img/250/equaldotanddens/L/1_Ratio_250_L_8_R_2.png","img/500/equaldotsize/R/15_Ratio_500_L_1_R_2.png","img/250/equaldotanddens/L/14_Ratio_250_L_12_R_3.png","img/900/equaldotanddens/L/2_Ratio_900_L_20_R_18.png","img/500/equaldotanddens/L/4_Ratio_500_L_18_R_9.png","img/750/randomdotsizeEA/L/9_Ratio_750_L_4_R_3.png","img/900/randomdotsizeEA/R/12_Ratio_900_L_18_R_20.png","img/750/equaldotanddens/R/2_Ratio_750_L_6_R_8.png","img/500/equaldotsize/R/2_Ratio_500_L_3_R_6.png","img/500/equaldotanddens/L/7_Ratio_500_L_10_R_5.png","img/900/randomdotsizeEA/R/13_Ratio_900_L_18_R_20.png","img/750/equaldotsize/R/11_Ratio_750_L_12_R_16.png","img/250/equaldotsize/L/5_Ratio_250_L_24_R_6.png","img/900/equaldotsize/L/10_Ratio_900_L_20_R_18.png","img/500/equaldotsize/R/6_Ratio_500_L_9_R_18.png","img/500/randomdotsizeEA/L/4_Ratio_500_L_18_R_9.png","img/900/equaldotsize/R/13_Ratio_900_L_18_R_20.png","img/750/equaldotsize/L/6_Ratio_750_L_24_R_18.png","img/250/equaldotanddens/L/3_Ratio_250_L_8_R_2.png","img/900/equaldotsize/R/12_Ratio_900_L_18_R_20.png","img/500/equaldotsize/L/5_Ratio_500_L_4_R_2.png","img/900/equaldotanddens/L/4_Ratio_900_L_20_R_18.png","img/900/randomdotsizeEA/R/5_Ratio_900_L_9_R_10.png","img/250/equaldotsize/L/7_Ratio_250_L_8_R_2.png","img/750/equaldotanddens/R/3_Ratio_750_L_15_R_20.png","img/900/randomdotsizeEA/L/8_Ratio_900_L_20_R_18.png","img/500/randomdotsizeEA/R/14_Ratio_500_L_5_R_10.png","img/250/equaldotsize/L/7_Ratio_250_L_8_R_2.png","img/250/equaldotsize/L/2_Ratio_250_L_16_R_4.png","img/500/randomdotsizeEA/R/15_Ratio_500_L_1_R_2.png","img/500/equaldotsize/L/4_Ratio_500_L_18_R_9.png","img/750/equaldotsize/R/11_Ratio_750_L_12_R_16.png","img/250/randomdotsizeEA/L/2_Ratio_250_L_16_R_4.png","img/750/equaldotanddens/R/7_Ratio_750_L_3_R_4.png","img/750/equaldotanddens/R/2_Ratio_750_L_6_R_8.png","img/900/randomdotsizeEA/L/1_Ratio_900_L_10_R_9.png","img/750/equaldotsize/L/6_Ratio_750_L_24_R_18.png","img/750/equaldotanddens/R/3_Ratio_750_L_15_R_20.png","img/900/equaldotsize/L/4_Ratio_900_L_20_R_18.png","img/900/equaldotanddens/L/8_Ratio_900_L_20_R_18.png","img/750/equaldotanddens/L/1_Ratio_750_L_20_R_15.png","img/900/equaldotanddens/R/3_Ratio_900_L_9_R_10.png","img/500/equaldotanddens/R/15_Ratio_500_L_1_R_2.png","img/900/randomdotsizeEA/R/7_Ratio_900_L_9_R_10.png","img/500/equaldotanddens/L/7_Ratio_500_L_10_R_5.png","img/500/equaldotsize/L/7_Ratio_500_L_10_R_5.png","img/900/equaldotanddens/R/15_Ratio_900_L_9_R_10.png","img/750/equaldotsize/L/6_Ratio_750_L_24_R_18.png","img/900/equaldotanddens/R/11_Ratio_900_L_18_R_20.png","img/750/randomdotsizeEA/L/9_Ratio_750_L_4_R_3.png","img/750/randomdotsizeEA/L/10_Ratio_750_L_4_R_3.png","img/750/equaldotsize/L/9_Ratio_750_L_4_R_3.png","img/500/randomdotsizeEA/L/5_Ratio_500_L_4_R_2.png","img/250/equaldotanddens/L/15_Ratio_250_L_12_R_3.png","img/750/randomdotsizeEA/R/11_Ratio_750_L_12_R_16.png","img/500/equaldotsize/L/4_Ratio_500_L_18_R_9.png","img/250/randomdotsizeEA/L/15_Ratio_250_L_12_R_3.png","img/500/equaldotanddens/R/6_Ratio_500_L_9_R_18.png","img/250/equaldotanddens/L/2_Ratio_250_L_16_R_4.png","img/900/equaldotanddens/L/1_Ratio_900_L_10_R_9.png","img/500/randomdotsizeEA/L/5_Ratio_500_L_4_R_2.png","img/250/equaldotsize/R/6_Ratio_250_L_6_R_24.png","img/900/equaldotsize/L/10_Ratio_900_L_20_R_18.png","img/250/randomdotsizeEA/R/11_Ratio_250_L_3_R_12.png","img/900/equaldotsize/R/15_Ratio_900_L_9_R_10.png","img/500/equaldotanddens/L/5_Ratio_500_L_4_R_2.png","img/250/equaldotanddens/R/12_Ratio_250_L_5_R_20.png","img/250/randomdotsizeEA/L/7_Ratio_250_L_8_R_2.png","img/250/randomdotsizeEA/L/14_Ratio_250_L_12_R_3.png","img/900/equaldotsize/L/8_Ratio_900_L_20_R_18.png","img/250/equaldotsize/R/4_Ratio_250_L_3_R_12.png","img/250/equaldotsize/L/5_Ratio_250_L_24_R_6.png","img/250/randomdotsizeEA/L/5_Ratio_250_L_24_R_6.png","img/250/randomdotsizeEA/L/2_Ratio_250_L_16_R_4.png","img/500/randomdotsizeEA/L/4_Ratio_500_L_18_R_9.png","img/500/randomdotsizeEA/L/4_Ratio_500_L_18_R_9.png","img/900/equaldotanddens/L/8_Ratio_900_L_20_R_18.png","img/250/randomdotsizeEA/R/4_Ratio_250_L_3_R_12.png","img/900/randomdotsizeEA/R/3_Ratio_900_L_9_R_10.png","img/750/equaldotsize/R/5_Ratio_750_L_15_R_20.png","img/900/equaldotanddens/L/8_Ratio_900_L_20_R_18.png","img/900/randomdotsizeEA/R/13_Ratio_900_L_18_R_20.png","img/500/randomdotsizeEA/L/11_Ratio_500_L_12_R_6.png","img/900/equaldotanddens/R/15_Ratio_900_L_9_R_10.png","img/500/equaldotanddens/R/6_Ratio_500_L_9_R_18.png","img/750/randomdotsizeEA/L/9_Ratio_750_L_4_R_3.png","img/250/equaldotanddens/R/13_Ratio_250_L_2_R_8.png","img/250/equaldotsize/L/2_Ratio_250_L_16_R_4.png","img/750/randomdotsizeEA/L/13_Ratio_750_L_8_R_6.png","img/900/randomdotsizeEA/L/10_Ratio_900_L_20_R_18.png","img/250/equaldotsize/R/12_Ratio_250_L_5_R_20.png","img/250/randomdotsizeEA/L/3_Ratio_250_L_8_R_2.png","img/500/equaldotanddens/L/10_Ratio_500_L_4_R_2.png","img/250/equaldotanddens/R/4_Ratio_250_L_3_R_12.png","img/500/randomdotsizeEA/L/5_Ratio_500_L_4_R_2.png","img/500/equaldotsize/L/5_Ratio_500_L_4_R_2.png","img/750/equaldotsize/L/14_Ratio_750_L_8_R_6.png","img/900/equaldotsize/R/15_Ratio_900_L_9_R_10.png","img/500/equaldotsize/L/7_Ratio_500_L_10_R_5.png","img/250/randomdotsizeEA/R/10_Ratio_250_L_4_R_16.png"],"Rat0":[["12_Ratio_0_L_9_R_0.png","13_Ratio_0_L_6_R_0.png","5_Ratio_0_L_2_R_0.png","6_Ratio_0_L_4_R_0.png","8_Ratio_0_L_6_R_0.png"],["1_Ratio_0_L_0_R_17.png","10_Ratio_0_L_0_R_22.png","11_Ratio_0_L_0_R_1.png","14_Ratio_0_L_0_R_24.png","15_Ratio_0_L_0_R_4.png","2_Ratio_0_L_0_R_5.png","3_Ratio_0_L_0_R_17.png","4_Ratio_0_L_0_R_7.png","7_Ratio_0_L_0_R_19.png","9_Ratio_0_L_0_R_15.png"]],"Rat250":[["1_Ratio_250_L_8_R_2.png","14_Ratio_250_L_12_R_3.png","15_Ratio_250_L_12_R_3.png","2_Ratio_250_L_16_R_4.png","3_Ratio_250_L_8_R_2.png","5_Ratio_250_L_24_R_6.png","7_Ratio_250_L_8_R_2.png"],["10_Ratio_250_L_4_R_16.png","11_Ratio_250_L_3_R_12.png","12_Ratio_250_L_5_R_20.png","13_Ratio_250_L_2_R_8.png","4_Ratio_250_L_3_R_12.png","6_Ratio_250_L_6_R_24.png","8_Ratio_250_L_1_R_4.png","9_Ratio_250_L_3_R_12.png"]],"Rat500":[["10_Ratio_500_L_4_R_2.png","11_Ratio_500_L_12_R_6.png","13_Ratio_500_L_12_R_6.png","4_Ratio_500_L_18_R_9.png","5_Ratio_500_L_4_R_2.png","7_Ratio_500_L_10_R_5.png","8_Ratio_500_L_8_R_4.png"],["1_Ratio_500_L_9_R_18.png","12_Ratio_500_L_1_R_2.png","14_Ratio_500_L_5_R_10.png","15_Ratio_500_L_1_R_2.png","2_Ratio_500_L_3_R_6.png","3_Ratio_500_L_10_R_20.png","6_Ratio_500_L_9_R_18.png","9_Ratio_500_L_2_R_4.png"]],"Rat750":[["1_Ratio_750_L_20_R_15.png","10_Ratio_750_L_4_R_3.png","13_Ratio_750_L_8_R_6.png","14_Ratio_750_L_8_R_6.png","6_Ratio_750_L_24_R_18.png","8_Ratio_750_L_4_R_3.png","9_Ratio_750_L_4_R_3.png"],["11_Ratio_750_L_12_R_16.png","12_Ratio_750_L_3_R_4.png","15_Ratio_750_L_9_R_12.png","2_Ratio_750_L_6_R_8.png","3_Ratio_750_L_15_R_20.png","4_Ratio_750_L_15_R_20.png","5_Ratio_750_L_15_R_20.png","7_Ratio_750_L_3_R_4.png"]],"Rat900":[["1_Ratio_900_L_10_R_9.png","10_Ratio_900_L_20_R_18.png","2_Ratio_900_L_20_R_18.png","4_Ratio_900_L_20_R_18.png","8_Ratio_900_L_20_R_18.png"],["11_Ratio_900_L_18_R_20.png","12_Ratio_900_L_18_R_20.png","13_Ratio_900_L_18_R_20.png","14_Ratio_900_L_18_R_20.png","15_Ratio_900_L_9_R_10.png","3_Ratio_900_L_9_R_10.png","5_Ratio_900_L_9_R_10.png","6_Ratio_900_L_9_R_10.png","7_Ratio_900_L_9_R_10.png","9_Ratio_900_L_18_R_20.png"]],"Rat1000":[["10_Ratio_1000_L_16_R_16.png","11_Ratio_1000_L_6_R_6.png","12_Ratio_1000_L_14_R_14.png","13_Ratio_1000_L_20_R_20.png","15_Ratio_1000_L_15_R_15.png","2_Ratio_1000_L_17_R_17.png","4_Ratio_1000_L_9_R_9.png","5_Ratio_1000_L_6_R_6.png","6_Ratio_1000_L_19_R_19.png","8_Ratio_1000_L_14_R_14.png","9_Ratio_1000_L_25_R_25.png"],["1_Ratio_1000_L_1_R_1.png","14_Ratio_1000_L_17_R_17.png","3_Ratio_1000_L_17_R_17.png","7_Ratio_1000_L_6_R_6.png"]]}},{"start_time":1551901462466,"click_time":1551901464988,"finger_time":1551901464548,"fix_duration":376.2243965307744,"trial":1,"RT":2082,"MT":440,"sideResp":1,"stimulus":"img/750/equaldotsize/L/13_Ratio_750_L_8_R_6.png","xmouse":[769,769,769,769,769,769,769,769,769,769,769,769,769,769,769,769,769,769,769,769,769,769,769,769,769,769,769,769,769,769,769,769,769,769,769,769,769,769,769,769,769,769,769,769,769,769,769,769,769,769,769,769,769,769,769,769,769,769,769,769,769,769,769,769,769,769,769,769,769,769,769,769,769,769,769,769,769,769,769,769,769,769,769,769,769,769,769,770,773,774,777,780,783,786,786,786,786,786,786,786,786,786,786,784,780,776,761,756,753,750,747,741,722,713,705,697,676,626,605,592,585,578,553,540,531,526,524],"ymouse":[660,660,660,660,660,660,660,660,660,660,660,660,660,660,660,660,660,660,660,660,660,660,660,660,660,660,660,660,660,660,660,660,660,660,660,660,660,660,660,660,660,660,660,660,660,660,660,660,660,660,660,660,660,660,660,660,660,660,660,660,660,660,660,660,660,660,660,660,660,660,660,660,660,660,660,660,660,660,660,660,660,660,660,660,660,660,660,659,657,654,651,645,637,632,631,630,630,630,630,630,630,624,604,580,554,529,472,446,418,386,347,303,222,200,185,170,148,104,86,73,65,60,49,46,45,45,45],"timestamp_mouse":[13,35,41,61,81,101,121,141,162,181,202,222,241,261,281,302,322,341,361,382,402,421,441,462,481,502,522,541,562,582,601,622,641,661,681,701,722,741,762,781,801,821,841,861,881,902,922,941,961,981,1002,1022,1041,1061,1081,1101,1121,1141,1161,1182,1202,1221,1241,1261,1282,1301,1321,1341,1362,1381,1402,1422,1441,1461,1481,1502,1521,1541,1561,1581,1601,1622,1641,1661,1681,1701,1722,1742,1761,1781,1801,1821,1840,1861,1881,1902,1922,1941,1962,1981,2001,2022,2041,2062,2082,2101,2122,2141,2160,2182,2201,2222,2242,2261,2281,2302,2321,2341,2362,2381,2401,2421,2441,2461,2481,2502,2522],"xSR":741.5,"ySR":573.95,"xT1":424.9,"yT1":0,"xT2":1058.1,"yT2":0,"toosoon":0,"cond_shown":"equaldotsize","ratio_trial":750,"smaller_num":"6","larger_num":"8","correct_side":1,"subjID":"juanitapavamartinez17","gender":"No_gender","age":"11","school":"No_school"},{"start_time":1551901467038,"click_time":1551901470107,"finger_time":1551901469687,"fix_duration":1029.5340577052102,"trial":2,"RT":2649,"MT":420,"sideResp":2,"stimulus":"img/900/randomdotsizeEA/R/15_Ratio_900_L_9_R_10.png","xmouse":[786,786,786,786,786,786,786,786,786,786,786,786,786,786,786,786,786,786,786,786,786,786,786,786,786,786,786,786,786,786,786,786,786,786,786,786,786,786,786,786,786,786,786,786,786,786,786,786,786,786,786,786,786,786,786,786,786,786,786,786,786,786,786,786,786,786,786,786,786,786,786,786,786,786,786,786,786,786,786,786,786,786,786,786,786,786,786,786,786,786,786,786,786,786,786,786,786,786,786,786,786,786,786,786,786,786,786,786,786,786,786,786,786,786,786,786,786,786,786,786,786,786,786,789,791,792,793,794,804,808,815,822,829,839,842,845,845,850,851,854,859,869,894,911,931,955,980,1003,1014,1030,1042,1054,1078,1089],"ymouse":[649,649,649,649,649,649,649,649,649,649,649,649,649,649,649,649,649,649,649,649,649,649,649,649,649,649,649,649,649,649,649,649,649,649,649,649,649,649,649,649,649,649,649,649,649,649,649,649,649,649,649,649,649,649,649,649,649,649,649,649,649,649,649,649,649,649,649,649,649,649,649,649,649,649,649,649,649,649,649,649,649,649,649,649,649,649,649,649,649,649,649,649,649,649,649,649,649,649,649,649,649,649,649,649,649,649,649,649,649,649,649,649,649,649,649,649,649,649,649,649,649,649,649,647,646,644,643,642,632,624,607,588,572,555,549,545,539,530,529,525,515,500,453,422,392,347,306,267,245,220,191,165,114,96],"timestamp_mouse":[10,32,49,69,89,109,129,149,169,189,209,230,249,269,289,309,328,349,369,389,409,429,449,469,489,510,529,549,569,589,609,629,650,669,689,709,730,749,769,790,809,829,850,870,890,909,929,949,969,989,1011,1030,1050,1069,1090,1110,1129,1151,1169,1190,1209,1230,1250,1269,1289,1309,1330,1349,1369,1389,1409,1430,1449,1469,1489,1509,1530,1549,1569,1590,1609,1629,1650,1669,1689,1709,1730,1749,1769,1789,1809,1829,1849,1869,1890,1910,1929,1949,1969,1990,2009,2029,2050,2069,2089,2109,2129,2150,2169,2189,2209,2229,2249,2269,2289,2308,2330,2349,2369,2389,2409,2429,2450,2469,2490,2509,2529,2549,2569,2590,2610,2629,2649,2669,2690,2709,2730,2750,2769,2789,2809,2829,2850,2868,2890,2909,2929,2950,2970,2989,3009,3030,3049,3069],"xSR":741.5,"ySR":573.95,"xT1":424.9,"yT1":0,"xT2":1058.1,"yT2":0,"toosoon":0,"cond_shown":"randomdotsizeEA","ratio_trial":900,"smaller_num":"9","larger_num":"10","correct_side":2,"subjID":"juanitapavamartinez17","gender":"No_gender","age":"11","school":"No_school"},{"start_time":1551901472940,"click_time":1551901474748,"finger_time":1551901473929,"fix_duration":268.6469468334198,"trial":3,"RT":989,"MT":819,"sideResp":2,"stimulus":"img/500/randomdotsizeEA/R/2_Ratio_500_L_3_R_6.png","xmouse":[806,806,806,806,806,806,806,806,806,806,806,806,806,806,806,806,806,806,806,806,806,806,806,806,806,806,806,806,806,806,806,806,806,806,806,806,806,806,806,806,806,806,806,806,806,806,806,809,833,852,879,905,926,946,951,956,959,965,976,980,983,988,993,996,1000,1003,1006,1015,1018,1020,1023,1025,1030,1036,1036,1036,1036,1036,1037,1037,1038,1039,1043,1046,1051,1055,1056,1056,1057,1058,1064],"ymouse":[624,624,624,624,624,624,624,624,624,624,624,624,624,624,624,624,624,624,624,624,624,624,624,624,624,624,624,624,624,624,624,624,624,624,624,624,624,624,624,624,624,624,624,624,624,624,623,618,584,555,509,466,422,369,349,334,320,303,271,255,232,201,125,106,89,72,58,37,33,28,25,20,14,7,7,7,7,7,7,9,12,15,22,24,29,31,32,32,32,32,35],"timestamp_mouse":[8,29,49,68,88,108,127,149,168,188,209,228,248,267,289,308,329,348,368,388,407,429,449,467,489,508,528,549,567,589,608,628,649,668,689,709,728,749,768,789,807,829,848,868,888,909,928,947,967,989,1009,1028,1048,1068,1087,1108,1128,1148,1168,1188,1208,1227,1248,1267,1287,1309,1328,1349,1368,1387,1407,1427,1448,1469,1488,1508,1528,1549,1567,1588,1608,1629,1648,1668,1688,1709,1728,1748,1768,1788,1808],"xSR":741.5,"ySR":573.95,"xT1":424.9,"yT1":0,"xT2":1058.1,"yT2":0,"toosoon":0,"cond_shown":"randomdotsizeEA","ratio_trial":500,"smaller_num":"3","larger_num":"6","correct_side":2,"subjID":"juanitapavamartinez17","gender":"No_gender","age":"11","school":"No_school"},{"start_time":1551901477600,"click_time":1551901478788,"finger_time":1551901478547,"fix_duration":449.5808476736819,"trial":4,"RT":947,"MT":241,"sideResp":1,"stimulus":"img/250/equaldotanddens/L/14_Ratio_250_L_12_R_3.png","xmouse":[783,783,783,783,783,783,783,783,783,783,783,783,783,783,783,783,783,783,783,783,783,783,783,783,783,783,783,783,783,783,783,783,783,783,783,783,783,783,783,783,780,779,779,779,779,777,769,758,735,702,595,559,537,524,507,500,496,494,494,491],"ymouse":[626,626,626,626,626,626,626,626,626,626,626,626,626,626,626,626,626,626,626,626,626,626,626,626,626,626,626,626,626,626,626,626,626,626,626,626,626,626,626,626,624,622,621,621,621,615,597,570,521,458,300,253,220,198,161,147,133,122,112,91],"timestamp_mouse":[15,32,48,69,88,108,128,147,169,189,208,228,248,269,287,308,328,349,367,389,408,428,449,468,488,508,529,548,569,589,608,629,649,668,689,707,729,747,769,788,808,828,849,868,889,907,929,947,968,988,1008,1028,1048,1068,1089,1108,1128,1148,1168,1188],"xSR":741.5,"ySR":573.95,"xT1":424.9,"yT1":0,"xT2":1058.1,"yT2":0,"toosoon":0,"cond_shown":"equaldotanddens","ratio_trial":250,"smaller_num":"3","larger_num":"12","correct_side":1,"subjID":"juanitapavamartinez17","gender":"No_gender","age":"11","school":"No_school"},{"start_time":1551901482522,"click_time":1551901483848,"finger_time":1551901483128,"fix_duration":1391.6904329594952,"trial":5,"RT":606,"MT":720,"sideResp":1,"stimulus":"img/750/randomdotsizeEA/R/4_Ratio_750_L_15_R_20.png","xmouse":[817,817,817,817,817,817,817,817,817,817,817,817,817,817,817,817,817,817,817,817,817,817,817,817,817,817,817,817,817,819,855,908,973,1052,1058,1065,1069,1071,1076,1077,1078,1078,1079,1081,1082,1083,1084,1084,1085,1086,1086,1086,1086,1086,1085,1077,1057,1022,967,808,726,656,615,591,555,536,518],"ymouse":[669,669,669,669,669,669,669,669,669,669,669,669,669,669,669,669,669,669,669,669,669,669,669,669,669,669,669,669,669,667,622,545,463,340,322,302,285,271,247,238,234,231,228,222,219,214,211,207,202,183,174,168,164,163,163,160,156,147,136,118,118,118,121,122,111,94,79],"timestamp_mouse":[10,29,46,65,86,106,126,146,166,186,206,225,245,267,286,306,326,347,367,385,406,427,445,467,486,507,526,547,567,585,606,626,646,666,686,706,726,746,766,785,807,826,846,866,885,905,926,946,967,986,1006,1026,1045,1067,1085,1105,1127,1146,1166,1186,1206,1227,1246,1266,1286,1305,1325],"xSR":741.5,"ySR":573.95,"xT1":424.9,"yT1":0,"xT2":1058.1,"yT2":0,"toosoon":0,"cond_shown":"randomdotsizeEA","ratio_trial":750,"smaller_num":"15","larger_num":"20","correct_side":2,"subjID":"juanitapavamartinez17","gender":"No_gender","age":"11","school":"No_school"},{"start_time":1551901487764,"click_time":1551901488928,"finger_time":1551901488348,"fix_duration":795.3385035428017,"trial":6,"RT":584,"MT":580,"sideResp":2,"stimulus":"img/750/equaldotanddens/R/12_Ratio_750_L_3_R_4.png","xmouse":[788,788,786,785,784,784,784,784,784,784,784,784,784,784,784,784,784,784,786,786,787,788,788,788,788,788,790,793,796,800,807,846,894,940,988,1016,1042,1048,1054,1058,1062,1075,1084,1091,1096,1098,1099,1099,1099,1099,1099,1099,1100,1100,1101,1103,1104,1108,1109],"ymouse":[638,638,638,639,641,641,641,641,641,641,641,641,641,641,641,641,641,638,635,630,625,618,616,616,616,615,609,599,585,568,543,479,430,399,372,352,325,313,301,290,279,241,224,211,198,185,177,166,161,157,152,148,144,142,139,133,127,107,98],"timestamp_mouse":[3,26,44,64,84,103,124,143,164,184,205,223,244,263,284,305,324,344,365,384,404,424,443,464,483,504,524,543,564,584,605,625,644,663,683,703,725,744,764,784,804,825,844,863,884,904,924,944,964,984,1003,1024,1044,1064,1084,1105,1125,1144,1164],"xSR":741.5,"ySR":573.95,"xT1":424.9,"yT1":0,"xT2":1058.1,"yT2":0,"toosoon":0,"cond_shown":"equaldotanddens","ratio_trial":750,"smaller_num":"3","larger_num":"4","correct_side":2,"subjID":"juanitapavamartinez17","gender":"No_gender","age":"11","school":"No_school"},{"start_time":1551901491320,"click_time":1551901492468,"finger_time":1551901491968,"fix_duration":250,"trial":7,"RT":648,"MT":500,"sideResp":1,"stimulus":"img/750/randomdotsizeEA/L/13_Ratio_750_L_8_R_6.png","xmouse":[835,835,835,835,835,835,835,835,835,835,835,835,835,836,836,836,836,836,836,836,836,836,836,836,836,836,836,836,836,836,835,833,821,780,762,739,715,699,673,660,646,633,619,604,582,572,562,557,548,526,513,505,501,495,494,493,492,492],"ymouse":[621,621,621,619,619,617,617,617,616,616,615,615,615,614,613,613,612,612,612,611,611,610,609,609,609,608,608,608,608,605,603,596,568,483,451,416,386,365,328,309,290,272,252,230,204,191,177,167,155,131,122,116,113,105,103,102,100,98],"timestamp_mouse":[11,34,49,68,88,108,127,149,168,187,209,229,247,268,288,308,328,349,369,387,408,428,449,469,487,509,528,548,568,587,608,627,648,669,688,707,728,748,769,787,809,828,848,868,888,907,929,948,968,987,1008,1028,1049,1068,1087,1107,1128,1148],"xSR":741.5,"ySR":573.95,"xT1":424.9,"yT1":0,"xT2":1058.1,"yT2":0,"toosoon":0,"cond_shown":"randomdotsizeEA","ratio_trial":750,"smaller_num":"6","larger_num":"8","correct_side":1,"subjID":"juanitapavamartinez17","gender":"No_gender","age":"11","school":"No_school"},{"start_time":1551901495821,"click_time":1551901497108,"finger_time":1551901496449,"fix_duration":511.2649955669502,"trial":8,"RT":628,"MT":659,"sideResp":1,"stimulus":"img/750/randomdotsizeEA/L/13_Ratio_750_L_8_R_6.png","xmouse":[814,814,814,814,813,813,813,813,813,813,813,813,813,813,813,813,813,813,813,813,813,813,813,813,813,813,812,812,808,806,803,797,790,782,767,758,747,737,692,676,657,645,629,597,582,568,555,545,521,513,511,509,508,506,504,503,503,503,503,503,503,503,504,505,507],"ymouse":[604,604,604,604,603,603,602,602,602,602,601,601,601,600,600,600,600,600,599,599,599,598,597,596,594,593,592,590,584,580,574,566,555,546,519,497,474,449,356,320,289,267,246,217,207,197,188,179,156,150,148,146,141,128,119,114,113,112,112,111,109,106,105,102,96],"timestamp_mouse":[8,27,48,67,87,107,127,147,167,187,207,228,247,267,287,307,327,347,367,387,407,427,447,467,486,507,527,547,568,588,607,628,646,666,686,707,727,747,768,787,807,827,846,867,886,908,927,946,967,987,1006,1028,1046,1067,1087,1107,1127,1147,1168,1187,1206,1227,1247,1268,1287],"xSR":741.5,"ySR":573.95,"xT1":424.9,"yT1":0,"xT2":1058.1,"yT2":0,"toosoon":0,"cond_shown":"randomdotsizeEA","ratio_trial":750,"smaller_num":"6","larger_num":"8","correct_side":1,"subjID":"juanitapavamartinez17","gender":"No_gender","age":"11","school":"No_school"},{"start_time":1551901500587,"click_time":1551901502048,"finger_time":1551901501009,"fix_duration":678.1422406578365,"trial":9,"RT":422,"MT":1039,"sideResp":2,"stimulus":"img/750/equaldotanddens/R/3_Ratio_750_L_15_R_20.png","xmouse":[792,792,792,792,792,792,792,792,792,792,792,792,792,792,792,792,792,792,792,793,794,802,807,809,812,816,820,826,833,841,884,903,917,928,939,956,964,972,977,979,979,981,982,983,983,985,987,989,991,997,1009,1038,1055,1067,1073,1075,1077,1077,1078,1078,1079,1081,1081,1081,1082,1083,1084,1084,1084,1086,1089,1091,1092,1093],"ymouse":[584,584,584,584,584,584,584,584,584,584,584,584,584,584,584,584,584,584,584,580,576,560,552,547,543,535,527,517,504,485,407,379,357,337,320,289,274,261,249,238,206,198,193,190,189,184,181,178,175,168,161,145,136,129,127,126,125,125,125,124,123,121,120,119,117,115,114,113,113,109,106,102,100,99],"timestamp_mouse":[10,30,41,61,80,101,121,141,161,181,202,221,242,260,281,302,321,341,361,381,400,422,440,461,480,502,521,541,561,580,601,620,641,661,681,702,721,741,761,781,801,820,840,861,881,901,921,942,961,982,1001,1021,1041,1061,1081,1102,1121,1142,1160,1181,1202,1221,1241,1261,1281,1302,1320,1342,1362,1381,1400,1420,1441,1461],"xSR":741.5,"ySR":573.95,"xT1":424.9,"yT1":0,"xT2":1058.1,"yT2":0,"toosoon":0,"cond_shown":"equaldotanddens","ratio_trial":750,"smaller_num":"15","larger_num":"20","correct_side":2,"subjID":"juanitapavamartinez17","gender":"No_gender","age":"11","school":"No_school"},{"start_time":1551901510300,"click_time":1551901511568,"finger_time":1551901511108,"fix_duration":250,"trial":10,"RT":808,"MT":460,"sideResp":2,"stimulus":"img/750/randomdotsizeEA/L/10_Ratio_750_L_4_R_3.png","xmouse":[819,819,819,819,819,819,819,819,819,819,819,819,819,819,819,819,819,819,819,819,819,819,819,819,819,819,819,819,819,819,819,819,819,819,819,819,819,819,819,811,802,793,788,781,757,744,735,731,730,734,745,759,779,809,878,1002,1053,1090,1104,1116,1119,1123,1125,1130],"ymouse":[630,630,630,630,630,630,630,630,630,630,630,630,630,630,630,630,630,630,630,630,630,630,630,630,630,630,630,630,630,630,630,630,630,630,630,630,630,630,625,576,541,506,483,457,402,386,375,367,362,344,330,314,297,276,246,190,170,150,140,125,118,110,104,91],"timestamp_mouse":[9,33,47,67,89,108,128,147,168,189,208,228,249,268,288,308,329,348,369,388,407,428,448,468,487,508,527,547,567,589,608,627,649,668,689,708,729,748,767,789,808,828,848,868,888,907,929,948,968,988,1007,1028,1048,1068,1089,1108,1128,1148,1168,1188,1208,1228,1248,1268],"xSR":741.5,"ySR":573.95,"xT1":424.9,"yT1":0,"xT2":1058.1,"yT2":0,"toosoon":0,"cond_shown":"randomdotsizeEA","ratio_trial":750,"smaller_num":"3","larger_num":"4","correct_side":1,"subjID":"juanitapavamartinez17","gender":"No_gender","age":"11","school":"No_school"},{"start_time":1551901512702,"click_time":1551901513668,"finger_time":1551901513268,"fix_duration":250,"trial":11,"RT":566,"MT":400,"sideResp":1,"stimulus":"img/500/equaldotanddens/L/7_Ratio_500_L_10_R_5.png","xmouse":[833,833,833,833,833,833,833,833,833,833,833,833,833,833,833,833,833,833,833,833,833,833,833,833,833,833,833,829,807,771,673,629,601,574,562,549,547,546,546,546,544,541,537,534,531,529,527,526,522],"ymouse":[616,616,616,616,616,616,616,616,616,616,616,616,616,616,616,616,616,616,616,616,616,616,616,616,616,616,601,583,525,457,339,296,264,225,198,142,118,100,87,70,60,49,39,34,31,30,30,30,30],"timestamp_mouse":[10,30,47,66,85,105,127,146,165,187,206,226,247,267,287,307,325,347,367,386,406,425,446,467,487,505,526,546,566,587,606,625,646,667,686,706,726,746,766,787,805,826,846,866,886,906,926,946,966],"xSR":741.5,"ySR":573.95,"xT1":424.9,"yT1":0,"xT2":1058.1,"yT2":0,"toosoon":0,"cond_shown":"equaldotanddens","ratio_trial":500,"smaller_num":"5","larger_num":"10","correct_side":1,"subjID":"juanitapavamartinez17","gender":"No_gender","age":"11","school":"No_school"},{"start_time":1551901514670,"click_time":1551901515428,"finger_time":1551901515168,"fix_duration":360.6754348252519,"trial":12,"RT":498,"MT":260,"sideResp":1,"stimulus":"img/250/equaldotanddens/L/14_Ratio_250_L_12_R_3.png","xmouse":[793,793,793,793,793,793,793,793,793,793,793,793,793,793,793,793,793,793,793,793,793,793,793,789,783,783,783,783,782,777,765,722,693,665,612,538,497,468],"ymouse":[669,669,669,669,669,669,669,669,669,669,669,669,669,669,669,669,669,669,669,669,669,669,670,673,677,677,677,677,677,677,672,606,546,478,361,194,129,88],"timestamp_mouse":[29,38,58,78,98,119,138,159,178,199,218,238,257,279,299,318,338,358,377,399,418,437,458,478,498,518,539,558,578,598,618,637,659,677,697,719,738,758],"xSR":741.5,"ySR":573.95,"xT1":424.9,"yT1":0,"xT2":1058.1,"yT2":0,"toosoon":0,"cond_shown":"equaldotanddens","ratio_trial":250,"smaller_num":"3","larger_num":"12","correct_side":1,"subjID":"juanitapavamartinez17","gender":"No_gender","age":"11","school":"No_school"},{"start_time":1551901517809,"click_time":1551901519307,"finger_time":1551901518367,"fix_duration":1100.0523461604073,"trial":13,"RT":558,"MT":940,"sideResp":1,"stimulus":"img/250/equaldotsize/L/1_Ratio_250_L_8_R_2.png","xmouse":[816,816,816,816,816,816,816,816,816,816,816,816,816,816,816,816,816,816,816,816,816,816,816,816,816,816,813,807,797,766,758,749,743,740,729,723,714,706,690,675,667,656,646,622,609,593,579,564,543,542,542,542,540,538,534,532,532,529,526,524,524,524,524,524,524,524,524,524,524,524,524,524,524,523,513],"ymouse":[600,600,600,600,600,600,600,600,600,600,600,600,600,600,600,600,600,600,600,600,600,600,600,600,600,593,584,562,527,469,457,442,431,421,381,363,343,325,296,264,247,229,210,177,167,158,152,147,136,136,135,135,134,132,125,123,122,118,114,111,111,111,111,111,111,111,111,111,111,111,111,111,111,106,84],"timestamp_mouse":[27,39,60,80,99,118,138,160,179,199,219,240,260,278,299,319,338,359,380,399,419,438,458,480,499,520,539,558,578,599,618,639,659,679,699,719,739,759,779,799,818,839,859,880,899,919,938,960,979,998,1019,1040,1059,1079,1099,1119,1140,1160,1179,1198,1219,1239,1259,1279,1299,1319,1340,1359,1379,1398,1419,1439,1459,1479,1498],"xSR":741.5,"ySR":573.95,"xT1":424.9,"yT1":0,"xT2":1058.1,"yT2":0,"toosoon":0,"cond_shown":"equaldotsize","ratio_trial":250,"smaller_num":"2","larger_num":"8","correct_side":1,"subjID":"juanitapavamartinez17","gender":"No_gender","age":"11","school":"No_school"},{"start_time":1551901521620,"click_time":1551901522789,"finger_time":1551901521908,"fix_duration":250,"trial":14,"RT":288,"MT":881,"sideResp":1,"stimulus":"img/750/equaldotanddens/L/6_Ratio_750_L_24_R_18.png","xmouse":[782,781,781,781,781,781,781,781,781,781,781,781,781,781,784,786,791,800,811,821,825,830,837,853,863,870,876,881,890,899,899,899,899,866,818,765,728,708,689,674,665,655,639,604,596,594,592,592,591,587,583,581,575,570,562,559,556,552,509],"ymouse":[607,606,606,606,606,604,602,598,595,592,591,589,585,579,561,547,524,494,466,451,448,441,432,412,401,392,384,377,369,359,357,356,354,338,318,300,288,282,276,264,256,242,225,184,174,168,163,156,134,121,111,107,100,95,88,85,82,79,54],"timestamp_mouse":[9,28,57,69,89,108,128,148,169,189,208,228,249,267,288,309,328,348,368,388,409,428,448,468,487,509,528,547,568,589,609,629,648,668,687,709,728,748,768,787,807,827,848,869,887,908,928,949,969,987,1008,1028,1047,1067,1089,1108,1128,1148,1169],"xSR":741.5,"ySR":573.95,"xT1":424.9,"yT1":0,"xT2":1058.1,"yT2":0,"toosoon":0,"cond_shown":"equaldotanddens","ratio_trial":750,"smaller_num":"18","larger_num":"24","correct_side":1,"subjID":"juanitapavamartinez17","gender":"No_gender","age":"11","school":"No_school"},{"start_time":1551901533941,"click_time":1551901534589,"finger_time":1551901534489,"fix_duration":510.2265727558595,"trial":15,"RT":548,"MT":100,"sideResp":1,"stimulus":"img/500/equaldotanddens/L/4_Ratio_500_L_18_R_9.png","xmouse":[796,796,796,796,796,796,796,796,796,796,796,796,796,796,796,796,796,796,796,796,796,796,797,797,797,795,789,728,665,603,549,509,432],"ymouse":[624,624,624,624,624,624,624,624,624,624,624,624,624,624,624,624,624,624,624,624,624,620,617,614,610,601,584,489,409,329,250,179,65],"timestamp_mouse":[8,35,47,68,87,107,127,148,167,186,207,227,248,266,288,307,327,348,366,388,406,428,448,467,487,508,527,548,566,587,607,627,648],"xSR":741.5,"ySR":573.95,"xT1":424.9,"yT1":0,"xT2":1058.1,"yT2":0,"toosoon":0,"cond_shown":"equaldotanddens","ratio_trial":500,"smaller_num":"9","larger_num":"18","correct_side":1,"subjID":"juanitapavamartinez17","gender":"No_gender","age":"11","school":"No_school"},{"start_time":1551901537981,"click_time":1551901538728,"finger_time":1551901538407,"fix_duration":372.58147694326146,"trial":16,"RT":426,"MT":321,"sideResp":1,"stimulus":"img/500/equaldotsize/L/13_Ratio_500_L_12_R_6.png","xmouse":[805,805,806,807,808,810,810,810,810,811,811,811,811,811,811,811,811,811,810,807,805,801,793,782,770,745,725,691,633,602,555,540,520,500,482,448,429],"ymouse":[615,613,612,610,606,602,602,602,602,601,601,601,601,601,601,600,598,596,589,575,569,556,531,493,447,352,292,216,95,44,0,0,0,0,0,0,4],"timestamp_mouse":[27,46,68,87,108,126,146,167,188,208,226,247,266,287,307,326,347,367,388,407,426,447,467,487,506,526,547,567,587,606,626,646,667,687,707,727,746],"xSR":741.5,"ySR":573.95,"xT1":424.9,"yT1":0,"xT2":1058.1,"yT2":0,"toosoon":0,"cond_shown":"equaldotsize","ratio_trial":500,"smaller_num":"6","larger_num":"12","correct_side":1,"subjID":"juanitapavamartinez17","gender":"No_gender","age":"11","school":"No_school"},{"start_time":1551901540340,"click_time":1551901541229,"finger_time":1551901540888,"fix_duration":828.7551709625494,"trial":17,"RT":548,"MT":341,"sideResp":2,"stimulus":"img/900/equaldotsize/R/15_Ratio_900_L_9_R_10.png","xmouse":[780,780,780,780,780,780,780,780,780,780,780,780,780,780,780,780,780,780,780,780,780,780,780,780,780,780,780,783,793,810,834,879,896,974,995,1015,1032,1043,1051,1056,1061,1071,1076,1080,1080],"ymouse":[650,650,650,650,650,650,650,650,650,650,650,650,650,650,650,650,650,650,650,650,650,650,650,649,641,626,607,572,551,521,485,422,401,311,285,260,241,225,201,187,171,145,124,101,95],"timestamp_mouse":[9,28,49,68,88,108,129,148,168,188,208,228,249,267,289,308,328,348,367,387,407,429,448,468,488,509,528,548,567,588,608,629,660,667,688,708,728,748,768,787,807,828,848,867,888],"xSR":741.5,"ySR":573.95,"xT1":424.9,"yT1":0,"xT2":1058.1,"yT2":0,"toosoon":0,"cond_shown":"equaldotsize","ratio_trial":900,"smaller_num":"9","larger_num":"10","correct_side":2,"subjID":"juanitapavamartinez17","gender":"No_gender","age":"11","school":"No_school"},{"start_time":1551901543972,"click_time":1551901545408,"finger_time":1551901544468,"fix_duration":362.93645340006384,"trial":18,"RT":496,"MT":940,"sideResp":1,"stimulus":"img/900/equaldotsize/R/3_Ratio_900_L_9_R_10.png","xmouse":[772,772,772,772,772,772,772,772,772,772,772,772,772,772,772,772,772,769,764,758,749,749,750,758,770,801,814,826,835,842,845,845,844,843,842,842,842,842,844,846,852,854,855,855,855,855,855,855,855,855,855,845,829,811,795,758,721,679,638,572,532,527,525,524,522,519,519,519,519,520,522,524],"ymouse":[654,654,654,654,654,654,654,654,654,654,654,654,654,654,654,654,654,646,631,621,602,601,595,578,553,500,479,463,449,432,406,401,399,397,396,395,391,386,382,376,363,361,359,359,359,359,359,359,359,359,359,355,353,353,353,347,336,329,324,309,305,305,305,305,300,258,198,163,133,119,107,86],"timestamp_mouse":[33,36,56,77,95,117,136,155,176,195,217,235,257,275,295,316,335,356,376,395,417,436,456,477,496,516,535,556,576,596,616,636,657,677,697,716,735,757,777,796,816,835,856,876,896,917,936,957,976,997,1015,1036,1056,1077,1095,1116,1135,1156,1176,1196,1217,1235,1255,1275,1295,1316,1336,1356,1376,1396,1415,1435],"xSR":741.5,"ySR":573.95,"xT1":424.9,"yT1":0,"xT2":1058.1,"yT2":0,"toosoon":0,"cond_shown":"equaldotsize","ratio_trial":900,"smaller_num":"9","larger_num":"10","correct_side":2,"subjID":"juanitapavamartinez17","gender":"No_gender","age":"11","school":"No_school"},{"start_time":1551901547048,"click_time":1551901548408,"finger_time":1551901547808,"fix_duration":657.5746960501993,"trial":19,"RT":760,"MT":600,"sideResp":2,"stimulus":"img/750/equaldotsize/R/7_Ratio_750_L_3_R_4.png","xmouse":[805,805,805,805,805,805,805,805,805,805,805,805,805,805,805,805,805,805,805,805,805,805,805,805,805,805,805,805,803,798,796,793,792,792,792,793,796,803,817,831,844,855,865,868,870,878,892,949,972,994,1010,1025,1035,1052,1061,1065,1068,1069,1071,1076,1078,1080,1081,1082,1082,1082,1083,1083,1082],"ymouse":[617,617,617,617,617,617,617,617,617,617,617,617,617,617,617,617,617,617,617,617,617,617,617,617,617,617,617,617,617,614,612,609,605,599,597,594,590,582,563,544,522,500,477,472,467,457,436,349,314,289,273,259,250,226,218,214,212,211,206,196,185,176,166,162,157,151,141,107,98],"timestamp_mouse":[4,23,41,60,80,100,121,141,160,180,200,220,240,260,281,301,321,341,360,380,401,419,439,459,480,500,521,540,560,580,601,620,640,660,680,700,720,740,760,780,800,820,840,859,881,900,920,940,959,979,1000,1020,1041,1060,1079,1099,1121,1140,1159,1179,1200,1221,1240,1260,1281,1301,1321,1340,1359],"xSR":741.5,"ySR":573.95,"xT1":424.9,"yT1":0,"xT2":1058.1,"yT2":0,"toosoon":0,"cond_shown":"equaldotsize","ratio_trial":750,"smaller_num":"3","larger_num":"4","correct_side":2,"subjID":"juanitapavamartinez17","gender":"No_gender","age":"11","school":"No_school"},{"start_time":1551901549941,"click_time":1551901551289,"finger_time":1551901550548,"fix_duration":432.9743414505568,"trial":20,"RT":607,"MT":741,"sideResp":1,"stimulus":"img/250/equaldotanddens/L/1_Ratio_250_L_8_R_2.png","xmouse":[817,817,817,817,817,817,817,817,817,817,817,817,817,817,817,817,817,817,817,817,817,817,817,817,813,805,798,797,794,789,783,775,729,706,695,692,692,694,698,698,698,688,673,673,673,673,671,663,659,646,630,612,562,542,530,517,503,490,488,488,488,487,487,487,487,487,490,497],"ymouse":[615,615,615,615,615,615,615,615,615,615,615,615,615,615,615,615,615,615,615,615,615,615,615,615,617,617,615,615,602,580,549,502,381,339,312,299,292,263,240,218,200,173,143,143,143,143,142,141,139,135,131,126,118,118,118,118,118,118,118,118,118,118,115,114,112,110,106,91],"timestamp_mouse":[10,28,47,67,86,107,127,148,167,188,206,227,247,268,287,307,326,347,367,388,408,427,448,467,486,507,528,547,567,587,607,627,648,667,687,708,727,747,767,786,807,827,847,866,887,908,926,948,966,987,1006,1027,1048,1067,1087,1107,1127,1148,1167,1187,1207,1227,1246,1267,1287,1307,1326,1348],"xSR":741.5,"ySR":573.95,"xT1":424.9,"yT1":0,"xT2":1058.1,"yT2":0,"toosoon":0,"cond_shown":"equaldotanddens","ratio_trial":250,"smaller_num":"2","larger_num":"8","correct_side":1,"subjID":"juanitapavamartinez17","gender":"No_gender","age":"11","school":"No_school"},{"start_time":1551901552671,"click_time":1551901553988,"finger_time":1551901553328,"fix_duration":522.0961650694663,"trial":21,"RT":657,"MT":660,"sideResp":2,"stimulus":"img/500/equaldotsize/R/15_Ratio_500_L_1_R_2.png","xmouse":[811,812,812,812,812,812,812,812,812,812,812,812,812,812,812,812,812,812,812,812,812,812,812,812,812,812,812,812,812,815,821,825,828,832,841,872,890,899,911,922,937,943,947,952,958,974,978,981,985,991,1008,1017,1022,1026,1030,1039,1041,1042,1043,1045,1050,1053,1057,1063,1071,1095],"ymouse":[622,618,614,614,614,614,614,614,614,614,614,614,614,614,614,614,614,614,614,614,614,614,614,614,614,614,614,609,601,593,581,575,571,565,553,514,484,456,423,399,373,365,357,348,339,308,299,292,283,269,242,229,219,205,192,163,157,153,148,143,130,123,115,108,101,85],"timestamp_mouse":[17,37,57,76,96,117,137,156,178,197,217,237,257,277,298,317,337,356,377,396,417,436,457,478,497,518,536,556,577,597,618,636,657,676,696,718,736,757,777,796,817,837,857,877,897,917,936,957,978,996,1017,1037,1058,1077,1098,1117,1136,1156,1176,1196,1217,1236,1257,1278,1298,1317],"xSR":741.5,"ySR":573.95,"xT1":424.9,"yT1":0,"xT2":1058.1,"yT2":0,"toosoon":0,"cond_shown":"equaldotsize","ratio_trial":500,"smaller_num":"1","larger_num":"2","correct_side":2,"subjID":"juanitapavamartinez17","gender":"No_gender","age":"11","school":"No_school"},{"start_time":1551901556496,"click_time":1551901558288,"finger_time":1551901557088,"fix_duration":526.5157137625372,"trial":22,"RT":592,"MT":1200,"sideResp":1,"stimulus":"img/250/equaldotanddens/L/14_Ratio_250_L_12_R_3.png","xmouse":[815,815,815,815,815,815,815,815,815,815,815,815,815,815,815,815,815,815,815,815,815,815,815,815,815,815,815,812,805,774,750,730,713,703,686,681,679,675,669,656,651,643,633,627,618,607,604,599,592,588,580,578,573,570,568,565,564,563,563,562,560,558,555,554,551,550,549,549,548,548,547,547,547,547,547,545,544,543,542,541,540,539,538,538,536,528,508,489,470,445],"ymouse":[623,623,623,623,623,623,623,623,623,623,623,623,623,623,623,623,623,623,623,623,623,620,619,619,619,619,617,611,599,562,533,514,499,484,455,444,434,421,402,353,336,316,300,292,279,256,244,230,220,214,207,206,203,199,192,182,179,176,175,172,168,163,156,155,149,149,147,147,147,146,145,145,144,144,141,139,138,137,137,135,134,133,132,132,129,124,118,112,105,91],"timestamp_mouse":[22,36,53,73,91,112,133,151,172,192,212,231,252,272,291,312,332,352,371,392,412,432,452,472,493,512,531,552,571,592,612,632,651,672,693,711,732,752,772,793,812,832,852,871,891,912,932,951,972,992,1012,1031,1052,1072,1093,1111,1131,1152,1172,1193,1212,1232,1252,1273,1292,1311,1333,1353,1371,1392,1412,1432,1451,1471,1492,1512,1532,1553,1573,1592,1612,1633,1652,1673,1691,1711,1731,1751,1772,1792],"xSR":741.5,"ySR":573.95,"xT1":424.9,"yT1":0,"xT2":1058.1,"yT2":0,"toosoon":0,"cond_shown":"equaldotanddens","ratio_trial":250,"smaller_num":"3","larger_num":"12","correct_side":1,"subjID":"juanitapavamartinez17","gender":"No_gender","age":"11","school":"No_school"},{"start_time":1551901560374,"click_time":1551901562048,"finger_time":1551901560748,"fix_duration":966.2244274429676,"trial":23,"RT":374,"MT":1300,"sideResp":2,"stimulus":"img/900/equaldotanddens/L/2_Ratio_900_L_20_R_18.png","xmouse":[791,791,791,791,791,791,791,791,791,791,791,791,791,791,791,791,792,796,798,798,798,799,799,799,799,799,799,799,801,806,812,815,815,815,815,815,815,815,816,818,819,819,819,819,819,819,819,819,813,791,783,764,763,758,746,707,679,655,637,627,624,624,629,636,646,663,750,818,881,929,966,972,980,986,996,1005,1020,1027,1032,1035,1043,1047,1052,1060],"ymouse":[640,640,640,640,640,640,640,640,640,640,640,640,640,640,640,639,622,591,568,558,554,552,552,552,552,552,551,549,542,534,525,522,522,522,522,522,522,522,521,519,519,519,519,519,519,519,519,519,508,470,459,435,434,428,418,390,371,357,347,339,326,321,315,311,309,309,292,273,254,234,199,184,163,145,128,113,85,71,62,57,48,46,45,45],"timestamp_mouse":[14,33,54,75,93,114,134,155,174,195,214,234,255,274,295,315,333,354,374,394,414,434,454,474,495,514,534,554,574,594,614,634,654,674,693,715,733,754,774,795,814,834,854,873,893,914,935,954,973,993,1014,1034,1054,1074,1094,1115,1133,1154,1174,1193,1215,1233,1254,1273,1293,1314,1334,1354,1373,1394,1414,1434,1454,1473,1494,1514,1534,1554,1574,1595,1614,1633,1653,1674],"xSR":741.5,"ySR":573.95,"xT1":424.9,"yT1":0,"xT2":1058.1,"yT2":0,"toosoon":0,"cond_shown":"equaldotanddens","ratio_trial":900,"smaller_num":"18","larger_num":"20","correct_side":1,"subjID":"juanitapavamartinez17","gender":"No_gender","age":"11","school":"No_school"},{"start_time":1551901564031,"click_time":1551901565248,"finger_time":1551901564688,"fix_duration":761.9834834806791,"trial":24,"RT":657,"MT":560,"sideResp":1,"stimulus":"img/500/equaldotanddens/L/4_Ratio_500_L_18_R_9.png","xmouse":[770,770,770,770,770,770,770,770,770,770,770,770,770,770,770,770,770,770,770,770,769,767,766,766,766,766,766,766,766,762,761,757,747,738,722,697,657,636,634,634,635,637,637,630,621,608,595,578,558,554,552,552,552,550,549,546,542,536,520,515,513],"ymouse":[593,593,593,593,593,593,593,593,593,593,593,593,593,593,593,593,593,593,593,593,593,591,590,590,590,590,590,590,590,587,585,579,554,526,481,422,348,296,266,241,217,200,189,170,162,153,148,142,137,137,136,136,136,136,136,136,135,132,114,102,91],"timestamp_mouse":[22,36,57,77,97,117,138,157,177,197,216,236,256,277,298,316,337,356,377,398,416,437,458,477,496,517,537,556,577,596,617,636,657,677,696,716,738,758,776,796,816,836,857,877,896,916,938,957,978,996,1017,1037,1058,1076,1097,1117,1137,1157,1176,1196,1217],"xSR":741.5,"ySR":573.95,"xT1":424.9,"yT1":0,"xT2":1058.1,"yT2":0,"toosoon":0,"cond_shown":"equaldotanddens","ratio_trial":500,"smaller_num":"9","larger_num":"18","correct_side":1,"subjID":"juanitapavamartinez17","gender":"No_gender","age":"11","school":"No_school"},{"start_time":1551901568955,"click_time":1551901571688,"finger_time":1551901569428,"fix_duration":1045.0932536665043,"trial":25,"RT":473,"MT":2260,"sideResp":1,"stimulus":"img/750/randomdotsizeEA/L/9_Ratio_750_L_4_R_3.png","xmouse":[797,797,797,797,797,797,797,797,797,797,797,797,797,797,797,797,797,797,797,797,797,795,790,784,778,772,761,757,749,739,728,716,679,657,630,605,577,572,566,560,556,556,556,556,556,560,566,570,567,562,561,554,554,554,554,554,554,554,554,554,554,554,554,554,554,554,554,554,554,554,554,554,554,554,554,554,554,554,554,554,554,554,554,554,554,554,554,554,554,554,554,554,554,554,554,554,554,554,554,554,554,554,554,554,554,554,554,554,554,554,554,554,554,554,554,554,554,554,554,554,554,554,554,554,554,554,554,554,554,554,554,554,553,552,552,552,524],"ymouse":[612,612,612,612,612,612,612,612,612,612,612,612,612,612,612,612,612,612,612,612,612,602,582,566,547,524,484,469,456,440,427,416,400,391,378,364,337,324,305,290,282,278,275,273,262,245,230,135,105,87,80,78,74,74,74,73,73,73,73,73,73,73,73,73,73,73,73,73,73,73,73,73,73,73,73,73,73,73,73,73,73,73,73,73,73,73,73,73,73,73,73,73,73,73,73,73,73,73,73,73,73,73,73,73,73,73,73,73,73,73,73,73,73,73,73,73,73,73,73,73,73,73,73,73,73,73,73,73,73,73,71,69,65,64,64,64,74],"timestamp_mouse":[13,34,53,72,93,112,132,153,174,192,213,234,253,274,292,314,334,353,374,394,413,433,453,473,493,513,533,552,573,594,612,632,653,673,694,712,733,752,773,793,814,833,853,874,892,912,933,954,973,993,1014,1034,1053,1074,1093,1112,1133,1154,1173,1194,1214,1232,1252,1273,1292,1314,1333,1354,1374,1393,1413,1433,1452,1473,1493,1514,1534,1553,1572,1594,1613,1634,1653,1673,1693,1712,1732,1752,1773,1794,1813,1833,1853,1873,1894,1914,1933,1953,1974,1993,2013,2033,2052,2073,2093,2113,2134,2153,2174,2193,2214,2233,2252,2273,2293,2314,2334,2353,2373,2393,2412,2434,2453,2473,2494,2514,2534,2553,2573,2593,2614,2633,2652,2672,2693,2713,2733],"xSR":741.5,"ySR":573.95,"xT1":424.9,"yT1":0,"xT2":1058.1,"yT2":0,"toosoon":0,"cond_shown":"randomdotsizeEA","ratio_trial":750,"smaller_num":"3","larger_num":"4","correct_side":1,"subjID":"juanitapavamartinez17","gender":"No_gender","age":"11","school":"No_school"},{"start_time":1551901574354,"click_time":1551901575908,"finger_time":1551901575188,"fix_duration":1464.7794538901574,"trial":26,"RT":834,"MT":720,"sideResp":2,"stimulus":"img/900/randomdotsizeEA/R/12_Ratio_900_L_18_R_20.png","xmouse":[770,770,770,770,770,770,770,770,770,770,770,770,770,770,770,770,770,770,770,770,770,770,770,770,770,770,770,770,770,770,770,770,770,770,770,770,770,776,785,798,809,826,870,892,909,926,956,968,980,990,998,1013,1017,1024,1031,1041,1068,1086,1099,1106,1110,1114,1115,1115,1115,1115,1115,1115,1114,1112,1111,1108,1108,1108,1108,1107,1110,1113],"ymouse":[642,642,642,642,642,642,642,642,642,642,642,642,642,642,642,642,642,642,642,642,642,642,642,642,642,642,642,642,642,642,642,642,642,642,642,642,642,635,623,604,583,551,499,471,450,429,390,377,363,351,341,320,314,306,296,285,260,244,232,223,214,200,195,189,183,178,170,167,164,160,155,145,139,134,128,121,102,96],"timestamp_mouse":[13,33,54,75,95,115,134,154,175,193,215,235,254,273,295,314,334,354,375,393,414,434,453,475,495,513,535,554,573,594,615,633,654,674,693,714,735,754,774,793,814,834,854,873,893,914,935,954,975,995,1013,1034,1053,1073,1093,1113,1134,1153,1174,1194,1214,1234,1253,1274,1294,1314,1334,1354,1375,1394,1414,1434,1453,1474,1494,1513,1535,1554],"xSR":741.5,"ySR":573.95,"xT1":424.9,"yT1":0,"xT2":1058.1,"yT2":0,"toosoon":0,"cond_shown":"randomdotsizeEA","ratio_trial":900,"smaller_num":"18","larger_num":"20","correct_side":2,"subjID":"juanitapavamartinez17","gender":"No_gender","age":"11","school":"No_school"},{"start_time":1551901578372,"click_time":1551901579468,"finger_time":1551901578868,"fix_duration":1423.3331186431187,"trial":27,"RT":496,"MT":600,"sideResp":2,"stimulus":"img/750/equaldotanddens/R/2_Ratio_750_L_6_R_8.png","xmouse":[761,761,761,761,761,761,761,761,761,761,761,761,761,761,761,761,761,761,761,761,768,772,777,778,779,779,779,780,783,791,799,802,804,806,810,833,859,909,966,1070,1142,1230,1241,1246,1247,1248,1248,1248,1245,1240,1234,1213,1196,1177,1156],"ymouse":[612,612,612,612,612,612,612,612,612,612,612,612,612,612,612,612,612,612,612,611,601,590,581,575,569,565,560,553,546,529,512,505,499,494,488,462,440,401,350,262,203,122,109,101,99,95,93,91,87,85,82,74,67,59,51],"timestamp_mouse":[16,36,56,76,95,117,135,156,176,197,216,235,256,277,295,316,335,356,376,396,417,436,455,476,496,517,536,556,575,596,616,635,655,676,696,716,735,757,776,795,815,835,855,876,896,916,936,956,976,996,1015,1036,1056,1077,1096],"xSR":741.5,"ySR":573.95,"xT1":424.9,"yT1":0,"xT2":1058.1,"yT2":0,"toosoon":0,"cond_shown":"equaldotanddens","ratio_trial":750,"smaller_num":"6","larger_num":"8","correct_side":2,"subjID":"juanitapavamartinez17","gender":"No_gender","age":"11","school":"No_school"},{"start_time":1551901581599,"click_time":1551901583028,"finger_time":1551901582588,"fix_duration":607.4000760532607,"trial":28,"RT":989,"MT":440,"sideResp":2,"stimulus":"img/500/equaldotsize/R/2_Ratio_500_L_3_R_6.png","xmouse":[822,822,822,822,822,822,822,822,822,822,822,822,822,822,822,822,822,822,822,822,822,822,822,822,822,822,822,822,822,822,822,822,822,822,822,822,822,822,822,819,818,818,818,818,818,818,818,823,826,852,901,918,928,942,970,976,980,985,1005,1033,1044,1052,1060,1066,1073,1079,1079,1080,1080,1080,1080,1080],"ymouse":[608,608,608,608,608,608,608,608,608,608,608,608,608,608,608,608,608,608,608,608,608,608,608,608,608,608,608,608,608,608,608,608,608,608,608,608,608,608,608,606,605,605,605,605,605,605,605,605,605,605,593,577,559,540,504,496,486,477,446,394,368,343,315,292,267,220,199,178,157,118,100,86],"timestamp_mouse":[8,34,49,68,90,109,129,148,169,189,208,230,250,268,289,309,330,348,370,390,409,430,449,469,489,509,530,550,569,589,609,630,650,668,688,709,729,749,769,789,809,829,848,870,889,909,929,948,970,989,1009,1029,1049,1069,1090,1109,1130,1148,1168,1189,1209,1229,1249,1270,1288,1308,1329,1350,1369,1389,1409,1429],"xSR":741.5,"ySR":573.95,"xT1":424.9,"yT1":0,"xT2":1058.1,"yT2":0,"toosoon":0,"cond_shown":"equaldotsize","ratio_trial":500,"smaller_num":"3","larger_num":"6","correct_side":2,"subjID":"juanitapavamartinez17","gender":"No_gender","age":"11","school":"No_school"},{"start_time":1551901587304,"click_time":1551901588267,"finger_time":1551901587808,"fix_duration":553.9417498195131,"trial":29,"RT":504,"MT":459,"sideResp":1,"stimulus":"img/500/equaldotanddens/L/7_Ratio_500_L_10_R_5.png","xmouse":[778,778,778,778,778,778,778,778,779,779,779,779,779,779,779,780,780,780,780,780,781,782,783,784,787,787,787,787,783,774,765,754,735,701,659,655,653,652,642,587,556,543,542,542,542,542,539,528,517],"ymouse":[614,614,614,614,614,614,614,614,614,613,613,613,613,613,613,613,613,613,613,613,612,612,611,607,590,542,507,478,457,423,401,374,336,282,230,223,220,213,196,120,85,71,69,69,69,66,56,36,20],"timestamp_mouse":[10,29,44,65,84,104,125,145,164,184,204,224,245,263,285,303,325,344,365,385,404,424,444,464,483,504,523,544,564,584,603,624,645,663,685,703,725,744,764,784,803,824,844,864,885,906,924,944,963],"xSR":741.5,"ySR":573.95,"xT1":424.9,"yT1":0,"xT2":1058.1,"yT2":0,"toosoon":0,"cond_shown":"equaldotanddens","ratio_trial":500,"smaller_num":"5","larger_num":"10","correct_side":1,"subjID":"juanitapavamartinez17","gender":"No_gender","age":"11","school":"No_school"},{"start_time":1551901590484,"click_time":1551901591928,"finger_time":1551901590968,"fix_duration":1055.7150633958956,"trial":30,"RT":484,"MT":960,"sideResp":2,"stimulus":"img/900/randomdotsizeEA/R/13_Ratio_900_L_18_R_20.png","xmouse":[793,793,793,793,793,793,793,793,793,793,793,793,793,793,793,793,793,793,794,795,795,796,800,805,814,824,856,871,886,898,917,926,933,941,947,958,964,974,981,990,1001,1040,1060,1087,1116,1141,1150,1156,1160,1162,1164,1165,1165,1165,1165,1164,1161,1156,1153,1149,1144,1143,1143,1142,1142,1140,1139,1138,1137,1137,1137,1136,1136],"ymouse":[632,632,632,632,632,632,632,632,632,632,632,632,632,632,632,632,631,627,621,615,606,601,592,582,573,562,533,520,508,499,485,476,470,463,456,437,425,412,402,387,366,292,264,236,209,186,177,171,166,164,161,158,158,157,157,153,150,145,141,136,128,125,124,123,122,115,111,108,104,104,103,100,99],"timestamp_mouse":[9,23,43,64,85,104,124,145,164,183,204,223,245,264,283,304,323,343,363,384,405,424,443,463,484,505,523,545,564,583,604,623,644,664,684,704,724,743,765,784,805,823,844,863,884,905,924,944,963,983,1004,1024,1045,1064,1084,1104,1124,1143,1164,1185,1204,1223,1244,1264,1284,1304,1324,1344,1365,1383,1404,1425,1443],"xSR":741.5,"ySR":573.95,"xT1":424.9,"yT1":0,"xT2":1058.1,"yT2":0,"toosoon":0,"cond_shown":"randomdotsizeEA","ratio_trial":900,"smaller_num":"18","larger_num":"20","correct_side":2,"subjID":"juanitapavamartinez17","gender":"No_gender","age":"11","school":"No_school"},{"start_time":1551901593178,"click_time":1551901594428,"finger_time":1551901593849,"fix_duration":250,"trial":31,"RT":671,"MT":579,"sideResp":2,"stimulus":"img/750/equaldotsize/R/11_Ratio_750_L_12_R_16.png","xmouse":[763,766,767,768,769,770,772,776,783,792,793,793,793,793,793,793,793,793,793,793,793,793,793,793,793,793,793,793,794,797,811,828,835,850,875,904,960,981,990,995,1000,1015,1026,1042,1052,1051,1047,1044,1044,1047,1049,1050,1052,1053,1055,1055,1058,1060,1064,1070,1087,1093,1096],"ymouse":[655,651,650,648,648,647,645,641,635,628,624,624,624,624,624,624,624,624,624,624,624,624,624,624,624,624,624,624,625,625,621,609,604,595,576,552,504,484,471,456,434,399,374,342,314,274,254,233,225,216,203,187,181,177,172,169,164,161,154,144,114,102,94],"timestamp_mouse":[15,36,50,71,89,111,129,150,171,190,210,230,251,269,291,310,330,351,370,390,410,430,451,471,489,511,530,550,570,591,609,629,650,671,691,710,729,750,770,790,811,830,850,870,890,910,931,950,969,991,1011,1029,1050,1070,1090,1110,1129,1151,1171,1190,1210,1230,1250],"xSR":741.5,"ySR":573.95,"xT1":424.9,"yT1":0,"xT2":1058.1,"yT2":0,"toosoon":0,"cond_shown":"equaldotsize","ratio_trial":750,"smaller_num":"12","larger_num":"16","correct_side":2,"subjID":"juanitapavamartinez17","gender":"No_gender","age":"11","school":"No_school"},{"start_time":1551901596259,"click_time":1551901598907,"finger_time":1551901596907,"fix_duration":910.4417401595697,"trial":32,"RT":648,"MT":2000,"sideResp":1,"stimulus":"img/250/equaldotsize/L/5_Ratio_250_L_24_R_6.png","xmouse":[827,827,827,827,827,827,827,827,827,827,827,827,827,827,827,827,827,827,827,827,827,827,827,827,827,827,827,827,827,827,827,819,801,772,729,677,632,574,550,531,517,507,499,499,499,499,499,499,499,499,499,499,499,499,499,499,499,499,499,500,501,501,501,501,501,501,501,501,501,501,501,501,501,502,502,502,502,504,504,505,505,505,505,505,505,505,505,505,505,505,505,505,505,505,505,505,505,505,505,505,505,505,505,505,505,505,505,505,505,505,505,505,505,505,505,505,505,505,505,505,505,505,505,505,505,505,505,505,505,505,505,506,512],"ymouse":[611,611,611,611,611,611,611,611,611,611,611,611,611,611,611,611,611,611,611,611,611,611,611,611,611,611,611,611,611,611,611,596,556,501,439,377,330,262,233,206,187,172,154,152,151,151,151,151,151,151,151,151,151,151,151,151,147,145,145,144,141,134,133,133,133,133,133,133,133,133,133,128,122,121,120,119,119,114,114,113,113,113,113,113,113,113,113,113,113,113,113,113,113,113,113,113,113,113,113,113,113,113,113,113,113,113,113,113,113,113,113,113,113,113,113,113,113,113,113,113,113,113,113,113,113,113,113,113,113,113,113,113,94],"timestamp_mouse":[8,34,49,69,89,109,129,149,169,189,210,229,249,269,289,309,330,349,369,389,409,429,448,470,489,509,528,549,569,589,609,629,648,669,689,709,728,748,768,789,809,828,849,869,889,909,929,948,969,989,1009,1029,1048,1069,1090,1110,1130,1149,1170,1189,1208,1229,1249,1269,1289,1310,1329,1349,1368,1390,1410,1429,1448,1469,1489,1509,1529,1549,1569,1589,1610,1629,1649,1669,1689,1708,1730,1748,1770,1788,1809,1830,1849,1870,1890,1908,1929,1948,1969,1989,2010,2029,2048,2069,2089,2109,2130,2149,2170,2190,2209,2229,2249,2269,2289,2308,2329,2349,2369,2389,2409,2429,2448,2469,2489,2509,2530,2549,2569,2589,2610,2629,2648],"xSR":741.5,"ySR":573.95,"xT1":424.9,"yT1":0,"xT2":1058.1,"yT2":0,"toosoon":0,"cond_shown":"equaldotsize","ratio_trial":250,"smaller_num":"6","larger_num":"24","correct_side":1,"subjID":"juanitapavamartinez17","gender":"No_gender","age":"11","school":"No_school"},{"start_time":1551901601661,"click_time":1551901602668,"finger_time":1551901602227,"fix_duration":250,"trial":33,"RT":566,"MT":441,"sideResp":2,"stimulus":"img/900/equaldotsize/L/10_Ratio_900_L_20_R_18.png","xmouse":[788,788,788,788,788,788,788,788,788,788,788,788,788,788,788,788,788,788,788,788,788,788,788,788,788,788,788,788,789,794,800,822,844,874,902,932,969,992,999,1004,1009,1015,1025,1028,1030,1031,1031,1037,1046,1056,1063],"ymouse":[584,584,584,584,584,584,584,584,584,584,584,584,584,584,584,584,584,584,584,584,584,584,584,584,584,584,584,581,572,560,546,476,394,294,184,76,0,0,0,0,0,0,0,0,0,0,0,7,24,37,45],"timestamp_mouse":[10,27,46,67,87,108,128,147,168,188,208,226,247,268,286,306,326,347,368,387,408,428,447,468,488,507,527,546,566,586,607,628,646,667,687,706,727,747,767,787,808,827,847,866,887,908,927,946,967,987,1007],"xSR":741.5,"ySR":573.95,"xT1":424.9,"yT1":0,"xT2":1058.1,"yT2":0,"toosoon":0,"cond_shown":"equaldotsize","ratio_trial":900,"smaller_num":"18","larger_num":"20","correct_side":1,"subjID":"juanitapavamartinez17","gender":"No_gender","age":"11","school":"No_school"},{"start_time":1551901604816,"click_time":1551901606128,"finger_time":1551901605468,"fix_duration":925.1713199075614,"trial":34,"RT":652,"MT":660,"sideResp":2,"stimulus":"img/500/equaldotsize/R/6_Ratio_500_L_9_R_18.png","xmouse":[796,796,796,796,796,796,796,796,796,796,796,796,796,796,796,796,796,796,796,796,796,796,796,796,796,796,796,796,796,799,811,834,875,1008,1057,1079,1087,1089,1090,1092,1094,1096,1098,1100,1100,1100,1100,1098,1045,1016,1002,987,986,985,984,984,984,984,986,986,986,986,987,989,1028,1059],"ymouse":[628,628,628,628,628,628,628,628,628,628,628,628,628,628,628,628,628,628,628,628,628,628,628,628,628,628,628,628,628,614,595,574,543,485,471,463,459,458,456,445,442,436,427,404,391,379,363,301,127,35,6,0,0,0,0,0,0,0,0,0,0,0,0,0,9,19],"timestamp_mouse":[11,33,53,73,92,112,133,152,172,192,212,232,252,273,292,312,331,352,372,391,412,432,452,471,492,513,531,552,573,592,611,632,652,673,692,713,732,752,772,791,812,833,852,872,892,912,933,951,972,991,1013,1032,1053,1073,1091,1113,1132,1151,1172,1192,1212,1232,1253,1272,1292,1312],"xSR":741.5,"ySR":573.95,"xT1":424.9,"yT1":0,"xT2":1058.1,"yT2":0,"toosoon":0,"cond_shown":"equaldotsize","ratio_trial":500,"smaller_num":"9","larger_num":"18","correct_side":2,"subjID":"juanitapavamartinez17","gender":"No_gender","age":"11","school":"No_school"},{"start_time":1551901608021,"click_time":1551901608668,"finger_time":1551901608507,"fix_duration":592.9282126673717,"trial":35,"RT":486,"MT":161,"sideResp":1,"stimulus":"img/500/randomdotsizeEA/L/4_Ratio_500_L_18_R_9.png","xmouse":[811,811,811,811,811,811,811,811,811,811,811,811,811,811,811,811,811,811,811,811,811,811,810,806,780,753,720,683,582,563,543,521,488],"ymouse":[639,639,639,639,639,639,639,639,639,639,639,639,639,639,639,639,639,639,639,639,639,639,639,637,570,513,454,400,281,253,221,172,99],"timestamp_mouse":[11,29,47,68,86,107,127,146,168,187,206,227,246,268,287,308,328,347,367,387,406,427,447,466,486,507,527,547,567,586,608,628,647],"xSR":741.5,"ySR":573.95,"xT1":424.9,"yT1":0,"xT2":1058.1,"yT2":0,"toosoon":0,"cond_shown":"randomdotsizeEA","ratio_trial":500,"smaller_num":"9","larger_num":"18","correct_side":1,"subjID":"juanitapavamartinez17","gender":"No_gender","age":"11","school":"No_school"},{"start_time":1551901610712,"click_time":1551901618089,"finger_time":1551901617907,"fix_duration":543.1376055810337,"trial":36,"RT":7195,"MT":182,"sideResp":2,"stimulus":"img/900/equaldotsize/R/13_Ratio_900_L_18_R_20.png","xmouse":[788,788,788,788,788,788,788,788,788,788,788,788,788,788,788,788,788,788,788,788,788,788,788,788,788,788,788,788,788,788,788,788,788,788,788,788,788,788,788,788,788,788,788,788,788,788,788,788,788,788,788,788,788,788,788,788,788,788,788,788,788,788,788,788,788,788,788,788,788,788,788,788,788,788,788,788,788,788,788,788,788,788,788,788,788,788,788,788,788,788,788,788,788,788,788,788,788,788,788,788,788,788,788,788,788,788,788,788,788,788,788,788,788,788,788,788,788,788,788,788,788,788,788,788,788,788,788,788,788,788,788,788,788,788,788,788,788,788,788,788,788,788,788,788,788,788,788,788,788,788,788,788,788,788,788,788,788,788,788,788,788,788,788,788,788,788,788,788,788,788,788,788,788,788,788,788,788,788,788,788,788,788,788,788,788,788,788,788,788,788,788,788,788,788,788,788,788,788,788,788,788,788,788,788,788,788,788,788,788,788,788,788,788,788,788,788,788,788,788,788,788,788,788,788,788,788,788,788,788,788,788,788,788,788,788,788,788,788,788,788,788,788,788,788,788,788,788,788,788,788,788,788,788,788,788,788,788,788,788,788,788,788,788,788,788,788,788,788,788,788,788,788,788,788,788,788,788,788,788,788,788,788,788,788,788,788,788,788,788,788,788,788,788,788,788,788,788,788,788,788,788,788,788,788,788,788,788,788,788,788,788,788,788,788,788,788,788,788,788,788,788,788,788,788,788,788,788,788,788,788,788,788,788,788,788,788,788,788,788,788,788,788,788,788,788,788,788,788,788,788,788,788,788,788,788,788,788,788,798,860,909,952,976,1015,1028,1042,1059,1066,1082],"ymouse":[637,637,637,637,637,637,637,637,637,637,637,637,637,637,637,637,637,637,637,637,637,637,637,637,637,637,637,637,637,637,637,637,637,637,637,637,637,637,637,637,637,637,637,637,637,637,637,637,637,637,637,637,637,637,637,637,637,637,637,637,637,637,637,637,637,637,637,637,637,637,637,637,637,637,637,637,637,637,637,637,637,637,637,637,637,637,637,637,637,637,637,637,637,637,637,637,637,637,637,637,637,637,637,637,637,637,637,637,637,637,637,637,637,637,637,637,637,637,637,637,637,637,637,637,637,637,637,637,637,637,637,637,637,637,637,637,637,637,637,637,637,637,637,637,637,637,637,637,637,637,637,637,637,637,637,637,637,637,637,637,637,637,637,637,637,637,637,637,637,637,637,637,637,637,637,637,637,637,637,637,637,637,637,637,637,637,637,637,637,637,637,637,637,637,637,637,637,637,637,637,637,637,637,637,637,637,637,637,637,637,637,637,637,637,637,637,637,637,637,637,637,637,637,637,637,637,637,637,637,637,637,637,637,637,637,637,637,637,637,637,637,637,637,637,637,637,637,637,637,637,637,637,637,637,637,637,637,637,637,637,637,637,637,637,637,637,637,637,637,637,637,637,637,637,637,637,637,637,637,637,637,637,637,637,637,637,637,637,637,637,637,637,637,637,637,637,637,637,637,637,637,637,637,637,637,637,637,637,637,637,637,637,637,637,637,637,637,637,637,637,637,637,637,637,637,637,637,637,637,637,637,637,637,637,637,637,637,637,637,637,637,637,637,637,637,637,637,637,637,637,637,637,637,637,637,637,637,629,607,493,415,355,319,244,210,171,135,117,88],"timestamp_mouse":[17,38,56,77,97,116,136,156,176,195,217,237,256,276,296,317,336,356,376,396,417,437,455,477,496,515,537,556,576,595,616,636,656,677,696,716,735,756,776,796,817,835,856,876,895,916,937,956,977,996,1016,1037,1056,1075,1096,1116,1137,1157,1176,1196,1216,1236,1256,1277,1295,1316,1336,1356,1376,1396,1417,1436,1457,1476,1496,1516,1537,1557,1576,1595,1617,1637,1657,1676,1695,1717,1736,1755,1777,1796,1817,1837,1857,1876,1896,1915,1936,1957,1976,1996,2016,2036,2056,2075,2096,2117,2136,2155,2177,2196,2216,2236,2257,2277,2296,2317,2335,2357,2377,2396,2417,2436,2456,2476,2496,2517,2535,2557,2577,2596,2616,2636,2655,2675,2696,2715,2735,2756,2776,2796,2816,2837,2856,2875,2896,2917,2936,2956,2975,2996,3016,3036,3057,3076,3096,3115,3137,3156,3177,3196,3217,3237,3256,3275,3296,3315,3335,3357,3376,3395,3417,3437,3456,3476,3495,3517,3540,3556,3576,3596,3616,3637,3657,3676,3695,3716,3735,3755,3775,3796,3815,3836,3856,3875,3896,3916,3936,3957,3977,3996,4016,4036,4056,4076,4096,4116,4136,4156,4175,4196,4217,4236,4256,4277,4296,4315,4335,4356,4377,4395,4417,4437,4455,4477,4496,4517,4536,4555,4575,4596,4615,4637,4656,4677,4696,4715,4736,4756,4776,4796,4817,4835,4856,4876,4895,4915,4936,4957,4976,4996,5017,5036,5056,5077,5096,5116,5136,5156,5176,5196,5216,5236,5255,5277,5297,5317,5336,5356,5376,5396,5417,5435,5456,5476,5496,5517,5536,5556,5575,5596,5617,5635,5656,5677,5696,5715,5736,5757,5777,5796,5817,5837,5856,5876,5896,5916,5936,5957,5976,5996,6017,6035,6056,6077,6095,6116,6137,6156,6175,6196,6216,6237,6255,6277,6296,6316,6336,6356,6376,6396,6417,6436,6457,6476,6496,6517,6537,6556,6575,6596,6616,6636,6656,6677,6696,6716,6736,6756,6775,6796,6816,6836,6856,6877,6896,6915,6937,6957,6976,6996,7017,7036,7056,7076,7096,7115,7136,7156,7176,7195,7216,7236,7256,7277,7296,7316,7336,7355,7376],"xSR":741.5,"ySR":573.95,"xT1":424.9,"yT1":0,"xT2":1058.1,"yT2":0,"toosoon":0,"cond_shown":"equaldotsize","ratio_trial":900,"smaller_num":"18","larger_num":"20","correct_side":2,"subjID":"juanitapavamartinez17","gender":"No_gender","age":"11","school":"No_school"},{"start_time":1551901620305,"click_time":1551901621408,"finger_time":1551901621048,"fix_duration":1015.0678004707402,"trial":37,"RT":743,"MT":360,"sideResp":1,"stimulus":"img/750/equaldotsize/L/6_Ratio_750_L_24_R_18.png","xmouse":[818,818,818,818,818,818,818,818,818,818,818,818,818,818,818,818,818,818,818,818,818,818,818,818,818,818,818,818,818,818,818,818,818,818,818,818,818,811,806,801,795,791,787,782,764,751,736,716,699,660,632,608,589,563,543,502],"ymouse":[574,574,574,574,574,574,574,574,574,574,574,574,574,574,574,574,574,574,574,574,574,574,574,574,574,574,574,574,574,574,574,574,574,574,574,574,574,563,554,539,524,515,502,486,414,379,349,315,283,215,171,142,121,102,89,67],"timestamp_mouse":[10,29,43,63,83,104,123,142,163,183,203,224,242,263,283,303,323,344,363,383,402,424,444,464,483,504,522,544,564,583,603,622,643,664,683,703,724,743,764,782,802,823,843,864,883,903,922,943,962,983,1002,1023,1043,1063,1083,1103],"xSR":741.5,"ySR":573.95,"xT1":424.9,"yT1":0,"xT2":1058.1,"yT2":0,"toosoon":0,"cond_shown":"equaldotsize","ratio_trial":750,"smaller_num":"18","larger_num":"24","correct_side":1,"subjID":"juanitapavamartinez17","gender":"No_gender","age":"11","school":"No_school"},{"start_time":1551901622480,"click_time":1551901629028,"finger_time":1551901624168,"fix_duration":250,"trial":38,"RT":1688,"MT":4860,"sideResp":1,"stimulus":"img/250/equaldotanddens/L/3_Ratio_250_L_8_R_2.png","xmouse":[817,817,817,817,817,817,817,817,817,817,817,817,817,817,817,817,817,817,817,817,817,817,817,817,817,817,817,817,817,817,817,817,817,817,817,817,817,817,817,817,817,817,817,817,817,817,817,817,817,817,817,817,817,817,817,817,817,817,817,817,817,817,817,817,817,817,817,817,817,817,817,817,817,817,817,811,806,799,793,786,771,765,758,745,729,694,680,671,666,664,664,664,663,660,645,621,611,602,594,591,587,585,583,581,576,563,558,555,548,540,527,520,515,512,509,505,504,503,501,499,492,483,476,468,460,448,434,431,428,425,423,419,417,414,411,401,397,393,390,389,385,379,374,369,366,359,359,358,357,356,348,345,343,342,341,341,341,341,341,341,341,341,341,341,341,341,341,341,341,341,341,341,341,341,341,341,341,341,341,341,341,341,341,341,341,341,341,341,341,341,341,341,341,341,341,341,341,341,341,341,341,341,341,341,341,341,341,341,341,341,341,341,341,341,341,341,341,341,341,341,341,341,341,341,341,341,341,341,341,341,341,341,341,341,341,341,341,341,341,341,341,341,341,341,341,341,341,341,341,341,341,341,341,341,341,341,341,341,341,341,341,341,341,341,341,341,341,341,341,341,341,341,341,341,341,341,341,341,341,341,341,341,341,341,341,341,341,341,341,341,341,341,341,341,341,341,341,341,341,341,341,341,341,341,341,341,338,331,317,304,292,282,281,277,267,253,216,194,168,161,161,162,169,187,232,356,432,501],"ymouse":[644,644,644,644,644,644,644,644,644,644,644,644,644,644,644,644,644,644,644,644,644,644,644,644,644,644,644,644,644,644,644,644,644,644,644,644,644,644,644,644,644,644,644,644,644,644,644,644,644,644,644,644,644,644,644,644,644,644,644,644,644,644,644,644,644,644,644,644,644,644,644,644,644,644,644,644,643,643,643,643,642,641,638,632,624,607,600,597,595,594,594,594,593,591,580,561,552,545,538,535,529,525,522,517,508,482,472,464,452,439,416,406,398,392,387,381,378,376,372,364,348,323,303,280,254,206,147,129,117,104,92,63,45,29,14,0,0,0,0,0,0,0,0,0,0,0,0,0,0,0,0,0,0,0,0,0,0,0,0,0,0,0,0,0,0,0,0,0,0,0,0,0,0,0,0,0,0,0,0,0,0,0,0,0,0,0,0,0,0,0,0,0,0,0,0,0,0,0,0,0,0,0,0,0,0,0,0,0,0,0,0,0,0,0,0,0,0,0,0,0,0,0,0,0,0,0,0,0,0,0,0,0,0,0,0,0,0,0,0,0,0,0,0,0,0,0,0,0,0,0,0,0,0,0,0,0,0,0,0,0,0,0,0,0,0,0,0,0,0,0,0,0,0,0,0,0,0,0,0,0,0,0,0,0,0,0,0,0,0,0,0,0,0,0,0,0,0,0,0,0,0,0,0,0,0,0,0,0,0,0,0,0,0,0,6,14,46,79,115,131,139,139,139,139,134,112,101,89],"timestamp_mouse":[13,35,47,69,88,107,128,149,168,188,208,228,249,267,288,309,328,349,369,388,408,427,449,469,489,509,527,548,569,589,608,628,649,667,688,708,727,749,769,789,808,828,848,869,888,908,928,948,969,988,1009,1028,1049,1068,1089,1109,1128,1149,1169,1188,1208,1228,1248,1267,1288,1308,1328,1349,1368,1388,1408,1427,1449,1468,1489,1508,1527,1547,1568,1588,1608,1627,1649,1668,1688,1708,1728,1747,1768,1789,1809,1828,1849,1869,1887,1909,1927,1948,1968,1988,2008,2027,2047,2068,2089,2108,2128,2149,2168,2187,2208,2227,2249,2268,2288,2308,2328,2349,2369,2387,2407,2427,2447,2467,2489,2509,2528,2549,2568,2589,2608,2627,2649,2668,2688,2709,2728,2749,2769,2789,2808,2828,2849,2868,2889,2908,2928,2947,2968,2988,3008,3027,3048,3069,3089,3109,3128,3148,3168,3187,3209,3227,3248,3267,3288,3308,3329,3348,3369,3388,3408,3428,3449,3468,3489,3508,3527,3548,3568,3589,3609,3628,3649,3668,3687,3708,3727,3747,3768,3789,3808,3829,3848,3869,3888,3909,3927,3948,3969,3988,4007,4028,4049,4067,4088,4108,4128,4148,4168,4188,4209,4229,4248,4267,4288,4309,4327,4348,4369,4388,4409,4428,4449,4469,4488,4508,4527,4548,4568,4588,4608,4628,4649,4668,4689,4708,4728,4749,4768,4788,4809,4828,4849,4869,4888,4908,4927,4949,4968,4988,5009,5028,5049,5069,5088,5107,5129,5148,5169,5188,5208,5228,5248,5269,5288,5308,5328,5348,5369,5388,5407,5428,5448,5468,5487,5509,5528,5547,5568,5588,5609,5627,5647,5667,5688,5709,5729,5748,5769,5788,5808,5829,5848,5869,5887,5909,5928,5948,5967,5988,6008,6028,6047,6069,6089,6108,6128,6148,6169,6187,6207,6227,6249,6267,6287,6307,6328,6347,6369,6389,6408,6428,6448,6469,6488,6508,6528,6547],"xSR":741.5,"ySR":573.95,"xT1":424.9,"yT1":0,"xT2":1058.1,"yT2":0,"toosoon":0,"cond_shown":"equaldotanddens","ratio_trial":250,"smaller_num":"2","larger_num":"8","correct_side":1,"subjID":"juanitapavamartinez17","gender":"No_gender","age":"11","school":"No_school"},{"start_time":1551901631867,"click_time":1551901632848,"finger_time":1551901632227,"fix_duration":558.5565943253252,"trial":39,"RT":360,"MT":621,"sideResp":2,"stimulus":"img/900/equaldotsize/R/12_Ratio_900_L_18_R_20.png","xmouse":[810,810,810,810,810,810,810,810,810,810,810,810,810,810,810,810,809,804,801,799,798,798,798,798,799,801,801,804,808,819,836,862,918,944,970,987,1008,1022,1029,1036,1044,1050,1053,1057,1063,1069,1073,1075,1076,1076],"ymouse":[620,620,620,620,620,620,620,620,620,620,620,620,620,620,620,619,614,575,558,548,542,528,521,513,500,486,471,462,451,431,409,385,346,330,315,300,283,257,242,229,215,189,177,166,156,145,124,105,100,96],"timestamp_mouse":[10,21,41,62,81,101,122,141,160,180,201,222,241,262,282,300,321,341,360,381,401,421,441,462,482,501,521,540,560,580,601,622,641,661,680,701,720,740,761,782,802,821,841,862,880,902,921,941,961,981],"xSR":741.5,"ySR":573.95,"xT1":424.9,"yT1":0,"xT2":1058.1,"yT2":0,"toosoon":0,"cond_shown":"equaldotsize","ratio_trial":900,"smaller_num":"18","larger_num":"20","correct_side":2,"subjID":"juanitapavamartinez17","gender":"No_gender","age":"11","school":"No_school"},{"start_time":1551901633942,"click_time":1551901639668,"finger_time":1551901639268,"fix_duration":250,"trial":40,"RT":5326,"MT":400,"sideResp":2,"stimulus":"img/500/equaldotsize/L/5_Ratio_500_L_4_R_2.png","xmouse":[751,751,751,751,751,751,750,749,748,748,748,748,748,748,748,748,748,748,748,748,748,748,748,748,748,748,748,748,748,748,748,748,748,748,748,748,748,748,748,748,748,748,748,748,748,748,748,748,748,748,748,748,748,748,748,748,748,748,748,748,748,748,748,748,748,748,748,748,748,748,748,748,748,748,748,748,748,748,748,748,748,748,748,748,748,748,748,748,748,748,748,748,748,748,748,748,748,748,748,748,748,748,748,748,748,748,748,748,748,748,748,748,748,748,748,748,748,748,748,748,748,748,748,748,748,748,748,748,748,748,748,748,748,748,748,748,748,748,748,748,748,748,748,748,748,748,748,748,748,748,748,748,748,748,748,748,748,748,748,748,748,748,748,748,748,748,748,748,748,748,748,748,748,748,748,748,748,748,748,748,748,748,748,748,748,748,748,748,748,748,748,748,748,748,750,754,756,762,764,764,764,764,765,773,781,789,795,801,801,801,801,801,801,801,801,801,801,801,801,801,801,801,801,801,801,801,801,801,801,801,801,801,801,801,801,801,801,801,801,801,801,801,801,801,801,801,801,801,801,801,801,801,801,801,801,801,801,801,801,801,801,801,801,802,803,803,803,803,803,803,803,797,777,772,771,770,773,779,791,810,843,907,1019,1113,1127,1130,1131],"ymouse":[626,626,626,626,626,626,627,627,628,628,628,628,628,628,628,628,628,628,628,628,628,628,628,628,628,628,628,628,628,628,628,628,628,628,628,628,628,628,628,628,628,628,628,628,628,628,628,628,628,628,628,628,628,628,628,628,628,628,628,628,628,628,628,628,628,628,628,628,628,628,628,628,628,628,628,628,628,628,628,628,628,628,628,628,628,628,628,628,628,628,628,628,628,628,628,628,628,628,628,628,628,628,628,628,628,628,628,628,628,628,628,628,628,628,628,628,628,628,628,628,628,628,628,628,628,628,628,628,628,628,628,628,628,628,628,628,628,628,628,628,628,628,628,628,628,628,628,628,628,628,628,628,628,628,628,628,628,628,628,628,628,628,628,628,628,628,628,628,628,628,628,628,628,628,628,628,628,628,628,628,628,628,628,628,628,628,628,628,628,628,628,628,628,628,628,630,631,635,636,636,636,636,636,637,637,638,638,637,637,637,636,636,636,636,636,636,636,636,636,636,636,636,636,636,636,636,636,636,636,636,636,636,636,636,636,636,636,636,636,636,636,636,636,636,636,636,636,636,636,636,636,636,636,636,636,636,636,636,636,636,636,636,635,622,606,574,514,441,327,303,288,271,225,207,195,185,180,173,168,163,158,146,130,113,104,100,97],"timestamp_mouse":[8,32,46,66,85,105,125,146,166,187,205,226,245,266,286,306,326,347,366,387,406,427,447,466,487,505,526,547,566,585,606,627,646,666,687,706,726,745,766,787,805,827,846,866,885,906,926,947,966,985,1007,1026,1046,1066,1086,1106,1127,1146,1165,1187,1207,1226,1247,1266,1287,1306,1326,1347,1366,1387,1406,1427,1446,1466,1486,1506,1525,1547,1566,1586,1607,1627,1646,1666,1686,1706,1727,1747,1765,1786,1806,1827,1847,1866,1887,1906,1925,1946,1966,1986,2006,2026,2047,2066,2087,2106,2126,2145,2166,2186,2205,2227,2246,2266,2287,2306,2327,2347,2366,2387,2407,2426,2446,2467,2485,2507,2525,2545,2566,2587,2605,2626,2646,2666,2685,2706,2726,2745,2766,2785,2806,2826,2847,2867,2887,2907,2926,2946,2966,2986,3006,3026,3047,3066,3086,3106,3126,3147,3166,3185,3206,3226,3247,3265,3287,3307,3327,3347,3366,3385,3406,3427,3446,3466,3486,3507,3526,3546,3565,3587,3607,3627,3647,3666,3687,3706,3727,3746,3766,3785,3806,3825,3847,3866,3885,3907,3926,3946,3966,3986,4005,4026,4046,4066,4086,4106,4127,4147,4166,4186,4206,4227,4247,4266,4285,4306,4326,4347,4366,4386,4406,4425,4447,4466,4487,4506,4526,4546,4566,4586,4606,4625,4646,4666,4686,4707,4726,4746,4766,4787,4806,4825,4845,4865,4887,4906,4926,4946,4966,4987,5007,5026,5047,5065,5086,5107,5126,5147,5166,5185,5206,5226,5246,5265,5285,5306,5326,5346,5365,5386,5406,5427,5446,5465,5487,5506,5525,5546,5566,5586,5605,5625,5645,5665,5685,5705,5726],"xSR":741.5,"ySR":573.95,"xT1":424.9,"yT1":0,"xT2":1058.1,"yT2":0,"toosoon":0,"cond_shown":"equaldotsize","ratio_trial":500,"smaller_num":"2","larger_num":"4","correct_side":1,"subjID":"juanitapavamartinez17","gender":"No_gender","age":"11","school":"No_school"},{"start_time":1551901641698,"click_time":1551901643108,"finger_time":1551901642348,"fix_duration":1107.4989243011053,"trial":41,"RT":650,"MT":760,"sideResp":2,"stimulus":"img/900/equaldotanddens/L/4_Ratio_900_L_20_R_18.png","xmouse":[803,803,803,803,803,803,803,803,803,803,803,803,803,803,803,803,803,803,803,803,803,803,803,803,803,803,803,803,803,803,803,805,809,809,801,797,797,797,798,799,800,805,821,850,959,1003,1034,1052,1066,1078,1086,1096,1112,1142,1186,1197,1202,1203,1204,1206,1206,1206,1201,1192,1174,1168,1165,1164,1164,1163,1158],"ymouse":[606,606,606,606,606,606,606,606,606,606,606,606,606,606,606,606,606,606,606,606,606,606,606,606,606,606,606,606,606,606,606,592,566,530,438,415,404,400,399,398,398,397,394,389,372,365,354,349,340,329,321,306,289,255,204,186,170,159,151,138,124,112,95,71,38,21,18,18,18,18,15],"timestamp_mouse":[11,34,50,71,91,110,131,151,170,191,210,231,251,270,290,310,330,351,369,391,410,431,451,471,491,510,530,550,570,591,609,631,650,671,690,709,731,750,771,791,810,830,851,870,890,909,930,951,971,990,1009,1031,1050,1070,1090,1110,1129,1151,1171,1190,1210,1230,1251,1270,1290,1310,1330,1350,1371,1389,1410],"xSR":741.5,"ySR":573.95,"xT1":424.9,"yT1":0,"xT2":1058.1,"yT2":0,"toosoon":0,"cond_shown":"equaldotanddens","ratio_trial":900,"smaller_num":"18","larger_num":"20","correct_side":1,"subjID":"juanitapavamartinez17","gender":"No_gender","age":"11","school":"No_school"},{"start_time":1551901644654,"click_time":1551901645728,"finger_time":1551901645307,"fix_duration":284.1459889266149,"trial":42,"RT":653,"MT":421,"sideResp":1,"stimulus":"img/900/randomdotsizeEA/R/5_Ratio_900_L_9_R_10.png","xmouse":[782,782,782,782,782,782,782,782,782,782,782,782,782,782,782,782,782,782,782,782,782,782,782,782,782,782,782,782,782,782,781,779,761,733,702,685,675,668,663,657,651,643,623,616,608,597,585,552,539,532,527,525,525,524],"ymouse":[587,587,587,587,587,587,587,587,587,587,587,587,587,587,587,587,587,587,587,587,587,587,587,587,587,587,587,587,587,587,587,582,531,472,418,389,370,354,337,316,290,264,221,209,194,173,150,81,60,45,40,37,37,35],"timestamp_mouse":[15,34,54,74,94,115,135,153,174,194,214,235,254,274,294,314,335,354,375,394,414,435,454,474,494,514,534,554,574,594,614,633,653,674,695,713,733,754,774,794,814,834,854,875,894,913,934,953,975,994,1014,1033,1054,1074],"xSR":741.5,"ySR":573.95,"xT1":424.9,"yT1":0,"xT2":1058.1,"yT2":0,"toosoon":0,"cond_shown":"randomdotsizeEA","ratio_trial":900,"smaller_num":"9","larger_num":"10","correct_side":2,"subjID":"juanitapavamartinez17","gender":"No_gender","age":"11","school":"No_school"},{"start_time":1551901647882,"click_time":1551901648828,"finger_time":1551901648508,"fix_duration":1053.4590920791238,"trial":43,"RT":626,"MT":320,"sideResp":1,"stimulus":"img/250/equaldotsize/L/7_Ratio_250_L_8_R_2.png","xmouse":[803,803,803,803,803,803,803,803,803,803,803,803,803,803,803,803,803,803,803,803,803,803,803,803,803,803,803,803,803,803,792,765,739,710,677,575,550,532,521,513,501,497,491,487,485,483,482,482],"ymouse":[650,650,650,650,650,650,650,650,650,650,650,650,650,650,650,650,650,650,650,650,650,650,650,650,650,650,650,650,650,643,574,512,455,405,356,231,207,193,183,173,159,150,136,126,116,108,102,99],"timestamp_mouse":[11,33,46,66,86,106,126,146,166,185,206,226,247,267,286,306,325,346,367,386,407,426,447,466,485,506,526,546,567,586,606,626,647,667,687,706,726,746,767,787,806,826,846,867,886,905,926,946],"xSR":741.5,"ySR":573.95,"xT1":424.9,"yT1":0,"xT2":1058.1,"yT2":0,"toosoon":0,"cond_shown":"equaldotsize","ratio_trial":250,"smaller_num":"2","larger_num":"8","correct_side":1,"subjID":"juanitapavamartinez17","gender":"No_gender","age":"11","school":"No_school"},{"start_time":1551901651172,"click_time":1551901652369,"finger_time":1551901651788,"fix_duration":1242.7663819485438,"trial":44,"RT":616,"MT":581,"sideResp":2,"stimulus":"img/750/equaldotanddens/R/3_Ratio_750_L_15_R_20.png","xmouse":[789,789,789,789,789,789,789,789,789,789,789,789,789,789,789,789,789,789,789,789,789,789,789,787,784,780,777,777,777,779,797,849,870,886,899,915,923,928,939,949,976,985,994,1004,1013,1031,1041,1047,1052,1053,1060,1064,1066,1068,1070,1072,1078,1079,1079,1080],"ymouse":[611,611,611,611,611,611,611,611,611,611,611,611,611,611,611,611,611,611,611,611,611,611,611,611,607,597,592,592,589,582,551,465,434,413,401,385,376,368,352,338,304,295,282,265,250,222,209,202,196,190,175,166,159,151,142,133,112,108,103,97],"timestamp_mouse":[16,36,55,77,96,116,136,157,176,195,217,237,255,276,297,316,336,356,377,397,416,436,456,476,495,515,536,556,575,595,616,636,656,676,696,717,736,755,776,796,816,836,857,877,896,916,937,956,976,996,1016,1036,1056,1076,1097,1116,1136,1157,1176,1197],"xSR":741.5,"ySR":573.95,"xT1":424.9,"yT1":0,"xT2":1058.1,"yT2":0,"toosoon":0,"cond_shown":"equaldotanddens","ratio_trial":750,"smaller_num":"15","larger_num":"20","correct_side":2,"subjID":"juanitapavamartinez17","gender":"No_gender","age":"11","school":"No_school"},{"start_time":1551901654169,"click_time":1551901655789,"finger_time":1551901655208,"fix_duration":840.1300744380384,"trial":45,"RT":1039,"MT":581,"sideResp":2,"stimulus":"img/900/randomdotsizeEA/L/8_Ratio_900_L_20_R_18.png","xmouse":[819,819,819,819,819,819,819,819,819,819,819,819,819,819,819,819,819,819,819,819,819,819,819,819,819,818,818,818,818,818,818,818,818,818,818,818,818,818,818,818,818,818,817,817,816,816,816,816,816,816,835,860,897,933,961,981,997,1000,1001,1005,1014,1017,1021,1024,1029,1039,1044,1046,1049,1050,1052,1053,1053,1053,1054,1059,1062,1065,1070,1083,1099],"ymouse":[657,654,654,654,654,654,654,654,654,654,654,654,654,654,654,654,654,654,651,649,647,641,640,640,640,638,638,637,636,636,636,636,636,636,636,636,636,636,636,636,636,636,636,636,637,637,637,637,637,637,634,624,609,593,578,563,543,533,523,507,457,433,404,378,342,276,250,233,219,203,192,187,183,177,171,156,149,141,130,113,88],"timestamp_mouse":[19,39,60,80,100,120,139,159,179,199,219,238,259,280,300,320,339,360,378,399,418,439,459,480,498,519,538,559,579,599,619,639,659,680,699,718,738,760,779,799,819,839,858,879,899,919,939,959,980,999,1019,1039,1059,1078,1098,1120,1139,1159,1179,1199,1219,1238,1260,1279,1299,1319,1339,1360,1379,1399,1419,1438,1459,1479,1499,1519,1538,1560,1579,1600,1620],"xSR":741.5,"ySR":573.95,"xT1":424.9,"yT1":0,"xT2":1058.1,"yT2":0,"toosoon":0,"cond_shown":"randomdotsizeEA","ratio_trial":900,"smaller_num":"18","larger_num":"20","correct_side":1,"subjID":"juanitapavamartinez17","gender":"No_gender","age":"11","school":"No_school"},{"start_time":1551901656961,"click_time":1551901659029,"finger_time":1551901657769,"fix_duration":250,"trial":46,"RT":808,"MT":1260,"sideResp":2,"stimulus":"img/500/randomdotsizeEA/R/14_Ratio_500_L_5_R_10.png","xmouse":[804,804,804,804,804,804,804,804,804,804,804,804,804,804,804,804,804,804,804,804,804,804,804,804,804,804,804,804,804,804,804,804,804,804,804,804,804,804,804,804,799,780,750,728,707,688,652,636,612,578,557,531,512,507,505,504,500,500,500,500,501,501,503,503,503,503,503,503,503,503,504,505,509,513,516,517,526,534,575,600,666,712,733,756,783,812,871,906,944,970,995,1001,1008,1014,1021,1026,1036,1041,1043,1049,1056,1065,1067,1069],"ymouse":[591,591,591,591,591,591,591,591,591,591,591,591,591,591,591,591,591,591,591,591,591,591,591,591,591,591,591,591,591,591,591,591,591,591,591,591,591,591,591,586,573,532,473,442,416,397,370,358,340,317,302,283,260,249,240,229,204,196,189,185,179,175,166,165,164,164,164,164,164,164,164,164,165,168,171,172,180,185,203,214,249,282,297,312,325,332,337,337,334,326,311,298,271,251,230,216,181,166,154,138,119,105,101,98],"timestamp_mouse":[8,28,46,67,89,107,126,147,167,187,207,228,247,266,287,307,327,347,367,387,407,426,447,466,487,507,528,547,568,586,607,628,646,667,688,708,727,747,767,787,808,827,846,866,888,907,927,947,967,987,1008,1027,1048,1068,1087,1108,1126,1147,1168,1187,1207,1227,1247,1267,1287,1307,1327,1347,1368,1387,1408,1426,1448,1467,1487,1508,1526,1548,1567,1587,1607,1627,1647,1667,1688,1708,1726,1747,1767,1788,1808,1827,1847,1867,1888,1908,1926,1947,1966,1987,2007,2027,2047,2068],"xSR":741.5,"ySR":573.95,"xT1":424.9,"yT1":0,"xT2":1058.1,"yT2":0,"toosoon":0,"cond_shown":"randomdotsizeEA","ratio_trial":500,"smaller_num":"5","larger_num":"10","correct_side":2,"subjID":"juanitapavamartinez17","gender":"No_gender","age":"11","school":"No_school"},{"start_time":1551901663513,"click_time":1551901665288,"finger_time":1551901664128,"fix_duration":1302.2836729707526,"trial":47,"RT":615,"MT":1160,"sideResp":1,"stimulus":"img/250/equaldotsize/L/7_Ratio_250_L_8_R_2.png","xmouse":[800,800,800,800,800,800,800,800,800,800,800,800,800,800,800,800,800,800,800,800,800,800,800,796,785,781,777,774,768,760,731,706,698,657,643,632,624,618,615,610,606,595,589,587,586,585,585,585,584,584,583,580,576,576,575,571,569,566,564,564,564,562,555,520,504,494,486,482,481,481,481,480,480,480,483,487,494,502,510,512,513,515,515,515,515,515,515,515,511],"ymouse":[589,589,589,589,589,589,589,589,589,589,589,589,589,589,589,589,589,589,589,589,589,589,592,604,634,642,648,651,655,655,655,616,447,323,303,288,274,263,251,225,209,189,178,168,164,162,157,154,150,148,146,140,133,131,127,120,118,114,111,111,111,111,114,135,144,149,151,152,152,152,152,152,150,146,144,142,138,134,127,125,124,122,119,116,115,115,114,112,97],"timestamp_mouse":[15,35,55,75,96,115,136,155,175,195,215,235,256,275,295,315,335,355,375,395,415,435,455,475,494,515,535,555,575,595,615,636,655,675,695,715,736,755,775,795,815,834,856,875,894,915,936,956,975,994,1016,1035,1054,1074,1095,1114,1136,1155,1175,1195,1214,1235,1255,1275,1295,1315,1334,1354,1376,1395,1415,1435,1455,1475,1495,1515,1535,1556,1575,1594,1614,1635,1655,1675,1694,1715,1736,1756,1775],"xSR":741.5,"ySR":573.95,"xT1":424.9,"yT1":0,"xT2":1058.1,"yT2":0,"toosoon":0,"cond_shown":"equaldotsize","ratio_trial":250,"smaller_num":"2","larger_num":"8","correct_side":1,"subjID":"juanitapavamartinez17","gender":"No_gender","age":"11","school":"No_school"},{"start_time":1551901667394,"click_time":1551901668549,"finger_time":1551901667889,"fix_duration":303.4688918784655,"trial":48,"RT":495,"MT":660,"sideResp":1,"stimulus":"img/250/equaldotsize/L/2_Ratio_250_L_16_R_4.png","xmouse":[797,797,797,797,797,797,797,797,797,797,797,797,797,797,797,797,797,797,797,797,797,797,794,784,727,530,490,459,436,405,388,371,358,342,316,310,309,309,309,310,312,317,321,323,330,335,340,343,354,364,382,386,388,391,395,403,421,441],"ymouse":[639,639,639,639,639,639,639,639,639,639,639,639,639,639,639,639,639,639,639,639,639,639,638,636,624,555,504,437,363,186,152,134,124,113,93,86,84,84,83,77,74,71,69,68,67,67,67,67,68,68,68,68,67,65,65,64,63,62],"timestamp_mouse":[14,35,54,73,94,114,135,155,173,194,214,235,253,274,293,314,334,355,373,395,414,433,454,473,494,514,535,553,574,594,613,634,654,674,694,714,735,754,774,794,814,835,855,874,894,914,934,955,974,993,1014,1033,1055,1075,1094,1114,1134,1155],"xSR":741.5,"ySR":573.95,"xT1":424.9,"yT1":0,"xT2":1058.1,"yT2":0,"toosoon":0,"cond_shown":"equaldotsize","ratio_trial":250,"smaller_num":"4","larger_num":"16","correct_side":1,"subjID":"juanitapavamartinez17","gender":"No_gender","age":"11","school":"No_school"},{"start_time":1551901670339,"click_time":1551901672047,"finger_time":1551901670889,"fix_duration":789.9769698384878,"trial":49,"RT":550,"MT":1158,"sideResp":2,"stimulus":"img/500/randomdotsizeEA/R/15_Ratio_500_L_1_R_2.png","xmouse":[812,812,812,812,812,812,812,812,812,812,812,812,812,812,812,812,812,812,812,812,812,812,812,812,812,812,812,823,830,836,840,842,848,854,864,873,880,895,903,911,915,916,916,916,916,916,917,918,918,918,918,919,917,913,910,903,900,899,899,899,900,901,913,920,928,936,946,956,979,988,994,999,1003,1006,1006,1006,1006,1006,1006,1006,1006,1006,1007,1026,1058,1086],"ymouse":[591,591,591,591,591,591,591,591,591,591,591,591,591,591,591,591,591,591,591,591,591,591,591,591,591,586,579,547,529,515,503,499,483,476,465,457,451,437,427,415,410,409,409,407,405,403,399,398,397,396,395,390,365,357,346,330,309,265,247,232,222,217,195,186,175,166,160,152,133,124,118,112,106,101,101,101,101,101,101,101,101,101,100,100,101,97],"timestamp_mouse":[9,29,49,70,89,108,129,150,169,189,209,229,249,269,289,309,330,349,369,389,408,430,450,468,490,509,528,550,568,589,610,629,649,669,689,710,729,749,769,789,810,829,848,868,890,909,929,949,969,989,1009,1030,1049,1068,1090,1110,1128,1149,1168,1189,1208,1229,1249,1268,1289,1308,1329,1349,1368,1389,1408,1429,1448,1470,1489,1509,1529,1549,1568,1589,1609,1630,1649,1669,1690,1708],"xSR":741.5,"ySR":573.95,"xT1":424.9,"yT1":0,"xT2":1058.1,"yT2":0,"toosoon":0,"cond_shown":"randomdotsizeEA","ratio_trial":500,"smaller_num":"1","larger_num":"2","correct_side":2,"subjID":"juanitapavamartinez17","gender":"No_gender","age":"11","school":"No_school"},{"start_time":1551901674374,"click_time":1551901675288,"finger_time":1551901675108,"fix_duration":884.5419538653956,"trial":50,"RT":734,"MT":180,"sideResp":1,"stimulus":"img/500/equaldotsize/L/4_Ratio_500_L_18_R_9.png","xmouse":[768,768,768,768,768,768,768,768,768,768,768,768,768,768,768,768,768,768,768,768,768,768,768,768,768,768,768,768,768,768,768,768,768,768,768,762,738,704,666,615,557,540,528,517,509,501],"ymouse":[601,601,601,601,601,601,601,601,601,601,601,601,601,601,601,601,601,601,601,601,601,601,601,601,601,601,601,601,601,601,601,601,601,601,601,574,498,425,368,296,207,176,148,123,100,54],"timestamp_mouse":[13,39,54,75,94,115,133,154,174,195,215,234,254,273,294,314,334,353,375,394,414,434,454,475,494,514,534,554,574,594,614,634,654,674,694,714,734,754,774,793,814,833,853,875,893,914],"xSR":741.5,"ySR":573.95,"xT1":424.9,"yT1":0,"xT2":1058.1,"yT2":0,"toosoon":0,"cond_shown":"equaldotsize","ratio_trial":500,"smaller_num":"9","larger_num":"18","correct_side":1,"subjID":"juanitapavamartinez17","gender":"No_gender","age":"11","school":"No_school"},{"start_time":1551901676581,"click_time":1551901677888,"finger_time":1551901677408,"fix_duration":250,"trial":51,"RT":827,"MT":480,"sideResp":2,"stimulus":"img/750/equaldotsize/R/11_Ratio_750_L_12_R_16.png","xmouse":[822,822,822,822,822,822,822,822,822,822,822,822,822,822,822,822,822,822,822,822,822,822,822,822,822,822,822,822,822,822,822,822,823,823,823,823,823,823,823,823,835,854,877,911,957,1057,1090,1113,1136,1152,1172,1177,1183,1190,1196,1200,1201,1201,1199,1198,1198,1197,1191,1179,1168,1147],"ymouse":[671,671,671,671,671,671,671,671,671,671,671,671,671,671,671,671,671,671,671,671,671,671,671,671,671,671,671,671,671,671,671,669,668,668,667,667,667,667,667,666,655,641,624,597,554,420,359,302,236,177,100,84,71,60,51,40,18,8,3,0,0,0,0,1,5,15],"timestamp_mouse":[11,34,47,67,87,108,127,148,168,188,207,228,247,267,287,307,327,347,366,387,408,427,448,467,487,508,527,547,566,588,608,628,647,666,688,707,727,747,768,786,808,827,847,867,888,907,926,946,967,987,1007,1027,1047,1067,1087,1107,1126,1147,1168,1187,1207,1227,1247,1267,1288,1307],"xSR":741.5,"ySR":573.95,"xT1":424.9,"yT1":0,"xT2":1058.1,"yT2":0,"toosoon":0,"cond_shown":"equaldotsize","ratio_trial":750,"smaller_num":"12","larger_num":"16","correct_side":2,"subjID":"juanitapavamartinez17","gender":"No_gender","age":"11","school":"No_school"},{"start_time":1551901679705,"click_time":1551901681288,"finger_time":1551901680529,"fix_duration":1215.5542981472136,"trial":52,"RT":824,"MT":759,"sideResp":1,"stimulus":"img/250/randomdotsizeEA/L/2_Ratio_250_L_16_R_4.png","xmouse":[748,748,748,748,748,748,748,748,748,748,748,748,748,748,748,748,748,748,748,748,748,748,748,748,748,748,748,748,748,748,748,748,748,748,748,748,748,748,748,748,744,734,723,709,694,685,676,666,659,647,641,632,621,613,590,585,584,584,583,581,580,573,568,566,566,564,554,545,541,540,540,540,540,540,540,540,540,540,537,511],"ymouse":[635,635,635,635,635,635,635,635,635,635,635,635,635,635,635,635,635,635,635,635,635,635,635,635,635,635,635,635,635,635,635,635,635,635,635,635,635,635,635,635,610,582,563,543,520,503,484,466,450,423,408,393,373,356,285,266,255,245,241,236,231,216,203,201,196,174,150,128,112,107,104,104,104,104,104,104,104,102,96,62],"timestamp_mouse":[12,24,43,64,83,103,123,142,164,184,203,224,243,262,284,302,323,342,364,383,403,423,444,463,484,502,522,543,563,584,603,623,643,663,684,702,724,743,762,783,803,824,843,863,883,903,923,944,962,983,1003,1024,1044,1063,1083,1103,1122,1144,1164,1183,1202,1223,1244,1263,1282,1303,1323,1344,1363,1384,1404,1424,1444,1463,1484,1502,1522,1542,1563,1583],"xSR":741.5,"ySR":573.95,"xT1":424.9,"yT1":0,"xT2":1058.1,"yT2":0,"toosoon":0,"cond_shown":"randomdotsizeEA","ratio_trial":250,"smaller_num":"4","larger_num":"16","correct_side":1,"subjID":"juanitapavamartinez17","gender":"No_gender","age":"11","school":"No_school"},{"start_time":1551901684572,"click_time":1551901685768,"finger_time":1551901685269,"fix_duration":402.90917759030134,"trial":53,"RT":697,"MT":499