[{"start_time":1551892022297,"click_time":1551892024304,"finger_time":1551892023824,"fix_duration":250,"trial":0,"RT":1527,"MT":480,"sideResp":2,"stimulus":[],"xmouse":[756,756,756,756,756,756,756,756,756,756,756,756,756,756,756,756,756,756,756,756,756,756,756,756,756,756,756,756,756,756,756,756,756,756,757,757,757,757,757,757,757,757,757,757,757,757,757,757,757,757,757,757,757,757,757,757,757,757,757,757,757,757,757,757,757,757,757,757,757,757,757,757,757,761,766,771,783,798,811,842,851,856,857,870,883,896,908,925,948,956,963,967,973,984,1017,1036,1039,1050,1055,1057,1061],"ymouse":[504,504,504,504,504,504,504,504,504,504,504,504,504,504,504,504,504,504,504,504,504,504,504,504,504,504,504,504,504,504,504,504,504,504,504,504,504,504,504,504,504,504,504,504,504,504,504,504,504,504,504,504,504,504,504,504,504,504,504,504,504,504,504,504,504,504,504,504,504,504,504,504,504,501,489,478,452,416,372,280,251,241,236,214,196,180,164,146,129,123,119,118,117,115,105,101,99,97,97,95,92],"timestamp_mouse":[9,31,46,67,86,107,126,146,166,186,206,226,246,266,286,306,327,347,367,386,406,426,446,466,486,506,526,546,567,587,607,626,646,666,686,706,726,746,767,786,806,827,846,866,887,906,927,946,967,986,1006,1026,1046,1066,1087,1106,1127,1148,1166,1187,1207,1227,1247,1267,1287,1307,1327,1347,1367,1386,1407,1426,1447,1466,1486,1506,1527,1546,1566,1587,1606,1626,1646,1667,1686,1706,1726,1746,1767,1786,1807,1826,1847,1866,1887,1907,1926,1947,1966,1986,2006],"xSR":741.5,"ySR":469.95,"xT1":424.9,"yT1":0,"xT2":1058.1,"yT2":0,"toosoon":0,"cond_shown":"Incongruent","ratio_trial":300,"L_num":2,"L_den":4,"R_num":6,"R_den":30,"correct_side":1,"subjID":"JuanManuelCruz34","gender":"0","age":"11","school":"6","test":{"fix_dur":[250,1500],"timestim":1000,"targets_dim":[100,100],"targets_relative_coord":[0.3,0.7],"size_stim":[880,420],"start_dim":[100,100],"size_start":[300,300],"size_fix":60,"samplingrate":20,"img_types":["Congruent","Incongruent"],"ratios":[100,200,300],"rep_conds":19,"nTrials":120,"trials_to_rest":500,"Trials_order":[11,37,93,84,43,36,96,94,31,105,69,107,79,29,88,15,108,68,2,48,90,101,55,18,58,59,16,17,65,97,47,45,56,50,54,67,6,42,64,77,73,61,10,8,4,12,85,106,110,26,76,63,5,75,0,115,114,22,82,111,25,70,95,119,66,51,1,7,102,117,3,28,19,81,100,21,113,52,14,71,35,62,24,13,83,92,49,38,20,116,32,78,98,57,30,53,44,112,99,40,109,72,89,46,91,33,41,34,103,86,87,27,9,104,23,80,74,39,118,60],"cond_shown":["Incongruent","Incongruent","Incongruent","Congruent","Incongruent","Congruent","Congruent","Congruent","Incongruent","Incongruent","Incongruent","Incongruent","Incongruent","Incongruent","Congruent","Incongruent","Congruent","Congruent","Congruent","Congruent","Congruent","Incongruent","Incongruent","Congruent","Congruent","Incongruent","Congruent","Incongruent","Incongruent","Incongruent","Incongruent","Incongruent","Congruent","Congruent","Congruent","Incongruent","Congruent","Congruent","Congruent","Incongruent","Incongruent","Incongruent","Congruent","Congruent","Congruent","Congruent","Incongruent","Congruent","Congruent","Congruent","Congruent","Incongruent","Incongruent","Incongruent","Congruent","Incongruent","Congruent","Congruent","Congruent","Incongruent","Incongruent","Congruent","Incongruent","Incongruent","Congruent","Incongruent","Incongruent","Incongruent","Congruent","Incongruent","Incongruent","Congruent","Incongruent","Incongruent","Congruent","Incongruent","Incongruent","Congruent","Congruent","Incongruent","Incongruent","Congruent","Congruent","Incongruent","Incongruent","Congruent","Incongruent","Congruent","Congruent","Congruent","Congruent","Congruent","Congruent","Incongruent","Congruent","Incongruent","Congruent","Congruent","Incongruent","Congruent","Incongruent","Congruent","Incongruent","Congruent","Incongruent","Incongruent","Incongruent","Congruent","Incongruent","Congruent","Incongruent","Incongruent","Incongruent","Congruent","Incongruent","Congruent","Congruent","Incongruent","Congruent","Congruent"],"ratio_trial":[300,100,200,100,100,100,100,300,100,200,200,300,100,300,300,200,100,200,200,100,100,300,100,100,300,300,300,300,300,100,300,200,200,200,100,100,100,100,300,300,100,100,300,200,300,100,100,300,200,200,300,200,300,200,100,100,100,300,300,200,100,300,300,300,100,200,100,100,100,200,200,300,100,200,300,200,300,300,200,300,300,200,100,100,300,200,100,200,200,200,200,100,200,200,100,300,200,300,200,300,100,100,300,300,100,200,300,300,100,200,200,200,200,200,300,200,200,200,300,100],"left_num":[2,4,7,10,9,7,2,20,12,7,7,13,12,4,5,7,6,8,12,7,4,2,8,3,18,4,3,4,4,6,8,6,12,16,15,10,4,10,1,4,3,8,20,21,11,6,8,24,13,16,1,11,1,7,7,9,11,20,20,3,8,1,13,4,6,7,4,10,10,1,1,20,17,3,3,14,13,20,8,13,13,3,4,1,13,15,13,9,20,3,16,7,6,4,6,4,7,11,14,8,8,11,4,18,11,7,8,4,10,9,14,7,1,6,2,7,21,6,11,11],"right_num":[6,8,8,3,13,9,11,14,9,4,12,12,9,2,6,8,5,7,6,15,15,6,6,2,9,2,4,2,2,7,9,3,6,12,13,9,15,3,19,2,7,1,14,2,2,5,1,8,14,12,6,3,2,6,9,6,6,13,5,1,6,19,12,2,15,6,8,9,3,2,2,13,10,11,4,12,12,9,3,12,12,9,6,8,12,4,12,4,9,11,12,15,7,14,5,8,18,2,6,1,1,6,2,9,9,4,9,1,8,13,12,12,2,11,6,18,2,3,1,4],"left_den":[4,8,10,25,15,14,5,25,24,15,10,26,24,20,25,10,20,15,15,14,10,4,16,6,20,20,6,20,20,10,10,20,15,20,25,25,10,25,3,20,9,20,25,30,22,20,20,30,26,20,5,20,2,15,14,18,22,25,25,10,16,3,26,20,12,15,8,25,25,3,3,25,30,4,6,30,26,25,15,26,26,12,8,2,26,25,26,20,25,10,20,14,12,6,20,5,15,22,30,16,20,22,20,20,22,15,10,10,25,30,30,10,3,20,4,15,30,20,22,22],"right_den":[30,20,16,10,26,15,22,28,15,6,24,15,15,4,12,16,25,21,10,25,30,30,10,5,15,4,5,4,4,14,18,6,10,20,26,18,30,10,30,4,30,2,28,4,10,25,2,16,20,20,12,4,10,9,15,10,15,26,10,2,10,30,15,4,25,9,20,18,10,15,15,26,15,20,5,18,15,18,9,15,15,20,10,20,15,10,20,16,15,22,20,25,10,30,25,16,27,10,9,5,2,15,4,15,15,6,18,10,16,26,18,24,15,22,30,27,4,6,5,10],"correct_side":[1,1,1,1,1,2,2,1,2,2,1,2,2,2,2,1,1,1,1,2,2,1,2,1,1,2,2,2,2,1,1,2,1,1,1,2,2,1,2,2,1,2,1,1,1,1,2,1,2,1,2,2,1,2,2,2,1,1,1,2,2,2,2,2,2,2,1,2,1,1,1,1,2,1,2,2,2,1,1,2,2,2,2,1,2,1,2,1,1,2,1,2,2,1,1,1,2,1,2,1,2,1,2,1,2,2,1,1,2,2,2,1,1,2,1,2,1,2,1,1],"img_shown":["img2/300/Incongruent/L/I_Dist_300_LN_2_LD_4_RN_6_RD_30_0.png","img2/100/Incongruent/L/I_Dist_100_LN_4_LD_8_RN_8_RD_20_0.png","img2/200/Incongruent/L/I_Dist_200_LN_7_LD_10_RN_8_RD_16_0.png","img2/100/Congruent/L/C_Dist_100_LN_10_LD_25_RN_3_RD_10_0.png","img2/100/Incongruent/L/I_Dist_100_LN_9_LD_15_RN_13_RD_26_0.png","img2/100/Congruent/R/C_Dist_100_LN_7_LD_14_RN_9_RD_15_1.png","img2/100/Congruent/R/C_Dist_100_LN_2_LD_5_RN_11_RD_22_1.png","img2/300/Congruent/L/C_Dist_300_LN_20_LD_25_RN_14_RD_28_0.png","img2/100/Incongruent/R/I_Dist_100_LN_12_LD_24_RN_9_RD_15_1.png","img2/200/Incongruent/R/I_Dist_200_LN_7_LD_15_RN_4_RD_6_1.png","img2/200/Incongruent/L/I_Dist_200_LN_7_LD_10_RN_12_RD_24_0.png","img2/300/Incongruent/R/I_Dist_300_LN_13_LD_26_RN_12_RD_15_1.png","img2/100/Incongruent/R/I_Dist_100_LN_12_LD_24_RN_9_RD_15_1.png","img2/300/Incongruent/R/I_Dist_300_LN_4_LD_20_RN_2_RD_4_1.png","img2/300/Congruent/R/C_Dist_300_LN_5_LD_25_RN_6_RD_12_1.png","img2/200/Incongruent/L/I_Dist_200_LN_7_LD_10_RN_8_RD_16_0.png","img2/100/Congruent/L/C_Dist_100_LN_6_LD_20_RN_5_RD_25_0.png","img2/200/Congruent/L/C_Dist_200_LN_8_LD_15_RN_7_RD_21_0.png","img2/200/Congruent/L/C_Dist_200_LN_12_LD_15_RN_6_RD_10_0.png","img2/100/Congruent/R/C_Dist_100_LN_7_LD_14_RN_15_RD_25_1.png","img2/100/Congruent/R/C_Dist_100_LN_4_LD_10_RN_15_RD_30_1.png","img2/300/Incongruent/L/I_Dist_300_LN_2_LD_4_RN_6_RD_30_0.png","img2/100/Incongruent/R/I_Dist_100_LN_8_LD_16_RN_6_RD_10_1.png","img2/100/Congruent/L/C_Dist_100_LN_3_LD_6_RN_2_RD_5_0.png","img2/300/Congruent/L/C_Dist_300_LN_18_LD_20_RN_9_RD_15_0.png","img2/300/Incongruent/R/I_Dist_300_LN_4_LD_20_RN_2_RD_4_1.png","img2/300/Congruent/R/C_Dist_300_LN_3_LD_6_RN_4_RD_5_1.png","img2/300/Incongruent/R/I_Dist_300_LN_4_LD_20_RN_2_RD_4_1.png","img2/300/Incongruent/R/I_Dist_300_LN_4_LD_20_RN_2_RD_4_1.png","img2/100/Incongruent/L/I_Dist_100_LN_6_LD_10_RN_7_RD_14_0.png","img2/300/Incongruent/L/I_Dist_300_LN_8_LD_10_RN_9_RD_18_0.png","img2/200/Incongruent/R/I_Dist_200_LN_6_LD_20_RN_3_RD_6_1.png","img2/200/Congruent/L/C_Dist_200_LN_12_LD_15_RN_6_RD_10_0.png","img2/200/Congruent/L/C_Dist_200_LN_16_LD_20_RN_12_RD_20_0.png","img2/100/Congruent/L/C_Dist_100_LN_15_LD_25_RN_13_RD_26_0.png","img2/100/Incongruent/R/I_Dist_100_LN_10_LD_25_RN_9_RD_18_1.png","img2/100/Congruent/R/C_Dist_100_LN_4_LD_10_RN_15_RD_30_1.png","img2/100/Congruent/L/C_Dist_100_LN_10_LD_25_RN_3_RD_10_0.png","img2/300/Congruent/R/C_Dist_300_LN_1_LD_3_RN_19_RD_30_1.png","img2/300/Incongruent/R/I_Dist_300_LN_4_LD_20_RN_2_RD_4_1.png","img2/100/Incongruent/L/I_Dist_100_LN_3_LD_9_RN_7_RD_30_0.png","img2/100/Incongruent/R/I_Dist_100_LN_8_LD_20_RN_1_RD_2_1.png","img2/300/Congruent/L/C_Dist_300_LN_20_LD_25_RN_14_RD_28_0.png","img2/200/Congruent/L/C_Dist_200_LN_21_LD_30_RN_2_RD_4_0.png","img2/300/Congruent/L/C_Dist_300_LN_11_LD_22_RN_2_RD_10_0.png","img2/100/Congruent/L/C_Dist_100_LN_6_LD_20_RN_5_RD_25_0.png","img2/100/Incongruent/R/I_Dist_100_LN_8_LD_20_RN_1_RD_2_1.png","img2/300/Congruent/L/C_Dist_300_LN_24_LD_30_RN_8_RD_16_0.png","img2/200/Congruent/R/C_Dist_200_LN_13_LD_26_RN_14_RD_20_1.png","img2/200/Congruent/L/C_Dist_200_LN_16_LD_20_RN_12_RD_20_0.png","img2/300/Congruent/R/C_Dist_300_LN_1_LD_5_RN_6_RD_12_1.png","img2/200/Incongruent/R/I_Dist_200_LN_11_LD_20_RN_3_RD_4_1.png","img2/300/Incongruent/L/I_Dist_300_LN_1_LD_2_RN_2_RD_10_0.png","img2/200/Incongruent/R/I_Dist_200_LN_7_LD_15_RN_6_RD_9_1.png","img2/100/Congruent/R/C_Dist_100_LN_7_LD_14_RN_9_RD_15_1.png","img2/100/Incongruent/R/I_Dist_100_LN_9_LD_18_RN_6_RD_10_1.png","img2/100/Congruent/L/C_Dist_100_LN_11_LD_22_RN_6_RD_15_0.png","img2/300/Congruent/L/C_Dist_300_LN_20_LD_25_RN_13_RD_26_0.png","img2/300/Congruent/L/C_Dist_300_LN_20_LD_25_RN_5_RD_10_0.png","img2/200/Incongruent/R/I_Dist_200_LN_3_LD_10_RN_1_RD_2_1.png","img2/100/Incongruent/R/I_Dist_100_LN_8_LD_16_RN_6_RD_10_1.png","img2/300/Congruent/R/C_Dist_300_LN_1_LD_3_RN_19_RD_30_1.png","img2/300/Incongruent/R/I_Dist_300_LN_13_LD_26_RN_12_RD_15_1.png","img2/300/Incongruent/R/I_Dist_300_LN_4_LD_20_RN_2_RD_4_1.png","img2/100/Congruent/R/C_Dist_100_LN_6_LD_12_RN_15_RD_25_1.png","img2/200/Incongruent/R/I_Dist_200_LN_7_LD_15_RN_6_RD_9_1.png","img2/100/Incongruent/L/I_Dist_100_LN_4_LD_8_RN_8_RD_20_0.png","img2/100/Incongruent/R/I_Dist_100_LN_10_LD_25_RN_9_RD_18_1.png","img2/100/Congruent/L/C_Dist_100_LN_10_LD_25_RN_3_RD_10_0.png","img2/200/Incongruent/L/I_Dist_200_LN_1_LD_3_RN_2_RD_15_0.png","img2/200/Incongruent/L/I_Dist_200_LN_1_LD_3_RN_2_RD_15_0.png","img2/300/Congruent/L/C_Dist_300_LN_20_LD_25_RN_13_RD_26_0.png","img2/100/Incongruent/R/I_Dist_100_LN_17_LD_30_RN_10_RD_15_1.png","img2/200/Incongruent/L/I_Dist_200_LN_3_LD_4_RN_11_RD_20_0.png","img2/300/Congruent/R/C_Dist_300_LN_3_LD_6_RN_4_RD_5_1.png","img2/200/Incongruent/R/I_Dist_200_LN_14_LD_30_RN_12_RD_18_1.png","img2/300/Incongruent/R/I_Dist_300_LN_13_LD_26_RN_12_RD_15_1.png","img2/300/Congruent/L/C_Dist_300_LN_20_LD_25_RN_9_RD_18_0.png","img2/200/Congruent/L/C_Dist_200_LN_8_LD_15_RN_3_RD_9_0.png","img2/300/Incongruent/R/I_Dist_300_LN_13_LD_26_RN_12_RD_15_1.png","img2/300/Incongruent/R/I_Dist_300_LN_13_LD_26_RN_12_RD_15_1.png","img2/200/Congruent/R/C_Dist_200_LN_3_LD_12_RN_9_RD_20_1.png","img2/100/Congruent/R/C_Dist_100_LN_4_LD_8_RN_6_RD_10_1.png","img2/100/Incongruent/L/I_Dist_100_LN_1_LD_2_RN_8_RD_20_0.png","img2/300/Incongruent/R/I_Dist_300_LN_13_LD_26_RN_12_RD_15_1.png","img2/200/Congruent/L/C_Dist_200_LN_15_LD_25_RN_4_RD_10_0.png","img2/100/Incongruent/R/I_Dist_100_LN_13_LD_26_RN_12_RD_20_1.png","img2/200/Congruent/L/C_Dist_200_LN_9_LD_20_RN_4_RD_16_0.png","img2/200/Congruent/L/C_Dist_200_LN_20_LD_25_RN_9_RD_15_0.png","img2/200/Congruent/R/C_Dist_200_LN_3_LD_10_RN_11_RD_22_1.png","img2/200/Congruent/L/C_Dist_200_LN_16_LD_20_RN_12_RD_20_0.png","img2/100/Congruent/R/C_Dist_100_LN_7_LD_14_RN_15_RD_25_1.png","img2/200/Congruent/R/C_Dist_200_LN_6_LD_12_RN_7_RD_10_1.png","img2/200/Incongruent/L/I_Dist_200_LN_4_LD_6_RN_14_RD_30_0.png","img2/100/Congruent/L/C_Dist_100_LN_6_LD_20_RN_5_RD_25_0.png","img2/300/Incongruent/L/I_Dist_300_LN_4_LD_5_RN_8_RD_16_0.png","img2/200/Congruent/R/C_Dist_200_LN_7_LD_15_RN_18_RD_27_1.png","img2/300/Congruent/L/C_Dist_300_LN_11_LD_22_RN_2_RD_10_0.png","img2/200/Incongruent/R/I_Dist_200_LN_14_LD_30_RN_6_RD_9_1.png","img2/300/Congruent/L/C_Dist_300_LN_8_LD_16_RN_1_RD_5_0.png","img2/100/Incongruent/R/I_Dist_100_LN_8_LD_20_RN_1_RD_2_1.png","img2/100/Congruent/L/C_Dist_100_LN_11_LD_22_RN_6_RD_15_0.png","img2/300/Incongruent/R/I_Dist_300_LN_4_LD_20_RN_2_RD_4_1.png","img2/300/Congruent/L/C_Dist_300_LN_18_LD_20_RN_9_RD_15_0.png","img2/100/Incongruent/R/I_Dist_100_LN_11_LD_22_RN_9_RD_15_1.png","img2/200/Incongruent/R/I_Dist_200_LN_7_LD_15_RN_4_RD_6_1.png","img2/300/Incongruent/L/I_Dist_300_LN_8_LD_10_RN_9_RD_18_0.png","img2/300/Congruent/L/C_Dist_300_LN_4_LD_10_RN_1_RD_10_0.png","img2/100/Incongruent/R/I_Dist_100_LN_10_LD_25_RN_8_RD_16_1.png","img2/200/Congruent/R/C_Dist_200_LN_9_LD_30_RN_13_RD_26_1.png","img2/200/Incongruent/R/I_Dist_200_LN_14_LD_30_RN_12_RD_18_1.png","img2/200/Incongruent/L/I_Dist_200_LN_7_LD_10_RN_12_RD_24_0.png","img2/200/Incongruent/L/I_Dist_200_LN_1_LD_3_RN_2_RD_15_0.png","img2/200/Congruent/R/C_Dist_200_LN_6_LD_20_RN_11_RD_22_1.png","img2/300/Incongruent/L/I_Dist_300_LN_2_LD_4_RN_6_RD_30_0.png","img2/200/Congruent/R/C_Dist_200_LN_7_LD_15_RN_18_RD_27_1.png","img2/200/Congruent/L/C_Dist_200_LN_21_LD_30_RN_2_RD_4_0.png","img2/200/Incongruent/R/I_Dist_200_LN_6_LD_20_RN_3_RD_6_1.png","img2/300/Congruent/L/C_Dist_300_LN_11_LD_22_RN_1_RD_5_0.png","img2/100/Congruent/L/C_Dist_100_LN_11_LD_22_RN_4_RD_10_0.png"],"dist100_C":[["C_Dist_100_LN_10_LD_25_RN_3_RD_10_0.png","C_Dist_100_LN_11_LD_22_RN_4_RD_10_0.png","C_Dist_100_LN_11_LD_22_RN_6_RD_15_0.png","C_Dist_100_LN_15_LD_25_RN_13_RD_26_0.png","C_Dist_100_LN_3_LD_6_RN_2_RD_5_0.png","C_Dist_100_LN_6_LD_20_RN_5_RD_25_0.png","C_Dist_100_LN_8_LD_16_RN_2_RD_5_0.png","C_Dist_100_LN_9_LD_15_RN_8_RD_16_0.png"],["C_Dist_100_LN_1_LD_2_RN_18_RD_30_1.png","C_Dist_100_LN_1_LD_2_RN_3_RD_5_1.png","C_Dist_100_LN_12_LD_30_RN_13_RD_26_1.png","C_Dist_100_LN_2_LD_5_RN_11_RD_22_1.png","C_Dist_100_LN_2_LD_5_RN_6_RD_12_1.png","C_Dist_100_LN_3_LD_20_RN_4_RD_16_1.png","C_Dist_100_LN_4_LD_10_RN_15_RD_30_1.png","C_Dist_100_LN_4_LD_8_RN_6_RD_10_1.png","C_Dist_100_LN_6_LD_12_RN_15_RD_25_1.png","C_Dist_100_LN_7_LD_14_RN_15_RD_25_1.png","C_Dist_100_LN_7_LD_14_RN_9_RD_15_1.png"]],"dist100_I":[["I_Dist_100_LN_1_LD_2_RN_8_RD_20_0.png","I_Dist_100_LN_2_LD_4_RN_6_RD_15_0.png","I_Dist_100_LN_2_LD_4_RN_8_RD_20_0.png","I_Dist_100_LN_3_LD_5_RN_11_RD_22_0.png","I_Dist_100_LN_3_LD_5_RN_8_RD_16_0.png","I_Dist_100_LN_3_LD_6_RN_4_RD_10_0.png","I_Dist_100_LN_3_LD_9_RN_7_RD_30_0.png","I_Dist_100_LN_4_LD_8_RN_8_RD_20_0.png","I_Dist_100_LN_6_LD_10_RN_11_RD_22_0.png","I_Dist_100_LN_6_LD_10_RN_13_RD_26_0.png","I_Dist_100_LN_6_LD_10_RN_7_RD_14_0.png","I_Dist_100_LN_9_LD_10_RN_20_RD_25_0.png","I_Dist_100_LN_9_LD_15_RN_13_RD_26_0.png","I_Dist_100_LN_9_LD_15_RN_14_RD_28_0.png"],["I_Dist_100_LN_10_LD_25_RN_8_RD_16_1.png","I_Dist_100_LN_10_LD_25_RN_9_RD_18_1.png","I_Dist_100_LN_11_LD_22_RN_9_RD_15_1.png","I_Dist_100_LN_12_LD_24_RN_9_RD_15_1.png","I_Dist_100_LN_12_LD_30_RN_2_RD_4_1.png","I_Dist_100_LN_13_LD_26_RN_12_RD_20_1.png","I_Dist_100_LN_13_LD_26_RN_6_RD_10_1.png","I_Dist_100_LN_17_LD_30_RN_10_RD_15_1.png","I_Dist_100_LN_6_LD_12_RN_3_RD_5_1.png","I_Dist_100_LN_8_LD_16_RN_6_RD_10_1.png","I_Dist_100_LN_8_LD_20_RN_1_RD_2_1.png","I_Dist_100_LN_9_LD_18_RN_6_RD_10_1.png"]],"dist100_S":[["E_Dist_100_LN_2_LD_12_RN_2_RD_30_0.png","E_Dist_100_LN_6_LD_10_RN_6_RD_12_0.png"],["E_Dist_100_LN_6_LD_12_RN_6_RD_10_1.png"]],"dist200_C":[["C_Dist_200_LN_11_LD_22_RN_3_RD_10_0.png","C_Dist_200_LN_12_LD_15_RN_6_RD_10_0.png","C_Dist_200_LN_12_LD_20_RN_6_RD_15_0.png","C_Dist_200_LN_14_LD_28_RN_6_RD_20_0.png","C_Dist_200_LN_15_LD_25_RN_4_RD_10_0.png","C_Dist_200_LN_16_LD_20_RN_12_RD_20_0.png","C_Dist_200_LN_16_LD_30_RN_9_RD_27_0.png","C_Dist_200_LN_20_LD_25_RN_9_RD_15_0.png","C_Dist_200_LN_21_LD_30_RN_2_RD_4_0.png","C_Dist_200_LN_4_LD_10_RN_3_RD_15_0.png","C_Dist_200_LN_4_LD_8_RN_3_RD_10_0.png","C_Dist_200_LN_6_LD_15_RN_3_RD_15_0.png","C_Dist_200_LN_7_LD_21_RN_2_RD_15_0.png","C_Dist_200_LN_8_LD_15_RN_2_RD_6_0.png","C_Dist_200_LN_8_LD_15_RN_3_RD_9_0.png","C_Dist_200_LN_8_LD_15_RN_7_RD_21_0.png","C_Dist_200_LN_9_LD_20_RN_4_RD_16_0.png"],["C_Dist_200_LN_1_LD_2_RN_21_RD_30_1.png","C_Dist_200_LN_13_LD_26_RN_14_RD_20_1.png","C_Dist_200_LN_3_LD_10_RN_11_RD_22_1.png","C_Dist_200_LN_3_LD_10_RN_14_RD_28_1.png","C_Dist_200_LN_3_LD_10_RN_7_RD_14_1.png","C_Dist_200_LN_3_LD_12_RN_9_RD_20_1.png","C_Dist_200_LN_3_LD_6_RN_14_RD_20_1.png","C_Dist_200_LN_5_LD_10_RN_14_RD_20_1.png","C_Dist_200_LN_6_LD_12_RN_7_RD_10_1.png","C_Dist_200_LN_6_LD_20_RN_11_RD_22_1.png","C_Dist_200_LN_7_LD_15_RN_18_RD_27_1.png","C_Dist_200_LN_9_LD_30_RN_13_RD_26_1.png"]],"dist200_I":[["I_Dist_200_LN_1_LD_2_RN_3_RD_10_0.png","I_Dist_200_LN_1_LD_3_RN_2_RD_15_0.png","I_Dist_200_LN_3_LD_4_RN_11_RD_20_0.png","I_Dist_200_LN_4_LD_5_RN_6_RD_10_0.png","I_Dist_200_LN_4_LD_6_RN_14_RD_30_0.png","I_Dist_200_LN_7_LD_10_RN_12_RD_24_0.png","I_Dist_200_LN_7_LD_10_RN_14_RD_28_0.png","I_Dist_200_LN_7_LD_10_RN_8_RD_16_0.png"],["I_Dist_200_LN_11_LD_20_RN_3_RD_4_1.png","I_Dist_200_LN_14_LD_30_RN_12_RD_18_1.png","I_Dist_200_LN_14_LD_30_RN_6_RD_9_1.png","I_Dist_200_LN_3_LD_10_RN_1_RD_2_1.png","I_Dist_200_LN_4_LD_30_RN_1_RD_3_1.png","I_Dist_200_LN_6_LD_20_RN_3_RD_6_1.png","I_Dist_200_LN_7_LD_15_RN_4_RD_6_1.png","I_Dist_200_LN_7_LD_15_RN_6_RD_9_1.png","I_Dist_200_LN_9_LD_15_RN_8_RD_10_1.png"]],"dist200_S":[["E_Dist_200_LN_3_LD_6_RN_3_RD_10_0.png"],["E_Dist_200_LN_3_LD_10_RN_3_RD_6_1.png"]],"dist300_C":[["C_Dist_300_LN_11_LD_22_RN_1_RD_5_0.png","C_Dist_300_LN_11_LD_22_RN_2_RD_10_0.png","C_Dist_300_LN_11_LD_22_RN_4_RD_20_0.png","C_Dist_300_LN_12_LD_24_RN_2_RD_10_0.png","C_Dist_300_LN_18_LD_20_RN_9_RD_15_0.png","C_Dist_300_LN_20_LD_25_RN_13_RD_26_0.png","C_Dist_300_LN_20_LD_25_RN_14_RD_28_0.png","C_Dist_300_LN_20_LD_25_RN_5_RD_10_0.png","C_Dist_300_LN_20_LD_25_RN_8_RD_16_0.png","C_Dist_300_LN_20_LD_25_RN_9_RD_18_0.png","C_Dist_300_LN_24_LD_30_RN_2_RD_4_0.png","C_Dist_300_LN_24_LD_30_RN_8_RD_16_0.png","C_Dist_300_LN_3_LD_6_RN_2_RD_10_0.png","C_Dist_300_LN_4_LD_10_RN_1_RD_10_0.png","C_Dist_300_LN_4_LD_5_RN_2_RD_4_0.png","C_Dist_300_LN_8_LD_16_RN_1_RD_5_0.png","C_Dist_300_LN_9_LD_10_RN_3_RD_5_0.png"],["C_Dist_300_LN_1_LD_20_RN_7_RD_20_1.png","C_Dist_300_LN_1_LD_3_RN_19_RD_30_1.png","C_Dist_300_LN_1_LD_30_RN_8_RD_24_1.png","C_Dist_300_LN_1_LD_5_RN_11_RD_22_1.png","C_Dist_300_LN_1_LD_5_RN_3_RD_6_1.png","C_Dist_300_LN_1_LD_5_RN_6_RD_12_1.png","C_Dist_300_LN_2_LD_10_RN_12_RD_24_1.png","C_Dist_300_LN_2_LD_20_RN_10_RD_25_1.png","C_Dist_300_LN_3_LD_12_RN_11_RD_20_1.png","C_Dist_300_LN_3_LD_6_RN_4_RD_5_1.png","C_Dist_300_LN_4_LD_20_RN_13_RD_26_1.png","C_Dist_300_LN_5_LD_25_RN_6_RD_12_1.png","C_Dist_300_LN_5_LD_25_RN_7_RD_14_1.png","C_Dist_300_LN_7_LD_14_RN_20_RD_25_1.png","C_Dist_300_LN_8_LD_15_RN_10_RD_12_1.png"]],"dist300_I":[["I_Dist_300_LN_1_LD_2_RN_2_RD_10_0.png","I_Dist_300_LN_1_LD_2_RN_3_RD_15_0.png","I_Dist_300_LN_2_LD_4_RN_6_RD_30_0.png","I_Dist_300_LN_3_LD_6_RN_4_RD_20_0.png","I_Dist_300_LN_4_LD_5_RN_6_RD_12_0.png","I_Dist_300_LN_4_LD_5_RN_8_RD_16_0.png","I_Dist_300_LN_7_LD_10_RN_8_RD_20_0.png","I_Dist_300_LN_8_LD_10_RN_14_RD_28_0.png","I_Dist_300_LN_8_LD_10_RN_9_RD_18_0.png"],["I_Dist_300_LN_13_LD_26_RN_12_RD_15_1.png","I_Dist_300_LN_4_LD_20_RN_2_RD_4_1.png"]],"dist300_S":[["E_Dist_300_LN_9_LD_12_RN_9_RD_20_0.png"],["E_Dist_300_LN_18_LD_30_RN_18_RD_20_1.png","E_Dist_300_LN_3_LD_10_RN_3_RD_5_1.png","E_Dist_300_LN_9_LD_20_RN_9_RD_12_1.png"]],"dist500_C":[["C_Dist_500_LN_10_LD_13_RN_7_RD_26_0.png","C_Dist_500_LN_10_LD_15_RN_4_RD_24_0.png","C_Dist_500_LN_12_LD_16_RN_3_RD_12_0.png","C_Dist_500_LN_12_LD_18_RN_4_RD_24_0.png","C_Dist_500_LN_15_LD_18_RN_5_RD_15_0.png","C_Dist_500_LN_15_LD_20_RN_1_RD_4_0.png","C_Dist_500_LN_18_LD_27_RN_1_RD_6_0.png","C_Dist_500_LN_20_LD_24_RN_1_RD_3_0.png","C_Dist_500_LN_20_LD_24_RN_3_RD_9_0.png","C_Dist_500_LN_20_LD_24_RN_7_RD_21_0.png","C_Dist_500_LN_20_LD_28_RN_3_RD_14_0.png","C_Dist_500_LN_21_LD_28_RN_6_RD_24_0.png","C_Dist_500_LN_22_LD_28_RN_2_RD_7_0.png","C_Dist_500_LN_25_LD_30_RN_9_RD_27_0.png","C_Dist_500_LN_4_LD_6_RN_1_RD_6_0.png","C_Dist_500_LN_5_LD_6_RN_2_RD_6_0.png","C_Dist_500_LN_6_LD_9_RN_1_RD_6_0.png","C_Dist_500_LN_7_LD_10_RN_1_RD_5_0.png","C_Dist_500_LN_8_LD_12_RN_1_RD_6_0.png","C_Dist_500_LN_8_LD_12_RN_4_RD_24_0.png"],["C_Dist_500_LN_1_LD_4_RN_12_RD_16_1.png","C_Dist_500_LN_1_LD_4_RN_9_RD_12_1.png","C_Dist_500_LN_1_LD_9_RN_11_RD_18_1.png","C_Dist_500_LN_10_LD_24_RN_22_RD_24_1.png","C_Dist_500_LN_2_LD_12_RN_10_RD_15_1.png","C_Dist_500_LN_2_LD_12_RN_12_RD_18_1.png","C_Dist_500_LN_2_LD_12_RN_4_RD_6_1.png","C_Dist_500_LN_2_LD_24_RN_7_RD_12_1.png","C_Dist_500_LN_2_LD_5_RN_18_RD_20_1.png","C_Dist_500_LN_2_LD_5_RN_9_RD_10_1.png","C_Dist_500_LN_2_LD_8_RN_12_RD_16_1.png","C_Dist_500_LN_2_LD_8_RN_21_RD_28_1.png","C_Dist_500_LN_3_LD_10_RN_4_RD_5_1.png","C_Dist_500_LN_3_LD_12_RN_15_RD_20_1.png","C_Dist_500_LN_3_LD_30_RN_6_RD_10_1.png","C_Dist_500_LN_3_LD_8_RN_14_RD_16_1.png","C_Dist_500_LN_4_LD_16_RN_15_RD_20_1.png","C_Dist_500_LN_4_LD_24_RN_12_RD_18_1.png","C_Dist_500_LN_5_LD_14_RN_6_RD_7_1.png","C_Dist_500_LN_7_LD_21_RN_20_RD_24_1.png","C_Dist_500_LN_7_LD_28_RN_12_RD_16_1.png","C_Dist_500_LN_7_LD_28_RN_9_RD_12_1.png","C_Dist_500_LN_9_LD_27_RN_20_RD_24_1.png"]],"dist500_I":[["I_Dist_500_LN_2_LD_3_RN_4_RD_24_0.png","I_Dist_500_LN_5_LD_6_RN_6_RD_18_0.png","I_Dist_500_LN_7_LD_8_RN_9_RD_24_0.png"],["I_Dist_500_LN_7_LD_21_RN_5_RD_6_1.png"]],"dist500_S":[["E_Dist_500_LN_6_LD_8_RN_6_RD_24_0.png"],["E_Dist_500_LN_2_LD_12_RN_2_RD_3_1.png","E_Dist_500_LN_6_LD_24_RN_6_RD_8_1.png"]]}},{"start_time":1551892026099,"click_time":1551892027804,"finger_time":1551892027663,"fix_duration":474.340717808881,"trial":1,"RT":1564,"MT":141,"sideResp":2,"stimulus":[],"xmouse":[794,794,794,794,794,794,794,794,794,794,794,794,794,794,794,794,794,794,794,794,794,794,794,794,794,794,794,794,794,794,794,794,794,795,795,795,795,795,795,795,795,795,795,795,795,795,795,795,795,795,795,795,795,795,795,795,795,795,795,795,795,795,795,795,795,795,795,795,795,795,795,795,795,795,796,800,803,841,959,986,997,1009,1018,1067,1103,1125],"ymouse":[513,513,513,513,513,513,513,513,513,513,513,513,513,513,513,513,513,513,513,513,513,513,513,513,513,513,513,513,513,513,513,513,513,513,513,513,513,513,513,513,513,513,513,513,513,513,513,513,513,513,513,513,513,513,513,513,513,513,513,513,513,513,513,513,513,513,513,513,513,511,511,511,511,511,510,506,502,470,343,289,253,224,203,139,111,92],"timestamp_mouse":[9,35,44,65,84,104,125,144,165,185,205,225,245,264,284,305,324,345,365,384,405,425,444,464,485,504,525,544,564,584,604,624,645,665,685,705,724,744,765,784,806,825,845,865,885,904,924,944,965,984,1004,1024,1044,1064,1085,1104,1124,1144,1164,1185,1205,1224,1244,1264,1285,1304,1324,1344,1364,1384,1405,1425,1444,1464,1484,1505,1524,1545,1564,1584,1604,1625,1645,1664,1684,1705],"xSR":741.5,"ySR":469.95,"xT1":424.9,"yT1":0,"xT2":1058.1,"yT2":0,"toosoon":0,"cond_shown":"Incongruent","ratio_trial":100,"L_num":4,"L_den":8,"R_num":8,"R_den":20,"correct_side":1,"subjID":"JuanManuelCruz34","gender":"0","school":"6","age":"11"},{"start_time":1551892030594,"click_time":1551892031904,"finger_time":1551892031403,"fix_duration":1370.0469045409163,"trial":2,"RT":809,"MT":501,"sideResp":1,"stimulus":[],"xmouse":[816,815,815,815,815,815,815,815,815,815,815,815,815,815,815,815,815,815,815,815,815,815,815,815,815,815,815,815,815,815,815,815,815,815,815,814,814,813,813,812,811,807,804,789,778,769,750,731,721,710,704,693,690,689,689,688,681,666,641,595,587,585,580,569,536,524],"ymouse":[483,484,484,485,485,485,485,485,485,485,485,485,485,485,485,485,485,485,485,485,485,485,485,485,485,485,485,485,485,485,485,485,485,485,485,485,484,482,481,471,464,442,418,355,317,282,243,202,180,155,144,127,122,120,120,120,119,112,103,88,86,86,86,84,76,71],"timestamp_mouse":[13,39,50,70,90,109,130,149,169,190,210,229,249,270,289,309,329,350,369,390,409,430,449,469,489,510,530,550,570,589,610,630,649,669,690,710,730,749,769,789,809,829,849,870,889,909,929,949,969,989,1009,1029,1049,1069,1089,1109,1130,1150,1170,1189,1210,1230,1250,1269,1289,1310],"xSR":741.5,"ySR":469.95,"xT1":424.9,"yT1":0,"xT2":1058.1,"yT2":0,"toosoon":0,"cond_shown":"Incongruent","ratio_trial":200,"L_num":7,"L_den":10,"R_num":8,"R_den":16,"correct_side":1,"subjID":"JuanManuelCruz34","gender":"0","school":"6","age":"11"},{"start_time":1551892033616,"click_time":1551892035665,"finger_time":1551892034765,"fix_duration":250,"trial":3,"RT":1149,"MT":900,"sideResp":2,"stimulus":[],"xmouse":[758,758,758,758,758,758,758,758,758,758,758,758,758,758,758,758,758,758,758,758,758,758,758,758,758,758,758,758,758,758,758,758,758,758,757,757,757,757,757,757,757,757,757,757,757,757,757,757,757,757,757,757,757,756,756,757,758,762,762,762,762,762,765,777,813,936,1062,1210,1237,1246,1246,1243,1243,1243,1243,1243,1239,1234,1229,1225,1218,1209,1193,1190,1189,1189,1189,1188,1187,1187,1186,1186,1186,1185,1183,1181,1175,1171,1164,1162,1162,1160,1158],"ymouse":[476,476,476,476,476,476,476,476,476,476,476,476,476,476,476,476,476,476,476,476,476,476,476,476,476,476,476,476,476,476,476,476,476,476,475,475,474,474,474,474,474,474,474,474,474,474,474,474,474,474,474,474,474,474,473,471,470,466,466,466,466,466,464,454,422,358,304,229,207,198,193,183,179,178,174,170,163,154,147,139,129,114,93,90,88,88,88,88,87,87,87,87,87,87,87,86,86,86,86,86,86,86,86],"timestamp_mouse":[8,44,47,68,87,107,128,148,168,187,208,228,248,267,287,308,328,347,368,387,407,427,448,469,488,508,527,548,568,587,607,627,648,667,687,707,728,747,767,787,807,828,848,867,887,907,927,947,969,987,1007,1027,1047,1068,1087,1107,1128,1149,1167,1187,1208,1227,1249,1267,1287,1308,1328,1348,1367,1387,1408,1427,1448,1467,1487,1507,1527,1549,1567,1587,1607,1627,1648,1667,1687,1708,1727,1748,1767,1788,1807,1827,1847,1867,1887,1907,1928,1947,1967,1988,2007,2027,2049],"xSR":741.5,"ySR":469.95,"xT1":424.9,"yT1":0,"xT2":1058.1,"yT2":0,"toosoon":0,"cond_shown":"Congruent","ratio_trial":100,"L_num":10,"L_den":25,"R_num":3,"R_den":10,"correct_side":1,"subjID":"JuanManuelCruz34","gender":"0","school":"6","age":"11"},{"start_time":1551892037055,"click_time":1551892039284,"finger_time":1551892038483,"fix_duration":250,"trial":4,"RT":1428,"MT":801,"sideResp":2,"stimulus":[],"xmouse":[810,810,810,810,810,810,810,810,810,810,810,810,810,810,810,810,810,810,810,810,810,810,810,810,810,810,810,810,810,810,810,810,810,810,810,810,810,810,810,810,810,810,810,810,810,810,810,810,810,810,810,810,810,810,810,810,810,810,810,810,810,810,810,810,810,810,810,810,810,809,809,813,822,837,863,891,893,893,894,895,899,899,899,899,899,899,897,891,889,888,888,888,892,907,933,970,1014,1018,1020,1022,1040,1051,1059,1067,1072,1078,1081,1083,1085,1086,1087,1088],"ymouse":[487,487,487,487,487,487,487,487,487,487,487,487,487,487,487,487,487,487,487,487,487,487,487,487,487,487,487,487,487,487,487,487,487,487,487,487,487,487,487,487,487,487,487,487,487,487,487,487,487,487,487,487,487,487,487,487,487,487,487,487,487,487,487,487,487,487,487,487,487,486,478,452,426,384,329,247,234,227,219,205,190,189,189,189,189,188,185,179,173,168,164,159,158,154,150,149,148,147,147,146,143,140,137,135,131,127,123,119,116,112,108,97],"timestamp_mouse":[11,40,48,68,88,109,128,149,169,188,208,228,248,268,289,309,328,348,368,389,409,429,448,468,489,508,529,548,569,588,609,628,648,669,688,708,728,749,768,789,809,828,848,869,890,909,929,949,969,989,1008,1028,1048,1068,1088,1109,1129,1148,1168,1188,1208,1229,1249,1268,1288,1309,1328,1348,1369,1388,1408,1428,1449,1469,1489,1509,1528,1548,1568,1589,1610,1628,1648,1675,1688,1709,1728,1748,1768,1788,1808,1828,1848,1869,1888,1908,1928,1949,1969,1988,2009,2028,2048,2069,2088,2109,2127,2148,2168,2189,2208,2229],"xSR":741.5,"ySR":469.95,"xT1":424.9,"yT1":0,"xT2":1058.1,"yT2":0,"toosoon":0,"cond_shown":"Incongruent","ratio_trial":100,"L_num":9,"L_den":15,"R_num":13,"R_den":26,"correct_side":1,"subjID":"JuanManuelCruz34","gender":"0","school":"6","age":"11"},{"start_time":1551892041505,"click_time":1551892043483,"finger_time":1551892042904,"fix_duration":859.1972900937623,"trial":5,"RT":1399,"MT":579,"sideResp":2,"stimulus":[],"xmouse":[783,783,783,783,783,783,783,783,783,783,783,783,783,783,783,783,783,783,783,783,783,783,783,783,783,783,783,783,783,783,782,781,780,780,778,777,777,776,775,775,775,775,775,775,774,773,771,769,769,769,769,769,769,769,769,769,769,769,769,769,769,769,769,769,769,769,769,769,772,784,812,831,841,852,856,865,979,1055,1104,1108,1108,1110,1117,1131,1176,1188,1192,1192,1192,1192,1192,1192,1190,1189,1183,1182,1180,1174,1160,1151],"ymouse":[507,507,507,506,506,506,506,506,506,506,506,506,506,506,506,506,506,505,505,505,505,504,504,504,504,504,504,504,504,504,502,502,501,501,499,498,497,497,496,495,495,495,495,495,494,493,492,491,491,491,491,491,491,491,491,491,491,491,491,491,491,491,491,491,491,491,491,491,486,476,450,424,407,390,377,355,267,228,216,216,216,214,201,177,118,95,64,48,39,36,35,35,32,30,27,27,27,26,26,26],"timestamp_mouse":[1,31,39,58,78,98,119,139,158,179,199,218,239,259,280,299,318,339,358,379,398,418,439,459,478,498,519,539,559,579,599,618,639,658,679,698,718,739,758,779,799,818,839,858,878,898,918,938,959,979,999,1019,1038,1058,1078,1099,1118,1139,1159,1178,1199,1219,1239,1259,1280,1299,1319,1339,1358,1378,1399,1418,1438,1459,1478,1498,1519,1538,1559,1578,1599,1619,1639,1658,1678,1698,1718,1738,1758,1778,1798,1818,1838,1858,1878,1899,1919,1938,1959,1978],"xSR":741.5,"ySR":469.95,"xT1":424.9,"yT1":0,"xT2":1058.1,"yT2":0,"toosoon":0,"cond_shown":"Congruent","ratio_trial":100,"L_num":7,"L_den":14,"R_num":9,"R_den":15,"correct_side":2,"subjID":"JuanManuelCruz34","gender":"0","school":"6","age":"11"},{"start_time":1551892051075,"click_time":1551892052724,"finger_time":1551892052163,"fix_duration":250,"trial":6,"RT":1088,"MT":561,"sideResp":2,"stimulus":[],"xmouse":[824,824,824,824,824,824,824,824,824,824,824,824,824,824,824,824,823,823,823,823,823,823,822,822,822,822,822,822,822,822,822,823,824,824,824,824,823,823,823,823,823,823,823,823,824,825,826,826,829,830,831,831,834,838,846,877,893,904,910,913,918,919,921,924,927,935,938,940,943,953,958,959,960,961,979,1000,1019,1027,1034,1042,1047,1056,1063],"ymouse":[531,531,531,531,531,531,531,531,531,531,531,531,531,531,531,531,529,529,529,529,529,529,528,528,528,528,528,528,527,526,524,523,522,521,520,518,517,515,514,512,510,509,508,507,506,505,504,503,500,498,496,493,490,481,467,397,355,304,283,263,237,227,217,208,202,182,170,164,159,150,147,146,146,145,141,132,124,118,113,107,102,95,86],"timestamp_mouse":[13,37,48,68,88,109,128,148,168,189,208,229,248,268,288,308,330,349,369,389,409,429,448,468,488,508,529,549,568,588,608,628,649,669,689,708,728,748,768,788,809,828,849,868,889,909,928,949,968,989,1008,1028,1048,1068,1088,1108,1128,1148,1168,1188,1208,1228,1248,1268,1289,1308,1329,1348,1369,1390,1408,1428,1449,1468,1490,1508,1529,1548,1569,1590,1608,1628,1648],"xSR":741.5,"ySR":469.95,"xT1":424.9,"yT1":0,"xT2":1058.1,"yT2":0,"toosoon":0,"cond_shown":"Congruent","ratio_trial":100,"L_num":2,"L_den":5,"R_num":11,"R_den":22,"correct_side":2,"subjID":"JuanManuelCruz34","gender":"0","school":"6","age":"11"},{"start_time":1551892055382,"click_time":1551892056904,"finger_time":1551892056323,"fix_duration":538.9916659860753,"trial":7,"RT":941,"MT":581,"sideResp":1,"stimulus":[],"xmouse":[798,798,798,798,798,798,798,798,798,798,798,798,798,798,798,798,798,798,798,798,798,798,798,798,798,798,798,798,798,798,798,798,798,798,798,798,798,798,798,798,798,798,798,797,797,797,797,790,784,775,764,761,760,759,756,739,726,709,697,675,665,643,594,578,573,568,566,563,560,557,554,552,551,550,547,535,523],"ymouse":[515,515,515,515,515,515,515,515,515,515,515,515,515,515,515,515,515,515,515,515,515,515,515,515,515,515,515,515,515,515,515,515,515,515,515,515,515,515,515,515,515,515,515,514,502,492,476,454,428,400,366,358,353,349,339,297,275,253,237,203,185,151,82,50,32,20,16,12,10,7,5,5,5,5,6,10,14],"timestamp_mouse":[10,38,41,62,80,102,122,141,161,180,200,221,241,261,282,301,321,342,361,380,402,422,441,462,481,501,522,541,561,582,600,621,641,661,681,702,720,740,761,782,802,821,840,861,882,901,921,941,961,980,1001,1021,1041,1062,1081,1102,1120,1142,1160,1183,1200,1221,1241,1262,1282,1302,1322,1340,1362,1381,1401,1421,1440,1461,1481,1501,1522],"xSR":741.5,"ySR":469.95,"xT1":424.9,"yT1":0,"xT2":1058.1,"yT2":0,"toosoon":0,"cond_shown":"Congruent","ratio_trial":300,"L_num":20,"L_den":25,"R_num":14,"R_den":28,"correct_side":1,"subjID":"JuanManuelCruz34","gender":"0","school":"6","age":"11"},{"start_time":1551892058826,"click_time":1551892060744,"finger_time":1551892060163,"fix_duration":782.3250507069793,"trial":8,"RT":1337,"MT":581,"sideResp":1,"stimulus":[],"xmouse":[800,800,800,800,800,800,800,800,800,800,800,800,800,800,800,800,800,800,800,800,800,800,800,800,800,800,800,800,800,800,800,800,800,800,800,800,800,800,800,800,800,800,800,800,800,800,800,800,800,800,800,800,800,800,800,800,800,800,800,800,800,800,800,800,800,800,801,810,812,810,802,788,726,684,651,640,633,630,622,604,593,588,580,577,571,569,568,562,559,555,553,550,546,543,533,517],"ymouse":[474,474,474,474,474,475,475,475,475,475,475,475,475,475,475,475,475,475,475,475,475,475,475,475,475,475,475,475,475,475,475,475,475,475,475,475,475,475,475,475,475,475,475,475,475,475,475,475,475,475,475,475,475,475,475,475,475,475,475,475,475,475,475,475,475,472,469,447,432,409,392,366,260,207,165,145,125,118,106,80,59,45,27,23,22,21,21,21,21,21,21,22,24,24,27,32],"timestamp_mouse":[17,37,57,77,97,117,136,157,178,196,216,238,258,277,297,317,337,357,377,396,418,436,458,478,497,517,538,557,577,597,616,638,658,677,698,717,738,758,777,797,817,837,857,877,897,917,938,957,977,998,1017,1038,1057,1077,1098,1117,1137,1157,1178,1198,1216,1238,1258,1278,1298,1316,1337,1357,1378,1397,1418,1436,1457,1478,1498,1516,1538,1556,1577,1597,1618,1638,1657,1677,1698,1718,1736,1757,1777,1797,1816,1838,1857,1877,1897,1918],"xSR":741.5,"ySR":469.95,"xT1":424.9,"yT1":0,"xT2":1058.1,"yT2":0,"toosoon":0,"cond_shown":"Incongruent","ratio_trial":100,"L_num":12,"L_den":24,"R_num":9,"R_den":15,"correct_side":2,"subjID":"JuanManuelCruz34","gender":"0","school":"6","age":"11"},{"start_time":1551892063309,"click_time":1551892065083,"finger_time":1551892064803,"fix_duration":1323.7336721996437,"trial":9,"RT":1494,"MT":280,"sideResp":1,"stimulus":[],"xmouse":[771,771,771,771,771,771,772,772,772,772,772,772,772,772,772,772,772,772,772,772,772,772,772,772,772,772,772,772,772,772,772,772,772,772,772,772,772,772,772,772,772,772,772,772,772,772,772,772,772,772,772,772,772,772,772,772,772,772,772,772,772,772,772,772,772,772,772,772,772,772,772,772,771,764,749,742,700,681,665,660,653,637,597,585,574,558,547,535,517],"ymouse":[502,502,502,502,502,502,502,502,502,502,502,502,502,502,502,502,502,502,502,502,502,502,502,502,502,502,502,502,502,502,502,502,502,502,502,502,502,502,502,502,502,502,502,502,502,502,502,502,502,502,502,502,502,502,502,502,502,502,502,502,502,502,502,502,502,502,502,502,502,502,500,498,495,480,457,444,379,349,316,301,276,235,173,152,133,105,85,62,24],"timestamp_mouse":[14,38,55,75,94,115,133,154,174,194,213,233,254,274,295,315,334,354,375,393,414,435,455,474,494,514,534,554,574,594,614,634,653,674,694,715,733,754,775,795,814,833,855,875,893,914,934,954,975,994,1014,1033,1055,1074,1095,1115,1135,1155,1174,1194,1215,1233,1255,1274,1294,1314,1333,1355,1375,1393,1414,1434,1454,1475,1494,1514,1534,1553,1574,1594,1615,1635,1655,1674,1694,1715,1735,1754,1774],"xSR":741.5,"ySR":469.95,"xT1":424.9,"yT1":0,"xT2":1058.1,"yT2":0,"toosoon":0,"cond_shown":"Incongruent","ratio_trial":200,"L_num":7,"L_den":15,"R_num":4,"R_den":6,"correct_side":2,"subjID":"JuanManuelCruz34","gender":"0","school":"6","age":"11"},{"start_time":1551892072649,"click_time":1551892074523,"finger_time":1551892074063,"fix_duration":1423.6143445274242,"trial":10,"RT":1414,"MT":460,"sideResp":2,"stimulus":[],"xmouse":[757,757,757,757,757,757,757,757,757,757,757,757,757,757,757,757,757,757,757,757,757,757,757,757,757,757,757,757,757,757,757,757,757,757,757,757,757,757,757,757,757,757,757,757,757,757,757,757,757,757,757,757,757,757,757,757,757,757,757,757,757,757,757,757,756,757,762,766,769,771,777,782,794,807,818,828,833,837,846,874,909,975,994,1016,1035,1067,1073,1081,1084,1091,1099,1111,1113,1114],"ymouse":[538,538,538,538,538,538,538,538,538,538,538,538,538,538,538,538,538,538,538,538,538,538,538,538,538,538,538,538,538,538,538,538,538,538,538,538,538,538,538,538,538,538,538,538,538,538,538,538,538,538,538,538,538,538,538,538,538,538,538,538,538,538,538,538,536,533,518,504,484,473,442,425,400,371,345,313,305,299,291,269,249,211,202,193,182,159,149,136,130,122,114,102,100,98],"timestamp_mouse":[14,33,54,73,94,113,134,155,173,194,214,235,254,275,293,315,333,354,374,393,414,433,454,474,494,515,534,554,575,595,613,634,655,674,694,715,735,753,774,793,815,835,853,874,894,913,935,955,974,993,1014,1035,1055,1074,1094,1115,1135,1153,1175,1195,1215,1235,1255,1275,1293,1314,1333,1354,1374,1395,1414,1434,1454,1474,1494,1516,1533,1555,1574,1595,1613,1634,1654,1673,1693,1715,1733,1754,1774,1794,1813,1834,1854,1873],"xSR":741.5,"ySR":469.95,"xT1":424.9,"yT1":0,"xT2":1058.1,"yT2":0,"toosoon":0,"cond_shown":"Incongruent","ratio_trial":200,"L_num":7,"L_den":10,"R_num":12,"R_den":24,"correct_side":1,"subjID":"JuanManuelCruz34","gender":"0","school":"6","age":"11"},{"start_time":1551892078083,"click_time":1551892079544,"finger_time":1551892079043,"fix_duration":558.5478151246895,"trial":11,"RT":960,"MT":501,"sideResp":2,"stimulus":[],"xmouse":[782,782,782,782,782,783,783,784,784,784,784,784,784,784,784,784,784,784,784,784,784,784,784,784,784,784,784,784,784,784,784,784,784,784,784,784,784,784,784,784,784,784,784,784,784,785,789,804,865,931,995,1001,1003,1004,1006,1008,1012,1026,1038,1042,1043,1042,1041,1040,1040,1043,1045,1048,1049,1049,1050,1051,1056,1062],"ymouse":[529,529,529,529,528,525,524,522,522,522,522,522,522,522,522,522,522,522,522,522,522,522,522,522,522,522,522,522,522,522,522,522,522,522,522,522,522,522,522,522,522,522,522,522,522,521,516,498,442,397,343,332,326,323,316,310,295,260,234,210,173,161,151,140,129,115,109,102,100,97,96,95,94,94],"timestamp_mouse":[1,37,39,60,81,100,119,140,161,181,201,220,239,260,280,301,320,340,359,381,401,420,440,461,479,500,521,540,559,581,601,620,641,661,681,700,720,740,760,780,799,821,840,859,881,900,919,941,960,979,1000,1021,1040,1059,1081,1100,1120,1140,1160,1180,1200,1221,1240,1259,1279,1301,1320,1340,1359,1381,1400,1420,1440,1461],"xSR":741.5,"ySR":469.95,"xT1":424.9,"yT1":0,"xT2":1058.1,"yT2":0,"toosoon":0,"cond_shown":"Incongruent","ratio_trial":300,"L_num":13,"L_den":26,"R_num":12,"R_den":15,"correct_side":2,"subjID":"JuanManuelCruz34","gender":"0","school":"6","age":"11"},{"start_time":1551892081055,"click_time":1551892082584,"finger_time":1551892082122,"fix_duration":250,"trial":12,"RT":1067,"MT":462,"sideResp":2,"stimulus":[],"xmouse":[786,786,787,788,788,788,788,788,788,788,788,788,788,788,788,788,788,788,788,788,788,788,788,788,788,788,788,788,788,788,788,788,788,788,788,788,788,788,788,788,788,788,788,788,788,788,788,788,788,788,789,804,817,839,859,874,883,891,935,991,1028,1049,1055,1059,1063,1070,1082,1086,1087,1089,1098,1103,1106,1108,1109,1110,1111],"ymouse":[523,523,523,523,523,523,523,523,523,523,523,523,523,523,523,523,523,523,523,523,523,523,523,523,523,523,523,523,523,523,523,523,523,523,523,523,523,523,523,523,523,523,523,523,523,523,523,523,523,523,523,510,493,464,423,377,352,342,295,249,218,192,183,175,167,160,148,144,142,137,130,125,120,112,105,100,98],"timestamp_mouse":[10,40,48,68,87,107,129,147,169,188,208,227,248,267,289,308,329,347,369,388,407,429,448,468,488,508,528,548,568,589,607,627,648,668,689,709,727,749,769,788,809,829,847,869,887,909,929,947,968,987,1008,1028,1048,1067,1088,1109,1128,1148,1169,1189,1209,1228,1249,1268,1288,1308,1328,1348,1368,1388,1409,1428,1449,1469,1489,1508,1528],"xSR":741.5,"ySR":469.95,"xT1":424.9,"yT1":0,"xT2":1058.1,"yT2":0,"toosoon":0,"cond_shown":"Incongruent","ratio_trial":100,"L_num":12,"L_den":24,"R_num":9,"R_den":15,"correct_side":2,"subjID":"JuanManuelCruz34","gender":"0","school":"6","age":"11"},{"start_time":1551892097157,"click_time":1551892099083,"finger_time":1551892097883,"fix_duration":1411.1653515968649,"trial":13,"RT":726,"MT":1200,"sideResp":2,"stimulus":[],"xmouse":[797,797,797,797,797,797,797,797,797,797,797,797,797,797,797,797,797,797,797,797,797,797,797,797,797,796,796,796,796,796,796,796,796,804,806,809,812,818,824,832,846,853,856,858,861,864,865,865,865,865,865,865,865,865,866,870,873,876,878,880,889,897,902,904,908,915,934,944,955,963,970,1011,1037,1060,1088,1093,1095,1095,1095,1095,1095,1095,1094,1093,1093,1093,1093,1093,1093,1093,1093,1093,1093,1093,1093,1094,1094],"ymouse":[502,502,502,502,502,502,502,502,502,502,502,502,502,502,502,502,502,502,502,502,502,502,501,501,501,501,501,501,501,501,500,497,495,485,481,473,468,455,440,419,376,344,325,307,293,274,269,267,265,264,264,264,264,264,264,264,263,260,258,256,243,235,222,215,205,196,175,165,157,152,144,125,117,111,107,106,105,105,105,105,105,105,105,105,105,105,105,105,105,105,105,105,105,104,104,101,99],"timestamp_mouse":[10,40,46,66,85,106,127,146,167,187,205,227,245,266,286,307,325,347,367,386,406,426,446,467,485,506,527,546,567,586,606,626,645,665,686,707,726,746,767,786,807,826,846,866,886,907,926,946,966,986,1008,1025,1046,1067,1087,1107,1126,1146,1167,1187,1206,1225,1246,1266,1285,1306,1326,1345,1367,1387,1406,1425,1447,1467,1486,1506,1526,1546,1566,1586,1605,1627,1646,1667,1686,1706,1726,1746,1766,1786,1806,1826,1847,1865,1887,1906,1926],"xSR":741.5,"ySR":469.95,"xT1":424.9,"yT1":0,"xT2":1058.1,"yT2":0,"toosoon":0,"cond_shown":"Incongruent","ratio_trial":300,"L_num":4,"L_den":20,"R_num":2,"R_den":4,"correct_side":2,"subjID":"JuanManuelCruz34","gender":"0","school":"6","age":"11"},{"start_time":1551892101397,"click_time":1551892103823,"finger_time":1551892102342,"fix_duration":650.2823663346102,"trial":14,"RT":945,"MT":1481,"sideResp":1,"stimulus":[],"xmouse":[787,788,788,792,799,802,803,804,807,810,812,814,814,815,815,815,815,815,815,816,816,816,816,816,816,816,816,816,816,816,816,816,816,816,816,816,816,816,816,816,816,816,816,816,816,819,826,831,833,835,848,897,928,948,949,949,949,949,949,949,948,948,948,948,955,960,962,962,962,966,974,997,1017,1030,1035,1034,1033,1032,1032,1032,1032,1032,1032,1032,1032,1032,1032,1032,1032,1032,1032,1032,1032,1032,1032,1032,1032,1032,1032,1032,1032,1032,889,845,791,780,772,765,757,730,717,706,681,633,608,590,582,581,579,547,526,514],"ymouse":[528,526,526,521,513,509,507,506,500,495,491,489,489,488,488,488,488,487,487,487,487,487,487,487,487,486,485,485,484,483,483,483,483,483,483,483,483,483,483,483,483,483,483,483,483,478,470,463,461,459,450,424,401,354,342,339,338,338,337,337,336,336,332,324,285,262,245,235,228,211,191,140,91,62,36,31,25,15,5,5,5,5,5,5,5,5,5,5,5,5,5,5,5,5,5,5,5,5,5,5,5,5,5,10,19,20,21,21,21,24,26,29,36,43,46,47,48,48,49,56,59,61],"timestamp_mouse":[11,33,46,65,87,106,126,146,167,187,206,225,247,265,287,306,327,346,367,386,406,427,446,467,487,505,526,546,567,586,606,627,645,666,686,705,727,745,765,786,806,825,846,866,887,906,925,945,967,985,1005,1026,1046,1068,1086,1107,1126,1146,1166,1186,1206,1226,1246,1267,1287,1305,1326,1347,1366,1387,1407,1426,1446,1466,1486,1505,1526,1546,1566,1587,1607,1626,1646,1665,1685,1707,1726,1746,1766,1786,1807,1827,1846,1865,1886,1905,1927,1947,1966,1987,2007,2026,2046,2066,2087,2107,2127,2147,2166,2186,2206,2226,2247,2267,2286,2307,2326,2347,2366,2385,2406,2426],"xSR":741.5,"ySR":469.95,"xT1":424.9,"yT1":0,"xT2":1058.1,"yT2":0,"toosoon":0,"cond_shown":"Congruent","ratio_trial":300,"L_num":5,"L_den":25,"R_num":6,"R_den":12,"correct_side":2,"subjID":"JuanManuelCruz34","gender":"0","school":"6","age":"11"},{"start_time":1551892107860,"click_time":1551892109923,"finger_time":1551892109303,"fix_duration":1036.2315436918343,"trial":15,"RT":1443,"MT":620,"sideResp":2,"stimulus":[],"xmouse":[807,807,807,807,807,807,807,807,807,807,807,807,807,807,807,807,807,807,807,807,807,807,807,807,807,807,807,807,807,807,807,807,807,807,807,807,807,807,807,807,807,807,807,807,807,807,807,807,807,807,807,807,807,807,807,807,807,807,807,807,807,807,807,807,807,807,807,807,806,806,806,811,820,832,847,895,918,931,947,956,970,972,972,972,972,976,984,990,991,991,991,990,986,986,986,986,986,991,1015,1031,1038,1043,1046,1062],"ymouse":[502,502,502,502,502,502,502,502,502,502,502,502,502,502,502,502,502,502,502,502,502,502,502,502,502,502,502,502,502,502,502,502,502,502,502,502,502,502,502,502,501,500,500,500,500,500,500,500,500,500,500,499,499,499,499,499,499,499,499,498,498,498,498,498,498,498,498,497,497,495,491,471,448,421,391,297,240,194,148,129,105,102,102,102,101,101,94,89,87,87,87,87,87,87,87,87,88,88,90,90,89,88,88,86],"timestamp_mouse":[10,37,44,63,84,103,123,143,164,183,203,224,244,263,283,303,324,342,363,383,402,424,443,463,483,502,524,542,563,584,602,624,643,662,684,702,724,742,763,784,804,822,844,864,884,903,923,944,963,983,1002,1023,1043,1064,1083,1103,1124,1144,1163,1184,1204,1224,1242,1264,1284,1304,1323,1343,1363,1383,1403,1424,1443,1463,1484,1504,1523,1544,1563,1584,1604,1623,1642,1663,1683,1703,1723,1743,1764,1782,1803,1823,1843,1862,1883,1903,1922,1943,1963,1983,2002,2024,2044,2063],"xSR":741.5,"ySR":469.95,"xT1":424.9,"yT1":0,"xT2":1058.1,"yT2":0,"toosoon":0,"cond_shown":"Incongruent","ratio_trial":200,"L_num":7,"L_den":10,"R_num":8,"R_den":16,"correct_side":1,"subjID":"JuanManuelCruz34","gender":"0","school":"6","age":"11"},{"start_time":1551892110935,"click_time":1551892112283,"finger_time":1551892111683,"fix_duration":250,"trial":16,"RT":748,"MT":600,"sideResp":1,"stimulus":[],"xmouse":[824,824,824,824,823,823,823,823,822,822,822,822,822,822,821,820,819,817,815,813,809,807,802,800,796,795,794,794,793,793,792,792,791,791,789,785,780,766,758,749,739,720,709,698,690,677,658,650,643,640,638,636,626,617,604,593,584,571,563,556,549,543,541,537,532,523,512,489],"ymouse":[528,528,528,528,529,529,529,529,529,529,529,529,529,529,529,529,529,529,529,528,526,524,519,516,510,509,506,506,504,503,502,501,499,498,494,489,480,456,444,430,413,377,359,339,322,296,266,253,243,237,232,226,210,197,178,164,152,133,123,117,112,108,107,106,105,102,101,97],"timestamp_mouse":[7,34,48,69,87,108,128,148,169,189,209,227,247,269,289,308,328,348,369,387,407,428,448,468,488,509,529,547,568,589,607,629,648,668,687,709,728,748,767,788,808,829,848,868,888,909,929,948,969,989,1007,1027,1048,1069,1088,1107,1128,1148,1168,1188,1209,1229,1247,1268,1289,1309,1328,1348],"xSR":741.5,"ySR":469.95,"xT1":424.9,"yT1":0,"xT2":1058.1,"yT2":0,"toosoon":0,"cond_shown":"Congruent","ratio_trial":100,"L_num":6,"L_den":20,"R_num":5,"R_den":25,"correct_side":1,"subjID":"JuanManuelCruz34","gender":"0","school":"6","age":"11"},{"start_time":1551892114666,"click_time":1551892116484,"finger_time":1551892115623,"fix_duration":901.5017031707224,"trial":17,"RT":957,"MT":861,"sideResp":2,"stimulus":[],"xmouse":[775,775,775,775,775,775,775,775,775,775,775,775,775,775,775,775,775,775,775,775,775,775,775,775,775,775,775,775,775,775,775,775,775,775,776,777,778,778,778,779,780,781,783,786,794,818,826,836,838,845,851,858,869,886,945,998,1043,1089,1100,1106,1123,1136,1148,1160,1170,1170,1169,1166,1165,1163,1158,1151,1140,1137,1136,1136,1136,1136,1136,1136,1136,1136,1136,1136,1134,1133,1132,1131,1131,1129,1127],"ymouse":[542,542,541,541,541,541,541,541,541,541,541,541,541,541,541,541,541,541,541,541,541,541,541,541,541,541,541,541,541,541,540,539,539,538,537,535,534,534,533,531,530,527,523,518,508,480,470,457,454,446,440,432,420,404,353,313,273,235,220,211,194,186,179,170,145,137,132,127,127,126,125,123,118,117,116,116,116,115,115,114,113,113,112,112,110,109,107,106,105,102,99],"timestamp_mouse":[34,37,56,77,97,116,137,158,176,197,217,237,257,277,297,316,337,357,378,397,417,437,458,477,498,516,537,557,578,597,618,637,658,676,698,716,737,758,779,799,817,837,858,878,898,918,939,957,977,999,1018,1038,1058,1077,1098,1117,1138,1158,1177,1209,1219,1239,1262,1279,1298,1317,1337,1359,1379,1399,1417,1437,1457,1477,1498,1517,1538,1559,1578,1597,1618,1637,1658,1677,1699,1717,1738,1758,1777,1799,1817],"xSR":741.5,"ySR":469.95,"xT1":424.9,"yT1":0,"xT2":1058.1,"yT2":0,"toosoon":0,"cond_shown":"Congruent","ratio_trial":200,"L_num":8,"L_den":15,"R_num":7,"R_den":21,"correct_side":1,"subjID":"JuanManuelCruz34","gender":"0","school":"6","age":"11"},{"start_time":1551892119957,"click_time":1551892120904,"finger_time":1551892120625,"fix_duration":612.164860383291,"trial":18,"RT":668,"MT":279,"sideResp":1,"stimulus":[],"xmouse":[813,813,813,813,813,813,812,809,807,806,806,806,806,806,806,806,806,806,806,806,806,806,806,806,806,806,806,806,806,806,805,795,771,704,640,564,426,406,400,400,399,399,399,399,401,402,413,434],"ymouse":[564,564,564,564,564,564,558,546,537,532,532,532,532,532,532,532,532,532,532,532,532,532,532,532,532,532,532,532,532,532,531,523,495,416,363,293,146,118,104,100,98,96,92,72,61,56,48,40],"timestamp_mouse":[10,38,46,67,87,106,127,146,167,186,207,226,246,268,286,307,327,346,367,386,408,426,446,466,486,506,526,547,567,587,608,626,647,668,687,706,726,746,767,787,806,826,846,866,886,906,926,946],"xSR":741.5,"ySR":469.95,"xT1":424.9,"yT1":0,"xT2":1058.1,"yT2":0,"toosoon":0,"cond_shown":"Congruent","ratio_trial":200,"L_num":12,"L_den":15,"R_num":6,"R_den":10,"correct_side":1,"subjID":"JuanManuelCruz34","gender":"0","school":"6","age":"11"},{"start_time":1551892123148,"click_time":1551892123965,"finger_time":1551892123804,"fix_duration":1244.7635199554836,"trial":19,"RT":656,"MT":161,"sideResp":2,"stimulus":[],"xmouse":[790,790,790,790,790,790,790,790,790,790,790,790,790,790,790,790,790,790,790,790,790,790,790,790,790,790,790,790,790,790,791,797,816,825,864,888,891,907,948,1014,1070],"ymouse":[514,514,514,514,514,514,514,514,514,514,514,514,514,514,514,514,514,514,514,514,514,514,514,514,514,514,514,514,514,514,513,494,438,417,322,244,220,185,141,93,61],"timestamp_mouse":[15,35,55,75,96,115,136,155,177,195,217,237,255,276,296,316,335,357,376,395,415,436,456,475,496,516,535,556,577,595,616,635,656,675,696,717,736,755,776,795,817],"xSR":741.5,"ySR":469.95,"xT1":424.9,"yT1":0,"xT2":1058.1,"yT2":0,"toosoon":0,"cond_shown":"Congruent","ratio_trial":100,"L_num":7,"L_den":14,"R_num":15,"R_den":25,"correct_side":2,"subjID":"JuanManuelCruz34","gender":"0","school":"6","age":"11"},{"start_time":1551892125533,"click_time":1551892126265,"finger_time":1551892126023,"fix_duration":608.9769349701202,"trial":20,"RT":490,"MT":242,"sideResp":2,"stimulus":[],"xmouse":[774,774,774,774,774,774,774,774,774,774,774,774,774,774,774,774,774,774,774,774,774,774,774,774,780,791,815,875,885,889,893,903,953,1003,1069,1090,1095],"ymouse":[478,478,478,478,478,478,478,478,478,478,478,478,478,478,478,478,478,478,478,478,478,478,478,478,469,453,427,355,337,324,305,281,221,171,122,104,94],"timestamp_mouse":[11,31,51,71,90,112,130,150,172,192,210,231,250,271,291,310,331,350,370,392,410,430,450,471,490,510,532,551,570,591,611,631,650,670,690,711,731],"xSR":741.5,"ySR":469.95,"xT1":424.9,"yT1":0,"xT2":1058.1,"yT2":0,"toosoon":0,"cond_shown":"Congruent","ratio_trial":100,"L_num":4,"L_den":10,"R_num":15,"R_den":30,"correct_side":2,"subjID":"JuanManuelCruz34","gender":"0","school":"6","age":"11"},{"start_time":1551892129664,"click_time":1551892131123,"finger_time":1551892130965,"fix_duration":1100.5899081198056,"trial":21,"RT":1301,"MT":158,"sideResp":1,"stimulus":[],"xmouse":[824,824,824,824,824,824,824,824,824,824,824,824,824,824,824,824,824,824,824,824,824,824,824,824,824,824,824,824,824,824,824,824,824,824,824,824,824,824,824,824,824,820,816,807,801,799,799,799,799,799,799,799,799,799,799,799,799,799,799,799,799,799,799,795,737,661,621,604,560,535,519,511,502],"ymouse":[499,499,499,499,499,499,499,499,499,499,499,499,499,499,499,499,499,499,499,499,499,499,499,499,499,499,499,499,499,499,499,499,499,499,499,499,499,499,499,499,499,496,493,486,481,479,479,479,479,479,479,479,479,479,479,479,479,479,479,479,479,479,479,474,407,344,308,288,230,185,139,114,90],"timestamp_mouse":[34,40,61,79,101,119,139,159,179,200,221,241,261,280,299,320,339,360,380,400,419,439,460,481,499,521,540,559,580,600,619,639,660,679,701,719,739,760,780,799,820,839,859,879,900,920,939,960,979,1000,1020,1039,1060,1081,1099,1120,1140,1159,1181,1199,1219,1241,1260,1279,1301,1320,1341,1359,1379,1399,1419,1439,1459],"xSR":741.5,"ySR":469.95,"xT1":424.9,"yT1":0,"xT2":1058.1,"yT2":0,"toosoon":0,"cond_shown":"Incongruent","ratio_trial":300,"L_num":2,"L_den":4,"R_num":6,"R_den":30,"correct_side":1,"subjID":"JuanManuelCruz34","gender":"0","school":"6","age":"11"},{"start_time":1551892133223,"click_time":1551892134365,"finger_time":1551892134004,"fix_duration":1119.3968708683487,"trial":22,"RT":781,"MT":361,"sideResp":1,"stimulus":[],"xmouse":[827,827,827,827,827,827,827,827,827,827,827,827,827,827,827,827,827,827,827,827,827,827,827,827,827,827,827,827,827,827,827,827,827,827,827,827,826,819,785,738,719,674,647,615,605,597,590,585,575,571,565,562,554,551,548,542,535,509],"ymouse":[549,549,549,549,549,549,549,549,549,549,549,549,549,549,549,549,549,549,549,549,549,549,549,549,549,549,549,549,549,549,549,549,549,549,549,549,546,535,473,397,370,304,268,220,206,195,186,174,158,152,143,138,129,125,121,116,110,93],"timestamp_mouse":[3,20,42,62,80,102,121,140,161,180,200,220,240,260,281,301,321,342,360,380,401,420,441,462,481,501,520,540,560,580,600,621,642,661,681,701,720,742,760,781,801,821,840,860,881,901,921,941,961,980,1001,1022,1042,1061,1081,1101,1120,1141],"xSR":741.5,"ySR":469.95,"xT1":424.9,"yT1":0,"xT2":1058.1,"yT2":0,"toosoon":0,"cond_shown":"Incongruent","ratio_trial":100,"L_num":8,"L_den":16,"R_num":6,"R_den":10,"correct_side":2,"subjID":"JuanManuelCruz34","gender":"0","school":"6","age":"11"},{"start_time":1551892135944,"click_time":1551892138463,"finger_time":1551892137663,"fix_duration":300.41138241617483,"trial":23,"RT":1719,"MT":800,"sideResp":2,"stimulus":[],"xmouse":[838,838,838,838,838,838,838,838,838,838,838,838,838,838,838,838,838,838,838,838,838,838,838,838,838,838,838,838,838,838,838,838,838,838,838,838,838,838,838,838,838,838,838,838,838,838,838,838,838,838,838,838,838,838,838,838,838,838,838,838,838,838,838,838,838,838,838,838,838,838,838,838,838,838,838,838,838,838,838,838,838,838,823,786,742,689,642,636,636,636,637,646,646,646,647,650,651,650,643,643,669,682,685,681,643,601,592,588,585,583,576,572,567,565,563,561,554,551,549,549,549,557,581,701,850,1135],"ymouse":[533,533,533,533,533,533,533,533,533,533,533,533,533,533,533,533,533,533,533,533,533,533,533,533,533,533,533,533,533,533,533,533,533,533,533,533,533,533,533,533,533,533,533,533,533,533,533,533,533,533,533,533,533,533,533,533,533,533,533,533,533,533,533,533,533,533,533,533,533,533,533,533,533,533,533,533,533,533,533,533,533,533,533,524,516,506,494,491,491,491,486,475,475,475,472,461,448,429,415,408,367,351,343,330,299,266,258,254,249,245,237,232,222,216,212,210,203,200,199,197,196,188,176,123,78,6],"timestamp_mouse":[36,39,61,80,99,120,140,160,179,199,219,240,260,280,300,319,339,359,379,399,419,441,459,480,499,519,540,560,580,601,619,641,660,679,699,719,741,760,779,799,819,839,859,880,899,919,940,961,980,999,1020,1041,1059,1080,1099,1121,1139,1159,1179,1200,1221,1239,1260,1279,1299,1319,1340,1360,1380,1400,1420,1441,1459,1479,1500,1519,1540,1561,1580,1599,1620,1640,1659,1679,1700,1719,1739,1760,1781,1801,1820,1839,1860,1879,1901,1921,1939,1959,1981,2001,2021,2039,2060,2079,2100,2121,2139,2160,2179,2200,2221,2240,2260,2279,2299,2319,2339,2359,2381,2400,2419,2439,2460,2480,2500,2519],"xSR":741.5,"ySR":469.95,"xT1":424.9,"yT1":0,"xT2":1058.1,"yT2":0,"toosoon":0,"cond_shown":"Congruent","ratio_trial":100,"L_num":3,"L_den":6,"R_num":2,"R_den":5,"correct_side":1,"subjID":"JuanManuelCruz34","gender":"0","school":"6","age":"11"},{"start_time":1551892140701,"click_time":1551892143423,"finger_time":1551892141825,"fix_duration":777.5232258632593,"trial":24,"RT":1124,"MT":1598,"sideResp":2,"stimulus":[],"xmouse":[820,820,820,820,820,820,820,820,820,820,820,820,820,820,820,820,820,820,820,820,820,820,820,820,820,820,820,820,820,820,820,820,820,820,819,819,819,819,819,819,819,819,819,819,819,819,819,819,820,821,823,824,825,825,828,834,843,859,866,864,863,863,863,865,881,914,986,1020,1031,1019,995,976,971,971,985,999,1010,1010,1010,1010,1010,1010,1010,1010,1010,1010,1010,1011,1013,1015,1016,1020,1026,1031,1034,1034,1034,1034,1037,1043,1045,1045,1045,1045,1045,1046,1047,1049,1049,1050,1052,1054,1055,1055,1055,1055,1055,1055,1055,1054,1053,1048,1046,1046,1045,1045,1045,1045,1045,1047,1052,1055,1056,1056,1056,1058,1061],"ymouse":[545,545,545,545,545,545,545,545,545,545,545,545,545,545,545,545,545,545,545,545,545,545,545,545,545,545,545,545,545,545,545,545,545,545,544,544,544,542,542,541,541,541,541,541,539,538,536,535,530,527,524,522,521,519,509,497,478,421,393,371,369,369,369,348,317,266,190,163,139,119,95,78,73,69,49,39,31,30,30,30,30,30,30,30,30,30,30,30,30,30,30,30,31,32,33,33,33,33,33,34,34,34,34,34,34,35,35,36,36,37,38,40,41,45,50,51,51,51,51,52,54,56,57,57,58,58,58,58,58,58,58,58,58,58,58,58,58],"timestamp_mouse":[8,32,42,63,84,104,123,144,162,182,203,223,242,264,282,303,322,342,364,383,402,422,442,462,482,502,522,543,563,582,603,623,642,662,683,703,723,743,764,784,802,822,842,863,884,903,922,944,964,984,1003,1022,1042,1063,1082,1102,1124,1142,1162,1182,1202,1223,1242,1263,1282,1302,1322,1342,1363,1382,1403,1422,1443,1462,1482,1504,1522,1543,1563,1584,1603,1622,1642,1664,1683,1702,1722,1743,1762,1783,1802,1822,1842,1863,1883,1904,1922,1943,1963,1982,2003,2022,2042,2063,2084,2103,2123,2143,2163,2182,2202,2223,2244,2264,2283,2303,2324,2343,2364,2383,2402,2424,2443,2464,2482,2502,2523,2544,2563,2582,2603,2623,2643,2663,2683,2703,2722],"xSR":741.5,"ySR":469.95,"xT1":424.9,"yT1":0,"xT2":1058.1,"yT2":0,"toosoon":0,"cond_shown":"Congruent","ratio_trial":300,"L_num":18,"L_den":20,"R_num":9,"R_den":15,"correct_side":1,"subjID":"JuanManuelCruz34","gender":"0","school":"6","age":"11"},{"start_time":1551892144795,"click_time":1551892146263,"finger_time":1551892146145,"fix_duration":250,"trial":25,"RT":1350,"MT":118,"sideResp":1,"stimulus":[],"xmouse":[792,792,792,792,792,792,792,792,789,788,788,788,788,788,788,788,788,788,788,788,788,788,788,788,788,788,788,788,788,788,788,788,788,788,788,788,788,788,788,788,788,788,788,788,788,788,788,788,789,795,795,795,795,795,795,795,795,795,795,795,795,795,795,795,795,795,795,786,757,644,587,547,531,523],"ymouse":[543,543,543,543,543,543,543,546,551,551,552,552,552,552,552,552,552,552,552,552,552,552,552,552,552,552,552,552,552,552,552,552,552,552,552,552,552,552,552,552,552,552,552,552,552,552,552,551,549,539,539,539,539,539,539,539,539,539,539,539,539,539,539,539,536,523,501,458,386,206,132,76,58,47],"timestamp_mouse":[10,36,48,70,88,109,129,148,169,188,210,229,248,269,289,309,329,348,369,389,409,429,449,468,489,509,528,549,569,588,609,629,649,669,688,710,729,750,768,789,809,828,849,869,888,910,930,948,968,990,1010,1029,1049,1069,1090,1109,1129,1148,1168,1188,1209,1228,1248,1269,1289,1308,1329,1350,1368,1388,1409,1430,1448,1468],"xSR":741.5,"ySR":469.95,"xT1":424.9,"yT1":0,"xT2":1058.1,"yT2":0,"toosoon":0,"cond_shown":"Incongruent","ratio_trial":300,"L_num":4,"L_den":20,"R_num":2,"R_den":4,"correct_side":2,"subjID":"JuanManuelCruz34","gender":"0","school":"6","age":"11"},{"start_time":1551892148921,"click_time":1551892150424,"finger_time":1551892150265,"fix_duration":1335.3721370385733,"trial":26,"RT":1344,"MT":159,"sideResp":2,"stimulus":[],"xmouse":[767,767,767,767,766,766,766,766,767,767,767,767,767,767,767,767,767,767,767,767,767,767,767,768,769,770,771,771,771,771,771,771,771,771,773,776,783,792,802,802,802,802,802,802,802,802,802,802,802,802,802,802,802,801,801,801,801,801,801,801,801,801,801,801,801,802,817,885,920,952,982,1008,1034,1042,1052,1066],"ymouse":[512,512,512,512,513,514,516,517,519,519,519,519,519,519,519,519,519,519,519,519,519,519,519,519,519,519,519,519,519,519,519,519,519,519,519,519,519,519,517,517,517,517,517,518,519,519,519,519,519,519,519,519,520,521,521,521,521,521,521,521,521,521,521,521,521,520,503,386,310,232,167,122,83,71,56,36],"timestamp_mouse":[2,23,42,62,82,102,123,142,162,182,202,222,242,263,283,302,324,342,362,382,403,422,442,462,482,504,524,543,563,582,602,623,642,662,683,702,722,742,762,782,802,822,843,864,882,903,922,944,962,982,1002,1023,1043,1063,1082,1104,1122,1143,1164,1183,1203,1223,1244,1262,1282,1304,1322,1344,1362,1382,1402,1422,1444,1462,1483,1503],"xSR":741.5,"ySR":469.95,"xT1":424.9,"yT1":0,"xT2":1058.1,"yT2":0,"toosoon":0,"cond_shown":"Congruent","ratio_trial":300,"L_num":3,"L_den":6,"R_num":4,"R_den":5,"correct_side":2,"subjID":"JuanManuelCruz34","gender":"0","school":"6","age":"11"},{"start_time":1551892151636,"click_time":1551892153365,"finger_time":1551892152963,"fix_duration":250,"trial":27,"RT":1327,"MT":402,"sideResp":2,"stimulus":[],"xmouse":[820,826,830,835,836,837,837,837,837,837,837,837,837,837,837,837,837,837,837,836,836,836,835,835,835,835,835,835,835,834,834,834,834,834,834,833,833,833,834,834,834,832,829,827,827,827,827,826,826,826,825,825,825,824,823,822,821,819,819,819,819,819,819,818,821,826,842,971,1033,1065,1070,1073,1074,1076,1083,1091,1099,1112,1116,1117,1118,1120,1133,1139,1141,1141,1141],"ymouse":[514,514,514,514,514,513,513,513,513,513,513,513,513,513,513,513,513,513,513,513,513,513,513,513,513,513,513,513,513,513,513,513,513,513,513,513,513,513,507,506,501,499,499,499,499,499,499,499,499,499,499,499,499,499,499,499,499,499,499,499,499,499,499,499,496,493,483,383,308,260,253,247,246,244,237,230,223,203,190,176,171,165,142,126,115,104,89],"timestamp_mouse":[9,29,47,69,88,109,128,147,167,187,208,228,247,267,288,309,328,349,367,388,407,429,447,468,489,507,527,547,569,587,607,627,647,668,687,707,729,747,767,787,807,827,847,867,888,907,927,949,967,988,1007,1028,1048,1067,1088,1108,1127,1148,1168,1188,1207,1229,1247,1268,1288,1307,1327,1347,1367,1387,1408,1429,1447,1468,1487,1507,1527,1548,1568,1589,1609,1629,1648,1667,1688,1707,1728],"xSR":741.5,"ySR":469.95,"xT1":424.9,"yT1":0,"xT2":1058.1,"yT2":0,"toosoon":0,"cond_shown":"Incongruent","ratio_trial":300,"L_num":4,"L_den":20,"R_num":2,"R_den":4,"correct_side":2,"subjID":"JuanManuelCruz34","gender":"0","school":"6","age":"11"},{"start_time":1551892159555,"click_time":1551892161365,"finger_time":1551892160764,"fix_duration":1190.8298855739217,"trial":28,"RT":1209,"MT":601,"sideResp":2,"stimulus":[],"xmouse":[777,777,777,777,777,777,777,777,777,777,777,777,777,777,777,777,777,777,777,777,777,777,777,777,777,777,777,777,777,777,777,777,777,777,777,777,777,777,777,777,777,777,777,777,777,777,777,777,778,779,781,789,802,818,828,833,835,835,835,836,837,845,865,885,908,933,966,982,1001,1015,1026,1033,1034,1034,1037,1041,1047,1049,1052,1054,1058,1063,1065,1069,1077,1086,1093,1094,1094,1095,1101],"ymouse":[540,540,540,540,540,540,540,540,540,540,540,540,540,540,540,540,540,540,540,540,540,540,540,540,540,540,540,540,540,540,540,540,540,540,540,540,540,540,540,540,540,540,540,540,540,540,540,538,538,536,534,527,515,498,484,475,472,472,472,470,469,460,439,418,391,362,315,295,275,260,251,243,241,237,231,218,193,187,180,169,155,135,128,123,116,111,107,106,106,103,95],"timestamp_mouse":[8,28,49,68,89,108,130,149,168,189,208,228,248,269,289,310,328,348,370,389,408,430,449,468,490,508,528,549,569,590,608,628,649,668,688,710,730,749,769,789,809,829,850,869,889,909,929,949,970,990,1008,1029,1049,1068,1088,1109,1130,1149,1168,1189,1209,1229,1249,1268,1289,1308,1328,1349,1370,1390,1408,1428,1448,1468,1488,1508,1528,1548,1569,1589,1609,1628,1648,1668,1689,1709,1728,1748,1768,1788,1810],"xSR":741.5,"ySR":469.95,"xT1":424.9,"yT1":0,"xT2":1058.1,"yT2":0,"toosoon":0,"cond_shown":"Incongruent","ratio_trial":300,"L_num":4,"L_den":20,"R_num":2,"R_den":4,"correct_side":2,"subjID":"JuanManuelCruz34","gender":"0","school":"6","age":"11"},{"start_time":1551892163697,"click_time":1551892165644,"finger_time":1551892165084,"fix_duration":1112.9616682760454,"trial":29,"RT":1387,"MT":560,"sideResp":1,"stimulus":[],"xmouse":[817,817,817,817,817,817,817,817,817,817,817,817,817,817,817,817,817,817,817,817,817,817,817,817,817,817,817,817,817,817,817,817,817,817,817,817,817,817,817,817,817,817,817,817,817,817,817,817,817,817,817,817,817,817,817,816,816,816,816,816,816,816,816,816,816,816,813,802,769,529,356,218,124,90,91,105,141,173,202,257,280,295,300,307,319,323,337,348,374,383,387,389,390,391,402,410,419,425],"ymouse":[515,515,515,515,515,515,515,515,515,515,515,515,515,515,515,515,515,515,515,515,515,515,515,515,515,515,515,515,515,515,515,515,515,515,515,515,515,515,515,515,515,515,515,515,515,515,515,515,515,515,515,515,515,515,515,514,514,514,514,514,514,514,514,514,514,513,509,501,481,348,263,189,134,107,96,91,79,72,66,57,54,53,53,53,57,59,71,80,91,93,94,94,94,94,89,85,78,75],"timestamp_mouse":[8,38,46,67,86,107,126,147,167,187,207,226,248,268,286,306,328,348,368,386,408,426,446,466,487,507,526,548,567,586,607,626,647,667,686,707,726,748,766,786,807,826,846,867,888,906,926,947,967,987,1007,1026,1047,1067,1090,1106,1127,1146,1167,1186,1207,1227,1247,1266,1288,1307,1326,1347,1366,1387,1406,1426,1448,1467,1486,1506,1526,1546,1566,1586,1606,1626,1646,1668,1687,1707,1727,1747,1768,1787,1807,1826,1847,1867,1886,1907,1927,1947],"xSR":741.5,"ySR":469.95,"xT1":424.9,"yT1":0,"xT2":1058.1,"yT2":0,"toosoon":0,"cond_shown":"Incongruent","ratio_trial":100,"L_num":6,"L_den":10,"R_num":7,"R_den":14,"correct_side":1,"subjID":"JuanManuelCruz34","gender":"0","school":"6","age":"11"},{"start_time":1551892167060,"click_time":1551892168483,"finger_time":1551892168365,"fix_duration":375.6745244557078,"trial":30,"RT":1305,"MT":118,"sideResp":1,"stimulus":[],"xmouse":[830,830,830,830,830,830,830,830,830,830,830,830,830,830,830,830,830,830,830,830,830,830,830,830,830,830,830,830,830,830,830,830,830,830,830,830,830,830,830,830,830,830,830,830,830,830,830,830,830,830,830,830,830,830,829,829,829,829,829,829,829,829,829,829,827,812,780,689,613,552,526,520],"ymouse":[501,501,501,501,501,501,501,501,501,501,501,501,501,501,501,501,501,501,501,501,501,501,501,501,501,501,501,501,501,501,501,501,501,501,501,501,501,501,501,501,501,501,501,501,499,498,496,493,491,489,489,489,488,487,486,485,483,483,483,483,483,483,482,479,474,437,387,263,165,83,47,39],"timestamp_mouse":[8,35,43,63,85,104,123,144,163,184,204,223,243,264,285,303,325,344,363,384,404,423,443,464,483,504,524,543,563,585,604,624,643,665,684,704,724,743,763,783,803,824,845,864,883,904,923,943,964,983,1003,1023,1045,1064,1084,1104,1123,1145,1163,1183,1204,1223,1243,1263,1284,1305,1323,1343,1363,1383,1403,1423],"xSR":741.5,"ySR":469.95,"xT1":424.9,"yT1":0,"xT2":1058.1,"yT2":0,"toosoon":0,"cond_shown":"Incongruent","ratio_trial":300,"L_num":8,"L_den":10,"R_num":9,"R_den":18,"correct_side":1,"subjID":"JuanManuelCruz34","gender":"0","school":"6","age":"11"},{"start_time":1551892172746,"click_time":1551892174703,"finger_time":1551892173985,"fix_duration":780.8489818028673,"trial":31,"RT":1239,"MT":718,"sideResp":2,"stimulus":[],"xmouse":[784,784,784,784,784,784,784,784,784,784,784,784,784,784,784,784,784,784,784,784,784,784,784,784,784,784,784,784,784,784,784,784,784,784,784,784,784,784,784,784,784,784,784,784,784,784,784,784,784,785,786,786,786,786,787,788,792,803,819,834,841,845,845,845,845,845,845,845,845,845,845,845,845,845,845,845,845,845,845,845,847,848,850,851,852,853,854,856,860,867,892,912,940,971,988,1035,1068,1105],"ymouse":[531,531,531,530,529,528,528,528,528,528,528,528,528,528,528,528,528,528,528,528,528,528,528,528,528,528,528,528,528,528,528,528,528,528,528,528,528,528,528,528,528,528,528,528,528,528,528,527,526,523,520,518,518,518,517,515,511,503,493,485,480,478,478,478,478,478,478,478,478,478,478,478,478,478,478,478,478,478,478,478,478,478,478,478,477,476,476,475,473,467,442,408,353,281,243,162,120,74],"timestamp_mouse":[20,39,57,79,97,118,139,157,178,198,226,238,257,277,298,317,338,358,377,399,418,439,457,479,497,517,538,558,578,597,617,638,658,678,698,718,738,758,777,798,819,837,858,877,897,919,937,957,977,999,1019,1038,1057,1077,1099,1118,1138,1157,1178,1198,1217,1239,1258,1278,1297,1318,1338,1358,1378,1397,1417,1437,1457,1478,1498,1519,1537,1558,1577,1597,1619,1637,1658,1678,1698,1719,1737,1757,1777,1797,1818,1837,1858,1878,1898,1919,1938,1957],"xSR":741.5,"ySR":469.95,"xT1":424.9,"yT1":0,"xT2":1058.1,"yT2":0,"toosoon":0,"cond_shown":"Incongruent","ratio_trial":200,"L_num":6,"L_den":20,"R_num":3,"R_den":6,"correct_side":2,"subjID":"JuanManuelCruz34","gender":"0","school":"6","age":"11"},{"start_time":1551892176208,"click_time":1551892178225,"finger_time":1551892177485,"fix_duration":319.00682262753446,"trial":32,"RT":1277,"MT":740,"sideResp":1,"stimulus":[],"xmouse":[831,831,831,831,831,831,831,831,831,831,831,831,831,831,831,831,831,831,831,831,831,831,831,831,831,831,831,831,831,831,831,831,831,831,831,831,831,831,831,831,831,831,831,831,831,831,831,831,831,831,831,831,830,830,830,830,830,830,830,830,830,829,825,799,766,728,697,680,672,669,657,647,638,616,609,600,589,578,548,534,530,527,521,516,512,507,504,500,491,490,490,490,490,490,490,490,490,490,490,490,490],"ymouse":[517,517,517,517,517,517,517,517,517,517,517,517,517,517,517,517,517,517,517,517,517,517,517,517,517,517,517,517,517,517,517,517,517,517,517,517,517,517,517,517,517,517,517,517,517,517,517,517,517,517,517,517,517,517,517,517,517,517,516,514,508,502,493,433,375,306,255,227,213,207,184,167,153,135,131,129,127,125,117,113,110,110,108,108,107,106,106,105,103,102,102,102,102,102,102,102,102,102,101,100,96],"timestamp_mouse":[28,37,58,77,97,117,137,158,179,197,217,237,257,277,298,318,337,357,378,397,418,437,457,477,497,517,537,558,577,597,618,637,657,677,697,717,738,758,778,797,818,837,858,878,897,918,937,957,977,997,1017,1037,1058,1078,1097,1117,1138,1158,1177,1197,1217,1237,1257,1277,1297,1318,1337,1357,1378,1397,1417,1437,1457,1477,1498,1517,1538,1557,1578,1598,1617,1638,1658,1677,1697,1717,1737,1758,1777,1797,1817,1838,1857,1878,1897,1918,1938,1957,1977,1997,2017],"xSR":741.5,"ySR":469.95,"xT1":424.9,"yT1":0,"xT2":1058.1,"yT2":0,"toosoon":0,"cond_shown":"Congruent","ratio_trial":200,"L_num":12,"L_den":15,"R_num":6,"R_den":10,"correct_side":1,"subjID":"JuanManuelCruz34","gender":"0","school":"6","age":"11"},{"start_time":1551892181266,"click_time":1551892183785,"finger_time":1551892183006,"fix_duration":1439.4720689854162,"trial":33,"RT":1740,"MT":779,"sideResp":1,"stimulus":[],"xmouse":[800,800,800,801,801,801,801,801,801,801,801,801,801,801,801,801,801,801,801,801,801,801,801,801,801,801,801,801,801,801,801,801,801,801,801,801,801,801,801,801,801,801,801,801,801,801,801,801,801,801,801,801,801,801,801,801,801,801,801,801,801,801,801,801,801,801,801,801,801,801,801,801,801,801,801,801,801,801,801,801,801,801,801,801,805,817,838,848,852,855,855,855,855,855,855,855,855,855,854,849,831,808,770,727,666,634,614,580,580,580,580,580,580,580,580,580,580,580,580,580,580,580,580,580,580,498],"ymouse":[523,523,521,521,521,521,521,521,521,521,521,521,521,519,519,518,517,516,514,513,511,510,510,508,507,506,505,505,504,504,504,504,504,504,504,504,504,504,504,504,504,504,504,504,504,504,504,504,504,504,504,504,504,504,504,504,504,504,504,504,504,504,504,504,504,504,504,504,504,503,503,503,503,503,503,503,503,503,503,503,503,503,503,503,499,489,467,449,436,421,418,418,418,418,418,418,418,417,413,409,396,378,342,296,182,120,74,11,11,11,11,11,11,11,11,11,11,11,11,11,11,11,11,11,11,2],"timestamp_mouse":[34,39,59,79,100,119,139,159,180,199,227,239,259,279,300,319,339,359,379,399,419,439,459,479,500,520,539,559,579,600,620,639,660,680,699,719,740,759,779,799,819,840,859,879,899,919,939,959,979,999,1019,1039,1060,1080,1099,1119,1140,1159,1179,1200,1219,1240,1259,1280,1299,1319,1340,1359,1379,1399,1420,1440,1461,1481,1499,1520,1540,1560,1580,1599,1620,1640,1659,1679,1700,1719,1740,1759,1779,1800,1820,1839,1860,1879,1899,1919,1939,1959,1981,1999,2019,2040,2059,2079,2100,2119,2139,2159,2180,2200,2219,2239,2260,2279,2299,2319,2340,2359,2380,2399,2420,2439,2459,2480,2499,2519],"xSR":741.5,"ySR":469.95,"xT1":424.9,"yT1":0,"xT2":1058.1,"yT2":0,"toosoon":0,"cond_shown":"Congruent","ratio_trial":200,"L_num":16,"L_den":20,"R_num":12,"R_den":20,"correct_side":1,"subjID":"JuanManuelCruz34","gender":"0","school":"6","age":"11"},{"start_time":1551892185557,"click_time":1551892187606,"finger_time":1551892187005,"fix_duration":611.5543252245908,"trial":34,"RT":1448,"MT":601,"sideResp":1,"stimulus":[],"xmouse":[788,788,788,788,788,788,788,788,788,788,788,788,788,788,788,788,788,788,788,788,788,788,788,788,788,788,788,788,788,788,788,788,788,788,788,788,788,788,788,788,788,788,788,788,788,788,788,788,788,788,788,788,788,788,788,788,788,788,788,788,788,788,788,788,788,788,788,788,788,788,787,776,766,727,696,654,573,561,559,559,559,559,549,544,543,543,543,542,535,532,531,531,531,531,531,531,531,531,531,530,529,525,524],"ymouse":[504,506,506,506,507,508,508,508,508,508,508,508,508,508,508,508,508,508,508,508,508,508,508,508,508,508,508,508,508,508,508,508,508,508,508,508,508,508,508,508,508,508,508,508,508,508,508,508,508,508,508,508,508,508,508,508,508,508,508,508,508,508,508,508,508,508,508,508,508,507,505,479,453,365,288,206,77,56,53,53,53,52,39,32,31,31,31,31,31,31,31,31,31,31,31,32,32,32,32,33,34,38,39],"timestamp_mouse":[10,41,48,68,88,109,128,148,168,188,209,230,248,269,289,308,328,349,368,388,409,429,448,469,488,508,528,549,568,589,608,628,648,669,688,708,730,748,768,789,809,830,848,868,890,909,929,949,968,989,1010,1029,1048,1068,1089,1109,1128,1149,1168,1189,1209,1228,1249,1268,1289,1309,1328,1348,1368,1388,1408,1428,1448,1468,1488,1508,1528,1548,1569,1588,1609,1628,1649,1668,1688,1708,1728,1748,1769,1788,1808,1828,1848,1869,1888,1909,1928,1948,1968,1988,2009,2028,2049],"xSR":741.5,"ySR":469.95,"xT1":424.9,"yT1":0,"xT2":1058.1,"yT2":0,"toosoon":0,"cond_shown":"Congruent","ratio_trial":100,"L_num":15,"L_den":25,"R_num":13,"R_den":26,"correct_side":1,"subjID":"JuanManuelCruz34","gender":"0","school":"6","age":"11"},{"start_time":1551892189665,"click_time":1551892192146,"finger_time":1551892191145,"fix_duration":1097.624328911388,"trial":35,"RT":1480,"MT":1001,"sideResp":2,"stimulus":[],"xmouse":[790,790,790,790,790,790,790,790,790,790,790,790,790,790,790,790,790,790,790,790,790,790,790,790,790,790,790,790,790,790,790,790,790,790,790,790,790,790,790,790,790,790,790,790,790,790,790,790,790,790,790,790,790,790,790,790,790,790,790,790,790,790,790,790,790,790,790,790,789,787,784,782,778,771,765,756,740,731,719,715,715,715,715,715,715,715,715,715,715,713,707,677,676,676,676,675,675,679,687,713,738,777,795,813,837,863,909,925,945,958,972,1004,1018,1029,1038,1038,1040,1045,1056,1067,1078,1090,1094,1102,1113],"ymouse":[514,514,514,514,514,514,514,514,514,514,514,514,514,514,514,514,514,514,514,514,514,514,514,514,514,514,514,514,514,514,514,514,515,515,516,516,516,516,516,516,516,517,517,517,517,517,517,517,517,517,517,517,517,517,517,517,517,517,517,517,517,517,517,517,517,517,518,518,518,517,509,501,494,482,466,449,417,403,377,365,360,354,354,354,354,354,354,354,354,351,350,344,344,344,344,344,350,356,364,370,370,363,354,343,329,314,285,277,269,265,257,240,230,223,215,214,212,207,198,184,169,141,127,111,94],"timestamp_mouse":[8,35,40,61,80,100,121,141,161,180,200,221,240,260,280,301,320,341,360,380,400,421,440,461,480,501,521,540,561,580,600,620,640,660,680,701,722,741,760,780,801,821,840,860,881,900,920,940,960,982,1000,1020,1041,1060,1080,1101,1120,1141,1160,1180,1200,1220,1241,1260,1281,1301,1320,1340,1360,1381,1401,1420,1440,1460,1480,1500,1520,1540,1560,1580,1600,1620,1640,1660,1680,1701,1720,1742,1760,1780,1801,1820,1841,1861,1882,1901,1920,1941,1961,1980,2000,2021,2040,2061,2081,2100,2121,2140,2160,2180,2200,2221,2240,2261,2280,2301,2320,2341,2361,2381,2401,2421,2440,2460,2481],"xSR":741.5,"ySR":469.95,"xT1":424.9,"yT1":0,"xT2":1058.1,"yT2":0,"toosoon":0,"cond_shown":"Incongruent","ratio_trial":100,"L_num":10,"L_den":25,"R_num":9,"R_den":18,"correct_side":2,"subjID":"JuanManuelCruz34","gender":"0","school":"6","age":"11"},{"start_time":1551892199757,"click_time":1551892201545,"finger_time":1551892201145,"fix_duration":250,"trial":36,"RT":1388,"MT":400,"sideResp":1,"stimulus":[],"xmouse":[786,786,786,786,786,786,786,786,786,786,786,786,786,786,786,786,788,789,790,791,793,805,808,809,809,809,809,809,809,809,809,809,809,809,809,809,809,809,809,809,809,809,809,809,809,809,809,809,809,809,809,809,809,809,809,809,809,809,809,809,809,809,809,809,809,809,796,788,778,768,757,725,709,683,667,643,638,637,636,631,606,589,573,560,558,558,551,541,527,516],"ymouse":[540,540,539,539,539,539,539,539,539,539,539,539,539,539,539,539,539,539,539,538,537,528,526,526,526,526,526,526,526,526,526,526,526,526,526,526,526,526,526,526,526,526,526,526,526,526,526,526,526,526,526,526,526,526,526,526,526,526,526,526,526,526,526,526,526,525,507,492,474,452,425,349,309,248,215,174,163,158,152,144,119,107,95,85,84,84,81,78,74,72],"timestamp_mouse":[10,41,49,68,89,108,128,149,168,189,208,228,248,268,288,308,329,348,368,388,409,428,448,468,489,508,528,549,568,588,608,628,648,668,688,708,728,748,768,788,808,828,848,868,888,909,928,948,969,988,1009,1029,1048,1068,1088,1110,1130,1149,1168,1190,1208,1228,1248,1269,1288,1308,1329,1348,1369,1388,1408,1428,1449,1468,1488,1509,1529,1548,1568,1588,1609,1628,1648,1668,1688,1708,1728,1748,1768,1788],"xSR":741.5,"ySR":469.95,"xT1":424.9,"yT1":0,"xT2":1058.1,"yT2":0,"toosoon":0,"cond_shown":"Congruent","ratio_trial":100,"L_num":4,"L_den":10,"R_num":15,"R_den":30,"correct_side":2,"subjID":"JuanManuelCruz34","gender":"0","school":"6","age":"11"},{"start_time":1551892202919,"click_time":1551892205166,"finger_time":1551892204305,"fix_duration":250,"trial":37,"RT":1386,"MT":861,"sideResp":1,"stimulus":[],"xmouse":[810,810,810,810,810,810,810,810,810,810,810,810,810,810,810,810,810,810,810,810,810,810,810,810,810,810,810,810,810,810,810,810,810,810,810,810,810,810,810,810,810,810,810,810,810,810,810,810,810,810,810,810,810,810,810,810,810,810,810,810,810,810,810,810,810,811,813,816,831,836,838,839,840,847,850,853,854,856,859,864,873,881,891,896,896,896,893,890,880,871,856,831,739,696,681,672,648,627,579,557,550,549,549,549,549,549,549,549,549,548,539,525,498],"ymouse":[529,529,529,529,529,529,529,529,529,529,529,529,529,529,529,529,529,529,529,529,529,529,529,529,528,528,528,528,528,528,528,528,528,528,528,528,528,528,528,528,528,528,528,528,528,528,528,528,528,528,528,528,528,528,528,528,528,528,528,528,528,528,528,528,528,526,522,513,484,466,454,445,439,428,423,420,419,416,413,409,401,395,385,373,369,367,360,354,333,318,297,266,195,169,157,152,134,121,97,87,83,83,83,83,83,83,83,83,83,83,82,82,81],"timestamp_mouse":[10,33,46,67,86,106,126,147,166,187,206,226,247,266,288,308,326,347,367,387,406,426,446,466,486,506,527,546,567,586,606,626,647,666,687,707,727,746,767,786,806,826,846,866,886,907,926,946,966,986,1006,1027,1046,1067,1088,1107,1127,1146,1167,1186,1206,1227,1246,1267,1286,1306,1327,1348,1366,1386,1406,1426,1446,1467,1486,1506,1526,1547,1566,1587,1607,1627,1647,1666,1687,1706,1726,1746,1766,1787,1807,1826,1848,1866,1887,1906,1926,1947,1966,1986,2006,2026,2046,2066,2086,2106,2127,2146,2166,2186,2206,2226,2247],"xSR":741.5,"ySR":469.95,"xT1":424.9,"yT1":0,"xT2":1058.1,"yT2":0,"toosoon":0,"cond_shown":"Congruent","ratio_trial":100,"L_num":10,"L_den":25,"R_num":3,"R_den":10,"correct_side":1,"subjID":"JuanManuelCruz34","gender":"0","school":"6","age":"11"},{"start_time":1551892215057,"click_time":1551892218265,"finger_time":1551892216345,"fix_duration":871.9404771924554,"trial":38,"RT":1288,"MT":1920,"sideResp":2,"stimulus":[],"xmouse":[802,802,802,802,802,802,802,802,802,802,802,802,802,802,803,803,803,803,803,803,803,803,803,803,803,803,803,803,803,803,803,803,803,803,803,804,804,804,804,804,804,804,804,804,804,804,804,804,804,804,804,804,804,804,803,803,803,803,803,803,802,802,802,802,802,802,802,802,802,802,802,802,802,802,802,802,802,802,802,802,802,802,802,802,803,803,803,803,803,803,803,803,803,803,803,803,803,803,803,803,803,803,803,804,806,806,807,808,808,808,808,810,810,812,813,815,819,822,825,829,832,838,843,850,860,888,913,952,1050,1117,1192,1207,1218,1237,1266,1294,1321,1321,1321,1321,1321,1321,1321,1321,1321,1257,1244,1235,1229,1218,1211,1191,1178,1172,1169,1169,1167,1166,1163,1161,1157],"ymouse":[496,496,496,496,496,496,496,496,496,496,496,496,496,496,495,495,495,495,495,495,495,495,495,495,495,495,495,495,495,495,495,495,495,495,494,493,492,492,492,492,491,490,490,489,489,489,489,489,489,489,489,489,489,489,485,484,482,480,478,477,476,475,473,472,469,465,459,457,456,456,456,456,456,456,456,456,456,456,456,456,456,456,455,455,455,455,455,455,455,455,455,455,455,455,455,455,455,455,455,455,455,455,452,450,448,447,444,444,444,444,444,441,440,438,436,435,428,425,421,417,413,406,400,393,384,362,346,317,252,208,148,131,114,94,62,38,8,2,0,0,0,0,0,0,0,0,2,3,4,4,4,9,13,15,16,17,18,19,21,23,24],"timestamp_mouse":[9,41,48,68,88,108,129,148,168,188,208,229,248,268,288,309,328,348,368,388,408,428,449,469,488,509,528,549,568,588,608,629,649,668,688,709,728,748,769,789,808,829,849,869,889,909,928,948,970,988,1009,1028,1048,1068,1089,1108,1128,1148,1168,1189,1208,1228,1248,1268,1288,1308,1328,1348,1368,1388,1410,1428,1449,1468,1488,1509,1528,1548,1569,1589,1608,1628,1648,1670,1688,1708,1728,1748,1768,1788,1809,1828,1848,1868,1888,1909,1928,1949,1968,1988,2009,2028,2048,2068,2089,2109,2128,2148,2169,2188,2208,2228,2248,2269,2288,2308,2328,2349,2368,2389,2408,2429,2448,2469,2489,2509,2528,2548,2568,2589,2609,2628,2648,2669,2688,2708,2729,2748,2769,2789,2809,2828,2848,2869,2888,2909,2928,2948,2968,2988,3009,3028,3049,3068,3088,3109,3128,3148,3168,3189,3208],"xSR":741.5,"ySR":469.95,"xT1":424.9,"yT1":0,"xT2":1058.1,"yT2":0,"toosoon":0,"cond_shown":"Congruent","ratio_trial":300,"L_num":1,"L_den":3,"R_num":19,"R_den":30,"correct_side":2,"subjID":"JuanManuelCruz34","gender":"0","school":"6","age":"11"},{"start_time":1551892220272,"click_time":1551892222146,"finger_time":1551892221685,"fix_duration":1144.8669967803803,"trial":39,"RT":1413,"MT":461,"sideResp":2,"stimulus":[],"xmouse":[807,807,807,807,807,807,807,807,807,807,807,807,807,807,807,807,807,807,807,807,807,807,807,807,807,807,807,807,807,807,807,807,807,807,807,807,807,807,807,807,807,807,807,807,807,807,807,807,807,807,807,807,807,807,807,807,807,807,807,807,807,807,807,807,807,807,807,807,810,820,854,879,893,905,923,1031,1114,1153,1173,1184,1186,1187,1187,1187,1187,1187,1187,1186,1182,1177,1170,1167,1161,1158],"ymouse":[512,512,512,512,512,512,512,512,512,512,512,512,512,512,512,512,512,512,512,512,512,512,512,512,512,512,512,512,512,512,512,512,512,512,512,512,512,512,512,512,512,512,512,512,512,512,512,512,512,512,512,512,512,512,512,512,512,512,512,512,512,512,512,512,512,512,512,512,511,504,478,456,436,415,389,272,183,148,132,124,123,122,122,118,112,88,79,72,65,60,51,47,41,38],"timestamp_mouse":[32,33,54,73,94,113,133,153,173,193,213,233,254,273,293,314,333,353,374,393,414,433,453,473,493,513,533,553,575,594,614,633,654,673,693,715,734,753,774,794,813,833,853,873,894,914,933,955,974,994,1013,1033,1053,1073,1094,1114,1133,1153,1173,1194,1214,1234,1253,1274,1293,1313,1333,1353,1374,1393,1413,1434,1454,1473,1494,1513,1534,1553,1573,1594,1613,1633,1653,1674,1693,1714,1733,1753,1774,1793,1814,1833,1853,1874],"xSR":741.5,"ySR":469.95,"xT1":424.9,"yT1":0,"xT2":1058.1,"yT2":0,"toosoon":0,"cond_shown":"Incongruent","ratio_trial":300,"L_num":4,"L_den":20,"R_num":2,"R_den":4,"correct_side":2,"subjID":"JuanManuelCruz34","gender":"0","school":"6","age":"11"},{"start_time":1551892223976,"click_time":1551892225826,"finger_time":1551892225345,"fix_duration":988.5676496979232,"trial":40,"RT":1369,"MT":481,"sideResp":1,"stimulus":[],"xmouse":[801,801,801,801,801,801,801,801,801,801,801,801,801,801,801,801,801,801,801,801,801,801,801,801,801,801,801,801,801,801,801,801,801,801,801,801,801,801,801,801,801,801,801,801,801,801,801,801,801,801,801,801,801,801,800,800,800,800,800,800,800,800,800,800,798,797,795,791,785,776,753,739,704,683,669,651,647,643,636,622,607,602,598,597,596,586,578,568,554,544,533,528,520],"ymouse":[497,497,497,497,497,497,497,497,497,497,497,497,497,497,497,497,497,497,497,497,497,497,497,497,497,497,497,497,497,497,497,497,497,497,497,497,497,497,497,497,497,497,497,497,497,497,497,497,497,497,497,497,497,497,497,497,497,497,497,497,497,497,497,497,495,492,487,477,464,444,389,345,253,204,172,136,130,126,122,113,99,93,87,86,85,84,83,81,77,75,72,72,74],"timestamp_mouse":[14,38,49,69,89,109,129,149,169,190,209,229,250,269,289,310,329,350,369,389,409,429,449,470,490,509,529,550,569,589,609,629,649,670,689,709,729,749,769,789,810,831,849,869,889,909,929,949,969,989,1009,1029,1049,1070,1090,1109,1129,1151,1169,1190,1209,1229,1249,1269,1289,1309,1329,1349,1369,1390,1409,1430,1449,1469,1489,1510,1530,1549,1569,1589,1609,1630,1649,1669,1689,1709,1729,1749,1769,1789,1809,1830,1850],"xSR":741.5,"ySR":469.95,"xT1":424.9,"yT1":0,"xT2":1058.1,"yT2":0,"toosoon":0,"cond_shown":"Incongruent","ratio_trial":100,"L_num":3,"L_den":9,"R_num":7,"R_den":30,"correct_side":1,"subjID":"JuanManuelCruz34","gender":"0","school":"6","age":"11"},{"start_time":1551892227163,"click_time":1551892229125,"finger_time":1551892228525,"fix_duration":276.7062072518004,"trial":41,"RT":1362,"MT":600,"sideResp":2,"stimulus":[],"xmouse":[769,769,769,767,765,763,761,761,761,761,760,760,760,760,760,760,760,760,760,760,760,760,760,760,760,760,760,760,760,760,760,760,760,760,760,760,760,760,760,760,760,760,760,760,760,760,760,760,760,760,760,760,760,760,760,760,760,760,760,760,760,760,760,761,764,769,793,811,845,902,984,1160,1214,1245,1249,1254,1279,1290,1297,1298,1298,1294,1290,1286,1276,1266,1237,1224,1216,1212,1212,1208,1200,1182,1176,1175,1173,1168,1157],"ymouse":[544,544,544,544,544,544,544,544,544,544,544,544,544,544,544,544,544,544,544,544,544,544,544,544,544,544,544,544,544,544,544,544,544,544,544,544,544,544,544,544,544,544,544,544,544,544,544,544,544,544,544,544,544,544,544,544,544,544,544,544,544,544,544,544,540,532,499,473,432,370,303,184,149,126,123,119,99,88,76,68,61,57,56,56,56,59,66,69,71,71,71,71,71,71,71,71,71,71,71],"timestamp_mouse":[9,36,43,63,83,102,122,142,162,183,202,222,243,262,282,303,322,342,363,383,403,422,442,464,482,503,523,543,563,582,603,623,642,663,683,702,722,742,762,782,802,822,843,863,883,902,922,943,963,982,1002,1022,1042,1063,1082,1102,1122,1142,1163,1182,1203,1223,1242,1262,1282,1302,1322,1342,1362,1382,1403,1422,1442,1462,1483,1502,1522,1542,1562,1582,1603,1622,1643,1662,1682,1702,1722,1742,1762,1782,1803,1822,1842,1862,1882,1903,1922,1942,1962],"xSR":741.5,"ySR":469.95,"xT1":424.9,"yT1":0,"xT2":1058.1,"yT2":0,"toosoon":0,"cond_shown":"Incongruent","ratio_trial":100,"L_num":8,"L_den":20,"R_num":1,"R_den":2,"correct_side":2,"subjID":"JuanManuelCruz34","gender":"0","school":"6","age":"11"},{"start_time":1551892231725,"click_time":1551892233486,"finger_time":1551892233085,"fix_duration":1237.4518509578968,"trial":42,"RT":1360,"MT":401,"sideResp":1,"stimulus":[],"xmouse":[802,802,802,802,802,802,802,802,802,802,802,802,802,802,802,802,802,802,802,802,802,802,802,802,802,802,802,802,802,802,802,802,802,802,802,802,802,802,802,802,802,802,802,802,802,802,802,802,802,802,802,802,802,802,802,802,802,802,802,802,802,802,802,802,801,799,798,795,786,779,771,763,744,727,707,676,670,666,658,651,642,632,616,590,584,579,571,560,517],"ymouse":[505,505,505,505,505,505,505,505,505,505,505,505,505,505,505,505,505,505,505,505,505,505,505,505,505,505,505,505,505,505,505,505,505,505,505,505,505,505,505,505,505,505,505,505,505,505,505,505,505,505,505,505,505,505,505,505,505,505,505,505,505,505,505,505,504,503,501,495,469,446,418,387,311,271,225,172,163,155,149,146,142,135,124,106,102,98,96,93,79],"timestamp_mouse":[8,20,40,61,80,101,120,141,160,180,200,220,240,261,280,300,320,340,360,387,401,421,441,460,480,500,520,541,560,580,601,620,640,660,680,701,721,740,760,780,799,821,840,861,880,901,921,940,960,980,1001,1020,1040,1060,1080,1101,1120,1140,1161,1181,1200,1220,1240,1261,1280,1300,1321,1340,1360,1381,1401,1420,1441,1460,1480,1501,1520,1540,1561,1580,1600,1620,1641,1661,1680,1701,1720,1741,1761],"xSR":741.5,"ySR":469.95,"xT1":424.9,"yT1":0,"xT2":1058.1,"yT2":0,"toosoon":0,"cond_shown":"Congruent","ratio_trial":300,"L_num":20,"L_den":25,"R_num":14,"R_den":28,"correct_side":1,"subjID":"JuanManuelCruz34","gender":"0","school":"6","age":"11"},{"start_time":1551892235045,"click_time":1551892237006,"finger_time":1551892236385,"fix_duration":637.5522432691538,"trial":43,"RT":1340,"MT":621,"sideResp":2,"stimulus":[],"xmouse":[779,779,779,779,778,776,776,776,776,776,776,775,774,774,774,774,774,774,774,774,774,773,772,772,772,772,772,772,772,772,772,772,772,772,772,772,772,772,772,772,772,772,772,772,772,772,772,772,772,772,772,772,772,772,772,772,772,772,772,772,772,772,772,772,771,771,771,772,774,775,786,798,827,839,853,871,898,962,985,992,996,1002,1007,1015,1029,1046,1059,1062,1062,1062,1063,1064,1066,1067,1067,1068,1068,1070,1074],"ymouse":[478,478,478,476,475,475,475,475,475,475,475,475,475,475,475,475,475,475,475,475,475,475,475,475,475,475,475,475,475,475,475,475,475,475,475,475,475,475,475,475,475,475,475,475,475,475,475,475,475,475,475,475,475,475,475,475,475,475,475,475,475,475,475,475,474,473,472,469,468,465,452,436,396,378,359,338,310,239,200,184,174,166,163,159,150,141,130,122,121,121,120,118,115,113,111,109,107,101,96],"timestamp_mouse":[8,21,42,60,81,100,121,141,160,180,200,220,240,260,280,301,320,341,360,381,400,420,441,461,481,501,520,542,560,580,600,620,641,660,680,700,720,741,762,781,800,820,841,861,881,900,920,941,961,980,1000,1020,1041,1060,1080,1100,1120,1140,1160,1181,1201,1221,1241,1261,1281,1300,1320,1340,1361,1381,1401,1421,1441,1461,1481,1501,1521,1541,1561,1581,1602,1622,1642,1662,1681,1700,1722,1741,1761,1782,1801,1820,1842,1862,1880,1901,1921,1940,1961],"xSR":741.5,"ySR":469.95,"xT1":424.9,"yT1":0,"xT2":1058.1,"yT2":0,"toosoon":0,"cond_shown":"Congruent","ratio_trial":200,"L_num":21,"L_den":30,"R_num":2,"R_den":4,"correct_side":1,"subjID":"JuanManuelCruz34","gender":"0","school":"6","age":"11"},{"start_time":1551892241488,"click_time":1551892243546,"finger_time":1551892243066,"fix_duration":780.0482951459704,"trial":44,"RT":1578,"MT":480,"sideResp":1,"stimulus":[],"xmouse":[764,764,764,764,764,764,764,764,764,764,764,764,764,764,764,764,764,764,765,765,765,765,765,765,765,765,765,765,765,765,765,765,765,765,765,765,765,765,765,765,765,765,765,765,765,765,765,765,765,765,765,765,765,765,765,765,765,765,765,765,765,765,765,765,766,767,767,767,767,767,767,767,767,767,767,767,761,755,745,723,717,712,703,690,643,610,578,558,550,539,531,526,523,523,522,522,522,522,523,523,523,521,519],"ymouse":[515,515,515,515,515,515,515,515,515,515,515,515,515,515,515,515,515,515,514,514,514,514,514,514,514,514,514,514,514,514,514,514,514,514,514,514,514,514,514,514,512,512,512,512,512,512,512,512,512,512,512,512,512,512,512,512,512,512,512,512,512,512,512,512,509,508,507,507,506,505,505,505,503,502,500,499,490,478,465,430,416,405,391,374,330,302,276,249,233,208,198,188,183,179,172,171,168,165,160,142,126,109,94],"timestamp_mouse":[23,44,58,79,99,118,138,158,178,198,218,237,259,279,299,318,338,357,378,398,418,439,459,479,498,519,539,559,578,599,618,639,659,678,699,719,738,758,778,798,818,839,858,878,898,918,939,958,978,998,1018,1038,1058,1079,1098,1118,1139,1159,1178,1197,1218,1238,1259,1278,1298,1319,1339,1359,1378,1399,1418,1439,1457,1479,1498,1518,1538,1559,1578,1598,1619,1638,1659,1677,1697,1718,1738,1758,1778,1798,1818,1839,1858,1878,1898,1918,1938,1958,1978,1998,2018,2038,2058],"xSR":741.5,"ySR":469.95,"xT1":424.9,"yT1":0,"xT2":1058.1,"yT2":0,"toosoon":0,"cond_shown":"Congruent","ratio_trial":300,"L_num":11,"L_den":22,"R_num":2,"R_den":10,"correct_side":1,"subjID":"JuanManuelCruz34","gender":"0","school":"6","age":"11"},{"start_time":1551892247230,"click_time":1551892249106,"finger_time":1551892248506,"fix_duration":743.0176216143618,"trial":45,"RT":1276,"MT":600,"sideResp":1,"stimulus":[],"xmouse":[808,808,808,808,808,808,808,808,808,808,808,808,808,808,808,808,808,808,808,808,808,808,808,808,808,808,808,808,808,808,808,808,808,808,808,808,808,808,808,808,808,808,808,808,808,808,808,808,808,808,808,808,808,808,807,806,805,804,804,803,801,794,786,772,746,703,544,439,366,342,342,342,343,346,348,352,357,363,365,368,372,378,387,391,397,404,415,416,416,416,418,420,423,426],"ymouse":[534,534,534,534,534,534,534,534,534,534,534,534,534,534,534,534,534,534,534,534,534,534,534,534,534,534,534,534,534,534,534,534,534,534,534,534,534,534,534,534,534,534,534,534,534,534,534,534,534,534,534,534,534,534,532,527,525,518,515,508,503,486,471,452,419,372,254,193,156,134,132,128,122,117,113,107,101,94,92,91,88,86,83,83,83,83,82,82,82,82,82,82,82,82],"timestamp_mouse":[16,38,57,77,97,116,137,157,177,196,216,236,257,276,296,316,335,357,377,395,417,436,457,476,497,517,536,556,576,596,615,635,656,676,696,715,737,757,776,796,816,837,856,876,896,917,936,956,976,996,1017,1036,1056,1076,1097,1116,1137,1157,1176,1196,1217,1237,1255,1276,1296,1317,1337,1356,1377,1396,1417,1436,1456,1476,1496,1516,1537,1556,1576,1596,1616,1636,1657,1676,1696,1716,1737,1756,1776,1796,1816,1837,1856,1876],"xSR":741.5,"ySR":469.95,"xT1":424.9,"yT1":0,"xT2":1058.1,"yT2":0,"toosoon":0,"cond_shown":"Congruent","ratio_trial":100,"L_num":6,"L_den":20,"R_num":5,"R_den":25,"correct_side":1,"subjID":"JuanManuelCruz34","gender":"0","school":"6","age":"11"},{"start_time":1551892252623,"click_time":1551892254007,"finger_time":1551892253586,"fix_duration":1495.2626486805862,"trial":46,"RT":963,"MT":421,"sideResp":2,"stimulus":[],"xmouse":[779,779,779,779,779,779,779,779,779,779,779,779,779,779,779,779,779,779,779,779,779,779,779,779,779,779,779,779,779,779,779,779,779,779,779,779,779,779,779,779,779,779,779,779,779,779,782,785,809,841,853,910,993,1297,1421,1489,1502,1503,1503,1504,1504,1504,1504,1493,1474,1447,1396,1336,1228,1152],"ymouse":[502,502,502,502,502,502,502,502,502,502,502,502,502,502,502,502,502,502,502,502,502,502,502,502,502,502,502,502,502,502,502,502,502,502,502,502,502,502,502,502,502,502,502,502,502,502,501,497,469,435,420,376,328,201,164,145,138,137,132,127,126,124,121,107,97,85,66,48,19,6],"timestamp_mouse":[10,30,43,63,83,104,123,142,163,183,203,224,243,262,283,303,323,343,363,384,402,423,442,462,484,503,524,544,563,583,603,623,644,664,683,704,723,744,763,783,803,823,843,864,883,904,923,944,963,984,1002,1024,1043,1063,1083,1102,1123,1144,1162,1183,1203,1223,1243,1263,1283,1303,1324,1344,1364,1383],"xSR":741.5,"ySR":469.95,"xT1":424.9,"yT1":0,"xT2":1058.1,"yT2":0,"toosoon":0,"cond_shown":"Incongruent","ratio_trial":100,"L_num":8,"L_den":20,"R_num":1,"R_den":2,"correct_side":2,"subjID":"JuanManuelCruz34","gender":"0","school":"6","age":"11"},{"start_time":1551892260417,"click_time":1551892261966,"finger_time":1551892261527,"fix_duration":430.788120589813,"trial":47,"RT":1110,"MT":439,"sideResp":1,"stimulus":[],"xmouse":[831,831,831,831,831,831,831,831,831,831,831,831,831,831,831,831,831,831,831,831,831,831,831,831,831,831,831,831,831,831,831,831,831,831,831,831,831,831,831,831,831,831,831,831,831,831,831,831,831,831,831,830,828,825,820,817,813,800,787,770,749,716,690,659,647,632,614,600,587,582,581,580,574,569,558,541,528,519],"ymouse":[488,488,488,488,488,488,488,488,488,488,488,488,488,488,488,488,488,488,488,488,488,488,488,488,488,488,488,488,488,488,488,488,488,488,488,488,488,488,488,488,488,488,488,488,488,488,488,488,488,488,488,488,488,482,474,468,461,439,417,394,367,325,293,250,233,217,197,181,158,147,142,137,128,123,109,92,80,70],"timestamp_mouse":[9,37,50,69,89,109,129,149,170,189,209,229,249,269,289,309,329,350,369,389,409,429,450,469,489,510,529,549,569,589,610,629,649,670,690,710,729,749,770,790,809,829,849,870,889,909,929,949,969,989,1008,1029,1049,1070,1090,1110,1130,1150,1169,1190,1210,1228,1248,1269,1288,1309,1329,1350,1370,1389,1410,1429,1450,1468,1489,1509,1529,1549],"xSR":741.5,"ySR":469.95,"xT1":424.9,"yT1":0,"xT2":1058.1,"yT2":0,"toosoon":0,"cond_shown":"Congruent","ratio_trial":300,"L_num":24,"L_den":30,"R_num":8,"R_den":16,"correct_side":1,"subjID":"JuanManuelCruz34","gender":"0","school":"6","age":"11"},{"start_time":1551892264153,"click_time":1551892265986,"finger_time":1551892265566,"fix_duration":1184.1109669549367,"trial":48,"RT":1413,"MT":420,"sideResp":2,"stimulus":[],"xmouse":[747,747,747,747,747,747,747,747,747,747,747,747,747,746,746,746,746,746,746,746,746,746,746,746,746,746,746,746,746,746,746,746,746,746,746,746,746,746,746,746,746,746,746,746,746,746,746,746,746,746,746,746,746,746,746,746,746,746,746,746,746,746,746,746,746,746,746,750,755,769,790,873,922,976,1012,1041,1058,1060,1062,1066,1072,1079,1080,1080,1080,1080,1083,1084,1085,1087,1089,1092],"ymouse":[509,509,509,509,509,509,509,509,509,509,509,509,509,509,509,509,509,509,509,509,509,509,509,509,509,509,509,509,509,509,509,509,509,509,509,509,509,509,509,509,509,509,509,509,509,509,509,509,509,509,509,509,509,509,509,509,509,509,509,509,509,509,509,509,509,509,509,508,500,480,457,369,325,279,245,210,171,161,154,149,143,131,123,120,119,117,114,112,109,106,102,96],"timestamp_mouse":[21,37,54,72,94,113,134,153,174,194,214,233,253,273,294,312,334,354,374,393,413,433,454,473,493,513,534,553,573,593,614,634,652,674,694,713,733,753,772,794,813,833,853,873,893,914,933,953,973,994,1013,1034,1054,1072,1093,1114,1133,1153,1173,1193,1213,1233,1254,1273,1292,1313,1333,1353,1373,1393,1413,1432,1452,1473,1494,1513,1533,1554,1572,1593,1614,1633,1653,1673,1692,1713,1734,1753,1773,1793,1813,1833],"xSR":741.5,"ySR":469.95,"xT1":424.9,"yT1":0,"xT2":1058.1,"yT2":0,"toosoon":0,"cond_shown":"Congruent","ratio_trial":200,"L_num":13,"L_den":26,"R_num":14,"R_den":20,"correct_side":2,"subjID":"JuanManuelCruz34","gender":"0","school":"6","age":"11"},{"start_time":1551892270738,"click_time":1551892271786,"finger_time":1551892270806,"fix_duration":1170.7062889018189,"trial":49,"RT":68,"MT":980,"sideResp":1,"stimulus":[],"xmouse":[748,746,742,741,741,741,741,741,741,741,741,741,741,741,741,741,741,741,741,741,741,741,743,743,743,743,743,743,743,743,743,743,743,739,735,730,726,711,702,688,675,653,648,644,642,638,633,616,605,590,566,539,503],"ymouse":[504,503,500,499,499,499,499,499,499,499,499,499,499,499,499,499,499,499,499,498,497,495,493,493,493,493,493,493,493,493,493,493,487,478,468,457,444,391,353,307,261,189,166,151,133,124,111,84,73,61,50,39,26],"timestamp_mouse":[9,30,48,68,89,108,129,147,168,188,209,229,248,268,288,309,329,349,368,389,409,428,449,468,489,509,528,548,568,588,609,629,647,668,688,708,727,748,768,788,808,829,848,868,888,909,928,948,969,988,1009,1029,1048],"xSR":741.5,"ySR":469.95,"xT1":424.9,"yT1":0,"xT2":1058.1,"yT2":0,"toosoon":0,"cond_shown":"Congruent","ratio_trial":200,"L_num":16,"L_den":20,"R_num":12,"R_den":20,"correct_side":1,"subjID":"JuanManuelCruz34","gender":"0","school":"6","age":"11"},{"start_time":1551892273679,"click_time":1551892275486,"finger_time":1551892275086,"fix_duration":851.6766898912063,"trial":50,"RT":1407,"MT":400,"sideResp":2,"stimulus":[],"xmouse":[811,811,811,811,811,811,811,811,811,811,811,811,811,811,811,811,811,811,811,811,811,811,811,811,811,811,811,811,811,811,811,811,811,811,811,811,811,811,811,811,811,811,811,811,811,811,811,811,811,811,811,811,811,811,811,811,811,811,811,811,811,811,811,811,811,811,811,814,822,827,848,863,884,914,951,1050,1094,1105,1109,1110,1111,1111,1111,1111,1112,1116,1117,1118,1119,1120,1123],"ymouse":[551,551,551,551,551,551,551,551,551,551,551,551,551,551,551,551,551,551,551,551,551,551,551,551,551,551,551,551,551,551,551,5