[{"start_time":1551893183466,"click_time":1551893185336,"finger_time":1551893183475,"fix_duration":1425.6095264990558,"trial":0,"RT":9,"MT":1861,"sideResp":1,"stimulus":"img/500/equaldotanddens/R/2_Ratio_500_L_3_R_6.png","xmouse":[783,783,783,783,783,783,783,783,783,783,783,783,783,783,783,783,783,783,783,783,783,783,783,783,783,782,782,782,782,782,782,782,781,780,780,780,780,780,780,780,780,780,780,780,780,780,780,780,780,779,771,765,737,717,693,667,649,629,616,616,615,613,612,608,604,598,593,582,577,577,578,584,591,610,612,612,612,612,604,592,580,569,558,539,532,526,521,515,508,500,492,483,478,472],"ymouse":[540,540,540,540,540,540,540,540,540,540,540,540,540,540,540,540,540,540,540,540,540,540,540,540,540,541,546,552,568,573,576,578,581,584,585,585,585,585,585,585,585,585,585,585,585,585,585,585,585,586,577,568,536,523,509,494,484,470,461,461,461,460,460,460,460,460,460,459,458,457,457,457,459,470,472,472,472,473,455,436,413,390,363,322,303,288,270,250,201,175,149,131,119,96],"timestamp_mouse":[9,31,50,69,89,110,131,151,170,189,209,230,250,269,290,310,330,350,370,389,410,431,450,471,490,509,529,549,569,590,609,630,649,669,689,709,730,750,769,790,810,831,849,870,890,910,929,951,969,990,1009,1029,1051,1070,1089,1109,1129,1151,1170,1190,1209,1229,1250,1269,1290,1310,1330,1349,1369,1389,1409,1429,1449,1469,1490,1510,1529,1549,1571,1590,1609,1630,1650,1669,1690,1711,1731,1749,1769,1789,1810,1829,1850,1869],"xSR":741.5,"ySR":501.8,"xT1":424.9,"yT1":0,"xT2":1058.1,"yT2":0,"toosoon":0,"cond_shown":"equaldotanddens","ratio_trial":500,"smaller_num":"3","larger_num":"6","correct_side":2,"subjID":"juanmanuelcruz34","gender":"0","age":"11","school":"6","test":{"fix_dur":[250,1500],"timestim":300,"targets_dim":[100,100],"targets_relative_coord":[0.3,0.7],"size_stim":[880,420],"start_dim":[100,100],"size_start":[300,300],"size_fix":60,"samplingrate":20,"img_types":["equaldotsize","equaldotanddens","randomdotsizeEA"],"ratios":[250,500,750,900],"rep_conds":9,"nTrials":120,"trials_to_rest":500,"Trials_order":[88,43,53,54,65,47,3,94,96,38,30,116,55,64,40,0,26,12,70,74,49,103,35,119,115,48,17,60,18,92,22,37,63,6,25,29,7,20,84,8,106,78,117,107,36,111,75,93,81,76,56,100,80,15,79,91,69,110,39,114,52,50,4,32,95,13,113,42,118,77,16,68,21,85,46,67,45,10,41,109,57,19,99,24,66,28,11,104,5,58,2,31,33,89,73,9,108,14,59,90,27,101,97,87,83,23,61,44,112,71,1,105,98,102,34,51,86,82,62,72],"cond_shown":["equaldotanddens","equaldotanddens","randomdotsizeEA","equaldotsize","randomdotsizeEA","randomdotsizeEA","equaldotsize","equaldotanddens","equaldotsize","randomdotsizeEA","equaldotsize","randomdotsizeEA","equaldotanddens","equaldotanddens","equaldotanddens","equaldotsize","randomdotsizeEA","equaldotsize","equaldotanddens","randomdotsizeEA","equaldotanddens","equaldotanddens","randomdotsizeEA","randomdotsizeEA","equaldotanddens","equaldotsize","randomdotsizeEA","equaldotsize","equaldotsize","randomdotsizeEA","equaldotanddens","equaldotanddens","equaldotsize","equaldotsize","equaldotanddens","randomdotsizeEA","equaldotanddens","randomdotsizeEA","equaldotsize","randomdotsizeEA","equaldotanddens","equaldotsize","equaldotsize","randomdotsizeEA","equaldotsize","equaldotsize","equaldotsize","equaldotsize","equaldotsize","equaldotanddens","randomdotsizeEA","equaldotanddens","randomdotsizeEA","equaldotsize","equaldotanddens","equaldotanddens","equaldotsize","randomdotsizeEA","equaldotsize","equaldotsize","equaldotanddens","randomdotsizeEA","equaldotanddens","randomdotsizeEA","randomdotsizeEA","equaldotanddens","randomdotsizeEA","equaldotsize","equaldotanddens","randomdotsizeEA","equaldotanddens","randomdotsizeEA","equaldotsize","equaldotanddens","equaldotanddens","equaldotanddens","equaldotsize","equaldotanddens","randomdotsizeEA","equaldotanddens","equaldotsize","equaldotanddens","equaldotsize","equaldotsize","equaldotsize","equaldotanddens","randomdotsizeEA","randomdotsizeEA","randomdotsizeEA","equaldotanddens","randomdotsizeEA","equaldotanddens","equaldotsize","randomdotsizeEA","equaldotanddens","equaldotsize","equaldotsize","randomdotsizeEA","randomdotsizeEA","equaldotsize","equaldotsize","randomdotsizeEA","equaldotanddens","equaldotsize","randomdotsizeEA","randomdotsizeEA","equaldotanddens","randomdotsizeEA","equaldotanddens","randomdotsizeEA","equaldotanddens","equaldotsize","randomdotsizeEA","equaldotsize","equaldotanddens","equaldotsize","randomdotsizeEA","equaldotanddens","randomdotsizeEA","equaldotsize"],"ratio_trial":[500,750,500,750,500,900,500,900,250,250,750,750,750,500,500,250,250,250,900,250,250,750,900,900,750,250,500,250,750,750,900,250,500,750,250,500,750,750,250,750,900,750,900,900,250,500,500,900,900,500,750,500,750,500,750,750,900,250,500,750,500,250,500,750,900,250,500,750,900,500,500,750,900,250,900,750,900,900,500,250,900,750,500,250,750,500,900,750,500,900,250,750,900,500,250,900,250,250,900,750,500,500,250,500,900,900,250,750,500,900,250,900,250,750,900,500,250,900,250,250],"smaller_num":["3","15","3","12","5","18","1","18","6","3","15","3","15","10","6","3","2","4","9","6","2","15","9","9","15","3","5","4","3","3","18","4","10","9","3","2","3","3","3","3","18","9","9","18","2","2","2","9","9","1","3","1","12","5","12","15","18","5","1","3","1","6","3","3","9","2","5","15","18","2","9","6","18","2","9","3","9","18","9","2","18","6","6","4","6","5","18","18","2","9","3","15","18","2","5","9","3","3","9","6","6","2","3","1","18","18","2","12","9","9","3","18","5","6","9","1","2","18","2","5"],"larger_num":["6","20","6","16","10","20","2","20","24","12","20","4","20","20","12","12","8","16","10","24","8","20","10","10","20","12","10","16","4","4","20","16","20","12","12","4","4","4","12","4","20","12","10","20","8","4","4","10","10","2","4","2","16","10","16","20","20","20","2","4","2","24","6","4","10","8","10","20","20","4","18","8","20","8","10","4","10","20","18","8","20","8","12","16","8","10","20","24","4","10","12","20","20","4","20","10","12","12","10","8","12","4","12","2","20","20","8","16","18","10","12","20","20","8","10","2","8","20","8","20"],"correct_side":[2,2,2,2,1,1,2,1,2,1,2,2,2,2,1,1,1,2,2,1,2,2,2,1,2,2,2,1,1,1,1,1,2,2,2,1,1,1,2,1,1,2,1,1,1,1,1,2,2,2,1,2,2,2,2,2,1,2,2,1,2,1,2,2,2,1,2,2,2,2,1,1,1,1,2,1,2,1,2,1,1,1,1,1,2,2,1,1,2,2,1,2,2,1,2,1,2,1,2,1,1,1,2,2,1,2,2,2,2,2,1,2,2,1,2,2,2,2,1,2],"img_shown":["img/500/equaldotanddens/R/2_Ratio_500_L_3_R_6.png","img/750/equaldotanddens/R/4_Ratio_750_L_15_R_20.png","img/500/randomdotsizeEA/R/2_Ratio_500_L_3_R_6.png","img/750/equaldotsize/R/11_Ratio_750_L_12_R_16.png","img/500/randomdotsizeEA/L/7_Ratio_500_L_10_R_5.png","img/900/randomdotsizeEA/L/2_Ratio_900_L_20_R_18.png","img/500/equaldotsize/R/15_Ratio_500_L_1_R_2.png","img/900/equaldotanddens/L/8_Ratio_900_L_20_R_18.png","img/250/equaldotsize/R/6_Ratio_250_L_6_R_24.png","img/250/randomdotsizeEA/L/15_Ratio_250_L_12_R_3.png","img/750/equaldotsize/R/4_Ratio_750_L_15_R_20.png","img/750/randomdotsizeEA/R/7_Ratio_750_L_3_R_4.png","img/750/equaldotanddens/R/3_Ratio_750_L_15_R_20.png","img/500/equaldotanddens/R/3_Ratio_500_L_10_R_20.png","img/500/equaldotanddens/L/11_Ratio_500_L_12_R_6.png","img/250/equaldotsize/L/14_Ratio_250_L_12_R_3.png","img/250/randomdotsizeEA/L/7_Ratio_250_L_8_R_2.png","img/250/equaldotsize/R/10_Ratio_250_L_4_R_16.png","img/900/equaldotanddens/R/5_Ratio_900_L_9_R_10.png","img/250/randomdotsizeEA/L/5_Ratio_250_L_24_R_6.png","img/250/equaldotanddens/R/13_Ratio_250_L_2_R_8.png","img/750/equaldotanddens/R/3_Ratio_750_L_15_R_20.png","img/900/randomdotsizeEA/R/15_Ratio_900_L_9_R_10.png","img/900/randomdotsizeEA/L/1_Ratio_900_L_10_R_9.png","img/750/equaldotanddens/R/5_Ratio_750_L_15_R_20.png","img/250/equaldotsize/R/9_Ratio_250_L_3_R_12.png","img/500/randomdotsizeEA/R/14_Ratio_500_L_5_R_10.png","img/250/equaldotsize/L/2_Ratio_250_L_16_R_4.png","img/750/equaldotsize/L/9_Ratio_750_L_4_R_3.png","img/750/randomdotsizeEA/L/8_Ratio_750_L_4_R_3.png","img/900/equaldotanddens/L/8_Ratio_900_L_20_R_18.png","img/250/equaldotanddens/L/2_Ratio_250_L_16_R_4.png","img/500/equaldotsize/R/3_Ratio_500_L_10_R_20.png","img/750/equaldotsize/R/15_Ratio_750_L_9_R_12.png","img/250/equaldotanddens/R/9_Ratio_250_L_3_R_12.png","img/500/randomdotsizeEA/L/10_Ratio_500_L_4_R_2.png","img/750/equaldotanddens/L/10_Ratio_750_L_4_R_3.png","img/750/randomdotsizeEA/L/10_Ratio_750_L_4_R_3.png","img/250/equaldotsize/R/9_Ratio_250_L_3_R_12.png","img/750/randomdotsizeEA/L/9_Ratio_750_L_4_R_3.png","img/900/equaldotanddens/L/10_Ratio_900_L_20_R_18.png","img/750/equaldotsize/R/15_Ratio_750_L_9_R_12.png","img/900/equaldotsize/L/1_Ratio_900_L_10_R_9.png","img/900/randomdotsizeEA/L/4_Ratio_900_L_20_R_18.png","img/250/equaldotsize/L/1_Ratio_250_L_8_R_2.png","img/500/equaldotsize/L/10_Ratio_500_L_4_R_2.png","img/500/equaldotsize/L/5_Ratio_500_L_4_R_2.png","img/900/equaldotsize/R/6_Ratio_900_L_9_R_10.png","img/900/equaldotsize/R/7_Ratio_900_L_9_R_10.png","img/500/equaldotanddens/R/12_Ratio_500_L_1_R_2.png","img/750/randomdotsizeEA/L/9_Ratio_750_L_4_R_3.png","img/500/equaldotanddens/R/15_Ratio_500_L_1_R_2.png","img/750/randomdotsizeEA/R/11_Ratio_750_L_12_R_16.png","img/500/equaldotsize/R/14_Ratio_500_L_5_R_10.png","img/750/equaldotanddens/R/11_Ratio_750_L_12_R_16.png","img/750/equaldotanddens/R/3_Ratio_750_L_15_R_20.png","img/900/equaldotsize/L/10_Ratio_900_L_20_R_18.png","img/250/randomdotsizeEA/R/12_Ratio_250_L_5_R_20.png","img/500/equaldotsize/R/15_Ratio_500_L_1_R_2.png","img/750/equaldotsize/L/9_Ratio_750_L_4_R_3.png","img/500/equaldotanddens/R/12_Ratio_500_L_1_R_2.png","img/250/randomdotsizeEA/L/5_Ratio_250_L_24_R_6.png","img/500/equaldotanddens/R/2_Ratio_500_L_3_R_6.png","img/750/randomdotsizeEA/R/7_Ratio_750_L_3_R_4.png","img/900/randomdotsizeEA/R/6_Ratio_900_L_9_R_10.png","img/250/equaldotanddens/L/1_Ratio_250_L_8_R_2.png","img/500/randomdotsizeEA/R/14_Ratio_500_L_5_R_10.png","img/750/equaldotsize/R/3_Ratio_750_L_15_R_20.png","img/900/equaldotanddens/R/9_Ratio_900_L_18_R_20.png","img/500/randomdotsizeEA/R/9_Ratio_500_L_2_R_4.png","img/500/equaldotanddens/L/4_Ratio_500_L_18_R_9.png","img/750/randomdotsizeEA/L/14_Ratio_750_L_8_R_6.png","img/900/equaldotsize/L/10_Ratio_900_L_20_R_18.png","img/250/equaldotanddens/L/3_Ratio_250_L_8_R_2.png","img/900/equaldotanddens/R/5_Ratio_900_L_9_R_10.png","img/750/equaldotanddens/L/10_Ratio_750_L_4_R_3.png","img/900/equaldotsize/R/5_Ratio_900_L_9_R_10.png","img/900/equaldotanddens/L/2_Ratio_900_L_20_R_18.png","img/500/randomdotsizeEA/R/1_Ratio_500_L_9_R_18.png","img/250/equaldotanddens/L/1_Ratio_250_L_8_R_2.png","img/900/equaldotsize/L/8_Ratio_900_L_20_R_18.png","img/750/equaldotanddens/L/14_Ratio_750_L_8_R_6.png","img/500/equaldotsize/L/11_Ratio_500_L_12_R_6.png","img/250/equaldotsize/L/2_Ratio_250_L_16_R_4.png","img/750/equaldotsize/R/2_Ratio_750_L_6_R_8.png","img/500/equaldotanddens/R/14_Ratio_500_L_5_R_10.png","img/900/randomdotsizeEA/L/10_Ratio_900_L_20_R_18.png","img/750/randomdotsizeEA/L/6_Ratio_750_L_24_R_18.png","img/500/randomdotsizeEA/R/9_Ratio_500_L_2_R_4.png","img/900/equaldotanddens/R/7_Ratio_900_L_9_R_10.png","img/250/randomdotsizeEA/L/14_Ratio_250_L_12_R_3.png","img/750/equaldotanddens/R/4_Ratio_750_L_15_R_20.png","img/900/equaldotsize/R/11_Ratio_900_L_18_R_20.png","img/500/randomdotsizeEA/L/10_Ratio_500_L_4_R_2.png","img/250/equaldotanddens/R/12_Ratio_250_L_5_R_20.png","img/900/equaldotsize/L/1_Ratio_900_L_10_R_9.png","img/250/equaldotsize/R/4_Ratio_250_L_3_R_12.png","img/250/randomdotsizeEA/L/15_Ratio_250_L_12_R_3.png","img/900/randomdotsizeEA/R/15_Ratio_900_L_9_R_10.png","img/750/equaldotsize/L/14_Ratio_750_L_8_R_6.png","img/500/equaldotsize/L/11_Ratio_500_L_12_R_6.png","img/500/randomdotsizeEA/L/5_Ratio_500_L_4_R_2.png","img/250/equaldotanddens/R/4_Ratio_250_L_3_R_12.png","img/500/equaldotsize/R/15_Ratio_500_L_1_R_2.png","img/900/randomdotsizeEA/L/8_Ratio_900_L_20_R_18.png","img/900/randomdotsizeEA/R/9_Ratio_900_L_18_R_20.png","img/250/equaldotanddens/R/13_Ratio_250_L_2_R_8.png","img/750/randomdotsizeEA/R/11_Ratio_750_L_12_R_16.png","img/500/equaldotanddens/R/1_Ratio_500_L_9_R_18.png","img/900/randomdotsizeEA/R/15_Ratio_900_L_9_R_10.png","img/250/equaldotanddens/L/14_Ratio_250_L_12_R_3.png","img/900/equaldotsize/R/13_Ratio_900_L_18_R_20.png","img/250/randomdotsizeEA/R/12_Ratio_250_L_5_R_20.png","img/750/equaldotsize/L/13_Ratio_750_L_8_R_6.png","img/900/equaldotanddens/R/6_Ratio_900_L_9_R_10.png","img/500/equaldotsize/R/12_Ratio_500_L_1_R_2.png","img/250/randomdotsizeEA/R/13_Ratio_250_L_2_R_8.png","img/900/equaldotanddens/R/12_Ratio_900_L_18_R_20.png","img/250/randomdotsizeEA/L/3_Ratio_250_L_8_R_2.png","img/250/equaldotsize/R/12_Ratio_250_L_5_R_20.png"],"Rat0":[["12_Ratio_0_L_9_R_0.png","13_Ratio_0_L_6_R_0.png","5_Ratio_0_L_2_R_0.png","6_Ratio_0_L_4_R_0.png","8_Ratio_0_L_6_R_0.png"],["1_Ratio_0_L_0_R_17.png","10_Ratio_0_L_0_R_22.png","11_Ratio_0_L_0_R_1.png","14_Ratio_0_L_0_R_24.png","15_Ratio_0_L_0_R_4.png","2_Ratio_0_L_0_R_5.png","3_Ratio_0_L_0_R_17.png","4_Ratio_0_L_0_R_7.png","7_Ratio_0_L_0_R_19.png","9_Ratio_0_L_0_R_15.png"]],"Rat250":[["1_Ratio_250_L_8_R_2.png","14_Ratio_250_L_12_R_3.png","15_Ratio_250_L_12_R_3.png","2_Ratio_250_L_16_R_4.png","3_Ratio_250_L_8_R_2.png","5_Ratio_250_L_24_R_6.png","7_Ratio_250_L_8_R_2.png"],["10_Ratio_250_L_4_R_16.png","11_Ratio_250_L_3_R_12.png","12_Ratio_250_L_5_R_20.png","13_Ratio_250_L_2_R_8.png","4_Ratio_250_L_3_R_12.png","6_Ratio_250_L_6_R_24.png","8_Ratio_250_L_1_R_4.png","9_Ratio_250_L_3_R_12.png"]],"Rat500":[["10_Ratio_500_L_4_R_2.png","11_Ratio_500_L_12_R_6.png","13_Ratio_500_L_12_R_6.png","4_Ratio_500_L_18_R_9.png","5_Ratio_500_L_4_R_2.png","7_Ratio_500_L_10_R_5.png","8_Ratio_500_L_8_R_4.png"],["1_Ratio_500_L_9_R_18.png","12_Ratio_500_L_1_R_2.png","14_Ratio_500_L_5_R_10.png","15_Ratio_500_L_1_R_2.png","2_Ratio_500_L_3_R_6.png","3_Ratio_500_L_10_R_20.png","6_Ratio_500_L_9_R_18.png","9_Ratio_500_L_2_R_4.png"]],"Rat750":[["1_Ratio_750_L_20_R_15.png","10_Ratio_750_L_4_R_3.png","13_Ratio_750_L_8_R_6.png","14_Ratio_750_L_8_R_6.png","6_Ratio_750_L_24_R_18.png","8_Ratio_750_L_4_R_3.png","9_Ratio_750_L_4_R_3.png"],["11_Ratio_750_L_12_R_16.png","12_Ratio_750_L_3_R_4.png","15_Ratio_750_L_9_R_12.png","2_Ratio_750_L_6_R_8.png","3_Ratio_750_L_15_R_20.png","4_Ratio_750_L_15_R_20.png","5_Ratio_750_L_15_R_20.png","7_Ratio_750_L_3_R_4.png"]],"Rat900":[["1_Ratio_900_L_10_R_9.png","10_Ratio_900_L_20_R_18.png","2_Ratio_900_L_20_R_18.png","4_Ratio_900_L_20_R_18.png","8_Ratio_900_L_20_R_18.png"],["11_Ratio_900_L_18_R_20.png","12_Ratio_900_L_18_R_20.png","13_Ratio_900_L_18_R_20.png","14_Ratio_900_L_18_R_20.png","15_Ratio_900_L_9_R_10.png","3_Ratio_900_L_9_R_10.png","5_Ratio_900_L_9_R_10.png","6_Ratio_900_L_9_R_10.png","7_Ratio_900_L_9_R_10.png","9_Ratio_900_L_18_R_20.png"]],"Rat1000":[["10_Ratio_1000_L_16_R_16.png","11_Ratio_1000_L_6_R_6.png","12_Ratio_1000_L_14_R_14.png","13_Ratio_1000_L_20_R_20.png","15_Ratio_1000_L_15_R_15.png","2_Ratio_1000_L_17_R_17.png","4_Ratio_1000_L_9_R_9.png","5_Ratio_1000_L_6_R_6.png","6_Ratio_1000_L_19_R_19.png","8_Ratio_1000_L_14_R_14.png","9_Ratio_1000_L_25_R_25.png"],["1_Ratio_1000_L_1_R_1.png","14_Ratio_1000_L_17_R_17.png","3_Ratio_1000_L_17_R_17.png","7_Ratio_1000_L_6_R_6.png"]]}},{"start_time":1551893186949,"click_time":1551893188016,"finger_time":1551893187655,"fix_duration":892.3208984471202,"trial":1,"RT":706,"MT":361,"sideResp":2,"stimulus":"img/750/equaldotanddens/R/4_Ratio_750_L_15_R_20.png","xmouse":[827,827,827,827,827,827,827,827,827,827,824,822,822,822,822,822,822,822,822,822,822,822,822,822,822,822,822,822,822,822,822,822,822,822,837,851,871,891,916,932,951,974,994,1000,1008,1014,1026,1037,1046,1052,1056,1059,1066,1071],"ymouse":[611,611,611,611,611,611,611,611,611,611,611,611,611,611,611,611,611,611,611,611,611,611,611,611,611,611,611,611,611,611,611,611,611,606,574,538,492,448,378,335,297,259,230,223,210,205,195,183,170,152,143,134,111,89],"timestamp_mouse":[11,43,48,68,86,106,128,147,166,187,208,227,247,267,286,306,327,347,368,387,407,428,446,467,487,507,526,548,567,586,607,627,646,666,686,706,728,747,768,786,807,827,848,866,886,907,928,947,967,987,1008,1027,1047,1066],"xSR":741.5,"ySR":573.95,"xT1":424.9,"yT1":0,"xT2":1058.1,"yT2":0,"toosoon":0,"cond_shown":"equaldotanddens","ratio_trial":750,"smaller_num":"15","larger_num":"20","correct_side":2,"subjID":"juanmanuelcruz34","gender":"0","age":"11","school":"6"},{"start_time":1551893189091,"click_time":1551893190376,"finger_time":1551893189877,"fix_duration":374.7733232645687,"trial":2,"RT":786,"MT":499,"sideResp":2,"stimulus":"img/500/randomdotsizeEA/R/2_Ratio_500_L_3_R_6.png","xmouse":[767,767,767,767,767,767,767,767,767,767,767,767,767,767,767,767,767,767,767,767,767,767,767,767,767,767,767,767,767,767,767,767,767,767,767,769,771,789,815,864,904,922,927,927,927,928,934,958,995,1056,1141,1207,1244,1244,1241,1241,1241,1241,1240,1240,1238,1216,1196,1174,1158],"ymouse":[662,662,662,662,662,662,662,662,662,662,662,662,662,662,662,662,662,662,662,662,662,662,662,662,662,662,662,662,662,662,662,662,662,662,662,660,659,644,621,579,531,501,482,479,476,474,465,431,379,295,180,88,0,0,0,0,0,0,0,0,0,0,1,7,14],"timestamp_mouse":[10,24,45,65,85,105,125,145,164,185,204,225,244,266,285,305,324,345,365,384,404,424,444,466,484,505,525,545,565,584,606,624,646,664,685,705,725,744,765,786,805,825,844,864,885,905,924,945,965,986,1004,1025,1044,1065,1085,1105,1125,1144,1165,1185,1204,1226,1245,1266,1285],"xSR":741.5,"ySR":573.95,"xT1":424.9,"yT1":0,"xT2":1058.1,"yT2":0,"toosoon":0,"cond_shown":"randomdotsizeEA","ratio_trial":500,"smaller_num":"3","larger_num":"6","correct_side":2,"subjID":"juanmanuelcruz34","gender":"0","age":"11","school":"6"},{"start_time":1551893194388,"click_time":1551893195296,"finger_time":1551893195156,"fix_duration":352.2941365180685,"trial":3,"RT":768,"MT":140,"sideResp":2,"stimulus":"img/750/equaldotsize/R/11_Ratio_750_L_12_R_16.png","xmouse":[830,830,830,830,830,830,830,830,830,830,830,830,830,830,830,830,830,830,830,830,830,830,830,830,830,830,830,830,830,830,830,830,830,830,830,830,830,833,843,879,903,980,1033,1046,1056,1062],"ymouse":[597,597,597,597,597,597,597,597,597,597,597,597,597,597,597,597,597,597,597,597,597,597,597,597,597,597,597,597,597,597,597,597,597,597,597,597,597,595,585,547,509,376,202,135,101,83],"timestamp_mouse":[9,37,48,69,88,108,129,148,167,189,207,228,248,268,288,307,329,347,368,388,407,429,448,468,488,507,528,549,569,587,608,629,647,668,687,709,728,748,768,787,808,827,847,867,888,908],"xSR":741.5,"ySR":573.95,"xT1":424.9,"yT1":0,"xT2":1058.1,"yT2":0,"toosoon":0,"cond_shown":"equaldotsize","ratio_trial":750,"smaller_num":"12","larger_num":"16","correct_side":2,"subjID":"juanmanuelcruz34","gender":"0","age":"11","school":"6"},{"start_time":1551893196528,"click_time":1551893197496,"finger_time":1551893197136,"fix_duration":250,"trial":4,"RT":608,"MT":360,"sideResp":2,"stimulus":"img/500/randomdotsizeEA/L/7_Ratio_500_L_10_R_5.png","xmouse":[801,801,801,801,801,801,801,801,801,801,801,801,801,801,801,801,801,801,801,801,801,801,801,801,801,801,801,801,801,806,830,858,889,902,909,913,914,916,921,925,941,952,967,987,1009,1051,1059,1063,1066],"ymouse":[600,600,599,599,599,599,599,599,599,599,599,599,599,599,599,599,599,599,599,599,599,599,599,599,599,599,599,599,599,591,566,531,490,467,451,438,434,430,420,415,384,362,323,277,226,136,118,105,95],"timestamp_mouse":[13,36,48,68,89,107,129,149,168,189,208,229,249,269,288,307,328,348,367,389,407,427,448,467,488,508,528,549,568,588,608,627,648,669,688,709,728,747,768,787,807,828,848,869,887,908,927,947,968],"xSR":741.5,"ySR":573.95,"xT1":424.9,"yT1":0,"xT2":1058.1,"yT2":0,"toosoon":0,"cond_shown":"randomdotsizeEA","ratio_trial":500,"smaller_num":"5","larger_num":"10","correct_side":1,"subjID":"juanmanuelcruz34","gender":"0","age":"11","school":"6"},{"start_time":1551893215123,"click_time":1551893217916,"finger_time":1551893217296,"fix_duration":1485.3093647570638,"trial":5,"RT":2173,"MT":620,"sideResp":2,"stimulus":"img/900/randomdotsizeEA/L/2_Ratio_900_L_20_R_18.png","xmouse":[779,779,779,779,779,779,779,779,779,779,779,779,779,779,779,779,779,779,779,779,779,779,779,779,779,779,779,779,779,779,779,779,779,779,779,779,779,779,779,779,779,779,779,779,779,779,779,779,779,779,779,779,779,779,779,779,779,779,779,779,779,779,779,779,779,779,779,779,779,779,779,779,779,779,779,779,779,779,779,779,779,779,779,779,779,779,779,779,779,779,779,779,779,779,779,779,779,779,779,779,779,779,779,779,779,779,779,779,785,849,942,984,1034,1131,1179,1208,1210,1210,1210,1212,1227,1248,1256,1256,1251,1239,1235,1232,1225,1207,1179,1178,1178,1178,1177,1171,1169,1166,1162,1156],"ymouse":[594,594,594,594,594,594,594,594,594,594,594,594,594,594,594,594,594,594,594,594,594,594,594,594,594,594,594,594,594,594,594,594,594,594,594,594,594,594,594,594,594,594,594,594,594,594,594,594,594,594,594,594,594,594,594,594,594,594,594,594,594,594,594,594,594,594,594,594,594,594,594,594,594,594,594,594,594,594,594,594,594,594,594,594,594,594,594,594,594,594,594,594,594,594,594,594,594,594,594,594,594,594,594,594,594,594,594,589,558,430,304,260,225,162,135,113,112,112,110,101,69,8,0,0,0,0,0,0,0,0,0,0,0,0,0,2,3,6,9,15],"timestamp_mouse":[13,33,53,73,94,114,132,154,174,192,213,234,252,273,293,314,333,353,372,393,412,434,454,473,493,513,532,554,573,592,613,633,652,673,692,712,734,752,773,792,814,833,853,872,893,912,933,953,974,992,1014,1033,1052,1073,1093,1114,1132,1152,1174,1193,1214,1233,1253,1272,1292,1312,1332,1353,1372,1392,1412,1432,1453,1473,1493,1512,1533,1553,1573,1592,1614,1633,1653,1674,1692,1712,1734,1753,1772,1794,1813,1832,1854,1874,1894,1912,1932,1954,1972,1993,2013,2033,2054,2074,2094,2112,2134,2153,2172,2193,2213,2233,2252,2274,2293,2314,2333,2352,2373,2393,2413,2432,2453,2472,2492,2512,2532,2552,2572,2594,2614,2633,2654,2674,2693,2714,2733,2753,2773,2793],"xSR":741.5,"ySR":573.95,"xT1":424.9,"yT1":0,"xT2":1058.1,"yT2":0,"toosoon":0,"cond_shown":"randomdotsizeEA","ratio_trial":900,"smaller_num":"18","larger_num":"20","correct_side":1,"subjID":"juanmanuelcruz34","gender":"0","age":"11","school":"6"},{"start_time":1551893219307,"click_time":1551893220375,"finger_time":1551893219936,"fix_duration":250,"trial":6,"RT":629,"MT":439,"sideResp":2,"stimulus":"img/500/equaldotsize/R/15_Ratio_500_L_1_R_2.png","xmouse":[826,826,825,825,825,825,823,823,823,823,823,823,823,823,823,823,823,823,823,823,823,823,823,823,823,823,823,823,823,823,821,814,806,795,792,792,796,807,824,843,872,978,1028,1049,1056,1059,1073,1081,1086,1090,1094,1101,1102,1102],"ymouse":[601,602,602,602,602,602,602,603,603,603,603,603,603,603,603,603,603,603,603,603,603,603,603,603,603,603,603,603,603,603,601,572,546,520,499,474,444,424,405,385,360,292,264,251,242,232,193,169,146,128,119,106,100,94],"timestamp_mouse":[20,41,48,69,89,108,129,150,169,189,209,230,248,268,289,309,329,349,368,388,409,428,449,470,489,509,528,550,568,588,609,629,649,669,688,709,728,748,768,790,808,829,849,869,888,909,929,949,968,988,1010,1029,1049,1068],"xSR":741.5,"ySR":573.95,"xT1":424.9,"yT1":0,"xT2":1058.1,"yT2":0,"toosoon":0,"cond_shown":"equaldotsize","ratio_trial":500,"smaller_num":"1","larger_num":"2","correct_side":2,"subjID":"juanmanuelcruz34","gender":"0","age":"11","school":"6"},{"start_time":1551893223721,"click_time":1551893224417,"finger_time":1551893224256,"fix_duration":704.207286523974,"trial":7,"RT":535,"MT":161,"sideResp":2,"stimulus":"img/900/equaldotanddens/L/8_Ratio_900_L_20_R_18.png","xmouse":[788,788,788,788,788,788,788,788,787,787,787,787,787,786,786,786,785,785,785,784,784,784,784,784,783,787,800,819,843,864,911,950,988,1030,1059],"ymouse":[605,605,605,605,605,605,605,605,605,605,605,605,605,605,605,605,605,605,605,605,605,605,605,605,604,588,564,527,476,425,307,221,134,76,52],"timestamp_mouse":[14,35,54,74,94,115,134,156,174,194,216,235,255,274,296,315,335,355,374,395,416,435,454,476,495,514,535,555,576,595,615,634,655,675,696],"xSR":741.5,"ySR":573.95,"xT1":424.9,"yT1":0,"xT2":1058.1,"yT2":0,"toosoon":0,"cond_shown":"equaldotanddens","ratio_trial":900,"smaller_num":"18","larger_num":"20","correct_side":1,"subjID":"juanmanuelcruz34","gender":"0","age":"11","school":"6"},{"start_time":1551893229391,"click_time":1551893230336,"finger_time":1551893229917,"fix_duration":374.2748422528103,"trial":8,"RT":526,"MT":419,"sideResp":2,"stimulus":"img/250/equaldotsize/R/6_Ratio_250_L_6_R_24.png","xmouse":[758,757,757,756,756,756,756,756,756,755,755,755,753,751,749,747,747,746,746,746,746,746,746,747,749,752,763,772,780,787,809,834,908,948,983,1008,1017,1020,1020,1020,1024,1028,1028,1028,1028,1029,1044,1088],"ymouse":[635,635,634,634,634,634,634,633,633,633,632,632,628,623,619,615,613,610,609,607,603,592,590,588,585,582,560,540,516,491,437,392,259,197,148,114,96,77,73,70,66,63,60,60,60,59,56,46],"timestamp_mouse":[4,30,44,66,86,105,125,144,165,186,204,225,246,265,284,305,324,344,365,386,406,426,444,464,485,505,526,544,564,585,604,625,645,666,685,705,726,745,766,785,805,825,844,864,886,906,925,944],"xSR":741.5,"ySR":573.95,"xT1":424.9,"yT1":0,"xT2":1058.1,"yT2":0,"toosoon":0,"cond_shown":"equaldotsize","ratio_trial":250,"smaller_num":"6","larger_num":"24","correct_side":2,"subjID":"juanmanuelcruz34","gender":"0","age":"11","school":"6"},{"start_time":1551893233744,"click_time":1551893234876,"finger_time":1551893234476,"fix_duration":1467.2983498276255,"trial":9,"RT":732,"MT":400,"sideResp":2,"stimulus":"img/250/randomdotsizeEA/L/15_Ratio_250_L_12_R_3.png","xmouse":[809,809,809,809,809,809,809,809,809,809,809,809,809,809,809,808,808,808,808,808,808,808,808,808,808,808,808,808,808,808,808,808,808,807,799,789,775,759,747,745,764,798,837,884,922,935,944,950,953,963,971,974,975,975,1012,1059,1103],"ymouse":[643,643,643,642,642,642,642,642,642,642,642,642,642,642,642,642,641,641,641,641,641,641,641,641,641,641,641,641,641,641,641,641,641,640,612,592,568,533,496,429,373,293,204,97,33,18,5,0,0,0,0,0,0,0,0,0,5],"timestamp_mouse":[18,41,52,73,92,112,131,151,171,191,212,233,252,273,293,312,333,351,371,392,412,432,451,472,492,511,533,552,572,591,612,632,652,673,692,711,732,751,771,792,812,833,852,871,891,912,932,952,972,992,1011,1032,1053,1072,1092,1112,1132],"xSR":741.5,"ySR":573.95,"xT1":424.9,"yT1":0,"xT2":1058.1,"yT2":0,"toosoon":0,"cond_shown":"randomdotsizeEA","ratio_trial":250,"smaller_num":"3","larger_num":"12","correct_side":1,"subjID":"juanmanuelcruz34","gender":"0","age":"11","school":"6"},{"start_time":1551893236224,"click_time":1551893237297,"finger_time":1551893236897,"fix_duration":445.7360275088388,"trial":10,"RT":673,"MT":400,"sideResp":2,"stimulus":"img/750/equaldotsize/R/4_Ratio_750_L_15_R_20.png","xmouse":[777,777,777,777,777,777,777,777,777,777,777,777,777,777,777,777,777,777,777,777,777,777,777,777,777,777,777,777,777,777,777,777,778,785,813,849,902,966,1018,1039,1039,1040,1042,1044,1045,1047,1047,1047,1047,1047,1046,1045,1054,1068],"ymouse":[599,599,599,599,599,599,599,599,599,599,599,599,599,599,599,599,599,599,599,599,599,599,599,599,599,599,599,599,599,599,599,599,589,572,506,422,319,209,111,54,44,43,40,34,31,27,27,27,27,27,27,27,28,28],"timestamp_mouse":[11,40,52,73,91,111,132,151,173,191,212,233,251,272,292,311,332,352,371,392,412,432,451,472,492,512,531,552,573,593,612,632,652,673,693,712,732,752,773,792,811,832,851,872,892,913,932,952,971,992,1011,1032,1052,1073],"xSR":741.5,"ySR":573.95,"xT1":424.9,"yT1":0,"xT2":1058.1,"yT2":0,"toosoon":0,"cond_shown":"equaldotsize","ratio_trial":750,"smaller_num":"15","larger_num":"20","correct_side":2,"subjID":"juanmanuelcruz34","gender":"0","age":"11","school":"6"},{"start_time":1551893239565,"click_time":1551893240736,"finger_time":1551893240295,"fix_duration":1347.3775374283289,"trial":11,"RT":730,"MT":441,"sideResp":2,"stimulus":"img/750/randomdotsizeEA/R/7_Ratio_750_L_3_R_4.png","xmouse":[804,804,804,804,804,804,804,804,804,804,804,804,804,804,804,804,804,804,804,804,804,804,804,804,804,804,804,804,804,804,804,804,804,803,803,805,810,815,832,843,856,872,907,936,943,948,953,957,968,972,977,984,998,1021,1025,1030,1033,1044,1084],"ymouse":[602,602,602,602,602,602,602,602,602,602,602,602,602,602,602,602,602,602,602,602,602,602,602,602,602,602,602,602,602,602,602,602,602,602,597,584,567,549,508,488,464,436,378,313,291,273,255,241,209,195,180,164,139,103,94,87,84,77,61],"timestamp_mouse":[11,35,51,71,91,110,130,151,172,191,210,230,251,272,290,310,330,351,371,392,411,431,450,472,490,510,531,551,572,590,610,630,650,671,691,711,730,751,771,792,812,832,851,871,891,911,930,951,971,990,1010,1031,1051,1071,1092,1110,1132,1151,1171],"xSR":741.5,"ySR":573.95,"xT1":424.9,"yT1":0,"xT2":1058.1,"yT2":0,"toosoon":0,"cond_shown":"randomdotsizeEA","ratio_trial":750,"smaller_num":"3","larger_num":"4","correct_side":2,"subjID":"juanmanuelcruz34","gender":"0","age":"11","school":"6"},{"start_time":1551893242997,"click_time":1551893244137,"finger_time":1551893243638,"fix_duration":938.9212200452384,"trial":12,"RT":641,"MT":499,"sideResp":2,"stimulus":"img/750/equaldotanddens/R/3_Ratio_750_L_15_R_20.png","xmouse":[803,803,803,803,803,803,803,803,803,803,803,803,803,803,803,803,803,803,803,803,803,803,803,803,803,803,803,803,803,803,803,803,814,824,838,851,868,911,930,950,972,977,992,999,1005,1009,1013,1020,1022,1023,1023,1023,1023,1023,1023,1023,1050,1064],"ymouse":[590,590,590,590,590,590,590,590,590,590,590,590,590,590,590,590,590,590,590,590,590,590,590,590,590,590,590,590,590,590,590,590,563,539,508,476,442,361,318,274,217,206,173,162,153,144,132,105,100,97,97,97,97,97,97,96,81,75],"timestamp_mouse":[9,21,41,60,81,101,120,142,160,181,200,220,242,262,281,300,322,340,362,381,400,421,440,462,480,500,521,540,560,581,602,621,641,661,682,702,722,741,761,781,800,821,842,861,882,902,922,941,960,980,1001,1022,1040,1062,1082,1102,1122,1140],"xSR":741.5,"ySR":573.95,"xT1":424.9,"yT1":0,"xT2":1058.1,"yT2":0,"toosoon":0,"cond_shown":"equaldotanddens","ratio_trial":750,"smaller_num":"15","larger_num":"20","correct_side":2,"subjID":"juanmanuelcruz34","gender":"0","age":"11","school":"6"},{"start_time":1551893248181,"click_time":1551893249438,"finger_time":1551893248797,"fix_duration":922.5211880659983,"trial":13,"RT":616,"MT":641,"sideResp":2,"stimulus":"img/500/equaldotanddens/R/3_Ratio_500_L_10_R_20.png","xmouse":[810,810,810,810,810,810,810,810,810,810,810,810,810,810,810,810,810,810,810,810,810,810,810,810,810,810,810,812,818,835,861,873,966,1012,1051,1092,1123,1143,1148,1155,1160,1164,1164,1164,1164,1164,1164,1164,1164,1164,1164,1164,1164,1164,1164,1164,1164,1163,1163,1163,1162,1160,1156],"ymouse":[639,639,639,639,639,639,639,639,639,639,639,639,639,639,639,639,639,639,639,639,639,639,639,639,639,639,639,637,619,576,481,445,219,116,30,0,0,0,0,0,0,0,0,0,0,0,0,0,0,0,0,0,0,0,0,0,0,2,7,10,23,35,60],"timestamp_mouse":[21,38,57,77,96,118,137,158,176,197,216,236,257,276,296,316,337,357,376,397,417,437,458,478,496,516,538,556,577,597,616,637,656,676,696,718,736,756,776,796,816,837,858,877,898,918,937,957,976,996,1016,1037,1056,1076,1096,1117,1137,1156,1177,1196,1216,1236,1257],"xSR":741.5,"ySR":573.95,"xT1":424.9,"yT1":0,"xT2":1058.1,"yT2":0,"toosoon":0,"cond_shown":"equaldotanddens","ratio_trial":500,"smaller_num":"10","larger_num":"20","correct_side":2,"subjID":"juanmanuelcruz34","gender":"0","age":"11","school":"6"},{"start_time":1551893251109,"click_time":1551893252498,"finger_time":1551893252019,"fix_duration":250,"trial":14,"RT":910,"MT":479,"sideResp":1,"stimulus":"img/500/equaldotanddens/L/11_Ratio_500_L_12_R_6.png","xmouse":[810,810,810,810,810,810,810,810,810,810,810,810,810,810,810,810,810,810,810,810,810,810,810,810,810,810,810,810,810,810,810,810,810,810,810,810,810,810,810,810,810,809,808,806,801,784,777,771,765,759,750,710,667,625,599,576,562,561,562,564,565,565,565,565,565,565,552,539,525,512],"ymouse":[608,608,608,608,608,608,608,608,608,608,608,608,608,608,608,608,608,608,608,608,608,608,608,608,608,608,608,608,608,608,608,608,608,608,608,608,608,608,608,608,605,602,597,592,582,557,546,536,523,508,489,405,333,266,208,127,56,35,22,16,13,12,12,12,12,12,13,19,27,34],"timestamp_mouse":[8,40,49,68,90,109,129,149,169,189,210,229,248,268,290,309,330,348,369,390,410,430,450,469,489,509,529,549,569,588,608,630,650,669,690,709,728,749,769,789,808,828,849,870,888,910,928,948,968,988,1009,1028,1049,1068,1090,1108,1129,1148,1169,1190,1209,1228,1248,1269,1289,1308,1328,1348,1369,1389],"xSR":741.5,"ySR":573.95,"xT1":424.9,"yT1":0,"xT2":1058.1,"yT2":0,"toosoon":0,"cond_shown":"equaldotanddens","ratio_trial":500,"smaller_num":"6","larger_num":"12","correct_side":1,"subjID":"juanmanuelcruz34","gender":"0","age":"11","school":"6"},{"start_time":1551893254167,"click_time":1551893255538,"finger_time":1551893254819,"fix_duration":488.60654434551634,"trial":15,"RT":652,"MT":719,"sideResp":1,"stimulus":"img/250/equaldotsize/L/14_Ratio_250_L_12_R_3.png","xmouse":[775,775,775,775,775,775,775,775,775,775,775,775,775,775,775,775,775,775,775,775,775,775,775,775,775,775,775,775,775,774,771,769,758,741,735,730,722,714,669,652,645,642,637,617,603,590,579,570,564,563,563,560,558,550,547,546,546,546,542,541,538,533,519,496,492,491,491,491,491],"ymouse":[590,590,590,590,590,590,590,590,590,590,590,590,590,590,590,590,590,590,590,590,590,590,590,590,590,590,590,590,590,590,584,578,552,509,486,464,438,406,308,276,258,245,234,205,188,171,154,139,125,121,117,112,110,104,103,102,102,102,105,106,108,109,110,109,108,107,106,103,95],"timestamp_mouse":[12,32,51,71,91,110,132,152,171,190,211,230,250,272,292,310,330,352,371,391,411,430,450,472,490,512,532,550,571,591,611,630,652,672,690,711,732,751,770,792,810,831,850,870,891,910,931,951,971,990,1011,1031,1052,1071,1091,1111,1132,1151,1171,1191,1211,1230,1250,1271,1291,1310,1330,1351,1371],"xSR":741.5,"ySR":573.95,"xT1":424.9,"yT1":0,"xT2":1058.1,"yT2":0,"toosoon":0,"cond_shown":"equaldotsize","ratio_trial":250,"smaller_num":"3","larger_num":"12","correct_side":1,"subjID":"juanmanuelcruz34","gender":"0","age":"11","school":"6"},{"start_time":1551893259202,"click_time":1551893260037,"finger_time":1551893259778,"fix_duration":1103.3571334337566,"trial":16,"RT":576,"MT":259,"sideResp":2,"stimulus":"img/250/randomdotsizeEA/L/7_Ratio_250_L_8_R_2.png","xmouse":[799,799,799,799,799,799,799,799,799,799,799,799,799,799,799,799,799,798,798,798,798,798,798,798,798,798,808,817,829,835,845,871,882,896,920,940,957,969,997,1019,1034,1065],"ymouse":[628,628,628,628,628,628,628,628,628,628,628,628,628,628,628,628,628,627,627,627,627,627,626,623,621,619,600,581,538,517,444,371,342,309,269,230,183,156,106,69,43,4],"timestamp_mouse":[17,36,55,76,95,116,135,155,177,196,216,237,255,275,296,316,336,355,377,397,417,435,455,477,496,516,536,556,576,597,616,635,656,676,696,716,735,756,776,796,816,835],"xSR":741.5,"ySR":573.95,"xT1":424.9,"yT1":0,"xT2":1058.1,"yT2":0,"toosoon":0,"cond_shown":"randomdotsizeEA","ratio_trial":250,"smaller_num":"2","larger_num":"8","correct_side":1,"subjID":"juanmanuelcruz34","gender":"0","age":"11","school":"6"},{"start_time":1551893262501,"click_time":1551893264039,"finger_time":1551893263179,"fix_duration":1021.3454377714994,"trial":17,"RT":678,"MT":860,"sideResp":2,"stimulus":"img/250/equaldotsize/R/10_Ratio_250_L_4_R_16.png","xmouse":[786,786,786,786,786,786,786,786,786,786,786,786,786,786,786,786,786,786,786,786,786,786,786,786,786,786,786,786,786,786,787,795,810,835,863,940,964,974,977,984,990,1000,1003,1005,1007,1009,1021,1028,1034,1038,1040,1045,1048,1051,1053,1054,1055,1055,1055,1056,1056,1056,1057,1058,1058,1058,1058,1058,1058,1058,1058,1058,1058,1058,1058,1058,1059],"ymouse":[645,645,645,645,645,645,645,645,645,645,645,645,645,645,645,645,645,645,645,645,645,645,645,645,645,645,645,645,645,645,641,623,604,572,540,434,388,354,333,312,297,275,264,251,240,226,192,175,158,144,131,108,99,88,84,83,78,76,75,74,73,70,69,67,65,65,65,65,65,65,65,65,65,65,65,65,65],"timestamp_mouse":[17,37,56,78,96,116,137,156,177,196,217,236,257,277,296,318,338,357,377,397,417,437,457,476,496,518,538,556,577,597,617,637,656,678,698,718,737,757,777,796,817,837,856,877,897,917,936,957,976,998,1018,1037,1058,1076,1097,1117,1137,1156,1177,1197,1216,1236,1257,1276,1296,1317,1338,1357,1376,1397,1417,1438,1457,1476,1496,1516,1538],"xSR":741.5,"ySR":573.95,"xT1":424.9,"yT1":0,"xT2":1058.1,"yT2":0,"toosoon":0,"cond_shown":"equaldotsize","ratio_trial":250,"smaller_num":"4","larger_num":"16","correct_side":2,"subjID":"juanmanuelcruz34","gender":"0","age":"11","school":"6"},{"start_time":1551893266604,"click_time":1551893267418,"finger_time":1551893267038,"fix_duration":1284.1187928528716,"trial":18,"RT":434,"MT":380,"sideResp":2,"stimulus":"img/900/equaldotanddens/R/5_Ratio_900_L_9_R_10.png","xmouse":[778,778,778,778,778,778,778,778,778,778,778,778,778,778,778,778,778,778,778,779,783,793,801,809,816,822,832,844,859,878,916,923,927,932,940,953,996,1023,1045,1058,1069],"ymouse":[584,584,584,584,584,584,584,584,584,584,584,584,584,584,584,584,584,584,583,581,577,571,568,564,562,558,552,543,532,516,462,439,414,390,354,310,215,167,127,98,71],"timestamp_mouse":[14,34,53,74,95,113,134,153,175,193,214,234,254,274,294,314,334,355,374,393,414,434,453,473,495,514,534,555,574,594,615,634,654,673,694,714,734,754,773,793,813],"xSR":741.5,"ySR":573.95,"xT1":424.9,"yT1":0,"xT2":1058.1,"yT2":0,"toosoon":0,"cond_shown":"equaldotanddens","ratio_trial":900,"smaller_num":"9","larger_num":"10","correct_side":2,"subjID":"juanmanuelcruz34","gender":"0","age":"11","school":"6"},{"start_time":1551893270920,"click_time":1551893271838,"finger_time":1551893271658,"fix_duration":861.5509504050721,"trial":19,"RT":738,"MT":180,"sideResp":2,"stimulus":"img/250/randomdotsizeEA/L/5_Ratio_250_L_24_R_6.png","xmouse":[806,806,806,806,806,806,806,806,806,806,806,806,806,806,806,806,806,806,806,806,806,806,806,806,806,806,806,806,806,806,806,806,806,806,806,817,841,882,934,975,1032,1052,1072,1086,1088,1088],"ymouse":[589,589,589,589,589,589,589,589,589,589,589,589,589,589,589,589,589,589,589,589,589,589,589,588,588,588,588,588,588,588,588,588,588,588,588,583,566,529,462,395,275,230,184,134,122,76],"timestamp_mouse":[33,37,57,78,98,118,138,157,177,199,218,237,257,277,298,318,338,357,377,398,417,439,457,479,497,519,537,557,577,597,617,638,659,677,698,718,738,758,779,798,818,839,858,877,898,918],"xSR":741.5,"ySR":573.95,"xT1":424.9,"yT1":0,"xT2":1058.1,"yT2":0,"toosoon":0,"cond_shown":"randomdotsizeEA","ratio_trial":250,"smaller_num":"6","larger_num":"24","correct_side":1,"subjID":"juanmanuelcruz34","gender":"0","age":"11","school":"6"},{"start_time":1551893274532,"click_time":1551893275678,"finger_time":1551893275239,"fix_duration":1331.6904695199585,"trial":20,"RT":707,"MT":439,"sideResp":2,"stimulus":"img/250/equaldotanddens/R/13_Ratio_250_L_2_R_8.png","xmouse":[831,831,831,831,831,831,831,831,831,831,831,831,831,831,831,831,831,831,831,831,831,831,831,831,831,831,831,831,831,831,831,831,831,831,834,851,854,861,868,877,911,938,961,978,998,1008,1010,1012,1018,1024,1039,1044,1047,1051,1058,1064,1066,1067],"ymouse":[591,591,591,591,591,591,591,591,591,591,591,591,591,591,591,591,591,591,591,591,591,591,591,591,591,591,591,591,591,591,591,591,591,591,585,541,519,498,481,459,388,334,296,262,227,206,202,196,186,176,154,144,135,126,114,106,102,99],"timestamp_mouse":[18,32,47,66,85,106,126,145,165,186,207,226,245,267,286,306,327,345,367,387,405,426,446,466,485,506,526,545,565,585,606,626,647,665,685,707,726,746,765,786,806,826,846,866,885,905,925,946,966,986,1005,1026,1047,1065,1086,1106,1125,1146],"xSR":741.5,"ySR":573.95,"xT1":424.9,"yT1":0,"xT2":1058.1,"yT2":0,"toosoon":0,"cond_shown":"equaldotanddens","ratio_trial":250,"smaller_num":"2","larger_num":"8","correct_side":2,"subjID":"juanmanuelcruz34","gender":"0","age":"11","school":"6"},{"start_time":1551893277503,"click_time":1551893278577,"finger_time":1551893278138,"fix_duration":264.89395472135647,"trial":21,"RT":635,"MT":439,"sideResp":2,"stimulus":"img/750/equaldotanddens/R/3_Ratio_750_L_15_R_20.png","xmouse":[815,815,815,815,815,815,815,815,815,815,815,815,815,815,815,815,815,815,815,815,815,815,815,815,815,815,815,815,815,817,822,836,846,857,863,863,869,876,887,895,902,902,904,910,919,940,976,991,999,1009,1018,1043,1057,1070],"ymouse":[585,585,585,585,585,585,585,585,585,585,585,585,585,585,585,585,585,585,585,585,585,585,585,585,585,585,585,585,585,585,581,560,540,512,454,440,387,364,340,322,303,301,297,288,275,249,207,188,174,159,147,118,97,80],"timestamp_mouse":[14,35,54,75,94,116,136,155,175,196,214,235,255,275,294,315,335,354,376,395,414,436,456,475,494,515,535,555,575,595,614,635,655,675,694,715,734,755,775,795,816,834,856,875,895,915,936,955,974,994,1015,1035,1055,1074],"xSR":741.5,"ySR":573.95,"xT1":424.9,"yT1":0,"xT2":1058.1,"yT2":0,"toosoon":0,"cond_shown":"equaldotanddens","ratio_trial":750,"smaller_num":"15","larger_num":"20","correct_side":2,"subjID":"juanmanuelcruz34","gender":"0","age":"11","school":"6"},{"start_time":1551893280511,"click_time":1551893282058,"finger_time":1551893281638,"fix_duration":772.3897045688107,"trial":22,"RT":1127,"MT":420,"sideResp":2,"stimulus":"img/900/randomdotsizeEA/R/15_Ratio_900_L_9_R_10.png","xmouse":[785,785,785,785,785,785,785,785,785,785,785,785,785,785,785,785,785,785,785,785,785,785,785,785,785,785,785,785,785,785,785,785,785,785,785,785,785,785,785,785,785,785,785,785,785,785,785,785,785,785,785,785,788,788,788,789,798,812,842,861,868,873,876,882,891,900,903,905,912,918,927,950,965,981,996,1021,1067,1086],"ymouse":[593,593,593,593,593,593,593,593,593,593,593,593,593,593,593,593,593,593,593,593,593,593,593,593,593,593,593,593,593,593,593,593,593,593,593,593,593,593,593,593,593,593,593,593,593,593,593,593,593,593,593,593,588,587,584,580,564,544,511,486,475,462,454,442,425,409,397,391,379,365,347,302,279,255,234,197,129,94],"timestamp_mouse":[11,38,58,67,87,108,126,147,168,186,208,226,246,267,288,306,328,346,368,388,407,427,447,466,487,506,528,547,567,586,606,628,646,666,688,706,728,748,766,788,808,828,847,867,886,906,928,946,966,987,1007,1028,1046,1067,1087,1107,1127,1147,1167,1187,1207,1227,1247,1266,1286,1308,1327,1347,1367,1387,1408,1427,1446,1467,1487,1507,1526,1546],"xSR":741.5,"ySR":573.95,"xT1":424.9,"yT1":0,"xT2":1058.1,"yT2":0,"toosoon":0,"cond_shown":"randomdotsizeEA","ratio_trial":900,"smaller_num":"9","larger_num":"10","correct_side":2,"subjID":"juanmanuelcruz34","gender":"0","age":"11","school":"6"},{"start_time":1551893289315,"click_time":1551893290478,"finger_time":1551893290037,"fix_duration":356.87355468417417,"trial":23,"RT":722,"MT":441,"sideResp":2,"stimulus":"img/900/randomdotsizeEA/L/1_Ratio_900_L_10_R_9.png","xmouse":[784,784,784,784,784,784,784,784,784,784,784,784,784,784,784,784,784,784,784,784,784,784,784,784,784,784,784,784,783,783,783,784,785,787,787,794,816,838,869,909,965,1124,1229,1334,1419,1468,1473,1473,1473,1471,1469,1451,1428,1399,1360,1292,1213,1176,1144],"ymouse":[622,622,622,622,622,622,622,622,622,622,622,622,622,622,622,622,622,622,622,622,622,622,622,622,622,622,622,622,621,619,617,612,609,605,601,584,549,515,471,411,334,146,54,0,0,0,0,0,0,0,0,0,6,14,21,38,61,68,74],"timestamp_mouse":[10,36,43,63,83,104,122,142,164,182,203,222,243,262,282,303,322,343,363,383,403,423,443,464,482,502,524,543,564,583,602,622,642,664,683,703,722,743,763,782,803,823,843,862,882,903,922,943,963,982,1003,1022,1044,1064,1082,1103,1122,1142,1163],"xSR":741.5,"ySR":573.95,"xT1":424.9,"yT1":0,"xT2":1058.1,"yT2":0,"toosoon":0,"cond_shown":"randomdotsizeEA","ratio_trial":900,"smaller_num":"9","larger_num":"10","correct_side":1,"subjID":"juanmanuelcruz34","gender":"0","age":"11","school":"6"},{"start_time":1551893293515,"click_time":1551893294258,"finger_time":1551893294098,"fix_duration":1414.253408838029,"trial":24,"RT":583,"MT":160,"sideResp":2,"stimulus":"img/750/equaldotanddens/R/5_Ratio_750_L_15_R_20.png","xmouse":[805,805,805,805,805,805,805,805,805,805,805,805,805,805,805,805,805,805,805,805,804,804,804,804,804,804,804,804,805,813,845,861,877,892,928,965,1081,1142],"ymouse":[592,592,592,592,592,592,592,592,592,592,592,592,592,592,592,592,592,592,592,591,590,590,590,590,590,590,590,588,580,563,501,468,432,402,341,288,152,79],"timestamp_mouse":[10,34,43,64,83,102,122,142,162,183,202,222,243,262,283,302,323,343,362,383,402,423,443,463,483,503,522,543,563,583,604,623,644,664,683,704,723,742],"xSR":741.5,"ySR":573.95,"xT1":424.9,"yT1":0,"xT2":1058.1,"yT2":0,"toosoon":0,"cond_shown":"equaldotanddens","ratio_trial":750,"smaller_num":"15","larger_num":"20","correct_side":2,"subjID":"juanmanuelcruz34","gender":"0","age":"11","school":"6"},{"start_time":1551893297669,"click_time":1551893298837,"finger_time":1551893298238,"fix_duration":1010.4867134007271,"trial":25,"RT":569,"MT":599,"sideResp":2,"stimulus":"img/250/equaldotsize/R/9_Ratio_250_L_3_R_12.png","xmouse":[765,765,765,765,765,765,765,765,765,765,765,765,765,765,765,765,765,765,765,765,765,765,765,765,768,770,776,785,808,823,846,880,923,1063,1163,1264,1333,1367,1368,1368,1367,1365,1364,1363,1360,1350,1327,1310,1271,1250,1226,1202,1177,1136,1126,1125,1125,1125,1123],"ymouse":[621,621,621,621,621,621,621,621,621,621,621,621,621,621,621,621,621,621,621,621,621,621,621,621,620,616,601,584,537,502,460,411,348,210,125,47,0,0,0,0,0,4,6,7,7,6,4,3,0,0,0,0,0,0,0,0,0,0,2],"timestamp_mouse":[10,34,48,70,88,110,129,148,169,189,209,228,248,270,290,309,329,348,368,389,410,428,448,469,489,508,529,550,569,589,608,628,650,669,688,709,729,749,768,789,809,829,849,868,888,908,928,949,968,988,1009,1028,1049,1069,1089,1109,1128,1149,1168],"xSR":741.5,"ySR":573.95,"xT1":424.9,"yT1":0,"xT2":1058.1,"yT2":0,"toosoon":0,"cond_shown":"equaldotsize","ratio_trial":250,"smaller_num":"3","larger_num":"12","correct_side":2,"subjID":"juanmanuelcruz34","gender":"0","age":"11","school":"6"},{"start_time":1551893300984,"click_time":1551893303419,"finger_time":1551893301979,"fix_duration":1024.9774018669239,"trial":26,"RT":995,"MT":1440,"sideResp":2,"stimulus":"img/500/randomdotsizeEA/R/14_Ratio_500_L_5_R_10.png","xmouse":[800,800,800,800,800,800,800,800,800,800,800,800,800,800,800,800,800,800,800,800,800,800,800,800,800,800,800,800,800,800,800,800,800,800,800,800,800,800,800,800,800,800,800,800,800,800,800,807,826,832,837,844,845,845,845,847,850,859,867,875,881,888,913,939,953,958,961,967,972,973,977,981,990,997,1002,1007,1010,1012,1012,1012,1012,1012,1020,1025,1027,1028,1028,1028,1032,1032,1032,1032,1033,1034,1034,1034,1035,1037,1037,1039,1040,1040,1043,1044,1045,1046,1047,1047,1047,1048,1049,1050,1050,1051,1051,1052,1054,1056,1056,1057,1057,1059],"ymouse":[599,599,599,599,599,599,599,599,599,599,599,599,599,599,599,599,599,599,599,599,599,599,599,599,599,599,599,599,599,599,599,599,599,599,599,599,599,599,599,599,599,599,599,599,599,599,599,596,579,572,561,537,472,441,416,395,374,333,306,284,268,252,204,165,143,133,127,119,113,112,106,101,92,86,82,79,77,75,75,75,75,75,72,70,68,68,68,68,68,68,68,68,69,70,70,70,70,71,71,71,73,73,74,74,74,74,76,76,76,76,76,77,77,77,77,78,78,79,80,80,81,81],"timestamp_mouse":[20,34,54,73,94,113,133,153,175,194,213,233,254,274,293,313,334,353,373,393,413,434,454,473,494,515,534,554,573,594,614,635,654,675,694,713,734,755,773,793,813,834,854,875,895,914,936,955,975,995,1015,1035,1055,1075,1095,1115,1136,1155,1175,1195,1214,1236,1255,1275,1295,1314,1335,1355,1375,1395,1415,1436,1456,1474,1495,1516,1535,1556,1576,1594,1615,1635,1656,1675,1696,1715,1735,1755,1775,1794,1815,1835,1856,1875,1896,1915,1936,1955,1974,1996,2015,2035,2055,2075,2095,2115,2136,2154,2176,2195,2215,2236,2254,2275,2296,2315,2336,2355,2375,2395,2415,2435],"xSR":741.5,"ySR":573.95,"xT1":424.9,"yT1":0,"xT2":1058.1,"yT2":0,"toosoon":0,"cond_shown":"randomdotsizeEA","ratio_trial":500,"smaller_num":"5","larger_num":"10","correct_side":2,"subjID":"juanmanuelcruz34","gender":"0","age":"11","school":"6"},{"start_time":1551893305629,"click_time":1551893306619,"finger_time":1551893306239,"fix_duration":1129.5058892809814,"trial":27,"RT":610,"MT":380,"sideResp":1,"stimulus":"img/250/equaldotsize/L/2_Ratio_250_L_16_R_4.png","xmouse":[814,814,814,817,817,817,817,819,821,821,822,822,823,823,823,823,823,824,824,824,824,824,824,824,824,824,824,824,824,824,819,808,783,747,712,664,658,657,657,663,669,666,655,645,639,630,616,569,548,492],"ymouse":[622,622,622,618,617,617,616,614,611,610,609,609,609,609,609,608,608,608,608,608,608,608,608,608,608,608,608,608,606,601,566,526,464,398,347,283,272,268,256,240,206,187,165,148,140,126,111,80,68,36],"timestamp_mouse":[12,41,50,70,90,110,129,150,171,190,211,229,249,271,291,311,331,350,371,389,411,429,451,471,491,510,530,549,570,590,610,631,650,670,690,710,731,751,771,791,811,830,849,870,890,910,931,950,971,990],"xSR":741.5,"ySR":573.95,"xT1":424.9,"yT1":0,"xT2":1058.1,"yT2":0,"toosoon":0,"cond_shown":"equaldotsize","ratio_trial":250,"smaller_num":"4","larger_num":"16","correct_side":1,"subjID":"juanmanuelcruz34","gender":"0","age":"11","school":"6"},{"start_time":1551893309411,"click_time":1551893310478,"finger_time":1551893310080,"fix_duration":250,"trial":28,"RT":669,"MT":398,"sideResp":1,"stimulus":"img/750/equaldotsize/L/9_Ratio_750_L_4_R_3.png","xmouse":[764,764,764,764,764,764,764,764,764,764,764,764,764,764,764,764,764,764,764,764,764,764,764,765,767,767,767,767,767,767,768,768,767,761,746,714,569,491,440,428,425,417,409,399,391,386,386,386,386,386,386,409,419,426],"ymouse":[637,637,637,637,637,637,637,637,637,637,637,637,637,637,637,637,637,637,637,637,636,634,634,631,627,624,620,617,614,609,598,583,575,562,537,483,321,253,209,194,182,159,142,127,113,105,105,105,105,105,104,89,85,83],"timestamp_mouse":[9,39,48,68,89,108,129,148,168,188,208,228,249,268,288,308,329,347,368,388,408,428,448,469,488,508,528,549,568,588,609,628,648,669,688,708,727,748,768,789,808,829,848,868,888,909,927,948,968,988,1008,1028,1048,1067],"xSR":741.5,"ySR":573.95,"xT1":424.9,"yT1":0,"xT2":1058.1,"yT2":0,"toosoon":0,"cond_shown":"equaldotsize","ratio_trial":750,"smaller_num":"3","larger_num":"4","correct_side":1,"subjID":"juanmanuelcruz34","gender":"0","age":"11","school":"6"},{"start_time":1551893312205,"click_time":1551893314139,"finger_time":1551893312879,"fix_duration":923.3986293519251,"trial":29,"RT":674,"MT":1260,"sideResp":2,"stimulus":"img/750/randomdotsizeEA/L/8_Ratio_750_L_4_R_3.png","xmouse":[759,759,759,759,759,759,759,759,759,759,759,759,759,759,759,759,759,759,759,759,759,759,759,759,759,759,759,759,759,759,759,758,754,748,740,725,642,586,527,483,449,444,444,444,444,444,443,443,443,443,443,448,449,449,449,449,452,456,467,478,490,531,585,674,810,975,1220,1257,1265,1265,1260,1259,1254,1246,1232,1195,1175,1155,1133,1112,1094,1092,1092,1092,1092,1092,1093,1094,1097,1101,1114,1120,1122,1123,1123,1125,1126],"ymouse":[615,615,615,615,615,615,615,615,615,615,615,615,615,615,615,615,615,615,615,615,615,615,615,615,615,615,615,615,614,612,611,600,586,571,551,521,391,322,262,210,165,151,150,148,147,144,142,142,141,140,136,126,126,126,125,125,125,127,129,130,132,144,158,183,208,229,246,246,245,245,230,223,211,199,184,157,143,130,119,110,106,105,105,105,105,105,105,106,108,113,117,117,117,117,117,113,97],"timestamp_mouse":[13,34,55,74,94,115,134,153,174,195,213,234,254,274,294,314,334,354,374,393,415,434,453,473,495,514,534,554,574,595,614,634,654,674,694,714,734,754,774,794,814,833,854,874,894,914,934,954,974,995,1015,1035,1054,1075,1094,1115,1133,1154,1174,1194,1214,1234,1254,1274,1294,1314,1333,1353,1374,1394,1415,1433,1454,1474,1494,1515,1534,1554,1575,1595,1614,1634,1653,1674,1693,1715,1734,1754,1774,1794,1815,1833,1855,1874,1893,1915,1934],"xSR":741.5,"ySR":573.95,"xT1":424.9,"yT1":0,"xT2":1058.1,"yT2":0,"toosoon":0,"cond_shown":"randomdotsizeEA","ratio_trial":750,"smaller_num":"3","larger_num":"4","correct_side":1,"subjID":"juanmanuelcruz34","gender":"0","age":"11","school":"6"},{"start_time":1551893315470,"click_time":1551893316699,"finger_time":1551893315979,"fix_duration":250,"trial":30,"RT":509,"MT":720,"sideResp":2,"stimulus":"img/900/equaldotanddens/L/8_Ratio_900_L_20_R_18.png","xmouse":[812,812,812,812,812,812,812,812,812,812,812,812,812,812,812,812,812,812,812,812,812,812,811,810,809,808,796,719,686,668,667,667,667,667,667,667,667,667,667,667,667,667,672,700,716,736,758,796,840,866,883,893,899,919,955,1002,1086,1134,1166,1166,1164,1155],"ymouse":[587,587,587,587,587,587,587,587,587,587,587,587,587,587,587,587,587,587,587,587,587,587,585,581,575,565,543,431,397,382,380,380,380,380,380,380,380,380,380,380,380,378,372,355,348,340,335,325,306,290,277,266,256,233,215,192,148,119,88,83,80,79],"timestamp_mouse":[10,31,50,69,89,109,129,150,169,189,210,230,250,269,289,309,329,349,369,389,409,429,450,468,489,509,530,550,569,590,608,630,650,670,689,709,729,750,770,789,810,829,849,869,890,908,929,950,970,989,1009,1030,1050,1069,1089,1109,1129,1148,1169,1189,1209,1229],"xSR":741.5,"ySR":573.95,"xT1":424.9,"yT1":0,"xT2":1058.1,"yT2":0,"toosoon":0,"cond_shown":"equaldotanddens","ratio_trial":900,"smaller_num":"18","larger_num":"20","correct_side":1,"subjID":"juanmanuelcruz34","gender":"0","age":"11","school":"6"},{"start_time":1551893320140,"click_time":1551893321239,"finger_time":1551893320739,"fix_duration":1398.5964790788046,"trial":31,"RT":599,"MT":500,"sideResp":1,"stimulus":"img/250/equaldotanddens/L/2_Ratio_250_L_16_R_4.png","xmouse":[780,780,780,780,780,780,780,780,780,780,780,780,780,780,780,780,780,780,780,780,780,780,780,780,780,780,780,780,780,780,767,753,725,666,526,383,357,356,356,356,356,356,356,363,369,380,387,397,400,403,408,412,414,417,422,439],"ymouse":[592,592,592,592,592,592,592,592,592,592,592,592,592,592,592,592,592,592,592,592,592,592,592,591,590,588,587,585,583,578,547,525,484,400,230,70,45,43,42,42,42,41,37,32,28,22,20,20,20,20,24,27,29,32,37,47],"timestamp_mouse":[1,29,39,59,78,99,120,138,160,180,198,220,239,259,278,300,319,339,359,378,398,420,439,460,480,499,519,539,559,580,599,619,639,660,679,700,720,739,758,778,800,820,839,860,879,900,919,939,960,978,998,1020,1039,1060,1078,1098],"xSR":741.5,"ySR":573.95,"xT1":424.9,"yT1":0,"xT2":1058.1,"yT2":0,"toosoon":0,"cond_shown":"equaldotanddens","ratio_trial":250,"smaller_num":"4","larger_num":"16","correct_side":1,"subjID":"juanmanuelcruz34","gender":"0","age":"11","school":"6"},{"start_time":1551893326481,"click_time":1551893327539,"finger_time":1551893327039,"fix_duration":1240.0197656192786,"trial":32,"RT":558,"MT":500,"sideResp":2,"stimulus":"img/500/equaldotsize/R/3_Ratio_500_L_10_R_20.png","xmouse":[759,759,759,759,759,759,759,759,759,759,759,759,759,759,759,759,759,759,759,759,759,759,759,761,765,774,786,807,817,836,873,931,1001,1011,1016,1019,1031,1037,1043,1047,1051,1057,1070,1075,1080,1087,1092,1103,1108,1112,1115,1116,1119],"ymouse":[614,614,614,614,614,614,614,614,614,614,614,614,614,614,614,614,614,614,614,614,614,614,614,614,613,602,584,533,514,493,468,433,376,363,350,342,321,311,299,286,275,262,238,226,216,198,185,159,145,134,120,109,99],"timestamp_mouse":[18,37,58,79,98,118,138,157,178,199,217,237,259,278,298,319,338,358,379,397,417,438,457,479,498,517,539,558,577,598,618,639,658,678,698,718,739,758,778,797,817,838,858,878,898,918,938,959,978,997,1018,1038,1058],"xSR":741.5,"ySR":573.95,"xT1":424.9,"yT1":0,"xT2":1058.1,"yT2":0,"toosoon":0,"cond_shown":"equaldotsize","ratio_trial":500,"smaller_num":"10","larger_num":"20","correct_side":2,"subjID":"juanmanuelcruz34","gender":"0","age":"11","school":"6"},{"start_time":1551893330491,"click_time":1551893331399,"finger_time":1551893330940,"fix_duration":250,"trial":33,"RT":449,"MT":459,"sideResp":2,"stimulus":"img/750/equaldotsize/R/15_Ratio_750_L_9_R_12.png","xmouse":[820,820,820,820,820,820,820,820,820,820,821,822,824,825,826,828,831,834,834,835,836,837,842,847,856,867,890,949,982,1012,1038,1061,1083,1095,1109,1125,1129,1138,1139,1139,1139,1139,1138,1136,1133,1130],"ymouse":[647,647,647,647,647,647,647,647,647,647,646,646,647,647,649,649,649,649,649,649,649,649,646,636,621,599,544,431,375,327,281,253,220,205,190,163,154,124,117,112,109,108,104,102,100,99],"timestamp_mouse":[10,34,48,68,88,109,128,147,168,188,207,228,248,267,288,308,328,347,369,387,409,429,449,469,488,508,529,548,568,588,607,628,648,669,689,708,729,748,768,788,808,828,848,869,887,908],"xSR":741.5,"ySR":573.95,"xT1":424.9,"yT1":0,"xT2":1058.1,"yT2":0,"toosoon":0,"cond_shown":"equaldotsize","ratio_trial":750,"smaller_num":"9","larger_num":"12","correct_side":2,"subjID":"juanmanuelcruz34","gender":"0","age":"11","school":"6"},{"start_time":1551893337052,"click_time":1551893337719,"finger_time":1551893337499,"fix_duration":1331.003174082605,"trial":34,"RT":447,"MT":220,"sideResp":2,"stimulus":"img/250/equaldotanddens/R/9_Ratio_250_L_3_R_12.png","xmouse":[794,794,795,795,795,795,795,795,795,795,795,795,795,795,796,796,796,796,796,799,803,806,812,819,839,853,869,891,927,981,1013,1043,1068,1091],"ymouse":[625,625,626,626,626,626,626,626,626,626,626,626,626,620,616,612,609,608,607,597,590,579,569,557,523,500,473,431,368,265,209,154,100,62],"timestamp_mouse":[11,32,47,66,87,107,128,148,167,186,206,228,246,267,287,308,327,347,368,386,407,426,447,467,487,507,527,547,568,587,606,627,646,667],"xSR":741.5,"ySR":573.95,"xT1":424.9,"yT1":0,"xT2":1058.1,"yT2":0,"toosoon":0,"cond_shown":"equaldotanddens","ratio_trial":250,"smaller_num":"3","larger_num":"12","correct_side":2,"subjID":"juanmanuelcruz34","gender":"0","age":"11","school":"6"},{"start_time":1551893339769,"click_time":1551893341339,"finger_time":1551893340440,"fix_duration":1088.4286764011438,"trial":35,"RT":671,"MT":899,"sideResp":1,"stimulus":"img/500/randomdotsizeEA/L/10_Ratio_500_L_4_R_2.png","xmouse":[806,806,806,806,806,806,806,806,806,806,806,806,806,806,806,806,806,806,806,806,806,806,806,806,806,806,807,807,808,808,808,809,809,809,809,809,809,808,806,803,800,795,786,765,751,733,708,681,613,585,568,561,560,559,559,559,557,556,554,551,547,537,530,518,515,513,509,505,498,497,496,496,496,496,496,496,496,494,493],"ymouse":[600,600,600,600,600,600,600,600,600,600,600,600,600,600,600,600,600,600,600,600,600,600,600,600,600,600,599,597,593,590,588,581,575,563,556,553,551,549,544,540,537,530,516,490,473,451,423,393,308,276,252,235,225,211,207,202,198,193,185,181,175,165,157,145,140,135,128,121,112,109,106,105,105,105,105,105,104,101,96],"timestamp_mouse":[11,34,50,71,89,111,131,150,171,191,211,230,250,269,291,310,329,351,370,389,411,430,450,469,491,510,530,551,570,590,611,630,650,671,689,710,731,751,770,790,810,830,851,871,890,910,931,951,970,990,1009,1030,1051,1070,1091,1110,1130,1150,1170,1190,1210,1230,1250,1270,1291,1309,1330,1351,1370,1390,1410,1429,1450,1470,1490,1510,1530,1550,1570],"xSR":741.5,"ySR":573.95,"xT1":424.9,"yT1":0,"xT2":1058.1,"yT2":0,"toosoon":0,"cond_shown":"randomdotsizeEA","ratio_trial":500,"smaller_num":"2","larger_num":"4","correct_side":1,"subjID":"juanmanuelcruz34","gender":"0","age":"11","school":"6"},{"start_time":1551893343638,"click_time":1551893344719,"finger_time":1551893344259,"fix_duration":1376.9977739455423,"trial":36,"RT":621,"MT":460,"sideResp":1,"stimulus":"img/750/equaldotanddens/L/10_Ratio_750_L_4_R_3.png","xmouse":[783,783,783,783,783,783,783,783,783,783,783,783,783,783,783,783,783,783,783,783,783,784,785,785,786,786,787,787,789,792,795,795,796,796,796,756,718,673,638,626,613,606,597,581,564,548,548,547,547,545,538,533,527,515,506],"ymouse":[644,644,644,644,644,644,644,644,644,644,644,644,644,644,644,644,644,644,644,644,644,644,643,643,641,638,635,630,617,607,586,571,550,525,492,398,355,330,309,300,292,287,281,271,264,254,253,251,247,239,221,207,189,154,96],"timestamp_mouse":[8,30,42,60,81,101,121,140,161,181,201,220,241,262,281,301,321,341,360,381,401,421,441,460,482,501,521,542,561,581,600,621,641,660,682,701,721,741,760,781,801,821,842,860,881,901,921,941,962,981,1001,1021,1041,1061,1081],"xSR":741.5,"ySR":573.95,"xT1":424.9,"yT1":0,"xT2":1058.1,"yT2":0,"toosoon":0,"cond_shown":"equaldotanddens","ratio_trial":750,"smaller_num":"3","larger_num":"4","correct_side":1,"subjID":"juanmanuelcruz34","gender":"0","age":"11","school":"6"},{"start_time":1551893346669,"click_time":1551893348099,"finger_time":1551893347340,"fix_duration":669.9364412944975,"trial":37,"RT":671,"MT":759,"sideResp":2,"stimulus":"img/750/randomdotsizeEA/L/10_Ratio_750_L_4_R_3.png","xmouse":[806,806,806,806,806,806,806,806,806,806,806,806,806,806,806,806,806,806,806,806,806,806,806,806,806,806,806,805,804,801,798,793,787,765,753,743,733,715,696,682,671,663,657,652,651,648,644,639,619,610,604,601,601,601,600,600,627,643,764,793,823,853,897,1037,1064,1069,1069,1069,1070,1070,1074,1087],"ymouse":[633,633,633,633,633,633,633,633,633,633,633,633,633,633,633,633,633,633,633,633,633,633,633,633,633,633,633,633,629,624,615,603,589,555,537,517,496,468,446,439,434,428,423,417,415,412,409,404,393,392,390,389,389,389,389,388,379,374,301,279,253,226,194,121,109,107,107,107,106,106,103,96],"timestamp_mouse":[10,33,51,71,90,110,131,150,170,191,211,231,251,270,291,310,330,350,370,391,411,429,450,471,490,509,531,550,570,590,611,630,650,671,690,710,731,749,769,790,810,830,851,870,889,910,930,951,970,990,1011,1030,1050,1070,1089,1111,1130,1150,1171,1190,1209,1230,1250,1270,1290,1311,1329,1350,1370,1390,1411,1430],"xSR":741.5,"ySR":573.95,"xT1":424.9,"yT1":0,"xT2":1058.1,"yT2":0,"toosoon":0,"cond_shown":"randomdotsizeEA","ratio_trial":750,"smaller_num":"3","larger_num":"4","correct_side":1,"subjID":"juanmanuelcruz34","gender":"0","age":"11","school":"6"},{"start_time":1551893363481,"click_time":1551893364760,"finger_time":1551893364241,"fix_duration":1040.0253850097247,"trial":38,"RT":760,"MT":519,"sideResp":2,"stimulus":"img/250/equaldotsize/R/9_Ratio_250_L_3_R_12.png","xmouse":[803,803,803,803,803,803,803,803,803,803,803,803,803,803,803,803,804,804,805,806,807,807,807,807,807,807,807,807,807,807,807,807,807,807,811,813,826,863,892,918,941,955,974,982,992,1000,1007,1019,1019,1019,1019,1019,1024,1027,1032,1038,1043,1056,1065,1074,1083,1090,1099,1101],"ymouse":[601,601,601,601,601,601,601,601,601,601,601,601,601,601,601,601,600,600,600,600,600,600,600,600,600,600,600,600,600,600,600,600,600,600,597,595,588,564,544,522,501,478,437,420,397,380,355,280,242,215,199,190,179,176,167,159,152,135,128,121,115,109,100,97],"timestamp_mouse":[29,39,59,78,100,120,138,158,178,199,219,239,258,278,300,318,338,359,379,399,418,438,460,479,499,518,538,559,579,599,620,639,660,678,698,718,740,760,779,798,819,838,859,878,898,918,939,959,979,998,1019,1040,1059,1079,1099,1119,1139,1159,1178,1198,1220,1240,1258,1279],"xSR":741.5,"ySR":573.95,"xT1":424.9,"yT1":0,"xT2":1058.1,"yT2":0,"toosoon":0,"cond_shown":"equaldotsize","ratio_trial":250,"smaller_num":"3","larger_num":"12","correct_side":2,"subjID":"juanmanuelcruz34","gender":"0","age":"11","school":"6"},{"start_time":1551893366874,"click_time":1551893367960,"finger_time":1551893367359,"fix_duration":793.4536577972164,"trial":39,"RT":485,"MT":601,"sideResp":2,"stimulus":"img/750/randomdotsizeEA/L/9_Ratio_750_L_4_R_3.png","xmouse":[824,824,824,824,824,824,824,824,824,824,824,824,824,824,824,824,824,824,824,824,824,824,824,826,839,863,892,918,936,942,956,973,988,1013,1019,1025,1029,1033,1039,1040,1041,1041,1042,1042,1042,1042,1042,1043,1050,1055,1062,1068,1073,1082,1087],"ymouse":[590,590,590,590,590,590,590,590,590,590,590,590,590,590,590,590,590,590,590,590,590,590,590,590,567,529,488,436,394,377,356,327,306,271,262,254,247,240,230,227,223,222,221,221,221,220,217,216,198,181,157,136,122,105,99],"timestamp_mouse":[16,25,46,67,85,105,125,147,165,185,206,226,245,266,286,306,326,346,365,386,406,426,445,466,485,507,525,547,566,586,606,627,647,666,686,705,727,746,765,786,805,825,846,866,886,906,925,946,965,986,1006,1026,1046,1066,1086],"xSR":741.5,"ySR":573.95,"xT1":424.9,"yT1":0,"xT2":1058.1,"yT2":0,"toosoon":0,"cond_shown":"randomdotsizeEA","ratio_trial":750,"smaller_num":"3","larger_num":"4","correct_side":1,"subjID":"juanmanuelcruz34","gender":"0","age":"11","school":"6"},{"start_time":1551893369758,"click_time":1551893372640,"finger_time":1551893370419,"fix_duration":1036.1885773661234,"trial":40,"RT":661,"MT":2221,"sideResp":1,"stimulus":"img/900/equaldotanddens/L/10_Ratio_900_L_20_R_18.png","xmouse":[759,759,759,759,759,759,759,759,760,760,760,760,762,762,764,765,765,765,765,765,765,765,765,765,765,765,766,768,776,790,793,794,794,792,789,788,788,788,788,788,788,788,788,788,788,788,785,780,771,723,685,636,636,636,636,636,636,636,636,636,636,636,636,636,636,636,636,636,636,636,636,636,636,636,636,636,636,636,636,636,636,636,636,636,636,636,636,636,636,636,636,636,636,636,636,636,636,636,636,636,636,636,636,636,636,636,636,636,636,636,636,636,622,603,602,595,581,558,510,408,384,376,372,370,365,365,365,365,365,365,366,377,393,411,413,413,413,413,413,413,413,413,413,413,426],"ymouse":[647,647,647,647,647,647,647,647,647,647,647,647,645,645,642,642,642,642,642,642,642,642,642,642,642,642,639,637,627,606,598,588,577,564,551,550,548,543,535,506,492,483,477,448,436,420,404,387,368,310,285,248,248,248,248,248,248,248,248,248,248,248,248,248,248,248,248,248,248,248,248,248,248,248,248,248,248,248,248,248,248,248,248,248,248,248,248,248,248,248,248,248,248,248,248,248,248,248,248,248,248,248,248,248,248,248,248,248,248,248,248,248,244,232,218,207,193,178,151,98,82,74,67,63,60,60,60,60,60,60,60,60,60,60,60,60,60,60,60,60,60,60,60,60,57],"timestamp_mouse":[8,21,42,62,82,101,123,141,161,183,203,222,242,262,281,302,322,341,361,382,402,421,443,461,481,502,522,542,561,581,601,622,643,661,681,702,722,743,761,782,801,822,842,863,881,901,922,942,962,982,1002,1021,1042,1063,1083,1101,1122,1141,1163,1183,1202,1221,1241,1262,1282,1303,1321,1341,1362,1382,1402,1421,1441,1461,1482,1502,1522,1542,1561,1581,1601,1622,1642,1661,1682,1701,1722,1741,1762,1782,1801,1821,1841,1862,1882,1902,1921,1942,1961,1981,2002,2021,2041,2061,2083,2101,2121,2141,2162,2181,2203,2221,2241,2261,2282,2301,2322,2342,2362,2382,2402,2422,2442,2463,2482,2501,2522,2542,2563,2581,2602,2622,2643,2662,2681,2701,2721,2743,2761,2782,2801,2821,2842,2861,2882],"xSR":741.5,"ySR":573.95,"xT1":424.9,"yT1":0,"xT2":1058.1,"yT2":0,"toosoon":0,"cond_shown":"equaldotanddens","ratio_trial":900,"smaller_num":"18","larger_num":"20","correct_side":1,"subjID":"juanmanuelcruz34","gender":"0","age":"11","school":"6"},{"start_time":1551893374400,"click_time":1551893375419,"finger_time":1551893375081,"fix_duration":819.701266715314,"trial":41,"RT":681,"MT":338,"sideResp":2,"stimulus":"img/750/equaldotsize/R/15_Ratio_750_L_9_R_12.png","xmouse":[791,791,791,791,791,791,791,791,791,791,791,791,791,791,791,791,791,791,791,791,791,791,791,791,791,791,791,791,791,791,795,798,809,815,823,829,842,899,934,962,979,993,1013,1021,1030,1037,1041,1045,1046,1050,1055,1059],"ymouse":[617,617,617,617,617,617,617,617,617,617,617,617,617,617,617,617,617,617,617,617,617,617,617,617,617,617,617,617,617,617,614,611,591,578,561,540,506,387,320,270,232,194,149,130,112,97,86,66,58,51,45,41],"timestamp_mouse":[1,21,40,59,81,100,120,139,160,179,200,221,240,260,280,300,319,340,361,380,400,421,440,460,481,500,520,539,559,579,600,619,641,660,681,701,719,739,760,779,799,820,841,860,880,899,920,940,960,980,999,1019],"xSR":741.5,"ySR":573.95,"xT1":424.9,"yT1":0,"xT2":1058.1,"yT2":0,"toosoon":0,"cond_shown":"equaldotsize","ratio_trial":750,"smaller_num":"9","larger_num":"12","correct_side":2,"subjID":"juanmanuelcruz34","gender":"0","age":"11","school":"6"},{"start_time":1551893380999,"click_time":1551893381959,"finger_time":1551893381619,"fix_duration":1437.120138599803,"trial":42,"RT":620,"MT":340,"sideResp":1,"stimulus":"img/900/equaldotsize/L/1_Ratio_900_L_10_R_9.png","xmouse":[799,799,799,799,799,799,799,799,799,799,799,799,799,799,799,799,799,799,799,799,799,799,799,799,799,799,799,799,799,788,751,674,527,479,458,449,444,436,430,419,416,408,395,395,395,395,395,410,438],"ymouse":[633,633,633,633,633,633,633,633,633,633,633,633,633,633,633,633,633,633,633,633,633,633,633,633,633,633,633,633,630,616,575,478,313,255,220,196,175,144,131,113,111,101,90,90,90,90,90,90,90],"timestamp_mouse":[8,20,40,61,81,100,120,140,162,180,200,220,242,262,281,300,321,341,362,381,401,420,440,460,482,500,520,541,562,582,600,620,641,661,680,701,720,741,761,781,801,822,841,860,880,901,920,940,960],"xSR":741.5,"ySR":573.95,"xT1":424.9,"yT1":0,"xT2":1058.1,"yT2":0,"toosoon":0,"cond_shown":"equaldotsize","ratio_trial":900,"smaller_num":"9","larger_num":"10","correct_side":1,"subjID":"juanmanuelcruz34","gender":"0","age":"11","school":"6"},{"start_time":1551893383890,"click_time":1551893385239,"finger_time":1551893384521,"fix_duration":808.4312440743546,"trial":43,"RT":631,"MT":718,"sideResp":1,"stimulus":"img/900/randomdotsizeEA/L/4_Ratio_900_L_20_R_18.png","xmouse":[776,776,776,776,776,776,776,776,776,776,776,776,776,776,776,776,775,775,775,775,775,775,775,775,775,775,775,775,775,775,779,783,786,786,786,787,789,797,801,803,804,804,790,777,764,756,746,714,685,635,575,526,469,455,444,442,439,434,432,431,431,431,431,431,435,436,440,444],"ymouse":[623,623,623,623,623,623,623,623,623,623,623,623,623,623,623,623,623,623,623,623,623,623,623,623,623,621,620,617,612,602,586,571,557,556,556,555,544,516,502,491,481,471,441,423,403,385,353,296,259,224,193,171,144,139,136,135,133,126,122,119,117,116,115,112,107,105,101,98],"timestamp_mouse":[9,30,50,69,91,111,129,149,169,190,210,230,249,271,289,309,331,351,370,390,409,431,449,469,490,509,530,551,570,590,610,631,650,670,691,711,731,749,770,789,810,831,850,870,890,911,930,950,970,990,1009,1031,1050,1070,1090,1109,1130,1149,1170,1190,1210,1229,1250,1271,1290,1309,1331,1349],"xSR":741.5,"ySR":573.95,"xT1":424.9,"yT1":0,"xT2":1058.1,"yT2":0,"toosoon":0,"cond_shown":"randomdotsizeEA","ratio_trial":900,"smaller_num":"18","larger_num":"20","correct_side":1,"subjID":"juanmanuelcruz34","gender":"0","age":"11","school":"6"},{"start_time":1551893386791,"click_time":1551893387581,"finger_time":1551893387401,"fix_duration":250,"trial":44,"RT":610,"MT":180,"sideResp":1,"stimulus":"img/250/equaldotsize/L/1_Ratio_250_L_8_R_2.png","xmouse":[817,817,817,817,817,817,817,817,817,817,817,817,817,817,817,817,817,817,817,817,817,817,817,817,817,817,817,814,805,791,769,703,593,545,511,490,482,481,482,484],"ymouse":[642,642,642,642,642,642,642,642,642,642,642,642,642,642,642,642,642,642,642,642,642,642,642,642,642,642,642,636,614,585,545,462,323,258,201,157,131,106,100,95],"timestamp_mouse":[18,33,49,69,88,108,128,150,168,188,210,228,248,270,289,308,328,348,368,388,410,429,448,469,490,508,528,549,568,588,610,629,649,669,689,709,728,748,768,790],"xSR":741.5,"ySR":573.95,"xT1":424.9,"yT1":0,"xT2":1058.1,"yT2":0,"toosoon":0,"cond_shown":"equaldotsize","ratio_trial":250,"smaller_num":"2","larger_num":"8","correct_side":1,"subjID":"juanmanuelcruz34","gender":"0","age":"11","school":"6"},{"start_time":1551893389192,"click_time":1551893390179,"finger_time":1551893389839,"fix_duration":250,"trial":45,"RT":647,"MT":340,"sideResp":1,"stimulus":"img/500/equaldotsize/L/10_Ratio_500_L_4_R_2.png","xmouse":[780,780,780,780,780,780,780,780,780,780,780,780,780,780,780,780,780,780,780,780,780,780,780,780,780,780,780,780,780,780,780,779,766,763,758,746,723,592,505,439,399,397,401,404,408,413,419,438,451,463],"ymouse":[620,620,620,620,620,620,620,620,620,620,620,620,620,620,620,620,620,620,620,620,620,620,620,620,620,620,620,620,620,616,606,595,556,542,524,497,455,323,259,212,178,170,156,151,144,136,127,108,100,93],"timestamp_mouse":[8,32,48,68,87,107,127,147,168,187,208,228,249,268,289,308,327,348,369,388,407,427,449,467,487,508,528,549,568,587,607,629,647,667,687,708,728,748,767,788,808,829,848,868,888,908,928,948,968,987],"xSR":741.5,"ySR":573.95,"xT1":424.9,"yT1":0,"xT2":1058.1,"yT2":0,"toosoon":0,"cond_shown":"equaldotsize","ratio_trial":500,"smaller_num":"2","larger_num":"4","correct_side":1,"subjID":"juanmanuelcruz34","gender":"0","age":"11","school":"6"},{"start_time":1551893391328,"click_time":1551893392199,"finger_time":1551893391940,"fix_duration":267.8404114775135,"trial":46,"RT":612,"MT":259,"sideResp":1,"stimulus":"img/500/equaldotsize/L/5_Ratio_500_L_4_R_2.png","xmouse":[761,761,761,761,761,761,761,761,761,761,761,761,761,761,761,761,761,761,761,761,761,761,761,761,761,761,762,761,759,756,740,726,707,694,662,605,568,526,490,470,463,463,463,464],"ymouse":[641,641,641,641,641,641,641,641,641,641,641,641,641,641,641,641,641,641,641,641,641,641,641,641,641,641,639,630,621,606,561,528,490,455,395,304,251,201,160,134,115,110,102,94],"timestamp_mouse":[13,39,52,73,91,111,132,153,172,193,212,232,252,271,293,311,332,353,371,391,412,432,452,471,491,513,532,552,571,591,612,633,652,672,692,711,731,751,773,792,812,832,852,871],"xSR":741.5,"ySR":573.95,"xT1":424.9,"yT1":0,"xT2":1058.1,"yT2":0,"toosoon":0,"cond_shown":"equaldotsize","ratio_trial":500,"smaller_num":"2","larger_num":"4","correct_side":1,"subjID":"juanmanuelcruz34","gender":"0","age":"11","school":"6"},{"start_time":1551893394778,"click_time":1551893395840,"finger_time":1551893395460,"fix_duration":758.5794371701775,"trial":47,"RT":682,"MT":380,"sideResp":2,"stimulus":"img/900/equaldotsize/R/6_Ratio_900_L_9_R_10.png","xmouse":[761,761,761,761,761,761,761,761,761,761,761,761,761,761,761,761,761,761,761,761,761,761,761,761,761,761,761,761,761,761,761,761,761,764,771,775,779,784,796,806,826,832,853,880,894,913,934,956,996,1010,1023,1041,1049,1068],"ymouse":[600,600,600,600,600,600,600,600,600,600,600,600,600,600,600,600,600,600,600,600,600,600,600,600,600,600,600,600,600,600,600,600,600,588,568,548,530,509,473,454,427,417,388,341,315,287,253,217,151,125,101,77,66,48],"timestamp_mouse":[8,21,42,61,82,101,121,142,161,182,201,221,241,261,281,302,323,342,362,382,402,422,442,461,481,503,521,541,561,581,602,621,641,662,682,701,723,742,762,781,801,821,842,862,882,901,922,942,962,982,1002,1022,1042,1062],"xSR":741.5,"ySR":573.95,"xT1":424.9,"yT1":0,"xT2":1058.1,"yT2":0,"toosoon":0,"cond_shown":"equaldotsize","ratio_trial":900,"smaller_num":"9","larger_num":"10","correct_side":2,"subjID":"juanmanuelcruz34","gender":"0","age":"11","school":"6"},{"start_time":1551893407517,"click_time":1551893408720,"finger_time":1551893408179,"fix_duration":977.2289970970174,"trial":48,"RT":662,"MT":541,"sideResp":2,"stimulus":"img/900/equaldotsize/R/7_Ratio_900_L_9_R_10.png","xmouse":[786,786,786,786,786,786,786,786,786,786,786,786,786,786,786,786,786,786,786,786,786,786,786,786,786,786,786,786,786,786,790,800,804,811,818,824,838,844,853,862,873,904,922,934,939,942,950,958,964,970,972,991,1012,1034,1057,1095,1128,1132,1133,1133,1133],"ymouse":[639,639,639,639,639,639,639,639,639,639,639,639,639,639,639,639,639,639,639,639,639,639,639,639,639,639,639,639,639,639,624,599,580,558,535,513,466,448,430,408,385,334,309,288,274,261,243,233,226,219,215,202,194,185,175,155,126,116,107,102,97],"timestamp_mouse":[10,34,42,62,83,103,123,142,163,182,202,224,243,264,283,302,322,343,362,382,403,422,442,463,483,502,522,543,562,582,603,623,643,662,683,702,722,743,763,783,803,823,843,863,882,904,923,943,963,984,1003,1022,1043,1062,1083,1102,1122,1142,1163,1182,1203],"xSR":741.5,"ySR":573.95,"xT1":424.9,"yT1":0,"xT2":1058.1,"yT2":0,"toosoon":0,"cond_shown":"equaldotsize","ratio_trial":900,"smaller_num":"9","larger_num":"10","correct_side":2,"subjID":"juanmanuelcruz34","gender":"0","age":"11","school":"6"},{"start_time":1551893410311,"click_time":1551893411220,"finger_time":1551893410879,"fix_duration":250,"trial":49,"RT":568,"MT":341,"sideResp":2,"stimulus":"img/500/equaldotanddens/R/12_Ratio_500_L_1_R_2.png","xmouse":[797,797,797,797,797,797,797,797,797,797,797,797,797,797,797,797,797,797,797,797,797,797,797,797,797,797,797,797,797,796,794,797,806,821,850,871,913,933,953,972,992,1037,1058,1096,1119,1136],"ymouse":[591,591,591,591,591,591,591,591,591,591,591,591,591,591,591,591,591,591,591,591,591,591,591,591,591,591,585,579,568,553,534,495,477,460,441,429,391,367,341,315,285,219,188,137,102,71],"timestamp_mouse":[21,43,49,70,88,110,130,148,168,189,210,229,249,269,288,308,330,348,368,388,408,428,448,469,488,508,529,549,568,589,609,628,648,670,690,709,729,749,769,789,808,828,849,869,889,909],"xSR":741.5,"ySR":573.95,"xT1":424.9,"yT1":0,"xT2":1058.1,"yT2":0,"toosoon":0,"cond_shown":"equaldotanddens","ratio_trial":500,"smaller_num":"1","larger_num":"2","correct_side":2,"subjID":"juanmanuelcruz34","gender":"0","age":"11","school":"6"},{"start_time":1551893412910,"click_time":1551893413859,"finger_time":1551893413640,"fix_duration":668.1300032336579,"trial":50,"RT":730,"MT":219,"sideResp":2,"stimulus":"img/750/randomdotsizeEA/L/9_Ratio_750_L_4_R_3.png","xmouse":[822,822,822,822,822,822,822,822,822,822,822,822,822,822,822,822,822,822,822,822,822,822,822,822,822,822,822,822,822,822,821,820,819,819,817,815,801,794,792,793,804,873,922,964,1022,1057,1100,1112],"ymouse":[615,615,615,615,615,615,615,615,615,615,615,615,615,615,615,615,615,615,615,615,615,615,615,615,615,615,615,615,615,615,614,613,611,609,603,595,566,552,536,521,502,441,393,338,248,187,104,82],"timestamp_mouse":[10,30,50,69,89,109,130,150,169,189,210,231,250,270,289,310,330,349,369,390,410,429,450,469,491,510,529,550,569,590,610,630,649,671,691,710,730,750,770,790,811,830,849,870,889,911,929,949],"xSR":741.5,"ySR":573.95,"xT1":424.9,"yT1":0,"xT2":1058.1,"yT2":0,"toosoon":0,"cond_shown":"randomdotsizeEA","ratio_trial":750,"smaller_num":"3","larger_num":"4","correct_side":1,"subjID":"juanmanuelcruz34","gender":"0","age":"11","school":"6"},{"start_time":1551893416067,"click_time":1551893416739,"finger_time":1551893416599,"fix_duration":1126.575650840951,"trial":51,"RT":532,"MT":140,"sideResp":2,"stimulus":"img/500/equaldotanddens/R/15_Ratio_500_L_1_R_2.png","xmouse":[793,793,793,793,793,793,793,793,793,793,793,793,793,793,793,793,793,793,793,793,793,793,793,795,798,802,810,827,869,903,951,1006,1053,1112],"ymouse":[598,598,598,598,598,598,598,598,598,598,598,598,598,598,598,598,598,598,598,598,598,598,598,595,589,581,567,538,464,410,342,266,193,70],"timestamp_mouse":[12,37,52,73,94,114,133,152,174,192,213,233,254,273,293,312,332,353,372,394,413,432,454,472,494,513,532,553,573,594,614,633,654,672],"xSR":741.5,"ySR":573.95,"xT1":424.9,"yT1":0,"xT2":1058.1,"yT2":0,"toosoon":0,"cond_shown":"equaldotanddens","ratio_trial":500,"smaller_num":"1","larger_num":"2","correct_side":2,"subjID":"juanmanuelcruz34","gender":"0","age":"11","school":"6"},{"start_time":1551893418458,"click_time":1551893419160,"finger_time":1551893419020,"fix_duration":776.7130519257998,"trial":52,"RT":562,"MT":140,"sideResp":2,"stimulus":"img/750/randomdotsizeEA/R/11_Ratio_750_L_12_R_16.png","xmouse":[771,771,771,771,771,771,771,771,771,771,771,771,771,771,771,771,771,771,771,771,771,771,771,771,771,771,771,776,786,834,885,943,997,1041,1083,1096],"ymouse":[632,632,632,632,632,632,632,632,632,632,632,632,632,632,632,632,632,632,632,632,632,632,632,631,625,620,610,589,566,468,380,286,207,149,105,94],"timestamp_mouse":[10,31,41,61,81,101,123,142,162,181,201,221,241,262,282,302,321,343,361,381,403,422,443,462,482,501,521,543,562,582,601,621,642,663,681,702],"xSR":741.5,"ySR":573.95,"xT1":424.9,"yT1":0,"xT2":1058.1,"yT2":0,"toosoon":0,"cond_shown":"randomdotsizeEA","ratio_trial":750,"smaller_num":"12","larger_num":"16","correct_side":2,"subjID":"juanmanuelcruz34","gender":"0","age":"11","school":"6"},{"start_time":1551893427825,"click_time":1551893428540,"finger_time":1551893428401,"fix_duration":1163.4286851521833,"trial":53,"RT":576,"MT":139,"sideResp":2,"stimulus":"img/500/equaldotsize/R/14_Ratio_500_L_5_R_10.png","xmouse":[787,787,787,787,787,787,787,787,787,787,787,787,787,787,787,787,787,787,787,787,787,787,787,786,786,786,786,787,791,799,861,916,974,1034,1088,1132],"ymouse":[616,616,616,616,616,616,616,616,616,616,616,616,616,616,616,616,616,616,616,616,616,616,616,616,614,603,594,580,565,544,444,365,276,182,103,22],"timestamp_mouse":[16,35,55,75,94,116,136,156,174,196,216,236,255,275,295,316,335,356,375,396,414,435,455,475,495,514,534,555,576,594,615,634,655,675,695,715],"xSR":741.5,"ySR":573.95,"xT1":424.9,"yT1":0,"xT2":1058.1,"yT2":0,"toosoon":0,"cond_shown":"equaldotsize","ratio_trial":500,"smaller_num":"5","larger_num":"10","correct_side":2,"subjID":"juanmanuelcruz34","gender":"0","age":"11","school":"6"},{"start_time":1551893429772,"click_time":1551893430601,"finger_time":1551893430340,"fix_duration":250,"trial":54,"RT":568,"MT":261,"sideResp":2,"stimulus":"img/750/equaldotanddens/R/11_Ratio_750_L_12_R_16.png","xmouse":[796,796,796,796,796,796,796,796,796,796,796,796,796,796,796,796,796,796,796,796,796,796,796,796,797,798,805,817,852,863,874,892,906,953,978,997,1008,1016,1034,1046,1055,1060],"ymouse":[639,639,639,639,639,639,639,639,639,639,639,639,639,639,639,639,639,639,639,639,639,639,639,639,636,632,620,601,532,496,457,394,345,249,206,170,143,121,83,66,54,44],"timestamp_mouse":[8,33,47,67,88,109,129,148,168,188,208,228,248,269,289,308,327,349,369,387,409,428,447,469,488,507,528,547,568,589,607,629,649,668,688,708,728,749,768,789,808,829],"xSR":741.5,"ySR":573.95,"xT1":424.9,"yT1":0,"xT2":1058.1,"yT2":0,"toosoon":0,"cond_shown":"equaldotanddens","ratio_trial":750,"smaller_num":"12","larger_num":"16","correct_side":2,"subjID":"juanmanuelcruz34","gender":"0","age":"11","school":"6"},{"start_time":1551893431781,"click_time":1551893432379,"finger_time":1551893432240,"fix_duration":480.75942542993056,"trial":55,"RT":459,"MT":139,"sideResp":2,"stimulus":"img/750/equaldotanddens/R/3_Ratio_750_L_15_R_20.png","xmouse":[778,778,778,778,778,778,778,778,778,778,778,778,778,778,778,778,778,778,778,778,779,784,818,845,870,898,930,1038,1095,1141],"ymouse":[608,608,608,608,608,608,608,608,608,608,608,608,608,608,608,608,608,608,608,608,606,600,559,516,473,421,362,205,131,70],"timestamp_mouse":[28,40,59,79,98,119,140,159,180,199,220,240,259,279,300,318,339,359,378,399,419,439,459,478,498,520,539,559,579,598],"xSR":741.5,"ySR":573.95,"xT1":424.9,"yT1":0,"xT2":1058.1,"yT2":0,"toosoon":0,"cond_shown":"equaldotanddens","ratio_trial":750,"smaller_num":"15","larger_num":"20","correct_side":2,"subjID":"juanmanuelcruz34","gender":"0","age":"11","school":"6"},{"start_time":1551893434390,"click_time":1551893435500,"finger_time":1551893435121,"fix_duration":1408.118900357183,"trial":56,"RT":731,"MT":379,"sideResp":1,"stimulus":"img/900/equaldotsize/L/10_Ratio_900_L_20_R_18.png","xmouse":[790,790,790,790,790,790,790,790,790,790,790,790,790,790,790,790,790,790,790,790,790,790,790,790,790,790,790,790,791,792,793,795,797,797,797,796,790,775,765,753,737,703,642,609,581,557,541,534,534,534,533,533,533,531,526,522],"ymouse":[664,664,664,664,664,664,664,664,664,664,663,663,663,663,663,663,663,663,663,663,663,663,663,663,661,661,659,656,653,649,643,634,617,609,599,587,571,535,513,488,450,365,228,150,85,24,0,0,0,0,0,0,0,0,4,11],"timestamp_mouse":[16,36,50,71,90,109,130,150,169,191,211,230,249,270,290,311,330,349,370,390,410,429,449,471,490,509,531,551,570,590,610,629,650,670,689,710,731,750,770,791,809,830,850,870,890,910,930,950,970,989,1010,1029,1050,1070,1090,1110],"xSR":741.5,"ySR":573.95,"xT1":424.9,"yT1":0,"xT2":1058.1,"yT2":0,"toosoon":0,"cond_shown":"equaldotsize","ratio_trial":900,"smaller_num":"18","larger_num":"20","correct_side":1,"subjID":"juanmanuelcruz34","gender":"0","age":"11","school":"6"},{"start_time":1551893437794,"click_time":1551893438980,"finger_time":1551893438341,"fix_duration":1213.319318354475,"trial":57,"RT":547,"MT":639,"sideResp":2,"stimulus":"img/250/randomdotsizeEA/R/12_Ratio_250_L_5_R_20.png","xmouse":[782,782,782,782,782,782,782,782,782,782,782,782,782,782,782,782,782,782,782,782,782,782,783,783,783,783,781,777,775,771,771,771,772,773,774,774,775,776,776,778,779,783,794,804,812,831,856,942,986,1021,1045,1063,1080,1086,1094,1102,1110,1115,1116,1116],"ymouse":[604,604,604,604,604,604,604,604,604,604,604,604,604,604,604,604,604,604,604,604,604,604,602,600,597,592,586,569,558,541,533,526,515,510,505,501,497,493,493,490,486,480,468,458,448,432,415,361,330,303,275,244,208,191,174,156,137,110,104,97],"timestamp_mouse":[10,32,46,65,86,107,126,147,166,185,206,227,246,266,285,306,326,345,367,387,406,426,447,466,487,505,527,547,565,586,606,627,645,667,685,706,727,745,767,787,806,827,846,865,885,907,927,946,967,987,1006,1026,1045,1066,1085,1106,1126,1146,1166,1186],"xSR":741.5,"ySR":573.95,"xT1":424.9,"yT1":0,"xT2":1058.1,"yT2":0,"toosoon":0,"cond_shown":"randomdotsizeEA","ratio_trial":250,"smaller_num":"5","larger_num":"20","correct_side":2,"subjID":"juanmanuelcruz34","gender":"0","age":"11","school":"6"},{"start_time":1551893440078,"click_time":1551893441240,"finger_time":1551893440840,"fix_duration":337.0465683586591,"trial":58,"RT":762,"MT":400,"sideResp":2,"stimulus":"img/500/equaldotsize/R/15_Ratio_500_L_1_R_2.png","xmouse":[833,833,833,833,833,833,833,833,833,833,833,833,833,833,833,833,833,833,833,833,833,833,833,833,833,833,833,833,833,833,833,833,833,833,833,833,834,840,879,925,972,1034,1097,1170,1179,1183,1187,1196,1211,1218,1222,1223,1223,1223,1219,1211,1197,1174,1147],"ymouse":[603,603,603,603,603,603,603,603,603,603,603,603,603,603,603,603,603,603,603,603,603,603,603,603,603,603,603,603,603,603,603,603,603,603,603,603,602,593,537,479,401,294,174,0,0,0,0,0,0,0,0,0,0,0,0,6,19,36,53],"timestamp_mouse":[14,22,42,61,83,102,122,143,163,181,201,223,242,261,282,301,323,342,363,381,402,422,442,463,483,503,521,542,561,582,601,623,642,661,683,701,723,742,762,782,802,822,843,862,881,902,922,942,962,982,1003,1022,1043,1061,1081,1101,1123,1143,1162],"xSR":741.5,"ySR":573.95,"xT1":424.9,"yT1":0,"xT2":1058.1,"yT2":0,"toosoon":0,"cond_shown":"equaldotsize","ratio_trial":500,"smaller_num":"1","larger_num":"2","correct_side":2,"subjID":"juanmanuelcruz34","gender":"0","age":"11","school":"6"},{"start_time":1551893442452,"click_time":1551893443340,"finger_time":1551893443119,"fix_duration":250,"trial":59,"RT":667,"MT":221,"sideResp":1,"stimulus":"img/750/equaldotsize/L/9_Ratio_750_L_4_R_3.png","xmouse":[800,800,800,800,800,800,800,800,800,800,800,800,800,800,800,800,800,800,800,800,800,800,800,800,800,800,800,800,800,799,798,796,795,790,770,748,712,629,584,518,505,502,502,502,497],"ymouse":[598,598,598,598,598,598,598,598,598,598,598,598,598,598,598,598,598,598,598,598,598,598,598,598,598,598,598,598,598,592,587,580,574,564,536,512,472,383,332,232,198,172,147,121,67],"timestamp_mouse":[10,36,48,68,88,109,128,149,169,187,208,229,247,268,288,308,328,348,368,387,409,427,447,469,488,508,529,547,567,588,607,627,648,667,688,708,729,748,768,788,809,828,848,869,888],"xSR":741.5,"ySR":573.95,"xT1":424.9,"yT1":0,"xT2":1058.1,"yT2":0,"toosoon":0,"cond_shown":"equaldotsize","ratio_trial":750,"smaller_num":"3","larger_num":"4","correct_side":1,"subjID":"juanmanuelcruz34","gender":"0","age":"11","school":"6"},{"start_time":1551893445772,"click_time":1551893446501,"finger_time":1551893446340,"fix_duration":250,"trial":60,"RT":568,"MT":161,"sideResp":2,"stimulus":"img/500/equaldotanddens/R/12_Ratio_500_L_1_R_2.png","xmouse":[766,766,766,766,766,766,766,766,766,766,766,766,766,766,766,766,766,766,767,767,767,768,768,770,774,782,794,814,846,856,876,909,987,1081,1104,1114,1119],"ymouse":[634,634,634,634,634,634,634,634,634,634,634,634,634,634,634,634,634,634,634,634,633,631,630,628,626,620,611,596,557,536,501,442,328,192,146,117,95],"timestamp_mouse":[15,34,49,69,87,108,128,149,169,187,209,229,248,268,288,308,328,348,368,387,408,428,449,467,487,507,529,549,568,588,607,628,649,668,687,708,729],"xSR":741.5,"ySR":573.95,"xT1":424.9,"yT1":0,"xT2":1058.1,"yT2":0,"toosoon":0,"cond_shown":"equaldotanddens","ratio_trial":500,"smaller_num":"1","larger_num":"2","correct_side":2,"subjID":"juanmanuelcruz34","gender":"0","age":"11","school":"6"},{"start_time":1551893450787,"click_time":1551893451999,"finger_time":1551893451259,"fix_duration":1106.0084548029165,"trial":61,"RT":472,"MT":740,"sideResp":2,"stimulus":"img/250/randomdotsizeEA/L/5_Ratio_250_L_24_R_6.png","xmouse":[779,778,777,777,776,774,773,767,765,764,763,763,763,763,763,763,762,759,756,753,749,747,746,746,747,752,753,754,754,755,756,757,763,769,780,796,824,937,983,1013,1030,1037,1047,1054,1059,1064,1069,1086,1092,1097,1100,1100,1092,1089,1088,1088,1088,1099,1110,1119,1124],"ymouse":[628,628,628,628,628,628,629,631,631,631,631,631,631,631,631,631,631,630,626,621,613,609,584,568,552,538,529,524,523,522,520,518,501,488,474,456,443,404,392,380,367,353,331,316,306,294,286,267,256,247,237,222,206,200,197,192,185,157,138,119,97],"timestamp_mouse":[12,34,53,74,94,113,133,153,173,193,212,234,252,272,294,313,334,353,373,394,413,432,452,472,493,513,533,553,574,592,614,634,653,673,693,712,733,754,773,792,812,833,854,873,892,913,934,953,974,994,1013,1034,1052,1074,1093,1113,1133,1153,1173,1193,1212],"xSR":741.5,"ySR":573.95,"xT1":424.9,"yT1":0,"xT2":1058.1,"yT2":0,"toosoon":0,"cond_shown":"randomdotsizeEA","ratio_trial":250,"smaller_num":"6","larger_num":"24","correct_side":1,"subjID":"juanmanuelcruz34","gender":"0","age":"11","school":"6"},{"start_time":1551893454207,"click_time":1551893455420,"finger_time":1551893454740,"fix_duration":986.5138173122716,"trial":62,"RT":533,"MT":680,"sideResp":2,"stimulus":"img/500/equaldotanddens/R/2_Ratio_500_L_3_R_6.png","xmouse":[793,793,793,793,793,793,793,793,793,793,793,793,793,793,792,792,791,791,791,791,791,791,791,790,788,783,767,759,754,753,769,797,808,817,831,851,888,908,961,1007,1041,1059,1057,1051,1048,1048,1063,1065,1068,1075,1084,1092,1092,1092,1093,1098,1114,1118,1118,1114,1108],"ymouse":[663,663,664,664,664,664,664,664,664,664,664,664,664,664,664,664,664,664,664,663,661,661,661,661,661,666,688,702,712,717,726,745,750,750,744,730,703,697,670,629,589,539,499,448,408,369,314,300,285,260,240,212,203,197,194,188,171,156,136,104,83],"timestamp_mouse":[12,32,54,73,94,113,132,152,174,193,213,233,253,273,293,313,333,352,372,393,412,434,453,474,493,513,533,554,572,592,613,633,652,672,693,712,733,753,773,794,813,832,852,873,893,912,932,954,973,993,1013,1033,1053,1072,1093,1112,1133,1153,1173,1193,1213],"xSR":741.5,"ySR":573.95,"xT1":424.9,"yT1":0,"xT2":1058.1,"yT2":0,"toosoon":0,"cond_shown":"equaldotanddens","ratio_trial":500,"smaller_num":"3","larger_num":"6","correct_side":2,"subjID":"juanmanuelcruz34","gender":"0","age":"11","school":"6"},{"start_time":1551893459555,"click_time":1551893460341,"finger_time":1551893460161,"fix_duration":1013.6627786505184,"trial":63,"RT":606,"MT":180,"sideResp":2,"stimulus":"img/750/randomdotsizeEA/R/7_Ratio_750_L_3_R_4.png","xmouse":[829,829,829,829,829,829,829,829,829,829,829,829,829,829,829,829,829,829,829,829,829,829,829,829,827,827,825,825,825,833,839,848,865,900,951,979,1003,1027,1051,1080],"ymouse":[662,662,662,662,662,662,662,662,662,662,662,662,662,662,662,662,662,662,662,662,662,662,659,656,646,639,628,618,609,582,561,536,495,411,292,225,169,115,72,13],"timestamp_mouse":[19,36,45,66,85,104,125,146,165,185,205,225,246,265,285,306,325,346,365,384,404,425,444,465,485,504,524,544,566,585,606,624,644,665,686,705,725,745,766,786],"xSR":741.5,"ySR":573.95,"xT1":424.9,"yT1":0,"xT2":1058.1,"yT2":0,"toosoon":0,"cond_shown":"randomdotsizeEA","ratio_trial":750,"smaller_num":"3","larger_num":"4","correct_side":2,"subjID":"juanmanuelcruz34","gender":"0","age":"11","school":"6"},{"start_time":1551893462895,"click_time":1551893464079,"finger_time":1551893463440,"fix_duration":1071.2855902701376,"trial":64,"RT":545,"MT":639,"sideResp":2,"stimulus":"img/900/randomdotsizeEA/R/6_Ratio_900_L_9_R_10.png","xmouse":[808,808,808,808,808,808,808,808,808,808,808,808,808,808,808,808,808,808,808,808,808,808,808,808,808,807,806,833,863,900,933,963,1010,1018,1023,1026,1029,1033,1034,1034,1034,1034,1025,999,958,915,871,879,891,899,907,917,938,948,962,968,993,1052,1097,1129],"ymouse":[577,577,577,577,577,577,577,577,577,577,577,577,577,577,577,577,577,577,577,577,577,577,577,577,577,577,577,507,452,378,303,225,78,50,35,27,23,18,16,16,16,16,32,77,151,249,379,436,442,442,439,429,393,374,339,327,268,157,106,70],"timestamp_mouse":[9,26,45,66,85,105,126,144,165,186,206,225,245,266,284,304,325,346,364,384,405,424,445,466,485,504,525,545,565,585,605,625,644,666,685,704,726,745,765,784,804,825,844,865,885,906,926,945,964,984,1005,1025,1045,1066,1085,1105,1125,1145,1166,1184],"xSR":741.5,"ySR":573.95,"xT1":424.9,"yT1":0,"xT2":1058.1,"yT2":0,"toosoon":0,"cond_shown":"randomdotsizeEA","ratio_trial":900,"smaller_num":"9","larger_num":"10","correct_side":2,"subjID":"juanmanuelcruz34","gender":"0","age":"11","school":"6"},{"start_time":1551893466177,"click_time":1551893467280,"finger_time":1551893466799,"fix_duration":1336.5443932277149,"trial":65,"RT":622,"MT":481,"sideResp":1,"stimulus":"img/250/equaldotanddens/L/1_Ratio_250_L_8_R_2.png","xmouse":[824,824,824,824,824,824,824,824,824,824,824,824,824,824,824,824,824,824,824,824,824,824,824,824,824,824,824,824,817,810,802,796,782,752,737,726,711,692,677,677,677,675,648,604,584,573,568,563,553,547,541,532,530,527,526,524],"ymouse":[632,632,632,632,632,632,632,632,632,632,632,632,632,632,632,632,632,632,632,632,632,632,632,632,632,632,632,628,615,603,587,563,501,375,293,209,119,49,0,0,0,0,0,0,0,0,0,0,3,4,7,13,15,21,24,29],"timestamp_mouse":[11,34,44,63,83,102,122,142,163,182,203,223,243,263,284,302,322,343,363,383,404,423,443,462,484,504,523,543,563,583,602,622,642,662,684,703,723,742,763,782,804,824,844,863,882,904,922,942,963,984,1004,1023,1043,1062,1083,1103],"xSR":741.5,"ySR":573.95,"xT1":424.9,"yT1":0,"xT2":1058.1,"yT2":0,"toosoon":0,"cond_shown":"equaldotanddens","ratio_trial":250,"smaller_num":"2","larger_num":"8","correct_side":1,"subjID":"juanmanuelcruz34","gender":"0","age":"11","school":"6"},{"start_time":1551893472798,"click_time":1551893473700,"finger_time":1551893473400,"fix_duration":1437.5102923994968,"trial":66,"RT":602,"MT":300,"sideResp":2,"stimulus":"img/500/randomdotsizeEA/R/14_Ratio_500_L_5_R_10.png","xmouse":[778,778,778,778,778,778,778,778,778,778,778,778,778,778,778,778,778,778,778,778,778,778,778,778,778,778,778,781,786,799,805,827,874,905,946,989,1031,1076,1092,1108,1126,1133,1135,1135,1135,1134],"ymouse":[631,631,631,631,631,631,631,631,631,631,631,631,631,631,631,631,631,631,631,631,631,631,631,631,631,631,631,630,618,583,564,483,353,278,198,114,30,0,0,0,0,0,0,0,0,2],"timestamp_mouse":[12,21,41,61,83,101,122,142,162,182,202,223,242,261,283,302,323,343,362,382,401,423,443,462,483,501,523,542,562,581,602,622,641,663,682,703,723,742,762,783,803,822,842,861,882,902],"xSR":741.5,"ySR":573.95,"xT1":424.9,"yT1":0,"xT2":1058.1,"yT2":0,"toosoon":0,"cond_shown":"randomdotsizeEA","ratio_trial":500,"smaller_num":"5","larger_num":"10","correct_side":2,"subjID":"juanmanuelcruz34","gender":"0","age":"11","school":"6"},{"start_time":1551893475405,"click_time":1551893476760,"finger_time":1551893475939,"fix_duration":883.378931310509,"trial":67,"RT":534,"MT":821,"sideResp":2,"stimulus":"img/750/equaldotsize/R/3_Ratio_750_L_15_R_20.png","xmouse":[810,810,810,810,810,810,810,810,810,810,810,810,810,810,810,810,810,810,810,810,810,811,813,815,819,826,853,870,889,911,925,962,991,1027,1070,1110,1185,1224,1263,1297,1319,1321,1321,1321,1320,1314,1291,1275,1258,1253,1251,1251,1251,1250,1250,1250,1248,1243,1235,1206,1186,1168,1168,1168,1168,1166,1159,1156],"ymouse":[648,648,648,648,648,648,648,648,648,648,648,648,648,648,648,648,648,648,648,648,647,643,639,635,628,616,579,553,518,466,434,372,331,281,219,149,0,0,0,0,0,0,0,4,11,20,46,57,65,67,68,68,68,66,62,59,55,55,55,54,54,54,54,54,54,54,54,55],"timestamp_mouse":[15,35,55,75,94,114,136,154,176,194,214,235,255,276,295,314,335,355,374,395,415,435,454,475,496,516,534,554,576,595,614,635,655,674,694,715,735,755,774,796,816,835,854,875,894,916,935,954,975,994,1014,1035,1055,1075,1096,1116,1134,1155,1176,1196,1214,1234,1254,1274,1294,1316,1335,1355],"xSR":741.5,"ySR":573.95,"xT1":424.9,"yT1":0,"xT2":1058.1,"yT2":0,"toosoon":0,"cond_shown":"equaldotsize","ratio_trial":750,"smaller_num":"15","larger_num":"20","correct_side":2,"subjID":"juanmanuelcruz34","gender":"0","age":"11","school":"6"},{"start_time":1551893478900,"click_time":1551893479980,"finger_time":1551893479381,"fix_duration":1238.0205436185488,"trial":68,"RT":481,"MT":599,"sideResp":2,"stimulus":"img/900/equaldotanddens/R/9_Ratio_900_L_18_R_20.png","xmouse":[774,774,774,774,775,776,777,779,779,779,779,779,779,779,779,779,779,779,779,779,780,781,789,800,804,813,827,859,882,911,943,962,991,1000,1009,1016,1023,1027,1028,1029,1031,1032,1033,1033,1036,1042,1044,1047,1047,1048,1051,1053,1057,1058,1060],"ymouse":[655,655,655,655,654,653,652,651,651,651,651,651,651,651,648,646,645,644,644,642,641,637,607,582,571,549,512,393,302,212,139,76,4,0,0,0,0,0,0,0,0,0,0,0,0,0,0,0,0,1,3,4,6,7,9],"timestamp_mouse":[10,21,40,60,81,101,119,139,160,180,200,220,241,260,280,300,320,339,360,381,400,420,440,460,481,499,519,539,560,580,600,619,641,659,679,700,721,741,760,779,800,819,840,859,879,899,919,940,959,980,1000,1021,1040,1061,1080],"xSR":741.5,"ySR":573.95,"xT1":424.9,"yT1":0,"xT2":1058.1,"yT2":0,"toosoon":0,"cond_shown":"equaldotanddens","ratio_trial":900,"smaller_num":"18","larger_num":"20","correct_side":2,"subjID":"juanmanuelcruz34","gender":"0","age":"11","school":"6"},{"start_time":1551893486772,"click_time":1551893487840,"finger_time":1551893487440,"fix_duration":510.8657014061353,"trial":69,"RT":668,"MT":400,"sideResp":2,"stimulus":"img/500/randomdotsizeEA/R/9_Ratio_500_L_2_R_4.png","xmouse":[802,802,802,802,802,802,802,802,802,802,802,802,802,802,802,802,802,802,802,802,802,802,802,802,802,802,802,803,804,805,805,806,811,836,852,869,883,898,925,935,945,965,975,988,995,1005,1021,1049,1092,1096,1096,1096,1097,1108],"ymouse":[594,594,594,594,594,594,594,594,594,594,594,594,594,594,594,594,594,594,594,594,594,594,594,594,594,594,593,593,592,590,589,588,582,556,527,482,431,379,286,246,215,170,145,96,75,58,37,11,0,0,0,0,0,5],"timestamp_mouse":[10,34,48,69,88,108,128,147,168,187,208,227,249,268,288,309,329,348,367,389,408,428,448,468,488,507,528,548,568,587,607,628,647,668,688,707,728,749,768,788,809,827,848,872,888,908,929,948,967,987,1008,1029,1048,1068],"xSR":741.5,"ySR":573.95,"xT1":424.9,"yT1":0,"xT2":1058.1,"yT2":0,"toosoon":0,"cond_shown":"randomdotsizeEA","ratio_trial":500,"smaller_num":"2","larger_num":"4","correct_side":2,"subjID":"juanmanuelcruz34","gender":"0","age":"11","school":"6"},{"start_time":1551893489396,"click_time":1551893490280,"finger_time":1551893490060,"fix_duration":274.4508981831709,"trial":70,"RT":664,"MT":220,"sideResp":1,"stimulus":"img/500/equaldotanddens/L/4_Ratio_500_L_18_R_9.png","xmouse":[832,832,832,832,832,832,832,832,832,832,832,832,832,832,832,832,832,832,832,832,832,832,832,832,832,832,832,831,820,815,811,809,808,806,800,784,738,584,513,488,485,485,485,479,469],"ymouse":[622,622,622,622,622,622,622,622,622,622,622,622,622,622,622,622,622,622,622,622,622,622,622,622,622,622,622,622,612,604,599,596,585,572,555,527,461,291,220,189,178,168,157,123,97],"timestamp_mouse":[8,24,44,64,83,103,124,145,163,185,204,225,244,264,285,304,323,344,365,385,404,424,443,465,484,503,525,543,564,585,604,624,644,664,684,705,724,743,764,784,805,825,843,863,884],"xSR":741.5,"ySR":573.95,"xT1":424.9,"yT1":0,"xT2":1058.1,"yT2":0,"toosoon":0,"cond_shown":"equaldotanddens","ratio_trial":500,"smaller_num":"9","larger_num":"18","correct_side":1,"subjID":"juanmanuelcruz34","gender":"0","age":"11","school":"6"},{"start_time":1551893492057,"click_time":1551893492900,"finger_time":1551893492621,"fix_duration":254.50589897807995,"trial":71,"RT":564,"MT":279,"sideResp":2,"stimulus":"img/750/randomdotsizeEA/L/14_Ratio_750_L_8_R_6.png","xmouse":[772,772,772,772,772,772,772,772,772,772,772,772,772,772,772,772,772,772,772,772,772,772,772,772,772,772,774,776,784,797,809,826,845,853,858,859,862,866,884,926,957,1002,1061],"ymouse":[575,575,575,575,575,575,575,575,575,575,575,575,575,575,575,575,575,575,575,575,575,575,575,575,575,575,575,575,569,541,514,452,408,396,386,380,371,356,313,250,213,162,97],"timestamp_mouse":[10,37,44,63,83,103,122,143,164,184,204,223,243,263,282,303,323,344,362,384,403,423,444,463,483,503,522,543,564,583,603,623,643,664,682,704,723,743,763,782,804,823,843],"xSR":741.5,"ySR":573.95,"xT1":424.9,"yT1":0,"xT2":1058.1,"yT2":0,"toosoon":0,"cond_shown":"randomdotsizeEA","ratio_trial":750,"smaller_num":"6","larger_num":"8","correct_side":1,"subjID":"juanmanuelcru