[{"start_time":1551893085355,"click_time":1551893091998,"finger_time":1551893085365,"fix_duration":573.9745084115143,"trial":0,"RT":10,"MT":6633,"sideResp":1,"stimulus":"img/500/equaldotsize/R/12_Ratio_500_L_1_R_2.png","xmouse":[774,774,774,774,774,774,774,774,774,774,774,774,774,774,774,774,774,774,774,774,774,774,774,774,774,774,769,768,767,766,766,766,766,766,766,766,766,766,766,766,766,766,766,766,766,766,766,766,766,766,766,766,766,766,766,766,766,766,766,766,766,766,766,766,766,766,766,766,766,766,766,766,766,766,766,767,769,771,772,773,776,779,798,807,817,824,832,832,830,827,823,817,814,809,803,796,788,782,780,779,779,779,779,779,779,779,779,784,792,810,846,933,1023,1046,1057,1058,1058,1058,1058,1058,1055,1041,975,915,863,832,809,789,786,785,785,785,795,813,836,859,874,877,877,878,877,864,821,814,812,811,811,815,819,828,835,854,900,939,989,1039,1094,1096,1096,1096,1094,1074,997,955,922,901,890,884,884,883,880,879,879,876,871,867,866,865,864,863,858,849,846,842,839,836,832,822,817,814,812,812,812,812,812,812,812,812,812,812,812,812,812,812,812,812,812,812,812,812,812,812,812,812,812,804,795,712,645,589,536,517,506,506,506,506,505,505,505,505,505,505,505,505,518,545,586,690,744,754,754,754,754,754,754,754,747,718,707,699,697,697,696,696,696,696,696,696,696,696,696,699,771,796,804,805,805,809,826,839,852,855,826,801,788,787,786,785,787,807,814,816,818,818,815,788,731,671,624,622,622,622,623,645,685,733,770,802,816,833,866,918,970,962,943,916,869,811,809,809,808,810,813,813,807,806,806,803,796,791,791,791,798,802,803,803,791,726,656,616,586,563,511],"ymouse":[551,551,551,551,551,551,551,551,551,551,551,551,551,551,551,551,551,551,551,551,551,551,551,551,551,553,567,576,583,588,591,591,593,605,619,633,642,642,642,642,642,642,642,642,642,642,642,642,642,642,642,642,642,642,642,642,642,642,642,642,642,642,642,642,642,642,642,642,642,642,642,642,642,642,642,640,638,637,636,635,633,628,604,590,571,552,521,509,497,485,475,454,445,427,405,381,354,321,311,306,303,303,303,303,303,303,303,303,301,298,283,248,208,198,193,192,192,192,192,192,192,195,202,204,204,204,204,204,204,204,204,204,200,191,186,182,182,182,182,182,184,188,200,202,203,203,203,208,214,230,239,262,306,334,362,386,417,419,419,421,422,418,395,386,382,382,382,386,386,387,398,421,507,558,588,599,601,602,602,602,603,603,603,602,601,601,601,605,607,609,610,610,610,610,610,610,610,610,610,610,610,610,610,610,610,610,610,610,610,610,610,610,610,610,610,598,583,478,422,386,356,345,342,342,342,342,341,341,341,341,341,341,341,349,387,459,536,695,767,777,777,777,777,777,767,749,727,678,664,651,649,648,648,648,648,648,648,648,648,648,648,651,749,784,796,797,797,797,790,776,751,727,682,668,664,664,665,675,687,709,710,710,700,684,652,576,472,368,262,254,254,254,294,375,492,626,735,796,798,798,779,730,551,473,435,406,383,367,367,367,366,361,348,341,336,335,335,351,402,428,449,454,443,425,406,378,335,213,136,103,87,78,63],"timestamp_mouse":[10,24,43,63,82,103,123,143,164,183,204,224,243,264,283,303,323,343,363,383,404,423,443,464,483,504,523,543,563,583,602,622,643,663,683,703,723,742,762,784,804,824,843,863,883,904,923,943,964,984,1004,1024,1043,1064,1083,1103,1123,1144,1162,1184,1204,1223,1244,1264,1284,1304,1322,1344,1362,1383,1404,1422,1443,1464,1482,1503,1524,1543,1564,1583,1604,1624,1643,1663,1684,1704,1724,1743,1763,1783,1803,1824,1843,1863,1883,1903,1923,1943,1962,1983,2004,2023,2042,2063,2083,2103,2123,2143,2163,2184,2203,2222,2242,2263,2284,2303,2323,2343,2364,2383,2402,2423,2442,2463,2484,2504,2523,2543,2563,2584,2604,2622,2642,2663,2684,2703,2723,2744,2763,2783,2804,2824,2843,2863,2884,2904,2923,2943,2963,2982,3004,3023,3044,3063,3083,3104,3124,3143,3163,3182,3202,3224,3244,3263,3283,3304,3324,3343,3363,3384,3403,3423,3444,3462,3483,3504,3523,3544,3564,3583,3604,3624,3642,3663,3683,3703,3723,3743,3764,3783,3804,3824,3843,3864,3884,3903,3923,3943,3963,3983,4004,4024,4044,4064,4082,4103,4123,4143,4164,4182,4204,4222,4243,4263,4283,4303,4323,4343,4362,4384,4404,4423,4443,4463,4483,4503,4523,4543,4563,4583,4603,4623,4643,4663,4683,4703,4723,4743,4763,4782,4802,4823,4843,4863,4882,4903,4924,4943,4962,4983,5003,5024,5044,5064,5083,5104,5124,5143,5163,5184,5203,5223,5243,5263,5284,5304,5323,5343,5363,5382,5402,5424,5442,5463,5483,5504,5522,5543,5564,5583,5603,5623,5643,5663,5683,5703,5723,5742,5763,5783,5803,5823,5843,5863,5883,5903,5923,5943,5962,5983,6003,6024,6043,6063,6083,6104,6123,6143,6163,6183,6203,6223,6243,6262,6283,6304,6324,6343,6363,6382,6404,6423,6442,6463,6484,6502,6522,6542,6564,6583,6603,6624,6642],"xSR":741.5,"ySR":501.8,"xT1":424.9,"yT1":0,"xT2":1058.1,"yT2":0,"toosoon":0,"cond_shown":"equaldotsize","ratio_trial":500,"smaller_num":"1","larger_num":"2","correct_side":2,"subjID":"JUANMANUELSALAZARVARON31","gender":"0","age":"11","school":"6","test":{"fix_dur":[250,1500],"timestim":300,"targets_dim":[100,100],"targets_relative_coord":[0.3,0.7],"size_stim":[880,420],"start_dim":[100,100],"size_start":[300,300],"size_fix":60,"samplingrate":20,"img_types":["equaldotsize","equaldotanddens","randomdotsizeEA"],"ratios":[250,500,750,900],"rep_conds":9,"nTrials":120,"trials_to_rest":500,"Trials_order":[99,80,103,49,61,95,34,110,74,7,88,4,9,29,18,100,19,35,53,72,48,58,60,24,50,33,86,56,114,117,66,51,89,75,83,84,70,76,22,52,97,112,107,45,1,31,69,23,57,82,96,0,17,87,13,94,106,8,81,90,2,30,113,119,108,109,59,27,105,25,111,36,78,21,5,91,44,116,85,41,10,118,3,104,73,15,11,14,20,65,77,102,47,101,46,55,26,39,43,98,28,71,64,6,54,38,16,42,93,63,12,92,67,79,32,68,115,40,37,62],"cond_shown":["equaldotsize","randomdotsizeEA","equaldotanddens","equaldotanddens","equaldotanddens","randomdotsizeEA","equaldotanddens","randomdotsizeEA","randomdotsizeEA","equaldotanddens","equaldotanddens","equaldotanddens","equaldotsize","randomdotsizeEA","equaldotsize","equaldotanddens","equaldotanddens","randomdotsizeEA","randomdotsizeEA","equaldotsize","equaldotsize","equaldotanddens","equaldotsize","equaldotsize","randomdotsizeEA","equaldotsize","randomdotsizeEA","randomdotsizeEA","equaldotsize","equaldotsize","equaldotsize","equaldotsize","randomdotsizeEA","equaldotsize","randomdotsizeEA","equaldotsize","equaldotanddens","equaldotanddens","equaldotanddens","equaldotanddens","equaldotanddens","equaldotanddens","randomdotsizeEA","equaldotsize","equaldotanddens","equaldotanddens","equaldotsize","randomdotsizeEA","equaldotsize","equaldotanddens","equaldotsize","equaldotsize","randomdotsizeEA","equaldotsize","equaldotanddens","equaldotanddens","equaldotanddens","randomdotsizeEA","equaldotsize","equaldotsize","randomdotsizeEA","equaldotsize","randomdotsizeEA","randomdotsizeEA","equaldotsize","equaldotanddens","randomdotsizeEA","equaldotsize","equaldotsize","equaldotanddens","equaldotsize","equaldotsize","equaldotsize","equaldotsize","randomdotsizeEA","equaldotanddens","randomdotsizeEA","randomdotsizeEA","equaldotanddens","randomdotsizeEA","equaldotanddens","equaldotanddens","equaldotsize","randomdotsizeEA","equaldotanddens","equaldotsize","randomdotsizeEA","randomdotsizeEA","randomdotsizeEA","randomdotsizeEA","randomdotsizeEA","equaldotsize","randomdotsizeEA","randomdotsizeEA","equaldotanddens","equaldotanddens","randomdotsizeEA","equaldotsize","equaldotanddens","randomdotsizeEA","equaldotanddens","randomdotsizeEA","equaldotanddens","equaldotsize","equaldotsize","randomdotsizeEA","equaldotanddens","equaldotsize","equaldotsize","equaldotsize","equaldotsize","randomdotsizeEA","equaldotanddens","equaldotanddens","randomdotsizeEA","randomdotsizeEA","equaldotanddens","equaldotanddens","equaldotanddens","randomdotsizeEA"],"ratio_trial":[500,750,750,250,250,900,900,250,250,750,500,500,900,500,750,500,750,900,500,250,250,900,250,250,250,900,250,750,750,900,750,500,500,500,900,250,900,500,900,500,250,500,900,900,250,750,900,900,900,900,250,250,500,500,250,900,900,750,900,750,250,750,500,900,250,250,900,500,900,250,500,250,750,900,500,750,750,750,250,500,900,900,500,750,250,500,900,250,750,500,500,750,900,500,900,750,250,500,750,250,500,900,500,750,750,250,500,750,900,500,250,750,750,750,750,750,750,500,250,250],"smaller_num":["1","3","12","3","3","18","18","2","4","3","5","1","9","2","3","9","6","18","4","4","3","18","2","2","2","9","4","12","3","18","15","10","4","4","18","4","18","3","18","2","3","4","9","18","5","15","9","9","9","18","3","3","6","5","6","18","18","12","9","15","5","3","2","18","2","1","18","3","9","3","2","2","3","9","1","9","6","6","2","9","9","18","10","15","6","1","9","2","6","3","2","3","18","5","9","3","3","2","15","5","9","18","2","3","15","5","9","15","9","4","3","3","15","6","12","6","6","2","6","6"],"larger_num":["2","4","16","12","12","20","20","8","16","4","10","2","10","4","4","18","8","20","8","16","12","20","8","8","8","10","16","16","4","20","20","20","8","8","20","16","20","6","20","4","12","8","10","20","20","20","10","10","10","20","12","12","12","10","24","20","20","16","10","20","20","4","4","20","8","4","20","6","10","12","4","8","4","10","2","12","8","8","8","18","10","20","20","20","24","2","10","8","8","6","4","4","20","10","10","4","12","4","20","20","18","20","4","4","20","20","18","20","10","8","12","4","20","8","16","8","8","4","24","24"],"correct_side":[2,2,2,1,1,2,1,1,2,2,2,2,2,2,1,1,1,2,1,1,2,1,1,2,2,2,1,2,2,1,2,2,1,1,2,1,1,2,1,1,2,1,1,1,2,1,2,1,1,1,2,1,1,2,1,1,2,2,1,2,2,2,1,1,1,2,1,2,2,1,1,1,1,2,2,2,2,1,1,2,2,2,2,2,2,2,2,2,2,2,1,1,2,1,2,2,2,1,2,2,2,1,1,1,2,2,2,1,2,1,2,2,2,1,2,1,2,1,1,2],"img_shown":["img/500/equaldotsize/R/12_Ratio_500_L_1_R_2.png","img/750/randomdotsizeEA/R/12_Ratio_750_L_3_R_4.png","img/750/equaldotanddens/R/11_Ratio_750_L_12_R_16.png","img/250/equaldotanddens/L/14_Ratio_250_L_12_R_3.png","img/250/equaldotanddens/L/15_Ratio_250_L_12_R_3.png","img/900/randomdotsizeEA/R/11_Ratio_900_L_18_R_20.png","img/900/equaldotanddens/L/8_Ratio_900_L_20_R_18.png","img/250/randomdotsizeEA/L/3_Ratio_250_L_8_R_2.png","img/250/randomdotsizeEA/R/10_Ratio_250_L_4_R_16.png","img/750/equaldotanddens/R/7_Ratio_750_L_3_R_4.png","img/500/equaldotanddens/R/14_Ratio_500_L_5_R_10.png","img/500/equaldotanddens/R/12_Ratio_500_L_1_R_2.png","img/900/equaldotsize/R/15_Ratio_900_L_9_R_10.png","img/500/randomdotsizeEA/R/9_Ratio_500_L_2_R_4.png","img/750/equaldotsize/L/8_Ratio_750_L_4_R_3.png","img/500/equaldotanddens/L/4_Ratio_500_L_18_R_9.png","img/750/equaldotanddens/L/13_Ratio_750_L_8_R_6.png","img/900/randomdotsizeEA/R/12_Ratio_900_L_18_R_20.png","img/500/randomdotsizeEA/L/8_Ratio_500_L_8_R_4.png","img/250/equaldotsize/L/2_Ratio_250_L_16_R_4.png","img/250/equaldotsize/R/9_Ratio_250_L_3_R_12.png","img/900/equaldotanddens/L/2_Ratio_900_L_20_R_18.png","img/250/equaldotsize/L/7_Ratio_250_L_8_R_2.png","img/250/equaldotsize/R/13_Ratio_250_L_2_R_8.png","img/250/randomdotsizeEA/R/13_Ratio_250_L_2_R_8.png","img/900/equaldotsize/R/7_Ratio_900_L_9_R_10.png","img/250/randomdotsizeEA/L/2_Ratio_250_L_16_R_4.png","img/750/randomdotsizeEA/R/11_Ratio_750_L_12_R_16.png","img/750/equaldotsize/R/7_Ratio_750_L_3_R_4.png","img/900/equaldotsize/L/2_Ratio_900_L_20_R_18.png","img/750/equaldotsize/R/3_Ratio_750_L_15_R_20.png","img/500/equaldotsize/R/3_Ratio_500_L_10_R_20.png","img/500/randomdotsizeEA/L/8_Ratio_500_L_8_R_4.png","img/500/equaldotsize/L/8_Ratio_500_L_8_R_4.png","img/900/randomdotsizeEA/R/12_Ratio_900_L_18_R_20.png","img/250/equaldotsize/L/2_Ratio_250_L_16_R_4.png","img/900/equaldotanddens/L/4_Ratio_900_L_20_R_18.png","img/500/equaldotanddens/R/2_Ratio_500_L_3_R_6.png","img/900/equaldotanddens/L/4_Ratio_900_L_20_R_18.png","img/500/equaldotanddens/L/10_Ratio_500_L_4_R_2.png","img/250/equaldotanddens/R/11_Ratio_250_L_3_R_12.png","img/500/equaldotanddens/L/8_Ratio_500_L_8_R_4.png","img/900/randomdotsizeEA/L/1_Ratio_900_L_10_R_9.png","img/900/equaldotsize/L/2_Ratio_900_L_20_R_18.png","img/250/equaldotanddens/R/12_Ratio_250_L_5_R_20.png","img/750/equaldotanddens/L/1_Ratio_750_L_20_R_15.png","img/900/equaldotsize/R/6_Ratio_900_L_9_R_10.png","img/900/randomdotsizeEA/L/1_Ratio_900_L_10_R_9.png","img/900/equaldotsize/L/1_Ratio_900_L_10_R_9.png","img/900/equaldotanddens/L/4_Ratio_900_L_20_R_18.png","img/250/equaldotsize/R/11_Ratio_250_L_3_R_12.png","img/250/equaldotsize/L/14_Ratio_250_L_12_R_3.png","img/500/randomdotsizeEA/L/13_Ratio_500_L_12_R_6.png","img/500/equaldotsize/R/14_Ratio_500_L_5_R_10.png","img/250/equaldotanddens/L/5_Ratio_250_L_24_R_6.png","img/900/equaldotanddens/L/10_Ratio_900_L_20_R_18.png","img/900/equaldotanddens/R/13_Ratio_900_L_18_R_20.png","img/750/randomdotsizeEA/R/11_Ratio_750_L_12_R_16.png","img/900/equaldotsize/L/1_Ratio_900_L_10_R_9.png","img/750/equaldotsize/R/3_Ratio_750_L_15_R_20.png","img/250/randomdotsizeEA/R/12_Ratio_250_L_5_R_20.png","img/750/equaldotsize/R/7_Ratio_750_L_3_R_4.png","img/500/randomdotsizeEA/L/5_Ratio_500_L_4_R_2.png","img/900/randomdotsizeEA/L/10_Ratio_900_L_20_R_18.png","img/250/equaldotsize/L/7_Ratio_250_L_8_R_2.png","img/250/equaldotanddens/R/8_Ratio_250_L_1_R_4.png","img/900/randomdotsizeEA/L/4_Ratio_900_L_20_R_18.png","img/500/equaldotsize/R/2_Ratio_500_L_3_R_6.png","img/900/equaldotsize/R/7_Ratio_900_L_9_R_10.png","img/250/equaldotanddens/L/15_Ratio_250_L_12_R_3.png","img/500/equaldotsize/L/10_Ratio_500_L_4_R_2.png","img/250/equaldotsize/L/1_Ratio_250_L_8_R_2.png","img/750/equaldotsize/L/9_Ratio_750_L_4_R_3.png","img/900/equaldotsize/R/7_Ratio_900_L_9_R_10.png","img/500/randomdotsizeEA/R/15_Ratio_500_L_1_R_2.png","img/750/equaldotanddens/R/15_Ratio_750_L_9_R_12.png","img/750/randomdotsizeEA/R/2_Ratio_750_L_6_R_8.png","img/750/randomdotsizeEA/L/14_Ratio_750_L_8_R_6.png","img/250/equaldotanddens/L/3_Ratio_250_L_8_R_2.png","img/500/randomdotsizeEA/R/6_Ratio_500_L_9_R_18.png","img/900/equaldotanddens/R/15_Ratio_900_L_9_R_10.png","img/900/equaldotanddens/R/13_Ratio_900_L_18_R_20.png","img/500/equaldotsize/R/3_Ratio_500_L_10_R_20.png","img/750/randomdotsizeEA/R/3_Ratio_750_L_15_R_20.png","img/250/equaldotanddens/R/6_Ratio_250_L_6_R_24.png","img/500/equaldotsize/R/15_Ratio_500_L_1_R_2.png","img/900/randomdotsizeEA/R/5_Ratio_900_L_9_R_10.png","img/250/randomdotsizeEA/R/13_Ratio_250_L_2_R_8.png","img/750/randomdotsizeEA/R/2_Ratio_750_L_6_R_8.png","img/500/randomdotsizeEA/R/2_Ratio_500_L_3_R_6.png","img/500/randomdotsizeEA/L/10_Ratio_500_L_4_R_2.png","img/750/equaldotsize/L/8_Ratio_750_L_4_R_3.png","img/900/randomdotsizeEA/R/13_Ratio_900_L_18_R_20.png","img/500/randomdotsizeEA/L/7_Ratio_500_L_10_R_5.png","img/900/equaldotanddens/R/15_Ratio_900_L_9_R_10.png","img/750/equaldotanddens/R/12_Ratio_750_L_3_R_4.png","img/250/randomdotsizeEA/R/9_Ratio_250_L_3_R_12.png","img/500/equaldotsize/L/5_Ratio_500_L_4_R_2.png","img/750/equaldotanddens/R/3_Ratio_750_L_15_R_20.png","img/250/randomdotsizeEA/R/12_Ratio_250_L_5_R_20.png","img/500/equaldotanddens/R/6_Ratio_500_L_9_R_18.png","img/900/randomdotsizeEA/L/10_Ratio_900_L_20_R_18.png","img/500/equaldotanddens/L/5_Ratio_500_L_4_R_2.png","img/750/equaldotsize/L/9_Ratio_750_L_4_R_3.png","img/750/equaldotsize/R/3_Ratio_750_L_15_R_20.png","img/250/randomdotsizeEA/R/12_Ratio_250_L_5_R_20.png","img/500/equaldotanddens/R/1_Ratio_500_L_9_R_18.png","img/750/equaldotsize/L/1_Ratio_750_L_20_R_15.png","img/900/equaldotsize/R/5_Ratio_900_L_9_R_10.png","img/500/equaldotsize/L/8_Ratio_500_L_8_R_4.png","img/250/equaldotsize/R/9_Ratio_250_L_3_R_12.png","img/750/randomdotsizeEA/R/7_Ratio_750_L_3_R_4.png","img/750/equaldotanddens/R/5_Ratio_750_L_15_R_20.png","img/750/equaldotanddens/L/13_Ratio_750_L_8_R_6.png","img/750/randomdotsizeEA/R/11_Ratio_750_L_12_R_16.png","img/750/randomdotsizeEA/L/13_Ratio_750_L_8_R_6.png","img/750/equaldotanddens/R/2_Ratio_750_L_6_R_8.png","img/500/equaldotanddens/L/5_Ratio_500_L_4_R_2.png","img/250/equaldotanddens/L/5_Ratio_250_L_24_R_6.png","img/250/randomdotsizeEA/R/6_Ratio_250_L_6_R_24.png"],"Rat0":[["12_Ratio_0_L_9_R_0.png","13_Ratio_0_L_6_R_0.png","5_Ratio_0_L_2_R_0.png","6_Ratio_0_L_4_R_0.png","8_Ratio_0_L_6_R_0.png"],["1_Ratio_0_L_0_R_17.png","10_Ratio_0_L_0_R_22.png","11_Ratio_0_L_0_R_1.png","14_Ratio_0_L_0_R_24.png","15_Ratio_0_L_0_R_4.png","2_Ratio_0_L_0_R_5.png","3_Ratio_0_L_0_R_17.png","4_Ratio_0_L_0_R_7.png","7_Ratio_0_L_0_R_19.png","9_Ratio_0_L_0_R_15.png"]],"Rat250":[["1_Ratio_250_L_8_R_2.png","14_Ratio_250_L_12_R_3.png","15_Ratio_250_L_12_R_3.png","2_Ratio_250_L_16_R_4.png","3_Ratio_250_L_8_R_2.png","5_Ratio_250_L_24_R_6.png","7_Ratio_250_L_8_R_2.png"],["10_Ratio_250_L_4_R_16.png","11_Ratio_250_L_3_R_12.png","12_Ratio_250_L_5_R_20.png","13_Ratio_250_L_2_R_8.png","4_Ratio_250_L_3_R_12.png","6_Ratio_250_L_6_R_24.png","8_Ratio_250_L_1_R_4.png","9_Ratio_250_L_3_R_12.png"]],"Rat500":[["10_Ratio_500_L_4_R_2.png","11_Ratio_500_L_12_R_6.png","13_Ratio_500_L_12_R_6.png","4_Ratio_500_L_18_R_9.png","5_Ratio_500_L_4_R_2.png","7_Ratio_500_L_10_R_5.png","8_Ratio_500_L_8_R_4.png"],["1_Ratio_500_L_9_R_18.png","12_Ratio_500_L_1_R_2.png","14_Ratio_500_L_5_R_10.png","15_Ratio_500_L_1_R_2.png","2_Ratio_500_L_3_R_6.png","3_Ratio_500_L_10_R_20.png","6_Ratio_500_L_9_R_18.png","9_Ratio_500_L_2_R_4.png"]],"Rat750":[["1_Ratio_750_L_20_R_15.png","10_Ratio_750_L_4_R_3.png","13_Ratio_750_L_8_R_6.png","14_Ratio_750_L_8_R_6.png","6_Ratio_750_L_24_R_18.png","8_Ratio_750_L_4_R_3.png","9_Ratio_750_L_4_R_3.png"],["11_Ratio_750_L_12_R_16.png","12_Ratio_750_L_3_R_4.png","15_Ratio_750_L_9_R_12.png","2_Ratio_750_L_6_R_8.png","3_Ratio_750_L_15_R_20.png","4_Ratio_750_L_15_R_20.png","5_Ratio_750_L_15_R_20.png","7_Ratio_750_L_3_R_4.png"]],"Rat900":[["1_Ratio_900_L_10_R_9.png","10_Ratio_900_L_20_R_18.png","2_Ratio_900_L_20_R_18.png","4_Ratio_900_L_20_R_18.png","8_Ratio_900_L_20_R_18.png"],["11_Ratio_900_L_18_R_20.png","12_Ratio_900_L_18_R_20.png","13_Ratio_900_L_18_R_20.png","14_Ratio_900_L_18_R_20.png","15_Ratio_900_L_9_R_10.png","3_Ratio_900_L_9_R_10.png","5_Ratio_900_L_9_R_10.png","6_Ratio_900_L_9_R_10.png","7_Ratio_900_L_9_R_10.png","9_Ratio_900_L_18_R_20.png"]],"Rat1000":[["10_Ratio_1000_L_16_R_16.png","11_Ratio_1000_L_6_R_6.png","12_Ratio_1000_L_14_R_14.png","13_Ratio_1000_L_20_R_20.png","15_Ratio_1000_L_15_R_15.png","2_Ratio_1000_L_17_R_17.png","4_Ratio_1000_L_9_R_9.png","5_Ratio_1000_L_6_R_6.png","6_Ratio_1000_L_19_R_19.png","8_Ratio_1000_L_14_R_14.png","9_Ratio_1000_L_25_R_25.png"],["1_Ratio_1000_L_1_R_1.png","14_Ratio_1000_L_17_R_17.png","3_Ratio_1000_L_17_R_17.png","7_Ratio_1000_L_6_R_6.png"]]}},{"start_time":1551893093251,"click_time":1551893096679,"finger_time":1551893095117,"fix_duration":250,"trial":1,"RT":1866,"MT":1562,"sideResp":2,"stimulus":"img/750/randomdotsizeEA/R/12_Ratio_750_L_3_R_4.png","xmouse":[794,794,794,794,794,794,794,794,792,792,792,792,792,792,792,792,792,792,792,792,792,792,792,792,792,792,792,792,792,792,792,792,792,792,792,792,792,792,792,792,792,792,792,792,792,792,792,792,792,792,792,792,792,792,792,792,792,792,792,792,792,792,792,792,792,792,792,792,792,792,792,792,792,792,792,792,792,792,792,792,792,792,792,792,792,792,792,792,792,792,796,803,805,805,805,805,799,787,784,783,782,781,781,780,779,778,776,775,774,773,772,771,770,770,770,770,773,774,775,775,775,775,775,775,775,775,775,775,775,776,785,798,828,837,845,848,849,849,850,852,861,875,897,904,906,906,906,906,906,906,906,906,906,908,915,924,937,962,971,981,993,1010,1017,1021,1023,1028,1048,1110,1122,1124,1124],"ymouse":[598,598,598,598,598,598,598,600,601,602,602,602,602,602,602,602,602,602,602,602,602,602,602,602,602,602,602,602,602,602,602,602,602,602,602,602,602,602,602,602,602,602,602,602,602,602,602,602,602,602,602,602,602,602,602,602,602,602,602,602,602,602,602,602,602,602,602,602,602,602,602,602,602,602,602,602,602,602,602,602,602,602,602,602,602,602,602,602,602,602,593,578,573,567,558,542,524,498,491,488,486,483,480,475,466,458,452,444,439,435,427,417,401,397,395,393,385,383,382,382,382,382,382,382,382,382,382,382,382,382,380,377,367,363,357,356,356,356,354,352,344,335,323,320,319,319,319,319,319,319,319,319,319,315,304,291,272,229,210,193,175,158,151,146,141,138,132,117,109,102,99],"timestamp_mouse":[9,50,68,88,106,127,147,167,187,207,227,247,268,288,307,327,348,367,388,407,427,447,468,487,508,527,546,568,587,608,627,647,668,687,708,728,748,768,787,807,827,848,867,888,907,927,948,968,987,1008,1028,1047,1068,1086,1108,1127,1147,1168,1188,1208,1227,1247,1268,1287,1308,1328,1347,1368,1387,1407,1428,1448,1468,1487,1506,1527,1547,1567,1588,1608,1627,1646,1667,1687,1708,1728,1748,1768,1788,1807,1826,1848,1866,1887,1907,1928,1946,1967,1987,2007,2028,2048,2066,2087,2107,2128,2147,2167,2187,2207,2228,2247,2267,2287,2308,2328,2348,2366,2387,2406,2427,2447,2468,2487,2508,2527,2546,2568,2587,2607,2626,2648,2668,2687,2708,2727,2747,2766,2787,2807,2828,2847,2868,2887,2907,2927,2947,2968,2987,3006,3027,3047,3068,3087,3107,3127,3147,3167,3188,3207,3227,3248,3267,3287,3307,3327,3347,3367,3387,3408,3428],"xSR":741.5,"ySR":573.95,"xT1":424.9,"yT1":0,"xT2":1058.1,"yT2":0,"toosoon":0,"cond_shown":"randomdotsizeEA","ratio_trial":750,"smaller_num":"3","larger_num":"4","correct_side":2,"subjID":"JUANMANUELSALAZARVARON31","gender":"0","age":"11","school":"6"},{"start_time":1551893097710,"click_time":1551893099139,"finger_time":1551893098717,"fix_duration":250,"trial":2,"RT":1007,"MT":422,"sideResp":2,"stimulus":"img/750/equaldotanddens/R/11_Ratio_750_L_12_R_16.png","xmouse":[786,786,786,786,786,786,786,786,786,786,786,786,786,786,786,786,786,786,786,786,786,786,786,786,786,786,786,786,786,786,786,786,786,786,786,786,786,786,786,786,786,786,786,786,786,786,786,793,810,831,922,944,951,953,955,993,1022,1042,1054,1057,1062,1063,1064,1065,1069,1085,1091,1093,1093,1093,1093,1094],"ymouse":[637,637,637,637,637,637,637,637,637,637,637,637,637,637,637,637,637,637,637,637,637,637,637,637,637,637,637,637,637,637,637,637,637,637,637,637,637,637,637,637,637,637,637,637,637,637,637,628,604,579,490,461,442,427,403,303,262,234,203,183,153,147,145,144,140,123,112,100,100,100,100,99],"timestamp_mouse":[10,29,52,69,87,109,129,147,168,189,209,228,248,269,287,307,329,349,368,388,409,428,449,469,488,509,528,549,569,588,609,629,649,667,689,708,729,749,768,789,809,827,849,867,889,908,927,948,968,989,1007,1028,1048,1068,1089,1108,1129,1149,1168,1188,1208,1228,1248,1268,1288,1308,1329,1348,1368,1389,1408,1428],"xSR":741.5,"ySR":573.95,"xT1":424.9,"yT1":0,"xT2":1058.1,"yT2":0,"toosoon":0,"cond_shown":"equaldotanddens","ratio_trial":750,"smaller_num":"12","larger_num":"16","correct_side":2,"subjID":"JUANMANUELSALAZARVARON31","gender":"0","age":"11","school":"6"},{"start_time":1551893101144,"click_time":1551893102438,"finger_time":1551893102058,"fix_duration":903.8575040373629,"trial":3,"RT":914,"MT":380,"sideResp":1,"stimulus":"img/250/equaldotanddens/L/14_Ratio_250_L_12_R_3.png","xmouse":[786,786,786,786,786,786,786,786,786,786,786,786,786,786,786,786,786,786,786,786,786,786,786,786,786,786,786,786,786,786,786,786,786,786,786,786,786,786,786,786,786,786,786,786,781,719,631,529,428,316,305,303,306,315,319,322,324,326,348,367,388,408,421,424,431],"ymouse":[623,623,623,623,623,623,623,623,623,623,623,623,623,623,623,623,623,623,623,623,623,623,623,623,623,623,623,623,623,623,623,623,623,623,623,623,623,623,623,623,623,623,623,623,607,527,442,352,276,167,142,126,113,92,79,72,71,69,68,68,68,65,63,61,60],"timestamp_mouse":[14,40,54,73,94,115,134,154,174,194,214,233,255,274,294,313,335,353,374,393,414,434,453,474,493,514,533,554,574,594,615,635,655,674,694,714,734,753,773,794,814,835,855,875,895,914,934,954,974,994,1014,1034,1054,1074,1094,1114,1134,1154,1174,1194,1214,1234,1254,1274,1294],"xSR":741.5,"ySR":573.95,"xT1":424.9,"yT1":0,"xT2":1058.1,"yT2":0,"toosoon":0,"cond_shown":"equaldotanddens","ratio_trial":250,"smaller_num":"3","larger_num":"12","correct_side":1,"subjID":"JUANMANUELSALAZARVARON31","gender":"0","age":"11","school":"6"},{"start_time":1551893105406,"click_time":1551893106198,"finger_time":1551893106058,"fix_duration":546.494759871114,"trial":4,"RT":652,"MT":140,"sideResp":1,"stimulus":"img/250/equaldotanddens/L/15_Ratio_250_L_12_R_3.png","xmouse":[780,780,780,780,780,780,780,780,780,780,780,780,780,780,780,780,780,780,780,780,780,780,780,780,780,780,780,780,780,780,780,780,780,770,738,679,528,472,445,437],"ymouse":[619,619,619,619,619,619,619,619,619,619,619,619,619,619,619,619,619,619,619,619,619,619,619,619,619,619,619,619,619,619,619,619,558,490,424,337,172,125,101,97],"timestamp_mouse":[13,37,52,72,92,113,131,152,173,191,213,232,253,273,292,312,333,352,372,393,413,431,452,472,492,511,532,552,572,593,611,633,652,672,693,713,732,751,772,792],"xSR":741.5,"ySR":573.95,"xT1":424.9,"yT1":0,"xT2":1058.1,"yT2":0,"toosoon":0,"cond_shown":"equaldotanddens","ratio_trial":250,"smaller_num":"3","larger_num":"12","correct_side":1,"subjID":"JUANMANUELSALAZARVARON31","gender":"0","age":"11","school":"6"},{"start_time":1551893108448,"click_time":1551893109658,"finger_time":1551893109358,"fix_duration":1427.7309824357383,"trial":5,"RT":910,"MT":300,"sideResp":2,"stimulus":"img/900/randomdotsizeEA/R/11_Ratio_900_L_18_R_20.png","xmouse":[773,773,773,773,773,773,773,773,773,773,773,773,773,773,773,773,773,773,773,773,773,773,773,773,773,773,773,773,773,773,773,773,773,773,773,773,773,773,773,773,773,773,773,774,791,823,882,917,944,975,991,1009,1031,1055,1087,1096,1099,1099,1099,1102,1103],"ymouse":[617,617,617,617,617,617,617,617,617,617,617,617,617,617,617,617,617,617,617,617,617,617,617,617,617,617,617,617,617,617,617,617,617,617,617,617,617,617,617,617,617,617,617,617,584,552,503,476,453,413,386,353,311,271,216,198,183,156,137,106,94],"timestamp_mouse":[10,38,50,69,89,110,130,151,170,190,211,231,250,269,291,311,330,351,370,390,410,431,450,470,489,510,531,551,570,590,610,631,650,670,689,711,730,751,771,790,810,830,851,871,889,910,930,950,970,990,1009,1030,1050,1070,1090,1111,1130,1150,1170,1190,1209],"xSR":741.5,"ySR":573.95,"xT1":424.9,"yT1":0,"xT2":1058.1,"yT2":0,"toosoon":0,"cond_shown":"randomdotsizeEA","ratio_trial":900,"smaller_num":"18","larger_num":"20","correct_side":2,"subjID":"JUANMANUELSALAZARVARON31","gender":"0","age":"11","school":"6"},{"start_time":1551893110570,"click_time":1551893111959,"finger_time":1551893111599,"fix_duration":250,"trial":6,"RT":1029,"MT":360,"sideResp":1,"stimulus":"img/900/equaldotanddens/L/8_Ratio_900_L_20_R_18.png","xmouse":[810,810,810,810,810,810,810,810,810,810,810,810,810,810,810,810,810,810,810,810,810,810,810,810,810,810,810,810,810,810,810,810,810,810,810,810,810,810,810,810,810,810,810,810,810,810,810,810,810,808,797,778,752,650,597,549,500,459,412,408,407,409,412,418,420,422,423,426,428,437],"ymouse":[641,641,641,641,641,641,641,641,641,641,641,641,641,641,641,641,641,641,641,641,641,641,641,641,641,641,641,641,641,641,641,641,641,641,641,641,641,641,641,641,641,641,641,641,641,641,641,641,641,633,600,562,519,412,371,333,298,269,221,207,195,185,176,157,145,135,127,120,111,89],"timestamp_mouse":[8,38,48,69,87,109,128,148,168,188,207,229,248,268,288,308,328,349,367,388,409,428,448,467,489,508,529,549,568,589,609,628,648,668,689,708,729,749,768,789,807,828,848,868,888,908,927,948,968,987,1008,1029,1048,1068,1087,1108,1128,1149,1169,1188,1208,1228,1248,1269,1288,1308,1329,1348,1368,1389],"xSR":741.5,"ySR":573.95,"xT1":424.9,"yT1":0,"xT2":1058.1,"yT2":0,"toosoon":0,"cond_shown":"equaldotanddens","ratio_trial":900,"smaller_num":"18","larger_num":"20","correct_side":1,"subjID":"JUANMANUELSALAZARVARON31","gender":"0","age":"11","school":"6"},{"start_time":1551893113511,"click_time":1551893115238,"finger_time":1551893114938,"fix_duration":791.0943609307122,"trial":7,"RT":1427,"MT":300,"sideResp":1,"stimulus":"img/250/randomdotsizeEA/L/3_Ratio_250_L_8_R_2.png","xmouse":[778,778,778,778,778,778,778,778,778,778,778,778,778,778,778,778,778,778,778,778,778,778,778,778,778,778,778,778,778,778,778,778,778,778,778,778,778,778,778,778,778,778,778,778,778,778,778,778,778,778,778,778,778,778,778,778,778,778,778,778,778,778,778,778,778,778,778,778,778,776,766,752,708,673,634,596,551,465,439,430,426,426,434,443,457,471,484],"ymouse":[606,606,606,606,606,606,606,606,606,606,606,606,606,606,606,606,606,606,606,606,606,606,606,606,606,606,606,606,606,606,606,606,606,606,606,606,606,606,606,606,606,606,606,606,606,606,606,606,606,606,606,606,606,606,606,606,606,606,606,606,606,606,606,606,606,606,606,606,606,604,576,554,500,468,432,380,317,210,180,162,153,149,144,137,125,109,90],"timestamp_mouse":[10,28,60,66,87,106,127,146,167,187,207,227,248,268,287,306,327,347,366,387,407,427,447,467,486,507,528,547,568,588,607,627,647,667,687,707,728,747,768,788,807,827,848,867,887,908,928,947,968,987,1008,1026,1047,1068,1086,1108,1128,1146,1167,1188,1207,1228,1248,1267,1287,1308,1326,1347,1367,1387,1407,1427,1447,1467,1487,1507,1527,1547,1566,1588,1607,1627,1647,1666,1687,1708,1727],"xSR":741.5,"ySR":573.95,"xT1":424.9,"yT1":0,"xT2":1058.1,"yT2":0,"toosoon":0,"cond_shown":"randomdotsizeEA","ratio_trial":250,"smaller_num":"2","larger_num":"8","correct_side":1,"subjID":"JUANMANUELSALAZARVARON31","gender":"0","age":"11","school":"6"},{"start_time":1551893117888,"click_time":1551893118998,"finger_time":1551893118717,"fix_duration":368.305168653431,"trial":8,"RT":829,"MT":281,"sideResp":2,"stimulus":"img/250/randomdotsizeEA/R/10_Ratio_250_L_4_R_16.png","xmouse":[797,797,797,797,797,797,797,797,797,797,797,797,797,797,797,797,797,797,797,797,797,797,797,797,797,797,797,797,797,797,797,797,797,797,797,797,797,797,797,797,808,819,830,858,869,880,894,915,935,977,1005,1020,1034,1070,1112,1150],"ymouse":[647,647,647,647,647,647,647,647,647,647,647,647,647,647,647,647,647,647,647,647,647,647,647,647,647,647,647,647,647,647,647,647,647,647,647,647,647,647,647,645,607,573,546,485,461,432,400,358,326,275,238,216,195,151,119,85],"timestamp_mouse":[9,39,50,70,90,110,129,151,171,189,211,229,251,270,289,310,330,350,370,390,410,429,451,470,490,510,530,551,571,591,610,631,650,671,691,709,730,751,770,791,809,829,850,870,890,909,930,951,970,990,1010,1030,1051,1070,1089,1110],"xSR":741.5,"ySR":573.95,"xT1":424.9,"yT1":0,"xT2":1058.1,"yT2":0,"toosoon":0,"cond_shown":"randomdotsizeEA","ratio_trial":250,"smaller_num":"4","larger_num":"16","correct_side":2,"subjID":"JUANMANUELSALAZARVARON31","gender":"0","age":"11","school":"6"},{"start_time":1551893122294,"click_time":1551893123359,"finger_time":1551893123019,"fix_duration":1013.4936059232563,"trial":9,"RT":725,"MT":340,"sideResp":2,"stimulus":"img/750/equaldotanddens/R/7_Ratio_750_L_3_R_4.png","xmouse":[789,789,789,789,789,789,789,789,789,789,789,789,789,789,789,789,789,789,789,789,789,789,789,789,789,789,789,789,789,789,789,789,789,791,798,810,843,910,953,986,996,1014,1038,1070,1098,1101,1101,1101,1101,1107,1110,1112,1112,1112],"ymouse":[660,660,660,660,660,660,660,660,660,660,660,660,660,660,660,660,660,660,660,660,660,660,660,660,660,660,660,660,660,660,660,660,660,654,627,596,526,413,351,295,278,257,232,204,172,166,165,165,165,144,130,115,101,70],"timestamp_mouse":[10,34,44,64,85,105,123,144,164,183,205,223,245,263,285,304,324,345,364,384,404,425,443,464,484,503,525,544,564,584,603,624,644,664,684,704,725,745,765,784,804,824,845,864,884,905,924,944,964,984,1005,1025,1045,1065],"xSR":741.5,"ySR":573.95,"xT1":424.9,"yT1":0,"xT2":1058.1,"yT2":0,"toosoon":0,"cond_shown":"equaldotanddens","ratio_trial":750,"smaller_num":"3","larger_num":"4","correct_side":2,"subjID":"JUANMANUELSALAZARVARON31","gender":"0","age":"11","school":"6"},{"start_time":1551893126191,"click_time":1551893127259,"finger_time":1551893126898,"fix_duration":411.5686425828927,"trial":10,"RT":707,"MT":361,"sideResp":2,"stimulus":"img/500/equaldotanddens/R/14_Ratio_500_L_5_R_10.png","xmouse":[793,793,793,793,793,793,793,793,792,791,791,791,791,791,791,791,791,791,791,791,791,791,791,791,791,791,791,791,791,791,791,791,791,795,816,897,930,965,995,1030,1032,1032,1032,1035,1047,1058,1074,1097,1114,1132,1133,1135,1138,1139],"ymouse":[615,615,615,615,615,615,615,615,605,600,600,600,600,600,600,600,600,600,600,600,600,600,600,600,600,600,600,600,600,600,600,600,600,590,579,533,495,436,369,279,246,233,226,220,205,195,181,165,151,129,124,115,105,92],"timestamp_mouse":[9,39,47,66,87,108,127,147,167,187,207,228,246,266,287,307,327,347,368,387,406,428,448,468,488,507,528,548,567,588,607,626,646,667,687,707,728,747,768,787,806,827,847,867,887,907,927,947,967,987,1008,1027,1047,1068],"xSR":741.5,"ySR":573.95,"xT1":424.9,"yT1":0,"xT2":1058.1,"yT2":0,"toosoon":0,"cond_shown":"equaldotanddens","ratio_trial":500,"smaller_num":"5","larger_num":"10","correct_side":2,"subjID":"JUANMANUELSALAZARVARON31","gender":"0","age":"11","school":"6"},{"start_time":1551893129512,"click_time":1551893130718,"finger_time":1551893130358,"fix_duration":1390.5746189282404,"trial":11,"RT":846,"MT":360,"sideResp":2,"stimulus":"img/500/equaldotanddens/R/12_Ratio_500_L_1_R_2.png","xmouse":[797,797,797,797,797,797,797,797,797,797,797,797,797,797,797,797,797,797,797,797,797,797,797,797,797,797,797,797,797,797,797,797,797,797,797,797,797,797,797,797,808,830,893,922,1031,1054,1063,1067,1072,1078,1082,1086,1088,1093,1094,1094,1094,1095,1099,1106,1109],"ymouse":[653,653,653,653,653,653,653,653,653,653,653,653,653,653,653,653,653,653,653,653,653,653,653,653,653,653,653,653,653,653,653,653,653,653,653,653,653,653,653,644,619,594,539,514,389,349,323,299,261,243,228,212,195,155,145,141,138,133,126,105,95],"timestamp_mouse":[8,39,46,67,87,106,126,145,165,186,206,227,247,266,287,306,327,346,367,385,405,427,446,467,487,506,526,546,566,586,607,627,646,666,686,707,726,746,767,786,806,827,846,866,887,906,926,947,967,986,1006,1025,1046,1067,1086,1106,1126,1147,1166,1186,1206],"xSR":741.5,"ySR":573.95,"xT1":424.9,"yT1":0,"xT2":1058.1,"yT2":0,"toosoon":0,"cond_shown":"equaldotanddens","ratio_trial":500,"smaller_num":"1","larger_num":"2","correct_side":2,"subjID":"JUANMANUELSALAZARVARON31","gender":"0","age":"11","school":"6"},{"start_time":1551893132288,"click_time":1551893133579,"finger_time":1551893133178,"fix_duration":808.7257380257705,"trial":12,"RT":890,"MT":401,"sideResp":2,"stimulus":"img/900/equaldotsize/R/15_Ratio_900_L_9_R_10.png","xmouse":[784,784,784,784,784,784,784,784,784,784,784,784,784,784,784,784,784,784,784,784,784,784,784,784,784,784,784,784,784,784,784,784,784,784,784,784,784,784,784,784,784,799,806,821,829,850,864,880,894,909,938,952,965,976,985,1000,1010,1023,1038,1052,1069,1073,1078,1084,1092],"ymouse":[624,624,624,624,624,624,624,624,624,624,624,624,624,624,624,624,624,624,624,624,624,624,624,624,624,624,624,624,624,624,624,624,624,624,624,624,624,624,624,624,624,610,604,585,573,545,528,506,484,464,423,403,385,366,341,296,272,251,231,215,179,157,135,113,87],"timestamp_mouse":[10,38,50,70,90,110,130,151,171,191,210,230,251,270,289,309,330,351,369,389,410,430,451,470,490,510,529,551,570,591,609,629,650,670,691,710,730,751,770,790,810,829,850,870,890,910,930,950,970,990,1010,1031,1050,1070,1089,1110,1129,1150,1170,1190,1210,1231,1250,1270,1290],"xSR":741.5,"ySR":573.95,"xT1":424.9,"yT1":0,"xT2":1058.1,"yT2":0,"toosoon":0,"cond_shown":"equaldotsize","ratio_trial":900,"smaller_num":"9","larger_num":"10","correct_side":2,"subjID":"JUANMANUELSALAZARVARON31","gender":"0","age":"11","school":"6"},{"start_time":1551893135070,"click_time":1551893136677,"finger_time":1551893136039,"fix_duration":771.5202381230364,"trial":13,"RT":969,"MT":638,"sideResp":2,"stimulus":"img/500/randomdotsizeEA/R/9_Ratio_500_L_2_R_4.png","xmouse":[808,808,808,808,808,808,808,808,808,808,808,808,808,808,808,808,808,808,808,808,808,808,808,808,808,808,808,808,808,808,808,808,808,808,808,808,808,808,808,808,808,808,808,808,808,808,808,811,834,848,857,861,861,861,861,861,861,861,861,861,861,861,861,861,883,921,960,1012,1020,1022,1022,1025,1025,1031,1033,1035,1040,1044,1053,1066,1081],"ymouse":[600,600,600,600,600,600,600,600,600,600,600,600,600,600,600,600,600,600,600,600,600,600,600,600,600,600,600,600,600,600,600,600,600,600,600,600,600,600,600,600,600,600,600,600,600,600,600,597,563,534,516,491,490,490,490,490,490,490,490,490,490,490,490,487,454,404,358,282,261,250,243,231,227,207,195,180,152,139,121,104,89],"timestamp_mouse":[9,27,48,69,88,109,129,149,168,189,207,228,248,268,288,309,328,348,369,389,408,429,449,468,489,509,527,548,568,589,609,628,649,668,688,709,728,749,769,788,807,829,848,868,889,908,927,948,969,988,1007,1028,1048,1068,1088,1107,1128,1148,1168,1188,1207,1227,1247,1268,1289,1308,1327,1347,1368,1388,1407,1428,1447,1467,1488,1508,1527,1548,1569,1588,1607],"xSR":741.5,"ySR":573.95,"xT1":424.9,"yT1":0,"xT2":1058.1,"yT2":0,"toosoon":0,"cond_shown":"randomdotsizeEA","ratio_trial":500,"smaller_num":"2","larger_num":"4","correct_side":2,"subjID":"JUANMANUELSALAZARVARON31","gender":"0","age":"11","school":"6"},{"start_time":1551893139047,"click_time":1551893140357,"finger_time":1551893139998,"fix_duration":948.8077743079106,"trial":14,"RT":951,"MT":359,"sideResp":1,"stimulus":"img/750/equaldotsize/L/8_Ratio_750_L_4_R_3.png","xmouse":[825,824,818,818,817,814,812,807,807,807,807,807,807,807,807,807,807,807,807,807,807,807,807,807,807,807,807,807,807,807,807,807,807,807,807,807,807,807,806,806,805,805,804,804,802,799,789,726,687,649,610,596,584,557,535,509,486,463,446,445,444,444,442,437,436,436],"ymouse":[634,630,618,618,616,618,623,631,631,631,631,631,631,631,633,635,635,635,635,635,635,635,635,635,635,635,635,635,635,635,635,635,635,635,635,635,635,634,631,630,629,627,622,618,612,599,574,453,386,329,269,251,236,213,202,190,179,167,156,155,155,154,149,130,115,94],"timestamp_mouse":[10,30,64,71,90,110,130,151,172,191,211,232,251,270,290,311,332,352,371,390,411,432,451,472,490,511,532,551,571,590,610,630,651,671,691,712,730,750,771,791,811,830,851,872,891,911,930,951,970,990,1010,1030,1050,1070,1090,1110,1131,1151,1170,1191,1210,1231,1251,1271,1291,1310],"xSR":741.5,"ySR":573.95,"xT1":424.9,"yT1":0,"xT2":1058.1,"yT2":0,"toosoon":0,"cond_shown":"equaldotsize","ratio_trial":750,"smaller_num":"3","larger_num":"4","correct_side":1,"subjID":"JUANMANUELSALAZARVARON31","gender":"0","age":"11","school":"6"},{"start_time":1551893142465,"click_time":1551893143679,"finger_time":1551893143137,"fix_duration":946.4114632777754,"trial":15,"RT":672,"MT":542,"sideResp":1,"stimulus":"img/500/equaldotanddens/L/4_Ratio_500_L_18_R_9.png","xmouse":[780,780,780,780,780,780,780,780,780,780,780,780,780,780,780,780,780,780,780,780,780,780,780,780,780,780,780,780,780,780,780,780,782,782,780,770,754,707,668,543,430,308,181,175,182,199,224,269,279,284,292,296,306,312,316,321,328,339,344,389,439],"ymouse":[613,613,613,613,613,613,613,613,613,613,613,613,613,613,613,613,613,613,613,613,613,613,613,613,613,613,613,613,613,613,613,614,583,558,532,498,455,380,344,291,261,241,201,193,182,163,145,114,104,96,86,82,81,81,82,84,85,86,86,86,86],"timestamp_mouse":[13,48,54,73,93,112,133,154,172,193,214,233,252,274,293,314,333,353,372,393,413,432,453,472,493,512,533,554,573,594,613,633,652,672,693,714,734,753,773,793,812,832,852,873,892,912,932,952,974,993,1013,1032,1052,1072,1092,1113,1133,1153,1172,1193,1214],"xSR":741.5,"ySR":573.95,"xT1":424.9,"yT1":0,"xT2":1058.1,"yT2":0,"toosoon":0,"cond_shown":"equaldotanddens","ratio_trial":500,"smaller_num":"9","larger_num":"18","correct_side":1,"subjID":"JUANMANUELSALAZARVARON31","gender":"0","age":"11","school":"6"},{"start_time":1551893145732,"click_time":1551893147198,"finger_time":1551893146938,"fix_duration":1032.941166406159,"trial":16,"RT":1206,"MT":260,"sideResp":1,"stimulus":"img/750/equaldotanddens/L/13_Ratio_750_L_8_R_6.png","xmouse":[777,777,777,777,777,777,777,777,777,777,777,777,777,777,777,777,777,777,777,777,777,777,777,777,777,777,777,777,777,777,777,777,777,777,777,777,777,777,777,777,777,777,777,777,777,777,777,777,777,777,777,777,777,777,777,777,777,777,777,777,754,725,686,659,647,645,644,640,637,632,608,578,534,493],"ymouse":[617,617,617,617,617,617,617,617,617,617,617,617,617,617,617,617,617,617,617,617,617,617,617,617,617,617,617,617,617,617,617,617,617,617,617,617,617,617,617,617,617,617,617,617,617,617,617,617,617,617,617,617,617,617,617,617,617,617,603,589,509,434,363,313,274,265,257,245,236,223,183,146,103,66],"timestamp_mouse":[8,27,45,66,85,106,125,146,165,185,205,225,245,266,286,305,326,347,366,386,406,425,446,467,485,506,526,545,565,585,605,625,646,665,686,705,727,746,766,786,805,825,845,867,887,905,926,946,967,987,1006,1025,1045,1067,1085,1106,1125,1145,1165,1186,1205,1226,1245,1266,1286,1305,1325,1347,1366,1385,1406,1425,1445,1465],"xSR":741.5,"ySR":573.95,"xT1":424.9,"yT1":0,"xT2":1058.1,"yT2":0,"toosoon":0,"cond_shown":"equaldotanddens","ratio_trial":750,"smaller_num":"6","larger_num":"8","correct_side":1,"subjID":"JUANMANUELSALAZARVARON31","gender":"0","age":"11","school":"6"},{"start_time":1551893148069,"click_time":1551893149358,"finger_time":1551893149019,"fix_duration":250,"trial":17,"RT":950,"MT":339,"sideResp":2,"stimulus":"img/900/randomdotsizeEA/R/12_Ratio_900_L_18_R_20.png","xmouse":[778,778,778,778,778,778,778,778,778,778,778,778,778,778,778,778,778,778,778,778,778,778,778,778,778,778,778,778,778,778,778,778,778,778,778,778,778,778,778,778,778,778,778,778,788,805,816,829,850,863,875,886,895,905,907,909,916,937,997,1022,1035,1043,1049,1066,1079],"ymouse":[631,631,631,631,631,631,631,631,631,631,631,631,631,631,631,631,631,631,631,631,631,631,631,631,631,631,631,631,631,631,631,631,631,631,631,631,631,631,631,631,631,631,631,632,622,595,577,553,504,475,445,420,401,381,378,370,357,323,250,219,193,171,149,100,71],"timestamp_mouse":[9,35,48,70,90,108,130,149,169,188,210,228,249,269,288,308,330,349,369,390,410,428,449,468,488,509,529,549,568,589,608,630,650,668,690,708,730,748,768,789,808,828,850,868,889,908,928,949,970,989,1009,1028,1049,1068,1088,1108,1129,1149,1168,1189,1208,1228,1249,1268,1289],"xSR":741.5,"ySR":573.95,"xT1":424.9,"yT1":0,"xT2":1058.1,"yT2":0,"toosoon":0,"cond_shown":"randomdotsizeEA","ratio_trial":900,"smaller_num":"18","larger_num":"20","correct_side":2,"subjID":"JUANMANUELSALAZARVARON31","gender":"0","age":"11","school":"6"},{"start_time":1551893150781,"click_time":1551893152038,"finger_time":1551893151618,"fix_duration":741.6186006555761,"trial":18,"RT":837,"MT":420,"sideResp":1,"stimulus":"img/500/randomdotsizeEA/L/8_Ratio_500_L_8_R_4.png","xmouse":[803,803,803,803,803,803,803,803,803,803,803,803,803,803,803,803,803,803,799,797,792,787,782,781,781,781,781,781,781,781,781,780,780,780,780,780,780,780,780,780,780,780,739,710,698,691,686,674,655,628,599,581,575,575,572,562,549,534,530,527,527,526,524],"ymouse":[629,629,629,629,629,629,629,629,629,629,629,629,629,629,629,629,629,629,628,625,621,615,607,607,607,607,607,607,607,607,607,607,607,607,607,607,607,607,607,607,596,563,405,335,308,291,279,249,214,175,145,123,110,108,105,102,98,84,79,75,75,75,80],"timestamp_mouse":[16,37,57,76,98,117,138,156,176,197,217,236,258,276,296,317,338,357,376,397,416,438,456,476,496,516,536,557,578,596,617,636,657,678,696,717,737,756,777,796,817,837,857,876,896,917,956,957,977,996,1016,1036,1056,1076,1098,1116,1137,1156,1176,1197,1218,1237,1257],"xSR":741.5,"ySR":573.95,"xT1":424.9,"yT1":0,"xT2":1058.1,"yT2":0,"toosoon":0,"cond_shown":"randomdotsizeEA","ratio_trial":500,"smaller_num":"4","larger_num":"8","correct_side":1,"subjID":"JUANMANUELSALAZARVARON31","gender":"0","age":"11","school":"6"},{"start_time":1551893153879,"click_time":1551893155017,"finger_time":1551893154437,"fix_duration":958.4200203720623,"trial":19,"RT":558,"MT":580,"sideResp":1,"stimulus":"img/250/equaldotsize/L/2_Ratio_250_L_16_R_4.png","xmouse":[786,786,786,786,786,786,786,786,786,786,786,786,786,786,786,786,786,786,786,786,786,786,786,786,786,786,786,785,766,750,736,724,717,711,688,666,639,610,586,549,545,545,545,545,541,536,536,535,535,535,535,534,532,524,519,513,506,496],"ymouse":[647,647,647,647,647,647,647,647,647,647,647,647,647,647,647,647,647,647,647,647,647,647,647,647,645,629,617,602,568,545,522,501,484,467,414,374,329,288,252,206,201,201,201,201,187,177,174,174,174,174,174,172,169,155,138,120,101,80],"timestamp_mouse":[1,18,42,59,78,98,118,138,158,178,198,218,238,258,278,298,319,340,359,380,399,420,439,460,479,499,518,538,558,579,600,619,638,658,679,698,719,738,758,778,799,818,838,858,878,898,918,939,959,979,998,1018,1038,1059,1078,1098,1118,1138],"xSR":741.5,"ySR":573.95,"xT1":424.9,"yT1":0,"xT2":1058.1,"yT2":0,"toosoon":0,"cond_shown":"equaldotsize","ratio_trial":250,"smaller_num":"4","larger_num":"16","correct_side":1,"subjID":"JUANMANUELSALAZARVARON31","gender":"0","age":"11","school":"6"},{"start_time":1551893158444,"click_time":1551893159997,"finger_time":1551893159219,"fix_duration":1225.6212854772982,"trial":20,"RT":775,"MT":778,"sideResp":2,"stimulus":"img/250/equaldotsize/R/9_Ratio_250_L_3_R_12.png","xmouse":[797,797,797,797,797,797,797,797,797,797,797,797,797,797,797,797,797,797,797,797,797,797,797,797,797,797,797,794,790,786,784,780,776,771,771,771,771,771,777,792,836,861,886,909,918,934,944,955,964,973,990,1006,1028,1036,1043,1045,1047,1049,1055,1062,1072,1076,1078,1080,1085,1098,1104,1107,1109,1109,1109,1109,1110,1110,1111,1112,1112,1111],"ymouse":[641,641,641,641,641,641,641,641,641,641,641,641,641,641,641,641,641,641,641,641,641,641,641,641,641,641,641,641,639,635,626,614,604,595,595,595,595,588,564,540,493,475,458,437,430,412,405,396,391,383,359,339,311,297,285,280,276,270,262,253,238,227,221,214,202,178,168,161,157,151,139,132,127,122,117,109,102,92],"timestamp_mouse":[14,42,55,74,93,114,133,154,174,193,213,234,254,274,295,314,334,354,374,395,414,434,454,474,495,514,534,553,573,593,614,635,654,673,694,715,734,754,775,795,813,834,853,873,893,914,933,954,974,994,1013,1034,1053,1073,1094,1113,1133,1153,1174,1193,1213,1233,1253,1273,1293,1313,1334,1354,1373,1394,1414,1433,1453,1474,1493,1513,1533,1553],"xSR":741.5,"ySR":573.95,"xT1":424.9,"yT1":0,"xT2":1058.1,"yT2":0,"toosoon":0,"cond_shown":"equaldotsize","ratio_trial":250,"smaller_num":"3","larger_num":"12","correct_side":2,"subjID":"JUANMANUELSALAZARVARON31","gender":"0","age":"11","school":"6"},{"start_time":1551893162553,"click_time":1551893163838,"finger_time":1551893163577,"fix_duration":694.1699692320108,"trial":21,"RT":1024,"MT":261,"sideResp":1,"stimulus":"img/900/equaldotanddens/L/2_Ratio_900_L_20_R_18.png","xmouse":[788,788,788,788,788,788,788,788,788,788,788,788,788,788,788,788,787,786,786,786,786,786,786,786,786,786,786,786,786,786,786,786,786,786,786,786,786,786,784,784,784,784,784,783,783,783,783,783,783,783,783,776,768,753,724,692,614,585,561,542,520,515,513,513,513],"ymouse":[617,617,617,617,617,617,617,617,617,617,617,617,617,617,617,617,617,618,618,618,618,618,618,618,618,618,618,618,618,618,618,618,618,618,618,618,618,618,618,618,618,618,618,615,615,615,615,615,615,608,598,563,537,499,451,407,312,278,246,214,162,142,124,105,91],"timestamp_mouse":[16,42,44,64,85,105,126,145,166,184,205,224,246,265,285,304,325,345,365,385,404,426,444,465,485,505,524,546,566,584,606,624,644,664,686,704,725,745,765,784,805,826,845,864,885,905,926,945,964,984,1004,1024,1045,1064,1086,1105,1126,1144,1164,1185,1205,1224,1244,1264,1285],"xSR":741.5,"ySR":573.95,"xT1":424.9,"yT1":0,"xT2":1058.1,"yT2":0,"toosoon":0,"cond_shown":"equaldotanddens","ratio_trial":900,"smaller_num":"18","larger_num":"20","correct_side":1,"subjID":"JUANMANUELSALAZARVARON31","gender":"0","age":"11","school":"6"},{"start_time":1551893167210,"click_time":1551893168377,"finger_time":1551893167938,"fix_duration":310.1988605269705,"trial":22,"RT":728,"MT":439,"sideResp":1,"stimulus":"img/250/equaldotsize/L/7_Ratio_250_L_8_R_2.png","xmouse":[807,807,807,807,807,807,807,807,807,807,807,807,807,807,807,807,807,807,807,807,807,807,807,807,807,807,807,807,807,807,807,806,805,804,800,791,775,750,645,541,519,494,494,495,496,496,496,496,508,518,530,545,549,550,550,550,549,543,512],"ymouse":[632,632,632,632,632,632,632,632,632,632,632,632,632,632,632,632,632,632,632,632,632,632,632,632,632,632,632,632,632,632,632,632,632,631,616,595,571,540,451,377,361,338,337,330,322,310,290,265,207,180,154,125,111,100,99,99,98,98,92],"timestamp_mouse":[9,36,48,69,87,108,127,147,167,187,207,228,248,268,289,308,328,347,368,389,407,428,448,467,489,507,529,547,568,588,607,627,649,667,687,707,728,748,768,787,808,827,847,867,888,908,927,947,967,989,1008,1028,1048,1067,1087,1108,1128,1147,1167],"xSR":741.5,"ySR":573.95,"xT1":424.9,"yT1":0,"xT2":1058.1,"yT2":0,"toosoon":0,"cond_shown":"equaldotsize","ratio_trial":250,"smaller_num":"2","larger_num":"8","correct_side":1,"subjID":"JUANMANUELSALAZARVARON31","gender":"0","age":"11","school":"6"},{"start_time":1551893169496,"click_time":1551893170817,"finger_time":1551893170238,"fix_duration":297.26163099025416,"trial":23,"RT":742,"MT":579,"sideResp":2,"stimulus":"img/250/equaldotsize/R/13_Ratio_250_L_2_R_8.png","xmouse":[794,794,794,794,794,794,794,794,794,794,794,794,794,794,794,794,794,794,794,794,794,794,794,794,794,794,794,794,794,794,794,794,794,794,794,794,822,899,963,1030,1056,1079,1100,1115,1129,1129,1129,1130,1130,1130,1115,1096,1077,1062,1051,1045,1045,1045,1045,1045,1048,1059,1071,1080,1089,1091,1093],"ymouse":[622,622,622,622,622,622,622,622,622,622,622,622,622,622,622,622,622,622,622,622,622,622,622,622,622,622,622,622,622,622,622,622,622,622,622,622,604,542,489,413,377,346,320,297,244,236,225,224,224,218,205,189,173,161,149,139,137,137,137,137,134,129,123,118,109,106,99],"timestamp_mouse":[9,37,41,61,83,102,122,142,161,182,202,223,241,261,283,302,321,341,362,381,402,421,443,461,482,502,522,541,561,582,601,621,642,663,681,701,721,742,761,781,801,821,841,862,882,903,922,941,962,982,1001,1021,1042,1061,1081,1101,1122,1142,1162,1181,1201,1221,1242,1261,1282,1302,1321],"xSR":741.5,"ySR":573.95,"xT1":424.9,"yT1":0,"xT2":1058.1,"yT2":0,"toosoon":0,"cond_shown":"equaldotsize","ratio_trial":250,"smaller_num":"2","larger_num":"8","correct_side":2,"subjID":"JUANMANUELSALAZARVARON31","gender":"0","age":"11","school":"6"},{"start_time":1551893173012,"click_time":1551893174317,"finger_time":1551893173838,"fix_duration":1232.9764059871595,"trial":24,"RT":826,"MT":479,"sideResp":2,"stimulus":"img/250/randomdotsizeEA/R/13_Ratio_250_L_2_R_8.png","xmouse":[778,779,780,781,781,781,781,781,781,781,781,781,781,781,781,781,781,781,781,781,781,781,781,781,781,781,781,781,781,781,781,781,781,781,781,781,781,781,781,781,792,846,938,1052,1068,1074,1074,1074,1078,1100,1118,1136,1147,1154,1153,1152,1151,1151,1151,1142,1135,1133,1133,1132,1126,1122],"ymouse":[601,602,605,608,608,608,608,608,608,608,608,608,608,608,608,608,608,608,608,608,608,608,608,608,608,608,608,608,608,608,608,608,608,608,608,608,608,608,608,608,607,582,537,463,440,409,376,329,304,257,231,211,193,159,147,142,139,137,131,114,108,107,106,105,100,93],"timestamp_mouse":[8,27,46,65,85,105,126,145,167,186,207,226,245,266,286,305,326,347,365,386,406,425,446,467,486,507,526,546,565,585,606,626,646,665,687,705,725,746,765,786,805,826,845,866,885,906,926,945,965,987,1006,1025,1046,1067,1085,1106,1125,1146,1166,1185,1206,1227,1246,1266,1285,1305],"xSR":741.5,"ySR":573.95,"xT1":424.9,"yT1":0,"xT2":1058.1,"yT2":0,"toosoon":0,"cond_shown":"randomdotsizeEA","ratio_trial":250,"smaller_num":"2","larger_num":"8","correct_side":2,"subjID":"JUANMANUELSALAZARVARON31","gender":"0","age":"11","school":"6"},{"start_time":1551893175701,"click_time":1551893176958,"finger_time":1551893176539,"fix_duration":502.22177061393825,"trial":25,"RT":838,"MT":419,"sideResp":2,"stimulus":"img/900/equaldotsize/R/7_Ratio_900_L_9_R_10.png","xmouse":[781,781,781,781,781,781,781,781,781,781,781,781,781,781,781,781,781,781,781,781,781,781,781,781,781,781,781,781,781,781,781,781,781,781,781,781,781,781,781,792,825,838,880,906,936,946,962,982,1010,1066,1092,1104,1110,1114,1115,1116,1117,1117,1117,1117,1115,1115,1114],"ymouse":[610,610,610,610,610,610,610,610,610,610,610,610,610,610,610,610,610,610,610,610,610,610,610,610,610,610,610,610,610,610,610,610,610,610,610,610,610,610,610,604,579,571,534,501,452,434,412,387,352,283,247,230,221,215,210,204,198,189,179,145,119,110,92],"timestamp_mouse":[17,36,56,77,97,116,136,156,177,196,217,236,256,277,297,318,338,357,377,397,417,437,456,477,496,518,536,558,578,596,617,637,656,676,698,716,736,758,776,797,816,838,857,877,896,917,937,957,976,997,1017,1036,1056,1076,1096,1116,1137,1157,1176,1197,1216,1237,1257],"xSR":741.5,"ySR":573.95,"xT1":424.9,"yT1":0,"xT2":1058.1,"yT2":0,"toosoon":0,"cond_shown":"equaldotsize","ratio_trial":900,"smaller_num":"9","larger_num":"10","correct_side":2,"subjID":"JUANMANUELSALAZARVARON31","gender":"0","age":"11","school":"6"},{"start_time":1551893179158,"click_time":1551893180297,"finger_time":1551893179917,"fix_duration":1359.3741730847808,"trial":26,"RT":759,"MT":380,"sideResp":1,"stimulus":"img/250/randomdotsizeEA/L/2_Ratio_250_L_16_R_4.png","xmouse":[787,787,787,787,787,787,786,784,783,783,783,783,783,783,783,783,783,783,783,783,783,783,783,783,783,783,783,783,783,783,783,781,781,781,781,781,781,781,772,750,735,726,694,673,657,645,633,613,597,585,572,558,535,532,530,528,526,506],"ymouse":[622,622,622,622,622,622,622,623,624,624,624,624,624,624,624,624,624,624,624,624,624,624,624,624,624,624,624,624,624,624,624,625,625,625,625,625,625,624,572,514,469,425,311,272,243,226,210,186,170,159,150,137,121,119,117,116,114,97],"timestamp_mouse":[1,20,39,60,79,100,119,139,160,180,200,220,239,260,280,301,321,339,359,381,400,419,440,461,480,499,520,539,560,581,599,619,640,661,679,701,720,739,759,779,801,820,840,859,880,899,919,939,960,979,1001,1020,1040,1059,1080,1099,1119,1139],"xSR":741.5,"ySR":573.95,"xT1":424.9,"yT1":0,"xT2":1058.1,"yT2":0,"toosoon":0,"cond_shown":"randomdotsizeEA","ratio_trial":250,"smaller_num":"4","larger_num":"16","correct_side":1,"subjID":"JUANMANUELSALAZARVARON31","gender":"0","age":"11","school":"6"},{"start_time":1551893181576,"click_time":1551893183159,"finger_time":1551893182797,"fix_duration":396.1159487899264,"trial":27,"RT":1221,"MT":362,"sideResp":2,"stimulus":"img/750/randomdotsizeEA/R/11_Ratio_750_L_12_R_16.png","xmouse":[796,796,796,796,796,796,796,796,796,796,796,796,796,796,796,796,796,796,796,796,796,796,796,796,796,796,796,796,796,796,796,796,796,796,796,796,796,796,796,796,796,796,796,796,796,796,796,796,796,796,796,796,796,796,796,796,796,796,802,817,831,847,881,897,911,923,933,988,1016,1033,1046,1058,1062,1064,1065,1065,1066,1076,1084,1091],"ymouse":[634,634,634,634,634,634,634,634,634,634,634,634,634,634,634,634,634,634,634,634,634,634,634,634,634,634,634,634,634,634,634,634,634,634,634,634,634,634,634,634,634,634,634,634,634,634,634,634,634,634,634,634,634,634,634,634,634,634,624,605,585,557,476,427,378,329,296,212,187,172,158,138,130,125,122,122,120,112,101,85],"timestamp_mouse":[8,23,41,62,82,103,121,141,163,183,201,221,243,262,283,301,322,342,362,383,402,421,443,463,482,503,521,541,562,583,602,621,642,661,682,701,721,742,762,783,802,822,841,861,882,902,921,941,963,982,1001,1021,1042,1063,1082,1101,1121,1141,1162,1182,1201,1221,1241,1261,1282,1303,1322,1342,1361,1382,1401,1422,1441,1462,1481,1501,1522,1543,1562,1583],"xSR":741.5,"ySR":573.95,"xT1":424.9,"yT1":0,"xT2":1058.1,"yT2":0,"toosoon":0,"cond_shown":"randomdotsizeEA","ratio_trial":750,"smaller_num":"12","larger_num":"16","correct_side":2,"subjID":"JUANMANUELSALAZARVARON31","gender":"0","age":"11","school":"6"},{"start_time":1551893184563,"click_time":1551893185717,"finger_time":1551893185357,"fix_duration":562.3086659977787,"trial":28,"RT":794,"MT":360,"sideResp":2,"stimulus":"img/750/equaldotsize/R/7_Ratio_750_L_3_R_4.png","xmouse":[825,825,825,825,825,825,825,825,825,825,825,825,825,825,825,825,825,825,825,825,825,825,825,825,825,825,825,825,825,825,825,825,825,825,825,825,825,825,825,841,853,880,929,950,975,985,993,996,997,1001,1006,1012,1019,1021,1024,1036,1044,1061],"ymouse":[587,587,587,587,587,587,587,587,587,587,587,587,587,587,587,587,587,587,587,587,587,587,587,587,587,587,587,587,587,587,587,587,587,587,587,587,587,587,587,560,539,491,408,367,320,297,270,234,217,203,189,175,149,136,126,104,92,69],"timestamp_mouse":[14,47,54,75,95,115,134,156,174,196,216,235,255,275,294,315,335,355,375,395,414,434,454,475,495,515,535,555,574,595,615,634,655,675,695,714,734,755,776,794,814,834,855,875,894,915,934,954,974,994,1015,1034,1054,1075,1095,1115,1135,1154],"xSR":741.5,"ySR":573.95,"xT1":424.9,"yT1":0,"xT2":1058.1,"yT2":0,"toosoon":0,"cond_shown":"equaldotsize","ratio_trial":750,"smaller_num":"3","larger_num":"4","correct_side":2,"subjID":"JUANMANUELSALAZARVARON31","gender":"0","age":"11","school":"6"},{"start_time":1551893187216,"click_time":1551893188417,"finger_time":1551893188017,"fix_duration":495.93066294268294,"trial":29,"RT":801,"MT":400,"sideResp":1,"stimulus":"img/900/equaldotsize/L/2_Ratio_900_L_20_R_18.png","xmouse":[810,810,810,810,810,810,810,810,810,810,810,810,810,810,810,810,810,810,810,810,810,810,810,810,810,810,810,810,810,810,810,808,803,801,798,798,798,798,796,790,752,732,721,711,701,682,634,622,621,621,621,617,616,612,607,576,564,554,549,542,523],"ymouse":[608,608,608,608,608,608,608,608,608,608,608,608,608,608,608,608,608,608,608,608,608,608,608,608,608,608,608,608,608,608,608,607,604,603,600,598,597,595,589,574,530,499,475,443,409,361,266,229,207,189,140,92,59,33,9,0,0,0,0,0,1],"timestamp_mouse":[8,21,50,62,81,102,122,141,163,181,201,221,242,262,281,301,321,343,361,382,402,423,443,461,483,502,522,541,561,581,601,621,641,661,681,701,721,743,762,782,801,821,841,861,882,902,921,941,962,982,1001,1022,1041,1062,1083,1102,1121,1141,1161,1183,1201],"xSR":741.5,"ySR":573.95,"xT1":424.9,"yT1":0,"xT2":1058.1,"yT2":0,"toosoon":0,"cond_shown":"equaldotsize","ratio_trial":900,"smaller_num":"18","larger_num":"20","correct_side":1,"subjID":"JUANMANUELSALAZARVARON31","gender":"0","age":"11","school":"6"},{"start_time":1551893190779,"click_time":1551893192019,"finger_time":1551893191479,"fix_duration":1260.9168042428896,"trial":30,"RT":700,"MT":540,"sideResp":2,"stimulus":"img/750/equaldotsize/R/3_Ratio_750_L_15_R_20.png","xmouse":[787,787,787,787,787,787,787,787,787,787,787,787,787,787,787,787,787,787,787,787,787,787,789,789,789,789,789,789,789,789,789,790,813,828,843,862,890,951,983,1015,1039,1075,1097,1100,1100,1100,1100,1099,1100,1103,1105,1107,1110,1111,1112,1113,1113,1114,1114,1114,1113,1113],"ymouse":[652,652,652,652,652,652,652,652,652,652,652,652,652,652,652,652,652,652,652,652,652,652,650,649,649,649,649,649,649,649,649,648,619,606,592,572,539,458,429,405,388,369,351,334,313,287,261,223,208,195,183,165,144,136,129,125,120,110,106,102,100,99],"timestamp_mouse":[20,38,59,80,100,118,138,159,179,200,218,238,260,278,298,319,340,360,379,399,420,440,458,478,498,520,539,559,580,600,620,639,658,678,700,719,739,758,778,799,820,839,858,878,899,918,938,958,979,999,1020,1039,1058,1078,1100,1119,1139,1158,1178,1198,1219,1239],"xSR":741.5,"ySR":573.95,"xT1":424.9,"yT1":0,"xT2":1058.1,"yT2":0,"toosoon":0,"cond_shown":"equaldotsize","ratio_trial":750,"smaller_num":"15","larger_num":"20","correct_side":2,"subjID":"JUANMANUELSALAZARVARON31","gender":"0","age":"11","school":"6"},{"start_time":1551893196924,"click_time":1551893197998,"finger_time":1551893197558,"fix_duration":345.77585238006094,"trial":31,"RT":634,"MT":440,"sideResp":2,"stimulus":"img/500/equaldotsize/R/3_Ratio_500_L_10_R_20.png","xmouse":[767,767,767,767,767,767,767,767,767,767,767,767,767,767,767,767,767,767,767,767,767,767,767,767,767,767,767,767,767,771,820,850,874,908,944,984,994,997,997,1005,1026,1106,1132,1147,1153,1158,1158,1158,1158,1158,1158,1158,1158,1157],"ymouse":[631,631,631,631,631,631,631,631,631,631,631,631,631,631,631,631,631,631,631,631,631,631,631,631,631,631,631,631,631,629,578,552,525,481,421,330,269,214,165,122,78,0,0,0,0,0,0,0,0,0,0,0,0,2],"timestamp_mouse":[14,37,54,74,93,113,133,154,174,195,213,235,255,274,293,313,333,354,373,394,414,433,454,475,493,513,535,553,574,593,615,634,653,675,694,713,733,753,774,793,813,833,853,873,893,915,933,953,975,994,1015,1035,1054,1074],"xSR":741.5,"ySR":573.95,"xT1":424.9,"yT1":0,"xT2":1058.1,"yT2":0,"toosoon":0,"cond_shown":"equaldotsize","ratio_trial":500,"smaller_num":"10","larger_num":"20","correct_side":2,"subjID":"JUANMANUELSALAZARVARON31","gender":"0","age":"11","school":"6"},{"start_time":1551893200000,"click_time":1551893200799,"finger_time":1551893200678,"fix_duration":1141.4058536698003,"trial":32,"RT":678,"MT":121,"sideResp":1,"stimulus":"img/500/randomdotsizeEA/L/8_Ratio_500_L_8_R_4.png","xmouse":[778,778,778,778,778,778,778,778,778,778,778,778,778,778,778,778,778,778,778,778,778,778,778,778,778,778,778,778,778,778,778,778,774,758,728,677,577,470,452,448],"ymouse":[627,627,627,627,627,627,627,627,627,627,627,627,627,627,627,627,627,627,627,627,627,627,627,627,627,627,627,627,627,627,627,627,609,554,469,381,242,128,107,97],"timestamp_mouse":[17,37,57,77,98,118,138,157,178,197,219,237,257,277,297,318,338,358,377,399,419,437,457,477,498,517,538,557,577,597,617,637,657,678,697,719,738,758,778,799],"xSR":741.5,"ySR":573.95,"xT1":424.9,"yT1":0,"xT2":1058.1,"yT2":0,"toosoon":0,"cond_shown":"randomdotsizeEA","ratio_trial":500,"smaller_num":"4","larger_num":"8","correct_side":1,"subjID":"JUANMANUELSALAZARVARON31","gender":"0","age":"11","school":"6"},{"start_time":1551893202260,"click_time":1551893203358,"finger_time":1551893202957,"fix_duration":600.3408951660001,"trial":33,"RT":697,"MT":401,"sideResp":1,"stimulus":"img/500/equaldotsize/L/8_Ratio_500_L_8_R_4.png","xmouse":[813,813,813,813,813,813,813,813,813,813,813,813,813,813,813,813,813,813,813,813,813,813,813,813,813,813,813,813,813,813,813,813,813,813,781,735,673,620,579,545,535,534,534,533,531,531,531,531,531,528,527,527,527,527,518],"ymouse":[623,623,623,623,623,623,623,623,623,623,623,623,623,623,623,623,623,623,623,623,623,623,623,623,623,623,623,623,623,623,623,623,621,616,540,473,395,331,271,169,86,61,18,9,0,0,0,0,0,0,0,0,0,0,5],"timestamp_mouse":[18,39,62,79,97,117,137,159,178,197,219,237,257,278,297,318,338,357,378,398,419,438,457,477,498,518,538,557,579,597,617,638,657,677,697,717,738,758,778,797,817,838,857,877,898,918,937,957,978,998,1017,1038,1059,1077,1098],"xSR":741.5,"ySR":573.95,"xT1":424.9,"yT1":0,"xT2":1058.1,"yT2":0,"toosoon":0,"cond_shown":"equaldotsize","ratio_trial":500,"smaller_num":"4","larger_num":"8","correct_side":1,"subjID":"JUANMANUELSALAZARVARON31","gender":"0","age":"11","school":"6"},{"start_time":1551893204878,"click_time":1551893206039,"finger_time":1551893205558,"fix_duration":518.8976499825932,"trial":34,"RT":680,"MT":481,"sideResp":2,"stimulus":"img/900/randomdotsizeEA/R/12_Ratio_900_L_18_R_20.png","xmouse":[782,782,782,782,782,782,782,782,782,782,782,782,782,782,782,782,782,782,782,782,782,782,782,782,782,782,782,782,782,782,782,782,782,791,832,851,867,875,882,894,897,902,911,919,938,944,954,960,964,965,965,965,969,981,1022,1037,1046,1056,1060],"ymouse":[598,598,598,598,598,598,598,598,598,598,598,598,598,598,598,598,598,598,598,598,598,598,598,598,598,598,598,598,598,598,598,598,598,589,522,495,471,451,431,353,305,270,237,209,145,124,107,101,98,97,97,97,97,97,95,92,88,82,79],"timestamp_mouse":[10,34,39,60,79,99,120,140,161,180,199,220,239,259,279,300,321,340,360,379,401,419,439,459,479,500,519,539,560,580,599,619,639,659,680,699,719,739,760,780,799,819,841,860,880,899,919,939,960,980,1000,1019,1040,1060,1080,1099,1120,1140,1161],"xSR":741.5,"ySR":573.95,"xT1":424.9,"yT1":0,"xT2":1058.1,"yT2":0,"toosoon":0,"cond_shown":"randomdotsizeEA","ratio_trial":900,"smaller_num":"18","larger_num":"20","correct_side":2,"subjID":"JUANMANUELSALAZARVARON31","gender":"0","age":"11","school":"6"},{"start_time":1551893208126,"click_time":1551893209097,"finger_time":1551893208759,"fix_duration":1168.0558875447284,"trial":35,"RT":633,"MT":338,"sideResp":1,"stimulus":"img/250/equaldotsize/L/2_Ratio_250_L_16_R_4.png","xmouse":[806,806,806,806,806,806,806,806,806,806,806,806,806,806,806,806,806,806,806,806,806,806,806,806,806,806,806,806,799,776,755,719,704,690,674,657,605,503,481,466,460,458,462,466,468,468,466,470,495],"ymouse":[635,635,635,635,635,635,635,635,635,635,635,635,635,635,635,635,635,635,635,635,635,635,635,635,635,635,635,635,633,613,582,532,513,497,478,460,414,353,336,326,319,313,290,273,255,227,186,126,88],"timestamp_mouse":[12,35,53,72,91,113,132,151,172,192,212,233,251,271,293,312,331,352,372,391,413,431,453,472,492,513,533,551,571,591,611,633,652,671,692,711,732,751,772,791,812,831,851,872,891,912,931,951,971],"xSR":741.5,"ySR":573.95,"xT1":424.9,"yT1":0,"xT2":1058.1,"yT2":0,"toosoon":0,"cond_shown":"equaldotsize","ratio_trial":250,"smaller_num":"4","larger_num":"16","correct_side":1,"subjID":"JUANMANUELSALAZARVARON31","gender":"0","age":"11","school":"6"},{"start_time":1551893210194,"click_time":1551893211657,"finger_time":1551893210979,"fix_duration":273.802881194243,"trial":36,"RT":785,"MT":678,"sideResp":2,"stimulus":"img/900/equaldotanddens/L/4_Ratio_900_L_20_R_18.png","xmouse":[787,787,787,787,787,787,787,787,787,787,787,787,787,787,787,787,787,787,787,787,787,787,787,787,787,787,787,787,787,787,787,787,787,787,791,793,796,799,802,805,805,805,805,805,805,805,805,805,805,805,808,812,821,828,847,860,878,894,918,966,979,985,985,984,984,984,991,1004,1014,1024,1028,1042,1052,1066],"ymouse":[629,629,629,629,629,629,629,629,629,629,629,629,629,629,629,629,629,629,629,629,629,629,629,629,629,629,629,629,629,629,629,629,629,627,614,604,594,584,575,565,565,565,565,565,565,565,565,565,565,565,560,554,539,527,484,455,419,381,335,234,192,153,133,124,121,120,120,120,116,109,104,100,98,97],"timestamp_mouse":[11,38,44,63,83,103,124,145,164,184,203,224,244,263,284,305,323,345,363,385,403,424,445,465,483,504,523,545,563,584,605,623,644,663,683,703,724,744,765,785,804,823,843,864,885,904,923,943,965,983,1004,1023,1044,1063,1083,1104,1124,1144,1163,1183,1204,1223,1243,1265,1283,1303,1324,1344,1364,1384,1404,1423,1444,1463],"xSR":741.5,"ySR":573.95,"xT1":424.9,"yT1":0,"xT2":1058.1,"yT2":0,"toosoon":0,"cond_shown":"equaldotanddens","ratio_trial":900,"smaller_num":"18","larger_num":"20","correct_side":1,"subjID":"JUANMANUELSALAZARVARON31","gender":"0","age":"11","school":"6"},{"start_time":1551893214777,"click_time":1551893215818,"finger_time":1551893215578,"fix_duration":477.1567097649004,"trial":37,"RT":801,"MT":240,"sideResp":2,"stimulus":"img/500/equaldotanddens/R/2_Ratio_500_L_3_R_6.png","xmouse":[799,799,799,799,799,799,799,799,799,799,799,799,799,799,799,799,799,799,799,799,799,799,799,799,799,799,799,799,799,799,799,799,799,799,799,799,798,807,822,838,869,884,899,910,920,931,953,967,978,1001,1036,1055,1069],"ymouse":[633,633,633,633,633,633,633,633,633,633,633,633,633,633,633,633,633,633,633,633,633,633,633,633,633,633,633,633,633,633,633,633,633,633,633,633,632,622,607,591,537,504,473,453,434,414,370,328,288,206,108,70,46],"timestamp_mouse":[8,32,42,61,81,100,121,140,162,182,201,221,241,260,282,301,320,341,361,380,401,420,440,462,480,501,522,540,561,580,601,622,641,662,681,701,720,740,761,780,801,820,841,862,880,901,921,940,960,980,1001,1020,1041],"xSR":741.5,"ySR":573.95,"xT1":424.9,"yT1":0,"xT2":1058.1,"yT2":0,"toosoon":0,"cond_shown":"equaldotanddens","ratio_trial":500,"smaller_num":"3","larger_num":"6","correct_side":2,"subjID":"JUANMANUELSALAZARVARON31","gender":"0","age":"11","school":"6"},{"start_time":1551893217864,"click_time":1551893219559,"finger_time":1551893218737,"fix_duration":1186.266905377454,"trial":38,"RT":873,"MT":822,"sideResp":2,"stimulus":"img/900/equaldotanddens/L/4_Ratio_900_L_20_R_18.png","xmouse":[757,757,757,757,757,757,757,757,757,757,757,757,757,757,757,757,757,757,757,757,757,757,757,757,757,757,757,757,757,757,757,757,757,757,757,757,753,752,751,751,751,748,747,746,746,745,745,745,745,745,745,745,745,749,772,794,845,858,860,860,860,860,860,860,860,860,860,860,860,860,861,893,926,956,986,997,1005,1009,1016,1022,1025,1033,1039,1063,1082],"ymouse":[626,626,626,626,626,626,626,626,626,626,626,626,626,626,626,626,626,626,626,626,626,626,626,626,626,626,626,626,626,626,626,626,626,626,624,618,602,599,594,590,587,578,574,570,568,566,566,566,566,566,566,566,566,565,552,543,519,512,510,510,510,510,510,510,510,510,510,510,510,510,510,473,443,425,400,387,351,336,319,302,290,246,210,139,95],"timestamp_mouse":[14,35,54,74,93,115,133,153,175,193,214,234,255,273,294,314,335,353,374,393,414,434,455,474,494,513,533,555,575,593,614,633,654,674,695,714,733,753,774,794,813,833,854,873,894,914,933,954,974,995,1013,1034,1054,1074,1093,1114,1133,1154,1173,1193,1214,1233,1255,1274,1293,1314,1335,1354,1373,1393,1414,1433,1454,1474,1494,1514,1534,1554,1573,1594,1613,1633,1654,1673,1695],"xSR":741.5,"ySR":573.95,"xT1":424.9,"yT1":0,"xT2":1058.1,"yT2":0,"toosoon":0,"cond_shown":"equaldotanddens","ratio_trial":900,"smaller_num":"18","larger_num":"20","correct_side":1,"subjID":"JUANMANUELSALAZARVARON31","gender":"0","age":"11","school":"6"},{"start_time":1551893222209,"click_time":1551893223417,"finger_time":1551893223017,"fix_duration":1309.664416562963,"trial":39,"RT":808,"MT":400,"sideResp":1,"stimulus":"img/500/equaldotanddens/L/10_Ratio_500_L_4_R_2.png","xmouse":[768,768,768,768,768,768,768,768,768,768,768,768,768,768,768,768,768,768,768,768,768,768,768,768,768,768,768,768,768,768,768,768,768,768,768,768,768,768,768,749,724,688,654,622,586,571,568,566,564,562,559,559,559,561,563,565,563,554,542,531,517],"ymouse":[624,624,624,624,624,624,624,624,624,624,624,624,624,624,624,624,624,624,624,624,624,624,624,624,624,624,624,624,624,624,624,624,624,624,624,624,624,624,623,589,551,506,466,430,392,351,329,309,297,283,255,232,216,197,179,133,118,107,96,89,78],"timestamp_mouse":[8,40,49,69,88,110,129,150,169,188,210,228,248,269,289,309,330,348,368,390,409,429,448,470,488,509,529,549,568,590,608,628,650,669,688,708,728,750,768,789,808,828,849,869,889,909,928,949,969,988,1009,1028,1049,1068,1088,1110,1129,1150,1168,1188,1208],"xSR":741.5,"ySR":573.95,"xT1":424.9,"yT1":0,"xT2":1058.1,"yT2":0,"toosoon":0,"cond_shown":"equaldotanddens","ratio_trial":500,"smaller_num":"2","larger_num":"4","correct_side":1,"subjID":"JUANMANUELSALAZARVARON31","gender":"0","age":"11","school":"6"},{"start_time":1551893226025,"click_time":1551893227117,"finger_time":1551893226718,"fix_duration":505.6537756533259,"trial":40,"RT":693,"MT":399,"sideResp":2,"stimulus":"img/250/equaldotanddens/R/11_Ratio_250_L_3_R_12.png","xmouse":[793,793,793,793,793,793,793,793,793,793,793,793,793,793,793,793,793,793,793,793,793,793,793,793,793,793,793,793,793,793,793,796,804,825,867,887,904,917,933,960,971,982,994,1014,1034,1043,1048,1054,1058,1068,1075,1079,1083,1083,1083],"ymouse":[616,616,616,616,616,616,616,616,616,616,616,616,616,616,616,616,616,616,616,616,616,616,616,616,616,616,616,616,616,616,616,615,610,598,563,536,509,485,459,419,402,384,364,332,285,263,250,238,232,213,196,176,142,124,97],"timestamp_mouse":[13,41,52,74,92,113,134,152,172,194,213,232,254,274,292,312,334,352,372,394,412,434,452,472,494,512,533,554,573,593,613,633,653,672,693,713,732,753,772,793,814,832,852,872,892,912,933,953,972,992,1012,1033,1053,1072,1092],"xSR":741.5,"ySR":573.95,"xT1":424.9,"yT1":0,"xT2":1058.1,"yT2":0,"toosoon":0,"cond_shown":"equaldotanddens","ratio_trial":250,"smaller_num":"3","larger_num":"12","correct_side":2,"subjID":"JUANMANUELSALAZARVARON31","gender":"0","age":"11","school":"6"},{"start_time":1551893230237,"click_time":1551893231118,"finger_time":1551893230977,"fix_duration":797.9066501595801,"trial":41,"RT":740,"MT":141,"sideResp":1,"stimulus":"img/500/equaldotanddens/L/8_Ratio_500_L_8_R_4.png","xmouse":[810,810,810,810,810,810,810,810,810,810,810,810,810,810,810,810,810,810,810,810,810,810,810,810,810,810,810,810,810,810,810,810,810,810,810,810,811,766,704,565,534,511,491,472,433],"ymouse":[641,641,641,641,641,641,641,641,641,641,641,641,641,641,641,641,641,641,641,641,641,641,641,641,641,641,641,641,641,641,641,641,641,641,641,640,601,498,389,188,155,133,117,103,73],"timestamp_mouse":[8,21,45,61,82,100,121,141,162,180,201,221,242,261,281,300,322,341,362,380,402,421,440,462,481,501,521,541,562,580,601,621,640,660,680,700,720,740,761,781,802,820,840,860,880],"xSR":741.5,"ySR":573.95,"xT1":424.9,"yT1":0,"xT2":1058.1,"yT2":0,"toosoon":0,"cond_shown":"equaldotanddens","ratio_trial":500,"smaller_num":"4","larger_num":"8","correct_side":1,"subjID":"JUANMANUELSALAZARVARON31","gender":"0","age":"11","school":"6"},{"start_time":1551893236520,"click_time":1551893237958,"finger_time":1551893237577,"fix_duration":1400.6803178333184,"trial":42,"RT":1057,"MT":381,"sideResp":1,"stimulus":"img/900/randomdotsizeEA/L/1_Ratio_900_L_10_R_9.png","xmouse":[778,778,778,778,778,778,778,778,778,778,778,778,778,778,778,778,778,778,778,778,778,778,778,778,778,778,778,778,778,778,778,778,778,778,778,778,778,778,778,778,778,778,778,778,778,778,778,778,778,779,779,779,767,740,718,692,682,671,658,640,601,585,569,567,565,564,561,555,546,535,521,516],"ymouse":[660,660,660,660,660,660,660,660,660,660,660,660,660,660,660,660,660,660,660,660,660,660,660,660,660,660,660,660,660,660,660,660,660,660,660,660,660,660,660,660,660,660,660,660,660,660,660,660,660,657,640,612,514,442,393,345,329,311,294,273,235,221,208,206,203,199,192,181,165,140,100,83],"timestamp_mouse":[17,40,59,78,99,118,138,158,178,198,217,239,257,277,299,318,338,358,379,397,417,438,458,477,499,517,537,558,578,597,617,637,658,677,699,718,737,757,778,799,817,839,857,878,898,918,939,957,977,998,1017,1038,1057,1077,1097,1118,1137,1158,1178,1197,1217,1238,1257,1278,1297,1317,1337,1359,1378,1397,1417,1438],"xSR":741.5,"ySR":573.95,"xT1":424.9,"yT1":0,"xT2":1058.1,"yT2":0,"toosoon":0,"cond_shown":"randomdotsizeEA","ratio_trial":900,"smaller_num":"9","larger_num":"10","correct_side":1,"subjID":"JUANMANUELSALAZARVARON31","gender":"0","age":"11","school":"6"},{"start_time":1551893240366,"click_time":1551893241538,"finger_time":1551893241257,"fix_duration":1385.032285532083,"trial":43,"RT":891,"MT":281,"sideResp":2,"stimulus":"img/900/equaldotsize/L/2_Ratio_900_L_20_R_18.png","xmouse":[789,789,789,789,789,789,789,789,789,789,789,789,789,789,789,789,789,789,789,789,789,789,789,789,789,789,789,789,789,789,789,789,789,789,789,789,789,789,789,789,789,789,789,800,821,855,894,922,938,946,957,975,989,1008,1015,1024,1034,1044,1061],"ymouse":[585,585,585,585,585,585,585,585,585,585,585,585,585,585,585,585,585,585,585,585,585,585,585,585,585,585,585,585,585,585,585,585,585,585,585,585,585,585,585,585,585,585,585,576,559,530,491,457,390,328,272,223,187,150,140,129,118,108,90],"timestamp_mouse":[12,37,52,72,93,111,132,152,173,192,212,231,253,271,291,312,331,352,372,392,412,433,451,472,493,511,532,551,573,591,611,633,652,672,691,712,731,752,771,792,811,833,851,871,891,911,932,951,971,992,1011,1032,1052,1071,1091,1112,1132,1151,1171],"xSR":741.5,"ySR":573.95,"xT1":424.9,"yT1":0,"xT2":1058.1,"yT2":0,"toosoon":0,"cond_shown":"equaldotsize","ratio_trial":900,"smaller_num":"18","larger_num":"20","correct_side":1,"subjID":"JUANMANUELSALAZARVARON31","gender":"0","age":"11","school":"6"},{"start_time":1551893242689,"click_time":1551893243799,"finger_time":1551893243457,"fix_duration":250,"trial":44,"RT":768,"MT":342,"sideResp":2,"stimulus":"img/250/equaldotanddens/R/12_Ratio_250_L_5_R_20.png","xmouse":[777,777,777,777,777,777,777,777,777,777,777,777,777,777,777,777,777,777,777,777,777,777,777,777,777,777,777,777,777,777,777,777,777,777,777,777,782,809,833,862,893,944,1045,1167,1191,1197,1198,1198,1198,1198,1200,1203,1194,1180,1161,1141],"ymouse":[596,596,596,596,596,596,596,596,596,596,596,596,596,596,596,596,596,596,596,596,596,596,596,596,596,596,596,596,596,596,596,596,596,596,596,596,595,575,560,538,507,440,337,244,226,216,208,198,191,184,174,161,129,114,96,81],"timestamp_mouse":[9,41,49,68,88,110,129,148,170,188,208,229,248,269,290,309,329,348,370,388,410,428,450,468,488,509,529,549,568,589,609,629,649,668,690,708,728,749,768,788,809,829,848,869,889,908,928,950,968,990,1009,1029,1049,1068,1089,1110],"xSR":741.5,"ySR":573.95,"xT1":424.9,"yT1":0,"xT2":1058.1,"yT2":0,"toosoon":0,"cond_shown":"equaldotanddens","ratio_trial":250,"smaller_num":"5","larger_num":"20","correct_side":2,"subjID":"JUANMANUELSALAZARVARON31","gender":"0","age":"11","school":"6"},{"start_time":1551893247100,"click_time":1551893247897,"finger_time":1551893247758,"fix_duration":901.4813947943286,"trial":45,"RT":658,"MT":139,"sideResp":1,"stimulus":"img/750/equaldotanddens/L/1_Ratio_750_L_20_R_15.png","xmouse":[801,801,801,801,801,801,801,801,801,801,801,801,801,801,801,801,801,801,801,801,801,801,801,801,801,801,801,801,801,801,801,801,798,786,773,754,722,614,545,461],"ymouse":[621,621,621,621,621,621,621,621,621,621,621,621,621,621,621,621,621,621,621,621,621,621,621,621,621,621,621,621,621,621,621,607,568,527,483,433,368,227,161,76],"timestamp_mouse":[18,53,57,77,98,117,137,158,177,198,217,238,258,278,299,319,337,358,379,399,417,437,459,479,498,519,537,557,577,598,618,637,658,677,697,717,739,757,778,797],"xSR":741.5,"ySR":573.95,"xT1":424.9,"yT1":0,"xT2":1058.1,"yT2":0,"toosoon":0,"cond_shown":"equaldotanddens","ratio_trial":750,"smaller_num":"15","larger_num":"20","correct_side":1,"subjID":"JUANMANUELSALAZARVARON31","gender":"0","age":"11","school":"6"},{"start_time":1551893248924,"click_time":1551893250537,"finger_time":1551893249837,"fix_duration":263.2297300288924,"trial":46,"RT":913,"MT":700,"sideResp":1,"stimulus":"img/900/equaldotsize/R/6_Ratio_900_L_9_R_10.png","xmouse":[797,797,797,797,797,797,797,797,797,797,797,797,797,797,797,797,797,797,797,797,797,797,797,797,797,797,797,797,797,797,797,797,797,797,797,797,797,797,797,797,797,797,797,788,770,736,727,691,683,673,663,653,632,623,615,607,590,585,583,582,581,581,581,576,570,557,537,490,484,483,483,483,483,484,487,488,491,494,494,496,499],"ymouse":[648,648,648,648,648,648,648,648,648,648,648,648,648,648,648,648,648,648,648,648,648,648,648,648,648,648,648,648,648,648,648,648,648,648,648,648,648,648,648,648,648,648,647,635,612,571,561,512,500,490,477,462,425,407,391,375,347,340,335,331,327,325,309,293,274,250,226,180,172,170,166,160,155,149,141,134,125,116,113,106,97],"timestamp_mouse":[14,35,54,75,95,114,134,154,173,193,214,234,253,274,294,314,334,353,373,393,413,435,454,473,493,514,534,554,573,594,614,634,654,674,694,713,734,754,775,794,813,833,853,875,894,913,933,954,973,994,1015,1033,1053,1074,1094,1113,1134,1153,1174,1193,1213,1233,1253,1274,1293,1314,1333,1354,1373,1394,1413,1434,1453,1473,1494,1513,1534,1553,1574,1595,1613],"xSR":741.5,"ySR":573.95,"xT1":424.9,"yT1":0,"xT2":1058.1,"yT2":0,"toosoon":0,"cond_shown":"equaldotsize","ratio_trial":900,"smaller_num":"9","larger_num":"10","correct_side":2,"subjID":"JUANMANUELSALAZARVARON31","gender":"0","age":"11","school":"6"},{"start_time":1551893251655,"click_time":1551893253017,"finger_time":1551893252518,"fix_duration":276.63170127368267,"trial":47,"RT":863,"MT":499,"sideResp":1,"stimulus":"img/900/randomdotsizeEA/L/1_Ratio_900_L_10_R_9.png","xmouse":[808,808,808,808,808,808,808,808,808,808,808,808,808,808,808,808,808,808,808,808,808,808,808,808,808,808,808,808,808,808,808,808,808,808,808,808,808,808,808,808,806,787,765,745,718,690,637,608,584,563,545,540,539,537,536,535,534,533,532,530,527,517,511,505,496,489,463,446,439],"ymouse":[621,621,621,621,621,621,621,621,621,621,621,621,621,621,621,621,621,621,621,621,621,621,621,621,621,621,621,621,621,621,621,621,621,621,621,621,621,621,621,621,621,610,589,565,535,503,435,393,358,323,289,268,260,255,251,241,236,231,226,217,210,186,173,163,150,143,117,102,94],"timestamp_mouse":[20,51,51,62,82,104,122,143,164,182,202,223,242,262,283,302,323,343,362,382,402,424,444,462,482,502,524,542,564,583,603,623,644,663,684,703,724,743,763,782,803,823,842,863,884,903,922,943,963,982,1002,1023,1042,1062,1082,1103,1122,1142,1162,1182,1203,1223,1242,1262,1282,1303,1323,1343,1362],"xSR":741.5,"ySR":573.95,"xT1":424.9,"yT1":0,"xT2":1058.1,"yT2":0,"toosoon":0,"cond_shown":"randomdotsizeEA","ratio_trial":900,"smaller_num":"9","larger_num":"10","correct_side":1,"subjID":"JUANMANUELSALAZARVARON31","gender":"0","age":"11","school":"6"},{"start_time":1551893256597,"click_time":1551893258517,"finger_time":1551893257377,"fix_duration":1198.932186967764,"trial":48,"RT":780,"MT":1140,"sideResp":2,"stimulus":"img/900/equaldotsize/L/1_Ratio_900_L_10_R_9.png","xmouse":[775,775,775,775,775,775,775,775,775,775,775,775,775,775,775,775,775,775,775,775,775,775,775,775,775,775,775,775,775,775,775,775,775,775,775,775,775,775,768,751,734,719,709,700,697,697,697,697,697,697,697,697,697,697,697,697,699,704,714,736,752,766,785,805,850,867,879,887,890,891,893,897,907,916,934,940,943,943,943,944,944,944,945,947,971,985,994,1002,1010,1020,1029,1038,1049,1063,1088,1099,1112],"ymouse":[637,637,637,637,637,637,637,637,637,637,637,637,637,637,637,637,637,637,637,637,637,637,637,637,637,637,637,637,637,637,637,637,637,637,637,637,637,637,607,573,540,520,508,498,495,495,495,495,495,495,495,495,494,490,483,478,473,466,455,436,423,415,406,398,373,362,353,346,342,341,340,334,327,318,304,300,298,298,298,298,298,298,298,298,298,296,292,286,279,258,235,215,197,173,131,110,93],"timestamp_mouse":[8,21,40,60,82,100,122,140,160,182,200,220,242,261,281,300,321,340,361,380,400,421,442,461,480,500,520,540,560,580,600,621,640,661,681,700,721,740,761,780,802,820,841,860,880,901,920,941,960,980,1000,1021,1040,1060,1080,1100,1120,1140,1161,1180,1201,1220,1241,1260,1281,1300,1320,1341,1360,1380,1401,1420,1440,1461,1480,1500,1520,1541,1561,1580,1601,1620,1642,1661,1680,1700,1720,1740,1762,1780,1801,1820,1842,1860,1880,1900,1920],"xSR":741.5,"ySR":573.95,"xT1":424.9,"yT1":0,"xT2":1058.1,"yT2":0,"toosoon":0,"cond_shown":"equaldotsize","ratio_trial":900,"smaller_num":"9","larger_num":"10","correct_side":1,"subjID":"JUANMANUELSALAZARVARON31","gender":"0","age":"11","school":"6"},{"start_time":1551893260491,"click_time":1551893261697,"finger_time":1551893261279,"fix_duration":952.7319605196442,"trial":49,"RT":788,"MT":418,"sideResp":2,"stimulus":"img/900/equaldotanddens/L/4_Ratio_900_L_20_R_18.png","xmouse":[788,788,788,788,788,788,788,788,788,788,788,788,788,788,788,788,788,788,788,788,788,788,788,788,788,788,788,788,788,788,788,788,788,788,788,788,788,797,827,866,906,920,929,937,955,963,971,980,989,1011,1025,1042,1059,1081,1087,1093,1098,1107,1114,1120,1132],"ymouse":[626,626,626,626,626,626,626,626,626,626,626,626,626,626,626,626,626,626,626,626,626,626,626,626,626,626,626,626,626,626,626,626,626,626,626,626,626,617,581,538,466,439,419,400,357,339,319,298,279,243,223,203,185,164,157,149,144,138,131,121,90],"timestamp_mouse":[10,38,47,67,86,107,126,146,166,186,207,226,246,266,287,306,326,347,368,386,406,426,447,468,486,506,527,546,567,587,606,627,646,668,686,706,726,747,766,788,806,827,846,866,888,906,926,946,967,988,1006,1027,1046,1067,1086,1106,1126,1147,1167,1187,1206],"xSR":741.5,"ySR":573.95,"xT1":424.9,"yT1":0,"xT2":1058.1,"yT2":0,"toosoon":0,"cond_shown":"equaldotanddens","ratio_trial":900,"smaller_num":"18","larger_num":"20","correct_side":1,"subjID":"JUANMANUELSALAZARVARON31","gender":"0","age":"11","school":"6"},{"start_time":1551893263494,"click_time":1551893264598,"finger_time":1551893264039,"fix_duration":1076.4249891731215,"trial":50,"RT":545,"MT":559,"sideResp":2,"stimulus":"img/250/equaldotsize/R/11_Ratio_250_L_3_R_12.png","xmouse":[763,763,763,763,763,763,763,763,763,763,763,763,763,763,763,763,763,763,763,763,763,763,763,765,775,814,836,854,871,880,896,913,965,1012,1051,1084,1086,1086,1086,1086,1086,1086,1086,1086,1086,1087,1090,1092,1094,1095,1097,1102,1103,1107,1111,1122],"ymouse":[649,649,649,649,649,649,649,649,649,649,649,649,649,649,649,649,649,649,649,649,649,649,649,648,638,612,596,580,560,541,502,478,413,359,313,263,256,254,254,254,254,254,245,233,222,204,196,189,179,169,155,126,117,109,100,74],"timestamp_mouse":[9,32,44,63,84,104,125,143,163,183,204,223,243,264,283,303,324,345,364,383,403,423,443,464,483,503,523,545,564,584,603,623,643,664,684,703,723,743,764,785,803,824,843,865,884,904,923,943,964,983,1003,1024,1043,1064,1083,1103],"xSR":741.5,"ySR":573.95,"xT1":424.9,"yT1":0,"xT2":1058.1,"yT2":0,"toosoon":0,"cond_shown":"equaldotsize","ratio_trial":250,"smaller_num":"3","larger_num":"12","correct_side":2,"subjID":"JUANMANUELSALAZARVARON31","gender":"0","age":"11","school":"6"},{"start_time":1551893266306,"click_time":1551893267417,"finger_time":1551893266977,"fix_duration":805.8285019393735,"trial":51,"RT":671,"MT":440,"sideResp":1,"stimulus":"img/250/equaldotsize/L/14_Ratio_250_L_12_R_3.png","xmouse":[816,816,816,816,816,816,816,816,816,816,816,816,816,816,816,816,816,816,816,816,816,816,816,816,816,816,816,816,816,816,816,808,787,762,697,676,657,635,607,556,551,551,551,550,552,554,558,561,561,557,553,552,549,541,522,513],"ymouse":[624,624,624,624,624,624,624,624,624,624,624,624,624,624,624,624,624,624,624,624,624,624,624,624,624,624,624,624,624,624,624,611,582,548,473,442,414,386,359,328,324,324,324,323,308,294,269,241,215,176,156,147,134,122,102,96],"timestamp_mouse":[11,42,51,71,91,111,131,151,171,191,211,231,252,271,291,311,331,352,371,391,411,432,451,472,491,511,531,551,571,592,611,631,651,671,692,711,732,752,771,792,812,831,851,871,892,911,931,951,972,991,1011,1031,1051,1071,1091,1111],"xSR":741.5,"ySR":573.95,"xT1":424.9,"yT1":0,"xT2":1058.1,"yT2":0,"toosoon":0,"cond_shown":"equaldotsize","ratio_trial":250,"smaller_num":"3","larger_num":"12","correct_side":1,"subjID":"JUANMANUELSALAZARVARON31","gender":"0","age":"11","school":"6"},{"start_time":1551893269170,"click_time":1551893270397,"finger_time":1551893270058,"fix_duration":952.5768062746763,"trial":52,"RT":888,"MT":339,"sideResp":1,"stimulus":"img/500/randomdotsizeEA/L/13_Ratio_500_L_12_R_6.png","xmouse":[814,814,814,814,814,814,814,814,814,814,814,814,814,814,814,814,814,814,814,814,814,814,814,814,814,814,814,814,814,814,814,814,814,814,814,814,814,814,814,814,814,810,792,774,743,711,663,613,598,590,584,573,547,524,506,492,486,472,463,456,450,448],"ymouse":[647,647,647,647,647,647,647,647,647,647,647,647,647,647,647,647,647,647,647,647,647,647,647,647,647,647,647,647,647,647,647,647,647,647,647,647,647,647,647,647,647,633,600,575,537,500,445,384,360,339,318,295,243,212,194,177,169,144,127,114,105,99],"timestamp_mouse":[8,39,47,67,88,108,127,147,169,188,207,228,247,267,288,307,328,347,367,387,407,428,447,467,488,507,527,547,567,589,608,628,647,667,688,707,729,747,767,787,807,828,847,867,888,907,927,947,968,988,1007,1027,1047,1068,1087,1107,1128,1147,1167,1187,1207,1227],"xSR":741.5,"ySR":573.95,"xT1":424.9,"yT1":0,"xT2":1058.1,"yT2":0,"toosoon":0,"cond_shown":"randomdotsizeEA","ratio_trial":500,"smaller_num":"6","larger_num":"12","correct_side":1,"subjID":"JUANMANUELSALAZARVARON31","gender":"0","age":"11","school":"6"},{"start_time":1551893272544,"click_time":1551893273798,"finger_time":1551893273217,"fix_duration":1265.1886918867172,"trial":53,"RT":673,"MT":581,"sideResp":2,"stimulus":"img/500/equaldotsize/R/14_Ratio_500_L_5_R_10.png","xmouse":[805,805,805,805,805,805,805,805,805,805,805,805,805,805,805,805,805,805,805,805,805,805,805,805,805,805,805,805,805,805,805,816,824,854,869,896,911,925,954,963,974,984,997,1028,1053,1066,1077,1085,1094,1096,1096,1096,1096,1102,1104,1105,1106,1107,1108,1108,1108,1108,1108],"ymouse":[621,621,621,621,621,621,621,621,621,621,621,621,621,621,621,621,621,621,621,621,621,621,621,621,621,621,621,621,621,621,621,606,597,564,545,510,488,465,426,412,398,383,364,328,294,272,251,230,199,193,192,192,192,181,176,174,170,166,154,143,127,111,95],"timestamp_mouse":[13,42,53,74,93,113,134,154,174,194,214,233,253,273,294,314,334,353,374,393,415,434,453,473,494,514,533,554,573,593,614,633,653,673,693,713,733,754,774,793,813,833,853,873,894,913,934,953,975,993,1014,1033,1054,1073,1094,1113,1133,1153,1173,1193,1213,1233,1254],"xSR":741.5,"ySR":573.95,"xT1":424.9,"yT1":0,"xT2":1058.1,"yT2":0,"toosoon":0,"cond_shown":"equaldotsize","ratio_trial":500,"smaller_num":"5","larger_num":"10","correct_side":2,"subjID":"JUANMANUELSALAZARVARON31","gender":"0","age":"11","school":"6"},{"start_time":1551893275422,"click_time":1551893276518,"finger_time":1551893276038,"fix_duration":803.5113190114596,"trial":54,"RT":616,"MT":480,"sideResp":1,"stimulus":"img/250/equaldotanddens/L/5_Ratio_250_L_24_R_6.png","xmouse":[780,780,780,780,780,780,780,780,780,780,780,780,780,780,780,780,780,780,780,780,780,780,780,780,780,780,777,776,770,769,731,689,623,567,529,467,440,421,413,412,413,416,425,436,443,448,448,448,449,452,462,466,468,468,468],"ymouse":[616,616,616,616,616,616,616,616,616,616,616,616,616,616,616,616,616,616,616,616,616,616,616,616,616,616,616,616,611,609,582,549,495,442,392,299,260,234,214,210,201,197,189,183,178,174,172,170,164,147,125,113,107,103,98],"timestamp_mouse":[15,40,56,75,96,115,136,155,176,195,217,235,256,275,296,315,335,357,375,396,416,436,456,475,495,516,535,555,575,595,616,635,655,675,695,715,736,756,775,796,815,835,855,875,895,916,935,955,976,995,1016,1035,1055,1076,1096],"xSR":741.5,"ySR":573.95,"xT1":424.9,"yT1":0,"xT2":1058.1,"yT2":0,"toosoon":0,"cond_shown":"equaldotanddens","ratio_trial":250,"smaller_num":"6","larger_num":"24","correct_side":1,"subjID":"JUANMANUELSALAZARVARON31","gender":"0","age":"11","school":"6"},{"start_time":1551893278324,"click_time":1551893279638,"finger_time":1551893279177,"fix_duration":964.2262418709466,"trial":55,"RT":853,"MT":461,"sideResp":2,"stimulus":"img/900/equaldotanddens/L/10_Ratio_900_L_20_R_18.png","xmouse":[795,795,795,795,795,795,795,795,795,795,795,795,795,795,795,795,795,795,795,795,795,795,795,795,795,795,795,795,795,795,795,795,795,795,795,795,795,795,797,811,825,839,866,878,902,924,938,954,980,1008,1090,1129,1157,1167,1175,1179,1181,1183,1185,1187,1187,1187,1181,1169,1162,1148],"ymouse":[643,643,643,643,643,643,643,643,643,643,643,643,643,643,643,643,643,643,643,643,643,643,643,643,643,643,643,643,643,643,643,643,643,643,643,643,643,643,642,625,609,590,555,541,506,475,455,434,397,351,236,190,154,136,124,116,112,106,100,92,76,68,62,52,47,41],"timestamp_mouse":[13,37,53,74,93,114,134,153,174,194,214,234,254,274,294,313,333,354,373,393,413,433,454,473,493,514,533,553,575,593,613,635,654,673,695,713,733,753,773,794,813,833,853,873,894,914,933,953,973,993,1013,1033,1053,1073,1093,1114,1133,1154,1174,1193,1213,1234,1254,1273,1294,1314],"xSR":741.5,"ySR":573.95,"xT1":424.9,"yT1":0,"xT2":1058.1,"yT2":0,"toosoon":0,"cond_shown":"equaldotanddens","ratio_trial":900,"smaller_num":"18","larger_num":"20","correct_side":1,"subjID":"JUANMANUELSALAZARVARON31","gender":"0","age":"11","school":"6"},{"start_time":1551893281300,"click_time":1551893282538,"finger_time":1551893282257,"fix_duration":642.4724310862093,"trial":56,"RT":957,"MT":281,"sideResp":2,"stimulus":"img/900/equaldotanddens/R/13_Ratio_900_L_18_R_20.png","xmouse":[784,784,784,784,784,784,784,784,784,784,784,784,784,784,784,784,784,784,784,784,784,784,784,784,784,784,784,784,784,784,784,784,784,784,784,784,784,784,784,784,784,784,784,784,784,784,809,874,954,1024,1063,1093,1102,1108,1110,1111,1111,1111,1111,1111,1111,1098],"ymouse":[604,604,604,604,604,604,604,604,604,604,604,604,604,604,604,604,604,604,604,604,604,604,604,604,604,604,604,604,604,604,604,604,604,604,604,604,604,604,604,604,604,604,604,604,604,604,582,539,493,451,422,387,367,339,320,302,266,245,220,189,154,69],"timestamp_mouse":[17,44,57,78,97,117,138,157,177,199,218,237,258,277,297,317,337,357,379,398,417,437,458,478,498,517,537,558,577,598,618,637,658,677,698,718,738,757,778,799,818,838,857,878,897,918,938,957,977,998,1018,1037,1057,1077,1098,1117,1138,1157,1178,1198,1217,1237],"xSR":741.5,"ySR":573.95,"xT1":424.9,"yT1":0,"xT2":1058.1,"yT2":0,"toosoon":0,"cond_shown":"equaldotanddens","ratio_trial":900,"smaller_num":"18","larger_num":"20","correct_side":2,"subjID":"JUANMANUELSALAZARVARON31","gender":"0","age":"11","school":"6"},{"start_time":1551893284893,"click_time":1551893286358,"finger_time":1551893285897,"fix_duration":1492.7875790230612,"trial":57,"RT":1004,"MT":461,"sideResp":2,"stimulus":"img/750/randomdotsizeEA/R/11_Ratio_750_L_12_R_16.png","xmouse":[755,755,755,755,755,755,755,755,755,755,755,755,755,755,755,755,755,755,755,755,755,755,755,755,755,755,755,755,755,755,755,755,755,755,755,755,755,755,755,755,755,755,755,755,755,762,772,777,779,780,784,789,834,951,989,1007,1014,1015,1015,1015,1015,1021,1066,1103,1131,1148,1155,1155,1147,1142,1138,1138,1136,1112],"ymouse":[593,593,593,593,593,593,593,593,593,593,593,593,593,593,593,593,593,593,593,593,593,593,593,593,593,593,593,593,593,593,593,593,593,593,593,593,593,593,593,593,593,593,593,593,593,586,579,576,575,574,571,570,550,498,481,472,467,467,467,467,467,460,399,349,306,272,247,222,177,156,140,124,113,86],"timestamp_mouse":[9,25,44,64,84,104,124,144,165,184,205,224,244,264,285,305,325,345,365,384,404,424,445,464,484,505,524,544,564,584,604,624,645,664,685,704,725,744,765,784,804,825,844,864,884,904,924,944,965,986,1004,1024,1045,1064,1084,1105,1124,1146,1165,1184,1204,1225,1245,1264,1284,1305,1325,1344,1364,1384,1404,1425,1444,1465],"xSR":741.5,"ySR":573.95,"xT1":424.9,"yT1":0,"xT2":1058.1,"yT2":0,"toosoon":0,"cond_shown":"randomdotsizeEA","ratio_trial":750,"smaller_num":"12","larger_num":"16","correct_side":2,"subjID":"JUANMANUELSALAZARVARON31","gender":"0","age":"11","school":"6"},{"start_time":1551893288398,"click_time":1551893290278,"finger_time":1551893289078,"fix_duration":1239.029154237818,"trial":58,"RT":680,"MT":1200,"sideResp":1,"stimulus":"img/900/equaldotsize/L/1_Ratio_900_L_10_R_9.png","xmouse":[807,807,807,807,807,807,807,807,807,807,807,807,807,807,807,807,807,807,807,807,807,807,807,807,807,807,807,807,807,807,807,807,802,793,783,766,731,713,673,660,650,646,645,645,645,645,645,645,645,645,649,657,681,754,779,797,812,818,820,813,800,788,776,761,759,757,759,775,831,869,920,980,1048,1121,1129,1130,1131,1129,1076,1015,956,907,863,783,758,751,747,740,688,641,588,554,535,525,518],"ymouse":[617,617,617,617,617,617,617,617,617,617,617,617,617,617,617,617,617,617,617,617,617,617,617,617,617,617,617,617,617,617,617,617,613,591,570,539,487,462,412,396,385,380,379,379,379,379,379,379,379,379,379,379,376,360,356,349,340,334,305,285,265,247,236,232,232,248,269,295,348,365,375,377,377,377,375,373,364,353,301,268,244,230,225,205,187,174,164,152,119,102,85,72,63,57,53],"timestamp_mouse":[2,19,39,59,79,100,121,139,159,180,200,220,239,259,279,299,319,340,360,380,401,419,440,460,479,501,519,540,559,580,599,619,640,659,680,699,720,739,759,779,800,819,840,860,880,900,920,940,959,979,999,1019,1041,1059,1080,1099,1120,1139,1159,1179,1199,1219,1239,1259,1279,1299,1319,1340,1359,1379,1400,1419,1439,1459,1480,1499,1519,1540,1559,1579,1599,1619,1640,1660,1680,1699,1720,1740,1759,1779,1801,1819,1840,1859,1879],"xSR":741.5,"ySR":573.95,"xT1":424.9,"yT1":0,"xT2":1058.1,"yT2":0,"toosoon":0,"cond_shown":"equaldotsize","ratio_trial":900,"smaller_num":"9","larger_num":"10","correct_side":1,"subjID":"JUANMANUELSALAZARVARON31","gender":"0","age":"11","school":"6"},{"start_time":1551893291842,"click_time":1551893292958,"finger_time":1551893292497,"fix_duration":684.2871933313363,"trial":59,"RT":655,"MT":461,"sideResp":2,"stimulus":"img/750/equaldotsize/R/3_Ratio_750_L_15_R_20.png","xmouse":[801,801,801,801,801,801,801,801,801,801,801,801,801,801,801,801,801,801,801,801,801,801,801,801,801,801,801,801,801,801,801,824,844,867,889,916,923,931,937,945,968,981,996,1012,1028,1038,1048,1052,1058,1071,1094,1099,1102,1104,1104,1104],"ymouse":[630,630,630,630,630,630,630,630,630,630,630,630,630,630,630,630,630,630,630,630,630,630,630,630,630,630,630,630,630,630,631,610,583,543,494,406,377,351,330,311,274,257,239,225,213,204,192,187,183,177,158,148,136,124,113,91],"timestamp_mouse":[16,35,55,75,95,115,135,155,175,196,215,235,255,275,296,315,336,357,376,396,415,437,456,475,495,516,535,556,575,595,615,635,655,675,695,715,735,755,775,795,815,836,855,876,895,916,935,955,975,995,1016,1035,1055,1076,1095,1115],"xSR":741.5,"ySR":573.95,"xT1":424.9,"yT1":0,"xT2":1058.1,"yT2":0,"toosoon":0,"cond_shown":"equaldotsize","ratio_trial":750,"smaller_num":"15","larger_num":"20","correct_side":2,"subjID":"JUANMANUELSALAZARVARON31","gender":"0","age":"11","school":"6"},{"start_time":1551893296158,"click_time":1551893297338,"finger_time":1551893296857,"fix_duration":979.4755599705721,"trial":60,"RT":699,"MT":481,"sideResp":2,"stimulus":"img/250/randomdotsizeEA/R/12_Ratio_250_L_5_R_20.png","xmouse":[788,788,788,788,788,788,788,788,788,788,788,788,788,788,788,788,788,788,788,788,788,788,788,788,788,788,788,788,788,788,788,788,788,796,812,856,909,924,935,944,955,974,986,997,1020,1040,1103,1127,1144,1157,1163,1172,1174,1175,1179,1179,1179,1176,1167,1153],"ymouse":[618,618,618,618,618,618,618,618,618,618,618,618,618,618,618,618,618,618,618,618,618,618,618,618,618,618,618,618,618,618,618,618,618,607,593,554,493,473,452,428,406,365,344,324,295,273,214,185,159,143,132,121,119,117,107,100,86,83,81,78],"timestamp_mouse":[2,20,39,59,80,99,119,140,160,179,200,220,241,260,279,300,320,339,360,380,401,420,439,460,480,500,520,540,560,579,599,619,639,659,681,699,720,739,760,780,800,819,839,859,879,900,919,939,959,979,999,1019,1039,1059,1080,1099,1119,1139,1160,1179],"xSR":741.5,"ySR":573.95,"xT1":424.9,"yT1":0,"xT2":1058.1,"yT2":0,"toosoon":0,"cond_shown":"randomdotsizeEA","ratio_trial":250,"smaller_num":"5","larger_num":"20","correct_side":2,"subjID":"JUANMANUELSALAZARVARON31","gender":"0","age":"11","school":"6"},{"start_time":1551893298330,"click_time":1551893299577,"finger_time":1551893299177,"fix_duration":250,"trial":61,"RT":847,"MT":400,"sideResp":1,"stimulus":"img/750/equaldotsize/R/7_Ratio_750_L_3_R_4.png","xmouse":[794,794,794,794,794,794,794,794,794,794,794,794,794,794,794,794,794,794,794,794,794,794,794,794,794,795,799,804,805,806,807,808,808,808,808,808,808,810,812,815,817,817,808,796,781,757,740,704,685,664,645,629,603,588,583,579,576,567,554,539,525,514,502],"ymouse":[645,645,645,645,645,645,645,645,645,645,645,645,645,645,645,645,645,645,645,645,645,645,645,645,645,643,641,637,635,634,633,632,632,632,632,632,632,624,618,607,597,583,550,532,510,478,453,406,382,358,336,314,269,239,226,217,208,185,165,147,127,111,88],"timestamp_mouse":[7,36,47,68,87,107,128,147,167,187,208,227,247,267,288,308,327,348,367,388,408,428,448,468,487,507,527,547,567,588,609,627,648,668,688,708,727,747,767,788,808,828,847,868,887,908,928,947,967,987,1008,1027,1047,1067,1087,1107,1128,1147,1167,1188,1207,1227,1247],"xSR":741.5,"ySR":573.95,"xT1":424.9,"yT1":0,"xT2":1058.1,"yT2":0,"toosoon":0,"cond_shown":"equaldotsize","ratio_trial":750,"smaller_num":"3","larger_num":"4","correct_side":2,"subjID":"JUANMANUELSALAZARVARON31","gender":"0","age":"11","school":"6"},{"start_time":1551893300630,"click_time":1551893302278,"finger_time":1551893301918,"fix_duration":332.24623247976723,"trial":62,"RT":1288,"MT":360,"sideResp":1,"stimulus":"img/500/randomdotsizeEA/L/5_Ratio_500_L_4_R_2.png","xmouse":[794,794,794,794,794,794,794,794,794,794,794,794,794,794,794,794,794,794,794,794,794,794,794,794,794,794,794,794,794,794,799,802,803,805,805,805,805,805,805,805,805,805,805,805,805,805,805,805,805,802,795,789,786,785,784,784,784,784,784,784,782,778,770,760,739,704,650,596,471,427,387,360,348,348,348,348,348,351,363,378,396,416,459],"ymouse":[623,623,623,623,623,623,623,623,623,623,623,623,623,623,623,623,623,623,623,623,623,623,623,623,623,623,623,623,623,623,620,618,617,616,616,616,616,616,616,616,616,616,616,616,616,616,616,616,616,616,613,611,609,608,607,607,607,607,607,607,607,606,600,585,549,485,416,359,238,180,122,74,41,33,27,23,21,20,20,20,23,26,35],"timestamp_mouse":[12,35,47,68,87,107,127,147,168,187,207,228,247,267,287,307,327,347,367,388,407,428,447,467,487,507,527,547,567,587,607,627,647,667,687,707,728,747,768,787,808,827,847,868,887,907,928,947,969,987,1008,1027,1047,1068,1087,1107,1128,1147,1167,1187,1207,1227,1247,1267,1288,1307,1327,1347,1368,1387,1407,1428,1447,1467,1488,1508,1527,1547,1567,1587,1607,1627,1648],"xSR":741.5,"ySR":573.95,"xT1":424.9,"yT1":0,"xT2":1058.1,"yT2":0,"toosoon":0,"cond_shown":"randomdotsizeEA","ratio_trial":500,"smaller_num":"2","larger_num":"4","correct_side":1,"subjID":"JUANMANUELSALAZARVARON31","gender":"0","age":"11","school":"6"},{"start_time":1551893303571,"click_time":1551893305317,"finger_time":1551893304998,"fix_duration":473.0189016654111,"trial":63,"RT":1427,"MT":319,"sideResp":2,"stimulus":"img/900/randomdotsi