[{"start_time":1551892233603,"click_time":1551892236344,"finger_time":1551892233611,"fix_duration":1135.3864221543456,"trial":0,"RT":8,"MT":2733,"sideResp":2,"stimulus":[],"xmouse":[785,785,785,785,785,785,785,785,785,785,785,785,785,785,785,785,785,785,785,785,785,785,785,785,785,785,785,785,785,785,785,785,784,776,772,771,769,769,769,768,768,767,765,765,765,765,765,765,765,765,765,765,765,765,765,771,797,809,820,830,835,848,855,869,877,885,906,934,972,1006,1030,1044,1044,1044,1026,997,940,926,922,922,922,911,896,872,863,856,841,836,832,830,828,823,822,821,821,820,813,809,809,809,809,809,809,809,810,811,816,816,816,816,816,816,818,822,833,840,863,883,915,957,1017,1054,1255,1325,1366,1382,1382,1382,1382,1382,1377,1365,1358,1348,1330,1298,1182,1133],"ymouse":[573,573,573,573,573,573,573,573,573,573,573,573,573,573,573,573,573,573,573,573,573,573,573,573,573,573,573,573,573,573,573,574,576,591,597,600,607,608,608,610,612,619,624,626,627,627,627,627,627,627,627,627,627,627,628,631,633,633,633,633,632,624,619,608,602,596,591,590,590,590,590,587,587,587,587,587,597,601,601,601,601,601,600,600,606,613,631,636,638,638,638,635,633,632,631,631,626,622,622,622,622,622,621,621,620,619,611,606,601,595,588,560,537,513,475,453,395,352,284,200,93,39,0,0,0,0,0,0,3,6,16,27,30,32,34,39,59,73],"timestamp_mouse":[8,20,40,60,81,102,122,140,161,181,202,220,240,260,281,301,321,340,360,381,400,421,440,461,481,501,521,541,561,581,601,620,641,662,680,701,721,740,761,781,802,820,841,861,881,901,921,941,961,980,1001,1021,1041,1061,1080,1101,1121,1141,1162,1181,1202,1221,1241,1261,1281,1300,1321,1341,1360,1380,1400,1420,1441,1460,1482,1501,1520,1541,1561,1581,1601,1620,1640,1661,1681,1701,1721,1741,1760,1781,1801,1821,1840,1860,1881,1901,1920,1941,1961,1981,2001,2021,2041,2061,2081,2102,2121,2141,2161,2180,2201,2220,2241,2260,2281,2301,2320,2341,2361,2381,2401,2421,2441,2462,2481,2500,2520,2542,2560,2581,2600,2621,2640,2660,2681,2701,2721,2740],"xSR":741.5,"ySR":501.8,"xT1":424.9,"yT1":0,"xT2":1058.1,"yT2":0,"toosoon":0,"cond_shown":"Congruent","ratio_trial":200,"L_num":8,"L_den":15,"R_num":2,"R_den":6,"correct_side":1,"subjID":"JuanManuelSalazarVaron31","gender":"0","age":"11","school":"6","test":{"fix_dur":[250,1500],"timestim":1000,"targets_dim":[100,100],"targets_relative_coord":[0.3,0.7],"size_stim":[880,420],"start_dim":[100,100],"size_start":[300,300],"size_fix":60,"samplingrate":20,"img_types":["Congruent","Incongruent"],"ratios":[100,200,300],"rep_conds":19,"nTrials":120,"trials_to_rest":500,"Trials_order":[20,76,18,5,39,101,41,78,87,111,84,40,21,16,119,53,49,27,117,90,3,85,113,7,66,91,56,9,60,98,72,64,65,82,43,30,83,114,92,35,67,8,28,61,52,4,88,96,110,73,59,29,86,33,0,6,63,81,109,57,71,54,108,13,11,55,80,70,58,94,99,45,107,25,105,115,51,42,77,116,46,62,74,68,34,10,17,32,95,26,1,36,31,23,2,48,102,22,47,14,37,103,50,100,104,97,93,24,12,106,89,38,112,69,15,118,19,79,75,44],"cond_shown":["Congruent","Congruent","Congruent","Incongruent","Incongruent","Incongruent","Incongruent","Congruent","Incongruent","Incongruent","Congruent","Congruent","Incongruent","Congruent","Incongruent","Incongruent","Incongruent","Incongruent","Incongruent","Congruent","Incongruent","Incongruent","Incongruent","Incongruent","Congruent","Incongruent","Congruent","Incongruent","Congruent","Congruent","Congruent","Congruent","Incongruent","Congruent","Incongruent","Congruent","Incongruent","Congruent","Congruent","Incongruent","Incongruent","Congruent","Congruent","Incongruent","Congruent","Congruent","Congruent","Congruent","Congruent","Incongruent","Incongruent","Incongruent","Congruent","Incongruent","Congruent","Congruent","Incongruent","Incongruent","Incongruent","Incongruent","Incongruent","Congruent","Congruent","Incongruent","Incongruent","Incongruent","Congruent","Congruent","Congruent","Congruent","Incongruent","Incongruent","Incongruent","Incongruent","Incongruent","Incongruent","Incongruent","Congruent","Incongruent","Congruent","Congruent","Congruent","Congruent","Congruent","Congruent","Congruent","Incongruent","Congruent","Incongruent","Congruent","Incongruent","Congruent","Incongruent","Incongruent","Congruent","Congruent","Congruent","Congruent","Incongruent","Congruent","Incongruent","Incongruent","Congruent","Congruent","Congruent","Incongruent","Incongruent","Congruent","Congruent","Congruent","Incongruent","Congruent","Congruent","Incongruent","Incongruent","Congruent","Incongruent","Incongruent","Incongruent","Congruent"],"ratio_trial":[200,300,100,300,200,300,300,100,200,200,100,300,200,300,300,300,100,200,200,100,200,100,300,100,100,100,200,200,100,200,100,300,300,300,100,100,300,100,200,300,100,200,300,100,300,300,300,100,200,100,300,300,200,200,100,100,200,200,100,200,300,100,100,100,300,100,200,300,300,300,200,200,300,100,200,100,200,100,300,200,300,200,200,200,300,300,300,200,300,200,100,100,100,300,200,100,100,300,300,200,100,100,200,300,200,100,200,100,100,300,300,200,300,200,200,300,100,100,200,200],"left_num":[8,4,4,1,6,4,4,12,14,3,9,11,7,11,13,8,8,7,6,3,3,3,4,8,2,17,7,7,6,11,1,4,13,1,6,9,13,9,8,2,3,8,20,8,3,1,5,4,6,3,8,4,8,7,4,2,7,3,8,4,13,2,11,4,4,10,12,24,3,1,7,4,4,10,4,12,9,6,3,9,5,1,8,6,4,3,2,7,2,21,10,15,6,4,3,7,2,24,13,16,3,4,9,5,4,6,7,2,2,4,13,6,4,14,9,3,11,9,7,4],"right_num":[2,13,15,3,3,6,2,13,12,11,8,2,12,4,12,14,1,12,3,4,1,7,2,1,11,10,18,6,15,3,18,13,12,8,11,8,12,8,3,6,11,3,13,1,2,7,6,6,11,11,14,2,2,4,15,6,14,11,6,1,12,11,6,8,2,8,6,8,4,3,14,6,2,8,6,9,8,15,4,4,7,21,3,11,1,4,6,18,6,2,8,13,7,2,7,15,11,8,12,9,11,8,13,7,3,7,14,11,6,1,12,11,13,6,8,2,9,6,6,3],"left_den":[15,20,10,2,20,5,20,30,30,4,15,22,10,22,26,10,20,10,20,20,10,9,20,20,5,30,15,15,12,22,2,20,26,30,10,15,26,15,15,4,5,15,25,20,6,20,25,8,20,5,10,20,15,15,10,5,10,4,16,30,26,5,22,8,20,25,15,30,6,5,10,5,20,25,5,24,15,12,6,20,25,2,15,20,10,6,4,15,4,30,25,25,10,20,10,14,5,30,26,30,5,8,30,25,10,10,10,5,5,10,26,20,20,30,15,6,22,18,15,10],"right_den":[6,26,30,15,6,12,4,26,18,20,16,10,24,20,15,28,2,24,6,16,2,30,4,2,22,15,27,9,25,10,30,26,15,24,22,16,15,16,9,30,22,9,26,2,10,20,12,10,22,22,28,4,6,6,30,12,28,20,10,3,15,22,15,20,4,16,10,16,5,6,28,10,4,16,10,15,10,25,20,16,14,30,9,22,10,5,30,27,30,4,16,26,14,4,14,25,22,16,15,27,22,20,26,14,15,14,28,22,12,10,15,22,26,9,10,10,15,10,9,15],"correct_side":[1,2,2,1,2,1,2,2,2,1,1,1,1,1,2,1,2,1,2,2,2,1,2,2,2,2,2,2,2,1,2,2,2,2,1,1,2,1,1,1,1,1,1,2,1,2,2,2,2,1,1,2,1,2,2,2,1,1,2,2,2,2,1,1,2,2,1,1,2,2,1,1,2,2,1,2,2,2,1,1,2,2,1,2,1,2,1,2,1,1,2,1,1,2,2,2,2,1,2,1,1,1,2,2,1,1,1,2,2,1,2,2,2,2,2,1,2,2,2,1],"img_shown":["img2/200/Congruent/L/C_Dist_200_LN_8_LD_15_RN_2_RD_6_0.png","img2/300/Congruent/R/C_Dist_300_LN_4_LD_20_RN_13_RD_26_1.png","img2/100/Congruent/R/C_Dist_100_LN_4_LD_10_RN_15_RD_30_1.png","img2/300/Incongruent/L/I_Dist_300_LN_1_LD_2_RN_3_RD_15_0.png","img2/200/Incongruent/R/I_Dist_200_LN_6_LD_20_RN_3_RD_6_1.png","img2/300/Incongruent/L/I_Dist_300_LN_4_LD_5_RN_6_RD_12_0.png","img2/300/Incongruent/R/I_Dist_300_LN_4_LD_20_RN_2_RD_4_1.png","img2/100/Congruent/R/C_Dist_100_LN_12_LD_30_RN_13_RD_26_1.png","img2/200/Incongruent/R/I_Dist_200_LN_14_LD_30_RN_12_RD_18_1.png","img2/200/Incongruent/L/I_Dist_200_LN_3_LD_4_RN_11_RD_20_0.png","img2/100/Congruent/L/C_Dist_100_LN_9_LD_15_RN_8_RD_16_0.png","img2/300/Congruent/L/C_Dist_300_LN_11_LD_22_RN_2_RD_10_0.png","img2/200/Incongruent/L/I_Dist_200_LN_7_LD_10_RN_12_RD_24_0.png","img2/300/Congruent/L/C_Dist_300_LN_11_LD_22_RN_4_RD_20_0.png","img2/300/Incongruent/R/I_Dist_300_LN_13_LD_26_RN_12_RD_15_1.png","img2/300/Incongruent/L/I_Dist_300_LN_8_LD_10_RN_14_RD_28_0.png","img2/100/Incongruent/R/I_Dist_100_LN_8_LD_20_RN_1_RD_2_1.png","img2/200/Incongruent/L/I_Dist_200_LN_7_LD_10_RN_12_RD_24_0.png","img2/200/Incongruent/R/I_Dist_200_LN_6_LD_20_RN_3_RD_6_1.png","img2/100/Congruent/R/C_Dist_100_LN_3_LD_20_RN_4_RD_16_1.png","img2/200/Incongruent/R/I_Dist_200_LN_3_LD_10_RN_1_RD_2_1.png","img2/100/Incongruent/L/I_Dist_100_LN_3_LD_9_RN_7_RD_30_0.png","img2/300/Incongruent/R/I_Dist_300_LN_4_LD_20_RN_2_RD_4_1.png","img2/100/Incongruent/R/I_Dist_100_LN_8_LD_20_RN_1_RD_2_1.png","img2/100/Congruent/R/C_Dist_100_LN_2_LD_5_RN_11_RD_22_1.png","img2/100/Incongruent/R/I_Dist_100_LN_17_LD_30_RN_10_RD_15_1.png","img2/200/Congruent/R/C_Dist_200_LN_7_LD_15_RN_18_RD_27_1.png","img2/200/Incongruent/R/I_Dist_200_LN_7_LD_15_RN_6_RD_9_1.png","img2/100/Congruent/R/C_Dist_100_LN_6_LD_12_RN_15_RD_25_1.png","img2/200/Congruent/L/C_Dist_200_LN_11_LD_22_RN_3_RD_10_0.png","img2/100/Congruent/R/C_Dist_100_LN_1_LD_2_RN_18_RD_30_1.png","img2/300/Congruent/R/C_Dist_300_LN_4_LD_20_RN_13_RD_26_1.png","img2/300/Incongruent/R/I_Dist_300_LN_13_LD_26_RN_12_RD_15_1.png","img2/300/Congruent/R/C_Dist_300_LN_1_LD_30_RN_8_RD_24_1.png","img2/100/Incongruent/L/I_Dist_100_LN_6_LD_10_RN_11_RD_22_0.png","img2/100/Congruent/L/C_Dist_100_LN_9_LD_15_RN_8_RD_16_0.png","img2/300/Incongruent/R/I_Dist_300_LN_13_LD_26_RN_12_RD_15_1.png","img2/100/Congruent/L/C_Dist_100_LN_9_LD_15_RN_8_RD_16_0.png","img2/200/Congruent/L/C_Dist_200_LN_8_LD_15_RN_3_RD_9_0.png","img2/300/Incongruent/L/I_Dist_300_LN_2_LD_4_RN_6_RD_30_0.png","img2/100/Incongruent/L/I_Dist_100_LN_3_LD_5_RN_11_RD_22_0.png","img2/200/Congruent/L/C_Dist_200_LN_8_LD_15_RN_3_RD_9_0.png","img2/300/Congruent/L/C_Dist_300_LN_20_LD_25_RN_13_RD_26_0.png","img2/100/Incongruent/R/I_Dist_100_LN_8_LD_20_RN_1_RD_2_1.png","img2/300/Congruent/L/C_Dist_300_LN_3_LD_6_RN_2_RD_10_0.png","img2/300/Congruent/R/C_Dist_300_LN_1_LD_20_RN_7_RD_20_1.png","img2/300/Congruent/R/C_Dist_300_LN_5_LD_25_RN_6_RD_12_1.png","img2/100/Congruent/R/C_Dist_100_LN_4_LD_8_RN_6_RD_10_1.png","img2/200/Congruent/R/C_Dist_200_LN_6_LD_20_RN_11_RD_22_1.png","img2/100/Incongruent/L/I_Dist_100_LN_3_LD_5_RN_11_RD_22_0.png","img2/300/Incongruent/L/I_Dist_300_LN_8_LD_10_RN_14_RD_28_0.png","img2/300/Incongruent/R/I_Dist_300_LN_4_LD_20_RN_2_RD_4_1.png","img2/200/Congruent/L/C_Dist_200_LN_8_LD_15_RN_2_RD_6_0.png","img2/200/Incongruent/R/I_Dist_200_LN_7_LD_15_RN_4_RD_6_1.png","img2/100/Congruent/R/C_Dist_100_LN_4_LD_10_RN_15_RD_30_1.png","img2/100/Congruent/R/C_Dist_100_LN_2_LD_5_RN_6_RD_12_1.png","img2/200/Incongruent/L/I_Dist_200_LN_7_LD_10_RN_14_RD_28_0.png","img2/200/Incongruent/L/I_Dist_200_LN_3_LD_4_RN_11_RD_20_0.png","img2/100/Incongruent/R/I_Dist_100_LN_8_LD_16_RN_6_RD_10_1.png","img2/200/Incongruent/R/I_Dist_200_LN_4_LD_30_RN_1_RD_3_1.png","img2/300/Incongruent/R/I_Dist_300_LN_13_LD_26_RN_12_RD_15_1.png","img2/100/Congruent/R/C_Dist_100_LN_2_LD_5_RN_11_RD_22_1.png","img2/100/Congruent/L/C_Dist_100_LN_11_LD_22_RN_6_RD_15_0.png","img2/100/Incongruent/L/I_Dist_100_LN_4_LD_8_RN_8_RD_20_0.png","img2/300/Incongruent/R/I_Dist_300_LN_4_LD_20_RN_2_RD_4_1.png","img2/100/Incongruent/R/I_Dist_100_LN_10_LD_25_RN_8_RD_16_1.png","img2/200/Congruent/L/C_Dist_200_LN_12_LD_15_RN_6_RD_10_0.png","img2/300/Congruent/L/C_Dist_300_LN_24_LD_30_RN_8_RD_16_0.png","img2/300/Congruent/R/C_Dist_300_LN_3_LD_6_RN_4_RD_5_1.png","img2/300/Congruent/R/C_Dist_300_LN_1_LD_5_RN_3_RD_6_1.png","img2/200/Incongruent/L/I_Dist_200_LN_7_LD_10_RN_14_RD_28_0.png","img2/200/Incongruent/L/I_Dist_200_LN_4_LD_5_RN_6_RD_10_0.png","img2/300/Incongruent/R/I_Dist_300_LN_4_LD_20_RN_2_RD_4_1.png","img2/100/Incongruent/R/I_Dist_100_LN_10_LD_25_RN_8_RD_16_1.png","img2/200/Incongruent/L/I_Dist_200_LN_4_LD_5_RN_6_RD_10_0.png","img2/100/Incongruent/R/I_Dist_100_LN_12_LD_24_RN_9_RD_15_1.png","img2/200/Incongruent/R/I_Dist_200_LN_9_LD_15_RN_8_RD_10_1.png","img2/100/Congruent/R/C_Dist_100_LN_6_LD_12_RN_15_RD_25_1.png","img2/300/Incongruent/L/I_Dist_300_LN_3_LD_6_RN_4_RD_20_0.png","img2/200/Congruent/L/C_Dist_200_LN_9_LD_20_RN_4_RD_16_0.png","img2/300/Congruent/R/C_Dist_300_LN_5_LD_25_RN_7_RD_14_1.png","img2/200/Congruent/R/C_Dist_200_LN_1_LD_2_RN_21_RD_30_1.png","img2/200/Congruent/L/C_Dist_200_LN_8_LD_15_RN_3_RD_9_0.png","img2/200/Congruent/R/C_Dist_200_LN_6_LD_20_RN_11_RD_22_1.png","img2/300/Congruent/L/C_Dist_300_LN_4_LD_10_RN_1_RD_10_0.png","img2/300/Congruent/R/C_Dist_300_LN_3_LD_6_RN_4_RD_5_1.png","img2/300/Incongruent/L/I_Dist_300_LN_2_LD_4_RN_6_RD_30_0.png","img2/200/Congruent/R/C_Dist_200_LN_7_LD_15_RN_18_RD_27_1.png","img2/300/Incongruent/L/I_Dist_300_LN_2_LD_4_RN_6_RD_30_0.png","img2/200/Congruent/L/C_Dist_200_LN_21_LD_30_RN_2_RD_4_0.png","img2/100/Incongruent/R/I_Dist_100_LN_10_LD_25_RN_8_RD_16_1.png","img2/100/Congruent/L/C_Dist_100_LN_15_LD_25_RN_13_RD_26_0.png","img2/100/Incongruent/L/I_Dist_100_LN_6_LD_10_RN_7_RD_14_0.png","img2/300/Incongruent/R/I_Dist_300_LN_4_LD_20_RN_2_RD_4_1.png","img2/200/Congruent/R/C_Dist_200_LN_3_LD_10_RN_7_RD_14_1.png","img2/100/Congruent/R/C_Dist_100_LN_7_LD_14_RN_15_RD_25_1.png","img2/100/Congruent/R/C_Dist_100_LN_2_LD_5_RN_11_RD_22_1.png","img2/300/Congruent/L/C_Dist_300_LN_24_LD_30_RN_8_RD_16_0.png","img2/300/Incongruent/R/I_Dist_300_LN_13_LD_26_RN_12_RD_15_1.png","img2/200/Congruent/L/C_Dist_200_LN_16_LD_30_RN_9_RD_27_0.png","img2/100/Incongruent/L/I_Dist_100_LN_3_LD_5_RN_11_RD_22_0.png","img2/100/Incongruent/L/I_Dist_100_LN_4_LD_8_RN_8_RD_20_0.png","img2/200/Congruent/R/C_Dist_200_LN_9_LD_30_RN_13_RD_26_1.png","img2/300/Congruent/R/C_Dist_300_LN_5_LD_25_RN_7_RD_14_1.png","img2/200/Congruent/L/C_Dist_200_LN_4_LD_10_RN_3_RD_15_0.png","img2/100/Incongruent/L/I_Dist_100_LN_6_LD_10_RN_7_RD_14_0.png","img2/200/Incongruent/L/I_Dist_200_LN_7_LD_10_RN_14_RD_28_0.png","img2/100/Congruent/R/C_Dist_100_LN_2_LD_5_RN_11_RD_22_1.png","img2/100/Congruent/R/C_Dist_100_LN_2_LD_5_RN_6_RD_12_1.png","img2/300/Congruent/L/C_Dist_300_LN_4_LD_10_RN_1_RD_10_0.png","img2/300/Incongruent/R/I_Dist_300_LN_13_LD_26_RN_12_RD_15_1.png","img2/200/Congruent/R/C_Dist_200_LN_6_LD_20_RN_11_RD_22_1.png","img2/300/Congruent/R/C_Dist_300_LN_4_LD_20_RN_13_RD_26_1.png","img2/200/Incongruent/R/I_Dist_200_LN_14_LD_30_RN_6_RD_9_1.png","img2/200/Incongruent/R/I_Dist_200_LN_9_LD_15_RN_8_RD_10_1.png","img2/300/Congruent/L/C_Dist_300_LN_3_LD_6_RN_2_RD_10_0.png","img2/100/Incongruent/R/I_Dist_100_LN_11_LD_22_RN_9_RD_15_1.png","img2/100/Incongruent/R/I_Dist_100_LN_9_LD_18_RN_6_RD_10_1.png","img2/200/Incongruent/R/I_Dist_200_LN_7_LD_15_RN_6_RD_9_1.png","img2/200/Congruent/L/C_Dist_200_LN_4_LD_10_RN_3_RD_15_0.png"],"dist100_C":[["C_Dist_100_LN_10_LD_25_RN_3_RD_10_0.png","C_Dist_100_LN_11_LD_22_RN_4_RD_10_0.png","C_Dist_100_LN_11_LD_22_RN_6_RD_15_0.png","C_Dist_100_LN_15_LD_25_RN_13_RD_26_0.png","C_Dist_100_LN_3_LD_6_RN_2_RD_5_0.png","C_Dist_100_LN_6_LD_20_RN_5_RD_25_0.png","C_Dist_100_LN_8_LD_16_RN_2_RD_5_0.png","C_Dist_100_LN_9_LD_15_RN_8_RD_16_0.png"],["C_Dist_100_LN_1_LD_2_RN_18_RD_30_1.png","C_Dist_100_LN_1_LD_2_RN_3_RD_5_1.png","C_Dist_100_LN_12_LD_30_RN_13_RD_26_1.png","C_Dist_100_LN_2_LD_5_RN_11_RD_22_1.png","C_Dist_100_LN_2_LD_5_RN_6_RD_12_1.png","C_Dist_100_LN_3_LD_20_RN_4_RD_16_1.png","C_Dist_100_LN_4_LD_10_RN_15_RD_30_1.png","C_Dist_100_LN_4_LD_8_RN_6_RD_10_1.png","C_Dist_100_LN_6_LD_12_RN_15_RD_25_1.png","C_Dist_100_LN_7_LD_14_RN_15_RD_25_1.png","C_Dist_100_LN_7_LD_14_RN_9_RD_15_1.png"]],"dist100_I":[["I_Dist_100_LN_1_LD_2_RN_8_RD_20_0.png","I_Dist_100_LN_2_LD_4_RN_6_RD_15_0.png","I_Dist_100_LN_2_LD_4_RN_8_RD_20_0.png","I_Dist_100_LN_3_LD_5_RN_11_RD_22_0.png","I_Dist_100_LN_3_LD_5_RN_8_RD_16_0.png","I_Dist_100_LN_3_LD_6_RN_4_RD_10_0.png","I_Dist_100_LN_3_LD_9_RN_7_RD_30_0.png","I_Dist_100_LN_4_LD_8_RN_8_RD_20_0.png","I_Dist_100_LN_6_LD_10_RN_11_RD_22_0.png","I_Dist_100_LN_6_LD_10_RN_13_RD_26_0.png","I_Dist_100_LN_6_LD_10_RN_7_RD_14_0.png","I_Dist_100_LN_9_LD_10_RN_20_RD_25_0.png","I_Dist_100_LN_9_LD_15_RN_13_RD_26_0.png","I_Dist_100_LN_9_LD_15_RN_14_RD_28_0.png"],["I_Dist_100_LN_10_LD_25_RN_8_RD_16_1.png","I_Dist_100_LN_10_LD_25_RN_9_RD_18_1.png","I_Dist_100_LN_11_LD_22_RN_9_RD_15_1.png","I_Dist_100_LN_12_LD_24_RN_9_RD_15_1.png","I_Dist_100_LN_12_LD_30_RN_2_RD_4_1.png","I_Dist_100_LN_13_LD_26_RN_12_RD_20_1.png","I_Dist_100_LN_13_LD_26_RN_6_RD_10_1.png","I_Dist_100_LN_17_LD_30_RN_10_RD_15_1.png","I_Dist_100_LN_6_LD_12_RN_3_RD_5_1.png","I_Dist_100_LN_8_LD_16_RN_6_RD_10_1.png","I_Dist_100_LN_8_LD_20_RN_1_RD_2_1.png","I_Dist_100_LN_9_LD_18_RN_6_RD_10_1.png"]],"dist100_S":[["E_Dist_100_LN_2_LD_12_RN_2_RD_30_0.png","E_Dist_100_LN_6_LD_10_RN_6_RD_12_0.png"],["E_Dist_100_LN_6_LD_12_RN_6_RD_10_1.png"]],"dist200_C":[["C_Dist_200_LN_11_LD_22_RN_3_RD_10_0.png","C_Dist_200_LN_12_LD_15_RN_6_RD_10_0.png","C_Dist_200_LN_12_LD_20_RN_6_RD_15_0.png","C_Dist_200_LN_14_LD_28_RN_6_RD_20_0.png","C_Dist_200_LN_15_LD_25_RN_4_RD_10_0.png","C_Dist_200_LN_16_LD_20_RN_12_RD_20_0.png","C_Dist_200_LN_16_LD_30_RN_9_RD_27_0.png","C_Dist_200_LN_20_LD_25_RN_9_RD_15_0.png","C_Dist_200_LN_21_LD_30_RN_2_RD_4_0.png","C_Dist_200_LN_4_LD_10_RN_3_RD_15_0.png","C_Dist_200_LN_4_LD_8_RN_3_RD_10_0.png","C_Dist_200_LN_6_LD_15_RN_3_RD_15_0.png","C_Dist_200_LN_7_LD_21_RN_2_RD_15_0.png","C_Dist_200_LN_8_LD_15_RN_2_RD_6_0.png","C_Dist_200_LN_8_LD_15_RN_3_RD_9_0.png","C_Dist_200_LN_8_LD_15_RN_7_RD_21_0.png","C_Dist_200_LN_9_LD_20_RN_4_RD_16_0.png"],["C_Dist_200_LN_1_LD_2_RN_21_RD_30_1.png","C_Dist_200_LN_13_LD_26_RN_14_RD_20_1.png","C_Dist_200_LN_3_LD_10_RN_11_RD_22_1.png","C_Dist_200_LN_3_LD_10_RN_14_RD_28_1.png","C_Dist_200_LN_3_LD_10_RN_7_RD_14_1.png","C_Dist_200_LN_3_LD_12_RN_9_RD_20_1.png","C_Dist_200_LN_3_LD_6_RN_14_RD_20_1.png","C_Dist_200_LN_5_LD_10_RN_14_RD_20_1.png","C_Dist_200_LN_6_LD_12_RN_7_RD_10_1.png","C_Dist_200_LN_6_LD_20_RN_11_RD_22_1.png","C_Dist_200_LN_7_LD_15_RN_18_RD_27_1.png","C_Dist_200_LN_9_LD_30_RN_13_RD_26_1.png"]],"dist200_I":[["I_Dist_200_LN_1_LD_2_RN_3_RD_10_0.png","I_Dist_200_LN_1_LD_3_RN_2_RD_15_0.png","I_Dist_200_LN_3_LD_4_RN_11_RD_20_0.png","I_Dist_200_LN_4_LD_5_RN_6_RD_10_0.png","I_Dist_200_LN_4_LD_6_RN_14_RD_30_0.png","I_Dist_200_LN_7_LD_10_RN_12_RD_24_0.png","I_Dist_200_LN_7_LD_10_RN_14_RD_28_0.png","I_Dist_200_LN_7_LD_10_RN_8_RD_16_0.png"],["I_Dist_200_LN_11_LD_20_RN_3_RD_4_1.png","I_Dist_200_LN_14_LD_30_RN_12_RD_18_1.png","I_Dist_200_LN_14_LD_30_RN_6_RD_9_1.png","I_Dist_200_LN_3_LD_10_RN_1_RD_2_1.png","I_Dist_200_LN_4_LD_30_RN_1_RD_3_1.png","I_Dist_200_LN_6_LD_20_RN_3_RD_6_1.png","I_Dist_200_LN_7_LD_15_RN_4_RD_6_1.png","I_Dist_200_LN_7_LD_15_RN_6_RD_9_1.png","I_Dist_200_LN_9_LD_15_RN_8_RD_10_1.png"]],"dist200_S":[["E_Dist_200_LN_3_LD_6_RN_3_RD_10_0.png"],["E_Dist_200_LN_3_LD_10_RN_3_RD_6_1.png"]],"dist300_C":[["C_Dist_300_LN_11_LD_22_RN_1_RD_5_0.png","C_Dist_300_LN_11_LD_22_RN_2_RD_10_0.png","C_Dist_300_LN_11_LD_22_RN_4_RD_20_0.png","C_Dist_300_LN_12_LD_24_RN_2_RD_10_0.png","C_Dist_300_LN_18_LD_20_RN_9_RD_15_0.png","C_Dist_300_LN_20_LD_25_RN_13_RD_26_0.png","C_Dist_300_LN_20_LD_25_RN_14_RD_28_0.png","C_Dist_300_LN_20_LD_25_RN_5_RD_10_0.png","C_Dist_300_LN_20_LD_25_RN_8_RD_16_0.png","C_Dist_300_LN_20_LD_25_RN_9_RD_18_0.png","C_Dist_300_LN_24_LD_30_RN_2_RD_4_0.png","C_Dist_300_LN_24_LD_30_RN_8_RD_16_0.png","C_Dist_300_LN_3_LD_6_RN_2_RD_10_0.png","C_Dist_300_LN_4_LD_10_RN_1_RD_10_0.png","C_Dist_300_LN_4_LD_5_RN_2_RD_4_0.png","C_Dist_300_LN_8_LD_16_RN_1_RD_5_0.png","C_Dist_300_LN_9_LD_10_RN_3_RD_5_0.png"],["C_Dist_300_LN_1_LD_20_RN_7_RD_20_1.png","C_Dist_300_LN_1_LD_3_RN_19_RD_30_1.png","C_Dist_300_LN_1_LD_30_RN_8_RD_24_1.png","C_Dist_300_LN_1_LD_5_RN_11_RD_22_1.png","C_Dist_300_LN_1_LD_5_RN_3_RD_6_1.png","C_Dist_300_LN_1_LD_5_RN_6_RD_12_1.png","C_Dist_300_LN_2_LD_10_RN_12_RD_24_1.png","C_Dist_300_LN_2_LD_20_RN_10_RD_25_1.png","C_Dist_300_LN_3_LD_12_RN_11_RD_20_1.png","C_Dist_300_LN_3_LD_6_RN_4_RD_5_1.png","C_Dist_300_LN_4_LD_20_RN_13_RD_26_1.png","C_Dist_300_LN_5_LD_25_RN_6_RD_12_1.png","C_Dist_300_LN_5_LD_25_RN_7_RD_14_1.png","C_Dist_300_LN_7_LD_14_RN_20_RD_25_1.png","C_Dist_300_LN_8_LD_15_RN_10_RD_12_1.png"]],"dist300_I":[["I_Dist_300_LN_1_LD_2_RN_2_RD_10_0.png","I_Dist_300_LN_1_LD_2_RN_3_RD_15_0.png","I_Dist_300_LN_2_LD_4_RN_6_RD_30_0.png","I_Dist_300_LN_3_LD_6_RN_4_RD_20_0.png","I_Dist_300_LN_4_LD_5_RN_6_RD_12_0.png","I_Dist_300_LN_4_LD_5_RN_8_RD_16_0.png","I_Dist_300_LN_7_LD_10_RN_8_RD_20_0.png","I_Dist_300_LN_8_LD_10_RN_14_RD_28_0.png","I_Dist_300_LN_8_LD_10_RN_9_RD_18_0.png"],["I_Dist_300_LN_13_LD_26_RN_12_RD_15_1.png","I_Dist_300_LN_4_LD_20_RN_2_RD_4_1.png"]],"dist300_S":[["E_Dist_300_LN_9_LD_12_RN_9_RD_20_0.png"],["E_Dist_300_LN_18_LD_30_RN_18_RD_20_1.png","E_Dist_300_LN_3_LD_10_RN_3_RD_5_1.png","E_Dist_300_LN_9_LD_20_RN_9_RD_12_1.png"]],"dist500_C":[["C_Dist_500_LN_10_LD_13_RN_7_RD_26_0.png","C_Dist_500_LN_10_LD_15_RN_4_RD_24_0.png","C_Dist_500_LN_12_LD_16_RN_3_RD_12_0.png","C_Dist_500_LN_12_LD_18_RN_4_RD_24_0.png","C_Dist_500_LN_15_LD_18_RN_5_RD_15_0.png","C_Dist_500_LN_15_LD_20_RN_1_RD_4_0.png","C_Dist_500_LN_18_LD_27_RN_1_RD_6_0.png","C_Dist_500_LN_20_LD_24_RN_1_RD_3_0.png","C_Dist_500_LN_20_LD_24_RN_3_RD_9_0.png","C_Dist_500_LN_20_LD_24_RN_7_RD_21_0.png","C_Dist_500_LN_20_LD_28_RN_3_RD_14_0.png","C_Dist_500_LN_21_LD_28_RN_6_RD_24_0.png","C_Dist_500_LN_22_LD_28_RN_2_RD_7_0.png","C_Dist_500_LN_25_LD_30_RN_9_RD_27_0.png","C_Dist_500_LN_4_LD_6_RN_1_RD_6_0.png","C_Dist_500_LN_5_LD_6_RN_2_RD_6_0.png","C_Dist_500_LN_6_LD_9_RN_1_RD_6_0.png","C_Dist_500_LN_7_LD_10_RN_1_RD_5_0.png","C_Dist_500_LN_8_LD_12_RN_1_RD_6_0.png","C_Dist_500_LN_8_LD_12_RN_4_RD_24_0.png"],["C_Dist_500_LN_1_LD_4_RN_12_RD_16_1.png","C_Dist_500_LN_1_LD_4_RN_9_RD_12_1.png","C_Dist_500_LN_1_LD_9_RN_11_RD_18_1.png","C_Dist_500_LN_10_LD_24_RN_22_RD_24_1.png","C_Dist_500_LN_2_LD_12_RN_10_RD_15_1.png","C_Dist_500_LN_2_LD_12_RN_12_RD_18_1.png","C_Dist_500_LN_2_LD_12_RN_4_RD_6_1.png","C_Dist_500_LN_2_LD_24_RN_7_RD_12_1.png","C_Dist_500_LN_2_LD_5_RN_18_RD_20_1.png","C_Dist_500_LN_2_LD_5_RN_9_RD_10_1.png","C_Dist_500_LN_2_LD_8_RN_12_RD_16_1.png","C_Dist_500_LN_2_LD_8_RN_21_RD_28_1.png","C_Dist_500_LN_3_LD_10_RN_4_RD_5_1.png","C_Dist_500_LN_3_LD_12_RN_15_RD_20_1.png","C_Dist_500_LN_3_LD_30_RN_6_RD_10_1.png","C_Dist_500_LN_3_LD_8_RN_14_RD_16_1.png","C_Dist_500_LN_4_LD_16_RN_15_RD_20_1.png","C_Dist_500_LN_4_LD_24_RN_12_RD_18_1.png","C_Dist_500_LN_5_LD_14_RN_6_RD_7_1.png","C_Dist_500_LN_7_LD_21_RN_20_RD_24_1.png","C_Dist_500_LN_7_LD_28_RN_12_RD_16_1.png","C_Dist_500_LN_7_LD_28_RN_9_RD_12_1.png","C_Dist_500_LN_9_LD_27_RN_20_RD_24_1.png"]],"dist500_I":[["I_Dist_500_LN_2_LD_3_RN_4_RD_24_0.png","I_Dist_500_LN_5_LD_6_RN_6_RD_18_0.png","I_Dist_500_LN_7_LD_8_RN_9_RD_24_0.png"],["I_Dist_500_LN_7_LD_21_RN_5_RD_6_1.png"]],"dist500_S":[["E_Dist_500_LN_6_LD_8_RN_6_RD_24_0.png"],["E_Dist_500_LN_2_LD_12_RN_2_RD_3_1.png","E_Dist_500_LN_6_LD_24_RN_6_RD_8_1.png"]]}},{"start_time":1551892240441,"click_time":1551892246444,"finger_time":1551892243624,"fix_duration":295.9889746316514,"trial":1,"RT":3183,"MT":2820,"sideResp":2,"stimulus":[],"xmouse":[796,796,796,796,796,796,796,796,796,796,796,796,796,796,796,796,796,796,796,796,796,796,796,796,796,796,796,796,796,796,796,796,796,796,796,796,796,796,796,796,796,796,796,796,796,796,796,796,796,796,796,796,796,796,796,796,796,796,796,796,796,796,796,796,796,796,796,796,796,796,796,796,796,796,796,796,796,796,805,807,816,817,817,817,817,817,817,817,817,817,817,817,817,817,817,817,817,817,817,817,817,817,817,817,817,817,817,817,817,817,817,817,817,817,817,817,817,817,817,817,817,817,817,817,817,817,817,817,817,817,817,817,817,817,817,817,817,817,817,817,817,817,817,817,817,817,817,817,818,819,819,819,819,819,819,819,820,821,830,846,897,923,943,955,958,963,964,963,960,952,947,946,943,943,943,943,942,940,939,938,936,935,935,934,934,934,934,934,934,934,934,934,934,934,934,934,934,934,934,934,934,934,934,934,934,934,934,934,934,934,934,934,934,934,934,934,934,934,934,934,934,934,934,934,934,934,934,934,934,934,934,934,934,934,934,934,934,934,934,934,934,934,934,934,934,932,930,930,929,929,929,929,929,929,929,929,929,929,929,929,929,929,929,929,929,929,929,929,929,929,929,929,929,929,929,929,929,929,929,929,929,929,929,929,929,929,929,929,929,929,929,931,937,945,957,975,979,983,983,1005,1084],"ymouse":[626,626,626,626,626,626,626,626,626,626,626,626,626,626,626,626,626,626,626,626,626,626,626,626,626,626,626,626,626,626,626,626,626,626,626,626,626,626,626,626,626,626,626,626,626,626,626,626,626,626,626,626,626,626,626,626,626,626,626,626,626,626,626,626,626,626,626,626,626,626,626,626,626,626,626,626,626,620,604,600,588,587,587,587,587,587,587,587,587,587,587,587,587,587,587,587,587,587,587,587,587,587,587,587,587,587,587,587,587,587,587,587,587,587,587,587,587,587,587,587,587,587,587,587,587,587,587,587,587,587,587,587,587,587,587,587,587,587,587,587,587,587,587,587,587,587,587,587,589,590,590,590,590,591,591,591,591,590,584,575,552,537,525,518,516,507,501,477,467,432,397,388,382,381,381,381,382,388,391,394,400,402,403,405,405,405,405,405,405,405,405,405,405,405,405,405,405,405,405,405,405,405,405,405,405,405,405,405,405,405,405,405,405,405,405,405,405,405,405,405,405,405,405,405,404,404,404,404,404,404,404,404,404,404,404,404,404,404,404,404,404,404,404,404,404,404,405,406,406,406,406,406,406,406,406,406,406,406,406,406,406,406,406,406,406,406,406,406,406,406,406,406,406,406,406,406,406,406,406,406,406,406,406,406,406,406,406,406,406,406,406,405,403,398,388,364,341,296,247,181,43],"timestamp_mouse":[11,25,43,62,83,103,123,144,164,182,202,223,242,264,283,303,322,344,363,382,402,424,442,463,484,503,523,543,562,582,603,623,643,662,683,703,723,743,762,784,803,823,844,863,883,904,922,943,962,984,1002,1022,1044,1063,1082,1104,1122,1142,1162,1182,1202,1224,1243,1264,1284,1302,1324,1342,1364,1382,1402,1423,1442,1463,1482,1503,1523,1542,1564,1584,1602,1622,1644,1662,1684,1702,1724,1743,1763,1782,1803,1822,1844,1863,1882,1902,1924,1942,1962,1983,2002,2024,2042,2062,2082,2104,2123,2144,2163,2184,2202,2222,2242,2264,2283,2303,2324,2344,2362,2384,2402,2424,2442,2463,2483,2503,2524,2542,2563,2583,2603,2623,2642,2664,2684,2703,2724,2742,2762,2784,2802,2823,2842,2862,2883,2903,2924,2942,2964,2983,3004,3022,3042,3064,3084,3102,3123,3143,3163,3183,3203,3223,3243,3262,3283,3303,3323,3343,3364,3383,3403,3422,3443,3464,3483,3503,3523,3542,3563,3584,3602,3622,3642,3662,3683,3703,3724,3744,3762,3783,3803,3823,3843,3863,3884,3902,3922,3943,3964,3983,4003,4023,4042,4063,4083,4103,4123,4142,4162,4184,4202,4222,4243,4262,4283,4304,4324,4342,4362,4384,4403,4423,4442,4463,4484,4502,4523,4542,4563,4582,4604,4624,4643,4663,4683,4703,4722,4742,4762,4784,4803,4822,4844,4864,4882,4902,4923,4943,4962,4982,5004,5024,5042,5062,5083,5103,5122,5144,5163,5183,5202,5224,5243,5264,5282,5303,5323,5344,5362,5383,5403,5423,5444,5462,5482,5503,5522,5543,5563,5583,5603,5624,5643,5663,5682,5703,5724,5742,5762,5784,5803,5823,5843,5863,5883,5902,5922,5943,5963,5983,6002],"xSR":741.5,"ySR":573.95,"xT1":424.9,"yT1":0,"xT2":1058.1,"yT2":0,"toosoon":0,"cond_shown":"Congruent","ratio_trial":300,"L_num":4,"L_den":20,"R_num":13,"R_den":26,"correct_side":2,"subjID":"JuanManuelSalazarVaron31","gender":"0","school":"6","age":"11"},{"start_time":1551892248697,"click_time":1551892250905,"finger_time":1551892250504,"fix_duration":250,"trial":2,"RT":1807,"MT":401,"sideResp":1,"stimulus":[],"xmouse":[785,785,785,785,785,785,785,785,785,785,785,785,785,785,785,785,785,785,785,785,785,785,785,785,785,785,785,785,785,785,785,785,785,785,785,785,785,785,785,785,785,785,785,785,785,785,785,785,785,785,785,785,785,785,785,785,785,785,785,785,785,785,785,785,785,785,785,785,785,785,785,785,785,785,785,785,785,785,785,785,785,785,785,785,785,785,785,785,785,785,775,754,732,670,658,651,646,641,619,607,602,602,602,589,574,561,552,549,534,525,518],"ymouse":[623,623,623,623,623,623,623,623,623,623,623,623,623,623,623,623,623,623,623,623,623,623,623,623,623,623,623,623,623,623,623,623,623,623,623,623,623,623,623,623,623,623,623,623,623,623,623,623,623,623,623,623,623,623,623,623,623,623,623,623,623,623,623,623,623,623,623,623,623,623,623,623,623,623,623,623,623,623,623,623,623,623,623,623,623,623,623,623,623,601,545,454,375,219,183,161,142,122,82,61,54,52,52,46,39,35,31,30,25,23,22],"timestamp_mouse":[8,27,48,67,86,107,127,146,166,188,207,228,248,267,286,306,327,347,367,386,407,427,447,467,488,507,527,548,567,587,606,627,646,667,686,706,727,747,767,788,807,827,847,866,886,907,926,947,966,988,1006,1027,1047,1066,1088,1106,1126,1147,1167,1187,1206,1228,1246,1267,1288,1306,1328,1347,1367,1387,1407,1428,1447,1466,1487,1506,1527,1546,1567,1588,1607,1627,1646,1667,1687,1707,1726,1747,1766,1788,1807,1826,1846,1866,1886,1907,1927,1948,1967,1986,2008,2026,2047,2067,2087,2107,2127,2148,2167,2186,2208],"xSR":741.5,"ySR":573.95,"xT1":424.9,"yT1":0,"xT2":1058.1,"yT2":0,"toosoon":0,"cond_shown":"Congruent","ratio_trial":100,"L_num":4,"L_den":10,"R_num":15,"R_den":30,"correct_side":2,"subjID":"JuanManuelSalazarVaron31","gender":"0","school":"6","age":"11"},{"start_time":1551892253375,"click_time":1551892256824,"finger_time":1551892256124,"fix_duration":749.3384477246874,"trial":3,"RT":2749,"MT":700,"sideResp":2,"stimulus":[],"xmouse":[783,783,783,783,783,783,783,783,783,783,783,783,783,783,783,783,783,783,783,783,783,783,783,783,783,783,783,783,783,783,783,783,783,783,783,783,783,783,783,783,783,783,783,783,783,783,783,783,783,783,783,783,783,783,783,783,783,783,783,783,783,783,783,783,783,783,783,783,783,783,783,783,783,783,783,783,783,783,783,783,783,783,783,783,783,783,783,783,783,783,783,783,783,783,783,783,783,783,783,783,783,783,783,783,783,783,783,783,783,783,783,783,783,783,785,785,785,785,785,785,785,785,785,785,785,785,785,785,785,785,785,785,785,785,786,793,797,799,799,799,802,808,832,876,967,1014,1034,1048,1058,1062,1062,1062,1062,1062,1062,1062,1062,1062,1064,1067,1068,1068,1069,1070,1070,1073,1074,1076,1076,1076,1079,1080,1085],"ymouse":[607,607,607,607,607,607,607,607,607,607,607,607,607,607,607,607,607,607,607,607,607,607,607,607,607,607,607,607,607,607,607,607,607,607,607,607,607,607,607,607,607,607,607,607,607,607,607,607,607,607,607,607,607,607,607,607,607,607,607,607,607,607,607,607,607,607,607,607,607,607,607,607,607,607,607,607,607,607,607,607,607,607,607,607,607,607,607,607,607,607,607,607,607,607,607,607,607,607,607,607,607,607,607,607,607,607,607,607,607,607,607,607,607,607,607,607,607,607,607,607,607,607,607,607,607,607,607,607,607,607,607,607,607,607,607,589,578,573,569,566,559,545,507,440,316,239,200,174,155,145,143,143,143,143,143,143,143,142,137,128,123,119,115,113,111,107,106,104,104,104,102,101,96],"timestamp_mouse":[8,37,50,69,90,109,128,150,168,189,210,229,249,269,288,310,329,349,369,390,409,429,450,468,490,509,529,550,569,589,609,629,650,668,689,710,728,749,768,789,808,829,848,870,888,909,930,949,968,990,1009,1029,1049,1068,1088,1110,1129,1150,1170,1188,1209,1229,1250,1268,1288,1310,1328,1349,1370,1389,1409,1430,1449,1468,1489,1509,1529,1549,1568,1588,1609,1628,1650,1669,1689,1709,1729,1749,1768,1790,1808,1829,1848,1870,1888,1910,1929,1948,1970,1989,2009,2030,2048,2069,2088,2110,2128,2150,2168,2189,2210,2229,2248,2269,2289,2310,2328,2348,2370,2389,2409,2430,2449,2468,2488,2510,2528,2548,2570,2588,2610,2628,2650,2668,2689,2710,2728,2749,2770,2789,2809,2828,2849,2870,2889,2908,2929,2949,2969,2989,3009,3029,3049,3068,3089,3108,3130,3149,3170,3189,3209,3228,3249,3270,3289,3309,3329,3349,3370,3388,3409,3429,3449],"xSR":741.5,"ySR":573.95,"xT1":424.9,"yT1":0,"xT2":1058.1,"yT2":0,"toosoon":0,"cond_shown":"Incongruent","ratio_trial":300,"L_num":1,"L_den":2,"R_num":3,"R_den":15,"correct_side":1,"subjID":"JuanManuelSalazarVaron31","gender":"0","school":"6","age":"11"},{"start_time":1551892258895,"click_time":1551892261084,"finger_time":1551892260723,"fix_duration":250,"trial":4,"RT":1828,"MT":361,"sideResp":2,"stimulus":[],"xmouse":[809,808,807,806,806,806,806,806,806,806,806,805,804,804,803,803,803,803,803,802,801,801,801,801,801,801,801,801,801,801,801,801,801,801,801,801,801,801,801,801,801,801,801,801,801,801,801,801,801,801,801,801,801,801,801,801,801,801,801,801,801,801,801,801,801,801,801,801,801,801,801,801,801,801,801,801,801,801,801,801,801,801,801,801,801,801,801,801,802,813,827,844,860,874,884,885,885,885,885,898,908,920,930,947,984,1006,1035,1048,1061,1074],"ymouse":[614,613,613,612,612,612,612,612,612,612,612,612,612,612,612,612,612,612,612,612,612,612,612,612,612,612,612,612,612,612,612,612,612,612,612,612,612,612,612,612,612,612,612,612,612,612,612,612,612,612,612,612,612,612,612,612,612,612,612,612,612,612,612,612,612,612,612,612,612,612,612,612,612,612,612,612,612,612,612,612,612,612,612,612,612,612,612,612,611,602,589,568,547,527,505,500,499,499,498,476,455,433,408,372,276,225,159,133,113,93],"timestamp_mouse":[13,29,50,70,89,110,129,148,168,189,209,229,250,269,290,308,328,350,369,390,408,429,448,468,489,510,530,548,570,589,609,630,649,668,689,709,730,748,769,789,810,829,850,868,890,909,929,948,968,988,1009,1030,1049,1069,1088,1110,1130,1148,1169,1189,1209,1229,1249,1270,1288,1309,1328,1349,1370,1388,1410,1429,1448,1469,1489,1508,1530,1548,1569,1590,1609,1628,1648,1669,1688,1708,1729,1750,1768,1789,1808,1828,1848,1870,1889,1909,1928,1948,1968,1989,2009,2028,2050,2069,2089,2108,2128,2148,2169,2189],"xSR":741.5,"ySR":573.95,"xT1":424.9,"yT1":0,"xT2":1058.1,"yT2":0,"toosoon":0,"cond_shown":"Incongruent","ratio_trial":200,"L_num":6,"L_den":20,"R_num":3,"R_den":6,"correct_side":2,"subjID":"JuanManuelSalazarVaron31","gender":"0","school":"6","age":"11"},{"start_time":1551892265159,"click_time":1551892266985,"finger_time":1551892266484,"fix_duration":833.9227399427972,"trial":5,"RT":1325,"MT":501,"sideResp":1,"stimulus":[],"xmouse":[786,786,786,786,786,786,786,786,786,786,786,786,786,786,786,786,786,786,786,786,786,786,786,786,786,786,786,786,786,786,786,786,786,786,786,786,786,786,786,786,786,786,786,786,786,786,786,786,786,786,786,786,786,786,786,786,786,786,786,786,786,786,786,786,786,785,782,756,719,690,668,656,652,644,631,603,516,469,423,408,406,406,414,416,418,421,423,427,428,431,434,439],"ymouse":[618,618,618,618,618,618,618,618,618,618,618,618,618,618,618,618,618,618,618,618,618,618,618,618,618,618,618,618,618,618,618,618,618,618,618,618,618,618,618,618,618,618,618,618,618,618,618,618,618,618,618,618,618,618,618,618,618,618,618,618,618,618,618,618,613,592,558,485,430,396,367,344,335,320,304,277,207,175,144,129,126,124,119,118,116,111,109,105,104,102,100,97],"timestamp_mouse":[8,25,45,65,84,106,125,145,164,185,206,225,245,265,286,305,326,346,365,386,405,426,445,464,485,506,525,545,565,586,606,624,644,664,685,706,725,746,764,784,804,825,845,865,884,906,925,945,965,984,1005,1025,1044,1065,1085,1106,1126,1145,1164,1185,1205,1224,1246,1265,1284,1305,1325,1345,1364,1385,1404,1425,1444,1465,1486,1506,1526,1544,1566,1586,1604,1624,1645,1664,1685,1705,1725,1745,1765,1785,1804,1825],"xSR":741.5,"ySR":573.95,"xT1":424.9,"yT1":0,"xT2":1058.1,"yT2":0,"toosoon":0,"cond_shown":"Incongruent","ratio_trial":300,"L_num":4,"L_den":5,"R_num":6,"R_den":12,"correct_side":1,"subjID":"JuanManuelSalazarVaron31","gender":"0","school":"6","age":"11"},{"start_time":1551892268699,"click_time":1551892270404,"finger_time":1551892270065,"fix_duration":292.071431831411,"trial":6,"RT":1366,"MT":339,"sideResp":2,"stimulus":[],"xmouse":[782,782,782,782,782,782,782,782,782,782,782,782,782,782,782,782,782,782,782,782,782,782,782,782,782,782,782,782,782,782,782,782,782,782,782,782,782,782,782,782,782,782,782,782,782,782,782,782,782,782,782,782,782,782,782,782,782,782,782,782,782,782,782,782,782,782,782,788,835,871,912,931,944,953,960,977,990,1009,1026,1037,1043,1043,1043,1047,1053,1076],"ymouse":[611,611,611,611,611,611,611,611,611,611,611,611,611,611,611,611,611,611,611,611,611,611,611,611,611,611,611,611,611,611,611,611,611,611,611,611,611,611,611,611,611,611,611,611,611,611,611,611,611,611,611,611,611,611,611,611,611,611,611,611,611,611,611,611,611,611,611,600,569,541,498,464,442,422,404,376,358,333,300,257,196,167,159,134,119,75],"timestamp_mouse":[8,34,44,66,85,106,125,144,165,185,204,226,244,265,286,306,324,345,365,384,405,425,444,464,485,505,525,544,565,584,604,624,644,664,684,705,725,744,765,784,804,825,844,865,885,905,924,944,966,985,1004,1024,1044,1065,1085,1104,1124,1144,1164,1184,1205,1225,1245,1265,1285,1306,1325,1346,1366,1386,1405,1425,1444,1465,1486,1505,1525,1545,1565,1585,1604,1624,1644,1666,1685,1705],"xSR":741.5,"ySR":573.95,"xT1":424.9,"yT1":0,"xT2":1058.1,"yT2":0,"toosoon":0,"cond_shown":"Incongruent","ratio_trial":300,"L_num":4,"L_den":20,"R_num":2,"R_den":4,"correct_side":2,"subjID":"JuanManuelSalazarVaron31","gender":"0","school":"6","age":"11"},{"start_time":1551892273755,"click_time":1551892276143,"finger_time":1551892275305,"fix_duration":469.60791651494515,"trial":7,"RT":1550,"MT":838,"sideResp":1,"stimulus":[],"xmouse":[781,781,781,781,781,781,781,781,781,781,781,781,781,781,781,781,781,781,781,781,781,781,781,781,781,781,781,781,781,781,781,781,781,781,781,781,781,781,781,781,781,781,781,781,781,781,781,781,781,781,781,781,781,781,781,781,781,781,781,781,781,781,781,781,781,781,781,781,781,781,781,782,791,794,799,805,819,854,880,893,904,916,928,949,959,965,968,968,968,968,968,968,961,949,940,933,928,923,921,919,915,911,906,881,860,833,798,751,707,686,660,631,597,559,554,554,554,551,525,513],"ymouse":[644,644,644,644,644,644,644,644,644,644,644,644,644,644,644,644,644,644,644,644,644,644,644,644,644,644,644,644,644,644,644,644,644,644,644,644,644,644,644,644,644,644,644,644,644,644,644,644,644,644,644,644,644,644,644,644,644,644,644,644,644,644,644,644,644,644,644,644,644,644,644,645,641,638,635,630,617,591,573,564,555,544,529,498,482,463,450,444,441,441,441,441,440,440,440,440,440,438,434,428,421,413,400,346,299,252,200,136,89,72,56,38,21,1,0,0,0,0,10,14],"timestamp_mouse":[12,42,49,68,89,109,128,150,169,188,208,229,249,269,289,309,329,349,368,390,410,430,450,468,490,509,530,549,570,588,608,628,648,670,688,709,728,749,769,788,810,829,848,869,889,908,930,949,969,989,1008,1028,1048,1069,1089,1108,1129,1150,1168,1188,1209,1228,1248,1268,1289,1309,1328,1350,1368,1389,1410,1428,1449,1469,1489,1508,1528,1549,1569,1589,1609,1629,1650,1669,1688,1710,1729,1750,1769,1788,1808,1828,1850,1869,1888,1909,1929,1949,1968,1989,2008,2028,2049,2069,2089,2109,2128,2148,2170,2189,2208,2228,2249,2269,2288,2310,2330,2349,2368,2388],"xSR":741.5,"ySR":573.95,"xT1":424.9,"yT1":0,"xT2":1058.1,"yT2":0,"toosoon":0,"cond_shown":"Congruent","ratio_trial":100,"L_num":12,"L_den":30,"R_num":13,"R_den":26,"correct_side":2,"subjID":"JuanManuelSalazarVaron31","gender":"0","school":"6","age":"11"},{"start_time":1551892278167,"click_time":1551892279744,"finger_time":1551892279544,"fix_duration":401.3460236968154,"trial":8,"RT":1377,"MT":200,"sideResp":2,"stimulus":[],"xmouse":[782,782,782,782,782,782,782,782,782,782,782,782,782,782,782,782,782,782,782,782,782,782,782,782,782,782,782,782,782,782,782,782,782,782,782,782,782,782,782,782,782,782,782,782,782,782,782,782,782,782,782,782,782,782,782,782,782,782,782,782,782,782,782,782,782,782,782,805,830,871,920,969,1061,1089,1105,1114,1118,1127,1131],"ymouse":[609,609,609,609,609,609,609,609,609,609,609,609,609,609,609,609,609,609,609,609,609,609,609,609,609,609,609,609,609,609,609,609,609,609,609,609,609,609,609,609,609,609,609,609,609,609,609,609,609,609,609,609,609,609,609,609,609,609,609,609,609,609,609,609,609,609,609,587,567,518,457,381,241,191,158,129,116,101,95],"timestamp_mouse":[17,37,56,76,97,116,137,157,177,197,216,238,256,277,296,317,337,357,377,397,417,437,458,477,496,518,538,558,578,597,617,636,656,676,698,717,737,758,776,797,817,837,856,877,897,918,937,958,977,997,1018,1037,1056,1077,1098,1117,1136,1158,1176,1198,1216,1238,1258,1276,1297,1318,1337,1357,1377,1397,1417,1438,1456,1477,1497,1517,1538,1556,1576],"xSR":741.5,"ySR":573.95,"xT1":424.9,"yT1":0,"xT2":1058.1,"yT2":0,"toosoon":0,"cond_shown":"Incongruent","ratio_trial":200,"L_num":14,"L_den":30,"R_num":12,"R_den":18,"correct_side":2,"subjID":"JuanManuelSalazarVaron31","gender":"0","school":"6","age":"11"},{"start_time":1551892282070,"click_time":1551892283643,"finger_time":1551892283124,"fix_duration":1065.4818948041745,"trial":9,"RT":1054,"MT":519,"sideResp":1,"stimulus":[],"xmouse":[777,777,777,777,777,777,777,777,777,777,777,777,777,777,777,777,777,777,777,777,777,777,777,777,777,777,777,777,777,777,777,777,777,777,777,777,777,777,777,777,777,777,777,777,777,777,777,777,777,779,779,777,771,763,762,762,762,762,762,762,762,762,762,753,737,718,693,655,535,498,471,461,459,461,466,470,473,479,487],"ymouse":[647,647,647,647,647,647,647,647,647,647,647,647,647,647,647,647,647,647,647,647,647,647,647,647,647,647,647,647,647,647,647,647,647,647,647,647,647,647,647,647,647,647,647,647,647,647,647,647,647,642,617,590,555,506,498,497,497,497,497,497,497,497,496,480,463,444,424,397,318,273,228,194,143,131,121,116,113,104,89],"timestamp_mouse":[13,44,53,74,94,113,133,155,174,194,214,234,254,273,293,313,335,353,374,395,414,434,455,475,493,515,534,554,574,594,615,634,653,674,693,713,733,754,775,793,814,834,853,873,895,914,933,953,974,994,1014,1033,1054,1074,1094,1114,1133,1155,1174,1195,1214,1233,1255,1274,1293,1314,1334,1354,1374,1394,1414,1434,1454,1473,1494,1514,1533,1553,1573],"xSR":741.5,"ySR":573.95,"xT1":424.9,"yT1":0,"xT2":1058.1,"yT2":0,"toosoon":0,"cond_shown":"Incongruent","ratio_trial":200,"L_num":3,"L_den":4,"R_num":11,"R_den":20,"correct_side":1,"subjID":"JuanManuelSalazarVaron31","gender":"0","school":"6","age":"11"},{"start_time":1551892285825,"click_time":1551892289165,"finger_time":1551892287484,"fix_duration":1099.8484413955762,"trial":10,"RT":1659,"MT":1681,"sideResp":1,"stimulus":[],"xmouse":[821,821,821,821,821,821,821,821,821,821,821,821,821,821,821,821,821,821,821,821,821,821,821,821,821,821,821,821,821,821,821,821,821,821,821,821,821,821,821,821,821,821,821,821,821,821,821,821,821,821,821,821,821,821,821,821,821,821,821,821,821,821,821,821,821,821,821,821,821,821,821,821,821,821,821,821,821,821,821,821,821,821,821,847,868,907,990,1024,1051,1075,1083,1089,1102,1105,1106,1106,1106,1106,1106,1106,1106,1104,1099,1088,1075,1064,1054,1050,1047,1043,1034,994,971,953,935,925,900,880,857,848,843,819,803,784,758,728,681,674,668,660,649,607,592,582,571,548,414,333,259,247,246,246,246,247,249,252,256,261,280,295,304,325,346,374,397,408,410,410,410,410,410,410,410,410,410,410,416,430],"ymouse":[627,627,627,627,627,627,627,627,627,627,627,627,627,627,627,627,627,627,627,627,627,627,627,627,627,627,627,627,627,627,627,627,627,627,627,627,627,627,627,627,627,627,627,627,627,627,627,627,627,627,627,627,627,627,627,627,627,627,627,627,627,627,627,627,627,627,627,627,627,627,627,627,627,627,627,627,627,627,627,627,627,627,625,591,575,542,462,413,367,312,286,265,236,231,229,228,228,228,228,228,228,230,231,234,236,238,238,238,238,237,233,219,211,207,203,200,196,188,182,181,180,175,169,160,145,125,87,72,48,32,15,0,0,0,0,0,4,15,25,27,27,27,27,27,27,27,27,27,27,26,26,25,25,25,25,25,25,25,25,27,28,31,32,32,32,34,52,69],"timestamp_mouse":[1,32,39,58,78,100,118,138,158,178,200,219,238,260,279,299,318,338,359,379,400,419,439,459,479,498,519,538,560,579,598,618,639,659,679,698,718,738,759,779,798,818,840,858,880,900,919,938,960,978,998,1019,1039,1059,1078,1099,1118,1138,1160,1178,1199,1218,1239,1259,1278,1300,1318,1338,1360,1378,1399,1418,1439,1459,1478,1499,1518,1540,1560,1578,1599,1620,1638,1659,1679,1700,1719,1738,1759,1780,1799,1818,1839,1859,1878,1898,1919,1939,1960,1980,1999,2019,2039,2060,2078,2098,2119,2139,2159,2178,2199,2218,2239,2259,2279,2299,2318,2339,2359,2378,2398,2419,2439,2459,2479,2499,2518,2539,2559,2579,2599,2619,2639,2660,2679,2700,2720,2738,2758,2779,2799,2819,2839,2858,2878,2899,2919,2939,2959,2979,3000,3018,3039,3059,3079,3100,3120,3138,3159,3179,3198,3218,3238,3260,3279,3299,3319,3339],"xSR":741.5,"ySR":573.95,"xT1":424.9,"yT1":0,"xT2":1058.1,"yT2":0,"toosoon":0,"cond_shown":"Congruent","ratio_trial":100,"L_num":9,"L_den":15,"R_num":8,"R_den":16,"correct_side":1,"subjID":"JuanManuelSalazarVaron31","gender":"0","school":"6","age":"11"},{"start_time":1551892292626,"click_time":1551892294744,"finger_time":1551892294404,"fix_duration":440.666425979134,"trial":11,"RT":1778,"MT":340,"sideResp":1,"stimulus":[],"xmouse":[797,797,797,797,797,797,797,797,797,797,797,797,797,797,797,797,797,797,797,797,797,797,797,797,797,797,797,797,797,797,797,797,797,797,797,797,797,797,797,797,797,797,797,797,797,797,797,797,797,797,797,797,797,797,797,797,797,797,797,797,797,797,797,797,797,797,797,797,797,797,797,797,797,797,797,797,797,797,797,797,797,797,797,797,797,797,797,800,803,803,792,740,711,669,655,617,587,582,582,582,582,579,572,566,548,517],"ymouse":[616,616,616,616,616,616,616,616,616,616,616,616,616,616,616,616,616,616,616,616,616,616,616,616,616,616,616,616,616,616,616,616,616,616,616,616,616,616,616,616,616,616,616,616,616,616,616,616,616,616,616,616,616,616,616,616,616,616,616,616,616,616,616,616,616,616,616,616,616,616,616,616,616,616,616,616,616,616,616,616,616,616,616,616,616,616,616,599,554,535,509,410,347,249,218,123,29,8,0,0,0,0,0,0,10,37],"timestamp_mouse":[18,40,58,77,97,117,137,157,178,197,218,238,257,278,297,318,339,357,377,397,418,438,458,478,499,517,538,557,577,597,618,637,657,678,697,718,737,758,779,797,817,837,857,877,898,917,937,957,978,997,1018,1038,1058,1077,1097,1119,1138,1159,1177,1197,1217,1237,1257,1277,1297,1319,1337,1358,1377,1397,1417,1437,1458,1477,1497,1518,1538,1557,1577,1599,1617,1638,1657,1677,1697,1719,1738,1757,1778,1798,1819,1837,1858,1878,1897,1919,1938,1958,1977,1997,2018,2039,2058,2079,2099,2118],"xSR":741.5,"ySR":573.95,"xT1":424.9,"yT1":0,"xT2":1058.1,"yT2":0,"toosoon":0,"cond_shown":"Congruent","ratio_trial":300,"L_num":11,"L_den":22,"R_num":2,"R_den":10,"correct_side":1,"subjID":"JuanManuelSalazarVaron31","gender":"0","school":"6","age":"11"},{"start_time":1551892297178,"click_time":1551892298823,"finger_time":1551892298443,"fix_duration":574.0237656039832,"trial":12,"RT":1265,"MT":380,"sideResp":1,"stimulus":[],"xmouse":[780,780,780,780,780,780,780,780,780,780,780,780,780,780,780,780,780,780,780,780,780,780,780,780,780,780,780,780,780,780,780,780,780,780,780,780,780,780,780,780,780,780,780,780,780,780,780,780,780,780,780,780,780,780,780,780,780,780,780,780,780,779,777,762,723,695,679,656,619,486,433,404,397,397,397,399,401,403,404,408,412,422,436],"ymouse":[621,621,621,621,621,621,621,621,621,621,621,621,621,621,621,621,621,621,621,621,621,621,621,621,621,621,621,621,621,621,621,621,621,621,621,621,621,621,621,621,621,621,621,621,621,621,621,621,621,621,621,621,621,621,621,621,621,621,621,621,621,608,583,547,469,421,398,366,314,176,137,121,114,112,110,109,106,103,101,95,92,88,84],"timestamp_mouse":[9,39,46,66,86,107,126,146,165,186,205,225,245,266,285,305,325,346,366,385,405,427,445,465,486,505,525,545,565,585,605,627,645,665,685,705,726,746,766,786,806,826,846,867,886,905,926,947,965,986,1005,1025,1046,1067,1085,1105,1126,1147,1166,1186,1206,1226,1247,1265,1285,1305,1325,1346,1366,1385,1405,1426,1446,1465,1485,1505,1525,1546,1566,1585,1606,1626,1645],"xSR":741.5,"ySR":573.95,"xT1":424.9,"yT1":0,"xT2":1058.1,"yT2":0,"toosoon":0,"cond_shown":"Incongruent","ratio_trial":200,"L_num":7,"L_den":10,"R_num":12,"R_den":24,"correct_side":1,"subjID":"JuanManuelSalazarVaron31","gender":"0","school":"6","age":"11"},{"start_time":1551892300504,"click_time":1551892302364,"finger_time":1551892302124,"fix_duration":418.48029405561994,"trial":13,"RT":1620,"MT":240,"sideResp":1,"stimulus":[],"xmouse":[807,807,807,807,807,807,807,807,807,807,807,807,807,807,807,807,807,807,807,807,807,807,807,807,807,807,807,807,807,807,807,807,807,807,807,807,807,807,807,807,807,807,807,807,807,807,807,807,807,807,807,807,807,807,807,807,807,807,807,807,807,807,807,807,807,807,807,807,807,807,807,807,807,807,807,807,807,807,805,802,782,755,723,632,588,553,533,524,524,524,523,522,521],"ymouse":[656,656,656,656,656,656,656,656,656,656,656,656,656,656,656,656,656,656,656,656,656,656,656,656,656,656,656,656,656,656,656,656,656,656,656,656,656,656,656,656,656,656,656,656,656,656,656,656,656,656,656,656,656,656,656,656,656,656,656,656,656,656,656,656,656,656,656,656,656,656,656,656,656,656,656,656,656,656,649,600,527,432,324,134,52,0,0,0,0,0,0,0,1],"timestamp_mouse":[19,43,59,80,100,120,139,159,181,200,219,241,259,281,299,319,339,359,380,399,420,439,459,479,501,520,539,559,580,599,620,640,659,679,700,719,739,760,779,799,819,839,861,880,899,919,940,960,980,999,1020,1041,1060,1079,1100,1119,1140,1160,1179,1199,1219,1240,1259,1279,1300,1319,1339,1361,1380,1399,1419,1440,1459,1479,1499,1520,1539,1559,1580,1600,1619,1640,1659,1680,1699,1721,1740,1760,1780,1800,1820,1839,1860],"xSR":741.5,"ySR":573.95,"xT1":424.9,"yT1":0,"xT2":1058.1,"yT2":0,"toosoon":0,"cond_shown":"Congruent","ratio_trial":300,"L_num":11,"L_den":22,"R_num":4,"R_den":20,"correct_side":1,"subjID":"JuanManuelSalazarVaron31","gender":"0","school":"6","age":"11"},{"start_time":1551892305080,"click_time":1551892307103,"finger_time":1551892306484,"fix_duration":1375.620388668756,"trial":14,"RT":1404,"MT":619,"sideResp":2,"stimulus":[],"xmouse":[776,776,776,776,776,776,776,776,776,776,776,776,776,776,776,776,776,776,776,776,776,776,776,776,776,776,776,776,776,776,776,776,776,776,776,776,776,776,776,776,776,776,776,776,776,776,776,776,776,776,776,776,776,776,776,776,776,776,776,776,776,776,776,776,776,779,791,803,810,816,829,843,872,891,907,933,939,945,951,958,967,987,991,993,993,1002,1020,1026,1026,1026,1026,1026,1030,1032,1034,1036,1040,1045,1047,1047,1051,1060],"ymouse":[615,615,615,615,615,615,615,615,615,615,615,615,615,615,615,615,615,615,615,615,615,615,615,615,615,615,615,615,615,615,615,615,615,615,615,615,615,615,615,615,615,615,615,615,615,615,615,615,615,615,615,615,615,615,615,615,615,615,615,615,615,615,615,615,615,613,605,596,591,585,563,542,500,471,443,392,369,328,284,235,187,117,101,94,94,94,96,96,96,96,96,96,96,97,97,97,96,93,92,91,88,84],"timestamp_mouse":[9,34,44,64,84,103,123,144,164,184,203,223,244,264,284,303,324,344,364,384,404,424,444,463,485,504,524,543,563,583,605,624,643,664,684,703,723,744,764,783,804,824,843,864,884,904,923,945,964,984,1004,1023,1043,1064,1084,1103,1123,1144,1164,1185,1203,1223,1244,1263,1284,1304,1323,1344,1364,1383,1404,1424,1443,1464,1484,1504,1523,1543,1564,1583,1603,1623,1644,1663,1684,1703,1723,1744,1764,1784,1803,1824,1845,1863,1883,1903,1923,1944,1964,1983,2004,2023],"xSR":741.5,"ySR":573.95,"xT1":424.9,"yT1":0,"xT2":1058.1,"yT2":0,"toosoon":0,"cond_shown":"Incongruent","ratio_trial":300,"L_num":13,"L_den":26,"R_num":12,"R_den":15,"correct_side":2,"subjID":"JuanManuelSalazarVaron31","gender":"0","school":"6","age":"11"},{"start_time":1551892311846,"click_time":1551892313585,"finger_time":1551892313145,"fix_duration":660.3054756680755,"trial":15,"RT":1299,"MT":440,"sideResp":1,"stimulus":[],"xmouse":[787,787,787,787,787,787,787,787,787,787,787,787,787,787,787,787,787,787,787,787,787,787,787,787,787,787,787,787,787,787,787,787,787,787,787,787,787,787,787,787,787,787,787,787,787,787,787,787,787,787,787,787,787,787,787,787,787,787,787,787,787,784,778,774,767,762,754,749,738,698,654,627,611,607,603,591,576,544,539,539,539,539,533,527,516,509,505],"ymouse":[636,636,636,636,636,636,636,636,636,636,636,636,636,636,636,636,636,636,636,636,636,636,636,636,636,636,636,636,636,636,636,636,636,636,636,636,636,636,636,636,636,636,636,636,636,636,636,636,636,636,636,636,636,636,636,636,636,636,636,636,636,624,603,587,564,539,495,426,378,309,258,223,190,183,176,168,164,152,150,149,149,146,137,129,115,105,97],"timestamp_mouse":[18,40,58,78,97,117,137,157,178,197,217,237,258,277,297,317,338,357,378,397,417,439,457,478,497,518,538,558,578,597,618,637,659,677,697,718,737,757,778,797,817,839,858,877,897,917,937,958,977,997,1017,1038,1059,1078,1098,1117,1137,1157,1178,1197,1217,1238,1258,1278,1299,1318,1338,1358,1377,1397,1417,1438,1457,1477,1497,1517,1539,1557,1577,1598,1618,1639,1658,1678,1697,1717,1739],"xSR":741.5,"ySR":573.95,"xT1":424.9,"yT1":0,"xT2":1058.1,"yT2":0,"toosoon":0,"cond_shown":"Incongruent","ratio_trial":300,"L_num":8,"L_den":10,"R_num":14,"R_den":28,"correct_side":1,"subjID":"JuanManuelSalazarVaron31","gender":"0","school":"6","age":"11"},{"start_time":1551892316049,"click_time":1551892317683,"finger_time":1551892317365,"fix_duration":1363.4221759397235,"trial":16,"RT":1316,"MT":318,"sideResp":2,"stimulus":[],"xmouse":[787,787,787,787,787,787,787,787,787,787,787,787,787,787,787,787,787,787,787,787,787,787,787,787,787,787,787,787,787,787,789,792,798,798,798,798,798,798,798,798,798,798,798,798,798,798,798,798,798,798,798,798,798,798,798,798,798,798,798,798,798,798,798,800,820,854,891,915,944,953,965,978,1006,1028,1044,1056,1063,1067,1068,1072,1078,1088],"ymouse":[624,624,624,624,624,624,624,624,624,624,624,624,624,624,624,624,624,624,624,624,624,624,624,624,624,624,624,624,624,624,623,618,602,600,600,600,600,600,600,600,600,600,600,600,600,600,600,600,600,600,600,600,600,600,600,600,600,600,600,600,600,600,600,599,584,559,529,498,433,408,379,354,302,260,234,213,193,164,145,124,102,77],"timestamp_mouse":[14,40,54,75,95,114,135,154,175,195,214,234,254,275,294,315,335,354,375,394,414,434,454,476,494,514,534,556,574,594,614,635,655,675,695,715,734,754,776,796,815,835,854,876,895,914,934,954,975,996,1015,1034,1055,1074,1094,1114,1135,1156,1175,1194,1214,1235,1255,1274,1294,1316,1335,1354,1374,1395,1415,1434,1455,1474,1494,1514,1535,1556,1574,1595,1614,1634],"xSR":741.5,"ySR":573.95,"xT1":424.9,"yT1":0,"xT2":1058.1,"yT2":0,"toosoon":0,"cond_shown":"Incongruent","ratio_trial":100,"L_num":8,"L_den":20,"R_num":1,"R_den":2,"correct_side":2,"subjID":"JuanManuelSalazarVaron31","gender":"0","school":"6","age":"11"},{"start_time":1551892320764,"click_time":1551892322883,"finger_time":1551892322244,"fix_duration":279.3290794601977,"trial":17,"RT":1480,"MT":639,"sideResp":1,"stimulus":[],"xmouse":[774,774,774,774,774,774,774,774,774,774,774,774,774,774,774,774,774,774,774,774,774,774,774,774,774,774,774,774,774,774,774,774,774,774,774,774,774,774,774,774,774,774,774,774,774,774,774,774,774,774,774,774,774,774,774,774,774,774,774,774,774,774,774,774,774,774,774,774,774,774,774,772,754,736,715,712,712,712,712,712,712,711,705,698,693,689,687,687,687,687,687,687,680,667,659,641,619,583,552,540,537,537,537,534,528,524],"ymouse":[666,666,665,665,665,665,665,665,665,665,665,665,665,665,665,665,665,665,665,665,665,665,665,665,665,665,665,665,665,665,665,665,665,665,665,665,665,665,665,665,665,665,665,665,665,665,665,665,665,665,665,665,665,665,665,665,665,665,665,665,665,665,665,665,665,665,665,665,665,665,665,661,590,552,513,510,510,510,510,510,510,507,499,488,484,481,480,480,480,480,480,479,435,333,288,159,86,10,0,0,0,0,0,1,7,10],"timestamp_mouse":[20,41,59,79,99,119,140,160,180,199,220,239,261,279,299,319,339,360,381,400,420,440,461,479,499,521,539,559,579,599,620,640,660,680,701,719,740,761,780,800,819,840,861,879,900,920,939,960,979,999,1020,1041,1059,1080,1099,1119,1140,1160,1180,1199,1221,1239,1260,1281,1300,1321,1339,1360,1380,1401,1421,1440,1460,1480,1499,1520,1540,1560,1579,1600,1620,1640,1660,1679,1700,1719,1739,1760,1780,1799,1819,1840,1859,1879,1899,1919,1939,1959,1979,1999,2019,2040,2060,2081,2099,2119],"xSR":741.5,"ySR":573.95,"xT1":424.9,"yT1":0,"xT2":1058.1,"yT2":0,"toosoon":0,"cond_shown":"Incongruent","ratio_trial":200,"L_num":7,"L_den":10,"R_num":12,"R_den":24,"correct_side":1,"subjID":"JuanManuelSalazarVaron31","gender":"0","school":"6","age":"11"},{"start_time":1551892324723,"click_time":1551892326343,"finger_time":1551892325823,"fix_duration":797.2860304733863,"trial":18,"RT":1100,"MT":520,"sideResp":2,"stimulus":[],"xmouse":[793,793,793,793,793,793,793,793,793,793,793,793,793,793,793,793,793,793,793,793,793,793,793,793,793,793,793,793,793,793,793,793,793,793,793,793,793,793,793,793,793,793,793,793,793,793,793,793,793,793,793,793,799,806,824,851,868,870,874,882,903,915,931,948,966,989,1050,1073,1091,1105,1112,1115,1115,1116,1118,1120,1122,1122,1122,1117,1110,1087],"ymouse":[615,615,615,615,615,615,615,615,615,615,615,615,615,615,615,615,615,615,615,615,615,615,615,615,615,615,615,615,615,615,615,615,615,615,615,615,615,615,615,615,615,615,615,615,615,615,615,615,615,615,615,615,603,595,577,554,538,535,527,517,488,467,441,412,383,343,259,230,210,194,181,172,170,166,161,155,144,140,135,125,113,87],"timestamp_mouse":[11,35,41,60,81,101,120,140,161,182,200,220,240,260,281,301,322,341,361,381,402,420,441,461,480,501,522,540,561,582,600,621,642,660,681,702,722,741,761,782,800,821,840,861,881,901,922,941,961,981,1000,1021,1041,1062,1081,1100,1121,1141,1160,1180,1201,1220,1241,1261,1280,1301,1321,1341,1360,1380,1400,1420,1441,1460,1480,1500,1520,1540,1560,1580,1602,1620],"xSR":741.5,"ySR":573.95,"xT1":424.9,"yT1":0,"xT2":1058.1,"yT2":0,"toosoon":0,"cond_shown":"Incongruent","ratio_trial":200,"L_num":6,"L_den":20,"R_num":3,"R_den":6,"correct_side":2,"subjID":"JuanManuelSalazarVaron31","gender":"0","school":"6","age":"11"},{"start_time":1551892328908,"click_time":1551892332584,"finger_time":1551892331903,"fix_duration":1363.5262206905766,"trial":19,"RT":2995,"MT":681,"sideResp":2,"stimulus":[],"xmouse":[783,783,783,783,783,783,783,783,783,783,783,783,783,783,783,783,783,783,783,783,783,783,783,783,783,783,783,783,783,783,783,783,783,783,783,783,783,783,783,783,783,783,783,783,783,783,783,783,783,783,783,783,783,783,783,783,783,783,783,783,783,783,783,783,783,783,783,783,783,783,783,783,783,783,783,783,783,783,783,783,783,783,783,783,783,783,783,783,783,783,783,783,783,783,783,783,783,783,783,783,783,783,783,783,783,783,783,783,783,783,783,783,783,783,783,783,783,783,783,783,783,783,783,783,783,783,783,783,783,783,783,783,783,783,783,783,783,783,783,783,783,783,783,782,781,779,777,776,773,772,772,770,770,770,770,770,770,770,770,770,771,774,777,781,784,789,816,834,855,878,898,917,942,953,964,974,998,1008,1017,1025,1031,1041,1055,1064],"ymouse":[621,621,621,621,621,621,621,621,621,621,621,621,621,621,621,621,621,621,621,621,621,621,621,621,621,621,621,621,621,621,621,621,621,621,621,621,621,621,621,621,621,621,621,621,621,621,621,621,621,621,621,621,621,621,621,621,621,621,621,621,621,621,621,621,621,621,621,621,621,621,621,621,621,621,621,621,621,621,621,621,621,621,621,621,621,621,621,621,621,621,621,621,621,621,621,621,621,621,621,621,621,621,621,621,621,621,621,621,621,621,621,621,621,621,621,621,621,621,621,621,621,621,621,621,621,621,621,621,621,621,621,621,621,621,621,621,621,621,621,621,621,621,615,611,607,603,594,589,582,573,561,541,535,527,526,524,519,514,506,499,492,481,475,468,464,460,440,427,414,397,379,362,332,307,290,273,235,215,193,174,155,126,101,89],"timestamp_mouse":[15,37,55,75,95,115,136,156,175,195,217,235,255,275,297,315,335,355,375,396,415,436,455,475,496,517,535,556,575,596,616,636,655,675,695,715,735,755,776,796,815,835,856,875,895,915,936,956,975,996,1016,1035,1056,1076,1096,1116,1135,1155,1175,1195,1215,1235,1255,1275,1296,1315,1335,1355,1375,1397,1415,1437,1455,1475,1495,1515,1535,1555,1576,1596,1615,1635,1656,1675,1696,1715,1735,1755,1776,1795,1815,1835,1855,1876,1895,1916,1935,1955,1975,1995,2017,2036,2055,2076,2095,2117,2137,2156,2176,2195,2215,2235,2256,2276,2295,2316,2335,2355,2376,2397,2415,2435,2455,2475,2496,2516,2536,2555,2575,2596,2615,2635,2656,2675,2696,2715,2735,2756,2776,2795,2815,2835,2855,2876,2895,2916,2935,2956,2976,2995,3016,3035,3055,3075,3097,3115,3135,3155,3175,3195,3216,3235,3255,3276,3295,3315,3335,3356,3376,3395,3416,3435,3457,3476,3495,3515,3535,3555,3576,3595,3617,3635,3655,3676],"xSR":741.5,"ySR":573.95,"xT1":424.9,"yT1":0,"xT2":1058.1,"yT2":0,"toosoon":0,"cond_shown":"Congruent","ratio_trial":100,"L_num":3,"L_den":20,"R_num":4,"R_den":16,"correct_side":2,"subjID":"JuanManuelSalazarVaron31","gender":"0","school":"6","age":"11"},{"start_time":1551892336404,"click_time":1551892338564,"finger_time":1551892337945,"fix_duration":1299.6069906131502,"trial":20,"RT":1541,"MT":619,"sideResp":2,"stimulus":[],"xmouse":[801,801,801,801,801,801,801,801,801,801,801,801,801,801,801,801,801,801,801,801,801,801,801,801,801,801,801,801,801,801,801,801,801,801,801,801,801,801,801,801,801,801,801,801,801,801,801,801,801,801,801,801,801,801,801,801,801,801,801,801,801,801,801,801,801,801,801,801,801,801,801,801,801,801,807,812,813,817,819,819,819,819,819,819,819,819,821,823,841,863,894,917,941,976,990,1002,1007,1016,1024,1027,1029,1030,1031,1035,1038,1041,1046,1053,1067],"ymouse":[638,638,638,638,638,638,638,638,638,638,638,638,638,638,638,638,638,638,638,638,638,638,638,638,638,638,638,638,638,638,638,638,638,638,638,638,638,638,638,638,638,638,638,638,638,638,638,638,638,638,638,638,638,638,638,638,638,638,638,638,638,638,638,638,638,638,638,638,638,638,638,638,638,638,619,603,595,570,552,550,550,550,550,550,550,550,546,539,506,476,430,393,350,287,266,243,236,220,207,199,193,187,182,167,161,156,151,132,74],"timestamp_mouse":[1,19,39,59,80,100,119,139,159,179,199,219,239,260,280,300,319,339,359,379,399,419,441,460,479,500,520,540,559,579,599,620,639,661,680,700,719,739,759,780,801,820,841,859,880,900,921,939,959,979,1000,1020,1039,1059,1080,1099,1120,1139,1159,1179,1201,1219,1239,1259,1279,1299,1319,1339,1360,1381,1400,1419,1440,1459,1479,1499,1520,1541,1559,1579,1600,1620,1640,1659,1679,1699,1720,1739,1760,1779,1800,1821,1839,1859,1879,1899,1919,1939,1960,1980,1999,2021,2039,2060,2081,2100,2120,2140,2159],"xSR":741.5,"ySR":573.95,"xT1":424.9,"yT1":0,"xT2":1058.1,"yT2":0,"toosoon":0,"cond_shown":"Incongruent","ratio_trial":200,"L_num":3,"L_den":10,"R_num":1,"R_den":2,"correct_side":2,"subjID":"JuanManuelSalazarVaron31","gender":"0","school":"6","age":"11"},{"start_time":1551892341416,"click_time":1551892343824,"finger_time":1551892343504,"fix_duration":1450.1275525376946,"trial":21,"RT":2088,"MT":320,"sideResp":1,"stimulus":[],"xmouse":[784,784,784,784,784,784,784,784,784,784,784,784,784,784,784,784,784,784,784,784,784,784,784,784,784,784,784,784,784,784,784,784,784,784,784,784,784,784,784,784,784,784,784,784,784,784,784,784,784,784,784,784,784,784,784,784,784,784,784,784,784,784,784,784,784,784,784,784,784,784,784,784,784,784,784,784,784,784,784,784,784,784,784,784,784,784,784,784,784,784,784,784,784,784,784,784,784,784,784,783,781,776,765,757,747,735,715,674,655,640,626,613,605,590,580,569,555,532,518,505,491],"ymouse":[648,648,648,648,648,648,648,648,648,648,648,648,648,648,648,648,648,648,648,648,648,648,648,648,648,648,648,648,648,648,648,648,648,648,648,648,648,648,648,648,648,648,648,648,648,648,648,648,648,648,648,648,648,648,648,648,648,648,648,648,648,648,648,648,648,648,648,648,648,648,648,648,648,648,648,648,648,648,648,648,648,648,648,648,648,648,648,648,648,648,648,648,648,648,648,648,648,648,648,642,632,623,596,582,561,536,497,425,387,363,337,309,287,238,217,195,172,134,118,105,91],"timestamp_mouse":[9,38,48,68,88,108,127,148,168,187,209,228,247,267,287,307,328,347,368,389,409,428,447,467,487,508,529,548,568,588,607,628,648,668,688,708,727,747,769,787,808,827,848,868,887,908,928,948,967,988,1009,1028,1047,1069,1087,1108,1127,1148,1167,1187,1208,1229,1247,1267,1287,1307,1327,1348,1368,1387,1407,1427,1448,1467,1487,1507,1527,1549,1567,1587,1607,1628,1648,1669,1689,1707,1728,1747,1769,1787,1807,1828,1847,1868,1887,1909,1928,1948,1968,1987,2009,2028,2048,2068,2088,2108,2128,2149,2167,2188,2207,2228,2248,2268,2287,2307,2327,2349,2368,2387,2408],"xSR":741.5,"ySR":573.95,"xT1":424.9,"yT1":0,"xT2":1058.1,"yT2":0,"toosoon":0,"cond_shown":"Incongruent","ratio_trial":100,"L_num":3,"L_den":9,"R_num":7,"R_den":30,"correct_side":1,"subjID":"JuanManuelSalazarVaron31","gender":"0","school":"6","age":"11"},{"start_time":1551892345467,"click_time":1551892347204,"finger_time":1551892346823,"fix_duration":681.3029714154966,"trial":22,"RT":1356,"MT":381,"sideResp":2,"stimulus":[],"xmouse":[776,776,776,776,776,776,776,776,776,776,776,776,776,776,776,776,776,776,776,776,776,776,776,776,776,776,776,776,776,776,776,776,776,776,776,776,776,776,776,776,776,776,776,776,776,776,776,776,776,776,776,776,776,776,776,776,776,776,776,776,776,776,776,776,776,784,830,901,981,1009,1032,1040,1050,1063,1076,1099,1102,1104,1106,1106,1106,1106,1107,1108,1111,1117,1117],"ymouse":[624,624,624,624,624,624,624,624,624,624,624,624,624,624,624,624,624,624,624,624,624,624,624,624,624,624,624,624,624,624,624,624,624,624,624,624,624,624,624,624,624,624,624,624,624,624,624,624,624,624,624,624,624,624,624,624,624,624,624,624,624,624,624,624,624,620,587,537,466,429,377,349,321,289,267,240,236,233,226,221,209,202,192,181,164,107,53],"timestamp_mouse":[30,36,56,78,96,117,136,156,177,197,218,237,256,276,298,316,336,357,377,396,417,437,456,476,496,517,538,557,578,597,617,637,656,676,696,716,736,758,776,796,816,836,857,877,897,916,936,956,976,998,1017,1037,1056,1076,1096,1116,1138,1156,1176,1197,1216,1237,1256,1277,1296,1317,1338,1356,1376,1398,1416,1437,1456,1476,1496,1516,1536,1557,1576,1596,1616,1636,1656,1677,1696,1716,1737],"xSR":741.5,"ySR":573.95,"xT1":424.9,"yT1":0,"xT2":1058.1,"yT2":0,"toosoon":0,"cond_shown":"Incongruent","ratio_trial":300,"L_num":4,"L_den":20,"R_num":2,"R_den":4,"correct_side":2,"subjID":"JuanManuelSalazarVaron31","gender":"0","school":"6","age":"11"},{"start_time":1551892361448,"click_time":1551892363023,"finger_time":1551892362703,"fix_duration":884.5898661044455,"trial":23,"RT":1255,"MT":320,"sideResp":2,"stimulus":[],"xmouse":[769,769,769,769,769,769,769,769,769,769,769,769,769,769,769,769,769,769,769,769,769,769,769,769,769,769,769,769,769,769,769,769,769,769,769,769,769,769,769,769,769,769,769,769,769,769,769,769,769,769,769,769,769,769,769,769,769,769,769,769,769,777,808,886,904,927,953,972,999,1018,1044,1064,1071,1068,1063,1061,1062,1072,1098],"ymouse":[629,629,629,629,629,629,629,629,629,629,629,629,629,629,629,629,629,629,629,629,629,629,629,629,629,629,629,629,629,629,629,629,629,629,629,629,629,629,629,629,629,629,629,629,629,629,629,629,629,629,629,629,629,629,629,629,629,629,629,629,626,613,571,483,457,426,394,375,351,340,328,317,306,256,231,200,168,138,72],"timestamp_mouse":[17,39,56,75,95,116,136,156,175,195,216,235,256,275,296,315,335,355,376,395,416,435,455,475,495,515,535,556,575,596,616,635,656,675,696,716,735,757,775,795,816,835,855,875,895,916,936,955,975,996,1016,1035,1055,1075,1096,1116,1136,1155,1175,1195,1215,1235,1255,1275,1295,1315,1335,1355,1375,1395,1416,1436,1456,1475,1495,1517,1535,1556,1575],"xSR":741.5,"ySR":573.95,"xT1":424.9,"yT1":0,"xT2":1058.1,"yT2":0,"toosoon":0,"cond_shown":"Incongruent","ratio_trial":100,"L_num":8,"L_den":20,"R_num":1,"R_den":2,"correct_side":2,"subjID":"JuanManuelSalazarVaron31","gender":"0","school":"6","age":"11"},{"start_time":1551892366580,"click_time":1551892369443,"finger_time":1551892369024,"fix_duration":874.976782717994,"trial":24,"RT":2444,"MT":419,"sideResp":1,"stimulus":[],"xmouse":[788,788,788,788,788,788,788,788,788,788,788,788,788,788,788,788,788,788,788,788,788,788,788,788,788,788,788,788,788,788,788,788,788,788,788,788,788,788,788,788,788,788,788,788,788,788,788,788,788,788,788,788,788,788,788,788,788,788,788,788,788,788,788,788,788,788,788,788,788,788,788,788,788,788,788,788,788,786,786,785,785,785,785,787,787,787,787,787,787,787,787,787,787,787,787,787,787,787,787,787,787,787,787,787,787,788,788,788,788,788,788,788,788,788,788,788,788,788,780,774,767,759,742,723,698,669,640,619,599,594,588,579,570,545,532,519,509,506,503,501,499,498,494,490],"ymouse":[641,641,641,641,641,641,641,641,641,641,641,641,641,641,641,641,641,641,641,641,641,641,641,641,641,641,641,641,641,641,641,641,641,641,641,641,641,641,641,641,641,641,641,641,641,641,641,641,641,641,641,641,641,641,641,641,641,641,641,641,641,641,641,641,641,641,641,641,641,641,641,641,641,641,641,641,641,639,639,638,638,638,641,653,655,655,655,655,655,655,655,655,655,655,655,655,655,655,655,655,655,655,655,655,655,656,656,656,656,656,656,656,656,656,656,656,656,654,635,622,609,597,571,540,502,463,428,404,373,358,334,303,265,205,188,173,165,162,151,141,129,116,105,87],"timestamp_mouse":[11,23,44,63,84,103,123,143,164,184,204,224,243,264,283,303,324,343,363,383,403,423,443,463,483,504,524,543,564,583,603,623,643,663,683,704,724,743,763,783,803,824,843,864,883,903,924,944,963,983,1004,1023,1043,1063,1083,1104,1123,1143,1164,1183,1204,1223,1243,1264,1283,1304,1323,1343,1363,1384,1404,1423,1444,1463,1483,1504,1523,1544,1564,1584,1604,1624,1643,1663,1683,1703,1723,1744,1764,1784,1803,1823,1843,1863,1883,1904,1924,1943,1964,1984,2003,2023,2044,2063,2083,2103,2123,2143,2164,2183,2204,2223,2243,2264,2283,2304,2324,2343,2363,2384,2404,2423,2444,2463,2483,2504,2524,2543,2563,2584,2603,2624,2643,2663,2683,2703,2723,2743,2763,2784,2804,2824,2843,2863],"xSR":741.5,"ySR":573.95,"xT1":424.9,"yT1":0,"xT2":1058.1,"yT2":0,"toosoon":0,"cond_shown":"Congruent","ratio_trial":100,"L_num":2,"L_den":5,"R_num":11,"R_den":22,"correct_side":2,"subjID":"JuanManuelSalazarVaron31","gender":"0","school":"6","age":"11"},{"start_time":1551892374027,"click_time":1551892375763,"finger_time":1551892375342,"fix_duration":1323.9003487514938,"trial":25,"RT":1315,"MT":421,"sideResp":2,"stimulus":[],"xmouse":[772,772,772,772,772,772,772,772,772,772,772,772,772,772,772,772,772,772,772,772,772,772,772,772,772,772,772,772,772,772,772,772,772,772,772,772,772,772,772,772,772,772,772,772,772,772,772,772,772,772,772,772,772,772,772,772,772,772,772,772,772,772,777,786,812,838,856,881,904,927,973,998,1018,1039,1052,1068,1069,1069,1071,1074,1079,1079,1079,1079,1080,1081,1081],"ymouse":[658,658,658,658,658,658,658,658,658,658,658,658,658,658,658,658,658,658,658,658,658,658,658,658,658,658,658,658,658,658,658,658,658,658,658,658,658,658,658,658,658,658,658,658,658,658,658,658,658,658,658,658,658,658,658,658,658,658,658,658,658,655,644,633,601,565,545,516,482,440,333,276,225,184,156,127,124,120,117,112,107,107,107,107,106,100,98],"timestamp_mouse":[16,48,57,76,97,116,137,156,176,196,217,236,257,277,296,316,337,356,376,396,416,437,456,476,497,516,536,556,576,596,617,636,656,682,697,716,736,756,776,796,816,836,856,876,896,916,936,956,976,996,1016,1036,1056,1076,1096,1116,1136,1157,1176,1196,1217,1236,1256,1277,1296,1315,1335,1356,1377,1396,1416,1436,1456,1476,1497,1516,1536,1556,1576,1597,1615,1636,1657,1676,1697,1716,1736],"xSR":741.5,"ySR":573.95,"xT1":424.9,"yT1":0,"xT2":1058.1,"yT2":0,"toosoon":0,"cond_shown":"Incongruent","ratio_trial":100,"L_num":17,"L_den":30,"R_num":10,"R_den":15,"correct_side":2,"subjID":"JuanManuelSalazarVaron31","gender":"0","school":"6","age":"11"},{"start_time":1551892380690,"click_time":1551892382163,"finger_time":1551892382043,"fix_duration":1464.9923781424447,"trial":26,"RT":1353,"MT":120,"sideResp":2,"stimulus":[],"xmouse":[805,805,805,805,805,805,805,805,805,805,805,805,805,805,805,805,805,805,805,805,805,805,805,805,805,805,805,805,805,805,805,805,805,805,805,805,805,805,805,805,805,805,805,805,805,805,805,805,805,805,805,805,805,805,805,805,805,805,805,805,805,805,805,805,805,805,831,879,983,1034,1073,1112,1122,1124],"ymouse":[615,615,615,615,615,615,615,615,615,615,615,615,615,615,615,615,615,615,615,615,615,615,615,615,615,615,615,615,615,615,615,615,615,615,615,615,615,615,615,615,615,615,615,615,615,615,615,615,615,615,615,615,615,615,615,615,615,615,615,615,615,615,615,615,615,610,589,540,400,336,283,210,165,92],"timestamp_mouse":[13,36,53,74,93,113,134,153,173,193,213,234,253,273,293,313,334,354,374,394,413,434,453,473,493,513,534,553,573,593,614,633,653,673,693,714,733,753,773,794,813,833,853,874,893,914,933,953,973,994,1013,1034,1053,1074,1093,1113,1133,1153,1174,1193,1213,1233,1254,1274,1293,1314,1333,1353,1373,1394,1413,1434,1453,1473],"xSR":741.5,"ySR":573.95,"xT1":424.9,"yT1":0,"xT2":1058.1,"yT2":0,"toosoon":0,"cond_shown":"Congruent","ratio_trial":200,"L_num":7,"L_den":15,"R_num":18,"R_den":27,"correct_side":2,"subjID":"JuanManuelSalazarVaron31","gender":"0","school":"6","age":"11"},{"start_time":1551892385082,"click_time":1551892386923,"finger_time":1551892385963,"fix_duration":1318.8165986710726,"trial":27,"RT":881,"MT":960,"sideResp":2,"stimulus":[],"xmouse":[778,778,778,778,778,778,778,778,778,778,778,778,778,778,778,778,778,778,778,778,778,778,778,778,778,778,778,778,778,778,778,778,778,778,778,778,778,778,778,778,778,778,781,816,860,946,961,964,964,964,964,964,964,964,964,964,964,964,964,952,939,929,919,916,915,915,919,952,1002,1156,1209,1246,1267,1276,1277,1259,1254,1251,1251,1242,1232,1219,1208,1202,1196,1190,1183,1177,1174,1172,1167,1159,1151],"ymouse":[663,663,663,663,663,663,663,663,663,663,663,663,663,663,663,663,663,663,663,663,663,663,663,663,663,663,663,663,663,663,663,663,663,663,663,663,663,663,663,663,663,663,658,643,628,608,606,605,605,605,605,605,605,605,605,605,605,605,605,602,600,599,599,599,599,597,570,492,399,208,144,92,48,13,0,0,0,0,0,0,0,0,0,0,3,9,16,23,27,28,31,35,37],"timestamp_mouse":[11,21,44,61,81,101,121,141,162,181,202,221,241,261,281,301,322,342,362,381,401,421,441,461,482,501,522,542,562,581,602,622,641,661,681,701,721,741,763,782,802,821,841,861,881,901,921,941,962,982,1001,1021,1041,1062,1081,1102,1121,1141,1162,1182,1201,1221,1241,1262,1282,1301,1321,1341,1361,1382,1401,1421,1441,1461,1481,1500,1521,1542,1561,1582,1601,1621,1642,1661,1682,1701,1721,1741,1761,1781,1801,1821,1841],"xSR":741.5,"ySR":573.95,"xT1":424.9,"yT1":0,"xT2":1058.1,"yT2":0,"toosoon":0,"cond_shown":"Incongruent","ratio_trial":200,"L_num":7,"L_den":15,"R_num":6,"R_den":9,"correct_side":2,"subjID":"JuanManuelSalazarVaron31","gender":"0","school":"6","age":"11"},{"start_time":1551892390260,"click_time":1551892392323,"finger_time":1551892391783,"fix_duration":876.8440885626477,"trial":28,"RT":1523,"MT":540,"sideResp":1,"stimulus":[],"xmouse":[792,792,792,792,792,792,792,792,792,792,792,792,792,792,792,792,792,792,792,792,792,792,792,792,792,792,792,792,792,792,792,792,792,792,792,792,792,792,792,792,792,792,792,792,792,792,792,792,792,792,792,792,792,792,792,792,792,792,792,792,792,792,792,792,792,792,792,792,792,792,792,792,792,792,792,789,736,705,700,693,691,691,688,672,611,541,435,419,417,417,417,417,417,417,417,417,417,420,425,429,430,433,441,459],"ymouse":[625,625,625,625,625,625,625,625,625,625,625,625,625,625,625,625,625,625,625,625,625,625,625,625,625,625,625,625,625,625,625,625,625,625,625,625,625,625,625,625,625,625,625,625,625,625,625,625,625,625,625,625,625,625,625,625,625,625,625,625,625,625,625,625,625,625,625,625,625,625,625,625,625,625,625,623,573,520,508,490,484,484,479,455,380,294,169,137,128,126,126,126,126,126,126,126,126,121,116,113,112,110,104,91],"timestamp_mouse":[9,36,43,63,83,103,123,143,164,183,203,223,244,263,284,303,323,343,363,384,403,424,443,463,484,503,524,544,563,584,603,624,643,663,684,703,723,743,763,783,803,823,843,864,883,903,924,943,964,983,1002,1023,1044,1063,1083,1103,1123,1143,1163,1183,1203,1224,1244,1264,1284,1303,1324,1343,1364,1383,1404,1424,1444,1463,1484,1504,1523,1543,1563,1583,1603,1624,1643,1664,1684,1704,1723,1743,1763,1783,1803,1823,1843,1863,1883,1904,1924,1943,1963,1983,2004,2023,2043,2063],"xSR":741.5,"ySR":573.95,"xT1":424.9,"yT1":0,"xT2":1058.1,"yT2":0,"toosoon":0,"cond_shown":"Congruent","ratio_trial":100,"L_num":6,"L_den":12,"R_num":15,"R_den":25,"correct_side":2,"subjID":"JuanManuelSalazarVaron31","gender":"0","school":"6","age":"11"},{"start_time":1551892394825,"click_time":1551892396964,"finger_time":1551892396644,"fix_duration":739.678509447435,"trial":29,"RT":1819,"MT":320,"sideResp":1,"stimulus":[],"xmouse":[760,760,760,760,760,760,760,760,760,760,760,760,760,760,760,760,760,760,760,760,760,760,760,760,760,760,760,760,760,760,760,760,760,760,760,760,760,760,760,760,760,760,760,760,760,760,760,760,760,760,760,760,760,760,760,760,760,760,760,760,760,760,760,760,760,760,760,760,760,760,760,760,760,760,760,760,760,760,760,760,760,760,760,760,760,760,760,760,760,761,761,761,725,694,661,631,608,575,548,547,546,546,546,542,533,526,516],"ymouse":[599,599,599,599,599,599,599,599,599,599,599,599,599,599,599,599,599,599,599,599,599,599,599,599,599,599,599,599,599,599,599,599,599,599,599,599,599,599,599,599,599,599,599,599,599,599,599,599,599,599,599,599,599,599,599,599,599,599,599,599,599,599,599,599,599,599,599,599,599,599,599,599,599,599,599,599,599,599,599,599,599,599,599,599,599,599,599,599,599,574,549,527,406,333,258,193,139,76,36,32,31,30,30,26,23,21,21],"timestamp_mouse":[19,52,59,79,99,118,138,159,178,199,220,239,258,278,299,318,338,358,378,398,418,439,459,478,498,518,539,559,578,599,618,638,659,679,698,718,738,759,778,799,818,839,859,879,899,918,939,959,978,998,1019,1038,1058,1078,1099,1119,1138,1159,1178,1199,1219,1239,1259,1278,1299,1319,1339,1358,1379,1398,1418,1439,1459,1478,1499,1520,1539,1558,1579,1598,1619,1639,1659,1678,1699,1718,1739,1758,1778,1798,1819,1838,1859,1878,1898,1918,1939,1958,1978,1999,2019,2038,2058,2078,2098,2118,2139],"xSR":741.5,"ySR":573.95,"xT1":424.9,"yT1":0,"xT2":1058.1,"yT2":0,"toosoon":0,"cond_shown":"Congruent","ratio_trial":200,"L_num":11,"L_den":22,"R_num":3,"R_den":10,"correct_side":1,"subjID":"JuanManuelSalazarVaron31","gender":"0","school":"6","age":"11"},{"start_time":1551892399536,"click_time":1551892401384,"finger_time":1551892400884,"fix_duration":1391.0075474957198,"trial":30,"RT":1348,"MT":500,"sideResp":1,"stimulus":[],"xmouse":[777,777,777,777,777,777,777,777,777,777,777,777,777,777,777,777,777,777,777,777,777,777,777,777,777,777,777,777,777,777,777,777,777,777,777,777,777,777,777,777,777,777,777,777,777,777,777,777,777,777,777,777,777,777,777,777,777,777,777,778,779,779,779,779,780,780,780,780,780,780,780,778,767,741,729,721,713,706,692,688,682,680,673,667,659,643,625,606,575,562,549,532,518],"ymouse":[619,619,619,619,619,619,619,619,619,619,619,619,619,619,619,619,619,619,619,619,619,619,619,619,619,619,619,619,619,619,619,619,619,619,619,619,619,619,619,619,619,619,619,619,619,619,619,619,619,619,619,619,619,619,619,619,619,619,619,613,606,598,596,590,585,581,575,568,541,525,508,474,444,374,338,311,283,259,224,215,201,195,175,154,143,135,126,117,107,103,100,95,90],"timestamp_mouse":[8,40,48,68,88,107,128,147,167,187,208,228,248,268,288,307,328,348,368,388,407,428,448,468,487,508,527,547,567,587,608,628,648,668,688,708,727,748,768,787,808,828,848,868,887,907,928,948,968,987,1007,1028,1047,1067,1087,1108,1127,1147,1167,1188,1207,1228,1247,1267,1287,1307,1327,1348,1367,1388,1407,1427,1447,1468,1487,1507,1527,1547,1567,1586,1607,1627,1647,1667,1687,1707,1727,1747,1767,1788,1807,1827,1848],"xSR":741.5,"ySR":573.95,"xT1":424.9,"yT1":0,"xT2":1058.1,"yT2":0,"toosoon":0,"cond_shown":"Congruent","ratio_trial":100,"L_num":1,"L_den":2,"R_num":18,"R_den":30,"correct_side":2,"subjID":"JuanManuelSalazarVaron31","gender":"0","school":"6","age":"11"},{"start_time":1551892403713,"click_time":1551892405904,"finger_time":1551892405564,"fix_duration":729.7913319226017,"trial":31,"RT":1851,"MT":340,"sideResp":2,"stimulus":[],"xmouse":[761,761,761,761,761,761,761,761,761,761,761,761,761,761,761,761,761,761,761,761,761,761,761,761,761,761,761,761,761,761,761,761,761,761,761,761,761,761,761,761,761,761,761,761,761,761,761,761,761,761,761,761,761,761,761,761,761,761,761,761,761,761,761,761,761,761,761,761,761,761,761,761,761,761,761,761,761,761,761,761,761,761,761,761,761,761,761,761,761,761,769,830,882,921,986,1004,1014,1022,1027,1028,1052,1062,1076,1093,1111,1132,1136,1139,1141,1144],"ymouse":[623,623,623,623,623,623,623,623,623,623,623,623,623,623,623,623,623,623,623,623,623,623,623,623,623,623,623,623,623,623,623,623,623,623,623,623,623,623,623,623,623,623,623,623,623,623,623,623,623,623,623,623,623,623,623,623,623,623,623,623,623,623,623,623,623,623,623,623,623,623,623,623,623,623,623,623,623,623,623,623,623,623,623,623,623,623,623,623,623,623,623,634,634,628,584,555,524,495,461,452,385,358,326,285,245,176,149,127,112,94],"timestamp_mouse":[12,40,50,70,91,111,131,151,170,191,210,231,250,271,291,310,331,351,371,391,411,430,451,471,490,510,531,551,570,590,610,630,650,670,691,710,730,751,771,790,811,830,850,870,890,911,930,950,970,990,1011,1030,1050,1071,1091,1110,1130,1150,1170,1191,1210,1230,1250,1270,1290,1311,1330,1350,1370,1390,1411,1431,1450,1470,1491,1510,1530,1551,1571,1590,1610,1631,1651,1670,1691,1711,1730,1751,1770,1790,1811,1830,1851,1870,1891,1910,1930,1950,1970,1991,2011,2030,2050,2071,2091,2110,2130,2151,2170,2191],"xSR":741.5,"ySR":573.95,"xT1":424.9,"yT1":0,"xT2":1058.1,"yT2":0,"toosoon":0,"cond_shown":"Congruent","ratio_trial":300,"L_num":4,"L_den":20,"R_num":13,"R_den":26,"correct_side":2,"subjID":"JuanManuelSalazarVaron31","gender":"0","school":"6","age":"11"},{"start_time":1551892407830,"click_time":1551892409023,"finger_time":1551892408623,"fix_duration":425.09541199951997,"trial":32,"RT":793,"MT":400,"sideResp":2,"stimulus":[],"xmouse":[766,766,766,766,766,766,766,766,766,766,766,766,766,766,766,766,766,766,766,766,766,766,766,766,766,766,766,766,766,766,766,766,766,766,766,766,766,765,770,844,879,889,896,903,922,931,939,944,950,957,962,974,983,994,1017,1030,1040,1050,1054,1060],"ymouse":[636,636,636,636,636,636,636,636,636,636,636,636,636,636,636,636,636,636,636,636,636,636,636,636,636,636,636,636,636,636,636,636,636,636,636,636,636,636,625,537,497,484,473,457,411,387,363,341,322,286,270,238,217,199,162,143,127,113,102,91],"timestamp_mouse":[14,39,53,74,93,113,134,154,173,193,213,233,253,274,294,313,334,354,374,394,414,433,453,473,493,513,533,553,574,593,613,634,654,673,693,713,734,753,774,793,813,833,853,873,893,913,934,954,973,993,1013,1033,1054,1073,1093,1113,1134,1154,1173,1193],"xSR":741.5,"ySR":573.95,"xT1":424.9,"yT1":0,"xT2":1058.1,"yT2":0,"toosoon":0,"cond_shown":"Incongruent","ratio_trial":300,"L_num":13,"L_den":26,"R_num":12,"R_den":15,"correct_side":2,"subjID":"JuanManuelSalazarVaron31","gender":"0","school":"6","age":"11"},{"start_time":1551892411488,"click_time":1551892413324,"finger_time":1551892412844,"fix_duration":1023.7440355532707,"trial":33,"RT":1356,"MT":480,"sideResp":2,"stimulus":[],"xmouse":[773,773,773,773,773,773,773,773,773,773,773,773,773,773,773,773,773,773,773,773,773,773,773,773,773,773,773,773,773,773,773,773,773,773,773,773,773,773,773,773,773,773,773,773,773,773,773,773,773,773,773,773,773,773,773,773,773,773,773,773,773,773,773,773,782,798,839,929,989,1087,1170,1234,1240,1242,1248,1250,1236,1232,1230,1230,1230,1226,1223,1220,1216,1213,1208,1191,1182,1174,1166,1153],"ymouse":[624,624,624,624,624,624,624,624,624,624,624,624,624,624,624,624,624,624,624,624,624,624,624,624,624,624,624,624,624,624,624,624,624,624,624,624,624,624,624,624,624,624,624,624,624,624,624,624,624,624,624,624,624,624,624,624,624,624,624,624,624,624,624,624,623,614,595,545,502,428,361,284,265,252,222,162,107,70,47,31,22,14,12,12,13,16,18,24,28,32,36,41],"timestamp_mouse":[15,44,56,76,95,115,135,156,176,195,215,236,255,275,295,315,335,356,376,395,415,436,456,475,495,515,535,556,575,595,615,635,655,675,695,715,736,755,775,795,815,836,855,876,895,916,936,955,975,996,1015,1036,1055,1076,1095,1116,1136,1155,1175,1195,1216,1236,1256,1275,1295,1316,1335,1356,1375,1396,1416,1436,1455,1476,1495,1516,1536,1555,1575,1595,1615,1636,1655,1676,1695,1716,1736,1755,1775,1796,1815,1836],"xSR":741.5,"ySR":573.95,"xT1":424.9,"yT1":0,"xT2":1058.1,"yT2":0,"toosoon":0,"cond_shown":"Congruent","ratio_trial":300,"L_num":1,"L_den":30,"R_num":8,"R_den":24,"correct_side":2,"subjID":"JuanManuelSalazarVaron31","gender":"0","school":"6","age":"11"},{"start_time":1551892415940,"click_time":1551892417584,"finger_time":1551892417283,"fix_duration":1315.6687664415797,"trial":34,"RT":1343,"MT":301,"sideResp":1,"stimulus":[],"xmouse":[784,784,784,784,784,784,784,784,784,784,784,784,784,784,784,784,784,784,784,784,784,784,784,784,784,784,784,784,784,784,784,784,784,784,784,784,784,784,784,784,784,784,784,784,784,784,784,784,784,784,784,784,784,784,784,784,784,784,784,784,784,784,784,784,784,782,780,776,770,764,749,740,727,716,704,684,675,658,635,604,515,472,445],"ymouse":[610,610,610,610,610,610,610,610,610,610,610,610,610,610,610,610,610,610,610,610,610,610,610,610,610,610,610,610,610,610,610,610,610,610,610,610,610,610,610,610,610,610,610,610,610,610,610,610,610,610,610,610,610,610,610,610,610,610,610,610,610,610,610,610,610,609,592,572,549,522,470,445,419,404,392,361,344,322,295,262,175,131,90],"timestamp_mouse":[9,24,43,64,83,103,124,143,164,184,203,225,244,264,283,304,323,344,363,384,403,423,443,464,484,503,524,544,563,584,604,623,643,664,684,703,724,743,763,783,803,823,844,863,883,904,924,943,964,983,1003,1023,1044,1063,1084,1103,1123,1143,1163,1183,1203,1223,1244,1264,1283,1303,1323,1343,1363,1383,1403,1423,1443,1464,1484,1505,1524,1543,1563,1583,1603,1623,1644],"xSR":741.5,"ySR":573.95,"xT1":424.9,"yT1":0,"xT2":1058.1,"yT2":0,"toosoon":0,"cond_shown":"Incongruent","ratio_trial":100,"L_num":6,"L_den":10,"R_num":11,"R_den":22,"correct_side":1,"subjID":"JuanManuelSalazarVaron31","gender":"0","school":"6","age":"11"},{"start_time":1551892419008,"click_time":1551892421003,"finger_time":1551892420644,"fix_duration":343.6511377185838,"trial":35,"RT":1636,"MT":359,"sideResp":2,"stimulus":[],"xmouse":[792,792,792,792,792,792,792,792,792,792,792,792,792,792,792,792,792,792,792,792,792,792,792,792,792,792,792,792,792,792,792,792,792,792,792,792,792,792,792,792,792,792,792,792,792,792,792,792,792,792,792,792,792,792,792,792,792,792,792,792,792,792,792,792,792,792,792,792,792,792,792,792,792,792,792,792,792,792,792,797,804,835,858,891,925,952,985,991,996,999,1004,1012,1029,1037,1045,1051,1058,1058,1058,1061],"ymouse":[610,610,610,610,610,610,610,610,610,610,610,610,610,610,610,610,610,610,610,610,610,610,610,610,610,610,610,610,610,610,610,610,610,610,610,610,610,610,610,610,610,610,610,610,610,610,610,610,610,610,610,610,610,610,610,610,610,610,610,610,610,610,610,610,610,610,610,610,610,610,610,610,610,610,610,610,610,610,610,601,592,557,537,507,475,441,389,376,364,351,330,293,224,195,166,146,94,74,60,48],"timestamp_mouse":[16,35,55,76,96,115,136,155,176,195,216,235,255,275,296,315,335,355,376,395,415,436,456,475,496,515,536,555,575,595,616,636,655,675,696,715,735,755,776,796,816,836,855,875,896,915,935,955,975,996,1016,1035,1055,1075,1095,1115,1135,1155,1176,1195,1215,1236,1255,1275,1295,1316,1336,1356,1374,1395,1416,1435,1455,1475,1495,1515,1535,1554,1575,1596,1615,1636,1655,1675,1696,1715,1736,1755,1775,1796,1814,1835,1855,1876,1895,1916,1936,1955,1975,1995],"xSR":741.5,"ySR":573.95,"xT1":424.9,"yT1":0,"xT2":1058.1,"yT2":0,"toosoon":0,"cond_shown":"Congruent","ratio_trial":100,"L_num":9,"L_den":15,"R_num":8,"R_den":16,"correct_side":1,"subjID":"JuanManuelSalazarVaron31","gender":"0","school":"6","age":"11"},{"start_time":1551892422995,"click_time":1551892424663,"finger_time":1551892424063,"fix_duration":870.9251237279507,"trial":36,"RT":1068,"MT":600,"sideResp":2,"stimulus":[],"xmouse":[776,776,776,776,776,776,776,776,776,776,776,776,776,776,776,776,776,776,776,776,776,776,776,776,776,776,776,776,776,776,776,776,776,776,776,776,776,776,776,776,776,776,776,776,776,776,776,776,776,776,776,784,810,917,971,996,1012,1021,1045,1053,1058,1062,1066,1074,1079,1081,1086,1089,1096,1102,1107,1112,1116,1121,1122,1122,1122,1122,1122,1122,1122,1121,1121,1118],"ymouse":[651,651,651,651,651,651,651,651,651,651,651,651,651,651,651,651,651,651,651,651,651,651,651,651,651,651,651,651,651,651,651,651,651,651,651,651,651,651,651,651,651,651,651,651,651,651,651,651,651,651,651,647,623,549,513,491,471,453,401,378,360,345,331,309,298,292,277,267,240,224,210,190,170,141,129,122,118,117,116,115,113,111,107,99],"timestamp_mouse":[10,32,49,67,89,108,128,148,168,188,208,227,249,267,288,308,328,349,368,388,407,429,448,467,488,509,527,548,568,588,608,628,648,668,688,707,728,748,768,789,808,828,848,868,888,908,929,948,968,988,1008,1029,1048,1068,1088,1108,1128,1148,1169,1188,1208,1228,1248,1268,1288,1308,1327,1349,1369,1388,1408,1429,1448,1468,1489,1508,1528,1548,1568,1588,1607,1629,1648,1668],"xSR":741.5,"ySR":573.95,"xT1":424.9,"yT1":0,"xT2":1058.1,"yT2":0,"toosoon":0,"cond_shown":"Incongruent","ratio_trial":300,"L_num":13,"L_den":26,"R_num":12,"R_den":15,"correct_side":2,"subjID":"JuanManuelSalazarVaron31","gender":"0","school":"6","age":"11"},{"start_time":1551892426567,"click_time":1551892428383,"finger_time":1551892428003,"fix_duration":662.5320681538324,"trial":37,"RT":1436,"MT":380,"sideResp":1,"stimulus":[],"xmouse":[785,785,785,785,785,785,785,785,785,785,785,785,785,785,785,785,785,785,785,785,785,785,785,785,785,785,785,785,785,785,785,785,785,785,785,785,785,785,785,785,785,785,785,785,785,785,785,785,785,785,785,785,785,785,785,785,785,785,785,785,785,785,785,785,785,785,785,785,785,785,772,733,690,646,525,439,400,377,370,351,346,346,346,346,346,346,347,357,372,407,428],"ymouse":[618,618,618,618,618,618,618,618,618,618,618,618,618,618,618,618,618,618,618,618,618,618,618,618,618,618,618,618,618,618,618,618,618,618,618,618,618,618,618,618,618,618,618,618,618,618,618,618,618,618,618,618,618,618,618,618,618,618,618,618,618,618,618,618,618,618,618,618,618,618,582,518,458,390,248,138,79,29,12,0,0,0,0,0,0,0,0,2,5,26,39],"timestamp_mouse":[16,36,56,76,96,116,136,157,176,196,216,236,255,276,296,316,336,356,376,396,417,436,457,476,497,517,536,556,576,596,616,636,657,676,696,717,735,757,776,795,816,836,856,876,896,916,936,956,976,997,1016,1036,1055,1077,1097,1116,1136,1157,1176,1196,1217,1237,1255,1277,1296,1317,1337,1356,1376,1396,1416,1436,1457,1477,1495,1516,1536,1556,1577,1597,1616,1637,1656,1675,1697,1716,1736,1757,1776,1797,1816],"xSR":741.5,"ySR":573.95,"xT1":424.9,"yT1":0,"xT2":1058.1,"yT2":0,"toosoon":0,"cond_shown":"Congruent","ratio_trial":100,"L_num":9,"L_den":15,"R_num":8,"R_den":16,"correct_side":1,"subjID":"JuanManuelSalazarVaron31","gender":"0","school":"6","age":"11"},{"start_time":1551892430301,"click_time":1551892432124,"finger_time":1551892431524,"fix_duration":477.939731530887,"trial":38,"RT":1223,"MT":600,"sideResp":1,"stimulus":[],"xmouse":[775,775,775,775,775,775,775,775,775,775,775,775,775,775,775,775,775,775,775,775,775,775,775,775,775,775,775,775,775,775,775,775,775,775,775,775,775,775,775,775,775,775,775,775,775,775,775,775,775,775,775,775,775,775,775,775,775,775,775,775,772,766,757,737,721,701,679,665,656,632,627,622,619,616,611,607,601,592,586,581,579,575,571,564,554,551,550,548,544,532,526,524],"ymouse":[608,608,608,608,608,608,608,608,608,608,608,608,608,608,608,608,608,608,608,608,608,608,608,608,608,608,608,608,608,608,608,608,608,608,608,608,608,608,608,608,608,608,608,608,608,608,608,608,608,608,608,608,608,608,608,608,608,608,608,595,586,572,551,494,442,361,298,271,259,233,225,218,214,209,202,197,191,184,178,161,153,144,137,127,112,108,105,103,100,93,92,91],"timestamp_mouse":[9,21,41,63,82,102,122,143,163,182,202,223,243,263,282,303,322,343,363,383,401,423,443,462,483,503,522,542,562,582,603,622,642,662,682,703,722,742,762,781,801,823,841,861,883,903,923,942,962,982,1002,1021,1043,1063,1082,1103,1121,1142,1162,1183,1202,1223,1242,1263,1282,1302,1322,1341,1363,1383,1402,1423,1442,1463,1482,1502,1523,1542,1562,1582,1602,1622,1643,1661,1681,1701,1722,1742,1762,1782,1801,1823],"xSR":741.5,"ySR":573.95,"xT1":424.9,"yT1":0,"xT2":1058.1,"yT2":0,"toosoon":0,"cond_shown":"Congruent","ratio_trial":200,"L_num":8,"L_den":15,"R_num":3,"R_den":9,"correct_side":1,"subjID":"JuanManuelSalazarVaron31","gender":"0","school":"6","age":"11"},{"start_time":1551892433765,"click_time":1551892435983,"finger_time":1551892435183,"fix_duration":339.12940606526143,"trial":39,"RT":1418,"MT":800,"sideResp":1,"stimulus":[],"xmouse":[807,807,807,807,807,807,807,807,807,807,807,807,807,807,807,807,807,807,807,807,807,807,807,807,807,807,807,807,807,807,807,807,807,807,807,807,807,807,807,807,807,807,807,807,807,807,807,807,807,807,807,807,807,807,807,807,807,807,807,807,807,807,807,807,807,807,807,807,807,806,799,794,770,715,703,696,695,695,695,695,687,683,657,637,618,593,586,584,584,584,584,584,584,589,592,594,595,598,601,606,619,629,639,643,647,642,633,617,587,541,457],"ymouse":[611,611,611,611,611,611,611,611,611,611,611,611,611,611,611,611,611,611,611,611,611,611,611,611,611,611,611,611,611,611,611,611,611,611,611,611,611,611,611,611,611,611,611,611,611,611,611,611,611,611,611,611,611,611,611,611,611,611,611,611,611,611,611,611,611,611,611,611,611,606,569,548,509,436,423,413,412,412,412,412,410,409,394,377,358,323,311,307,305,305,305,305,305,305,305,304,303,301,298,295,286,280,265,251,232,194,175,156,137,117,86],"timestamp_mouse":[35,38,59,78,98,118,138,158,179,197,219,238,257,279,298,318,338,359,379,399,419,439,458,479,499,518,538,558,578,599,618,638,658,678,699,717,738,758,778,799,818,838,859,879,899,917,938,958,978,999,1019,1039,1059,1079,1099,1119,1138,1159,1179,1197,1219,1238,1259,1278,1298,1318,1338,1359,1379,1398,1418,1441,1458,1477,1499,1518,1538,1558,1578,1597,1618,1638,1658,1679,1698,1718,1738,1758,1778,1797,1819,1839,1858,1879,1898,1918,1937,1958,1978,1998,2019,2038,2058,2078,2098,2118,2138,2158,2179,2199,2218],"xSR":741.5,"ySR":573.95,"xT1":424.9,"yT1":0,"xT2":1058.1,"yT2":0,"toosoon":0,"cond_shown":"Incongruent","ratio_trial":300,"L_num":2,"L_den":4,"R_num":6,"R_den":30,"correct_side":1,"subjID":"JuanManuelSalazarVaron31","gender":"0","school":"6","age":"11"},{"start_time":1551892439156,"click_time":1551892440883,"finger_time":1551892440384,"fix_duration":1371.8970732217713,"trial":40,"RT":1228,"MT":499,"sideResp":1,"stimulus":[],"xmouse":[798,798,798,798,798,798,798,798,798,798,798,798,798,798,798,798,798,798,798,798,798,798,798,798,798,798,798,798,798,798,798,798,798,798,798,798,798,798,798,798,798,798,798,798,798,798,798,798,798,798,798,798,798,798,798,798,798,790,781,770,760,723,685,643,608,586,572,559,557,557,558,561,561,561,559,559,559,559,559,559,557,552,546,540,532,526,523],"ymouse":[641,641,641,641,641,641,641,641,641,641,641,641,641,641,641,641,641,641,641,641,641,641,641,641,641,641,641,641,641,641,641,641,641,641,641,641,641,641,641,641,641,641,641,641,641,641,641,641,641,641,641,641,641,641,641,641,641,628,612,599,585,562,535,495,457,424,403,373,358,338,300,273,222,201,189,182,175,157,149,141,134,125,119,113,107,102,99],"timestamp_mouse":[8,34,47,67,88,107,126,146,167,187,207,227,248,267,286,308,327,347,368,386,406,426,448,467,487,508,527,547,567,587,608,627,647,667,688,708,728,746,767,787,806,827,847,868,888,907,927,947,967,987,1007,1027,1047,1067,1087,1108,1127,1147,1167,1188,1207,1228,1247,1267,1287,1308,1327,1347,1367,1388,1406,1428,1448,1467,1488,1508,1526,1547,1567,1588,1607,1626,1647,1667,1687,1707,1726],"xSR":741.5,"ySR":573.95,"xT1":424.9,"yT1":0,"xT2":1058.1,"yT2":0,"toosoon":0,"cond_shown":"Incongruent","ratio_trial":100,"L_num":3,"L_den":5,"R_num":11,"R_den":22,"correct_side":1,"subjID":"JuanManuelSalazarVaron31","gender":"0","school":"6","age":"11"},{"start_time":1551892443699,"click_time":1551892445323,"finger_time":1551892445003,"fix_duration":1494.779379697292,"trial":41,"RT":1304,"MT":320,"sideResp":1,"stimulus":[],"xmouse":[809,809,809,809,809,809,809,809,809,809,809,809,809,809,809,809,809,809,809,809,809,809,809,809,809,809,809,809,809,809,809,809,809,809,809,809,809,809,809,809,809,809,809,809,809,809,809,809,809,809,809,809,809,809,809,809,809,809,809,809,809,809,809,803,774,722,701,677,648,616,569,547,537,531,528,527,527,527,527,527,526,517],"ymouse":[600,600,600,600,600,600,600,600,600,600,600,600,600,600,600,600,600,600,600,600,600,600,600,600,600,600,600,600,600,600,600,600,600,600,600,600,600,600,600,600,600,600,600,600,600,600,600,600,600,600,600,600,600,600,600,600,600,600,600,600,600,600,600,599,576,524,496,458,412,354,270,235,218,204,191,173,165,158,148,132,116,88],"timestamp_mouse":[10,38,45,64,84,104,124,144,165,184,204,225,244,265,284,305,325,344,364,385,404,424,444,465,484,505,524,544,565,585,604,623,645,664,684,705,724,743,764,785,804,825,844,864,884,903,924,945,963,985,1005,1024,1045,1064,1085,1104,1123,1144,1164,1184,1204,1225,1244,1264,1284,1304,1324,1345,1365,1384,1404,1423,1444,1465,1484,1503,1524,1544,1564,1584,1604,1624],"xSR":741.5,"ySR":573.95,"xT1":424.9,"yT1":0,"xT2":1058.1,"yT2":0,"toosoon":0,"cond_shown":"Congruent","ratio_trial":200,"L_num":8,"L_den":15,"R_num":3,"R_den":9,"correct_side":1,"subjID":"JuanManuelSalazarVaron31","gender":"0","school":"6","age":"11"},{"start_time":1551892447749,"click_time":1551892449123,"finger_time":1551892448884,"fix_duration":1243.1099571277975,"trial":42,"RT":1135,"MT":239,"sideResp":1,"stimulus":[],"xmouse":[812,812,812,812,812,812,812,812,812,812,812,812,812,812,812,812,812,812,812,812,812,812,812,812,812,812,812,812,812,812,812,812,812,812,812,812,812,812,812,812,812,812,812,812,812,812,812,812,812,812,812,812,812,809,787,757,721,676,650,644,641,639,634,634,631,622,602,548,480],"ymouse":[635,635,635,635,635,635,635,635,635,635,635,635,635,635,635,635,635,635,635,635,635,635,635,635,635,635,635,635,635,635,635,635,635,635,635,635,635,635,635,635,635,635,635,635,635,635,635,635,635,635,635,635,635,633,609,574,534,481,449,442,439,436,410,389,360,323,277,188,95],"timestamp_mouse":[18,44,53,75,94,114,133,155,174,193,214,235,253,275,295,315,334,355,375,394,415,434,454,475,494,515,534,553,574,594,615,633,654,675,694,713,735,754,773,794,813,834,854,874,894,914,934,954,975,994,1014,1034,1055,1074,1094,1113,1135,1154,1174,1194,1213,1233,1255,1274,1294,1314,1333,1353,1373],"xSR":741.5,"ySR":573.95,"xT1":424.9,"yT1":0,"xT2":1058.1,"yT2":0,"toosoon":0,"cond_shown":"Congruent","ratio_trial":300,"L_num":20,"L_den":25,"R_num":13,"R_den":26,"correct_side":1,"subjID":"JuanManuelSalazarVaron31","gender":"0","school":"6","age":"11"},{"start_time":1551892450668,"click_time":1551892452604,"finger_time":1551892452283,"fix_duration":403.0266590285193,"trial":43,"RT":1615,"MT":321,"sideResp":2,"stimulus":[],"xmouse":[766,766,766,766,766,766,766,766,766,766,766,766,766,766,766,766,766,766,766,766,766,766,766,766,766,766,766,766,766,766,766,766,766,766,766,766,766,766,766,766,766,766,766,766,766,766,766,766,766,766,766,766,766,766,766,766,766,766,766,766,766,766,766,766,766,766,766,766,766,766,766,766,766,766,766,766,766,766,777,809,858,907,984,1013,1031,1041,1046,1046,1051,1074,1080,1082,1086,1087,1094,1102,1111],"ymouse":[595,595,595,595,595,595,595,595,595,595,595,595,595,595,595,595,595,595,595,595,595,595,595,595,595,595,595,595,595,595,595,595,595,595,595,595,595,595,595,595,595,595,595,595,595,595,595,595,595,595,595,595,595,595,595,595,595,595,595,595,595,595,595,595,595,595,595,595,595,595,595,595,595,595,595,595,595,595,592,584,562,536,474,433,392,359,331,282,256,199,183,176,152,140,124,111,97],"timestamp_mouse":[16,38,54,75,96,115,134,155,176,196,215,236,254,275,294,315,335,355,375,395,416,436,456,475,496,516,534,554,575,594,615,635,655,675,695,715,734,755,775,794,815,835,855,876,896,916,936,956,975,994,1015,1035,1055,1075,1096,1116,1136,1155,1175,1195,1215,1235,1256,1275,1294,1315,1335,1355,1375,1395,1415,1435,1456,1476,1495,1516,1535,1555,1575,1595,1615,1635,1655,1675,1695,1715,1735,1754,1776,1795,1815,1836,1855,1875,1895,1916,1936],"xSR":741.5,"ySR":573.95,"xT1":424.9,"yT1":0,"xT2":1058.1,"yT2":0,"toosoon":0,"cond_shown":"Incongruent","ratio_trial":100,"L_num":8,"L_den":20,"R_num":1,"R_den":2,"correct_side":2,"subjID":"JuanManuelSalazarVaron31","gender":"0","school":"6","age":"11"},{"start_time":1551892455350,"click_time":1551892457424,"finger_time":1551892457044,"fix_duration":1486.2582254766523,"trial":44,"RT":1694,"MT":380,"sideResp":1,"stimulus":[],"xmouse":[814,814,814,814,814,814,814,814,814,814,814,814,814,814,814,814,814,814,814,814,814,814,814,814,814,814,814,814,814,814,814,814,814,814,814,814,814,814,814,814,814,814,814,814,814,814,814,814,814,814,814,814,814,814,814,814,814,814,814,814,814,814,814,814,814,814,814,814,814,814,814,814,814,814,814,814,814,814,814,814,814,814,814,810,761,723,679,654,640,625,620,615,609,603,589,586,584,584,584,580,572,562,553,522],"ymouse":[598,598,598,598,598,598,598,598,598,598,598,598,598,598,598,598,598,598,598,598,598,598,598,598,598,598,598,598,598,598,598,598,598,598,598,598,598,598,598,598,598,598,598,598,598,598,598,598,598,598,598,598,598,598,598,598,598,598,598,598,598,598,598,598,598,598,598,598,598,598,598,598,598,598,598,598,598,598,598,598,598,598,598,597,529,470,402,357,318,214,155,93,34,0,0,0,0,0,0,0,1,5,9,24],"timestamp_mouse":[16,37,53,73,94,113,134,153,173,193,213,233,254,273,294,312,334,353,374,392,413,434,454,474,494,514,533,553,573,593,612,633,653,673,693,714,734,752,773,794,814,833,854,873,894,914,934,953,973,994,1014,1033,1053,1074,1093,1114,1132,1153,1174,1193,1213,1234,1254,1273,1293,1314,1333,1353,1373,1392,1413,1432,1453,1472,1494,1513,1533,1553,1573,1594,1613,1634,1653,1673,1694,1713,1733