[{"start_time":1551793961791,"click_time":1551793965897,"finger_time":1551793965536,"fix_duration":250,"trial":0,"RT":3745,"MT":361,"sideResp":2,"stimulus":[],"xmouse":[800,800,790,789,789,789,788,788,788,788,788,788,788,788,788,788,788,788,788,788,788,788,788,788,788,788,788,788,788,788,788,788,788,788,788,788,788,788,788,788,788,788,788,788,788,788,788,788,788,788,788,788,788,788,788,788,788,788,788,788,788,788,788,788,788,788,788,788,788,788,788,788,788,788,788,788,788,788,788,788,788,788,788,788,788,788,788,788,788,788,788,788,788,788,788,788,788,788,788,788,788,788,788,788,788,788,788,788,788,788,788,788,788,788,788,788,788,788,788,788,788,789,792,793,793,793,793,793,793,793,793,793,793,793,793,793,793,793,793,793,794,794,794,794,794,794,794,794,794,794,794,794,794,794,794,794,794,794,794,794,794,794,794,794,794,794,794,794,794,794,794,794,794,794,794,794,794,794,794,794,794,794,794,794,795,806,906,965,1017,1058,1092,1119,1160,1173,1189,1207,1232,1235,1235,1235,1233,1213,1188,1170,1153],"ymouse":[535,535,535,535,535,535,535,535,535,535,535,535,535,535,535,535,535,535,535,535,535,535,535,535,535,535,535,535,535,535,535,535,535,535,535,535,535,535,535,535,535,535,535,535,535,535,535,535,535,535,535,535,535,535,535,535,535,535,535,535,535,535,535,535,535,535,535,535,535,535,535,535,535,535,535,535,535,535,535,535,535,535,535,535,535,535,535,535,535,535,535,535,535,535,535,535,535,535,535,535,535,535,535,535,535,535,535,535,535,535,535,535,535,535,535,535,535,535,535,535,535,533,531,530,530,530,530,530,530,530,530,530,530,530,530,530,530,530,530,530,529,529,529,529,529,529,529,529,529,529,529,529,529,529,527,526,526,526,526,526,526,526,526,526,526,526,526,526,526,526,526,526,526,526,526,526,526,526,526,526,526,526,526,526,523,511,415,365,317,268,228,194,146,134,125,116,104,101,97,89,81,58,51,46,46],"timestamp_mouse":[9,45,65,85,105,125,145,165,184,206,225,245,266,284,304,325,346,364,385,405,425,445,465,485,506,526,545,565,585,605,626,646,665,684,705,724,744,764,784,806,825,845,865,884,905,926,945,965,985,1004,1026,1045,1064,1085,1105,1126,1146,1166,1184,1206,1225,1246,1266,1284,1304,1325,1344,1366,1384,1405,1425,1445,1466,1485,1506,1526,1545,1566,1585,1605,1625,1646,1666,1685,1706,1724,1745,1766,1786,1806,1825,1845,1866,1884,1905,1925,1945,1964,1985,2005,2025,2045,2065,2086,2104,2126,2145,2165,2185,2205,2226,2246,2264,2284,2306,2326,2346,2365,2386,2405,2425,2445,2465,2486,2505,2526,2545,2565,2586,2606,2625,2645,2665,2685,2704,2726,2745,2766,2785,2805,2824,2844,2865,2886,2904,2926,2946,2964,2984,3004,3026,3046,3065,3085,3105,3125,3145,3164,3184,3205,3225,3245,3265,3286,3304,3326,3346,3365,3385,3405,3425,3445,3466,3485,3506,3526,3545,3564,3585,3605,3626,3644,3666,3685,3706,3725,3745,3764,3784,3805,3825,3845,3866,3885,3905,3925,3945,3964,3985,4004,4024,4046,4065,4085,4105],"xSR":741.5,"ySR":490.1,"xT1":424.9,"yT1":0,"xT2":1058.1,"yT2":0,"toosoon":0,"cond_shown":"Congruent","ratio_trial":200,"L_num":12,"L_den":20,"R_num":6,"R_den":15,"correct_side":1,"subjID":"juanmartinsaavedragaitan6","gender":"1","age":"11","school":"cafam","test":{"fix_dur":[250,1500],"timestim":1000,"targets_dim":[100,100],"targets_relative_coord":[0.3,0.7],"size_stim":[880,420],"start_dim":[100,100],"size_start":[300,300],"size_fix":60,"samplingrate":20,"img_types":["Congruent","Incongruent"],"ratios":[100,200,300],"rep_conds":19,"nTrials":120,"trials_to_rest":500,"Trials_order":[98,96,56,7,20,90,30,35,78,97,89,74,26,11,18,36,113,12,99,53,87,102,115,13,40,41,4,51,109,16,24,57,111,52,114,54,50,44,3,106,59,108,43,91,81,23,69,33,39,10,68,93,118,71,31,77,6,95,38,9,110,27,5,17,29,116,14,34,58,105,0,42,66,70,65,104,73,25,45,94,103,107,47,46,75,100,49,119,85,37,82,117,86,64,48,28,112,79,22,83,32,63,2,62,84,8,1,72,101,80,67,76,15,88,92,61,55,60,21,19],"cond_shown":["Congruent","Congruent","Congruent","Incongruent","Congruent","Congruent","Congruent","Incongruent","Congruent","Incongruent","Incongruent","Congruent","Congruent","Incongruent","Congruent","Congruent","Incongruent","Congruent","Incongruent","Incongruent","Incongruent","Congruent","Incongruent","Incongruent","Congruent","Incongruent","Congruent","Incongruent","Incongruent","Congruent","Congruent","Incongruent","Incongruent","Congruent","Congruent","Congruent","Congruent","Congruent","Incongruent","Congruent","Incongruent","Congruent","Incongruent","Incongruent","Incongruent","Incongruent","Incongruent","Incongruent","Incongruent","Congruent","Congruent","Incongruent","Congruent","Incongruent","Incongruent","Incongruent","Congruent","Incongruent","Congruent","Incongruent","Congruent","Incongruent","Incongruent","Incongruent","Incongruent","Congruent","Congruent","Congruent","Congruent","Incongruent","Congruent","Congruent","Congruent","Congruent","Incongruent","Congruent","Incongruent","Incongruent","Incongruent","Congruent","Incongruent","Incongruent","Incongruent","Congruent","Incongruent","Congruent","Incongruent","Incongruent","Incongruent","Incongruent","Congruent","Incongruent","Congruent","Congruent","Congruent","Congruent","Congruent","Incongruent","Congruent","Incongruent","Congruent","Incongruent","Congruent","Congruent","Congruent","Congruent","Incongruent","Congruent","Incongruent","Congruent","Incongruent","Congruent","Incongruent","Congruent","Congruent","Incongruent","Incongruent","Congruent","Incongruent","Incongruent"],"ratio_trial":[200,100,200,100,200,100,100,300,100,100,300,200,200,300,100,100,300,100,200,300,200,100,100,100,300,300,300,200,100,300,100,200,200,300,100,100,200,200,200,300,300,100,100,100,200,300,200,200,200,300,200,200,300,300,100,300,100,300,200,200,200,200,300,300,300,200,200,300,300,200,100,100,100,300,300,200,100,100,200,300,100,300,300,300,200,300,100,300,100,100,300,200,200,300,100,300,300,100,300,300,200,200,200,200,100,200,100,100,300,200,100,300,200,300,200,100,100,100,200,100],"left_num":[12,9,9,13,3,3,9,1,1,17,8,6,4,13,1,11,7,1,4,3,7,7,13,13,1,13,1,4,12,11,8,4,7,1,7,8,8,3,4,7,2,3,9,8,14,4,4,6,4,8,14,7,2,8,9,3,4,8,13,7,15,7,4,4,1,1,20,2,11,4,9,4,6,20,3,3,3,13,7,3,8,3,13,24,9,4,10,8,3,8,1,14,4,20,1,20,1,6,4,3,3,4,11,3,15,16,4,6,13,3,17,4,1,20,3,3,2,3,14,13],"right_num":[6,8,13,12,14,4,8,2,3,10,9,7,3,12,18,6,8,18,1,4,14,15,12,6,3,12,7,6,9,4,2,14,12,19,9,2,3,14,6,20,6,2,20,1,12,6,14,3,6,1,6,8,10,14,14,4,15,14,14,12,4,4,2,2,2,21,9,10,1,6,8,15,5,14,4,14,7,12,12,11,6,4,12,8,8,1,9,14,11,1,19,6,3,13,3,5,3,7,13,4,11,6,3,14,13,12,8,15,12,11,10,13,3,5,9,4,8,2,12,6],"left_den":[20,15,30,26,6,20,15,2,2,30,10,12,10,26,2,22,10,2,30,6,10,14,26,26,5,26,20,5,24,22,16,6,10,3,14,16,15,6,5,14,4,6,10,20,30,5,6,20,5,16,28,10,20,10,15,6,10,10,26,10,25,15,20,20,2,2,25,20,22,5,15,10,20,25,6,10,9,26,10,12,16,6,26,30,15,10,25,10,5,20,3,30,8,25,2,25,5,10,20,6,10,5,22,10,25,20,8,12,26,10,30,20,2,25,12,6,4,6,30,26],"right_den":[15,16,26,20,20,16,16,10,5,15,18,10,15,15,30,15,20,30,3,20,28,25,20,10,6,15,20,10,15,20,5,30,24,30,15,5,9,20,10,25,30,5,25,2,18,12,30,6,10,5,20,16,25,28,28,20,30,28,20,24,10,6,4,4,10,30,15,25,5,10,16,30,25,28,20,28,30,20,24,20,10,20,15,16,10,10,18,28,22,2,30,9,10,26,5,10,6,14,26,20,22,10,10,28,26,20,20,25,15,22,15,26,10,10,20,10,20,5,18,10],"correct_side":[1,1,2,2,2,2,1,1,2,2,1,2,1,2,2,1,1,2,2,1,1,2,2,2,2,2,2,1,2,1,1,1,1,2,2,1,1,2,1,2,1,1,1,2,2,1,1,2,1,1,1,1,2,1,1,1,2,1,2,1,1,2,2,2,1,2,1,2,1,1,1,2,1,1,1,2,1,2,1,2,2,1,2,1,2,1,2,1,1,2,2,2,1,1,2,1,2,1,2,1,2,1,1,2,1,1,1,2,2,2,2,2,1,1,2,1,1,1,2,2],"img_shown":["img2/200/Congruent/L/C_Dist_200_LN_12_LD_20_RN_6_RD_15_0.png","img2/100/Congruent/L/C_Dist_100_LN_9_LD_15_RN_8_RD_16_0.png","img2/200/Congruent/R/C_Dist_200_LN_9_LD_30_RN_13_RD_26_1.png","img2/100/Incongruent/R/I_Dist_100_LN_13_LD_26_RN_12_RD_20_1.png","img2/200/Congruent/R/C_Dist_200_LN_3_LD_6_RN_14_RD_20_1.png","img2/100/Congruent/R/C_Dist_100_LN_3_LD_20_RN_4_RD_16_1.png","img2/100/Congruent/L/C_Dist_100_LN_9_LD_15_RN_8_RD_16_0.png","img2/300/Incongruent/L/I_Dist_300_LN_1_LD_2_RN_2_RD_10_0.png","img2/100/Congruent/R/C_Dist_100_LN_1_LD_2_RN_3_RD_5_1.png","img2/100/Incongruent/R/I_Dist_100_LN_17_LD_30_RN_10_RD_15_1.png","img2/300/Incongruent/L/I_Dist_300_LN_8_LD_10_RN_9_RD_18_0.png","img2/200/Congruent/R/C_Dist_200_LN_6_LD_12_RN_7_RD_10_1.png","img2/200/Congruent/L/C_Dist_200_LN_4_LD_10_RN_3_RD_15_0.png","img2/300/Incongruent/R/I_Dist_300_LN_13_LD_26_RN_12_RD_15_1.png","img2/100/Congruent/R/C_Dist_100_LN_1_LD_2_RN_18_RD_30_1.png","img2/100/Congruent/L/C_Dist_100_LN_11_LD_22_RN_6_RD_15_0.png","img2/300/Incongruent/L/I_Dist_300_LN_7_LD_10_RN_8_RD_20_0.png","img2/100/Congruent/R/C_Dist_100_LN_1_LD_2_RN_18_RD_30_1.png","img2/200/Incongruent/R/I_Dist_200_LN_4_LD_30_RN_1_RD_3_1.png","img2/300/Incongruent/L/I_Dist_300_LN_3_LD_6_RN_4_RD_20_0.png","img2/200/Incongruent/L/I_Dist_200_LN_7_LD_10_RN_14_RD_28_0.png","img2/100/Congruent/R/C_Dist_100_LN_7_LD_14_RN_15_RD_25_1.png","img2/100/Incongruent/R/I_Dist_100_LN_13_LD_26_RN_12_RD_20_1.png","img2/100/Incongruent/R/I_Dist_100_LN_13_LD_26_RN_6_RD_10_1.png","img2/300/Congruent/R/C_Dist_300_LN_1_LD_5_RN_3_RD_6_1.png","img2/300/Incongruent/R/I_Dist_300_LN_13_LD_26_RN_12_RD_15_1.png","img2/300/Congruent/R/C_Dist_300_LN_1_LD_20_RN_7_RD_20_1.png","img2/200/Incongruent/L/I_Dist_200_LN_4_LD_5_RN_6_RD_10_0.png","img2/100/Incongruent/R/I_Dist_100_LN_12_LD_24_RN_9_RD_15_1.png","img2/300/Congruent/L/C_Dist_300_LN_11_LD_22_RN_4_RD_20_0.png","img2/100/Congruent/L/C_Dist_100_LN_8_LD_16_RN_2_RD_5_0.png","img2/200/Incongruent/L/I_Dist_200_LN_4_LD_6_RN_14_RD_30_0.png","img2/200/Incongruent/L/I_Dist_200_LN_7_LD_10_RN_12_RD_24_0.png","img2/300/Congruent/R/C_Dist_300_LN_1_LD_3_RN_19_RD_30_1.png","img2/100/Congruent/R/C_Dist_100_LN_7_LD_14_RN_9_RD_15_1.png","img2/100/Congruent/L/C_Dist_100_LN_8_LD_16_RN_2_RD_5_0.png","img2/200/Congruent/L/C_Dist_200_LN_8_LD_15_RN_3_RD_9_0.png","img2/200/Congruent/R/C_Dist_200_LN_3_LD_6_RN_14_RD_20_1.png","img2/200/Incongruent/L/I_Dist_200_LN_4_LD_5_RN_6_RD_10_0.png","img2/300/Congruent/R/C_Dist_300_LN_7_LD_14_RN_20_RD_25_1.png","img2/300/Incongruent/L/I_Dist_300_LN_2_LD_4_RN_6_RD_30_0.png","img2/100/Congruent/L/C_Dist_100_LN_3_LD_6_RN_2_RD_5_0.png","img2/100/Incongruent/L/I_Dist_100_LN_9_LD_10_RN_20_RD_25_0.png","img2/100/Incongruent/R/I_Dist_100_LN_8_LD_20_RN_1_RD_2_1.png","img2/200/Incongruent/R/I_Dist_200_LN_14_LD_30_RN_12_RD_18_1.png","img2/300/Incongruent/L/I_Dist_300_LN_4_LD_5_RN_6_RD_12_0.png","img2/200/Incongruent/L/I_Dist_200_LN_4_LD_6_RN_14_RD_30_0.png","img2/200/Incongruent/R/I_Dist_200_LN_6_LD_20_RN_3_RD_6_1.png","img2/200/Incongruent/L/I_Dist_200_LN_4_LD_5_RN_6_RD_10_0.png","img2/300/Congruent/L/C_Dist_300_LN_8_LD_16_RN_1_RD_5_0.png","img2/200/Congruent/L/C_Dist_200_LN_14_LD_28_RN_6_RD_20_0.png","img2/200/Incongruent/L/I_Dist_200_LN_7_LD_10_RN_8_RD_16_0.png","img2/300/Congruent/R/C_Dist_300_LN_2_LD_20_RN_10_RD_25_1.png","img2/300/Incongruent/L/I_Dist_300_LN_8_LD_10_RN_14_RD_28_0.png","img2/100/Incongruent/L/I_Dist_100_LN_9_LD_15_RN_14_RD_28_0.png","img2/300/Incongruent/L/I_Dist_300_LN_3_LD_6_RN_4_RD_20_0.png","img2/100/Congruent/R/C_Dist_100_LN_4_LD_10_RN_15_RD_30_1.png","img2/300/Incongruent/L/I_Dist_300_LN_8_LD_10_RN_14_RD_28_0.png","img2/200/Congruent/R/C_Dist_200_LN_13_LD_26_RN_14_RD_20_1.png","img2/200/Incongruent/L/I_Dist_200_LN_7_LD_10_RN_12_RD_24_0.png","img2/200/Congruent/L/C_Dist_200_LN_15_LD_25_RN_4_RD_10_0.png","img2/200/Incongruent/R/I_Dist_200_LN_7_LD_15_RN_4_RD_6_1.png","img2/300/Incongruent/R/I_Dist_300_LN_4_LD_20_RN_2_RD_4_1.png","img2/300/Incongruent/R/I_Dist_300_LN_4_LD_20_RN_2_RD_4_1.png","img2/300/Incongruent/L/I_Dist_300_LN_1_LD_2_RN_2_RD_10_0.png","img2/200/Congruent/R/C_Dist_200_LN_1_LD_2_RN_21_RD_30_1.png","img2/200/Congruent/L/C_Dist_200_LN_20_LD_25_RN_9_RD_15_0.png","img2/300/Congruent/R/C_Dist_300_LN_2_LD_20_RN_10_RD_25_1.png","img2/300/Congruent/L/C_Dist_300_LN_11_LD_22_RN_1_RD_5_0.png","img2/200/Incongruent/L/I_Dist_200_LN_4_LD_5_RN_6_RD_10_0.png","img2/100/Congruent/L/C_Dist_100_LN_9_LD_15_RN_8_RD_16_0.png","img2/100/Congruent/R/C_Dist_100_LN_4_LD_10_RN_15_RD_30_1.png","img2/100/Congruent/L/C_Dist_100_LN_6_LD_20_RN_5_RD_25_0.png","img2/300/Congruent/L/C_Dist_300_LN_20_LD_25_RN_14_RD_28_0.png","img2/300/Incongruent/L/I_Dist_300_LN_3_LD_6_RN_4_RD_20_0.png","img2/200/Congruent/R/C_Dist_200_LN_3_LD_10_RN_14_RD_28_1.png","img2/100/Incongruent/L/I_Dist_100_LN_3_LD_9_RN_7_RD_30_0.png","img2/100/Incongruent/R/I_Dist_100_LN_13_LD_26_RN_12_RD_20_1.png","img2/200/Incongruent/L/I_Dist_200_LN_7_LD_10_RN_12_RD_24_0.png","img2/300/Congruent/R/C_Dist_300_LN_3_LD_12_RN_11_RD_20_1.png","img2/100/Incongruent/R/I_Dist_100_LN_8_LD_16_RN_6_RD_10_1.png","img2/300/Incongruent/L/I_Dist_300_LN_3_LD_6_RN_4_RD_20_0.png","img2/300/Incongruent/R/I_Dist_300_LN_13_LD_26_RN_12_RD_15_1.png","img2/300/Congruent/L/C_Dist_300_LN_24_LD_30_RN_8_RD_16_0.png","img2/200/Incongruent/R/I_Dist_200_LN_9_LD_15_RN_8_RD_10_1.png","img2/300/Congruent/L/C_Dist_300_LN_4_LD_10_RN_1_RD_10_0.png","img2/100/Incongruent/R/I_Dist_100_LN_10_LD_25_RN_9_RD_18_1.png","img2/300/Incongruent/L/I_Dist_300_LN_8_LD_10_RN_14_RD_28_0.png","img2/100/Incongruent/L/I_Dist_100_LN_3_LD_5_RN_11_RD_22_0.png","img2/100/Incongruent/R/I_Dist_100_LN_8_LD_20_RN_1_RD_2_1.png","img2/300/Congruent/R/C_Dist_300_LN_1_LD_3_RN_19_RD_30_1.png","img2/200/Incongruent/R/I_Dist_200_LN_14_LD_30_RN_6_RD_9_1.png","img2/200/Congruent/L/C_Dist_200_LN_4_LD_8_RN_3_RD_10_0.png","img2/300/Congruent/L/C_Dist_300_LN_20_LD_25_RN_13_RD_26_0.png","img2/100/Congruent/R/C_Dist_100_LN_1_LD_2_RN_3_RD_5_1.png","img2/300/Congruent/L/C_Dist_300_LN_20_LD_25_RN_5_RD_10_0.png","img2/300/Congruent/R/C_Dist_300_LN_1_LD_5_RN_3_RD_6_1.png","img2/100/Incongruent/L/I_Dist_100_LN_6_LD_10_RN_7_RD_14_0.png","img2/300/Congruent/R/C_Dist_300_LN_4_LD_20_RN_13_RD_26_1.png","img2/300/Incongruent/L/I_Dist_300_LN_3_LD_6_RN_4_RD_20_0.png","img2/200/Congruent/R/C_Dist_200_LN_3_LD_10_RN_11_RD_22_1.png","img2/200/Incongruent/L/I_Dist_200_LN_4_LD_5_RN_6_RD_10_0.png","img2/200/Congruent/L/C_Dist_200_LN_11_LD_22_RN_3_RD_10_0.png","img2/200/Congruent/R/C_Dist_200_LN_3_LD_10_RN_14_RD_28_1.png","img2/100/Congruent/L/C_Dist_100_LN_15_LD_25_RN_13_RD_26_0.png","img2/200/Congruent/L/C_Dist_200_LN_16_LD_20_RN_12_RD_20_0.png","img2/100/Incongruent/L/I_Dist_100_LN_4_LD_8_RN_8_RD_20_0.png","img2/100/Congruent/R/C_Dist_100_LN_6_LD_12_RN_15_RD_25_1.png","img2/300/Incongruent/R/I_Dist_300_LN_13_LD_26_RN_12_RD_15_1.png","img2/200/Congruent/R/C_Dist_200_LN_3_LD_10_RN_11_RD_22_1.png","img2/100/Incongruent/R/I_Dist_100_LN_17_LD_30_RN_10_RD_15_1.png","img2/300/Congruent/R/C_Dist_300_LN_4_LD_20_RN_13_RD_26_1.png","img2/200/Incongruent/L/I_Dist_200_LN_1_LD_2_RN_3_RD_10_0.png","img2/300/Congruent/L/C_Dist_300_LN_20_LD_25_RN_5_RD_10_0.png","img2/200/Congruent/R/C_Dist_200_LN_3_LD_12_RN_9_RD_20_1.png","img2/100/Incongruent/L/I_Dist_100_LN_3_LD_6_RN_4_RD_10_0.png","img2/100/Incongruent/L/I_Dist_100_LN_2_LD_4_RN_8_RD_20_0.png","img2/100/Congruent/L/C_Dist_100_LN_3_LD_6_RN_2_RD_5_0.png","img2/200/Incongruent/R/I_Dist_200_LN_14_LD_30_RN_12_RD_18_1.png","img2/100/Incongruent/R/I_Dist_100_LN_13_LD_26_RN_6_RD_10_1.png"],"dist100_C":[["C_Dist_100_LN_10_LD_25_RN_3_RD_10_0.png","C_Dist_100_LN_11_LD_22_RN_4_RD_10_0.png","C_Dist_100_LN_11_LD_22_RN_6_RD_15_0.png","C_Dist_100_LN_15_LD_25_RN_13_RD_26_0.png","C_Dist_100_LN_3_LD_6_RN_2_RD_5_0.png","C_Dist_100_LN_6_LD_20_RN_5_RD_25_0.png","C_Dist_100_LN_8_LD_16_RN_2_RD_5_0.png","C_Dist_100_LN_9_LD_15_RN_8_RD_16_0.png"],["C_Dist_100_LN_1_LD_2_RN_18_RD_30_1.png","C_Dist_100_LN_1_LD_2_RN_3_RD_5_1.png","C_Dist_100_LN_12_LD_30_RN_13_RD_26_1.png","C_Dist_100_LN_2_LD_5_RN_11_RD_22_1.png","C_Dist_100_LN_2_LD_5_RN_6_RD_12_1.png","C_Dist_100_LN_3_LD_20_RN_4_RD_16_1.png","C_Dist_100_LN_4_LD_10_RN_15_RD_30_1.png","C_Dist_100_LN_4_LD_8_RN_6_RD_10_1.png","C_Dist_100_LN_6_LD_12_RN_15_RD_25_1.png","C_Dist_100_LN_7_LD_14_RN_15_RD_25_1.png","C_Dist_100_LN_7_LD_14_RN_9_RD_15_1.png"]],"dist100_I":[["I_Dist_100_LN_1_LD_2_RN_8_RD_20_0.png","I_Dist_100_LN_2_LD_4_RN_6_RD_15_0.png","I_Dist_100_LN_2_LD_4_RN_8_RD_20_0.png","I_Dist_100_LN_3_LD_5_RN_11_RD_22_0.png","I_Dist_100_LN_3_LD_5_RN_8_RD_16_0.png","I_Dist_100_LN_3_LD_6_RN_4_RD_10_0.png","I_Dist_100_LN_3_LD_9_RN_7_RD_30_0.png","I_Dist_100_LN_4_LD_8_RN_8_RD_20_0.png","I_Dist_100_LN_6_LD_10_RN_11_RD_22_0.png","I_Dist_100_LN_6_LD_10_RN_13_RD_26_0.png","I_Dist_100_LN_6_LD_10_RN_7_RD_14_0.png","I_Dist_100_LN_9_LD_10_RN_20_RD_25_0.png","I_Dist_100_LN_9_LD_15_RN_13_RD_26_0.png","I_Dist_100_LN_9_LD_15_RN_14_RD_28_0.png"],["I_Dist_100_LN_10_LD_25_RN_8_RD_16_1.png","I_Dist_100_LN_10_LD_25_RN_9_RD_18_1.png","I_Dist_100_LN_11_LD_22_RN_9_RD_15_1.png","I_Dist_100_LN_12_LD_24_RN_9_RD_15_1.png","I_Dist_100_LN_12_LD_30_RN_2_RD_4_1.png","I_Dist_100_LN_13_LD_26_RN_12_RD_20_1.png","I_Dist_100_LN_13_LD_26_RN_6_RD_10_1.png","I_Dist_100_LN_17_LD_30_RN_10_RD_15_1.png","I_Dist_100_LN_6_LD_12_RN_3_RD_5_1.png","I_Dist_100_LN_8_LD_16_RN_6_RD_10_1.png","I_Dist_100_LN_8_LD_20_RN_1_RD_2_1.png","I_Dist_100_LN_9_LD_18_RN_6_RD_10_1.png"]],"dist100_S":[["E_Dist_100_LN_2_LD_12_RN_2_RD_30_0.png","E_Dist_100_LN_6_LD_10_RN_6_RD_12_0.png"],["E_Dist_100_LN_6_LD_12_RN_6_RD_10_1.png"]],"dist200_C":[["C_Dist_200_LN_11_LD_22_RN_3_RD_10_0.png","C_Dist_200_LN_12_LD_15_RN_6_RD_10_0.png","C_Dist_200_LN_12_LD_20_RN_6_RD_15_0.png","C_Dist_200_LN_14_LD_28_RN_6_RD_20_0.png","C_Dist_200_LN_15_LD_25_RN_4_RD_10_0.png","C_Dist_200_LN_16_LD_20_RN_12_RD_20_0.png","C_Dist_200_LN_16_LD_30_RN_9_RD_27_0.png","C_Dist_200_LN_20_LD_25_RN_9_RD_15_0.png","C_Dist_200_LN_21_LD_30_RN_2_RD_4_0.png","C_Dist_200_LN_4_LD_10_RN_3_RD_15_0.png","C_Dist_200_LN_4_LD_8_RN_3_RD_10_0.png","C_Dist_200_LN_6_LD_15_RN_3_RD_15_0.png","C_Dist_200_LN_7_LD_21_RN_2_RD_15_0.png","C_Dist_200_LN_8_LD_15_RN_2_RD_6_0.png","C_Dist_200_LN_8_LD_15_RN_3_RD_9_0.png","C_Dist_200_LN_8_LD_15_RN_7_RD_21_0.png","C_Dist_200_LN_9_LD_20_RN_4_RD_16_0.png"],["C_Dist_200_LN_1_LD_2_RN_21_RD_30_1.png","C_Dist_200_LN_13_LD_26_RN_14_RD_20_1.png","C_Dist_200_LN_3_LD_10_RN_11_RD_22_1.png","C_Dist_200_LN_3_LD_10_RN_14_RD_28_1.png","C_Dist_200_LN_3_LD_10_RN_7_RD_14_1.png","C_Dist_200_LN_3_LD_12_RN_9_RD_20_1.png","C_Dist_200_LN_3_LD_6_RN_14_RD_20_1.png","C_Dist_200_LN_5_LD_10_RN_14_RD_20_1.png","C_Dist_200_LN_6_LD_12_RN_7_RD_10_1.png","C_Dist_200_LN_6_LD_20_RN_11_RD_22_1.png","C_Dist_200_LN_7_LD_15_RN_18_RD_27_1.png","C_Dist_200_LN_9_LD_30_RN_13_RD_26_1.png"]],"dist200_I":[["I_Dist_200_LN_1_LD_2_RN_3_RD_10_0.png","I_Dist_200_LN_1_LD_3_RN_2_RD_15_0.png","I_Dist_200_LN_3_LD_4_RN_11_RD_20_0.png","I_Dist_200_LN_4_LD_5_RN_6_RD_10_0.png","I_Dist_200_LN_4_LD_6_RN_14_RD_30_0.png","I_Dist_200_LN_7_LD_10_RN_12_RD_24_0.png","I_Dist_200_LN_7_LD_10_RN_14_RD_28_0.png","I_Dist_200_LN_7_LD_10_RN_8_RD_16_0.png"],["I_Dist_200_LN_11_LD_20_RN_3_RD_4_1.png","I_Dist_200_LN_14_LD_30_RN_12_RD_18_1.png","I_Dist_200_LN_14_LD_30_RN_6_RD_9_1.png","I_Dist_200_LN_3_LD_10_RN_1_RD_2_1.png","I_Dist_200_LN_4_LD_30_RN_1_RD_3_1.png","I_Dist_200_LN_6_LD_20_RN_3_RD_6_1.png","I_Dist_200_LN_7_LD_15_RN_4_RD_6_1.png","I_Dist_200_LN_7_LD_15_RN_6_RD_9_1.png","I_Dist_200_LN_9_LD_15_RN_8_RD_10_1.png"]],"dist200_S":[["E_Dist_200_LN_3_LD_6_RN_3_RD_10_0.png"],["E_Dist_200_LN_3_LD_10_RN_3_RD_6_1.png"]],"dist300_C":[["C_Dist_300_LN_11_LD_22_RN_1_RD_5_0.png","C_Dist_300_LN_11_LD_22_RN_2_RD_10_0.png","C_Dist_300_LN_11_LD_22_RN_4_RD_20_0.png","C_Dist_300_LN_12_LD_24_RN_2_RD_10_0.png","C_Dist_300_LN_18_LD_20_RN_9_RD_15_0.png","C_Dist_300_LN_20_LD_25_RN_13_RD_26_0.png","C_Dist_300_LN_20_LD_25_RN_14_RD_28_0.png","C_Dist_300_LN_20_LD_25_RN_5_RD_10_0.png","C_Dist_300_LN_20_LD_25_RN_8_RD_16_0.png","C_Dist_300_LN_20_LD_25_RN_9_RD_18_0.png","C_Dist_300_LN_24_LD_30_RN_2_RD_4_0.png","C_Dist_300_LN_24_LD_30_RN_8_RD_16_0.png","C_Dist_300_LN_3_LD_6_RN_2_RD_10_0.png","C_Dist_300_LN_4_LD_10_RN_1_RD_10_0.png","C_Dist_300_LN_4_LD_5_RN_2_RD_4_0.png","C_Dist_300_LN_8_LD_16_RN_1_RD_5_0.png","C_Dist_300_LN_9_LD_10_RN_3_RD_5_0.png"],["C_Dist_300_LN_1_LD_20_RN_7_RD_20_1.png","C_Dist_300_LN_1_LD_3_RN_19_RD_30_1.png","C_Dist_300_LN_1_LD_30_RN_8_RD_24_1.png","C_Dist_300_LN_1_LD_5_RN_11_RD_22_1.png","C_Dist_300_LN_1_LD_5_RN_3_RD_6_1.png","C_Dist_300_LN_1_LD_5_RN_6_RD_12_1.png","C_Dist_300_LN_2_LD_10_RN_12_RD_24_1.png","C_Dist_300_LN_2_LD_20_RN_10_RD_25_1.png","C_Dist_300_LN_3_LD_12_RN_11_RD_20_1.png","C_Dist_300_LN_3_LD_6_RN_4_RD_5_1.png","C_Dist_300_LN_4_LD_20_RN_13_RD_26_1.png","C_Dist_300_LN_5_LD_25_RN_6_RD_12_1.png","C_Dist_300_LN_5_LD_25_RN_7_RD_14_1.png","C_Dist_300_LN_7_LD_14_RN_20_RD_25_1.png","C_Dist_300_LN_8_LD_15_RN_10_RD_12_1.png"]],"dist300_I":[["I_Dist_300_LN_1_LD_2_RN_2_RD_10_0.png","I_Dist_300_LN_1_LD_2_RN_3_RD_15_0.png","I_Dist_300_LN_2_LD_4_RN_6_RD_30_0.png","I_Dist_300_LN_3_LD_6_RN_4_RD_20_0.png","I_Dist_300_LN_4_LD_5_RN_6_RD_12_0.png","I_Dist_300_LN_4_LD_5_RN_8_RD_16_0.png","I_Dist_300_LN_7_LD_10_RN_8_RD_20_0.png","I_Dist_300_LN_8_LD_10_RN_14_RD_28_0.png","I_Dist_300_LN_8_LD_10_RN_9_RD_18_0.png"],["I_Dist_300_LN_13_LD_26_RN_12_RD_15_1.png","I_Dist_300_LN_4_LD_20_RN_2_RD_4_1.png"]],"dist300_S":[["E_Dist_300_LN_9_LD_12_RN_9_RD_20_0.png"],["E_Dist_300_LN_18_LD_30_RN_18_RD_20_1.png","E_Dist_300_LN_3_LD_10_RN_3_RD_5_1.png","E_Dist_300_LN_9_LD_20_RN_9_RD_12_1.png"]],"dist500_C":[["C_Dist_500_LN_10_LD_13_RN_7_RD_26_0.png","C_Dist_500_LN_10_LD_15_RN_4_RD_24_0.png","C_Dist_500_LN_12_LD_16_RN_3_RD_12_0.png","C_Dist_500_LN_12_LD_18_RN_4_RD_24_0.png","C_Dist_500_LN_15_LD_18_RN_5_RD_15_0.png","C_Dist_500_LN_15_LD_20_RN_1_RD_4_0.png","C_Dist_500_LN_18_LD_27_RN_1_RD_6_0.png","C_Dist_500_LN_20_LD_24_RN_1_RD_3_0.png","C_Dist_500_LN_20_LD_24_RN_3_RD_9_0.png","C_Dist_500_LN_20_LD_24_RN_7_RD_21_0.png","C_Dist_500_LN_20_LD_28_RN_3_RD_14_0.png","C_Dist_500_LN_21_LD_28_RN_6_RD_24_0.png","C_Dist_500_LN_22_LD_28_RN_2_RD_7_0.png","C_Dist_500_LN_25_LD_30_RN_9_RD_27_0.png","C_Dist_500_LN_4_LD_6_RN_1_RD_6_0.png","C_Dist_500_LN_5_LD_6_RN_2_RD_6_0.png","C_Dist_500_LN_6_LD_9_RN_1_RD_6_0.png","C_Dist_500_LN_7_LD_10_RN_1_RD_5_0.png","C_Dist_500_LN_8_LD_12_RN_1_RD_6_0.png","C_Dist_500_LN_8_LD_12_RN_4_RD_24_0.png"],["C_Dist_500_LN_1_LD_4_RN_12_RD_16_1.png","C_Dist_500_LN_1_LD_4_RN_9_RD_12_1.png","C_Dist_500_LN_1_LD_9_RN_11_RD_18_1.png","C_Dist_500_LN_10_LD_24_RN_22_RD_24_1.png","C_Dist_500_LN_2_LD_12_RN_10_RD_15_1.png","C_Dist_500_LN_2_LD_12_RN_12_RD_18_1.png","C_Dist_500_LN_2_LD_12_RN_4_RD_6_1.png","C_Dist_500_LN_2_LD_24_RN_7_RD_12_1.png","C_Dist_500_LN_2_LD_5_RN_18_RD_20_1.png","C_Dist_500_LN_2_LD_5_RN_9_RD_10_1.png","C_Dist_500_LN_2_LD_8_RN_12_RD_16_1.png","C_Dist_500_LN_2_LD_8_RN_21_RD_28_1.png","C_Dist_500_LN_3_LD_10_RN_4_RD_5_1.png","C_Dist_500_LN_3_LD_12_RN_15_RD_20_1.png","C_Dist_500_LN_3_LD_30_RN_6_RD_10_1.png","C_Dist_500_LN_3_LD_8_RN_14_RD_16_1.png","C_Dist_500_LN_4_LD_16_RN_15_RD_20_1.png","C_Dist_500_LN_4_LD_24_RN_12_RD_18_1.png","C_Dist_500_LN_5_LD_14_RN_6_RD_7_1.png","C_Dist_500_LN_7_LD_21_RN_20_RD_24_1.png","C_Dist_500_LN_7_LD_28_RN_12_RD_16_1.png","C_Dist_500_LN_7_LD_28_RN_9_RD_12_1.png","C_Dist_500_LN_9_LD_27_RN_20_RD_24_1.png"]],"dist500_I":[["I_Dist_500_LN_2_LD_3_RN_4_RD_24_0.png","I_Dist_500_LN_5_LD_6_RN_6_RD_18_0.png","I_Dist_500_LN_7_LD_8_RN_9_RD_24_0.png"],["I_Dist_500_LN_7_LD_21_RN_5_RD_6_1.png"]],"dist500_S":[["E_Dist_500_LN_6_LD_8_RN_6_RD_24_0.png"],["E_Dist_500_LN_2_LD_12_RN_2_RD_3_1.png","E_Dist_500_LN_6_LD_24_RN_6_RD_8_1.png"]]}},{"start_time":1551793967529,"click_time":1551793969397,"finger_time":1551793969076,"fix_duration":250,"trial":1,"RT":1547,"MT":321,"sideResp":1,"stimulus":[],"xmouse":[774,774,774,774,774,774,774,774,774,774,774,774,774,774,774,774,774,774,774,774,774,774,774,774,774,774,774,774,774,774,774,774,774,774,774,774,774,774,774,774,774,774,774,774,774,774,774,774,774,774,774,774,774,774,774,774,774,774,774,774,774,774,774,774,774,774,774,774,774,774,774,774,774,774,774,773,758,737,722,711,691,676,643,612,592,572,565,560,550,537,503,487,475,469],"ymouse":[490,490,490,490,490,490,490,490,490,490,490,490,490,490,490,490,490,490,490,490,490,490,490,490,490,490,490,490,490,490,490,490,490,490,490,490,490,490,490,490,490,490,490,490,490,490,490,490,490,490,490,490,490,490,490,490,490,490,490,490,490,490,490,490,490,490,490,490,490,490,490,490,490,490,490,490,471,443,424,400,346,327,303,280,262,229,203,186,170,155,128,116,103,91],"timestamp_mouse":[11,38,48,66,86,107,126,146,167,187,206,228,247,268,287,306,327,348,367,386,406,428,446,467,488,507,527,546,568,586,607,627,647,668,686,708,726,747,767,786,807,827,846,868,887,908,926,947,966,987,1007,1026,1047,1067,1087,1108,1128,1146,1167,1188,1206,1228,1247,1267,1287,1308,1327,1348,1368,1386,1408,1426,1447,1468,1488,1506,1526,1547,1567,1588,1607,1627,1647,1667,1687,1708,1726,1747,1767,1788,1808,1827,1847,1867],"xSR":741.5,"ySR":458.25,"xT1":424.9,"yT1":0,"xT2":1058.1,"yT2":0,"toosoon":0,"cond_shown":"Congruent","ratio_trial":100,"L_num":9,"L_den":15,"R_num":8,"R_den":16,"correct_side":1,"subjID":"juanmartinsaavedragaitan6","gender":"1","school":"cafam","age":"11"},{"start_time":1551793971556,"click_time":1551793973457,"finger_time":1551793973115,"fix_duration":338.2176323540406,"trial":2,"RT":1559,"MT":342,"sideResp":1,"stimulus":[],"xmouse":[778,778,778,778,778,778,778,778,778,777,777,777,777,776,776,776,776,776,776,776,776,776,776,776,776,776,776,776,776,776,776,776,776,776,776,776,776,776,776,776,776,776,776,776,776,776,776,776,776,776,776,776,776,776,776,776,776,776,776,776,776,776,776,776,776,776,776,776,776,776,776,776,776,776,775,769,755,742,728,699,682,658,641,622,590,574,553,540,529,510,501,487,469,451,438,429],"ymouse":[523,523,523,523,523,523,523,523,523,525,525,527,528,528,528,528,528,528,528,528,528,528,528,528,528,528,528,528,528,528,528,528,528,528,528,528,528,528,528,528,528,528,528,528,528,528,528,528,528,528,528,528,528,528,528,528,528,528,528,528,528,528,528,528,528,528,528,528,528,528,528,528,528,528,528,522,498,472,446,405,382,348,328,306,275,263,249,243,237,222,213,195,172,144,122,76],"timestamp_mouse":[11,25,44,60,80,99,121,140,160,181,200,221,239,259,279,301,321,340,359,381,399,420,440,459,480,501,520,541,561,579,601,621,640,661,680,700,720,740,760,781,800,821,841,860,880,899,920,941,961,980,999,1019,1040,1060,1079,1100,1121,1141,1160,1181,1200,1220,1241,1261,1279,1301,1320,1340,1361,1380,1401,1420,1441,1459,1480,1500,1520,1540,1559,1581,1599,1620,1640,1660,1680,1699,1720,1740,1760,1780,1799,1820,1839,1859,1879,1901],"xSR":741.5,"ySR":458.25,"xT1":424.9,"yT1":0,"xT2":1058.1,"yT2":0,"toosoon":0,"cond_shown":"Congruent","ratio_trial":200,"L_num":9,"L_den":30,"R_num":13,"R_den":26,"correct_side":2,"subjID":"juanmartinsaavedragaitan6","gender":"1","school":"cafam","age":"11"},{"start_time":1551793988810,"click_time":1551793991695,"finger_time":1551793990676,"fix_duration":1151.2183862860857,"trial":3,"RT":1866,"MT":1019,"sideResp":1,"stimulus":[],"xmouse":[816,816,816,816,816,816,816,816,816,816,816,816,816,816,816,816,816,816,816,816,816,816,816,816,816,816,816,816,816,816,816,816,816,816,816,816,816,816,816,816,816,816,816,816,816,816,816,816,816,816,816,816,816,816,816,816,816,816,816,816,816,816,816,816,816,816,816,816,816,816,816,816,816,816,816,816,816,816,816,816,816,816,816,816,816,816,816,816,816,816,813,783,769,755,740,726,706,697,691,685,675,639,603,583,564,550,529,524,517,511,498,461,436,425,423,423,423,423,420,415,411,408,408,408,408,408,408,408,408,408,408,408,408,408,408,408,408,408,408,408,408,411,416,421,433],"ymouse":[480,480,480,480,480,480,480,480,480,480,480,480,480,480,480,480,480,480,480,480,480,480,480,480,480,480,480,480,480,480,480,480,480,480,480,480,480,480,480,480,480,480,480,480,480,480,480,480,480,480,480,480,480,480,480,480,480,480,480,480,480,480,480,480,480,480,480,480,480,480,480,480,480,480,480,480,480,480,480,480,480,480,480,480,480,480,480,480,480,479,478,468,459,451,440,428,402,388,376,363,346,303,269,251,235,224,210,205,199,194,183,155,134,125,123,122,122,121,117,110,105,101,101,101,101,101,101,101,101,101,101,101,101,101,101,101,101,101,101,101,101,101,100,99,97],"timestamp_mouse":[11,25,45,66,86,107,126,147,165,185,206,226,247,266,286,307,326,347,365,387,405,427,447,467,486,506,526,547,566,585,606,627,646,665,686,707,725,745,767,785,807,827,846,865,886,906,926,945,965,986,1007,1027,1046,1066,1087,1105,1127,1145,1167,1187,1205,1226,1247,1266,1287,1306,1325,1347,1366,1387,1405,1425,1447,1465,1487,1507,1525,1547,1567,1586,1607,1625,1647,1667,1685,1707,1725,1747,1765,1786,1806,1827,1847,1866,1887,1906,1926,1945,1966,1986,2006,2026,2045,2066,2086,2107,2126,2145,2166,2186,2206,2226,2245,2266,2286,2307,2327,2346,2366,2387,2407,2426,2445,2466,2485,2505,2526,2546,2566,2585,2605,2626,2645,2666,2687,2707,2725,2746,2766,2785,2805,2826,2846,2866,2885],"xSR":741.5,"ySR":458.25,"xT1":424.9,"yT1":0,"xT2":1058.1,"yT2":0,"toosoon":0,"cond_shown":"Incongruent","ratio_trial":100,"L_num":13,"L_den":26,"R_num":12,"R_den":20,"correct_side":2,"subjID":"juanmartinsaavedragaitan6","gender":"1","school":"cafam","age":"11"},{"start_time":1551793993982,"click_time":1551793996136,"finger_time":1551793995696,"fix_duration":944.117432142561,"trial":4,"RT":1714,"MT":440,"sideResp":2,"stimulus":[],"xmouse":[790,790,790,790,790,790,790,790,790,790,790,790,790,790,790,790,790,790,790,790,790,790,790,790,790,790,790,790,790,790,790,790,790,790,790,790,790,790,790,790,790,790,790,790,790,790,790,790,790,790,790,790,790,790,790,790,790,790,790,790,790,790,790,790,790,790,790,790,790,790,790,790,790,790,790,790,790,783,771,761,756,754,754,755,763,772,784,821,847,881,929,987,1047,1198,1235,1264,1277,1280,1280,1280,1277,1277,1277,1277,1277,1277,1277,1070],"ymouse":[528,528,528,528,528,528,528,528,528,528,528,528,528,528,528,528,528,528,528,528,528,528,528,528,528,528,528,528,528,528,528,528,528,528,528,528,528,528,528,528,528,528,528,528,528,528,528,528,528,528,528,528,528,528,528,528,528,528,528,528,528,528,528,528,528,528,528,528,528,528,528,528,528,528,528,528,528,513,497,484,476,474,473,471,465,458,451,429,415,390,346,282,212,75,52,40,33,29,25,17,4,4,4,4,4,4,4,12],"timestamp_mouse":[14,37,54,75,94,115,134,154,174,193,214,233,254,275,293,315,335,354,375,395,413,434,455,474,495,515,533,555,573,595,615,635,653,674,694,713,734,755,775,795,815,834,853,875,895,914,934,955,975,994,1014,1034,1054,1074,1094,1115,1135,1153,1174,1195,1214,1234,1255,1275,1294,1313,1334,1355,1375,1393,1414,1433,1455,1473,1493,1513,1534,1554,1574,1595,1614,1633,1654,1674,1694,1714,1734,1754,1773,1794,1814,1833,1854,1874,1893,1914,1935,1954,1973,1995,2014,2035,2054,2074,2095,2113,2133,2154],"xSR":741.5,"ySR":458.25,"xT1":424.9,"yT1":0,"xT2":1058.1,"yT2":0,"toosoon":0,"cond_shown":"Congruent","ratio_trial":200,"L_num":3,"L_den":6,"R_num":14,"R_den":20,"correct_side":2,"subjID":"juanmartinsaavedragaitan6","gender":"1","school":"cafam","age":"11"},{"start_time":1551793998388,"click_time":1551794000216,"finger_time":1551793999676,"fix_duration":250,"trial":5,"RT":1288,"MT":540,"sideResp":1,"stimulus":[],"xmouse":[765,765,765,765,765,765,765,765,766,766,766,766,766,766,767,767,768,768,768,768,768,768,768,768,768,768,768,768,768,768,768,769,769,770,771,772,772,773,774,775,775,775,775,776,776,776,776,776,776,776,776,776,776,776,776,776,776,776,776,776,776,776,777,769,761,754,739,713,706,697,686,676,662,657,655,653,652,645,639,633,623,617,585,564,549,526,507,500,497,490,482,474],"ymouse":[477,477,477,477,477,477,477,477,476,476,476,476,476,476,475,474,473,473,473,473,473,473,473,473,473,473,473,473,473,473,473,473,473,474,475,475,477,478,479,480,480,480,480,481,481,481,481,481,481,481,481,481,481,481,481,481,481,481,481,481,481,481,480,465,449,434,416,393,385,372,357,345,330,322,318,314,309,292,282,266,249,241,232,228,228,228,228,226,220,199,123,53],"timestamp_mouse":[10,31,48,67,89,107,128,148,168,187,209,229,248,268,288,308,329,347,369,389,407,428,448,468,487,509,529,547,568,589,609,628,647,668,687,709,728,748,767,789,808,827,849,868,887,907,928,947,967,988,1009,1027,1047,1068,1088,1107,1128,1147,1168,1189,1208,1228,1248,1267,1288,1308,1328,1348,1368,1387,1409,1428,1448,1467,1488,1508,1529,1548,1568,1588,1608,1628,1648,1667,1688,1708,1728,1748,1767,1788,1808,1827],"xSR":741.5,"ySR":458.25,"xT1":424.9,"yT1":0,"xT2":1058.1,"yT2":0,"toosoon":0,"cond_shown":"Congruent","ratio_trial":100,"L_num":3,"L_den":20,"R_num":4,"R_den":16,"correct_side":2,"subjID":"juanmartinsaavedragaitan6","gender":"1","school":"cafam","age":"11"},{"start_time":1551794001749,"click_time":1551794003816,"finger_time":1551794003036,"fix_duration":250,"trial":6,"RT":1287,"MT":780,"sideResp":2,"stimulus":[],"xmouse":[832,831,831,830,830,828,827,827,826,825,825,824,823,823,823,823,823,823,823,823,823,823,823,822,822,822,822,822,822,822,822,822,822,822,822,822,822,822,822,822,822,822,822,822,822,822,822,822,822,822,822,822,822,822,822,822,822,822,822,822,824,827,829,832,845,864,875,900,922,942,947,951,956,960,963,965,967,972,976,985,989,995,1004,1016,1034,1039,1040,1043,1045,1048,1048,1048,1048,1048,1048,1048,1049,1051,1052,1054,1054,1055,1058,1061],"ymouse":[535,534,534,533,533,531,531,530,529,528,528,527,526,526,526,526,526,526,526,526,526,526,525,524,524,524,524,524,524,523,522,522,522,521,521,521,521,521,521,521,521,521,521,520,520,520,520,520,520,520,520,520,520,520,520,520,520,518,517,514,512,509,506,502,479,444,406,349,310,272,259,252,246,241,233,226,218,210,203,193,189,181,168,151,126,119,116,113,111,108,108,108,108,108,108,108,106,104,103,101,101,100,97,93],"timestamp_mouse":[14,39,47,66,88,107,126,146,166,188,207,227,247,267,287,308,326,347,366,386,408,427,447,467,486,507,527,548,566,588,608,626,648,667,688,708,726,747,767,786,806,827,847,867,886,908,927,946,967,986,1007,1028,1046,1067,1086,1108,1127,1146,1167,1187,1207,1227,1248,1267,1287,1307,1326,1347,1368,1387,1407,1427,1448,1468,1488,1506,1527,1547,1567,1587,1607,1628,1648,1666,1688,1706,1726,1747,1767,1787,1807,1827,1848,1866,1888,1907,1927,1947,1967,1987,2006,2028,2046,2067],"xSR":741.5,"ySR":458.25,"xT1":424.9,"yT1":0,"xT2":1058.1,"yT2":0,"toosoon":0,"cond_shown":"Congruent","ratio_trial":100,"L_num":9,"L_den":15,"R_num":8,"R_den":16,"correct_side":1,"subjID":"juanmartinsaavedragaitan6","gender":"1","school":"cafam","age":"11"},{"start_time":1551794005919,"click_time":1551794008396,"finger_time":1551794007936,"fix_duration":720.1036480903924,"trial":7,"RT":2017,"MT":460,"sideResp":1,"stimulus":[],"xmouse":[806,806,806,806,806,806,806,806,806,806,805,805,805,805,805,805,805,805,805,805,805,805,805,805,805,805,805,805,805,805,805,805,805,805,805,805,805,805,805,805,805,805,805,805,805,805,805,805,805,805,805,805,805,805,805,805,805,805,805,805,805,805,805,805,805,805,805,805,805,805,805,805,805,805,805,805,805,805,805,805,805,805,805,805,805,805,805,805,805,805,805,805,805,805,805,805,805,803,792,776,735,715,703,697,691,689,677,672,669,668,665,659,650,634,620,603,594,589,580,569,542,533,528,524],"ymouse":[472,472,472,472,472,472,473,477,480,484,485,485,485,485,485,485,485,485,485,485,485,485,485,485,485,485,485,485,485,485,485,485,485,485,485,485,485,485,485,485,485,485,485,485,485,485,485,485,485,485,485,485,485,485,485,485,485,485,485,485,485,485,485,485,485,485,485,485,485,485,485,485,485,485,485,485,485,485,485,485,485,485,485,485,485,485,485,485,485,485,485,485,485,485,485,485,485,485,484,477,449,434,417,397,371,274,218,198,190,185,172,153,131,110,94,78,72,70,69,69,69,69,69,69],"timestamp_mouse":[30,38,56,78,98,117,138,157,178,196,217,237,256,278,297,317,336,357,378,398,417,438,458,477,496,517,536,557,577,597,616,637,658,677,697,716,737,757,778,798,817,837,857,876,897,917,938,956,976,996,1017,1038,1057,1076,1098,1118,1136,1157,1178,1198,1216,1237,1257,1277,1297,1317,1336,1356,1377,1398,1417,1438,1456,1478,1497,1518,1536,1556,1577,1597,1617,1638,1658,1678,1697,1716,1737,1757,1777,1797,1816,1836,1858,1876,1898,1916,1938,1957,1977,1997,2017,2036,2057,2077,2096,2118,2136,2157,2177,2196,2218,2236,2257,2277,2297,2317,2336,2357,2377,2398,2418,2437,2457,2477],"xSR":741.5,"ySR":458.25,"xT1":424.9,"yT1":0,"xT2":1058.1,"yT2":0,"toosoon":0,"cond_shown":"Incongruent","ratio_trial":300,"L_num":1,"L_den":2,"R_num":2,"R_den":10,"correct_side":1,"subjID":"juanmartinsaavedragaitan6","gender":"1","school":"cafam","age":"11"},{"start_time":1551794010620,"click_time":1551794015296,"finger_time":1551794012436,"fix_duration":1062.7153335419646,"trial":8,"RT":1816,"MT":2860,"sideResp":1,"stimulus":[],"xmouse":[832,832,832,832,831,829,827,824,823,821,820,820,820,820,820,820,820,820,820,820,820,820,820,820,820,820,820,820,820,820,820,820,820,820,820,820,820,820,820,820,820,820,820,820,820,820,820,820,820,820,820,820,820,820,820,820,820,820,820,820,820,820,820,820,820,820,820,820,820,820,820,820,820,820,820,820,820,820,820,820,820,820,820,820,820,816,812,805,797,784,757,739,727,719,711,704,700,700,700,700,700,700,700,700,700,700,700,700,700,700,700,700,700,700,700,700,700,700,700,708,725,733,735,736,737,737,737,739,742,746,754,757,759,761,761,762,764,765,765,765,765,765,765,765,765,765,765,765,765,765,765,765,765,765,765,765,765,765,765,765,765,765,765,765,765,765,765,765,765,765,765,765,765,765,765,765,765,765,765,765,765,765,765,765,765,765,765,765,765,765,765,765,765,765,765,765,765,765,765,765,765,765,765,765,765,765,763,754,741,721,681,664,658,653,647,635,627,621,618,616,606,593,584,577,573,568,564,558,550,540,524,518,511,500],"ymouse":[503,503,503,503,503,503,503,503,503,503,503,503,503,503,503,504,504,504,504,504,504,504,504,504,504,504,504,504,504,504,504,504,504,504,504,504,504,504,504,504,504,504,504,504,504,504,504,504,504,504,504,504,504,504,504,504,504,504,504,504,504,504,504,504,504,504,504,504,504,504,504,504,504,504,504,504,504,504,504,504,504,504,504,504,504,501,497,489,480,467,429,400,383,367,355,348,343,343,343,343,343,343,343,343,343,343,343,343,343,343,343,343,343,343,343,343,343,343,343,351,367,376,382,386,390,397,401,405,413,422,444,454,463,466,468,469,472,473,474,474,474,474,474,474,474,474,474,474,474,474,474,474,474,474,474,474,474,474,474,474,474,474,474,474,474,474,474,474,474,474,474,474,474,474,474,474,474,474,474,474,474,474,474,474,474,474,474,474,474,474,474,474,474,474,474,474,474,474,474,474,474,474,474,474,474,472,460,449,434,415,373,346,330,316,303,282,271,264,260,258,240,219,203,190,180,171,163,153,143,134,120,114,105,94],"timestamp_mouse":[31,36,56,76,97,115,136,155,176,197,215,236,257,275,296,316,336,357,377,396,417,435,455,477,495,516,536,556,576,595,615,635,657,675,697,715,737,757,776,795,816,837,855,877,895,917,937,957,977,997,1015,1035,1056,1075,1095,1117,1135,1156,1176,1195,1216,1236,1257,1277,1297,1316,1337,1357,1375,1397,1416,1436,1457,1475,1497,1516,1535,1556,1575,1596,1615,1636,1657,1677,1695,1716,1736,1756,1777,1795,1816,1835,1856,1876,1896,1915,1936,1955,1976,1996,2017,2035,2055,2076,2096,2117,2135,2156,2176,2196,2216,2235,2257,2275,2296,2317,2337,2356,2375,2396,2417,2436,2456,2477,2497,2516,2535,2555,2576,2596,2616,2636,2656,2677,2695,2715,2736,2756,2775,2795,2816,2836,2857,2877,2897,2917,2935,2955,2977,2997,3017,3036,3057,3075,3095,3115,3136,3156,3175,3195,3216,3235,3256,3276,3295,3316,3336,3357,3377,3397,3417,3435,3457,3475,3496,3516,3535,3556,3575,3596,3617,3636,3657,3676,3697,3717,3735,3757,3775,3797,3815,3836,3856,3876,3896,3915,3936,3956,3976,3995,4017,4035,4055,4077,4095,4115,4136,4156,4177,4196,4217,4235,4256,4276,4296,4316,4335,4356,4377,4396,4417,4435,4456,4477,4496,4516,4535,4556,4577,4597,4616,4635,4656,4676],"xSR":741.5,"ySR":458.25,"xT1":424.9,"yT1":0,"xT2":1058.1,"yT2":0,"toosoon":0,"cond_shown":"Congruent","ratio_trial":100,"L_num":1,"L_den":2,"R_num":3,"R_den":5,"correct_side":2,"subjID":"juanmartinsaavedragaitan6","gender":"1","school":"cafam","age":"11"},{"start_time":1551794016507,"click_time":1551794017996,"finger_time":1551794017656,"fix_duration":250,"trial":9,"RT":1149,"MT":340,"sideResp":1,"stimulus":[],"xmouse":[801,801,801,801,801,801,801,801,801,801,801,801,801,801,801,801,801,801,801,801,801,801,801,801,801,801,801,801,801,801,801,801,801,801,801,801,801,801,801,801,801,801,801,801,801,801,801,801,801,801,801,801,801,802,798,792,788,796,803,805,805,798,793,785,772,754,718,685,675,644,621,596,550,533,522],"ymouse":[517,517,517,517,517,517,517,517,517,517,517,517,517,517,517,517,517,517,517,517,517,517,517,517,517,517,517,517,517,517,517,517,517,517,517,517,517,517,517,517,517,517,517,517,517,517,517,517,517,517,517,517,517,516,512,501,465,422,395,376,365,347,339,328,315,300,273,249,241,209,181,148,105,92,84],"timestamp_mouse":[12,34,48,69,88,110,130,149,170,190,209,228,250,270,289,310,330,348,368,390,410,430,449,470,489,510,529,548,570,589,609,628,650,669,688,709,729,749,769,789,809,828,848,869,889,910,928,948,970,988,1009,1029,1050,1070,1089,1109,1129,1149,1169,1188,1208,1230,1248,1269,1290,1310,1329,1349,1368,1388,1409,1428,1448,1469,1489],"xSR":741.5,"ySR":458.25,"xT1":424.9,"yT1":0,"xT2":1058.1,"yT2":0,"toosoon":0,"cond_shown":"Incongruent","ratio_trial":100,"L_num":17,"L_den":30,"R_num":10,"R_den":15,"correct_side":2,"subjID":"juanmartinsaavedragaitan6","gender":"1","school":"cafam","age":"11"},{"start_time":1551794019886,"click_time":1551794023537,"finger_time":1551794023197,"fix_duration":369.37534650600736,"trial":10,"RT":3311,"MT":340,"sideResp":2,"stimulus":[],"xmouse":[811,811,811,811,811,811,811,811,810,810,809,809,809,809,809,809,809,809,809,809,809,809,809,809,809,809,809,809,809,809,809,808,808,808,808,808,808,808,808,808,808,808,807,807,807,806,805,804,804,804,804,804,804,803,803,802,801,801,801,801,801,801,801,801,801,801,801,801,801,801,801,801,801,801,801,801,801,801,801,801,801,801,801,801,801,801,801,801,801,801,801,801,801,801,801,801,801,801,801,801,801,801,802,801,799,798,796,792,789,788,787,786,785,781,780,779,779,778,778,778,778,778,778,778,778,778,778,778,778,778,779,781,784,787,787,787,788,788,788,790,800,808,812,814,815,815,815,815,816,816,817,819,821,821,822,822,822,822,822,822,822,822,822,822,830,856,914,1043,1095,1106,1112,1115,1118,1118,1113,1109,1107,1103,1098,1096,1094,1094,1096],"ymouse":[481,481,481,481,481,481,481,481,481,481,481,481,481,481,481,481,482,483,484,484,485,485,488,489,489,489,489,489,490,490,490,491,491,491,491,491,491,491,491,491,491,491,491,492,492,493,493,494,494,494,494,494,494,495,496,496,492,482,475,472,467,466,466,466,466,466,466,466,466,466,466,466,466,466,466,466,466,466,466,466,466,466,466,466,466,466,466,466,466,466,466,466,466,466,466,466,466,466,466,466,466,466,465,465,465,465,466,470,473,475,479,480,482,488,491,493,495,496,496,496,496,496,496,496,496,496,496,496,496,496,496,496,495,493,493,493,492,492,492,492,492,498,501,504,505,505,506,506,507,507,507,507,506,506,505,505,505,505,505,505,505,505,505,505,498,478,436,354,324,315,310,308,300,291,275,255,235,195,164,144,120,100,66],"timestamp_mouse":[11,33,50,70,91,110,130,149,170,190,211,230,250,270,289,309,329,351,370,390,411,430,451,472,491,511,532,551,571,591,611,630,651,670,691,711,732,750,770,792,810,831,851,871,892,911,932,952,971,991,1011,1031,1051,1071,1092,1110,1131,1151,1170,1191,1211,1230,1252,1271,1291,1312,1330,1351,1372,1390,1412,1431,1451,1471,1491,1511,1530,1550,1570,1591,1612,1630,1651,1671,1691,1710,1732,1752,1771,1792,1811,1830,1851,1871,1892,1911,1932,1951,1971,1992,2012,2031,2051,2071,2091,2112,2131,2151,2171,2191,2212,2231,2251,2271,2292,2311,2330,2351,2371,2391,2410,2431,2452,2471,2491,2511,2531,2552,2570,2590,2612,2631,2651,2671,2691,2711,2731,2752,2772,2791,2812,2831,2850,2871,2891,2910,2932,2951,2972,2990,3011,3031,3050,3071,3091,3111,3131,3150,3172,3190,3211,3230,3252,3271,3291,3311,3332,3352,3370,3391,3412,3431,3451,3471,3491,3511,3530,3551,3570,3590,3610,3631,3651],"xSR":741.5,"ySR":458.25,"xT1":424.9,"yT1":0,"xT2":1058.1,"yT2":0,"toosoon":0,"cond_shown":"Incongruent","ratio_trial":300,"L_num":8,"L_den":10,"R_num":9,"R_den":18,"correct_side":1,"subjID":"juanmartinsaavedragaitan6","gender":"1","school":"cafam","age":"11"},{"start_time":1551794025547,"click_time":1551794028937,"finger_time":1551794027036,"fix_duration":1168.4964632200126,"trial":11,"RT":1489,"MT":1901,"sideResp":1,"stimulus":[],"xmouse":[790,792,793,793,793,793,793,793,793,793,793,793,793,793,793,793,793,793,793,793,793,793,793,793,793,793,793,793,793,793,793,793,793,793,793,793,793,793,793,793,793,793,793,793,793,793,793,793,793,793,793,793,793,793,793,793,793,793,793,793,793,793,793,793,793,793,793,793,793,788,778,770,761,751,711,694,678,665,650,633,602,588,575,566,551,545,542,537,532,527,525,522,520,518,511,507,504,503,501,501,501,501,501,501,501,504,511,518,526,553,566,578,591,600,614,623,628,636,641,650,654,657,660,663,669,674,680,681,684,688,690,692,694,697,701,702,702,702,702,702,702,702,702,702,702,698,692,686,681,673,668,663,657,647,627,608,596,585,574,554,547,542,539,538,538,536,534,532,526,504],"ymouse":[518,517,516,516,516,516,516,516,516,516,516,516,516,516,516,516,516,516,516,516,516,516,516,516,516,516,516,516,516,516,516,516,516,516,516,516,516,516,516,516,516,516,516,516,516,516,516,516,516,516,516,516,516,516,516,516,516,516,516,516,516,516,516,516,516,516,515,514,511,506,496,490,485,477,451,439,427,415,403,389,358,341,327,316,296,286,281,273,264,254,249,244,239,233,216,206,200,196,191,190,190,190,190,190,190,189,192,195,200,224,239,256,273,290,326,352,366,379,387,400,406,410,414,420,427,432,437,439,441,443,444,446,447,448,450,451,451,451,451,451,451,451,451,451,449,430,414,398,380,352,340,328,314,296,263,238,223,210,196,173,167,162,159,158,157,154,152,147,136,99],"timestamp_mouse":[10,37,50,70,89,111,129,150,170,190,209,230,250,270,289,310,331,349,371,390,409,430,450,469,489,511,529,551,570,589,610,630,650,671,691,710,729,750,769,789,811,831,851,870,891,910,930,950,971,990,1010,1029,1049,1071,1091,1109,1130,1151,1170,1189,1209,1230,1249,1269,1291,1310,1330,1351,1370,1390,1421,1430,1451,1470,1489,1509,1530,1550,1570,1590,1610,1630,1650,1671,1690,1709,1730,1750,1770,1789,1810,1830,1850,1869,1890,1911,1930,1949,1971,1990,2009,2030,2049,2070,2089,2110,2130,2151,2171,2190,2209,2230,2250,2270,2290,2309,2329,2350,2370,2389,2410,2431,2451,2470,2490,2510,2530,2549,2570,2590,2611,2630,2649,2671,2690,2711,2731,2750,2769,2790,2810,2830,2851,2870,2890,2909,2930,2949,2970,2989,3009,3030,3050,3070,3090,3109,3130,3150,3171,3190,3210,3230,3250,3270,3289,3309,3329,3350,3369,3389],"xSR":741.5,"ySR":458.25,"xT1":424.9,"yT1":0,"xT2":1058.1,"yT2":0,"toosoon":0,"cond_shown":"Congruent","ratio_trial":200,"L_num":6,"L_den":12,"R_num":7,"R_den":10,"correct_side":2,"subjID":"juanmartinsaavedragaitan6","gender":"1","school":"cafam","age":"11"},{"start_time":1551794031116,"click_time":1551794034457,"finger_time":1551794031897,"fix_duration":1176.2223584983485,"trial":12,"RT":781,"MT":2560,"sideResp":2,"stimulus":[],"xmouse":[780,780,780,780,780,780,780,780,780,780,780,780,780,780,780,780,780,780,780,780,780,780,780,780,780,780,780,780,780,780,780,780,780,780,780,780,780,780,762,751,751,751,751,751,751,751,751,751,751,751,751,751,751,751,751,751,751,751,751,751,751,754,763,770,774,777,790,792,792,792,792,792,792,792,792,792,792,792,792,792,792,792,792,791,791,791,791,790,790,790,790,790,790,790,790,790,786,785,783,783,783,783,783,783,783,783,783,782,782,782,782,782,782,782,782,782,782,782,782,782,782,782,782,782,782,782,782,782,782,782,782,782,782,782,783,788,805,812,816,820,823,827,837,847,858,874,894,937,953,965,977,999,1009,1017,1026,1029,1031,1031,1031,1031,1031,1031,1035,1040,1047,1054,1069,1088],"ymouse":[469,469,469,469,469,469,469,469,469,469,469,469,469,469,469,469,469,469,469,469,469,469,469,469,469,469,469,469,469,469,469,469,469,469,469,469,469,468,460,454,454,454,454,454,454,454,454,454,454,454,454,454,454,454,454,454,454,454,454,454,454,457,478,498,514,527,549,554,554,554,554,554,554,554,554,554,554,554,554,554,554,552,550,547,546,544,543,542,542,542,542,542,542,540,539,535,528,525,521,520,519,519,517,517,517,517,517,516,516,516,516,516,516,516,516,516,516,516,516,516,516,516,516,516,516,516,516,516,516,516,516,516,516,516,511,507,495,490,486,483,481,477,466,453,442,434,423,396,384,373,363,338,325,313,297,287,270,264,263,262,260,255,238,224,203,177,109,39],"timestamp_mouse":[9,20,40,60,81,101,121,140,160,180,202,221,242,260,282,302,320,340,360,380,401,420,440,460,481,501,520,540,560,581,600,621,641,661,680,702,720,740,761,781,801,821,841,861,881,902,922,940,960,980,1000,1020,1041,1061,1082,1100,1121,1140,1161,1182,1201,1222,1240,1260,1281,1301,1321,1341,1361,1380,1400,1421,1442,1460,1481,1501,1520,1540,1560,1580,1601,1622,1641,1661,1680,1702,1720,1740,1761,1781,1801,1822,1841,1861,1882,1900,1921,1941,1960,1981,2001,2020,2041,2061,2081,2100,2122,2140,2162,2182,2200,2221,2241,2261,2280,2302,2321,2342,2361,2380,2400,2422,2441,2460,2481,2502,2520,2543,2562,2580,2602,2621,2641,2662,2681,2702,2720,2741,2761,2781,2801,2820,2841,2861,2881,2901,2920,2940,2961,2981,3001,3022,3040,3062,3080,3101,3121,3140,3160,3182,3202,3221,3240,3261,3280,3300,3320,3341],"xSR":741.5,"ySR":458.25,"xT1":424.9,"yT1":0,"xT2":1058.1,"yT2":0,"toosoon":0,"cond_shown":"Congruent","ratio_trial":200,"L_num":4,"L_den":10,"R_num":3,"R_den":15,"correct_side":1,"subjID":"juanmartinsaavedragaitan6","gender":"1","school":"cafam","age":"11"},{"start_time":1551794036347,"click_time":1551794039597,"finger_time":1551794037897,"fix_duration":589.6492158892547,"trial":13,"RT":1550,"MT":1700,"sideResp":1,"stimulus":[],"xmouse":[791,791,791,791,791,791,791,791,791,791,791,791,791,791,791,791,791,791,791,791,791,791,791,791,791,791,791,791,791,791,791,791,791,791,791,791,791,791,791,791,791,791,791,791,791,791,791,791,791,791,791,791,791,791,791,791,791,791,791,791,791,791,791,791,791,791,791,791,791,791,791,791,791,791,790,773,754,726,684,619,604,596,593,593,593,593,592,591,591,587,584,579,572,566,545,522,512,503,498,495,495,495,495,495,495,495,495,495,494,493,492,491,491,489,488,487,486,486,485,483,482,482,481,481,481,481,481,481,481,481,481,481,481,481,481,481,481,481,482,482,482,482,482,482,482,482,482,482,482,482,483,484,484,485,486,486,486,487,487,488,488,489,489],"ymouse":[503,503,503,503,503,503,503,503,503,503,503,503,503,503,503,503,503,503,503,503,503,503,503,503,503,503,503,503,503,503,503,503,503,503,503,503,503,503,503,503,503,503,503,503,503,503,503,503,503,503,503,503,503,503,503,503,503,503,503,503,503,503,503,503,503,503,503,503,503,503,503,503,503,503,503,486,470,450,419,369,349,330,312,292,253,236,231,228,225,213,204,193,183,172,152,144,141,140,139,139,139,139,139,139,139,139,139,139,138,138,137,136,136,134,131,129,128,126,125,121,119,119,119,118,118,118,118,118,118,118,118,117,117,116,115,114,112,111,110,110,110,110,110,110,110,110,109,108,108,108,108,107,106,106,105,105,105,103,102,100,100,100,99],"timestamp_mouse":[10,38,50,70,89,111,131,150,170,189,210,230,249,270,291,311,331,350,371,391,410,429,450,471,491,510,530,551,571,591,610,629,649,671,689,709,730,750,770,791,809,829,850,871,890,909,930,949,970,991,1010,1030,1050,1069,1090,1109,1131,1149,1171,1190,1210,1230,1250,1270,1290,1309,1331,1350,1369,1390,1411,1429,1450,1471,1490,1510,1530,1550,1571,1590,1609,1630,1651,1670,1690,1709,1729,1750,1769,1790,1809,1830,1851,1870,1891,1910,1929,1951,1971,1990,2011,2030,2050,2070,2089,2110,2131,2150,2169,2190,2209,2230,2250,2269,2289,2309,2330,2351,2369,2390,2410,2431,2451,2470,2491,2509,2530,2549,2570,2590,2609,2630,2649,2670,2690,2711,2730,2749,2771,2790,2810,2831,2851,2870,2890,2910,2929,2951,2970,2990,3009,3030,3050,3070,3090,3109,3129,3149,3170,3190,3209,3231,3250],"xSR":741.5,"ySR":458.25,"xT1":424.9,"yT1":0,"xT2":1058.1,"yT2":0,"toosoon":0,"cond_shown":"Incongruent","ratio_trial":300,"L_num":13,"L_den":26,"R_num":12,"R_den":15,"correct_side":2,"subjID":"juanmartinsaavedragaitan6","gender":"1","school":"cafam","age":"11"},{"start_time":1551794081328,"click_time":1551794083038,"finger_time":1551794082717,"fix_duration":250,"trial":14,"RT":1389,"MT":321,"sideResp":1,"stimulus":[],"xmouse":[781,781,781,781,781,782,782,783,783,783,783,783,783,783,783,783,783,783,783,783,783,783,783,783,783,783,783,783,783,783,783,783,783,783,783,783,783,783,783,783,783,783,783,783,783,783,783,783,783,783,783,783,783,783,783,783,783,783,783,783,783,783,783,783,783,783,783,778,761,741,694,673,656,644,635,623,606,595,589,588,593,593,584,570,550,517],"ymouse":[513,513,513,513,513,514,514,513,512,512,512,512,512,512,512,512,512,512,512,512,512,512,512,512,512,512,512,512,512,512,512,512,512,512,512,512,512,512,512,512,512,512,512,512,512,512,512,512,512,512,512,512,512,512,512,512,512,512,512,512,512,512,512,512,512,512,512,511,495,472,432,417,406,396,389,375,355,340,322,301,249,220,189,144,114,52],"timestamp_mouse":[9,41,50,68,88,109,128,148,168,189,209,229,249,268,288,309,328,348,368,388,409,428,448,469,489,508,529,548,569,588,609,629,649,668,689,709,729,749,768,789,809,829,848,868,890,908,928,948,968,989,1008,1028,1048,1069,1089,1109,1128,1149,1168,1189,1208,1228,1248,1268,1288,1308,1328,1348,1368,1389,1408,1428,1448,1468,1489,1508,1529,1548,1569,1588,1609,1628,1648,1669,1688,1709],"xSR":741.5,"ySR":458.25,"xT1":424.9,"yT1":0,"xT2":1058.1,"yT2":0,"toosoon":0,"cond_shown":"Congruent","ratio_trial":100,"L_num":1,"L_den":2,"R_num":18,"R_den":30,"correct_side":2,"subjID":"juanmartinsaavedragaitan6","gender":"1","school":"cafam","age":"11"},{"start_time":1551794084784,"click_time":1551794088236,"finger_time":1551794087736,"fix_duration":405.18219326793945,"trial":15,"RT":2952,"MT":500,"sideResp":2,"stimulus":[],"xmouse":[770,770,770,770,770,770,770,770,770,770,770,770,770,770,770,770,770,770,770,770,770,770,770,770,770,770,770,770,770,770,770,770,770,770,770,770,770,770,770,770,770,770,770,770,770,770,770,770,770,770,770,770,770,770,770,770,770,770,770,770,770,770,770,770,770,770,770,770,770,770,770,770,770,770,770,770,770,770,770,770,770,770,770,770,770,770,770,770,770,770,770,770,770,770,770,770,770,770,770,770,770,770,770,770,770,770,770,770,770,770,770,770,770,770,770,770,769,764,762,760,758,757,756,755,755,755,755,755,755,755,755,755,755,755,755,755,755,755,755,755,755,755,755,758,761,763,766,780,787,793,805,820,848,863,872,882,889,908,921,940,960,981,998,1022,1025,1027,1030,1040,1046,1052,1057,1062,1075],"ymouse":[509,509,509,509,509,509,509,509,509,509,509,509,509,509,509,509,509,509,509,509,509,509,509,509,509,509,509,509,509,509,509,509,509,509,509,509,509,509,509,509,509,509,509,509,509,509,509,509,509,509,509,509,509,509,509,509,509,509,509,509,509,509,509,509,509,509,509,509,509,509,509,509,509,509,509,509,509,509,509,509,509,509,509,509,509,509,509,509,509,509,509,509,509,509,509,509,509,509,509,509,509,509,509,509,509,509,509,509,509,509,509,509,509,509,509,508,506,499,496,494,491,489,488,487,487,487,487,487,487,487,487,487,487,487,487,487,487,487,487,487,487,487,487,482,476,471,463,442,432,423,410,398,373,360,351,343,337,320,309,296,283,268,258,238,235,231,225,206,191,175,154,134,91],"timestamp_mouse":[13,33,53,72,93,112,132,153,173,193,212,232,253,273,293,312,332,352,372,393,412,432,453,472,493,512,533,553,572,593,613,632,653,673,692,712,733,753,773,793,813,832,853,872,892,912,932,952,972,992,1012,1032,1052,1072,1093,1113,1132,1152,1172,1192,1212,1233,1252,1273,1292,1313,1333,1352,1372,1392,1412,1433,1452,1472,1493,1512,1532,1553,1572,1592,1612,1632,1653,1672,1692,1713,1733,1753,1773,1793,1813,1833,1853,1872,1893,1913,1933,1953,1973,1992,2012,2032,2053,2073,2093,2113,2133,2152,2173,2192,2212,2233,2252,2273,2292,2313,2333,2352,2372,2392,2412,2433,2452,2472,2494,2513,2532,2553,2572,2592,2613,2632,2653,2672,2692,2712,2732,2752,2772,2792,2813,2833,2852,2872,2892,2912,2932,2952,2972,2992,3013,3032,3053,3073,3092,3112,3133,3152,3172,3192,3213,3232,3253,3273,3292,3312,3332,3352,3372,3392,3412,3432,3452],"xSR":741.5,"ySR":458.25,"xT1":424.9,"yT1":0,"xT2":1058.1,"yT2":0,"toosoon":0,"cond_shown":"Congruent","ratio_trial":100,"L_num":11,"L_den":22,"R_num":6,"R_den":15,"correct_side":1,"subjID":"juanmartinsaavedragaitan6","gender":"1","school":"cafam","age":"11"},{"start_time":1551794089905,"click_time":1551794092956,"finger_time":1551794092036,"fix_duration":327.1104891804928,"trial":16,"RT":2131,"MT":920,"sideResp":2,"stimulus":[],"xmouse":[790,790,790,790,790,790,790,790,790,790,790,790,790,790,790,790,790,790,790,790,790,790,790,790,790,790,790,790,790,790,790,790,790,790,790,790,790,790,790,790,790,790,790,790,790,790,790,790,790,790,790,790,790,790,790,790,790,790,790,790,790,790,790,790,790,790,790,790,790,790,790,790,790,790,790,790,790,790,790,790,790,790,790,790,790,790,790,790,790,790,790,790,790,790,790,790,790,790,790,790,795,823,824,824,824,826,836,841,843,846,849,855,864,877,881,883,885,885,887,889,892,900,906,913,920,928,937,950,967,1015,1053,1066,1068,1069,1069,1069,1071,1072,1073,1073,1075,1079,1082,1086,1089,1093,1097,1097,1097,1097,1097,1096,1093],"ymouse":[508,508,508,508,508,508,508,508,508,508,508,508,508,508,508,508,508,508,508,508,508,508,508,508,508,508,508,508,508,508,508,508,508,508,508,508,508,508,508,508,508,508,508,508,508,508,508,508,508,508,508,508,508,508,508,508,508,508,508,508,508,508,508,508,508,508,508,508,508,508,508,508,508,508,508,508,508,508,508,508,508,508,508,508,508,508,508,508,508,508,508,508,508,508,508,508,508,508,508,508,504,488,487,484,476,466,439,425,417,408,401,389,377,363,358,354,350,348,345,342,339,328,320,311,301,292,281,268,252,213,187,177,175,174,173,173,171,169,168,166,163,155,147,138,130,122,113,112,112,111,108,101,96],"timestamp_mouse":[21,38,52,72,91,111,132,151,171,191,211,232,251,271,292,312,331,351,371,392,411,432,451,471,491,511,531,551,572,592,612,632,652,672,691,711,732,751,771,792,812,832,851,871,891,912,932,951,972,991,1011,1031,1051,1072,1092,1112,1132,1151,1171,1191,1213,1231,1252,1271,1291,1311,1332,1351,1371,1391,1412,1431,1451,1471,1492,1512,1531,1551,1571,1592,1612,1631,1652,1671,1692,1711,1732,1751,1771,1791,1812,1832,1851,1871,1892,1912,1932,1951,1972,1992,2011,2031,2052,2071,2091,2111,2131,2151,2171,2192,2212,2231,2251,2271,2291,2311,2331,2352,2371,2392,2411,2432,2450,2471,2491,2511,2531,2551,2571,2591,2612,2631,2651,2671,2691,2711,2732,2752,2771,2791,2811,2831,2851,2872,2891,2911,2931,2951,2971,2991,3012,3031,3051],"xSR":741.5,"ySR":458.25,"xT1":424.9,"yT1":0,"xT2":1058.1,"yT2":0,"toosoon":0,"cond_shown":"Incongruent","ratio_trial":300,"L_num":7,"L_den":10,"R_num":8,"R_den":20,"correct_side":1,"subjID":"juanmartinsaavedragaitan6","gender":"1","school":"cafam","age":"11"},{"start_time":1551794098143,"click_time":1551794102076,"finger_time":1551794101536,"fix_duration":1185.2414746000084,"trial":17,"RT":3393,"MT":540,"sideResp":2,"stimulus":[],"xmouse":[762,762,762,762,762,762,762,762,762,762,762,762,762,762,762,762,762,762,762,762,762,762,762,762,762,762,762,762,762,762,762,762,762,762,762,762,762,762,762,762,762,762,762,762,762,762,762,762,762,762,762,762,762,762,762,762,762,762,762,762,762,762,762,762,762,762,762,762,762,762,762,762,762,762,762,762,762,762,762,760,759,759,759,759,759,759,759,759,759,759,759,759,759,759,759,759,759,759,759,759,759,759,759,759,759,759,759,759,759,759,759,759,759,759,759,759,759,759,759,759,759,759,759,759,759,759,759,759,759,759,759,759,759,759,759,759,759,759,759,759,759,759,759,759,759,759,759,759,759,759,759,759,759,759,759,759,759,759,759,759,759,759,759,759,760,777,792,812,834,852,858,860,863,867,878,887,893,900,910,931,941,953,960,968,973,974,976,978,979,984,990,994,1001,1010,1028,1048,1061],"ymouse":[519,519,519,519,519,519,519,519,519,519,519,519,519,519,519,519,519,519,519,519,519,519,519,519,519,519,519,519,519,519,519,519,519,519,519,519,519,519,519,519,519,519,519,519,519,519,519,519,519,519,519,519,519,519,519,519,519,519,519,519,519,519,519,519,519,519,519,519,519,519,519,519,519,519,519,519,519,519,519,520,521,521,521,521,521,521,521,521,521,521,521,521,521,521,521,521,521,521,521,521,521,521,521,521,521,521,521,521,521,521,521,521,521,521,521,521,521,521,521,521,521,521,521,521,521,521,521,521,521,521,521,521,521,521,521,521,521,521,521,521,521,521,521,521,521,521,521,521,521,521,521,521,521,521,521,521,521,521,521,521,521,521,521,521,522,505,492,481,470,462,456,452,447,443,430,416,403,387,369,324,300,271,244,218,175,155,147,144,142,136,129,124,115,106,85,69,60],"timestamp_mouse":[13,40,53,74,93,114,134,154,174,193,213,233,254,274,293,314,334,353,374,393,413,433,453,473,494,514,533,553,574,593,614,633,654,674,693,713,733,753,774,793,813,833,853,874,894,914,934,953,974,993,1013,1033,1053,1073,1094,1114,1133,1153,1174,1194,1213,1233,1253,1273,1294,1313,1333,1353,1373,1393,1414,1434,1453,1473,1493,1513,1533,1554,1573,1593,1614,1633,1653,1673,1694,1713,1733,1754,1773,1793,1813,1833,1854,1873,1893,1914,1933,1953,1973,1994,2014,2033,2054,2074,2093,2113,2133,2153,2174,2193,2213,2233,2253,2274,2293,2313,2334,2353,2373,2393,2413,2433,2453,2473,2493,2513,2534,2553,2573,2593,2613,2634,2653,2673,2694,2713,2734,2754,2773,2794,2813,2834,2854,2874,2894,2914,2933,2954,2973,2993,3013,3034,3053,3074,3093,3114,3133,3153,3174,3194,3213,3234,3253,3274,3294,3313,3333,3353,3374,3393,3413,3434,3453,3473,3493,3513,3533,3554,3573,3593,3613,3633,3654,3674,3694,3714,3733,3753,3773,3793,3813,3833,3853,3873,3893,3913,3933],"xSR":741.5,"ySR":458.25,"xT1":424.9,"yT1":0,"xT2":1058.1,"yT2":0,"toosoon":0,"cond_shown":"Congruent","ratio_trial":100,"L_num":1,"L_den":2,"R_num":18,"R_den":30,"correct_side":2,"subjID":"juanmartinsaavedragaitan6","gender":"1","school":"cafam","age":"11"},{"start_time":1551794104483,"click_time":1551794107237,"finger_time":1551794106696,"fix_duration":804.0145939442954,"trial":18,"RT":2213,"MT":541,"sideResp":1,"stimulus":[],"xmouse":[818,818,818,818,818,818,818,818,818,818,818,818,818,818,818,818,818,818,818,818,818,818,818,818,818,818,818,818,818,818,818,818,818,818,818,818,818,818,818,818,818,818,818,818,818,818,818,818,818,818,818,818,818,818,818,818,818,818,818,818,818,818,818,818,818,818,818,818,818,818,818,818,818,818,818,818,818,818,818,818,818,818,818,818,818,818,818,818,818,818,818,818,818,818,818,818,818,818,818,818,817,816,810,808,807,807,804,790,772,756,736,718,688,676,663,652,641,627,621,617,615,611,589,581,579,577,577,577,568,557,547,541,536,535,533,533,529,514],"ymouse":[519,519,519,519,519,519,519,519,519,519,519,519,519,519,519,519,519,519,519,519,519,519,519,519,519,519,519,519,519,519,519,519,519,519,519,519,519,519,519,519,519,519,519,519,519,519,519,519,519,519,519,519,519,519,519,519,519,519,519,519,519,519,519,519,519,519,519,519,519,519,519,519,519,519,519,519,519,519,519,519,519,519,519,519,519,519,519,519,519,519,519,519,519,519,519,519,519,519,519,519,519,519,518,517,516,515,511,499,486,475,461,448,416,390,358,324,295,243,209,190,174,156,125,119,118,118,118,118,118,119,120,121,121,121,121,121,119,98],"timestamp_mouse":[14,37,54,73,93,113,133,153,173,193,214,233,253,274,293,314,334,353,373,393,413,434,454,473,493,513,533,553,573,594,614,633,653,673,693,714,734,753,773,794,813,834,853,873,893,913,933,954,973,994,1013,1033,1053,1074,1094,1113,1134,1153,1174,1193,1213,1234,1254,1274,1293,1313,1334,1354,1374,1393,1414,1433,1454,1474,1493,1514,1533,1553,1573,1593,1614,1633,1654,1674,1693,1713,1734,1754,1773,1793,1814,1834,1854,1874,1894,1913,1934,1954,1974,1993,2013,2033,2053,2073,2094,2113,2133,2153,2173,2193,2213,2233,2253,2272,2293,2313,2333,2353,2374,2393,2413,2433,2453,2473,2493,2514,2534,2553,2574,2593,2613,2633,2653,2672,2693,2713,2734,2753],"xSR":741.5,"ySR":458.25,"xT1":424.9,"yT1":0,"xT2":1058.1,"yT2":0,"toosoon":0,"cond_shown":"Incongruent","ratio_trial":200,"L_num":4,"L_den":30,"R_num":1,"R_den":3,"correct_side":2,"subjID":"juanmartinsaavedragaitan6","gender":"1","school":"cafam","age":"11"},{"start_time":1551794112014,"click_time":1551794113216,"finger_time":1551794113036,"fix_duration":1075.5605069082378,"trial":19,"RT":1022,"MT":180,"sideResp":2,"stimulus":[],"xmouse":[776,776,776,776,776,776,776,776,776,776,776,776,776,776,776,776,776,776,776,776,776,776,776,776,776,776,776,776,776,776,776,776,776,776,776,776,776,776,776,776,776,776,776,776,776,776,784,792,797,799,799,801,815,830,846,863,913,958,1010,1056,1086],"ymouse":[498,498,498,498,498,498,498,498,498,498,498,498,498,498,498,498,498,498,498,498,498,498,498,498,498,498,498,498,498,498,498,498,498,498,498,498,498,498,498,498,498,498,498,498,498,498,495,490,486,484,479,451,430,412,393,370,292,226,160,109,72],"timestamp_mouse":[10,36,42,63,82,103,123,142,163,183,202,222,242,263,282,303,322,343,363,382,403,423,443,462,482,503,522,542,563,582,603,622,642,662,684,702,723,742,762,783,802,822,843,863,883,903,922,942,962,982,1002,1022,1042,1062,1082,1102,1122,1142,1162,1182,1202],"xSR":741.5,"ySR":458.25,"xT1":424.9,"yT1":0,"xT2":1058.1,"yT2":0,"toosoon":0,"cond_shown":"Incongruent","ratio_trial":300,"L_num":3,"L_den":6,"R_num":4,"R_den":20,"correct_side":1,"subjID":"juanmartinsaavedragaitan6","gender":"1","school":"cafam","age":"11"},{"start_time":1551794115334,"click_time":1551794120477,"finger_time":1551794115857,"fix_duration":1295.3617604513017,"trial":20,"RT":523,"MT":4620,"sideResp":2,"stimulus":[],"xmouse":[807,807,807,806,806,805,805,805,805,805,805,805,805,805,805,805,801,801,799,799,793,790,787,785,782,771,760,753,741,732,723,720,718,717,717,717,717,717,717,717,717,717,717,717,717,717,722,726,731,735,738,742,747,756,766,786,790,790,790,790,790,790,790,790,790,790,790,790,790,790,790,790,790,790,790,790,790,790,790,790,790,790,790,790,790,790,790,790,790,790,790,790,790,790,790,790,790,790,790,790,790,790,790,790,790,790,790,790,790,790,790,790,790,790,790,790,790,790,790,790,790,790,790,787,785,782,782,782,782,782,782,782,781,779,778,774,770,768,765,761,755,755,754,753,753,747,740,734,729,726,723,723,723,723,723,723,723,722,722,722,720,719,717,715,713,708,706,704,702,700,699,695,694,692,690,686,681,677,673,672,668,668,668,677,690,758,836,891,942,989,1038,1041,1040,1028,1008,893,724,576,428,313,182,174,174,185,219,440,540,643,733,801,838,864,865,865,865,865,865,855,831,778,643,583,546,518,503,488,480,472,465,460,457,457,457,458,462,508,609,728,866,1030,1175,1362,1410,1428,1434,1434,1434,1434,1434,1434,1421,1400,1369,1319,1268,1192,1164,1158],"ymouse":[516,516,516,517,518,518,518,518,518,518,518,518,518,518,518,518,518,518,516,515,508,503,499,496,490,472,456,445,431,417,405,400,398,397,397,397,397,397,397,397,397,397,397,397,397,402,412,419,426,433,439,444,449,462,473,501,509,511,512,512,512,512,512,512,512,512,512,512,512,512,512,512,512,512,512,512,512,512,512,512,512,512,512,512,512,512,512,512,512,512,512,512,512,512,512,512,512,512,512,512,512,512,512,512,512,512,512,512,512,512,512,512,512,512,512,512,512,512,512,512,512,512,512,511,510,507,507,507,507,507,507,507,506,505,503,499,495,491,486,482,475,474,473,472,471,462,455,448,443,439,435,434,434,434,434,434,434,433,433,433,429,428,426,424,421,415,411,409,406,404,403,398,397,395,393,388,380,375,370,367,356,348,337,321,300,255,228,224,228,249,295,315,333,352,370,402,406,390,353,310,236,226,221,215,207,204,204,219,232,240,247,249,249,249,249,249,252,257,268,285,311,319,323,324,325,326,327,327,327,327,327,327,327,327,325,304,273,240,202,159,122,51,26,14,8,8,8,8,8,8,8,9,9,12,17,25,29,30],"timestamp_mouse":[10,37,43,62,82,102,123,142,162,183,202,223,243,263,282,302,323,342,362,382,402,422,443,463,483,502,523,542,563,582,602,622,642,662,683,702,723,742,763,782,803,822,842,863,883,902,922,942,962,983,1003,1022,1042,1063,1083,1102,1123,1142,1163,1183,1202,1223,1242,1262,1282,1302,1323,1342,1362,1383,1402,1423,1443,1462,1482,1502,1523,1543,1562,1583,1602,1623,1643,1663,1683,1703,1724,1742,1762,1782,1802,1823,1842,1862,1882,1902,1923,1943,1962,1983,2002,2023,2043,2063,2082,2103,2122,2143,2163,2183,2202,2222,2242,2263,2283,2303,2322,2342,2363,2382,2403,2422,2442,2462,2482,2502,2523,2543,2563,2582,2603,2622,2643,2662,2683,2702,2723,2742,2763,2782,2801,2822,2842,2862,2883,2902,2923,2942,2962,2983,3002,3022,3042,3062,3084,3102,3122,3143,3162,3182,3202,3221,3243,3263,3282,3303,3323,3342,3363,3382,3402,3422,3443,3462,3482,3502,3523,3542,3562,3583,3602,3622,3642,3662,3683,3702,3722,3742,3763,3782,3803,3821,3842,3863,3883,3902,3922,3942,3962,3982,4002,4022,4043,4063,4082,4102,4122,4142,4162,4183,4202,4222,4243,4262,4283,4302,4323,4342,4362,4382,4402,4422,4443,4463,4483,4503,4523,4542,4563,4583,4602,4621,4642,4662,4683,4702,4722,4742,4763,4782,4802,4822,4842,4863,4883,4903,4923,4943,4962,4982,5003,5022,5043,5063,5082,5102,5123,5143],"xSR":741.5,"ySR":458.25,"xT1":424.9,"yT1":0,"xT2":1058.1,"yT2":0,"toosoon":0,"cond_shown":"Incongruent","ratio_trial":200,"L_num":7,"L_den":10,"R_num":14,"R_den":28,"correct_side":1,"subjID":"juanmartinsaavedragaitan6","gender":"1","school":"cafam","age":"11"},{"start_time":1551794121608,"click_time":1551794122756,"finger_time":1551794122236,"fix_duration":250,"trial":21,"RT":628,"MT":520,"sideResp":1,"stimulus":[],"xmouse":[803,803,803,803,803,803,803,803,803,803,803,803,803,803,803,803,803,803,803,803,803,803,803,803,803,803,803,801,798,789,777,738,720,701,683,672,656,645,645,645,645,645,645,645,645,645,645,645,645,645,547,545,543,543,542,541,533,521],"ymouse":[494,494,494,494,494,494,494,495,495,496,497,497,497,497,497,497,497,497,497,497,497,497,497,497,497,497,497,495,490,481,466,410,367,300,219,135,44,5,5,5,5,5,5,5,5,5,5,5,5,5,1,8,13,13,14,14,16,19],"timestamp_mouse":[8,35,48,69,88,108,129,149,168,188,209,229,248,269,288,310,328,349,369,388,409,428,449,469,489,508,528,548,568,589,609,628,648,668,688,708,729,747,769,788,808,828,849,868,889,908,929,949,968,989,1009,1029,1048,1069,1088,1109,1127,1148],"xSR":741.5,"ySR":458.25,"xT1":424.9,"yT1":0,"xT2":1058.1,"yT2":0,"toosoon":0,"cond_shown":"Congruent","ratio_trial":100,"L_num":7,"L_den":14,"R_num":15,"R_den":25,"correct_side":2,"subjID":"juanmartinsaavedragaitan6","gender":"1","school":"cafam","age":"11"},{"start_time":1551794124644,"click_time":1551794126656,"finger_time":1551794126177,"fix_duration":366.67656787565807,"trial":22,"RT":1533,"MT":479,"sideResp":2,"stimulus":[],"xmouse":[790,790,790,790,790,790,790,790,790,790,790,790,790,790,790,790,790,790,790,790,790,790,790,790,790,790,790,790,790,790,790,790,790,790,790,789,788,787,787,785,784,783,783,781,776,771,768,766,766,766,766,766,766,766,766,766,766,766,766,766,766,766,766,766,766,766,765,765,768,773,774,778,780,788,818,837,851,863,867,887,906,922,936,949,968,973,977,979,981,985,985,986,986,986,987,992,997,1013,1032,1066,1087],"ymouse":[541,541,541,541,541,541,541,541,541,541,541,541,541,541,541,541,541,541,541,541,541,541,541,541,541,541,541,541,541,541,541,541,541,541,539,534,531,529,527,525,523,522,520,516,510,505,502,501,500,500,500,500,500,500,500,500,500,500,500,500,500,500,500,500,500,500,500,499,499,499,498,497,496,494,486,478,467,455,443,404,370,346,322,296,246,226,207,189,172,144,131,128,127,127,126,123,120,114,109,100,97],"timestamp_mouse":[12,40,52,72,92,113,132,152,172,193,213,233,252,273,292,312,333,352,372,392,413,433,452,472,493,512,532,552,572,592,612,632,652,672,692,712,733,753,772,793,812,832,853,872,892,912,932,952,973,992,1012,1032,1052,1072,1092,1113,1132,1152,1172,1192,1212,1232,1253,1272,1292,1313,1332,1352,1373,1392,1413,1432,1452,1472,1492,1512,1533,1552,1572,1593,1612,1632,1652,1672,1692,1712,1733,1752,1772,1792,1811,1832,1852,1872,1892,1912,1932,1952,1973,1992,2012],"xSR":741.5,"ySR":458.25,"xT1":424.9,"yT1":0,"xT2":1058.1,"yT2":0,"toosoon":0,"cond_shown":"Incongruent","ratio_trial":100,"L_num":13,"L_den":26,"R_num":12,"R_den":20,"correct_side":2,"subjID":"juanmartinsaavedragaitan6","gender":"1","school":"cafam","age":"11"},{"start_time":1551794128232,"click_time":1551794130116,"finger_time":1551794129597,"fix_duration":294.67250117249046,"trial":23,"RT":1365,"MT":519,"sideResp":2,"stimulus":[],"xmouse":[775,775,775,775,775,775,775,775,775,775,775,775,775,775,775,775,775,775,775,775,775,775,775,775,775,775,775,775,775,775,775,775,775,775,775,775,775,775,775,775,775,775,775,775,775,775,775,775,775,775,775,775,775,775,775,775,775,775,775,775,775,775,775,777,781,792,801,814,827,843,864,884,899,911,928,959,972,979,982,984,991,996,1000,1000,1000,1000,1000,1001,1004,1007,1014,1023,1034,1045,1059],"ymouse":[525,525,525,525,525,525,525,525,525,525,525,525,525,525,525,525,525,525,525,525,525,525,525,525,525,525,525,525,525,525,525,525,525,525,525,525,525,525,525,525,525,525,525,525,525,525,525,525,525,525,525,525,525,525,525,525,525,525,525,525,525,525,525,524,520,505,490,473,456,442,414,388,367,350,330,291,271,257,242,224,181,160,148,142,138,133,132,132,128,126,121,111,101,90,76],"timestamp_mouse":[11,37,44,64,84,105,124,146,164,184,204,224,244,264,284,305,324,344,365,385,404,424,444,464,484,504,524,544,564,585,604,624,645,665,684,704,724,744,764,785,805,824,845,865,885,904,924,944,966,985,1004,1025,1045,1065,1085,1104,1124,1144,1165,1184,1204,1225,1244,1265,1284,1305,1324,1345,1365,1384,1404,1424,1444,1464,1484,1504,1524,1545,1564,1584,1605,1624,1644,1665,1684,1705,1723,1744,1764,1785,1804,1824,1844,1864,1884],"xSR":741.5,"ySR":458.25,"xT1":424.9,"yT1":0,"xT2":1058.1,"yT2":0,"toosoon":0,"cond_shown":"Incongruent","ratio_trial":100,"L_num":13,"L_den":26,"R_num":6,"R_den":10,"correct_side":2,"subjID":"juanmartinsaavedragaitan6","gender":"1","school":"cafam","age":"11"},{"start_time":1551794131827,"click_time":1551794134197,"finger_time":1551794133756,"fix_duration":787.8221049896083,"trial":24,"RT":1929,"MT":441,"sideResp":2,"stimulus":[],"xmouse":[769,769,769,769,769,769,769,769,769,769,769,769,769,769,769,769,769,769,769,769,769,769,769,769,769,769,769,769,769,769,769,769,769,769,769,769,769,769,769,769,769,769,769,769,769,769,769,769,769,769,769,769,769,769,769,769,769,769,769,769,769,769,769,769,769,769,769,769,769,769,769,769,769,769,769,769,769,769,769,769,769,769,769,769,769,770,778,791,801,807,814,817,821,825,828,838,843,848,854,864,889,916,935,953,972,1005,1019,1033,1044,1052,1062,1064,1064,1064,1060,1057,1057,1058,1060],"ymouse":[489,489,489,489,489,489,489,489,489,489,489,489,489,489,489,489,489,489,489,489,489,489,489,489,489,489,489,489,489,489,489,489,489,489,489,489,489,489,489,489,489,489,489,489,489,489,489,489,489,489,489,489,489,489,489,489,489,489,489,489,489,489,489,489,489,489,489,489,489,489,489,489,489,489,489,489,489,489,489,489,489,489,489,489,489,490,490,490,488,487,484,482,479,476,473,465,460,456,448,437,409,383,365,343,320,275,255,234,214,193,161,146,139,130,119,99,91,85,81],"timestamp_mouse":[10,42,50,70,90,110,129,149,169,190,209,229,249,269,289,309,329,349,369,390,410,429,449,469,489,510,530,549,569,589,609,630,650,670,690,709,730,749,770,790,810,829,849,870,890,909,929,949,970,990,1010,1029,1049,1070,1089,1109,1129,1150,1169,1189,1209,1229,1249,1270,1290,1309,1330,1350,1370,1390,1410,1429,1449,1469,1490,1509,1530,1549,1570,1589,1610,1630,1650,1670,1690,1710,1729,1749,1770,1790,1809,1830,1849,1869,1889,1909,1929,1949,1969,1989,2009,2030,2049,2069,2089,2109,2129,2149,2170,2189,2209,2228,2249,2269,2289,2309,2329,2349,2370],"xSR":741.5,"ySR":458.25,"xT1":424.9,"yT1":0,"xT2":1058.1,"yT2":0,"toosoon":0,"cond_shown":"Congruent","ratio_trial":300,"L_num":1,"L_den":5,"R_num":3,"R_den":6,"correct_side":2,"subjID":"juanmartinsaavedragaitan6","gender":"1","school":"cafam","age":"11"},{"start_time":1551794136257,"click_time":1551794138476,"finger_time":1551794138096,"fix_duration":779.1440231567472,"trial":25,"RT":1839,"MT":380,"sideResp":1,"stimulus":[],"xmouse":[795,795,795,795,795,795,795,795,795,795,795,795,795,795,795,795,795,795,795,795,795,795,795,795,795,795,795,795,795,795,795,795,795,794,794,794,794,794,794,794,794,794,794,794,794,794,794,794,794,794,793,792,792,791,791,791,791,791,791,791,791,791,791,791,791,791,791,791,791,791,791,791,791,791,791,791,790,790,789,789,788,788,787,787,787,787,787,783,781,773,764,753,738,720,693,686,685,685,684,680,677,672,668,665,661,651,643,630,611,546,498,473],"ymouse":[518,518,518,518,518,518,518,518,518,518,518,518,518,518,518,518,518,518,518,518,518,518,518,518,518,518,518,518,518,518,518,518,518,519,519,519,519,519,519,519,519,519,519,519,519,519,519,519,519,519,519,521,522,524,524,524,524,524,524,524,524,524,524,524,524,524,524,524,524,524,523,523,523,523,523,523,522,522,522,522,522,522,523,523,523,523,523,523,523,519,512,502,488,472,448,443,440,436,428,407,395,382,373,363,350,314,287,254,220,144,101,73],"timestamp_mouse":[1,31,39,60,79,99,120,139,160,180,200,219,239,260,280,300,320,340,360,380,399,419,439,459,479,499,519,540,559,580,599,620,639,660,679,699,720,739,759,779,800,820,839,860,880,899,919,939,959,980,999,1019,1039,1059,1080,1099,1120,1139,1159,1179,1200,1219,1239,1259,1279,1299,1319,1339,1359,1379,1400,1419,1439,1459,1480,1500,1519,1539,1559,1580,1600,1619,1639,1660,1679,1699,1719,1739,1760,1779,1800,1819,1839,1859,1879,1898,1919,1939,1959,1979,1999,2019,2040,2059,2079,2099,2119,2139,2159,2179,2199,2219],"xSR":741.5,"ySR":458.25,"xT1":424.9,"yT1":0,"xT2":1058.1,"yT2":0,"toosoon":0,"cond_shown":"Incongruent","ratio_trial":300,"L_num":13,"L_den":26,"R_num":12,"R_den":15,"correct_side":2,"subjID":"juanmartinsaavedragaitan6","gender":"1","school":"cafam","age":"11"},{"start_time":1551794141788,"click_time":1551794143857,"finger_time":1551794143476,"fix_duration":250,"trial":26,"RT":1688,"MT":381,"sideResp":2,"stimulus":[],"xmouse":[766,766,766,766,766,766,766,766,766,766,766,766,766,766,766,766,766,766,766,766,766,766,766,766,766,766,766,766,766,766,766,766,766,766,766,766,766,766,766,766,766,766,766,766,766,766,766,766,766,766,766,766,766,766,766,766,766,766,766,766,766,766,766,766,766,766,766,766,766,766,766,766,766,766,766,766,766,766,766,766,766,768,769,783,793,803,818,849,866,881,893,904,926,945,959,974,990,1022,1034,1042,1049,1053,1059,1062],"ymouse":[485,485,485,485,485,485,485,485,485,485,485,485,485,485,485,485,485,485,485,485,485,485,485,485,485,485,485,485,485,485,485,485,485,485,485,485,485,485,485,485,485,485,485,485,485,485,485,485,485,485,485,485,485,485,485,485,485,485,485,485,485,485,485,485,485,485,485,485,485,485,485,485,485,485,485,485,485,485,485,485,485,484,483,465,448,432,411,366,341,316,295,274,243,219,202,185,168,142,132,124,117,111,101,95],"timestamp_mouse":[9,35,48,69,90,108,129,150,169,188,210,230,248,270,289,308,330,349,368,389,409,429,450,469,488,508,528,550,570,588,610,628,649,668,689,708,729,749,769,789,809,830,848,868,890,908,928,949,970,989,1010,1029,1049,1068,1088,1110,1128,1148,1170,1189,1208,1230,1249,1269,1289,1309,1330,1348,1370,1388,1409,1428,1450,1469,1490,1509,1528,1549,1570,1588,1609,1629,1649,1668,1688,1708,1728,1749,1768,1789,1809,1828,1848,1868,1888,1908,1929,1949,1968,1990,2009,2029,2048,2068],"xSR":741.5,"ySR":458.25,"xT1":424.9,"yT1":0,"xT2":1058.1,"yT2":0,"toosoon":0,"cond_shown":"Congruent","ratio_trial":300,"L_num":1,"L_den":20,"R_num":7,"R_den":20,"correct_side":2,"subjID":"juanmartinsaavedragaitan6","gender":"1","school":"cafam","age":"11"},{"start_time":1551794145007,"click_time":1551794147356,"finger_time":1551794146876,"fix_duration":250,"trial":27,"RT":1869,"MT":480,"sideResp":2,"stimulus":[],"xmouse":[809,809,809,809,809,809,809,809,809,809,809,809,809,809,809,809,809,809,809,809,809,809,809,809,809,809,809,809,809,809,809,809,809,809,809,809,809,809,809,809,809,809,809,809,809,809,809,809,809,809,809,809,809,809,809,809,809,809,809,809,809,809,809,809,809,809,809,809,809,809,809,809,809,809,809,809,809,809,809,809,809,809,809,809,809,809,809,809,809,809,809,810,829,852,892,940,1026,1060,1095,1136,1182,1254,1273,1276,1278,1281,1286,1287,1287,1287,1287,1287,1254,1237,1219,1204,1172,1157],"ymouse":[493,493,493,493,493,493,493,493,493,493,493,493,493,493,493,493,493,493,493,493,493,493,493,493,493,493,493,493,493,493,493,493,493,493,493,493,493,493,493,493,493,493,493,493,493,493,493,493,493,493,493,493,493,493,493,493,493,493,493,493,493,493,493,493,493,493,493,493,493,493,493,493,493,493,493,493,493,493,493,493,493,493,493,493,493,493,493,493,493,493,493,494,482,468,446,417,355,315,254,191,133,55,33,28,21,15,3,0,0,0,0,0,3,11,19,25,39,44],"timestamp_mouse":[14,44,50,70,89,109,130,150,170,190,209,230,249,270,290,309,330,349,371,390,410,430,450,469,490,509,530,549,570,590,611,629,650,671,691,710,729,750,770,790,811,831,849,871,891,910,930,950,969,990,1010,1031,1049,1070,1089,1109,1131,1151,1169,1190,1211,1229,1249,1270,1289,1310,1331,1350,1370,1389,1411,1429,1450,1470,1490,1509,1530,1549,1570,1590,1609,1630,1650,1670,1690,1709,1731,1750,1770,1791,1810,1829,1850,1869,1890,1909,1929,1950,1970,1990,2009,2030,2050,2069,2089,2110,2130,2149,2169,2189,2211,2230,2249,2269,2290,2311,2330,2349],"xSR":741.5,"ySR":458.25,"xT1":424.9,"yT1":0,"xT2":1058.1,"yT2":0,"toosoon":0,"cond_shown":"Incongruent","ratio_trial":200,"L_num":4,"L_den":5,"R_num":6,"R_den":10,"correct_side":1,"subjID":"juanmartinsaavedragaitan6","gender":"1","school":"cafam","age":"11"},{"start_time":1551794149373,"click_time":1551794150038,"finger_time":1551794149756,"fix_duration":856.2327427080129,"trial":28,"RT":383,"MT":282,"sideResp":2,"stimulus":[],"xmouse":[759,759,759,759,759,759,759,759,759,759,759,759,759,759,759,759,760,762,769,787,793,798,802,817,841,863,896,923,981,1010,1032,1048,1056,1067],"ymouse":[493,493,493,493,493,493,493,493,493,493,493,493,493,493,493,493,491,485,478,454,440,426,410,374,335,307,269,241,181,150,124,102,88,63],"timestamp_mouse":[10,34,45,64,83,103,125,143,163,184,203,225,243,265,284,303,324,345,364,383,404,423,444,463,483,503,525,543,563,583,604,624,644,665],"xSR":741.5,"ySR":458.25,"xT1":424.9,"yT1":0,"xT2":1058.1,"yT2":0,"toosoon":0,"cond_shown":"Incongruent","ratio_trial":100,"L_num":12,"L_den":24,"R_num":9,"R_den":15,"correct_side":2,"subjID":"juanmartinsaavedragaitan6","gender":"1","school":"cafam","age":"11"},{"start_time":1551794153755,"click_time":1551794155457,"finger_time":1551794154537,"fix_duration":1437.2984497326845,"trial":29,"RT":782,"MT":920,"sideResp":2,"stimulus":[],"xmouse":[798,798,798,798,798,798,798,798,798,798,798,798,798,798,798,798,798,798,798,798,798,798,798,798,798,798,798,798,798,798,798,798,798,798,802,811,821,828,837,857,867,874,880,887,894,897,899,900,902,913,920,927,936,946,964,973,988,997,1009,1022,1024,1027,1032,1037,1045,1047,1047,1047,1048,1050,1052,1054,1055,1055,1055,1055,1055,1055,1055,1055,1055,1055,1055,1055,1056,1059],"ymouse":[502,502,502,502,502,502,502,502,502,502,502,502,502,502,502,502,502,502,502,502,502,502,502,502,502,502,502,502,502,502,502,502,502,502,499,493,484,475,463,434,418,405,390,376,362,357,355,349,343,321,309,297,285,273,251,241,219,201,183,162,157,153,144,134,108,90,80,73,70,65,63,62,61,61,61,61,61,61,61,61,61,61,61,61,61,61],"timestamp_mouse":[8,31,41,63,81,103,121,141,162,181,202,221,242,262,282,302,321,342,362,382,402,423,441,462,482,501,522,542,561,583,602,621,642,661,682,703,721,741,762,782,801,822,841,861,882,901,921,942,961,981,1001,1021,1042,1062,1081,1103,1121,1143,1161,1182,1201,1222,1243,1262,1281,1301,1321,1342,1361,1382,1401,1422,1442,1463,1482,1502,1521,1543,1562,1582,1602,1622,1642,1661,1682,1702],"xSR":741.5,"ySR":458.25,"xT1":424.9,"yT1":0,"xT2":1058.1,"yT2":0,"toosoon":0,"cond_shown":"Congruent","ratio_trial":300,"L_num":11,"L_den":22,"R_num":4,"R_den":20,"correct_side":1,"subjID":"juanmartinsaavedragaitan6","gender":"1","school":"cafam","age":"11"},{"start_time":1551794156630,"click_time":1551794159097,"finger_time":1551794157136,"fix_duration":250,"trial":30,"RT":506,"MT":1961,"sideResp":2,"stimulus":[],"xmouse":[798,798,798,798,798,798,798,798,798,798,798,798,798,798,798,798,798,798,798,801,806,808,810,811,814,824,832,842,851,860,876,881,881,882,882,882,882,882,882,882,882,882,882,882,882,882,882,882,881,878,860,838,821,812,808,805,805,805,805,805,805,805,805,805,805,805,805,805,804,802,787,766,747,721,685,603,576,555,544,539,537,536,534,529,525,518,517,516,515,514,513,512,512,512,512,513,518,522,529,540,579,611,669,691,699,704,705,705,705,705,720,745,817,882,936,998,1010,1023,1034,1043,1076,1097,1119,1138],"ymouse":[484,484,484,484,484,484,484,484,484,484,484,484,484,484,484,484,484,484,484,483,477,473,471,469,466,450,439,426,413,400,377,369,367,367,367,367,367,367,367,367,367,367,367,367,367,367,367,367,368,371,397,429,452,471,485,497,499,499,499,499,499,499,499,499,499,499,499,499,497,494,471,445,422,392,359,293,269,252,241,234,221,214,207,196,189,180,178,174,170,168,163,162,162,162,162,163,170,177,187,203,247,275,323,344,356,367,369,370,370,370,369,360,329,301,270,227,213,199,187,175,139,118,100,83],"timestamp_mouse":[10,40,47,68,86,106,127,146,168,187,206,226,248,267,286,306,327,346,366,387,406,426,446,466,487,506,526,548,566,586,607,626,646,667,687,706,727,747,767,787,807,826,847,868,888,907,927,948,967,986,1008,1026,1046,1067,1087,1107,1126,1146,1168,1186,1207,1226,1248,1267,1286,1307,1328,1346,1366,1388,1407,1427,1447,1467,1487,1507,1526,1546,1567,1587,1608,1626,1646,1667,1686,1706,1727,1747,1767,1786,1807,1827,1847,1866,1887,1907,1926,1947,1967,1986,2007,2028,2046,2067,2087,2107,2126,2147,2167,2187,2206,2227,2246,2266,2287,2307,2326,2346,2367,2387,2407,2426,2446,2467],"xSR":741.5,"ySR":458.25,"xT1":424.9,"yT1":0,"xT2":1058.1,"yT2":0,"toosoon":0,"cond_shown":"Congruent","ratio_trial":100,"L_num":8,"L_den":16,"R_num":2,"R_den":5,"correct_side":1,"subjID":"juanmartinsaavedragaitan6","gender":"1","school":"cafam","age":"11"},{"start_time":1551794160565,"click_time":1551794162017,"finger_time":1551794161577,"fix_duration":686.6379121922646,"trial":31,"RT":1012,"MT":440,"sideResp":2,"stimulus":[],"xmouse":[802,802,802,802,802,802,802,802,802,802,802,802,802,802,802,802,802,802,802,802,802,802,802,802,802,802,802,802,802,802,802,802,802,802,802,802,802,802,802,802,802,802,802,802,804,805,806,808,815,822,832,845,865,906,932,946,954,963,981,989,998,1006,1016,1022,1023,1026,1032,1038,1047,1051,1053,1058,1065],"ymouse":[515,515,515,515,515,515,515,515,515,515,515,515,515,515,515,515,515,515,515,515,515,515,515,515,515,515,515,515,515,515,515,515,515,515,515,515,515,515,515,515,515,515,515,514,512,509,508,504,491,477,458,440,418,377,350,337,325,313,283,268,251,234,219,196,183,161,144,127,105,97,91,79,66],"timestamp_mouse":[13,37,53,72,92,112,132,151,173,191,211,233,252,272,291,312,331,353,371,392,413,431,452,471,492,511,533,551,573,591,612,633,651,672,692,712,732,751,772,791,811,831,852,871,892,912,932,952,972,991,1012,1031,1051,1071,1091,1111,1132,1152,1171,1191,1212,1232,1252,1271,1291,1311,1331,1352,1371,1391,1411,1431,1452],"xSR":741.5,"ySR":458.25,"xT1":424.9,"yT1":0,"xT2":1058.1,"yT2":0,"toosoon":0,"cond_shown":"Incongruent","ratio_trial":200,"L_num":4,"L_den":6,"R_num":14,"R_den":30,"correct_side":1,"subjID":"juanmartinsaavedragaitan6","gender":"1","school":"cafam","age":"11"},{"start_time":1551794163110,"click_time":1551794164176,"finger_time":1551794163737,"fix_duration":250,"trial":32,"RT":627,"MT":439,"sideResp":1,"stimulus":[],"xmouse":[796,796,796,796,796,796,796,796,796,796,796,796,796,796,796,796,796,796,796,796,796,796,796,796,796,796,796,796,796,794,790,770,752,725,691,652,575,539,539,539,539,539,539,539,539,539,539,539,539,539,539,539,539,432],"ymouse":[493,493,493,493,493,493,493,493,493,493,493,493,493,493,493,493,493,493,493,493,493,493,493,493,493,493,493,493,493,492,482,446,420,381,329,260,115,29,29,29,29,29,29,29,29,29,29,29,29,29,29,29,29,16],"timestamp_mouse":[13,27,47,67,86,107,128,147,168,187,208,226,246,268,287,307,327,347,366,387,407,428,447,466,486,508,526,547,567,587,606,627,646,667,687,706,727,746,766,787,806,826,847,866,886,906,926,947,967,987,1006,1026,1047,1066],"xSR":741.5,"ySR":458.25,"xT1":424.9,"yT1":0,"xT2":1058.1,"yT2":0,"toosoon":0,"cond_shown":"Incongruent","ratio_trial":200,"L_num":7,"L_den":10,"R_num":12,"R_den":24,"correct_side":1,"subjID":"juanmartinsaavedragaitan6","gender":"1","school":"cafam","age":"11"},{"start_time":1551794165965,"click_time":1551794169456,"finger_time":1551794166457,"fix_duration":826.8230922356129,"trial":33,"RT":492,"MT":2999,"sideResp":1,"stimulus":[],"xmouse":[795,795,795,795,795,795,795,795,795,795,795,795,795,795,795,795,795,796,796,796,794,789,782,765,752,740,729,714,688,676,673,672,672,672,672,672,672,672,672,672,672,672,673,682,693,701,711,722,749,761,768,770,771,771,771,771,771,771,779,792,816,859,921,1086,1212,1261,1272,1272,1272,1272,1272,1272,1272,1272,1272,1272,1272,1272,1272,1272,1272,1272,1272,1272,1272,1272,1272,1272,1272,1272,1272,1272,1272,1272,1272,1272,1272,1229,1233,1233,1232,1231,1230,1229,1229,1229,1229,1229,1229,1229,1229,1229,1229,1229,1224,1219,1217,1217,1217,1217,1217,1215,1213,1212,1208,1208,1206,1205,1203,1202,1202,1201,1200,1196,1194,1190,1188,1185,1176,1169,1158,1144,1125,1077,1032,999,970,944,866,797,711,616,534,452,432,429,427,424,415,393,388,386,385,387,392,395,395,395,395,395,395,395,396,403,428],"ymouse":[534,534,534,534,534,534,534,534,534,534,534,534,534,534,534,534,534,534,530,526,521,513,501,470,449,433,417,397,361,345,338,337,337,337,337,337,337,337,337,337,337,337,339,357,376,392,408,428,471,489,497,499,500,500,500,500,500,500,496,482,461,424,367,203,83,19,3,3,3,3,3,3,3,3,3,3,3,3,3,3,3,3,3,3,3,3,3,3,3,3,3,3,3,3,3,3,3,2,23,35,48,55,62,68,68,68,68,68,68,68,68,68,68,68,71,74,74,74,74,74,75,77,79,80,85,86,88,90,92,93,93,94,95,98,100,102,103,105,108,111,114,117,122,133,143,148,155,158,169,173,173,172,159,136,129,127,122,117,109,95,91,89,88,85,83,83,83,83,83,83,83,83,83,83,83],"timestamp_mouse":[11,35,52,72,93,113,131,153,171,191,212,232,251,271,292,313,332,351,371,391,411,431,453,471,492,511,532,552,571,591,611,631,652,672,691,713,732,751,771,792,812,831,851,872,892,911,933,951,972,992,1011,1033,1051,1073,1093,1113,1131,1151,1172,1191,1212,1232,1251,1272,1291,1311,1332,1351,1373,1393,1411,1432,1451,1472,1493,1512,1532,1552,1573,1592,1613,1631,1651,1671,1691,1713,1732,1753,1771,1792,1812,1832,1853,1871,1892,1911,1933,1953,1972,1991,2012,2032,2052,2071,2092,2112,2132,2153,2173,2192,2212,2231,2253,2272,2293,2311,2331,2351,2372,2392,2413,2433,2453,2472,2492,2511,2531,2551,2572,2593,2613,2632,2652,2671,2692,2711,2732,2753,2771,2791,2812,2832,2853,2872,2891,2911,2932,2951,2972,2991,3012,3033,3051,3071,3091,3111,3132,3151,3171,3192,3212,3232,3252,3271,3292,3312,3331,3353,3372,3392,3412,3431,3451,3471,3491],"xSR":741.5,"ySR":458.25,"xT1":424.9,"yT1":0,"xT2":1058.1,"yT2":0,"toosoon":0,"cond_shown":"Congruent","ratio_trial":300,"L_num":1,"L_den":3,"R_num":19,"R_den":30,"correct_side":2,"subjID":"juanmartinsaavedragaitan6","gender":"1","school":"cafam","age":"11"},{"start_time":1551794175105,"click_time":1551794176797,"finger_time":1551794176356,"fix_duration":1425.200020215235,"trial":34,"RT":1251,"MT":441,"sideResp":2,"stimulus":[],"xmouse":[813,813,813,813,812,812,810,808,807,807,807,807,807,807,807,807,807,807,807,807,807,807,807,807,807,807,807,807,807,807,807,807,807,807,807,807,807,807,807,807,807,807,807,807,807,807,807,807,807,807,807,807,807,807,807,807,807,807,807,820,825,839,850,869,892,915,954,986,1000,1013,1018,1028,1032,1035,1038,1042,1053,1054,1054,1054,1054,1055,1056,1058,1062],"ymouse":[507,507,507,507,506,503,501,501,501,501,501,501,501,501,501,501,501,501,501,501,501,501,501,501,501,501,501,501,501,501,501,501,501,501,501,501,501,501,501,501,501,501,501,501,501,501,501,501,501,501,501,501,501,501,501,501,501,501,501,493,489,478,463,436,398,358,290,232,197,168,145,106,92,80,67,57,38,34,34,34,34,33,32,31,29],"timestamp_mouse":[12,34,51,71,92,111,131,152,171,192,213,231,251,273,293,311,332,352,372,393,411,433,452,472,493,512,532,551,573,593,611,632,652,672,693,713,731,753,773,792,812,831,851,873,893,911,931,952,972,992,1012,1032,1052,1071,1092,1112,1133,1152,1172,1192,1212,1232,1251,1271,1291,1312,1331,1351,1371,1392,1412,1431,1451,1471,1491,1513,1531,1551,1572,1592,1613,1632,1651,1671,1692],"xSR":741.5,"ySR":458.25,"xT1":424.9,"yT1":0,"xT2":1058.1,"yT2":0,"toosoon":0,"cond_shown":"Congruent","ratio_trial":100,"L_num":7,"L_den":14,"R_num":9,"R_den":15,"correct_side":2,"subjID":"juanmartinsaavedragaitan6","gender":"1","school":"cafam","age":"11"},{"start_time":1551794178684,"click_time":1551794185577,"finger_time":1551794180156,"fix_duration":645.2167406109363,"trial":35,"RT":1472,"MT":5421,"sideResp":2,"stimulus":[],"xmouse":[768,768,768,767,767,767,767,767,767,767,767,767,767,767,767,767,767,767,767,767,767,767,767,767,767,767,767,767,767,767,767,767,767,767,767,767,767,767,767,767,767,767,767,767,767,767,767,767,767,767,767,767,767,767,767,767,769,769,772,773,775,777,781,783,787,789,792,797,799,801,802,804,808,811,815,821,825,841,857,869,880,889,900,905,914,925,935,953,958,961,963,967,973,975,980,984,988,995,998,1000,1002,1004,1006,1007,1009,1010,1011,1012,1014,1016,1017,1018,1022,1023,1023,1023,1024,1025,1025,1025,1025,1026,1026,1027,1027,1027,1027,1029,1031,1032,1034,1035,1037,1038,1039,1039,1039,1040,1040,1041,1041,1041,1042,1042,1043,1043,1043,1045,1045,1046,1047,1047,1048,1049,1050,1051,1052,1053,1053,1053,1053,1053,1054,1055,1055,1056,1056,1056,1057,1057,1058,1058,1058,1058,1058,1058,1058,1059,1059,1059,1059,1059,1059,1059,1059,1059,1059,1059,1059,1059,1059,1059,1059,1059,1059,1059,1059,1059,1059,1059,1059,1059,1059,1060,1060,1060,1060,1060,1060,1060,1060,1060,1060,1060,1060,1060,1060,1060,1060,1060,1060,1060,1060,1060,1060,1060,1060,1060,1060,1060,1060,1060,1060,1060,1060,1060,1060,1060,1060,1060,1060,1060,1060,1060,1060,1060,1060,1060,1060,1060,1060,1060,1060,1060,1060,1060,1060,1060,1060,1060,1060,1060,1060,1060,1060,1060,1060,1060,1060,1060,1060,1060,1060,1060,1060,1060,1060,1060,1060,1060,1060,1060,1060,1060,1060,1060,1060,1060,1060,1060,1060,1060,1060,1060,1060,1060,1060,1060,1060,1060,1060,1060,1060,1060,1060,1060,1060,1060,1060,1060,1060,1060,1060,1060,1060,1060,1060,1060,1060,1060,1060,1060,1060,1060,1060,1060,1060,1060,1060,1060,1060,1060,1060,1060,1060,1060,1060,1060,1060,1060,1060,1060,1060,1060,1060],"ymouse":[495,495,495,497,498,498,498,499,499,499,499,499,499,499,499,499,499,499,499,499,499,499,499,499,499,499,499,499,499,499,499,499,499,499,499,499,499,499,499,499,499,499,499,499,499,499,499,499,499,499,499,499,499,499,499,499,498,497,494,493,492,491,487,484,482,480,478,472,470,468,467,464,460,458,455,450,446,431,416,404,394,385,372,363,351,339,326,305,296,291,287,281,271,264,256,246,237,221,214,208,204,200,194,191,188,185,182,180,173,171,169,166,160,159,157,156,156,155,155,154,154,153,152,151,150,150,149,146,144,142,138,135,133,131,130,129,128,127,127,126,125,125,124,124,123,123,122,120,119,119,118,118,117,115,114,113,112,112,112,112,112,112,111,110,109,109,108,108,106,106,106,106,105,104,104,104,104,104,104,104,104,104,104,104,103,103,103,103,103,103,102,102,102,102,102,102,102,101,101,101,101,101,101,101,101,101,100,100,100,100,100,100,100,100,100,100,100,100,100,100,100,100,100,100,100,100,100,100,100,100,100,100,100,100,100,100,100,100,100,100,100,100,100,100,100,100,100,100,100,100,100,100,100,100,100,100,100,100,100,100,100,100,100,100,100,100,100,100,100,100,100,100,100,100,100,100,100,100,100,100,100,100,100,100,100,100,100,100,100,100,100,100,100,100,100,100,100,100,100,100,100,100,100,100,100,100,100,100,100,100,100,100,100,100,100,100,100,100,100,100,100,100,100,100,100,100,100,100,100,100,100,100,100,100,100,100,100,100,100,100,100,100,100,100,99],"timestamp_mouse":[14,33,54,72,93,113,133,152,172,194,213,234,253,272,294,312,334,352,373,393,413,434,453,472,493,514,533,554,573,593,613,632,652,672,692,713,733,754,774,793,812,833,853,873,893,913,933,953,972,992,1013,1032,1052,1074,1093,1112,1133,1152,1173,1192,1213,1232,1254,1272,1292,1312,1333,1353,1373,1392,1414,1433,1452,1472,1493,1514,1532,1553,1573,1592,1614,1633,1653,1672,1692,1713,1733,1753,1772,1792,1813,1832,1853,1872,1892,1913,1933,1953,1972,1993,2014,2033,2052,2072,2092,2112,2134,2153,2174,2192,2213,2232,2253,2272,2292,2312,2332,2354,2373,2393,2414,2433,2452,2473,2493,2512,2532,2553,2573,2593,2612,2632,2652,2672,2692,2713,2733,2753,2772,2793,2813,2832,2853,2872,2893,2914,2932,2952,2972,2992,3013,3033,3052,3072,3093,3113,3134,3153,3172,3193,3213,3234,3253,3272,3293,3312,3333,3353,3373,3393,3413,3432,3454,3473,3492,3512,3534,3552,3572,3593,3613,3634,3653,3672,3693,3713,3734,3754,3773,3794,3812,3833,3852,3874,3894,3914,3934,3953,3972,3992,4012,4033,4053,4074,4093,4112,4132,4153,4173,4194,4213,4233,4254,4273,4294,4313,4332,4353,4372,4392,4413,4432,4453,4474,4493,4514,4533,4553,4572,4593,4613,4633,4653,4673,4694,4712,4733,4753,4773,4792,4812,4833,4853,4874,4893,4914,4933,4953,4973,4994,5013,5032,5053,5074,5093,5112,5134,5153,5173,5194,5212,5234,5253,5273,5292,5312,5333,5354,5373,5392,5413,5433,5452,5472,5493,5514,5533,5554,5574,5593,5612,5632,5653,5674,5693,5713,5732,5753,5773,5793,5813,5832,5853,5873,5892,5913,5932,5953,5973,5994,6013,6033,6053,6073,6092,6112,6133,6153,6173,6193,6212,6233,6252,6272,6294,6312,6332,6353,6373,6393,6413,6432,6453,6473,6492,6514,6533,6554,6573,6593,6613,6633,6654,6673,6692,6713,6732,6754,6774,6793,6812,6834,6854,6874,6893],"xSR":741.5,"ySR":458.25,"xT1":424.9,"yT1":0,"xT2":1058.1,"yT2":0,"toosoon":0,"cond_shown":"Congruent","ratio_trial":100,"L_num":8,"L_den":16,"R_num":2,"R_den":5,"correct_side":1,"subjID":"juanmartinsaavedragaitan6","gender":"1","school":"cafam","age":"11"},{"start_time":1551794188168,"click_time":1551794192437,"finger_time":1551794191778,"fix_duration":1349.3645457263494,"trial":36,"RT":3610,"MT":659,"sideResp":1,"stimulus":[],"xmouse":[791,791,791,791,791,791,791,791,791,791,791,791,791,791,791,791,791,791,791,791,791,791,791,791,791,791,791,791,791,791,791,791,791,791,791,791,791,791,791,791,791,791,791,791,791,791,791,791,791,791,791,791,791,791,791,791,791,791,791,791,791,791,791,791,791,791,791,791,791,791,791,791,791,791,791,791,791,791,791,791,791,791,791,791,791,791,791,791,791,791,791,791,791,791,791,791,791,791,791,791,791,791,791,791,791,791,791,791,791,791,791,791,791,791,791,791,791,791,791,791,791,791,791,791,791,791,791,791,791,791,791,791,791,791,791,791,791,791,791,791,791,791,791,791,791,791,791,791,791,791,791,791,791,791,791,791,791,791,791,791,791,791,791,791,791,791,791,791,791,791,791,791,791,791,791,791,789,775,751,742,733,721,705,674,655,647,637,625,598,590,581,574,563,532,518,511,505,497,483,479,476,475,475,474,474,474,474,474,474,474,474,474,473,471],"ymouse":[526,526,526,526,526,526,526,526,526,526,526,526,526,526,526,526,526,526,526,526,526,526,526,526,526,526,526,526,526,526,526,526,526,526,526,526,526,526,526,526,526,526,526,526,526,526,526,526,526,526,526,526,526,526,526,526,526,526,526,526,526,526,526,526,526,526,526,526,526,526,526,526,526,526,526,526,526,526,526,526,526,526,526,526,526,526,526,526,526,526,526,526,526,526,526,526,526,526,526,526,526,526,526,526,526,526,526,526,526,526,526,526,526,526,526,526,526,526,526,526,526,526,526,526,526,526,526,526,526,526,526,526,526,526,526,526,526,526,526,526,526,526,526,526,526,526,526,526,526,526,526,526,526,526,526,526,526,526,526,526,526,526,526,526,526,526,526,526,526,526,526,526,526,526,526,526,525,512,491,482,472,462,451,430,417,411,404,396,374,366,355,342,322,266,224,201,177,155,127,121,118,117,117,116,116,116,116,116,116,116,116,116,111,97],"timestamp_mouse":[11,30,48,68,89,109,129,148,169,188,208,229,249,268,289,309,329,350,369,388,409,429,449,468,488,510,530,549,570,588,609,629,649,669,690,708,730,750,769,788,809,829,849,869,890,908,930,948,969,988,1008,1028,1050,1068,1088,1109,1128,1149,1169,1189,1210,1230,1249,1269,1288,1310,1330,1349,1369,1388,1409,1429,1448,1469,1489,1509,1528,1549,1570,1589,1609,1629,1650,1668,1688,1710,1728,1749,1770,1789,1810,1828,1848,1869,1889,1910,1928,1950,1969,1988,2008,2029,2049,2069,2088,2108,2128,2148,2168,2188,2208,2228,2248,2268,2288,2308,2328,2348,2368,2388,2408,2428,2448,2469,2488,2509,2529,2548,2569,2588,2609,2630,2648,2669,2689,2708,2728,2750,2769,2790,2808,2828,2850,2868,2890,2909,2928,2950,2969,2989,3009,3030,3048,3069,3089,3109,3128,3150,3169,3190,3209,3228,3250,3269,3289,3309,3329,3350,3368,3388,3409,3428,3450,3468,3488,3509,3529,3548,3569,3588,3610,3629,3648,3669,3689,3708,3729,3749,3769,3788,3808,3829,3848,3869,3888,3908,3929,3949,3968,3988,4008,4029,4048,4069,4089,4109,4129,4148,4169,4190,4209,4229,4248,4269],"xSR":741.5,"ySR":458.25,"xT1":424.9,"yT1":0,"xT2":1058.1,"yT2":0,"toosoon":0,"cond_shown":"Congruent","ratio_trial":200,"L_num":8,"L_den":15,"R_num":3,"R_den":9,"correct_side":1,"subjID":"juanmartinsaavedragaitan6","gender":"1","school":"cafam","age":"11"},{"start_time":1551794193729,"click_time":1551794196776,"finger_time":1551794196276,"fix_duration":271.351155426388,"trial":37,"RT":2547,"MT":500,"sideResp":1,"stimulus":[],"xmouse":[805,805,805,805,805,805,805,805,805,805,805,805,805,805,805,805,805,