[{"start_time":1551794687402,"click_time":1551794688904,"finger_time":1551794688322,"fix_duration":336.13724836310786,"trial":0,"RT":920,"MT":582,"sideResp":2,"stimulus":"img/250/equaldotsize/R/4_Ratio_250_L_3_R_12.png","xmouse":[777,777,777,777,777,777,777,777,777,777,777,777,777,777,777,777,777,777,777,777,777,777,777,777,777,777,777,777,777,777,777,777,777,777,777,777,777,777,777,777,777,777,777,779,806,829,858,881,897,924,933,944,957,967,994,1006,1014,1017,1019,1025,1031,1043,1046,1046,1046,1046,1046,1046,1046,1047,1049,1049,1054,1058,1068],"ymouse":[540,540,540,540,540,540,540,540,540,540,540,540,540,540,540,540,540,540,540,540,540,540,540,540,540,540,540,540,540,540,540,540,540,540,540,540,540,540,540,540,540,540,535,526,472,441,407,376,353,301,278,238,204,176,112,83,66,58,54,53,52,51,50,50,50,50,51,57,63,68,70,70,70,68,63],"timestamp_mouse":[9,44,60,80,101,120,140,160,181,201,220,241,261,281,300,320,341,360,382,400,422,440,462,480,500,520,541,561,581,600,622,640,660,680,700,720,741,761,782,801,821,840,860,881,902,920,940,960,981,1001,1021,1040,1060,1081,1100,1120,1140,1160,1180,1200,1220,1240,1260,1281,1300,1320,1340,1361,1380,1400,1421,1440,1461,1481,1502],"xSR":741.5,"ySR":490.1,"xT1":424.9,"yT1":0,"xT2":1058.1,"yT2":0,"toosoon":0,"cond_shown":"equaldotsize","ratio_trial":250,"smaller_num":"3","larger_num":"12","correct_side":2,"subjID":"juanmartinsaavedragaitan6","gender":"0","age":"11","school":"cafam","test":{"fix_dur":[250,1500],"timestim":300,"targets_dim":[100,100],"targets_relative_coord":[0.3,0.7],"size_stim":[880,420],"start_dim":[100,100],"size_start":[300,300],"size_fix":60,"samplingrate":20,"img_types":["equaldotsize","equaldotanddens","randomdotsizeEA"],"ratios":[250,500,750,900],"rep_conds":9,"nTrials":120,"trials_to_rest":500,"Trials_order":[48,86,28,39,24,8,119,80,99,71,84,69,93,54,91,117,5,109,94,72,20,65,7,112,87,13,33,85,97,26,52,32,110,57,4,29,79,49,64,74,2,102,63,11,12,67,34,42,70,44,73,46,38,55,75,96,78,6,60,59,14,1,45,25,88,30,22,100,35,23,56,116,51,18,15,21,58,83,105,41,16,113,89,9,118,17,103,66,3,47,27,50,43,0,40,111,92,106,62,53,19,108,10,82,101,107,81,31,77,90,104,76,68,37,36,114,95,61,115,98],"cond_shown":["equaldotsize","randomdotsizeEA","equaldotanddens","equaldotsize","equaldotsize","randomdotsizeEA","randomdotsizeEA","randomdotsizeEA","equaldotsize","randomdotsizeEA","equaldotsize","equaldotsize","equaldotsize","equaldotsize","equaldotanddens","equaldotsize","randomdotsizeEA","equaldotanddens","equaldotanddens","equaldotsize","randomdotsizeEA","randomdotsizeEA","equaldotanddens","equaldotanddens","equaldotsize","equaldotanddens","equaldotsize","equaldotanddens","equaldotanddens","randomdotsizeEA","equaldotanddens","randomdotsizeEA","randomdotsizeEA","equaldotsize","equaldotanddens","randomdotsizeEA","equaldotanddens","equaldotanddens","equaldotanddens","randomdotsizeEA","randomdotsizeEA","equaldotsize","equaldotsize","randomdotsizeEA","equaldotsize","equaldotanddens","equaldotanddens","equaldotsize","equaldotanddens","randomdotsizeEA","equaldotanddens","equaldotanddens","randomdotsizeEA","equaldotanddens","equaldotsize","equaldotsize","equaldotsize","equaldotsize","equaldotsize","randomdotsizeEA","randomdotsizeEA","equaldotanddens","equaldotsize","equaldotanddens","equaldotanddens","equaldotsize","equaldotanddens","equaldotanddens","randomdotsizeEA","randomdotsizeEA","randomdotsizeEA","randomdotsizeEA","equaldotsize","equaldotsize","equaldotsize","equaldotsize","equaldotanddens","randomdotsizeEA","equaldotsize","randomdotsizeEA","equaldotanddens","randomdotsizeEA","randomdotsizeEA","equaldotsize","equaldotanddens","randomdotsizeEA","equaldotanddens","equaldotsize","equaldotsize","randomdotsizeEA","equaldotsize","randomdotsizeEA","equaldotanddens","equaldotsize","equaldotanddens","equaldotsize","randomdotsizeEA","equaldotanddens","randomdotsizeEA","randomdotsizeEA","equaldotanddens","equaldotsize","equaldotanddens","equaldotanddens","randomdotsizeEA","randomdotsizeEA","equaldotsize","equaldotanddens","randomdotsizeEA","equaldotsize","randomdotsizeEA","equaldotanddens","randomdotsizeEA","equaldotanddens","equaldotsize","equaldotsize","randomdotsizeEA","equaldotanddens","equaldotanddens","randomdotsizeEA"],"ratio_trial":[250,250,500,500,250,750,900,750,500,900,250,900,900,750,750,900,500,250,900,250,750,500,750,500,500,250,900,250,250,250,500,750,250,900,500,500,750,250,500,250,250,750,500,900,250,750,900,750,900,750,250,900,250,750,500,250,750,750,250,900,250,250,900,250,500,750,900,500,900,900,750,750,500,750,500,900,900,900,900,500,500,500,500,900,900,500,750,750,500,900,500,250,750,250,500,500,750,900,250,500,750,250,900,900,500,900,900,750,500,750,750,500,750,250,250,750,900,250,750,250],"smaller_num":["3","3","4","2","3","15","9","6","5","9","2","18","18","15","3","9","1","2","18","3","6","6","15","6","3","2","18","3","2","3","6","6","6","9","1","6","15","1","1","3","3","15","4","9","2","6","18","3","18","15","6","9","3","15","6","1","6","6","4","9","2","2","9","2","9","15","18","9","18","18","3","15","5","6","10","18","18","18","18","5","2","3","5","18","18","6","15","6","5","9","5","4","3","2","9","9","3","18","3","2","3","2","18","18","9","18","18","3","1","3","6","9","3","2","5","15","18","5","3","2"],"larger_num":["12","12","8","4","12","20","10","8","10","10","8","20","20","20","4","10","2","8","20","12","8","12","20","12","6","8","20","12","8","12","12","8","24","10","2","12","20","4","2","12","12","20","8","10","8","8","20","4","20","20","24","10","12","20","12","4","8","8","16","10","8","8","10","8","18","20","20","18","20","20","4","20","10","8","20","20","20","20","20","10","4","6","10","20","20","12","20","8","10","10","10","16","4","8","18","18","4","20","12","4","4","8","20","20","18","20","20","4","2","4","8","18","4","8","20","20","20","20","4","8"],"correct_side":[2,2,1,1,1,2,2,1,1,2,1,1,1,2,1,2,2,1,1,2,1,1,2,1,2,1,2,2,2,2,1,1,1,2,2,1,2,2,2,2,2,1,1,1,1,1,2,1,2,2,2,2,1,2,1,2,1,2,1,2,2,2,1,1,2,2,2,2,1,2,2,1,2,1,2,2,1,1,1,2,1,2,2,1,1,1,2,1,2,2,2,1,2,2,1,2,1,1,2,2,1,1,2,2,1,1,1,2,2,2,2,1,1,1,2,1,1,2,1,1],"img_shown":["img/250/equaldotsize/R/4_Ratio_250_L_3_R_12.png","img/250/randomdotsizeEA/R/4_Ratio_250_L_3_R_12.png","img/500/equaldotanddens/L/8_Ratio_500_L_8_R_4.png","img/500/equaldotsize/L/5_Ratio_500_L_4_R_2.png","img/250/equaldotsize/L/14_Ratio_250_L_12_R_3.png","img/750/randomdotsizeEA/R/4_Ratio_750_L_15_R_20.png","img/900/randomdotsizeEA/R/5_Ratio_900_L_9_R_10.png","img/750/randomdotsizeEA/L/14_Ratio_750_L_8_R_6.png","img/500/equaldotsize/L/7_Ratio_500_L_10_R_5.png","img/900/randomdotsizeEA/R/5_Ratio_900_L_9_R_10.png","img/250/equaldotsize/L/3_Ratio_250_L_8_R_2.png","img/900/equaldotsize/L/4_Ratio_900_L_20_R_18.png","img/900/equaldotsize/L/4_Ratio_900_L_20_R_18.png","img/750/equaldotsize/R/4_Ratio_750_L_15_R_20.png","img/750/equaldotanddens/L/9_Ratio_750_L_4_R_3.png","img/900/equaldotsize/R/15_Ratio_900_L_9_R_10.png","img/500/randomdotsizeEA/R/15_Ratio_500_L_1_R_2.png","img/250/equaldotanddens/L/1_Ratio_250_L_8_R_2.png","img/900/equaldotanddens/L/2_Ratio_900_L_20_R_18.png","img/250/equaldotsize/R/4_Ratio_250_L_3_R_12.png","img/750/randomdotsizeEA/L/13_Ratio_750_L_8_R_6.png","img/500/randomdotsizeEA/L/11_Ratio_500_L_12_R_6.png","img/750/equaldotanddens/R/3_Ratio_750_L_15_R_20.png","img/500/equaldotanddens/L/13_Ratio_500_L_12_R_6.png","img/500/equaldotsize/R/2_Ratio_500_L_3_R_6.png","img/250/equaldotanddens/L/7_Ratio_250_L_8_R_2.png","img/900/equaldotsize/R/11_Ratio_900_L_18_R_20.png","img/250/equaldotanddens/R/11_Ratio_250_L_3_R_12.png","img/250/equaldotanddens/R/13_Ratio_250_L_2_R_8.png","img/250/randomdotsizeEA/R/9_Ratio_250_L_3_R_12.png","img/500/equaldotanddens/L/13_Ratio_500_L_12_R_6.png","img/750/randomdotsizeEA/L/14_Ratio_750_L_8_R_6.png","img/250/randomdotsizeEA/L/5_Ratio_250_L_24_R_6.png","img/900/equaldotsize/R/5_Ratio_900_L_9_R_10.png","img/500/equaldotanddens/R/15_Ratio_500_L_1_R_2.png","img/500/randomdotsizeEA/L/13_Ratio_500_L_12_R_6.png","img/750/equaldotanddens/R/4_Ratio_750_L_15_R_20.png","img/250/equaldotanddens/R/8_Ratio_250_L_1_R_4.png","img/500/equaldotanddens/R/15_Ratio_500_L_1_R_2.png","img/250/randomdotsizeEA/R/9_Ratio_250_L_3_R_12.png","img/250/randomdotsizeEA/R/4_Ratio_250_L_3_R_12.png","img/750/equaldotsize/L/1_Ratio_750_L_20_R_15.png","img/500/equaldotsize/L/8_Ratio_500_L_8_R_4.png","img/900/randomdotsizeEA/L/1_Ratio_900_L_10_R_9.png","img/250/equaldotsize/L/3_Ratio_250_L_8_R_2.png","img/750/equaldotanddens/L/13_Ratio_750_L_8_R_6.png","img/900/equaldotanddens/R/14_Ratio_900_L_18_R_20.png","img/750/equaldotsize/L/8_Ratio_750_L_4_R_3.png","img/900/equaldotanddens/R/9_Ratio_900_L_18_R_20.png","img/750/randomdotsizeEA/R/3_Ratio_750_L_15_R_20.png","img/250/equaldotanddens/R/6_Ratio_250_L_6_R_24.png","img/900/equaldotanddens/R/5_Ratio_900_L_9_R_10.png","img/250/randomdotsizeEA/L/14_Ratio_250_L_12_R_3.png","img/750/equaldotanddens/R/4_Ratio_750_L_15_R_20.png","img/500/equaldotsize/L/13_Ratio_500_L_12_R_6.png","img/250/equaldotsize/R/8_Ratio_250_L_1_R_4.png","img/750/equaldotsize/L/14_Ratio_750_L_8_R_6.png","img/750/equaldotsize/R/2_Ratio_750_L_6_R_8.png","img/250/equaldotsize/L/2_Ratio_250_L_16_R_4.png","img/900/randomdotsizeEA/R/5_Ratio_900_L_9_R_10.png","img/250/randomdotsizeEA/R/13_Ratio_250_L_2_R_8.png","img/250/equaldotanddens/R/13_Ratio_250_L_2_R_8.png","img/900/equaldotsize/L/1_Ratio_900_L_10_R_9.png","img/250/equaldotanddens/L/3_Ratio_250_L_8_R_2.png","img/500/equaldotanddens/R/6_Ratio_500_L_9_R_18.png","img/750/equaldotsize/R/4_Ratio_750_L_15_R_20.png","img/900/equaldotanddens/R/9_Ratio_900_L_18_R_20.png","img/500/equaldotanddens/R/6_Ratio_500_L_9_R_18.png","img/900/randomdotsizeEA/L/4_Ratio_900_L_20_R_18.png","img/900/randomdotsizeEA/R/12_Ratio_900_L_18_R_20.png","img/750/randomdotsizeEA/R/7_Ratio_750_L_3_R_4.png","img/750/randomdotsizeEA/L/1_Ratio_750_L_20_R_15.png","img/500/equaldotsize/R/14_Ratio_500_L_5_R_10.png","img/750/equaldotsize/L/14_Ratio_750_L_8_R_6.png","img/500/equaldotsize/R/3_Ratio_500_L_10_R_20.png","img/900/equaldotsize/R/13_Ratio_900_L_18_R_20.png","img/900/equaldotanddens/L/8_Ratio_900_L_20_R_18.png","img/900/randomdotsizeEA/L/10_Ratio_900_L_20_R_18.png","img/900/equaldotsize/L/4_Ratio_900_L_20_R_18.png","img/500/randomdotsizeEA/R/14_Ratio_500_L_5_R_10.png","img/500/equaldotanddens/L/5_Ratio_500_L_4_R_2.png","img/500/randomdotsizeEA/R/2_Ratio_500_L_3_R_6.png","img/500/randomdotsizeEA/R/14_Ratio_500_L_5_R_10.png","img/900/equaldotsize/L/4_Ratio_900_L_20_R_18.png","img/900/equaldotanddens/L/4_Ratio_900_L_20_R_18.png","img/500/randomdotsizeEA/L/11_Ratio_500_L_12_R_6.png","img/750/equaldotanddens/R/4_Ratio_750_L_15_R_20.png","img/750/equaldotsize/L/13_Ratio_750_L_8_R_6.png","img/500/equaldotsize/R/14_Ratio_500_L_5_R_10.png","img/900/randomdotsizeEA/R/7_Ratio_900_L_9_R_10.png","img/500/equaldotsize/R/14_Ratio_500_L_5_R_10.png","img/250/randomdotsizeEA/L/2_Ratio_250_L_16_R_4.png","img/750/equaldotanddens/R/12_Ratio_750_L_3_R_4.png","img/250/equaldotsize/R/13_Ratio_250_L_2_R_8.png","img/500/equaldotanddens/L/4_Ratio_500_L_18_R_9.png","img/500/equaldotsize/R/1_Ratio_500_L_9_R_18.png","img/750/randomdotsizeEA/L/8_Ratio_750_L_4_R_3.png","img/900/equaldotanddens/L/2_Ratio_900_L_20_R_18.png","img/250/randomdotsizeEA/R/4_Ratio_250_L_3_R_12.png","img/500/randomdotsizeEA/R/9_Ratio_500_L_2_R_4.png","img/750/equaldotanddens/L/8_Ratio_750_L_4_R_3.png","img/250/equaldotsize/L/3_Ratio_250_L_8_R_2.png","img/900/equaldotanddens/R/13_Ratio_900_L_18_R_20.png","img/900/equaldotanddens/R/11_Ratio_900_L_18_R_20.png","img/500/randomdotsizeEA/L/4_Ratio_500_L_18_R_9.png","img/900/randomdotsizeEA/L/8_Ratio_900_L_20_R_18.png","img/900/equaldotsize/L/10_Ratio_900_L_20_R_18.png","img/750/equaldotanddens/R/12_Ratio_750_L_3_R_4.png","img/500/randomdotsizeEA/R/15_Ratio_500_L_1_R_2.png","img/750/equaldotsize/R/12_Ratio_750_L_3_R_4.png","img/750/randomdotsizeEA/R/2_Ratio_750_L_6_R_8.png","img/500/equaldotanddens/L/4_Ratio_500_L_18_R_9.png","img/750/randomdotsizeEA/L/9_Ratio_750_L_4_R_3.png","img/250/equaldotanddens/L/1_Ratio_250_L_8_R_2.png","img/250/equaldotsize/R/12_Ratio_250_L_5_R_20.png","img/750/equaldotsize/L/1_Ratio_750_L_20_R_15.png","img/900/randomdotsizeEA/L/2_Ratio_900_L_20_R_18.png","img/250/equaldotanddens/R/12_Ratio_250_L_5_R_20.png","img/750/equaldotanddens/L/9_Ratio_750_L_4_R_3.png","img/250/randomdotsizeEA/L/7_Ratio_250_L_8_R_2.png"],"Rat0":[["12_Ratio_0_L_9_R_0.png","13_Ratio_0_L_6_R_0.png","5_Ratio_0_L_2_R_0.png","6_Ratio_0_L_4_R_0.png","8_Ratio_0_L_6_R_0.png"],["1_Ratio_0_L_0_R_17.png","10_Ratio_0_L_0_R_22.png","11_Ratio_0_L_0_R_1.png","14_Ratio_0_L_0_R_24.png","15_Ratio_0_L_0_R_4.png","2_Ratio_0_L_0_R_5.png","3_Ratio_0_L_0_R_17.png","4_Ratio_0_L_0_R_7.png","7_Ratio_0_L_0_R_19.png","9_Ratio_0_L_0_R_15.png"]],"Rat250":[["1_Ratio_250_L_8_R_2.png","14_Ratio_250_L_12_R_3.png","15_Ratio_250_L_12_R_3.png","2_Ratio_250_L_16_R_4.png","3_Ratio_250_L_8_R_2.png","5_Ratio_250_L_24_R_6.png","7_Ratio_250_L_8_R_2.png"],["10_Ratio_250_L_4_R_16.png","11_Ratio_250_L_3_R_12.png","12_Ratio_250_L_5_R_20.png","13_Ratio_250_L_2_R_8.png","4_Ratio_250_L_3_R_12.png","6_Ratio_250_L_6_R_24.png","8_Ratio_250_L_1_R_4.png","9_Ratio_250_L_3_R_12.png"]],"Rat500":[["10_Ratio_500_L_4_R_2.png","11_Ratio_500_L_12_R_6.png","13_Ratio_500_L_12_R_6.png","4_Ratio_500_L_18_R_9.png","5_Ratio_500_L_4_R_2.png","7_Ratio_500_L_10_R_5.png","8_Ratio_500_L_8_R_4.png"],["1_Ratio_500_L_9_R_18.png","12_Ratio_500_L_1_R_2.png","14_Ratio_500_L_5_R_10.png","15_Ratio_500_L_1_R_2.png","2_Ratio_500_L_3_R_6.png","3_Ratio_500_L_10_R_20.png","6_Ratio_500_L_9_R_18.png","9_Ratio_500_L_2_R_4.png"]],"Rat750":[["1_Ratio_750_L_20_R_15.png","10_Ratio_750_L_4_R_3.png","13_Ratio_750_L_8_R_6.png","14_Ratio_750_L_8_R_6.png","6_Ratio_750_L_24_R_18.png","8_Ratio_750_L_4_R_3.png","9_Ratio_750_L_4_R_3.png"],["11_Ratio_750_L_12_R_16.png","12_Ratio_750_L_3_R_4.png","15_Ratio_750_L_9_R_12.png","2_Ratio_750_L_6_R_8.png","3_Ratio_750_L_15_R_20.png","4_Ratio_750_L_15_R_20.png","5_Ratio_750_L_15_R_20.png","7_Ratio_750_L_3_R_4.png"]],"Rat900":[["1_Ratio_900_L_10_R_9.png","10_Ratio_900_L_20_R_18.png","2_Ratio_900_L_20_R_18.png","4_Ratio_900_L_20_R_18.png","8_Ratio_900_L_20_R_18.png"],["11_Ratio_900_L_18_R_20.png","12_Ratio_900_L_18_R_20.png","13_Ratio_900_L_18_R_20.png","14_Ratio_900_L_18_R_20.png","15_Ratio_900_L_9_R_10.png","3_Ratio_900_L_9_R_10.png","5_Ratio_900_L_9_R_10.png","6_Ratio_900_L_9_R_10.png","7_Ratio_900_L_9_R_10.png","9_Ratio_900_L_18_R_20.png"]],"Rat1000":[["10_Ratio_1000_L_16_R_16.png","11_Ratio_1000_L_6_R_6.png","12_Ratio_1000_L_14_R_14.png","13_Ratio_1000_L_20_R_20.png","15_Ratio_1000_L_15_R_15.png","2_Ratio_1000_L_17_R_17.png","4_Ratio_1000_L_9_R_9.png","5_Ratio_1000_L_6_R_6.png","6_Ratio_1000_L_19_R_19.png","8_Ratio_1000_L_14_R_14.png","9_Ratio_1000_L_25_R_25.png"],["1_Ratio_1000_L_1_R_1.png","14_Ratio_1000_L_17_R_17.png","3_Ratio_1000_L_17_R_17.png","7_Ratio_1000_L_6_R_6.png"]]}},{"start_time":1551794690058,"click_time":1551794693402,"finger_time":1551794693023,"fix_duration":432.7362810383503,"trial":1,"RT":2965,"MT":379,"sideResp":2,"stimulus":"img/250/randomdotsizeEA/R/4_Ratio_250_L_3_R_12.png","xmouse":[802,802,802,802,802,802,802,802,802,802,802,802,802,802,802,802,802,802,802,802,802,802,802,802,802,802,802,802,802,802,802,802,802,802,802,802,802,802,802,802,802,802,802,802,802,802,802,802,802,802,802,802,802,802,802,802,802,802,802,802,802,802,802,802,802,802,802,802,802,802,802,802,802,802,802,802,802,802,802,802,802,802,802,802,802,802,802,802,802,802,802,802,802,802,802,802,802,802,802,802,802,802,802,802,802,802,802,802,802,802,802,802,802,802,802,802,802,802,802,802,802,802,802,801,801,801,801,801,801,801,801,801,801,801,801,801,801,801,801,801,801,801,801,802,805,809,814,834,851,884,925,961,1023,1043,1051,1053,1053,1053,1053,1053,1053,1053,1053,1053,1053,1054,1055,1061],"ymouse":[524,524,524,524,524,523,523,523,523,523,523,523,523,523,523,523,523,523,523,523,523,523,523,523,523,523,523,523,523,523,523,523,523,523,523,523,523,523,523,523,523,523,523,523,523,523,523,523,523,523,523,523,523,523,523,523,523,523,523,523,523,523,523,522,522,522,522,522,522,522,522,522,522,522,522,522,522,522,522,522,522,522,522,522,522,522,522,522,522,522,522,522,522,522,522,522,522,522,522,522,522,522,522,522,522,522,522,522,522,522,522,522,522,522,522,522,522,522,522,522,522,522,521,518,517,516,516,516,516,516,516,516,516,516,516,516,516,516,516,516,516,516,515,511,507,500,495,469,449,406,346,290,197,164,142,132,128,123,119,116,113,112,109,109,107,104,101,93],"timestamp_mouse":[6,25,44,64,84,105,124,145,164,185,205,224,244,264,284,304,326,344,365,384,404,425,444,465,484,504,525,545,564,585,604,625,644,664,684,704,724,746,765,786,805,825,846,865,885,905,926,944,964,984,1004,1024,1044,1064,1086,1105,1125,1145,1164,1185,1205,1226,1244,1265,1285,1306,1324,1345,1364,1385,1405,1424,1445,1464,1485,1505,1524,1544,1565,1585,1606,1626,1644,1665,1685,1706,1724,1744,1765,1784,1805,1825,1844,1864,1884,1905,1924,1944,1966,1984,2004,2024,2044,2064,2085,2105,2124,2144,2164,2186,2205,2225,2245,2264,2286,2306,2324,2344,2365,2384,2405,2426,2444,2464,2484,2505,2524,2545,2565,2586,2604,2624,2644,2664,2686,2704,2726,2745,2765,2784,2804,2825,2845,2864,2884,2904,2924,2944,2965,2984,3005,3024,3044,3064,3084,3105,3126,3144,3164,3184,3205,3224,3245,3264,3286,3304,3325,3344],"xSR":741.5,"ySR":458.25,"xT1":424.9,"yT1":0,"xT2":1058.1,"yT2":0,"toosoon":0,"cond_shown":"randomdotsizeEA","ratio_trial":250,"smaller_num":"3","larger_num":"12","correct_side":2,"subjID":"juanmartinsaavedragaitan6","gender":"0","age":"11","school":"cafam"},{"start_time":1551794695842,"click_time":1551794697263,"finger_time":1551794696622,"fix_duration":1478.6073357333728,"trial":2,"RT":780,"MT":641,"sideResp":1,"stimulus":"img/500/equaldotanddens/L/8_Ratio_500_L_8_R_4.png","xmouse":[798,798,798,798,798,798,798,798,798,798,798,798,798,797,797,797,797,797,797,797,797,797,797,797,797,797,797,797,797,797,797,797,797,797,797,791,786,779,774,774,773,773,773,758,741,723,708,694,664,643,614,602,590,574,573,572,572,571,567,553,540,529,519,508,507,505,505,504,502,500,493,482],"ymouse":[491,491,491,491,491,492,492,492,492,492,493,493,493,493,493,493,493,493,493,493,493,493,493,493,493,493,493,493,493,493,493,493,493,493,493,488,483,473,462,458,453,449,442,415,396,374,354,334,283,249,200,179,163,145,145,144,144,144,144,137,133,129,126,123,123,122,122,121,120,117,108,99],"timestamp_mouse":[11,23,40,60,80,102,120,140,161,182,200,221,242,261,281,300,321,340,361,382,400,420,442,460,480,500,520,541,560,580,601,620,642,661,680,701,722,741,760,780,800,820,841,860,881,900,920,941,960,982,1000,1020,1040,1061,1080,1101,1120,1141,1160,1182,1200,1221,1241,1260,1280,1300,1321,1340,1360,1381,1400,1420],"xSR":741.5,"ySR":458.25,"xT1":424.9,"yT1":0,"xT2":1058.1,"yT2":0,"toosoon":0,"cond_shown":"equaldotanddens","ratio_trial":500,"smaller_num":"4","larger_num":"8","correct_side":1,"subjID":"juanmartinsaavedragaitan6","gender":"0","age":"11","school":"cafam"},{"start_time":1551794699698,"click_time":1551794700702,"finger_time":1551794700462,"fix_duration":1195.2718187760238,"trial":3,"RT":764,"MT":240,"sideResp":1,"stimulus":"img/500/equaldotsize/L/5_Ratio_500_L_4_R_2.png","xmouse":[800,800,800,800,800,800,800,800,800,800,800,800,800,800,800,800,800,800,800,800,800,800,800,800,800,800,800,800,800,800,800,800,800,800,800,800,795,781,773,766,739,717,696,679,660,627,606,576,553,522,455],"ymouse":[511,511,511,511,511,511,511,511,511,511,511,511,511,511,511,511,511,511,511,511,511,511,511,511,511,511,511,511,511,511,511,511,511,511,510,506,494,470,449,425,355,320,293,275,256,218,198,171,154,132,83],"timestamp_mouse":[11,34,45,65,84,104,125,144,164,184,204,224,244,264,285,305,325,345,365,385,405,424,446,465,485,504,526,546,565,586,604,624,646,664,684,704,726,744,764,784,804,824,844,866,885,904,925,944,964,985,1004],"xSR":741.5,"ySR":458.25,"xT1":424.9,"yT1":0,"xT2":1058.1,"yT2":0,"toosoon":0,"cond_shown":"equaldotsize","ratio_trial":500,"smaller_num":"2","larger_num":"4","correct_side":1,"subjID":"juanmartinsaavedragaitan6","gender":"0","age":"11","school":"cafam"},{"start_time":1551794702925,"click_time":1551794703843,"finger_time":1551794703583,"fix_duration":1021.0453750769146,"trial":4,"RT":658,"MT":260,"sideResp":1,"stimulus":"img/250/equaldotsize/L/14_Ratio_250_L_12_R_3.png","xmouse":[794,794,794,794,794,794,794,794,794,794,794,794,794,794,794,794,794,794,794,794,794,794,794,794,794,794,794,794,794,795,789,776,757,722,716,713,712,707,687,669,650,628,610,575,534,522],"ymouse":[499,499,499,499,499,499,499,499,499,499,499,499,499,499,499,499,499,499,499,499,499,499,499,499,499,499,499,499,499,496,485,465,445,414,408,405,402,390,354,331,305,275,243,162,93,76],"timestamp_mouse":[17,42,58,79,99,118,137,159,177,197,217,238,258,278,298,317,337,357,379,398,418,437,457,477,498,517,537,557,577,597,618,637,658,678,698,717,737,757,777,797,817,838,857,877,897,918],"xSR":741.5,"ySR":458.25,"xT1":424.9,"yT1":0,"xT2":1058.1,"yT2":0,"toosoon":0,"cond_shown":"equaldotsize","ratio_trial":250,"smaller_num":"3","larger_num":"12","correct_side":1,"subjID":"juanmartinsaavedragaitan6","gender":"0","age":"11","school":"cafam"},{"start_time":1551794705553,"click_time":1551794716882,"finger_time":1551794707223,"fix_duration":589.2684467916625,"trial":5,"RT":1670,"MT":9659,"sideResp":1,"stimulus":"img/750/randomdotsizeEA/R/4_Ratio_750_L_15_R_20.png","xmouse":[763,763,763,763,763,763,763,763,763,763,763,763,763,763,763,763,763,763,763,763,763,764,763,761,760,759,759,759,759,759,759,759,761,766,768,768,768,768,768,768,768,768,768,764,755,750,748,748,748,748,748,748,748,748,749,753,758,767,771,776,781,782,782,782,782,782,782,782,782,782,782,782,782,782,782,782,782,782,782,782,782,784,801,816,864,908,956,1011,1019,1026,1032,1037,1047,1049,1052,1053,1053,1053,1053,1053,1053,1053,1053,1053,1053,1053,1053,1052,1052,1052,1052,1052,1052,1052,1052,1051,1050,1045,1044,1044,1044,1044,1044,1044,1044,1043,1043,1043,1043,1043,1043,1043,1043,1041,1041,1039,1038,1036,1036,1036,1036,1036,1036,1036,1034,1031,1024,999,981,965,945,925,895,880,858,841,832,813,795,774,754,740,722,686,667,632,626,625,625,625,625,625,625,625,625,628,631,641,646,653,655,655,655,655,655,655,655,655,655,655,655,655,657,659,660,661,662,666,667,667,667,667,667,667,667,667,667,667,667,667,667,667,667,667,667,667,667,667,667,667,667,667,667,667,667,667,667,667,667,667,667,667,667,667,667,667,667,667,667,667,667,667,667,667,667,667,667,667,667,667,667,667,667,667,667,667,667,667,667,667,667,667,667,667,667,667,667,667,667,667,667,667,667,667,667,667,667,667,667,667,667,667,667,667,667,667,667,667,667,667,667,667,667,667,667,667,667,667,667,667,667,667,667,667,667,667,667,667,668,668,668,668,668,668,668,668,668,668,668,668,668,668,665,663,657,652,643,604,573,545,524,515,514,514,514,514,514,524,556,595,634,687,797,857,917,1021,1090,1187,1201,1203,1199,1123,901,601,412,255,141,40,23,19,18,18,18,18,20,39,80,234,334,466,607,764,1003,1055,1066,1066,1066,1064,1055,1037,1008,969,901,881,859,842,816,724,688,672,670,670,670,696,725,779,855,1050,1124,1140,1116,971,415,0,0,0,3,133,314,530,772,970,1067,940,848,486,241,18,46,202,471,784,1290,1330,1251,1074,847,448,390,393,496,766,1490,1490,1490,1468,1192,828,142,0,0,8,397,702,1020,1273,1381,1297,1081,756,400,85,0,1,100,302,548,1022,1195,1255,1247,1154,631,257,0,0,0,60,217,460,775,1079,1531,1531,1570,1416,1134,401,116,0,0,11,249,551,767,961,1116,1195,1175,1045,815,548,23,0,2,27,109,490,751,1048,1296,1455,1503,1430,1069,679,286,0,0,11,72,155,427,731,937,1094,1173,1142,971,733,485,256,42,40,58,148,329,798,1049,1293,1477,1561,1559,1502,1230,949,634,231,157,150,155,191,516,882,1181,1458,1458,1458,1458,1458,1535,1401,988,684,171,0,0,0,0,0,0,0,0,0,0,211,446],"ymouse":[496,496,496,496,496,496,496,496,496,496,496,496,496,496,496,496,496,496,496,496,496,496,488,481,471,468,466,466,466,466,466,464,464,462,460,460,460,460,460,460,460,460,460,476,495,504,506,506,506,506,506,506,506,506,504,502,499,494,493,491,489,488,488,488,488,488,488,488,488,488,488,488,488,488,488,488,488,488,488,488,488,486,469,452,403,355,303,234,221,209,200,189,169,166,157,155,155,155,155,155,155,155,155,155,155,155,156,157,158,159,159,159,159,159,159,160,160,162,162,162,162,162,162,162,162,162,162,162,162,162,162,162,162,162,162,162,163,164,164,164,164,164,164,164,164,164,167,180,186,191,197,203,212,216,223,230,233,238,247,251,254,256,258,261,264,268,270,270,270,270,270,270,270,270,269,260,254,236,227,219,216,215,215,215,215,215,215,215,215,215,215,215,214,214,214,213,212,211,211,211,211,211,211,211,211,211,211,211,211,211,211,211,211,211,211,211,211,211,211,211,211,211,211,211,211,211,211,211,211,211,211,211,211,211,211,211,211,211,211,211,211,211,211,211,211,211,211,211,211,211,211,211,211,211,211,211,211,211,211,211,211,211,211,211,211,211,211,211,211,211,211,211,211,211,211,211,211,211,211,211,211,211,211,211,211,211,211,211,211,211,211,211,211,211,211,211,211,211,211,211,211,211,211,211,211,211,211,211,211,211,211,211,211,211,211,211,211,211,211,211,211,211,216,221,236,238,238,238,238,238,238,238,238,238,238,238,238,249,261,269,275,278,281,281,281,284,289,304,307,308,312,327,324,286,259,234,217,202,199,199,199,199,199,199,197,193,186,167,157,143,138,130,133,141,144,144,144,144,144,147,150,155,163,165,170,175,182,198,203,206,207,207,207,208,208,208,208,208,210,215,227,257,275,275,275,275,276,276,258,253,253,286,330,369,380,385,387,379,378,361,361,361,387,398,408,421,421,424,416,411,383,336,315,315,315,332,316,307,261,244,242,242,242,251,299,362,406,424,424,424,424,424,424,424,426,426,426,428,452,466,466,466,420,376,325,276,271,272,272,274,282,308,367,367,382,382,382,337,299,273,268,267,251,251,256,283,307,326,331,352,363,363,363,365,368,372,374,366,364,364,364,364,364,364,364,364,364,347,342,342,326,294,240,223,226,252,277,299,334,341,341,341,341,341,341,339,337,337,338,361,388,399,401,393,351,302,244,179,168,168,167,162,158,187,223,267,267,267,267,267,360,348,285,240,175,124,72,4,4,4,4,4,4,4,4,1,35],"timestamp_mouse":[10,33,50,70,90,109,131,151,170,190,210,230,251,269,289,309,331,349,369,390,410,429,449,469,489,509,530,549,569,589,610,631,649,669,689,710,729,749,771,789,809,831,850,869,889,909,931,950,971,990,1009,1031,1050,1069,1089,1110,1129,1149,1169,1189,1209,1229,1250,1269,1290,1310,1330,1350,1369,1389,1410,1429,1449,1469,1489,1509,1529,1549,1570,1589,1609,1629,1649,1670,1689,1710,1730,1750,1769,1789,1810,1831,1850,1869,1889,1910,1929,1949,1969,1989,2010,2030,2049,2069,2090,2111,2130,2150,2169,2189,2209,2230,2249,2271,2291,2309,2329,2349,2371,2389,2409,2431,2450,2470,2490,2510,2530,2549,2570,2590,2609,2630,2649,2669,2690,2710,2730,2750,2769,2790,2809,2829,2849,2869,2889,2910,2930,2949,2969,2989,3009,3031,3049,3070,3089,3109,3130,3149,3169,3189,3209,3229,3249,3270,3290,3309,3329,3350,3371,3389,3409,3431,3450,3469,3489,3510,3529,3549,3569,3589,3610,3631,3649,3669,3689,3710,3730,3750,3769,3790,3810,3830,3849,3869,3891,3911,3929,3949,3969,3989,4009,4031,4050,4070,4090,4110,4130,4150,4171,4189,4209,4230,4251,4270,4289,4309,4331,4350,4370,4389,4409,4431,4450,4469,4489,4510,4529,4550,4569,4589,4609,4629,4650,4670,4689,4710,4730,4749,4770,4789,4809,4831,4850,4869,4889,4910,4930,4950,4969,4989,5010,5031,5050,5071,5089,5109,5130,5150,5170,5189,5209,5229,5249,5270,5289,5311,5331,5350,5370,5390,5409,5430,5449,5470,5489,5509,5529,5549,5571,5591,5610,5629,5650,5670,5689,5710,5730,5750,5770,5790,5809,5829,5849,5870,5890,5909,5929,5950,5970,5989,6009,6031,6050,6069,6089,6111,6130,6150,6169,6189,6209,6229,6249,6269,6289,6310,6329,6349,6370,6389,6409,6429,6450,6470,6489,6509,6529,6549,6569,6590,6609,6629,6649,6669,6689,6710,6729,6749,6770,6790,6810,6829,6849,6870,6890,6909,6930,6949,6969,6990,7011,7029,7050,7071,7089,7110,7129,7149,7169,7189,7210,7231,7249,7270,7289,7311,7330,7349,7369,7390,7410,7430,7449,7470,7489,7509,7530,7549,7569,7589,7610,7629,7649,7670,7689,7709,7730,7749,7769,7789,7809,7830,7850,7871,7889,7909,7929,7949,7969,7989,8009,8030,8049,8069,8090,8111,8129,8149,8169,8189,8210,8229,8249,8269,8290,8310,8329,8350,8369,8389,8409,8430,8449,8470,8489,8510,8531,8550,8569,8589,8609,8629,8649,8669,8690,8710,8729,8749,8769,8789,8809,8829,8850,8870,8889,8909,8929,8949,8969,8989,9010,9030,9051,9070,9089,9109,9130,9150,9169,9190,9209,9229,9249,9269,9290,9311,9329,9349,9369,9389,9410,9430,9449,9470,9489,9509,9529,9550,9569,9590,9609,9629,9649,9669,9689,9709,9730,9749,9769,9790,9809,9829,9849,9870,9889,9909,9929,9950,9969,9990,10011,10031,10049,10070,10089,10109,10131,10149,10169,10189,10209,10229,10249,10269,10289,10311,10329,10349,10369,10389,10410,10430,10449,10470,10489,10509,10530,10549,10569,10589,10609,10630,10649,10670,10689,10709,10729,10749,10769,10790,10809,10829,10849,10871,10889,10909,10929,10949,10969,10989,11009,11031,11049,11069,11089,11110,11130,11149,11169,11189,11209,11230,11250,11270,11289,11310,11329],"xSR":741.5,"ySR":458.25,"xT1":424.9,"yT1":0,"xT2":1058.1,"yT2":0,"toosoon":0,"cond_shown":"randomdotsizeEA","ratio_trial":750,"smaller_num":"15","larger_num":"20","correct_side":2,"subjID":"juanmartinsaavedragaitan6","gender":"0","age":"11","school":"cafam"},{"start_time":1551794720236,"click_time":1551794722863,"finger_time":1551794721202,"fix_duration":250,"trial":6,"RT":966,"MT":1661,"sideResp":2,"stimulus":"img/900/randomdotsizeEA/R/5_Ratio_900_L_9_R_10.png","xmouse":[813,813,813,813,813,813,813,813,813,813,813,813,813,813,813,813,813,812,811,811,811,811,811,811,811,809,809,808,808,808,808,808,808,808,808,808,808,808,808,808,808,808,808,808,808,808,806,797,755,710,647,627,617,599,591,584,579,578,574,571,565,558,555,548,546,543,541,538,537,537,537,537,537,537,537,537,537,537,537,539,543,545,545,545,545,545,545,545,545,545,548,565,583,601,638,651,663,683,769,813,847,851,851,851,851,851,851,852,853,855,856,857,858,859,860,862,866,873,880,881,881,882,886,898,903,904,905,905,948,1005,1049,1074],"ymouse":[540,540,540,540,540,540,540,540,540,540,540,540,540,540,540,540,540,540,540,540,540,540,540,540,540,540,540,538,536,535,535,535,535,535,535,535,535,535,534,531,531,529,527,523,520,514,505,490,456,437,412,403,396,365,350,339,328,322,310,297,281,268,262,254,254,253,252,251,249,249,249,249,249,249,249,249,249,249,249,249,251,252,252,252,252,253,254,257,258,258,253,227,204,186,162,155,150,144,124,119,113,113,113,113,113,113,113,112,111,109,108,107,106,105,105,103,100,97,94,93,93,92,90,85,84,83,82,82,79,76,70,67],"timestamp_mouse":[9,35,48,66,87,107,126,147,166,186,207,226,246,267,286,306,326,346,367,387,407,426,447,466,487,506,526,546,566,587,606,626,648,666,686,706,727,746,766,786,806,828,846,866,886,906,927,947,966,987,1006,1027,1046,1066,1086,1106,1127,1146,1167,1186,1207,1226,1246,1266,1286,1306,1327,1346,1366,1386,1407,1427,1447,1467,1487,1506,1527,1546,1566,1587,1606,1626,1646,1666,1686,1706,1727,1747,1767,1787,1806,1826,1847,1866,1887,1907,1926,1947,1966,1986,2006,2027,2046,2067,2088,2107,2127,2147,2166,2187,2206,2226,2246,2266,2286,2306,2327,2346,2367,2387,2408,2428,2447,2466,2487,2507,2527,2546,2566,2586,2606,2627],"xSR":741.5,"ySR":458.25,"xT1":424.9,"yT1":0,"xT2":1058.1,"yT2":0,"toosoon":0,"cond_shown":"randomdotsizeEA","ratio_trial":900,"smaller_num":"9","larger_num":"10","correct_side":2,"subjID":"juanmartinsaavedragaitan6","gender":"0","age":"11","school":"cafam"},{"start_time":1551794724216,"click_time":1551794725222,"finger_time":1551794724882,"fix_duration":250,"trial":7,"RT":666,"MT":340,"sideResp":1,"stimulus":"img/750/randomdotsizeEA/L/14_Ratio_750_L_8_R_6.png","xmouse":[776,776,776,775,775,775,775,775,775,775,775,775,775,775,775,775,775,775,775,775,775,775,775,775,775,775,775,775,775,775,775,775,761,723,666,655,649,642,637,624,618,612,610,607,600,596,587,579,564,539,523],"ymouse":[490,490,490,491,494,495,495,495,495,495,495,495,495,495,495,495,495,495,495,495,495,495,495,495,495,495,495,495,495,495,495,496,487,451,372,349,331,310,289,241,222,202,192,182,171,165,158,150,137,98,78],"timestamp_mouse":[19,36,48,67,87,107,126,146,167,187,207,227,248,267,286,307,326,347,366,387,406,426,448,468,486,508,527,547,566,587,607,626,646,666,687,706,726,746,768,786,807,826,847,867,886,906,926,947,966,986,1006],"xSR":741.5,"ySR":458.25,"xT1":424.9,"yT1":0,"xT2":1058.1,"yT2":0,"toosoon":0,"cond_shown":"randomdotsizeEA","ratio_trial":750,"smaller_num":"6","larger_num":"8","correct_side":1,"subjID":"juanmartinsaavedragaitan6","gender":"0","age":"11","school":"cafam"},{"start_time":1551794727928,"click_time":1551794729122,"finger_time":1551794728623,"fix_duration":383.97872243129206,"trial":8,"RT":695,"MT":499,"sideResp":1,"stimulus":"img/500/equaldotsize/L/7_Ratio_500_L_10_R_5.png","xmouse":[790,790,790,790,790,790,790,790,794,796,797,797,797,797,797,797,797,797,797,797,797,797,797,797,797,797,797,797,795,793,790,787,778,749,741,733,723,713,704,700,696,691,686,667,650,637,623,611,596,577,567,562,555,540,536,531,530,529,528,522],"ymouse":[538,538,538,538,538,538,538,538,535,534,533,532,532,532,532,532,532,532,532,532,532,532,532,532,532,532,532,529,525,524,521,518,509,490,470,450,432,416,399,393,388,382,376,346,311,278,239,202,167,129,112,99,82,57,52,46,45,44,44,43],"timestamp_mouse":[15,41,56,75,94,115,134,154,175,194,214,234,256,274,294,315,334,354,374,395,414,434,455,476,496,516,536,554,574,594,614,634,654,674,695,714,734,754,774,794,814,834,854,874,894,914,935,954,974,994,1014,1035,1056,1074,1094,1114,1135,1154,1176,1194],"xSR":741.5,"ySR":458.25,"xT1":424.9,"yT1":0,"xT2":1058.1,"yT2":0,"toosoon":0,"cond_shown":"equaldotsize","ratio_trial":500,"smaller_num":"5","larger_num":"10","correct_side":1,"subjID":"juanmartinsaavedragaitan6","gender":"0","age":"11","school":"cafam"},{"start_time":1551794731575,"click_time":1551794732702,"finger_time":1551794732263,"fix_duration":1451.0971325686285,"trial":9,"RT":688,"MT":439,"sideResp":1,"stimulus":"img/900/randomdotsizeEA/R/5_Ratio_900_L_9_R_10.png","xmouse":[775,775,775,775,775,775,775,779,784,788,799,804,807,807,807,807,807,807,807,807,807,807,807,807,807,807,807,807,803,802,801,795,783,767,741,702,585,518,456,414,396,389,385,378,367,363,362,362,363,368,376,415,439,455,462,464,468],"ymouse":[499,499,499,499,499,499,499,499,500,500,502,503,503,503,503,503,503,503,503,503,503,503,503,503,503,503,503,503,504,504,504,504,501,494,478,456,379,340,301,275,262,255,249,238,221,214,200,193,183,171,161,129,115,107,103,102,98],"timestamp_mouse":[10,40,47,67,88,107,128,147,168,187,209,227,248,269,288,307,327,348,367,387,407,428,449,467,487,509,528,547,568,588,607,627,648,667,688,708,727,747,771,787,807,827,847,868,888,907,927,947,967,987,1007,1027,1048,1067,1087,1107,1127],"xSR":741.5,"ySR":458.25,"xT1":424.9,"yT1":0,"xT2":1058.1,"yT2":0,"toosoon":0,"cond_shown":"randomdotsizeEA","ratio_trial":900,"smaller_num":"9","larger_num":"10","correct_side":2,"subjID":"juanmartinsaavedragaitan6","gender":"0","age":"11","school":"cafam"},{"start_time":1551794734877,"click_time":1551794735703,"finger_time":1551794735422,"fix_duration":593.6749266624454,"trial":10,"RT":545,"MT":281,"sideResp":1,"stimulus":"img/250/equaldotsize/L/3_Ratio_250_L_8_R_2.png","xmouse":[762,762,762,762,762,763,763,763,763,763,763,763,763,763,763,763,763,763,763,763,763,763,763,763,763,764,759,697,681,668,654,622,608,599,594,587,573,564,554,545,534,511],"ymouse":[479,479,479,479,479,479,479,479,479,479,479,479,479,479,479,479,479,479,479,479,479,479,479,479,479,478,464,307,255,211,179,131,114,102,94,85,70,62,54,50,45,35],"timestamp_mouse":[11,41,45,66,85,106,126,146,166,186,205,225,245,267,285,307,326,345,367,386,405,425,445,466,486,506,525,545,565,585,606,625,645,665,686,705,725,747,765,786,805,826],"xSR":741.5,"ySR":458.25,"xT1":424.9,"yT1":0,"xT2":1058.1,"yT2":0,"toosoon":0,"cond_shown":"equaldotsize","ratio_trial":250,"smaller_num":"2","larger_num":"8","correct_side":1,"subjID":"juanmartinsaavedragaitan6","gender":"0","age":"11","school":"cafam"},{"start_time":1551794739174,"click_time":1551794740183,"finger_time":1551794739983,"fix_duration":250,"trial":11,"RT":809,"MT":200,"sideResp":1,"stimulus":"img/900/equaldotsize/L/4_Ratio_900_L_20_R_18.png","xmouse":[810,809,809,809,809,809,809,809,809,809,809,809,809,809,809,809,809,809,809,809,809,809,809,809,809,809,809,809,809,809,809,809,809,809,809,809,809,805,793,773,746,724,694,678,668,660,616,583,548,516,497],"ymouse":[528,526,526,526,526,526,526,526,526,524,523,523,523,523,523,523,523,523,523,523,523,523,523,523,523,523,523,523,523,523,523,523,522,522,522,522,522,514,498,464,419,379,326,297,281,265,206,171,140,114,98],"timestamp_mouse":[12,31,48,68,90,108,128,148,168,188,209,229,249,270,288,308,328,349,368,389,409,429,448,468,488,508,529,548,568,588,609,628,649,669,690,708,728,748,768,788,808,828,848,868,888,908,928,948,968,989,1009],"xSR":741.5,"ySR":458.25,"xT1":424.9,"yT1":0,"xT2":1058.1,"yT2":0,"toosoon":0,"cond_shown":"equaldotsize","ratio_trial":900,"smaller_num":"18","larger_num":"20","correct_side":1,"subjID":"juanmartinsaavedragaitan6","gender":"0","age":"11","school":"cafam"},{"start_time":1551794743224,"click_time":1551794744483,"finger_time":1551794744202,"fix_duration":799.4081649252448,"trial":12,"RT":978,"MT":281,"sideResp":2,"stimulus":"img/900/equaldotsize/L/4_Ratio_900_L_20_R_18.png","xmouse":[811,811,811,811,811,811,811,811,811,811,811,811,811,811,811,811,811,811,811,811,811,811,811,811,811,811,811,811,811,811,811,811,811,811,811,811,811,811,811,811,811,811,811,811,811,811,811,811,811,812,826,850,885,937,1017,1030,1036,1041,1048,1065,1076,1085,1096,1103],"ymouse":[510,510,510,510,510,510,510,510,510,510,510,510,510,510,510,510,510,510,510,510,510,510,510,510,510,510,510,510,510,510,510,510,510,510,510,510,510,510,510,510,510,510,510,510,510,510,508,504,488,437,389,347,308,271,218,197,176,158,145,129,123,117,105,94],"timestamp_mouse":[1,18,39,58,78,98,118,138,160,178,199,219,238,259,280,300,319,339,359,378,399,420,438,458,478,499,518,539,558,578,599,618,638,658,678,698,719,738,758,779,798,819,839,860,878,898,919,939,959,978,1000,1018,1038,1058,1078,1098,1118,1139,1160,1178,1199,1218,1239,1259],"xSR":741.5,"ySR":458.25,"xT1":424.9,"yT1":0,"xT2":1058.1,"yT2":0,"toosoon":0,"cond_shown":"equaldotsize","ratio_trial":900,"smaller_num":"18","larger_num":"20","correct_side":1,"subjID":"juanmartinsaavedragaitan6","gender":"0","age":"11","school":"cafam"},{"start_time":1551794746984,"click_time":1551794748241,"finger_time":1551794747722,"fix_duration":1099.1052000348946,"trial":13,"RT":738,"MT":519,"sideResp":2,"stimulus":"img/750/equaldotsize/R/4_Ratio_750_L_15_R_20.png","xmouse":[781,781,781,781,781,781,781,781,781,781,781,781,781,781,781,781,781,781,781,781,781,781,781,781,781,781,781,781,781,781,781,781,781,782,784,793,801,815,837,881,1017,1083,1129,1140,1151,1173,1181,1191,1198,1202,1202,1202,1199,1198,1197,1196,1196,1193,1191,1184,1170,1161,1147],"ymouse":[491,491,491,491,491,491,491,491,491,491,491,491,491,491,491,491,491,491,491,491,491,491,491,491,491,491,491,491,491,491,491,491,489,483,476,461,451,440,425,395,297,252,216,204,187,154,134,109,90,67,34,27,23,20,19,18,18,19,21,27,36,40,45],"timestamp_mouse":[33,38,58,78,97,118,139,158,178,198,217,239,257,277,298,318,338,357,377,399,417,439,457,478,499,519,539,558,578,598,617,638,658,678,697,718,738,758,778,798,818,837,858,878,898,917,937,957,978,998,1017,1038,1057,1078,1097,1118,1138,1159,1178,1199,1217,1238,1257],"xSR":741.5,"ySR":458.25,"xT1":424.9,"yT1":0,"xT2":1058.1,"yT2":0,"toosoon":0,"cond_shown":"equaldotsize","ratio_trial":750,"smaller_num":"15","larger_num":"20","correct_side":2,"subjID":"juanmartinsaavedragaitan6","gender":"0","age":"11","school":"cafam"},{"start_time":1551794750630,"click_time":1551794752062,"finger_time":1551794751543,"fix_duration":1486.1157785802538,"trial":14,"RT":913,"MT":519,"sideResp":1,"stimulus":"img/750/equaldotanddens/L/9_Ratio_750_L_4_R_3.png","xmouse":[812,812,812,812,812,812,812,812,812,812,812,812,812,812,812,812,812,812,812,812,812,812,812,812,812,812,812,812,812,812,812,812,812,812,812,812,812,812,810,805,798,794,792,780,765,751,737,718,695,663,645,595,560,473,441,421,411,404,399,398,393,389,388,388,389,391,392,394,403,410,424,439],"ymouse":[516,516,516,516,516,516,516,516,516,516,516,516,516,516,516,516,516,516,516,516,516,516,516,516,516,516,516,516,516,516,516,516,516,516,516,516,516,516,516,513,509,505,502,485,465,445,424,402,375,336,318,287,266,211,189,175,165,157,152,148,138,129,119,109,104,102,101,99,94,92,87,83],"timestamp_mouse":[12,33,52,71,93,112,132,152,172,193,213,233,253,272,292,312,332,352,373,392,411,431,452,472,492,512,533,552,572,591,613,633,653,671,692,713,731,752,772,793,812,832,852,871,891,913,932,952,971,991,1011,1033,1052,1072,1091,1111,1131,1152,1171,1192,1211,1232,1253,1272,1291,1312,1332,1351,1371,1393,1411,1432],"xSR":741.5,"ySR":458.25,"xT1":424.9,"yT1":0,"xT2":1058.1,"yT2":0,"toosoon":0,"cond_shown":"equaldotanddens","ratio_trial":750,"smaller_num":"3","larger_num":"4","correct_side":1,"subjID":"juanmartinsaavedragaitan6","gender":"0","age":"11","school":"cafam"},{"start_time":1551794754198,"click_time":1551794755103,"finger_time":1551794754921,"fix_duration":633.2769092159524,"trial":15,"RT":723,"MT":182,"sideResp":2,"stimulus":"img/900/equaldotsize/R/15_Ratio_900_L_9_R_10.png","xmouse":[803,803,803,803,803,803,803,803,803,803,803,803,803,803,803,803,803,803,803,803,803,803,803,803,803,803,803,803,803,803,803,803,803,803,803,813,821,831,848,871,939,981,996,1041,1065,1113],"ymouse":[508,508,508,508,508,508,508,508,508,508,508,508,508,508,508,508,508,508,508,508,508,508,508,508,508,508,508,508,508,508,508,508,508,508,505,466,441,409,364,308,211,167,155,130,116,96],"timestamp_mouse":[10,36,44,64,85,104,125,145,165,184,203,225,245,264,283,304,324,343,365,383,404,425,444,465,483,504,523,545,565,584,603,624,645,664,684,705,723,744,764,784,804,824,844,864,884,904],"xSR":741.5,"ySR":458.25,"xT1":424.9,"yT1":0,"xT2":1058.1,"yT2":0,"toosoon":0,"cond_shown":"equaldotsize","ratio_trial":900,"smaller_num":"9","larger_num":"10","correct_side":2,"subjID":"juanmartinsaavedragaitan6","gender":"0","age":"11","school":"cafam"},{"start_time":1551794757246,"click_time":1551794758082,"finger_time":1551794757801,"fix_duration":1062.8748793265208,"trial":16,"RT":555,"MT":281,"sideResp":2,"stimulus":"img/500/randomdotsizeEA/R/15_Ratio_500_L_1_R_2.png","xmouse":[767,767,767,767,767,767,767,767,767,767,767,767,767,767,767,767,767,767,767,767,767,767,767,767,769,770,774,782,790,799,810,829,880,901,919,938,957,993,1015,1031,1046,1066],"ymouse":[488,488,488,488,488,488,488,488,488,488,488,488,488,488,488,488,488,488,488,488,488,488,488,488,488,484,474,450,424,404,378,347,259,228,208,188,170,140,122,109,97,82],"timestamp_mouse":[17,35,56,76,95,115,137,155,176,196,216,235,257,276,296,315,335,356,377,396,415,436,455,477,495,516,536,555,575,595,617,635,655,675,695,715,735,756,775,795,816,836],"xSR":741.5,"ySR":458.25,"xT1":424.9,"yT1":0,"xT2":1058.1,"yT2":0,"toosoon":0,"cond_shown":"randomdotsizeEA","ratio_trial":500,"smaller_num":"1","larger_num":"2","correct_side":2,"subjID":"juanmartinsaavedragaitan6","gender":"0","age":"11","school":"cafam"},{"start_time":1551794760511,"click_time":1551794762143,"finger_time":1551794761102,"fix_duration":1366.5270546605395,"trial":17,"RT":591,"MT":1041,"sideResp":1,"stimulus":"img/250/equaldotanddens/L/1_Ratio_250_L_8_R_2.png","xmouse":[773,773,773,773,773,773,773,773,773,773,773,773,773,773,773,773,773,773,773,773,773,773,773,773,775,776,776,776,776,768,762,755,752,747,736,732,724,717,714,709,708,707,703,694,637,553,489,440,413,395,392,388,384,381,378,378,378,378,378,379,380,382,388,397,408,414,416,419,419,419,419,419,420,420,420,421,421,422,423,423,424,427],"ymouse":[501,501,501,501,501,501,501,501,501,501,501,501,501,501,501,501,501,501,501,501,501,501,501,501,495,488,484,481,477,455,441,428,419,408,381,363,325,304,285,269,266,265,261,250,214,181,159,146,137,130,128,123,117,111,104,101,100,98,96,94,93,93,90,89,87,87,87,88,88,88,88,88,89,89,89,89,89,89,89,89,88,86],"timestamp_mouse":[12,40,51,72,91,112,131,152,170,190,211,231,251,271,291,311,330,352,370,391,410,432,450,471,490,512,530,551,571,591,610,630,651,672,690,711,730,751,771,790,810,831,851,870,891,910,930,950,970,990,1012,1030,1051,1071,1091,1111,1130,1151,1170,1190,1212,1231,1251,1272,1291,1311,1330,1350,1372,1391,1410,1431,1451,1471,1491,1512,1530,1552,1571,1590,1612,1632],"xSR":741.5,"ySR":458.25,"xT1":424.9,"yT1":0,"xT2":1058.1,"yT2":0,"toosoon":0,"cond_shown":"equaldotanddens","ratio_trial":250,"smaller_num":"2","larger_num":"8","correct_side":1,"subjID":"juanmartinsaavedragaitan6","gender":"0","age":"11","school":"cafam"},{"start_time":1551794765441,"click_time":1551794767121,"finger_time":1551794766041,"fix_duration":757.2755571752357,"trial":18,"RT":600,"MT":1080,"sideResp":1,"stimulus":"img/900/equaldotanddens/L/2_Ratio_900_L_20_R_18.png","xmouse":[774,774,774,774,774,774,775,777,779,780,780,780,780,780,781,783,785,788,794,795,796,796,797,800,802,803,805,807,820,833,858,878,903,955,983,1009,1032,1045,1082,1090,1101,1104,1105,1105,1105,1105,1105,1105,1105,1098,1088,1072,1046,991,967,945,926,904,860,849,846,846,845,838,823,808,795,785,773,725,700,669,634,580,557,542,536,535,535,535,535,534,534,529,523],"ymouse":[524,524,524,524,523,519,517,515,514,513,513,512,511,511,514,520,529,538,545,545,545,545,545,543,540,537,534,530,513,499,475,453,424,358,322,286,255,234,180,169,148,138,131,126,126,126,126,126,125,125,125,129,132,139,142,145,148,152,159,160,160,160,160,159,157,155,154,154,152,145,142,137,133,125,122,120,118,118,118,118,118,117,115,105,97],"timestamp_mouse":[8,20,41,62,80,101,122,142,160,181,200,222,241,262,280,301,321,340,360,382,400,422,440,461,480,500,521,542,560,581,600,622,641,660,680,701,721,740,765,781,800,821,841,861,880,900,921,940,960,980,1000,1021,1041,1060,1080,1100,1121,1142,1161,1180,1202,1220,1240,1261,1281,1302,1322,1342,1360,1380,1400,1420,1440,1460,1481,1501,1521,1542,1560,1581,1602,1621,1641,1660,1680],"xSR":741.5,"ySR":458.25,"xT1":424.9,"yT1":0,"xT2":1058.1,"yT2":0,"toosoon":0,"cond_shown":"equaldotanddens","ratio_trial":900,"smaller_num":"18","larger_num":"20","correct_side":1,"subjID":"juanmartinsaavedragaitan6","gender":"0","age":"11","school":"cafam"},{"start_time":1551794771512,"click_time":1551794772921,"finger_time":1551794772101,"fix_duration":709.4683371830215,"trial":19,"RT":589,"MT":820,"sideResp":2,"stimulus":"img/250/equaldotsize/R/4_Ratio_250_L_3_R_12.png","xmouse":[781,781,781,781,781,781,781,781,781,781,781,781,781,781,782,783,784,785,785,786,786,787,787,787,790,792,793,795,798,803,805,806,807,808,808,808,808,808,808,808,808,808,808,808,808,809,812,818,827,858,872,882,891,898,910,915,916,918,919,927,935,948,961,969,989,1003,1026,1039,1048,1058,1063],"ymouse":[499,499,499,499,499,499,499,499,499,499,499,499,499,499,499,497,497,496,496,495,495,493,493,493,490,486,480,473,467,453,450,446,444,442,442,442,442,442,442,442,442,442,442,442,442,439,430,416,394,331,305,286,260,238,207,196,189,185,181,171,163,155,148,144,130,122,110,101,97,90,86],"timestamp_mouse":[11,35,51,71,90,109,131,149,170,190,210,231,249,271,290,310,329,350,369,390,411,430,451,470,489,510,529,550,570,589,609,629,650,670,690,711,729,751,771,790,810,829,851,869,891,910,929,949,969,989,1009,1030,1050,1071,1090,1110,1129,1150,1170,1190,1209,1229,1250,1270,1289,1311,1329,1350,1370,1390,1409],"xSR":741.5,"ySR":458.25,"xT1":424.9,"yT1":0,"xT2":1058.1,"yT2":0,"toosoon":0,"cond_shown":"equaldotsize","ratio_trial":250,"smaller_num":"3","larger_num":"12","correct_side":2,"subjID":"juanmartinsaavedragaitan6","gender":"0","age":"11","school":"cafam"},{"start_time":1551794777289,"click_time":1551794778621,"finger_time":1551794778001,"fix_duration":846.0975024717392,"trial":20,"RT":712,"MT":620,"sideResp":1,"stimulus":"img/750/randomdotsizeEA/L/13_Ratio_750_L_8_R_6.png","xmouse":[771,771,771,771,771,771,771,771,771,771,771,771,771,771,771,771,771,771,771,771,771,771,771,771,771,771,771,771,771,771,771,771,770,770,762,732,699,651,623,585,477,411,360,299,299,299,299,299,299,299,299,299,299,299,299,299,299,299,299,299,299,299,299,318,337,418,461],"ymouse":[479,479,479,479,479,479,479,479,479,479,479,479,479,479,479,479,479,479,479,479,479,479,479,479,479,479,479,479,479,479,479,479,479,479,479,466,440,362,299,238,122,75,44,11,11,11,11,11,11,11,11,11,11,11,11,11,11,11,11,11,11,11,8,13,18,41,57],"timestamp_mouse":[14,42,53,73,93,112,133,153,174,193,213,232,254,274,294,313,333,352,373,393,414,434,453,472,492,513,532,554,572,593,613,632,653,672,693,712,733,752,772,793,812,832,852,873,893,913,933,953,974,993,1013,1033,1054,1073,1093,1113,1133,1153,1173,1194,1213,1233,1252,1272,1293,1312,1332],"xSR":741.5,"ySR":458.25,"xT1":424.9,"yT1":0,"xT2":1058.1,"yT2":0,"toosoon":0,"cond_shown":"randomdotsizeEA","ratio_trial":750,"smaller_num":"6","larger_num":"8","correct_side":1,"subjID":"juanmartinsaavedragaitan6","gender":"0","age":"11","school":"cafam"},{"start_time":1551794783755,"click_time":1551794784701,"finger_time":1551794784401,"fix_duration":1209.989730603651,"trial":21,"RT":646,"MT":300,"sideResp":1,"stimulus":"img/500/randomdotsizeEA/L/11_Ratio_500_L_12_R_6.png","xmouse":[808,808,808,808,808,808,808,808,808,808,808,808,808,808,808,808,808,808,808,808,808,808,808,808,808,808,808,808,808,808,802,796,744,697,683,682,682,681,675,668,656,637,594,570,556,539,522,508],"ymouse":[502,502,502,502,502,502,502,502,502,502,502,502,502,502,502,502,502,502,502,502,502,502,502,502,502,502,502,502,502,502,485,471,385,319,291,273,256,213,193,179,166,152,130,119,115,110,102,96],"timestamp_mouse":[10,33,47,67,88,108,127,147,168,187,208,227,247,268,288,307,328,346,368,386,406,427,447,466,487,506,526,547,568,587,606,627,646,667,686,707,727,747,766,786,807,827,847,867,886,907,927,946],"xSR":741.5,"ySR":458.25,"xT1":424.9,"yT1":0,"xT2":1058.1,"yT2":0,"toosoon":0,"cond_shown":"randomdotsizeEA","ratio_trial":500,"smaller_num":"6","larger_num":"12","correct_side":1,"subjID":"juanmartinsaavedragaitan6","gender":"0","age":"11","school":"cafam"},{"start_time":1551794786647,"click_time":1551794787602,"finger_time":1551794787321,"fix_duration":904.12528439128,"trial":22,"RT":674,"MT":281,"sideResp":2,"stimulus":"img/750/equaldotanddens/R/3_Ratio_750_L_15_R_20.png","xmouse":[785,785,785,785,785,785,785,785,785,785,785,785,785,785,785,785,785,785,785,785,785,785,785,785,785,785,785,785,785,785,785,790,823,851,882,916,926,976,1031,1066,1107,1124,1129,1129,1130,1134,1138,1149],"ymouse":[500,500,500,500,500,500,500,500,500,500,500,500,500,500,500,500,500,500,500,500,500,500,500,500,500,500,500,500,500,500,500,497,483,471,456,434,424,362,294,261,234,222,220,219,216,198,162,52],"timestamp_mouse":[16,35,55,74,96,115,136,154,175,195,214,234,255,274,295,316,334,354,376,396,415,435,454,475,496,514,536,555,575,595,614,634,655,674,696,716,734,754,776,794,815,853,854,874,895,914,936,955],"xSR":741.5,"ySR":458.25,"xT1":424.9,"yT1":0,"xT2":1058.1,"yT2":0,"toosoon":0,"cond_shown":"equaldotanddens","ratio_trial":750,"smaller_num":"15","larger_num":"20","correct_side":2,"subjID":"juanmartinsaavedragaitan6","gender":"0","age":"11","school":"cafam"},{"start_time":1551794788974,"click_time":1551794790023,"finger_time":1551794789601,"fix_duration":250,"trial":23,"RT":627,"MT":422,"sideResp":1,"stimulus":"img/500/equaldotanddens/L/13_Ratio_500_L_12_R_6.png","xmouse":[776,776,776,776,776,776,776,776,776,776,776,776,776,776,776,776,776,778,780,781,782,783,783,783,783,783,783,783,784,785,785,784,778,766,757,745,708,683,653,626,607,591,586,571,563,557,550,546,542,540,536,529,524],"ymouse":[505,505,505,505,505,505,505,505,505,505,505,505,505,505,505,505,505,503,499,497,495,494,494,494,494,494,494,494,491,486,474,439,414,381,360,331,235,194,157,134,121,111,106,94,87,81,70,66,63,62,62,61,59],"timestamp_mouse":[11,42,47,68,88,108,127,148,169,187,209,228,247,269,289,307,329,347,368,388,408,427,448,469,487,509,528,547,568,588,607,627,648,667,689,707,727,747,768,787,808,828,848,867,887,908,927,947,968,987,1009,1027,1049],"xSR":741.5,"ySR":458.25,"xT1":424.9,"yT1":0,"xT2":1058.1,"yT2":0,"toosoon":0,"cond_shown":"equaldotanddens","ratio_trial":500,"smaller_num":"6","larger_num":"12","correct_side":1,"subjID":"juanmartinsaavedragaitan6","gender":"0","age":"11","school":"cafam"},{"start_time":1551794791842,"click_time":1551794792802,"finger_time":1551794792362,"fix_duration":1039.7454813259108,"trial":24,"RT":520,"MT":440,"sideResp":2,"stimulus":"img/500/equaldotsize/R/2_Ratio_500_L_3_R_6.png","xmouse":[814,814,815,816,817,818,818,819,819,819,819,819,819,819,819,819,819,819,819,820,820,821,822,823,824,826,827,827,827,830,837,852,874,932,959,981,995,1004,1016,1024,1032,1037,1040,1050,1055,1060,1066,1073,1097],"ymouse":[495,494,493,491,490,489,489,488,488,488,488,488,488,488,488,488,488,488,488,486,485,484,482,480,477,467,445,422,389,369,355,339,323,284,267,251,241,232,217,207,194,186,179,156,147,139,129,120,95],"timestamp_mouse":[1,20,40,60,80,100,119,140,160,179,200,221,240,261,281,301,320,340,359,380,401,419,440,459,479,500,520,541,559,580,599,619,640,659,681,699,720,739,760,779,799,821,840,859,879,899,919,941,960],"xSR":741.5,"ySR":458.25,"xT1":424.9,"yT1":0,"xT2":1058.1,"yT2":0,"toosoon":0,"cond_shown":"equaldotsize","ratio_trial":500,"smaller_num":"3","larger_num":"6","correct_side":2,"subjID":"juanmartinsaavedragaitan6","gender":"0","age":"11","school":"cafam"},{"start_time":1551794794170,"click_time":1551794794841,"finger_time":1551794794721,"fix_duration":627.5374648544996,"trial":25,"RT":551,"MT":120,"sideResp":1,"stimulus":"img/250/equaldotanddens/L/7_Ratio_250_L_8_R_2.png","xmouse":[777,777,777,777,777,777,777,777,777,777,777,777,777,777,777,777,777,777,777,777,777,777,777,777,777,777,772,756,727,685,639,535,475,443],"ymouse":[484,484,484,484,484,484,484,484,484,484,484,484,484,484,484,484,484,484,484,484,484,484,484,484,484,484,477,457,423,375,324,200,132,92],"timestamp_mouse":[16,41,52,72,92,111,132,153,173,191,213,232,252,272,293,312,333,351,373,392,413,431,452,473,491,511,532,551,572,592,613,632,652,671],"xSR":741.5,"ySR":458.25,"xT1":424.9,"yT1":0,"xT2":1058.1,"yT2":0,"toosoon":0,"cond_shown":"equaldotanddens","ratio_trial":250,"smaller_num":"2","larger_num":"8","correct_side":1,"subjID":"juanmartinsaavedragaitan6","gender":"0","age":"11","school":"cafam"},{"start_time":1551794796549,"click_time":1551794797282,"finger_time":1551794796901,"fix_duration":644.4341034394614,"trial":26,"RT":352,"MT":381,"sideResp":2,"stimulus":"img/900/equaldotsize/R/11_Ratio_900_L_18_R_20.png","xmouse":[761,761,761,761,761,761,761,761,761,761,761,761,761,762,765,768,772,782,785,788,791,794,803,807,809,810,814,830,854,888,913,924,935,950,985,1021,1064],"ymouse":[493,493,493,493,493,493,493,493,493,493,493,493,490,487,480,474,467,448,444,439,430,423,408,404,401,399,397,380,347,295,248,234,210,190,144,110,75],"timestamp_mouse":[13,32,54,73,93,113,132,154,172,194,213,233,252,273,292,313,333,352,373,393,413,433,453,472,492,514,533,552,572,593,614,634,652,673,692,713,733],"xSR":741.5,"ySR":458.25,"xT1":424.9,"yT1":0,"xT2":1058.1,"yT2":0,"toosoon":0,"cond_shown":"equaldotsize","ratio_trial":900,"smaller_num":"18","larger_num":"20","correct_side":2,"subjID":"juanmartinsaavedragaitan6","gender":"0","age":"11","school":"cafam"},{"start_time":1551794799388,"click_time":1551794800101,"finger_time":1551794799981,"fix_duration":1146.9981855280216,"trial":27,"RT":593,"MT":120,"sideResp":2,"stimulus":"img/250/equaldotanddens/R/11_Ratio_250_L_3_R_12.png","xmouse":[776,776,776,776,776,776,776,777,778,779,779,779,779,779,780,781,781,781,781,782,783,783,785,786,787,789,792,797,802,810,845,877,950,996,1043,1118],"ymouse":[531,531,531,531,531,531,531,530,529,529,528,528,527,526,524,522,522,522,521,520,516,514,511,508,507,501,496,485,473,456,391,335,226,156,93,18],"timestamp_mouse":[15,34,54,74,93,114,135,153,173,195,214,235,253,274,293,313,335,355,374,394,413,434,453,475,494,514,533,553,574,593,614,635,653,674,693,713],"xSR":741.5,"ySR":458.25,"xT1":424.9,"yT1":0,"xT2":1058.1,"yT2":0,"toosoon":0,"cond_shown":"equaldotanddens","ratio_trial":250,"smaller_num":"3","larger_num":"12","correct_side":2,"subjID":"juanmartinsaavedragaitan6","gender":"0","age":"11","school":"cafam"},{"start_time":1551794801861,"click_time":1551794802681,"finger_time":1551794802402,"fix_duration":397.6083271299238,"trial":28,"RT":541,"MT":279,"sideResp":2,"stimulus":"img/250/equaldotanddens/R/13_Ratio_250_L_2_R_8.png","xmouse":[791,791,791,791,791,789,789,788,788,788,788,788,788,788,788,788,787,787,786,786,786,785,785,785,785,785,785,792,800,818,833,838,844,848,857,867,877,910,938,975,1043,1075],"ymouse":[515,515,515,515,515,515,514,513,513,512,511,511,511,511,511,511,510,510,509,509,507,507,506,503,499,494,487,455,433,390,357,335,306,291,271,249,227,180,150,119,73,52],"timestamp_mouse":[10,20,41,60,81,100,121,141,162,181,200,222,241,260,282,301,322,342,361,380,400,420,441,460,481,501,520,541,561,580,601,621,641,660,680,701,722,740,761,781,800,820],"xSR":741.5,"ySR":458.25,"xT1":424.9,"yT1":0,"xT2":1058.1,"yT2":0,"toosoon":0,"cond_shown":"equaldotanddens","ratio_trial":250,"smaller_num":"2","larger_num":"8","correct_side":2,"subjID":"juanmartinsaavedragaitan6","gender":"0","age":"11","school":"cafam"},{"start_time":1551794805792,"click_time":1551794806941,"finger_time":1551794806601,"fix_duration":929.0102179813297,"trial":29,"RT":809,"MT":340,"sideResp":2,"stimulus":"img/250/randomdotsizeEA/R/9_Ratio_250_L_3_R_12.png","xmouse":[813,813,813,813,813,813,813,813,813,813,813,813,813,813,813,813,813,813,813,813,813,813,813,813,813,813,813,813,813,813,813,813,813,813,813,813,813,813,813,813,827,848,872,903,918,935,937,939,941,943,954,965,975,987,999,1029,1047,1066],"ymouse":[504,504,504,504,504,504,504,504,504,504,504,504,504,504,504,504,504,504,504,504,504,504,504,504,504,504,504,504,504,504,504,504,504,504,504,504,504,504,504,502,458,409,358,302,279,252,247,241,238,233,215,194,177,162,148,123,110,96],"timestamp_mouse":[11,41,50,70,89,110,129,150,170,191,210,229,251,270,290,309,331,351,370,390,410,431,449,469,490,510,530,549,571,590,610,630,650,670,690,709,729,750,771,791,809,829,850,871,890,909,929,950,970,991,1010,1031,1049,1069,1089,1110,1129,1149],"xSR":741.5,"ySR":458.25,"xT1":424.9,"yT1":0,"xT2":1058.1,"yT2":0,"toosoon":0,"cond_shown":"randomdotsizeEA","ratio_trial":250,"smaller_num":"3","larger_num":"12","correct_side":2,"subjID":"juanmartinsaavedragaitan6","gender":"0","age":"11","school":"cafam"},{"start_time":1551794808852,"click_time":1551794810103,"finger_time":1551794809502,"fix_duration":1049.5659576443752,"trial":30,"RT":650,"MT":601,"sideResp":1,"stimulus":"img/500/equaldotanddens/L/13_Ratio_500_L_12_R_6.png","xmouse":[803,803,803,803,803,803,803,803,803,803,803,803,803,803,803,803,803,803,803,803,803,803,803,803,803,803,802,799,795,791,784,764,673,620,582,549,526,495,491,484,477,470,459,456,456,459,463,471,476,481,483,484,484,481,480,480,480,480,479,477,475,474,473],"ymouse":[496,496,496,496,496,496,496,496,496,496,496,496,496,496,496,496,496,496,496,496,496,496,496,496,496,496,496,489,482,478,472,461,423,406,389,367,350,328,324,317,308,296,260,241,226,212,203,185,174,160,152,145,142,140,140,140,140,140,139,128,115,104,90],"timestamp_mouse":[11,31,50,71,90,110,131,150,170,190,210,230,250,271,290,310,331,351,371,390,410,430,450,470,490,510,531,550,572,590,610,630,650,670,690,710,731,750,770,790,811,830,850,870,891,910,930,950,971,990,1010,1031,1050,1070,1091,1111,1131,1151,1170,1191,1211,1231,1251],"xSR":741.5,"ySR":458.25,"xT1":424.9,"yT1":0,"xT2":1058.1,"yT2":0,"toosoon":0,"cond_shown":"equaldotanddens","ratio_trial":500,"smaller_num":"6","larger_num":"12","correct_side":1,"subjID":"juanmartinsaavedragaitan6","gender":"0","age":"11","school":"cafam"},{"start_time":1551794813131,"click_time":1551794814042,"finger_time":1551794813783,"fix_duration":528.8944363843618,"trial":31,"RT":652,"MT":259,"sideResp":1,"stimulus":"img/750/randomdotsizeEA/L/14_Ratio_750_L_8_R_6.png","xmouse":[764,764,764,764,764,764,764,764,764,764,764,764,764,764,764,764,764,764,764,764,764,764,764,764,766,768,779,784,785,785,785,786,787,781,774,738,712,682,642,630,620,611,600,554,505,433],"ymouse":[517,517,517,517,517,517,517,517,517,517,517,517,517,517,517,517,517,517,517,517,517,517,517,517,513,509,490,482,479,476,471,460,446,393,378,332,313,292,268,257,248,235,221,163,113,63],"timestamp_mouse":[11,37,52,73,91,111,131,151,171,191,211,232,251,272,291,312,332,351,371,392,412,432,451,471,492,512,532,551,572,591,611,632,652,671,692,711,731,752,771,791,812,831,851,871,892,911],"xSR":741.5,"ySR":458.25,"xT1":424.9,"yT1":0,"xT2":1058.1,"yT2":0,"toosoon":0,"cond_shown":"randomdotsizeEA","ratio_trial":750,"smaller_num":"6","larger_num":"8","correct_side":1,"subjID":"juanmartinsaavedragaitan6","gender":"0","age":"11","school":"cafam"},{"start_time":1551794816260,"click_time":1551794816962,"finger_time":1551794816862,"fix_duration":1035.198761096502,"trial":32,"RT":602,"MT":100,"sideResp":1,"stimulus":"img/250/randomdotsizeEA/L/5_Ratio_250_L_24_R_6.png","xmouse":[810,810,810,810,810,810,810,810,810,810,810,810,805,800,798,797,797,797,797,797,797,797,797,797,797,797,796,796,793,780,761,724,614,567,534,517],"ymouse":[505,505,505,505,505,505,505,505,505,505,505,505,505,505,505,505,505,505,505,505,505,505,505,505,505,505,505,505,503,482,454,402,245,172,111,71],"timestamp_mouse":[10,23,42,62,84,103,122,143,162,182,202,222,242,262,283,303,322,342,362,382,403,423,442,463,482,503,523,542,562,582,602,622,642,662,683,702],"xSR":741.5,"ySR":458.25,"xT1":424.9,"yT1":0,"xT2":1058.1,"yT2":0,"toosoon":0,"cond_shown":"randomdotsizeEA","ratio_trial":250,"smaller_num":"6","larger_num":"24","correct_side":1,"subjID":"juanmartinsaavedragaitan6","gender":"0","age":"11","school":"cafam"},{"start_time":1551794818754,"click_time":1551794820103,"finger_time":1551794819362,"fix_duration":1030.5743103743816,"trial":33,"RT":608,"MT":741,"sideResp":1,"stimulus":"img/900/equaldotsize/R/5_Ratio_900_L_9_R_10.png","xmouse":[785,785,785,785,785,785,785,785,785,785,785,785,785,785,785,785,785,785,785,785,785,785,785,785,785,785,785,785,786,788,793,799,810,816,820,824,826,826,827,827,827,827,827,827,826,823,816,794,770,733,688,626,555,555,555,555,555,555,555,555,555,555,555,555,555,555,421,468],"ymouse":[500,500,500,500,500,500,500,500,500,500,500,500,500,500,500,500,500,500,500,500,500,500,500,500,500,499,494,481,470,461,451,437,415,403,394,382,378,373,372,371,371,371,371,371,370,367,362,335,300,236,164,84,12,12,12,12,12,12,12,12,12,12,12,12,12,12,3,43],"timestamp_mouse":[15,28,48,69,88,108,129,148,168,188,208,229,248,268,289,309,328,348,370,388,408,428,448,468,490,508,528,548,568,589,608,628,648,669,688,708,728,748,768,788,809,828,849,868,888,909,929,948,968,988,1008,1029,1049,1068,1088,1109,1129,1148,1168,1188,1209,1228,1248,1268,1289,1309,1328,1349],"xSR":741.5,"ySR":458.25,"xT1":424.9,"yT1":0,"xT2":1058.1,"yT2":0,"toosoon":0,"cond_shown":"equaldotsize","ratio_trial":900,"smaller_num":"9","larger_num":"10","correct_side":2,"subjID":"juanmartinsaavedragaitan6","gender":"0","age":"11","school":"cafam"},{"start_time":1551794825489,"click_time":1551794826502,"finger_time":1551794826383,"fix_duration":1285.7341668333095,"trial":34,"RT":894,"MT":119,"sideResp":2,"stimulus":"img/500/equaldotanddens/R/15_Ratio_500_L_1_R_2.png","xmouse":[785,785,785,785,785,785,785,785,785,785,785,785,785,785,785,785,785,785,785,785,785,785,785,785,785,782,781,780,780,779,779,779,779,779,779,779,779,779,779,779,779,788,800,815,844,900,941,954,1007,1042,1109],"ymouse":[507,507,507,507,507,507,507,507,507,507,507,507,507,507,507,507,507,507,507,507,507,507,507,507,507,507,507,507,508,508,509,509,509,509,509,509,509,509,509,509,509,503,491,473,438,338,240,209,127,83,7],"timestamp_mouse":[20,34,54,74,93,115,134,154,173,193,213,233,253,273,293,314,333,353,373,393,413,433,454,473,493,513,534,553,574,594,613,634,653,674,693,713,733,753,773,793,813,833,853,873,894,913,933,953,974,993,1013],"xSR":741.5,"ySR":458.25,"xT1":424.9,"yT1":0,"xT2":1058.1,"yT2":0,"toosoon":0,"cond_shown":"equaldotanddens","ratio_trial":500,"smaller_num":"1","larger_num":"2","correct_side":2,"subjID":"juanmartinsaavedragaitan6","gender":"0","age":"11","school":"cafam"},{"start_time":1551794827912,"click_time":1551794829003,"finger_time":1551794828202,"fix_duration":429.5758861560197,"trial":35,"RT":290,"MT":801,"sideResp":1,"stimulus":"img/500/randomdotsizeEA/L/13_Ratio_500_L_12_R_6.png","xmouse":[751,753,754,765,770,780,784,788,791,794,797,802,807,810,810,810,811,811,811,811,811,811,811,811,811,811,811,811,811,811,809,793,777,733,695,682,682,680,666,653,642,636,631,612,575,537,483,459,443,443,443,442,440,431],"ymouse":[482,482,481,478,477,475,474,472,471,469,467,462,459,456,456,456,456,456,456,456,456,456,456,456,456,456,456,456,456,455,451,438,422,368,294,243,211,191,163,151,145,142,141,136,129,124,120,116,112,112,112,111,107,95],"timestamp_mouse":[31,50,71,90,110,130,150,170,190,210,230,250,271,290,311,330,350,371,391,410,431,450,471,491,511,530,551,571,591,610,630,651,671,690,710,730,750,770,790,811,832,851,870,890,911,931,950,971,990,1010,1030,1050,1070,1091],"xSR":741.5,"ySR":458.25,"xT1":424.9,"yT1":0,"xT2":1058.1,"yT2":0,"toosoon":0,"cond_shown":"randomdotsizeEA","ratio_trial":500,"smaller_num":"6","larger_num":"12","correct_side":1,"subjID":"juanmartinsaavedragaitan6","gender":"0","age":"11","school":"cafam"},{"start_time":1551794831090,"click_time":1551794832102,"finger_time":1551794831742,"fix_duration":1005.1605508411969,"trial":36,"RT":652,"MT":360,"sideResp":2,"stimulus":"img/750/equaldotanddens/R/4_Ratio_750_L_15_R_20.png","xmouse":[778,778,778,778,778,778,778,778,778,778,778,778,778,778,778,778,778,778,778,778,778,778,778,778,778,778,778,778,778,787,805,824,848,874,906,1002,1084,1107,1142,1152,1157,1157,1157,1157,1155,1149,1143,1142,1138,1134,1123],"ymouse":[502,502,502,502,502,502,502,502,502,502,502,502,502,502,502,502,502,502,502,502,502,502,502,502,502,502,502,502,500,491,473,459,438,412,382,293,223,204,173,159,140,135,132,130,128,125,123,122,119,113,96],"timestamp_mouse":[12,42,53,73,94,112,132,153,173,192,213,233,252,272,292,312,332,352,373,392,412,432,452,473,493,512,532,552,573,592,612,632,652,672,692,712,732,752,772,792,812,833,852,872,893,912,933,952,973,992,1012],"xSR":741.5,"ySR":458.25,"xT1":424.9,"yT1":0,"xT2":1058.1,"yT2":0,"toosoon":0,"cond_shown":"equaldotanddens","ratio_trial":750,"smaller_num":"15","larger_num":"20","correct_side":2,"subjID":"juanmartinsaavedragaitan6","gender":"0","age":"11","school":"cafam"},{"start_time":1551794834231,"click_time":1551794835302,"finger_time":1551794835002,"fix_duration":1228.578007390563,"trial":37,"RT":771,"MT":300,"sideResp":2,"stimulus":"img/250/equaldotanddens/R/8_Ratio_250_L_1_R_4.png","xmouse":[799,799,799,799,799,799,799,799,799,799,799,799,799,799,799,799,799,799,799,799,799,799,799,799,799,799,799,799,799,799,799,799,799,799,799,799,801,805,940,1007,1033,1065,1079,1088,1088,1089,1092,1097,1114,1134,1144,1151,1152,1152],"ymouse":[525,525,525,525,525,525,525,525,525,525,525,525,525,525,525,525,525,525,525,525,525,525,525,525,525,525,525,525,525,525,525,525,525,525,525,525,524,521,435,393,380,363,351,309,291,275,261,243,199,161,136,117,106,96],"timestamp_mouse":[11,35,52,71,91,111,132,152,171,191,212,232,252,271,291,311,331,352,371,391,412,432,452,472,492,512,532,551,571,591,611,631,651,671,691,711,731,752,771,792,811,832,851,871,891,911,931,951,971,991,1011,1032,1051,1071],"xSR":741.5,"ySR":458.25,"xT1":424.9,"yT1":0,"xT2":1058.1,"yT2":0,"toosoon":0,"cond_shown":"equaldotanddens","ratio_trial":250,"smaller_num":"1","larger_num":"4","correct_side":2,"subjID":"juanmartinsaavedragaitan6","gender":"0","age":"11","school":"cafam"},{"start_time":1551794836894,"click_time":1551794838302,"finger_time":1551794837562,"fix_duration":250,"trial":38,"RT":668,"MT":740,"sideResp":2,"stimulus":"img/500/equaldotanddens/R/15_Ratio_500_L_1_R_2.png","xmouse":[790,790,790,790,790,790,790,790,790,790,790,790,790,790,790,790,790,790,790,790,790,790,790,790,790,790,790,790,790,790,796,815,836,856,875,910,926,939,942,943,950,956,959,963,966,984,996,1014,1027,1041,1073,1096,1116,1126,1129,1130,1130,1130,1130,1130,1130,1130,1130,1130,1130,1130,1130,1130,1130,1130,1128],"ymouse":[522,522,522,522,522,522,522,522,522,522,522,522,522,522,522,522,522,522,522,522,522,522,522,522,522,522,522,522,522,522,517,500,484,468,452,424,412,403,401,400,387,377,370,362,353,314,293,263,239,217,175,153,133,122,115,109,109,109,109,109,109,109,109,109,109,109,109,109,108,100,48],"timestamp_mouse":[10,37,48,69,88,109,128,149,169,188,208,228,248,268,288,308,329,348,368,388,408,428,448,469,488,509,528,548,569,588,608,628,649,668,689,708,729,748,769,788,808,829,848,868,889,908,929,948,969,988,1008,1029,1048,1068,1088,1108,1128,1149,1168,1188,1208,1229,1248,1268,1288,1308,1328,1348,1369,1388,1408],"xSR":741.5,"ySR":458.25,"xT1":424.9,"yT1":0,"xT2":1058.1,"yT2":0,"toosoon":0,"cond_shown":"equaldotanddens","ratio_trial":500,"smaller_num":"1","larger_num":"2","correct_side":2,"subjID":"juanmartinsaavedragaitan6","gender":"0","age":"11","school":"cafam"},{"start_time":1551794839459,"click_time":1551794840302,"finger_time":1551794840082,"fix_duration":256.6920515507922,"trial":39,"RT":623,"MT":220,"sideResp":2,"stimulus":"img/250/randomdotsizeEA/R/9_Ratio_250_L_3_R_12.png","xmouse":[776,776,776,776,776,776,776,776,776,776,776,776,776,776,776,776,776,776,776,776,776,776,776,776,776,776,776,776,776,776,777,780,804,831,865,914,958,1030,1067,1082,1092,1097,1101],"ymouse":[486,486,486,486,486,486,486,486,486,486,486,486,486,486,486,486,486,486,486,486,486,486,486,486,486,486,486,486,483,474,464,449,390,351,311,265,232,182,149,131,117,103,70],"timestamp_mouse":[10,23,43,63,83,103,124,143,163,184,204,224,243,263,284,303,324,343,363,383,404,424,443,465,483,503,523,543,563,583,603,623,643,663,683,703,723,743,764,784,803,823,843],"xSR":741.5,"ySR":458.25,"xT1":424.9,"yT1":0,"xT2":1058.1,"yT2":0,"toosoon":0,"cond_shown":"randomdotsizeEA","ratio_trial":250,"smaller_num":"3","larger_num":"12","correct_side":2,"subjID":"juanmartinsaavedragaitan6","gender":"0","age":"11","school":"cafam"},{"start_time":1551794842038,"click_time":1551794842902,"finger_time":1551794842682,"fix_duration":250,"trial":40,"RT":644,"MT":220,"sideResp":2,"stimulus":"img/250/randomdotsizeEA/R/4_Ratio_250_L_3_R_12.png","xmouse":[796,796,796,796,796,796,796,796,796,796,796,796,796,796,796,796,796,796,796,796,796,796,796,796,796,796,796,796,796,796,796,802,847,983,1030,1041,1042,1043,1048,1060,1068,1080,1093,1109],"ymouse":[494,494,494,494,494,494,494,494,494,494,494,494,494,494,494,494,494,494,494,494,494,494,494,494,494,494,494,494,494,494,491,472,400,246,214,204,201,200,188,170,159,143,123,93],"timestamp_mouse":[10,34,44,64,84,104,125,144,165,184,204,224,244,264,286,306,325,344,364,385,404,425,444,464,485,504,526,545,565,584,604,624,644,664,684,704,724,745,764,784,805,825,844,864],"xSR":741.5,"ySR":458.25,"xT1":424.9,"yT1":0,"xT2":1058.1,"yT2":0,"toosoon":0,"cond_shown":"randomdotsizeEA","ratio_trial":250,"smaller_num":"3","larger_num":"12","correct_side":2,"subjID":"juanmartinsaavedragaitan6","gender":"0","age":"11","school":"cafam"},{"start_time":1551794844075,"click_time":1551794845184,"finger_time":1551794844523,"fix_duration":250,"trial":41,"RT":448,"MT":661,"sideResp":1,"stimulus":"img/750/equaldotsize/L/1_Ratio_750_L_20_R_15.png","xmouse":[802,802,802,802,802,802,802,802,802,802,802,802,802,802,802,802,802,802,803,805,808,811,812,813,814,814,814,811,808,798,788,751,714,656,587,494,281,166,131,122,121,121,125,130,130,130,130,130,130,130,130,130,130,392,413,428],"ymouse":[508,508,508,508,508,508,508,508,508,508,508,508,508,508,508,508,508,505,494,490,481,465,458,452,448,441,437,435,433,430,427,411,392,363,325,271,154,75,44,28,23,13,7,3,3,3,3,3,3,3,3,3,3,10,18,24],"timestamp_mouse":[8,43,48,67,88,109,127,147,167,187,208,227,248,268,288,307,327,347,367,387,407,427,448,467,487,508,527,547,567,587,607,628,647,667,687,707,728,747,767,788,807,827,847,867,887,908,928,948,967,988,1008,1028,1048,1068,1088,1109],"xSR":741.5,"ySR":458.25,"xT1":424.9,"yT1":0,"xT2":1058.1,"yT2":0,"toosoon":0,"cond_shown":"equaldotsize","ratio_trial":750,"smaller_num":"15","larger_num":"20","correct_side":1,"subjID":"juanmartinsaavedragaitan6","gender":"0","age":"11","school":"cafam"},{"start_time":1551794846644,"click_time":1551794847583,"finger_time":1551794847242,"fix_duration":341.45221735261623,"trial":42,"RT":598,"MT":341,"sideResp":1,"stimulus":"img/500/equaldotsize/L/8_Ratio_500_L_8_R_4.png","xmouse":[760,760,760,760,760,760,760,760,760,760,760,760,760,760,760,760,760,760,760,760,760,760,760,760,760,760,760,758,753,725,687,632,540,521,513,510,508,508,508,508,508,508,508,508,507,504,501],"ymouse":[492,492,492,492,492,492,492,492,492,492,492,492,492,492,492,492,492,492,492,492,492,492,492,492,492,492,492,489,483,460,431,396,325,306,289,275,261,237,222,207,191,176,146,130,116,102,91],"timestamp_mouse":[19,38,58,79,98,119,139,159,178,199,219,238,258,280,299,319,338,359,379,398,418,439,458,478,500,518,539,559,579,598,619,638,658,678,698,719,738,758,778,798,818,838,858,878,898,919,939],"xSR":741.5,"ySR":458.25,"xT1":424.9,"yT1":0,"xT2":1058.1,"yT2":0,"toosoon":0,"cond_shown":"equaldotsize","ratio_trial":500,"smaller_num":"4","larger_num":"8","correct_side":1,"subjID":"juanmartinsaavedragaitan6","gender":"0","age":"11","school":"cafam"},{"start_time":1551794851361,"click_time":1551794852302,"finger_time":1551794851842,"fix_duration":1416.1443793733124,"trial":43,"RT":481,"MT":460,"sideResp":1,"stimulus":"img/900/randomdotsizeEA/L/1_Ratio_900_L_10_R_9.png","xmouse":[780,775,774,773,773,773,773,773,773,773,773,773,773,773,773,773,773,773,773,773,773,772,767,761,758,751,739,699,686,679,672,667,658,653,647,646,643,641,641,641,637,628,602,585,571,554,529,490],"ymouse":[511,510,508,507,507,507,507,507,507,507,507,507,507,507,507,507,507,507,507,507,507,505,496,474,452,414,343,207,168,137,115,101,80,72,60,54,48,42,42,41,41,41,43,46,48,48,48,48],"timestamp_mouse":[2,33,41,62,81,102,121,141,161,181,201,221,242,261,281,301,321,342,362,382,401,423,441,462,481,502,521,542,562,581,601,622,641,662,681,701,721,742,761,782,801,822,841,862,882,901,921,941],"xSR":741.5,"ySR":458.25,"xT1":424.9,"yT1":0,"xT2":1058.1,"yT2":0,"toosoon":0,"cond_shown":"randomdotsizeEA","ratio_trial":900,"smaller_num":"9","larger_num":"10","correct_side":1,"subjID":"juanmartinsaavedragaitan6","gender":"0","age":"11","school":"cafam"},{"start_time":1551794857793,"click_time":1551794859202,"finger_time":1551794858802,"fix_duration":1208.6289508444754,"trial":44,"RT":1009,"MT":400,"sideResp":1,"stimulus":"img/250/equaldotsize/L/3_Ratio_250_L_8_R_2.png","xmouse":[790,790,790,790,790,790,790,790,790,790,790,790,790,790,790,790,790,790,790,790,790,790,790,790,790,786,785,785,785,785,785,785,785,785,785,785,785,785,785,785,785,785,785,785,784,783,779,772,766,758,697,651,606,595,590,586,586,585,583,582,580,580,580,578,575,562,552,543,537,534,524],"ymouse":[472,472,472,472,472,472,472,472,472,472,472,472,472,472,472,472,472,472,472,472,472,472,472,472,472,471,471,471,471,471,471,471,471,471,471,471,471,471,471,471,471,471,471,471,471,471,472,473,473,469,394,333,270,250,239,215,205,196,187,179,169,165,149,138,124,94,80,69,63,60,54],"timestamp_mouse":[10,38,49,70,90,110,129,149,170,190,209,231,249,271,289,309,329,350,369,390,409,429,449,470,490,509,530,550,570,589,609,630,649,671,690,709,730,749,769,789,809,829,849,870,890,910,929,949,969,989,1009,1029,1050,1070,1089,1109,1129,1149,1169,1189,1209,1229,1249,1270,1289,1310,1329,1349,1369,1390,1409],"xSR":741.5,"ySR":458.25,"xT1":424.9,"yT1":0,"xT2":1058.1,"yT2":0,"toosoon":0,"cond_shown":"equaldotsize","ratio_trial":250,"smaller_num":"2","larger_num":"8","correct_side":1,"subjID":"juanmartinsaavedragaitan6","gender":"0","age":"11","school":"cafam"},{"start_time":1551794862420,"click_time":1551794863742,"finger_time":1551794863383,"fix_duration":676.724023568752,"trial":45,"RT":963,"MT":359,"sideResp":1,"stimulus":"img/750/equaldotanddens/L/13_Ratio_750_L_8_R_6.png","xmouse":[795,793,793,792,790,790,790,790,790,790,790,790,790,790,790,790,790,790,790,790,790,790,790,790,790,790,790,790,790,790,790,790,790,790,790,790,790,790,790,790,790,790,790,789,789,784,779,758,728,666,636,612,594,578,548,530,515,502,491,478,472,469,468,468,469,469,469],"ymouse":[489,491,491,492,494,494,494,494,494,494,494,494,494,494,494,494,494,494,494,494,494,494,494,494,494,494,494,494,494,494,494,494,494,494,494,494,494,494,494,494,494,494,494,494,494,491,485,464,437,383,355,335,319,302,267,246,227,210,195,171,161,150,143,135,113,102,95],"timestamp_mouse":[2,31,42,62,82,102,122,142,163,182,202,223,242,263,282,302,323,342,363,383,403,423,443,462,482,502,523,544,563,582,604,623,643,662,682,703,722,742,763,782,804,823,843,863,883,902,923,942,963,982,1003,1023,1043,1062,1082,1102,1122,1142,1163,1182,1202,1222,1242,1263,1283,1302,1322],"xSR":741.5,"ySR":458.25,"xT1":424.9,"yT1":0,"xT2":1058.1,"yT2":0,"toosoon":0,"cond_shown":"equaldotanddens","ratio_trial":750,"smaller_num":"6","larger_num":"8","correct_side":1,"subjID":"juanmartinsaavedragaitan6","gender":"0","age":"11","school":"cafam"},{"start_time":1551794865461,"click_time":1551794867702,"finger_time":1551794867642,"fix_duration":558.7721939474362,"trial":46,"RT":2181,"MT":60,"sideResp":1,"stimulus":"img/900/equaldotanddens/R/14_Ratio_900_L_18_R_20.png","xmouse":[824,824,824,824,824,824,824,824,824,824,824,824,824,824,824,824,824,824,824,824,824,824,824,824,824,824,824,824,824,824,824,824,824,824,824,824,824,824,824,824,824,824,824,824,824,824,824,824,824,824,824,824,824,824,824,824,824,824,824,824,824,824,824,824,824,824,824,824,824,824,824,824,824,824,824,824,824,824,824,824,824,824,824,824,824,824,824,824,824,824,824,824,824,824,824,824,824,824,824,824,824,824,824,824,824,824,824,822,820,791,694,613,507],"ymouse":[521,521,521,521,521,521,521,521,521,521,521,521,521,521,521,521,521,521,521,521,521,521,521,521,521,521,521,521,521,521,521,521,521,521,521,521,521,521,521,521,521,521,521,521,521,521,521,521,521,521,521,521,521,521,521,521,521,521,521,521,521,521,521,521,521,521,521,521,521,521,521,521,521,521,521,521,521,521,521,521,521,521,521,521,521,521,521,521,521,521,521,521,521,521,521,521,521,521,521,521,521,521,521,521,521,521,521,521,514,455,294,165,6],"timestamp_mouse":[10,21,42,62,82,101,121,141,161,181,201,222,242,262,282,301,321,341,361,381,401,421,441,463,482,501,521,541,562,582,601,621,641,661,681,701,721,741,761,781,801,821,842,861,881,901,921,941,961,982,1002,1022,1041,1061,1081,1101,1122,1141,1162,1181,1201,1221,1241,1261,1281,1301,1321,1341,1362,1381,1401,1422,1441,1462,1481,1502,1521,1541,1563,1582,1601,1622,1641,1661,1682,1702,1721,1742,1761,1781,1802,1821,1842,1862,1881,1902,1921,1941,1961,1981,2001,2021,2042,2062,2082,2102,2121,2142,2162,2181,2201,2221,2241],"xSR":741.5,"ySR":458.25,"xT1":424.9,"yT1":0,"xT2":1058.1,"yT2":0,"toosoon":0,"cond_shown":"equaldotanddens","ratio_trial":900,"smaller_num":"18","larger_num":"20","correct_side":2,"subjID":"juanmartinsaavedragaitan6","gender":"0","age":"11","school":"cafam"},{"start_time":1551794869453,"click_time":1551794870443,"finger_time":1551794870042,"fix_duration":250,"trial":47,"RT":589,"MT":401,"sideResp":1,"stimulus":"img/750/equaldotsize/L/8_Ratio_750_L_4_R_3.png","xmouse":[802,802,802,802,802,802,802,802,802,802,802,802,802,802,802,802,802,802,802,802,802,802,802,801,801,801,801,800,793,782,772,757,737,736,736,741,741,734,729,723,718,709,650,588,544,512,493,465,459,454],"ymouse":[520,520,520,520,520,520,520,520,520,520,520,520,520,520,520,520,520,520,520,520,519,519,519,518,514,511,500,478,462,441,425,405,360,332,303,269,246,217,212,209,208,207,200,192,179,166,154,125,110,78],"timestamp_mouse":[10,33,50,69,89,109,129,149,169,189,209,229,249,270,289,310,330,349,369,390,409,429,449,469,490,509,530,549,570,589,610,629,649,669,689,710,730,749,769,789,809,829,849,869,889,909,929,949,969,989],"xSR":741.5,"ySR":458.25,"xT1":424.9,"yT1":0,"xT2":1058.1,"yT2":0,"toosoon":0,"cond_shown":"equaldotsize","ratio_trial":750,"smaller_num":"3","larger_num":"4","correct_side":1,"subjID":"juanmartinsaavedragaitan6","gender":"0","age":"11","school":"cafam"},{"start_time":1551794871943,"click_time":1551794873343,"finger_time":1551794872783,"fix_duration":497.2722656960268,"trial":48,"RT":840,"MT":560,"sideResp":1,"stimulus":"img/900/equaldotanddens/R/9_Ratio_900_L_18_R_20.png","xmouse":[753,753,753,753,753,753,753,753,753,753,753,753,753,753,753,753,753,753,753,753,753,753,753,753,753,753,753,753,753,753,753,753,753,753,753,753,753,753,754,760,771,779,789,808,810,810,809,801,769,745,724,698,674,613,563,491,454,422,388,384,382,381,380,380,380,380,380,380,380,397,445],"ymouse":[520,520,520,520,520,520,520,520,520,520,520,520,520,520,520,520,520,520,520,520,520,520,520,520,520,520,520,520,520,520,520,520,520,520,520,520,520,520,519,507,489,471,445,385,377,364,359,350,330,318,306,290,277,242,212,173,143,115,73,56,40,28,15,2,2,2,2,2,2,1,28],"timestamp_mouse":[1,19,39,60,80,99,119,139,160,180,201,219,239,260,279,300,319,340,359,380,399,421,440,459,479,500,521,540,560,579,600,619,639,659,679,700,720,740,759,779,799,819,840,859,880,899,919,939,960,979,999,1020,1040,1059,1079,1099,1119,1139,1159,1180,1199,1219,1240,1260,1280,1299,1320,1339,1359,1379,1400],"xSR":741.5,"ySR":458.25,"xT1":424.9,"yT1":0,"xT2":1058.1,"yT2":0,"toosoon":0,"cond_shown":"equaldotanddens","ratio_trial":900,"smaller_num":"18","larger_num":"20","correct_side":2,"subjID":"juanmartinsaavedragaitan6","gender":"0","age":"11","school":"cafam"},{"start_time":1551794874817,"click_time":1551794875802,"finger_time":1551794875382,"fix_duration":714.3688569748352,"trial":49,"RT":565,"MT":420,"sideResp":2,"stimulus":"img/750/randomdotsizeEA/R/3_Ratio_750_L_15_R_20.png","xmouse":[821,821,821,821,821,821,821,821,821,821,821,821,821,821,821,821,821,821,821,821,821,821,821,820,820,820,820,825,836,860,871,889,908,944,1074,1150,1198,1227,1238,1242,1242,1241,1239,1238,1237,1237,1234,1217,1182,1110],"ymouse":[519,519,519,519,519,519,519,519,519,519,519,519,519,519,519,519,519,519,519,519,519,513,506,499,483,479,473,462,441,404,386,356,325,280,163,108,72,51,41,34,34,34,34,34,34,34,34,36,42,65],"timestamp_mouse":[9,35,46,66,85,105,126,145,165,185,205,226,245,267,285,306,325,346,366,385,405,425,446,465,485,505,526,545,565,585,605,626,645,665,685,706,725,745,765,785,805,825,845,865,885,905,925,945,966,985],"xSR":741.5,"ySR":458.25,"xT1":424.9,"yT1":0,"xT2":1058.1,"yT2":0,"toosoon":0,"cond_shown":"randomdotsizeEA","ratio_trial":750,"smaller_num":"15","larger_num":"20","correct_side":2,"subjID":"juanmartinsaavedragaitan6","gender":"0","age":"11","school":"cafam"},{"start_time":1551794877016,"click_time":1551794878002,"finger_time":1551794877623,"fix_duration":371.3493475242896,"trial":50,"RT":607,"MT":379,"sideResp":2,"stimulus":"img/250/equaldotanddens/R/6_Ratio_250_L_6_R_24.png","xmouse":[805,805,805,805,805,805,805,805,805,805,805,805,805,805,805,805,805,805,805,805,805,805,805,805,805,805,805,805,810,824,851,874,904,948,1105,1189,1256,1292,1305,1310,1309,1302,1296,1288,1271,1260,1250,1233,1212,1144],"ymouse":[493,493,493,493,493,493,493,493,493,493,493,493,493,493,493,493,493,493,493,493,493,493,493,493,493,493,493,493,487,468,433,406,375,333,232,189,161,145,134,118,99,85,69,53,28,16,10,5,3,11],"timestamp_mouse":[8,33,47,67,86,107,127,147,167,186,207,227,247,268,286,306,327,346,366,386,406,428,447,467,486,507,526,547,567,586,607,626,646,666,686,707,726,746,767,787,806,826,847,866,887,907,926,947,967,986],"xSR":741.5,"ySR":458.25,"xT1":424.9,"yT1":0,"xT2":1058.1,"yT2":0,"toosoon":0,"cond_shown":"equaldotanddens","ratio_trial":250,"smaller_num":"6","larger_num":"24","correct_side":2,"subjID":"juanmartinsaavedragaitan6","gender":"0","age":"11","school":"cafam"},{"start_time":1551794879053,"click_time":1551794880282,"finger_time":1551794879903,"fix_duration":250,"trial":51,"RT":850,"MT":379,"sideResp":1,"stimulus":"img/900/equaldotanddens/R/5_Ratio_900_L_9_R_10.png","xmouse":[751,751,751,751,751,751,751,751,751,751,751,751,751,751,751,751,751,751,751,751,751,751,751,751,751,751,751,751,751,751,751,751,751,751,751,751,751,751,751,751,751,751,742,736,725,711,695,657,629,620,612,608,596,588,582,573,564,550,536,524,509,492],"ymouse":[491,491,491,491,491,491,491,491,491,491,491,491,491,491,491,491,491,491,491,491,491,491,491,491,491,491,491,491,491,491,491,491,491,491,491,491,491,491,491,489,486,478,445,426,405,384,365,327,300,285,271,261,241,230,221,209,197,173,146,126,105,87],"timestamp_mouse":[9,34,50,69,90,109,130,149,169,190,209,229,249,269,289,310,330,350,369,390,409,429,450,469,490,509,529,549,570,589,609,629,649,669,689,709,729,750,769,789,810,829,850,870,889,909,930,949,969,989,1009,1029,1049,1069,1089,1109,1129,1149,1169,1189,1210,1229],"xSR":741.5,"ySR":458.25,"xT1":424.9,"yT1":0,"xT2":1058.1,"yT2":0,"toosoon":0,"cond_shown":"equaldotanddens","ratio_trial":900,"smaller_num":"9","larger_num":"10","correct_side":2,"subjID":"juanmartinsaavedragaitan6","gender":"0","age":"11","school":"cafam"},{"start_time":1551794882477,"click_time":1551794883443,"finger_time":1551794883102,"fix_duration":1474.4830325182904,"trial":52,"RT":625,"MT":341,"sideResp":1,"stimulus":"img/250/randomdotsizeEA/L/14_Ratio_250_L_12_R_3.png","xmouse":[809,809,809,809,809,809,810,810,810,810,810,810,810,810,810,810,812,812,813,814,815,819,820,821,822,822,822,822,823,823,823,818,803,776,746,719,679,666,659,651,645,636,632,623,614,602,570,553,524],"ymouse":[501,501,501,501,501,501,501,501,501,501,501,500,499,499,499,498,497,496,493,492,491,483,479,478,477,476,476,476,475,472,466,433,397,346,296,248,166,120,99,83,75,69,67,65,63,61,57,54,50],"timestamp_mouse":[10,37,45,66,86,106,127,145,166,185,205,225,246,266,285,306,325,346,365,386,405,425,445,465,486,505,525,545,566,586,605,625,645,665,685,706,725,744,765,785,805,825,846,865,885,905,925,946,965],"xSR":741.5,"ySR":458.25,"xT1":424.9,"yT1":0,"xT2":1058.1,"yT2":0,"toosoon":0,"cond_shown":"randomdotsizeEA","ratio_trial":250,"smaller_num":"3","larger_num":"12","correct_side":1,"subjID":"juanmartinsaavedragaitan6","gender":"0","age":"11","school":"cafam"},{"start_time":1551794885181,"click_time":1551794886125,"finger_time":1551794885682,"fix_duration":538.5739153234429,"trial":53,"RT":501,"MT":443,"sideResp":2,"stimulus":"img/750/equaldotanddens/R/4_Ratio_750_L_15_R_20.png","xmouse":[816,816,816,816,816,816,816,816,816,816,816,816,816,816,816,816,816,816,815,815,814,808,802,785,770,755,743,743,743,743,743,759,776,793,811,833,876,893,910,926,939,964,978,987,998,1010,1044,1069],"ymouse":[508,508,508,508,508,508,508,508,508,508,508,508,508,508,508,508,508,508,508,507,502,493,486,473,462,449,438,437,437,435,427,400,375,357,336,310,266,249,233,214,200,172,154,142,129,115,85,68],"timestamp_mouse":[9,36,42,62,81,101,121,141,162,181,201,221,241,262,281,302,321,341,361,381,402,421,441,461,481,501,521,541,561,581,602,621,642,661,682,701,721,741,761,781,802,821,841,861,881,901,921,944],"xSR":741.5,"ySR":458.25,"xT1":424.9,"yT1":0,"xT2":1058.1,"yT2":0,"toosoon":0,"cond_shown":"equaldotanddens","ratio_trial":750,"smaller_num":"15","larger_num":"20","correct_side":2,"subjID":"juanmartinsaavedragaitan6","gender":"0","age":"11","school":"cafam"},{"start_time":1551794887619,"click_time":1551794888442,"finger_time":1551794888022,"fix_duration":316.789374481514,"trial":54,"RT":403,"MT":420,"sideResp":1,"stimulus":"img/500/equaldotsize/L/13_Ratio_500_L_12_R_6.png","xmouse":[762,762,762,762,762,762,762,762,762,762,762,762,762,762,762,762,764,765,771,780,787,791,795,795,792,784,770,752,733,706,699,687,677,668,661,656,647,631,605,540,531,504],"ymouse":[513,513,513,513,513,513,513,513,513,513,513,513,513,513,513,513,513,510,494,470,451,434,424,421,411,402,393,382,370,345,329,292,252,207,153,135,118,104,89,57,51,34],"timestamp_mouse":[9,32,43,63,84,103,124,144,164,183,204,223,244,264,283,303,324,343,363,383,403,423,444,463,483,503,523,543,564,583,603,623,643,663,683,703,723,743,764,783,803,823],"xSR":741.5,"ySR":458.25,"xT1":424.9,"yT1":0,"xT2":1058.1,"yT2":0,"toosoon":0,"cond_shown":"equaldotsize","ratio_trial":500,"smaller_num":"6","larger_num":"12","correct_side":1,"subjID":"juanmartinsaavedragaitan6","gender":"0","age":"11","school":"cafam"},{"start_time":1551794889929,"click_time":1551794890763,"finger_time":1551794890382,"fix_duration":524.4112381637038,"trial":55,"RT":453,"MT":381,"sideResp":2,"stimulus":"img/250/equaldotsize/R/8_Ratio_250_L_1_R_4.png","xmouse":[768,768,768,768,768,768,768,768,768,768,768,768,768,768,768,768,768,768,768,776,790,800,804,816,828,836,861,876,909,920,929,938,950,975,989,1008,1026,1050,1089,1101,1110,1118],"ymouse":[500,500,500,500,500,500,500,500,500,500,500,500,500,500,500,500,500,500,499,490,474,463,457,441,426,419,397,382,353,344,333,322,308,283,272,251,228,195,142,122,102,80],"timestamp_mouse":[14,33,53,74,94,113,133,154,173,194,213,234,254,274,294,314,334,353,373,393,414,433,453,473,494,513,534,553,573,593,613,633,653,673,694,713,734,753,773,793,813,833],"xSR":741.5,"ySR":458.25,"xT1":424.9,"yT1":0,"xT2":1058.1,"yT2":0,"toosoon":0,"cond_shown":"equaldotsize","ratio_trial":250,"smaller_num":"1","larger_num":"4","correct_side":2,"subjID":"juanmartinsaavedragaitan6","gender":"0","age":"11","school":"cafam"},{"start_time":1551794891974,"click_time":1551794893002,"finger_time":1551794892322,"fix_duration":250,"trial":56,"RT":348,"MT":680,"sideResp":1,"stimulus":"img/750/equaldotsize/L/14_Ratio_750_L_8_R_6.png","xmouse":[811,811,811,811,811,811,811,811,811,811,811,808,805,800,798,792,767,752,739,721,705,661,599,476,383,297,184,165,154,146,142,144,144,144,144,144,144,144,144,144,226,289,309,327,340,350,365,365,365,368,382,439],"ymouse":[531,531,531,531,531,531,531,531,531,531,531,530,529,527,520,506,466,448,426,406,387,337,300,245,210,174,107,87,67,50,36,9,9,9,9,9,9,9,9,9,1,52,61,67,68,69,70,70,70,70,68,42],"timestamp_mouse":[9,40,48,68,88,108,128,148,168,188,208,228,248,268,289,308,329,348,369,388,408,428,448,469,488,508,528,548,568,589,608,628,648,668,688,709,728,749,769,788,808,828,848,868,888,908,929,949,968,988,1009,1028],"xSR":741.5,"ySR":458.25,"xT1":424.9,"yT1":0,"xT2":1058.1,"yT2":0,"toosoon":0,"cond_shown":"equaldotsize","ratio_trial":750,"smaller_num":"6","larger_num":"8","correct_side":1,"subjID":"juanmartinsaavedragaitan6","gender":"0","age":"11","school":"cafam"},{"start_time":1551794894221,"click_time":1551794895262,"finger_time":1551794894702,"fix_duration":616.7786472039304,"trial":57,"RT":481,"MT":560,"sideResp":1,"stimulus":"img/750/equaldotsize/R/2_Ratio_750_L_6_R_8.png","xmouse":[795,795,795,795,795,795,795,795,795,795,795,795,795,794,794,794,794,794,794,794,794,794,794,794,805,810,815,818,819,821,821,824,824,824,803,783,754,721,685,642,628,612,601,591,561,546,535,530,528,528,528,519,502],"ymouse":[491,491,491,491,491,491,491,491,491,491,491,491,491,490,488,486,485,485,485,485,485,484,483,477,457,449,443,439,437,432,425,400,384,365,331,315,298,281,264,244,238,235,233,228,217,207,199,194,187,167,148,110,79],"timestamp_mouse":[8,33,41,61,81,102,121,142,162,181,202,221,242,261,281,301,321,341,361,382,401,421,442,461,481,501,521,541,561,582,601,621,641,661,682,702,721,741,762,781,802,821,842,862,881,902,921,942,961,981,1002,1021,1041],"xSR":741.5,"ySR":458.25,"xT1":424.9,"yT1":0,"xT2":1058.1,"yT2":0,"toosoon":0,"cond_shown":"equaldotsize","ratio_trial":750,"smaller_num":"6","larger_num":"8","correct_side":2,"subjID":"juanmartinsaavedragaitan6","gender":"0","age":"11","school":"cafam"},{"start_time":1551794897715,"click_time":1551794899283,"finger_time":1551794898162,"fix_duration":1350.3557238096287,"trial":58,"RT":447,"MT":1121,"sideResp":2,"stimulus":"img/250/equaldotsize/L/2_Ratio_250_L_16_R_4.png","xmouse":[791,791,792,793,794,795,796,796,796,796,796,796,795,795,794,794,794,793,792,792,790,788,785,783,782,782,782,787,796,814,819,825,829,832,832,832,832,832,832,832,832,832,832,832,832,830,829,827,825,825,825,825,825,825,825,825,825,825,824,824,824,843,896,957,1000,1001,1002,1002,1002,1003,1004,1005,1008,1010,1015,1020,1029,1043,1062],"ymouse":[524,524,522,520,515,514,512,511,511,511,511,511,513,515,517,519,521,523,525,532,538,548,559,572,577,577,577,566,545,514,503,494,486,482,482,482,482,482,482,482,482,482,482,481,481,479,477,473,471,470,470,470,470,470,470,470,470,470,467,429,377,299,198,114,48,36,33,33,33,33,35,38,42,44,46,48,51,54,61],"timestamp_mouse":[9,33,47,67,87,107,127,147,168,187,207,227,247,267,287,307,327,347,367,387,407,428,447,468,487,507,527,548,568,587,607,627,647,669,688,708,727,747,768,787,807,828,847,867,887,907,927,948,967,987,1007,1028,1048,1067,1087,1108,1128,1148,1167,1187,1207,1227,1247,1268,1287,1308,1327,1347,1368,1388,1408,1427,1447,1467,1487,1508,1528,1547,1568],"xSR":741.5,"ySR":458.25,"xT1":424.9,"yT1":0,"xT2":1058.1,"yT2":0,"toosoon":0,"cond_shown":"equaldotsize","ratio_trial":250,"smaller_num":"4","larger_num":"16","correct_side":1,"subjID":"juanmartinsaavedragaitan6","gender":"0","age":"11","school":"cafam"},{"start_time":1551794903388,"click_time":1551794904303,"finger_time":1551794903702,"fix_duration":844.6245122667889,"trial":59,"RT":314,"MT":601,"sideResp":1,"stimulus":"img/900/randomdotsizeEA/R/5_Ratio_900_L_9_R_10.png","xmouse":[801,801,801,801,801,801,801,801,801,801,801,801,801,803,804,808,808,808,805,802,801,800,795,784,767,731,707,684,664,649,611,587,580,581,586,586,586,586,586,586,586,586,586,586,586,432],"ymouse":[498,498,498,498,498,498,498,498,498,498,497,497,497,483,461,421,400,373,345,325,307,305,299,288,277,260,250,241,232,224,188,133,71,29,8,8,8,8,8,8,8,8,8,8,8,11],"timestamp_mouse":[15,34,55,76,94,115,134,155,174,195,214,234,254,274,294,314,334,354,374,394,414,434,454,474,494,515,535,555,574,595,615,634,654,674,695,714,735,756,775,795,814,836,855,874,894,914],"xSR":741.5,"ySR":458.25,"xT1":424.9,"yT1":0,"xT2":1058.1,"yT2":0,"toosoon":0,"cond_shown":"randomdotsizeEA","ratio_trial":900,"smaller_num":"9","larger_num":"10","correct_side":2,"subjID":"juanmartinsaavedragaitan6","gender":"0","age":"11","school":"cafam"},{"start_time":1551794906681,"click_time":1551794907522,"finger_time":1551794907222,"fix_duration":1157.7622020140516,"trial":60,"RT":541,"MT":300,"sideResp":2,"stimulus":"img/250/randomdotsizeEA/R/13_Ratio_250_L_2_R_8.png","xmouse":[819,819,819,819,819,819,819,819,819,819,819,819,819,819,819,819,819,819,819,819,819,819,819,819,819,818,826,844,880,910,947,1021,1060,1093,1120,1138,1147,1147,1146,1140,1134,1121,1112],"ymouse":[513,513,513,513,513,513,513,513,513,513,513,513,513,513,513,513,513,513,513,513,513,513,513,513,513,513,503,482,437,402,365,304,276,254,231,211,181,160,147,132,121,105,95],"timestamp_mouse":[8,33,42,62,81,102,121,142,162,181,201,221,241,261,281,301,322,342,362,381,401,421,443,462,481,502,521,541,561,581,601,621,641,661,681,701,721,741,761,781,801,821,841],"xSR":741.5,"ySR":458.25,"xT1":424.9,"yT1":0,"xT2":1058.1,"yT2":0,"toosoon":0,"cond_shown":"randomdotsizeEA","ratio_trial":250,"smaller_num":"2","larger_num":"8","correct_side":2,"subjID":"juanmartinsaavedragaitan6","gender":"0","age":"11","school":"cafam"},{"start_time":1551794910788,"click_time":1551794911623,"finger_time":1551794911343,"fix_duration":385.5876899910836,"trial":61,"RT":555,"MT":280,"sideResp":2,"stimulus":"img/250/equaldotanddens/R/13_Ratio_250_L_2_R_8.png","xmouse":[791,791,791,791,791,791,791,791,791,791,791,791,791,791,791,791,791,791,791,791,791,791,791,791,790,795,804,825,865,906,969,988,1010,1027,1047,1072,1077,1082,1084,1086,1092,1095],"ymouse":[510,510,510,510,510,510,510,510,510,510,510,510,510,510,510,510,510,510,510,510,510,510,510,510,510,496,479,449,391,341,266,245,220,203,185,156,145,132,122,115,102,96],"timestamp_mouse":[15,34,54,75,94,114,135,154,174,194,214,234,255,274,294,314,334,354,374,394,414,434,454,475,494,514,534,555,574,594,614,635,654,674,694,715,734,755,774,794,814,834],"xSR":741.5,"ySR":458.25,"xT1":424.9,"yT1":0,"xT2":1058.1,"yT2":0,"toosoon":0,"cond_shown":"equaldotanddens","ratio_trial":250,"smaller_num":"2","larger_num":"8","correct_side":2,"subjID":"juanmartinsaavedragaitan6","gender":"0","age":"11","school":"cafam"},{"start_time":1551794914754,"click_time":1551794915842,"finger_time":1551794915782,"fix_duration":1030.3660863885143,"trial":62,"RT":1028,"MT":60,"sideResp":1,"stimulus":"img/900/equaldotsize/L/1_Ratio_900_L_10_R_9.png","xmouse":[793,793,793,793,793,793,793,793,793,793,793,793,793,793,793,793,793,793,793,793,793,793,793,793,793,793,793,793,793,793,793,793,793,793,793,793,793,793,793,793,793,793,793,793,793,793,793,793,782,772,750,718,618,547,442],"ymouse":[490,490,490,490,490,490,490,490,490,490,490,490,490,490,490,490,490,490,490,490,490,490,490,490,490,490,490,490,490,490,490,490,490,490,490,490,490,490,490,490,490,490,490,490,490,490,490,490,486,483,470,431,272,179,77],"timestamp_mouse":[10,32,48,69,88,108,128,148,169,189,210,229,248,270,289,308,329,350,368,388,409,428,448,468,489,508,528,549,568,588,609,628,648,668,689,709,728,748,768,789,810,828,848,868,890,908,928,948,968,989,1008,1028,1047,1068,1088],"xSR":741.5,"ySR":458.25,"xT1":424.9,"yT1":0,"xT2":1058.1,"yT2":0,"toosoon":0,"cond_shown":"equaldotsize","ratio_trial":900,"smaller_num":"9","larger_num":"10","correct_side":1,"subjID":"juanmartinsaavedragaitan6","gender":"0","age":"11","school":"cafam"},{"start_time":1551794919095,"click_time":1551794920183,"finger_time":1551794919743,"fix_duration":250,"trial":63,"RT":648,"MT":440,"sideResp":1,"stimulus":"img/250/equaldotanddens/L/3_Ratio_250_L_8_R_2.png","xmouse":[790,790,790,790,790,790,790,790,790,790,790,790,790,790,790,790,790,790,790,790,790,790,790,790,790,790,790,790,790,790,791,791,791,791,781,756,744,727,717,705,684,674,660,646,630,607,597,594,590,585,566,553,540,529,521],"ymouse":[490,490,490,490,490,490,490,490,490,490,490,490,490,490,490,490,490,490,490,490,490,490,490,490,490,490,490,490,490,490,488,475,451,416,375,283,246,213,192,171,135,118,101,87,75,65,62,61,59,57,51,47,44,43,43],"timestamp_mouse":[9,38,48,67,87,108,127,147,167,187,207,227,247,267,288,307,328,348,367,387,407,427,448,468,488,508,528,547,567,587,607,627,647,667,687,707,727,747,768,787,808,827,847,867,888,907,928,947,967,987,1008,1028,1047,1067,1088],"xSR":741.5,"ySR":458.25,"xT1":424.9,"yT1":0,"xT2":1058.1,"yT2":0,"toosoon":0,"cond_shown":"equaldotanddens","ratio_trial":250,"smaller_num":"2","larger_num":"8","correct_side":1,"subjID":"juanmartinsaavedragaitan6","gender":"0","age":"11","school":"cafam"},{"start_time":1551794921694,"click_time":1551794922803,"finger_time":1551794922203,"fix_duration":589.7938008699723,"trial":64,"RT":509,"MT":600,"sideResp":2,"stimulus":"img/500/equaldotanddens/R/6_Ratio_500_L_9_R_18.png","xmouse":[792,792,792,792,792,792,792,792,792,792,792,792,792,792,792,792,792,792,792,791,795,795,797,800,803,816,834,847,862,874,888,895,902,908,913,922,928,933,936,942,962,975,988,1001,1024,1037,1048,1057,1062,1067,1085,1091,1093,1095,1096,1101],"ymouse":[501,501,501,501,501,501,501,501,501,501,501,501,501,501,501,501,501,501,501,498,491,489,486,480,474,454,434,420,408,397,380,370,357,344,332,310,296,288,283,271,238,218,202,188,172,166,163,160,156,150,128,121,114,108,104,82],"timestamp_mouse":[9,37,48,69,88,108,128,149,168,188,208,228,248,269,288,308,329,349,368,388,408,429,448,468,488,509,528,548,569,588,608,629,648,668,689,708,728,748,768,789,809,829,848,869,890,908,928,948,968,988,1008,1028,1048,1068,1089,1109],"xSR":741.5,"ySR":458.25,"xT1":424.9,"yT1":0,"xT2":1058.1,"yT2":0,"toosoon":0,"cond_shown":"equaldotanddens","ratio_trial":500,"smaller_num":"9","larger_num":"18","correct_side":2,"subjID":"juanmartinsaavedragaitan6","gender":"0","age":"11","school":"cafam"},{"start_time":1551794923853,"click_time":1551794924842,"finger_time":1551794924502,"fix_duration":250,"trial":65,"RT":649,"MT":340,"sideResp":1,"stimulus":"img/750/equaldotsize/R/4_Ratio_750_L_15_R_20.png","xmouse":[792,795,797,797,797,797,797,797,797,797,797,797,797,797,797,797,797,797,797,797,797,797,797,797,797,797,797,798,798,799,799,799,793,786,774,756,733,692,658,636,614,591,562,558,556,554,551,537