[{"start_time":1551794828663,"click_time":1551794831252,"finger_time":1551794830592,"fix_duration":1167.9516481453484,"trial":0,"RT":1929,"MT":660,"sideResp":2,"stimulus":"img/900/randomdotsizeEA/L/10_Ratio_900_L_20_R_18.png","xmouse":[799,799,799,799,799,799,799,799,799,799,799,799,799,799,799,799,799,799,799,799,799,799,799,799,799,799,798,798,798,798,798,798,798,798,798,798,798,794,787,783,782,782,782,782,782,782,782,782,782,782,782,781,781,781,780,780,780,780,780,780,780,780,780,780,780,780,780,780,780,780,780,780,780,780,780,780,780,780,780,780,780,780,780,780,780,780,780,780,780,780,780,780,780,780,796,808,819,831,842,845,856,863,874,883,889,897,904,916,939,958,1001,1016,1032,1046,1062,1072,1079,1086,1095,1098,1099,1099,1101,1103,1106,1106,1106,1106,1106],"ymouse":[543,543,543,543,543,543,543,543,543,543,543,543,543,543,543,543,543,543,543,543,543,543,543,543,543,543,542,542,542,542,542,542,542,542,542,542,542,537,529,523,521,521,521,521,521,521,521,521,521,521,521,517,515,513,511,511,511,511,511,511,511,511,511,511,511,511,511,511,511,511,511,511,511,511,511,511,511,511,511,511,511,511,511,511,511,511,511,511,511,511,511,511,511,510,489,468,447,423,396,386,369,363,355,347,342,331,322,308,286,269,222,201,181,165,149,143,139,133,126,124,123,122,121,118,113,110,106,100,94],"timestamp_mouse":[10,52,69,90,108,129,150,169,188,209,229,249,270,288,309,330,348,368,389,408,429,449,469,488,509,529,549,568,590,610,629,650,669,688,710,730,749,768,789,808,828,849,870,888,909,928,949,969,990,1008,1029,1049,1069,1089,1109,1129,1150,1168,1189,1209,1229,1249,1269,1289,1308,1329,1350,1368,1388,1409,1428,1448,1470,1490,1509,1529,1549,1570,1589,1609,1630,1650,1668,1689,1709,1729,1749,1769,1788,1808,1830,1850,1869,1888,1908,1929,1949,1968,1989,2008,2029,2049,2069,2088,2109,2128,2148,2170,2188,2209,2229,2249,2269,2288,2309,2328,2349,2368,2388,2409,2428,2448,2469,2488,2509,2528,2548,2568,2588],"xSR":741.5,"ySR":501.8,"xT1":424.9,"yT1":0,"xT2":1058.1,"yT2":0,"toosoon":0,"cond_shown":"randomdotsizeEA","ratio_trial":900,"smaller_num":"18","larger_num":"20","correct_side":1,"subjID":"juanpablocampospuerto30","gender":"0","age":"11","school":"6","test":{"fix_dur":[250,1500],"timestim":300,"targets_dim":[100,100],"targets_relative_coord":[0.3,0.7],"size_stim":[880,420],"start_dim":[100,100],"size_start":[300,300],"size_fix":60,"samplingrate":20,"img_types":["equaldotsize","equaldotanddens","randomdotsizeEA"],"ratios":[250,500,750,900],"rep_conds":9,"nTrials":120,"trials_to_rest":500,"Trials_order":[35,71,50,91,78,76,109,58,23,21,16,75,36,11,32,7,119,104,93,117,115,31,4,55,94,39,20,86,112,83,1,22,77,68,99,60,33,66,45,95,10,54,64,5,2,15,0,56,12,97,69,116,100,89,42,63,113,26,67,105,74,111,18,90,88,48,98,13,25,73,46,81,27,29,19,49,37,108,24,9,38,114,96,110,47,72,14,80,70,8,44,103,59,107,65,82,51,84,52,28,57,40,34,3,6,106,118,43,61,101,85,62,30,41,17,79,92,102,87,53],"cond_shown":["randomdotsizeEA","randomdotsizeEA","randomdotsizeEA","equaldotanddens","equaldotsize","equaldotanddens","equaldotanddens","equaldotanddens","randomdotsizeEA","equaldotsize","equaldotanddens","equaldotsize","equaldotsize","randomdotsizeEA","randomdotsizeEA","equaldotanddens","randomdotsizeEA","randomdotsizeEA","equaldotsize","equaldotsize","equaldotanddens","equaldotanddens","equaldotanddens","equaldotanddens","equaldotanddens","equaldotsize","randomdotsizeEA","randomdotsizeEA","equaldotanddens","randomdotsizeEA","equaldotanddens","equaldotanddens","randomdotsizeEA","randomdotsizeEA","equaldotsize","equaldotsize","equaldotsize","equaldotsize","equaldotsize","randomdotsizeEA","equaldotanddens","equaldotsize","equaldotanddens","randomdotsizeEA","randomdotsizeEA","equaldotsize","equaldotsize","randomdotsizeEA","equaldotsize","equaldotanddens","equaldotsize","randomdotsizeEA","equaldotanddens","randomdotsizeEA","equaldotsize","equaldotsize","randomdotsizeEA","randomdotsizeEA","equaldotanddens","equaldotsize","randomdotsizeEA","equaldotsize","equaldotsize","equaldotsize","equaldotanddens","equaldotsize","randomdotsizeEA","equaldotanddens","equaldotanddens","equaldotanddens","equaldotanddens","equaldotsize","equaldotsize","randomdotsizeEA","equaldotanddens","equaldotanddens","equaldotanddens","equaldotsize","equaldotsize","equaldotsize","randomdotsizeEA","equaldotsize","equaldotsize","randomdotsizeEA","randomdotsizeEA","equaldotsize","randomdotsizeEA","randomdotsizeEA","equaldotanddens","randomdotsizeEA","randomdotsizeEA","equaldotanddens","randomdotsizeEA","randomdotsizeEA","randomdotsizeEA","equaldotanddens","equaldotsize","equaldotsize","equaldotanddens","equaldotanddens","equaldotsize","equaldotanddens","equaldotanddens","equaldotsize","equaldotsize","equaldotanddens","equaldotanddens","equaldotanddens","equaldotanddens","randomdotsizeEA","equaldotanddens","randomdotsizeEA","equaldotsize","randomdotsizeEA","randomdotsizeEA","equaldotanddens","randomdotsizeEA","equaldotsize","equaldotsize","randomdotsizeEA"],"ratio_trial":[900,900,250,750,750,500,250,900,900,900,500,500,250,900,750,750,900,750,900,900,750,750,500,750,900,500,750,250,500,900,250,900,500,750,500,250,900,750,900,900,900,750,500,500,250,500,250,750,250,250,900,750,500,500,750,500,500,250,750,900,250,500,750,750,500,250,250,250,250,250,900,900,500,500,750,250,250,250,250,900,250,750,250,250,900,250,250,750,900,750,750,750,900,900,500,900,500,250,500,500,900,500,900,500,750,900,900,750,250,500,250,250,750,500,500,750,750,750,500,500],"smaller_num":["18","9","6","15","18","5","3","18","18","9","9","9","5","18","3","3","18","3","18","18","3","15","9","15","18","10","15","2","9","18","2","18","1","15","1","3","9","3","18","18","18","6","9","2","1","2","2","3","1","2","9","3","9","2","6","2","6","2","15","9","2","1","9","6","1","6","3","3","3","3","18","18","1","5","6","4","6","3","3","9","3","18","6","2","9","1","1","3","18","3","6","6","18","9","1","9","9","1","9","5","9","5","18","6","15","18","9","12","3","9","3","3","3","2","1","15","3","3","5","5"],"larger_num":["20","10","24","20","24","10","12","20","20","10","18","18","20","20","4","4","20","4","20","20","4","20","18","20","20","20","20","8","18","20","8","20","2","20","2","12","10","4","20","20","20","8","18","4","4","4","8","4","4","8","10","4","18","4","8","4","12","8","20","10","8","2","12","8","2","24","12","12","12","12","20","20","2","10","8","16","24","12","12","10","12","24","24","8","10","4","4","4","20","4","8","8","20","10","2","10","18","4","18","10","10","10","20","12","20","20","10","16","12","18","12","12","4","4","2","20","4","4","10","10"],"correct_side":[1,2,2,1,1,1,1,2,1,1,1,1,2,2,1,2,2,1,2,1,1,2,1,1,1,2,1,1,2,1,1,1,2,2,2,2,2,1,1,1,1,2,2,1,2,2,1,1,2,2,1,1,2,1,1,1,1,2,2,2,2,2,2,1,2,1,1,1,2,2,2,2,2,2,1,1,2,1,1,2,1,1,1,1,1,2,2,2,1,1,1,2,2,2,2,2,1,2,2,2,2,2,1,1,1,1,2,2,1,1,1,1,2,2,2,2,2,2,1,2],"img_shown":["img/900/randomdotsizeEA/L/10_Ratio_900_L_20_R_18.png","img/900/randomdotsizeEA/R/3_Ratio_900_L_9_R_10.png","img/250/randomdotsizeEA/R/6_Ratio_250_L_6_R_24.png","img/750/equaldotanddens/L/1_Ratio_750_L_20_R_15.png","img/750/equaldotsize/L/6_Ratio_750_L_24_R_18.png","img/500/equaldotanddens/L/7_Ratio_500_L_10_R_5.png","img/250/equaldotanddens/L/15_Ratio_250_L_12_R_3.png","img/900/equaldotanddens/R/13_Ratio_900_L_18_R_20.png","img/900/randomdotsizeEA/L/4_Ratio_900_L_20_R_18.png","img/900/equaldotsize/L/1_Ratio_900_L_10_R_9.png","img/500/equaldotanddens/L/4_Ratio_500_L_18_R_9.png","img/500/equaldotsize/L/4_Ratio_500_L_18_R_9.png","img/250/equaldotsize/R/12_Ratio_250_L_5_R_20.png","img/900/randomdotsizeEA/R/14_Ratio_900_L_18_R_20.png","img/750/randomdotsizeEA/L/8_Ratio_750_L_4_R_3.png","img/750/equaldotanddens/R/12_Ratio_750_L_3_R_4.png","img/900/randomdotsizeEA/R/13_Ratio_900_L_18_R_20.png","img/750/randomdotsizeEA/L/8_Ratio_750_L_4_R_3.png","img/900/equaldotsize/R/14_Ratio_900_L_18_R_20.png","img/900/equaldotsize/L/4_Ratio_900_L_20_R_18.png","img/750/equaldotanddens/L/8_Ratio_750_L_4_R_3.png","img/750/equaldotanddens/R/4_Ratio_750_L_15_R_20.png","img/500/equaldotanddens/L/4_Ratio_500_L_18_R_9.png","img/750/equaldotanddens/L/1_Ratio_750_L_20_R_15.png","img/900/equaldotanddens/L/10_Ratio_900_L_20_R_18.png","img/500/equaldotsize/R/3_Ratio_500_L_10_R_20.png","img/750/randomdotsizeEA/L/1_Ratio_750_L_20_R_15.png","img/250/randomdotsizeEA/L/7_Ratio_250_L_8_R_2.png","img/500/equaldotanddens/R/1_Ratio_500_L_9_R_18.png","img/900/randomdotsizeEA/L/4_Ratio_900_L_20_R_18.png","img/250/equaldotanddens/L/7_Ratio_250_L_8_R_2.png","img/900/equaldotanddens/L/10_Ratio_900_L_20_R_18.png","img/500/randomdotsizeEA/R/15_Ratio_500_L_1_R_2.png","img/750/randomdotsizeEA/R/4_Ratio_750_L_15_R_20.png","img/500/equaldotsize/R/15_Ratio_500_L_1_R_2.png","img/250/equaldotsize/R/9_Ratio_250_L_3_R_12.png","img/900/equaldotsize/R/6_Ratio_900_L_9_R_10.png","img/750/equaldotsize/L/10_Ratio_750_L_4_R_3.png","img/900/equaldotsize/L/8_Ratio_900_L_20_R_18.png","img/900/randomdotsizeEA/L/8_Ratio_900_L_20_R_18.png","img/900/equaldotanddens/L/4_Ratio_900_L_20_R_18.png","img/750/equaldotsize/R/2_Ratio_750_L_6_R_8.png","img/500/equaldotanddens/R/6_Ratio_500_L_9_R_18.png","img/500/randomdotsizeEA/L/5_Ratio_500_L_4_R_2.png","img/250/randomdotsizeEA/R/8_Ratio_250_L_1_R_4.png","img/500/equaldotsize/R/9_Ratio_500_L_2_R_4.png","img/250/equaldotsize/L/7_Ratio_250_L_8_R_2.png","img/750/randomdotsizeEA/L/8_Ratio_750_L_4_R_3.png","img/250/equaldotsize/R/8_Ratio_250_L_1_R_4.png","img/250/equaldotanddens/R/13_Ratio_250_L_2_R_8.png","img/900/equaldotsize/L/1_Ratio_900_L_10_R_9.png","img/750/randomdotsizeEA/L/8_Ratio_750_L_4_R_3.png","img/500/equaldotanddens/R/1_Ratio_500_L_9_R_18.png","img/500/randomdotsizeEA/L/10_Ratio_500_L_4_R_2.png","img/750/equaldotsize/L/14_Ratio_750_L_8_R_6.png","img/500/equaldotsize/L/10_Ratio_500_L_4_R_2.png","img/500/randomdotsizeEA/L/13_Ratio_500_L_12_R_6.png","img/250/randomdotsizeEA/R/13_Ratio_250_L_2_R_8.png","img/750/equaldotanddens/R/3_Ratio_750_L_15_R_20.png","img/900/equaldotsize/R/15_Ratio_900_L_9_R_10.png","img/250/randomdotsizeEA/R/13_Ratio_250_L_2_R_8.png","img/500/equaldotsize/R/15_Ratio_500_L_1_R_2.png","img/750/equaldotsize/R/15_Ratio_750_L_9_R_12.png","img/750/equaldotsize/L/14_Ratio_750_L_8_R_6.png","img/500/equaldotanddens/R/12_Ratio_500_L_1_R_2.png","img/250/equaldotsize/L/5_Ratio_250_L_24_R_6.png","img/250/randomdotsizeEA/L/15_Ratio_250_L_12_R_3.png","img/250/equaldotanddens/L/14_Ratio_250_L_12_R_3.png","img/250/equaldotanddens/R/11_Ratio_250_L_3_R_12.png","img/250/equaldotanddens/R/11_Ratio_250_L_3_R_12.png","img/900/equaldotanddens/R/11_Ratio_900_L_18_R_20.png","img/900/equaldotsize/R/13_Ratio_900_L_18_R_20.png","img/500/equaldotsize/R/12_Ratio_500_L_1_R_2.png","img/500/randomdotsizeEA/R/14_Ratio_500_L_5_R_10.png","img/750/equaldotanddens/L/13_Ratio_750_L_8_R_6.png","img/250/equaldotanddens/L/2_Ratio_250_L_16_R_4.png","img/250/equaldotanddens/R/6_Ratio_250_L_6_R_24.png","img/250/equaldotsize/L/14_Ratio_250_L_12_R_3.png","img/250/equaldotsize/L/14_Ratio_250_L_12_R_3.png","img/900/equaldotsize/R/5_Ratio_900_L_9_R_10.png","img/250/randomdotsizeEA/L/15_Ratio_250_L_12_R_3.png","img/750/equaldotsize/L/6_Ratio_750_L_24_R_18.png","img/250/equaldotsize/L/5_Ratio_250_L_24_R_6.png","img/250/randomdotsizeEA/L/7_Ratio_250_L_8_R_2.png","img/900/randomdotsizeEA/L/1_Ratio_900_L_10_R_9.png","img/250/equaldotsize/R/8_Ratio_250_L_1_R_4.png","img/250/randomdotsizeEA/R/8_Ratio_250_L_1_R_4.png","img/750/randomdotsizeEA/R/7_Ratio_750_L_3_R_4.png","img/900/equaldotanddens/L/4_Ratio_900_L_20_R_18.png","img/750/randomdotsizeEA/L/10_Ratio_750_L_4_R_3.png","img/750/randomdotsizeEA/L/13_Ratio_750_L_8_R_6.png","img/750/equaldotanddens/R/2_Ratio_750_L_6_R_8.png","img/900/randomdotsizeEA/R/12_Ratio_900_L_18_R_20.png","img/900/randomdotsizeEA/R/15_Ratio_900_L_9_R_10.png","img/500/randomdotsizeEA/R/12_Ratio_500_L_1_R_2.png","img/900/equaldotanddens/R/7_Ratio_900_L_9_R_10.png","img/500/equaldotsize/L/4_Ratio_500_L_18_R_9.png","img/250/equaldotsize/R/8_Ratio_250_L_1_R_4.png","img/500/equaldotanddens/R/1_Ratio_500_L_9_R_18.png","img/500/equaldotanddens/R/14_Ratio_500_L_5_R_10.png","img/900/equaldotsize/R/3_Ratio_900_L_9_R_10.png","img/500/equaldotanddens/R/14_Ratio_500_L_5_R_10.png","img/900/equaldotanddens/L/4_Ratio_900_L_20_R_18.png","img/500/equaldotsize/L/13_Ratio_500_L_12_R_6.png","img/750/equaldotsize/L/1_Ratio_750_L_20_R_15.png","img/900/equaldotanddens/L/2_Ratio_900_L_20_R_18.png","img/900/equaldotanddens/R/6_Ratio_900_L_9_R_10.png","img/750/equaldotanddens/R/11_Ratio_750_L_12_R_16.png","img/250/equaldotanddens/L/15_Ratio_250_L_12_R_3.png","img/500/randomdotsizeEA/L/4_Ratio_500_L_18_R_9.png","img/250/equaldotanddens/L/14_Ratio_250_L_12_R_3.png","img/250/randomdotsizeEA/L/15_Ratio_250_L_12_R_3.png","img/750/equaldotsize/R/12_Ratio_750_L_3_R_4.png","img/500/randomdotsizeEA/R/9_Ratio_500_L_2_R_4.png","img/500/randomdotsizeEA/R/15_Ratio_500_L_1_R_2.png","img/750/equaldotanddens/R/5_Ratio_750_L_15_R_20.png","img/750/randomdotsizeEA/R/12_Ratio_750_L_3_R_4.png","img/750/equaldotsize/R/12_Ratio_750_L_3_R_4.png","img/500/equaldotsize/L/7_Ratio_500_L_10_R_5.png","img/500/randomdotsizeEA/R/14_Ratio_500_L_5_R_10.png"],"Rat0":[["12_Ratio_0_L_9_R_0.png","13_Ratio_0_L_6_R_0.png","5_Ratio_0_L_2_R_0.png","6_Ratio_0_L_4_R_0.png","8_Ratio_0_L_6_R_0.png"],["1_Ratio_0_L_0_R_17.png","10_Ratio_0_L_0_R_22.png","11_Ratio_0_L_0_R_1.png","14_Ratio_0_L_0_R_24.png","15_Ratio_0_L_0_R_4.png","2_Ratio_0_L_0_R_5.png","3_Ratio_0_L_0_R_17.png","4_Ratio_0_L_0_R_7.png","7_Ratio_0_L_0_R_19.png","9_Ratio_0_L_0_R_15.png"]],"Rat250":[["1_Ratio_250_L_8_R_2.png","14_Ratio_250_L_12_R_3.png","15_Ratio_250_L_12_R_3.png","2_Ratio_250_L_16_R_4.png","3_Ratio_250_L_8_R_2.png","5_Ratio_250_L_24_R_6.png","7_Ratio_250_L_8_R_2.png"],["10_Ratio_250_L_4_R_16.png","11_Ratio_250_L_3_R_12.png","12_Ratio_250_L_5_R_20.png","13_Ratio_250_L_2_R_8.png","4_Ratio_250_L_3_R_12.png","6_Ratio_250_L_6_R_24.png","8_Ratio_250_L_1_R_4.png","9_Ratio_250_L_3_R_12.png"]],"Rat500":[["10_Ratio_500_L_4_R_2.png","11_Ratio_500_L_12_R_6.png","13_Ratio_500_L_12_R_6.png","4_Ratio_500_L_18_R_9.png","5_Ratio_500_L_4_R_2.png","7_Ratio_500_L_10_R_5.png","8_Ratio_500_L_8_R_4.png"],["1_Ratio_500_L_9_R_18.png","12_Ratio_500_L_1_R_2.png","14_Ratio_500_L_5_R_10.png","15_Ratio_500_L_1_R_2.png","2_Ratio_500_L_3_R_6.png","3_Ratio_500_L_10_R_20.png","6_Ratio_500_L_9_R_18.png","9_Ratio_500_L_2_R_4.png"]],"Rat750":[["1_Ratio_750_L_20_R_15.png","10_Ratio_750_L_4_R_3.png","13_Ratio_750_L_8_R_6.png","14_Ratio_750_L_8_R_6.png","6_Ratio_750_L_24_R_18.png","8_Ratio_750_L_4_R_3.png","9_Ratio_750_L_4_R_3.png"],["11_Ratio_750_L_12_R_16.png","12_Ratio_750_L_3_R_4.png","15_Ratio_750_L_9_R_12.png","2_Ratio_750_L_6_R_8.png","3_Ratio_750_L_15_R_20.png","4_Ratio_750_L_15_R_20.png","5_Ratio_750_L_15_R_20.png","7_Ratio_750_L_3_R_4.png"]],"Rat900":[["1_Ratio_900_L_10_R_9.png","10_Ratio_900_L_20_R_18.png","2_Ratio_900_L_20_R_18.png","4_Ratio_900_L_20_R_18.png","8_Ratio_900_L_20_R_18.png"],["11_Ratio_900_L_18_R_20.png","12_Ratio_900_L_18_R_20.png","13_Ratio_900_L_18_R_20.png","14_Ratio_900_L_18_R_20.png","15_Ratio_900_L_9_R_10.png","3_Ratio_900_L_9_R_10.png","5_Ratio_900_L_9_R_10.png","6_Ratio_900_L_9_R_10.png","7_Ratio_900_L_9_R_10.png","9_Ratio_900_L_18_R_20.png"]],"Rat1000":[["10_Ratio_1000_L_16_R_16.png","11_Ratio_1000_L_6_R_6.png","12_Ratio_1000_L_14_R_14.png","13_Ratio_1000_L_20_R_20.png","15_Ratio_1000_L_15_R_15.png","2_Ratio_1000_L_17_R_17.png","4_Ratio_1000_L_9_R_9.png","5_Ratio_1000_L_6_R_6.png","6_Ratio_1000_L_19_R_19.png","8_Ratio_1000_L_14_R_14.png","9_Ratio_1000_L_25_R_25.png"],["1_Ratio_1000_L_1_R_1.png","14_Ratio_1000_L_17_R_17.png","3_Ratio_1000_L_17_R_17.png","7_Ratio_1000_L_6_R_6.png"]]}},{"start_time":1551794832785,"click_time":1551794834732,"finger_time":1551794834172,"fix_duration":412.87043289210646,"trial":1,"RT":1387,"MT":560,"sideResp":2,"stimulus":"img/900/randomdotsizeEA/R/3_Ratio_900_L_9_R_10.png","xmouse":[786,786,786,786,786,786,786,786,786,786,786,786,786,786,786,786,786,786,786,786,786,786,786,786,786,786,786,786,786,786,786,786,786,786,786,786,786,786,786,786,786,786,786,786,786,786,786,786,785,783,778,774,770,766,764,764,764,764,764,764,764,764,764,764,764,764,764,764,766,784,795,806,814,816,816,817,819,819,821,825,827,831,836,843,857,890,911,935,959,1009,1028,1039,1046,1053,1071,1086,1101,1113],"ymouse":[507,507,507,507,507,507,507,507,507,507,507,507,507,507,507,507,507,507,507,507,507,507,507,507,507,507,507,507,507,507,507,507,507,507,507,507,507,507,507,507,507,507,507,507,507,507,507,507,508,506,500,495,492,487,485,485,485,485,485,485,485,485,485,485,485,485,483,481,472,445,430,417,408,406,406,402,394,383,369,354,349,345,337,329,316,296,283,268,253,217,203,195,187,178,150,130,113,95],"timestamp_mouse":[11,34,47,67,87,106,126,147,166,187,207,227,247,267,286,308,327,348,366,386,407,426,446,467,486,506,527,548,566,586,607,626,648,666,686,707,727,747,767,787,808,827,847,866,888,906,927,946,966,987,1008,1028,1048,1067,1087,1106,1127,1146,1167,1186,1208,1226,1246,1267,1287,1306,1326,1346,1366,1387,1406,1427,1448,1466,1487,1507,1526,1547,1567,1587,1606,1626,1646,1666,1686,1706,1726,1747,1767,1787,1806,1827,1846,1866,1887,1907,1926,1947],"xSR":741.5,"ySR":469.95,"xT1":424.9,"yT1":0,"xT2":1058.1,"yT2":0,"toosoon":0,"cond_shown":"randomdotsizeEA","ratio_trial":900,"smaller_num":"9","larger_num":"10","correct_side":2,"subjID":"juanpablocampospuerto30","gender":"0","age":"11","school":"6"},{"start_time":1551794836796,"click_time":1551794838432,"finger_time":1551794837793,"fix_duration":1302.8897118011605,"trial":2,"RT":997,"MT":639,"sideResp":1,"stimulus":"img/250/randomdotsizeEA/R/6_Ratio_250_L_6_R_24.png","xmouse":[770,770,770,770,770,770,770,770,770,770,770,770,770,770,770,770,770,770,770,770,770,770,770,770,770,770,770,770,770,770,770,770,770,770,770,770,770,770,770,770,770,770,770,770,770,770,767,765,753,745,735,721,704,677,650,644,643,643,647,658,659,659,648,625,612,599,587,578,562,555,549,543,537,531,528,526,524,522,518,513,507,500],"ymouse":[528,528,528,528,528,528,528,528,528,528,528,528,528,528,528,528,528,528,528,528,528,528,528,528,528,528,528,528,528,528,528,528,528,528,528,528,528,528,528,527,527,527,527,524,518,512,503,496,478,466,452,435,417,391,357,347,337,323,305,267,251,235,211,190,182,176,171,168,163,162,158,155,151,139,130,122,118,116,113,110,104,99],"timestamp_mouse":[20,42,56,75,96,115,135,155,176,197,215,237,256,276,295,315,336,356,376,396,417,435,457,476,495,516,536,557,575,596,615,637,655,675,695,715,737,757,775,796,816,837,855,876,896,916,936,956,976,997,1016,1035,1055,1076,1097,1115,1135,1155,1176,1195,1216,1237,1256,1276,1295,1315,1336,1355,1376,1395,1415,1435,1455,1475,1496,1516,1535,1555,1577,1595,1616,1636],"xSR":741.5,"ySR":469.95,"xT1":424.9,"yT1":0,"xT2":1058.1,"yT2":0,"toosoon":0,"cond_shown":"randomdotsizeEA","ratio_trial":250,"smaller_num":"6","larger_num":"24","correct_side":2,"subjID":"juanpablocampospuerto30","gender":"0","age":"11","school":"6"},{"start_time":1551794840667,"click_time":1551794842412,"finger_time":1551794841812,"fix_duration":1413.5789415457632,"trial":3,"RT":1145,"MT":600,"sideResp":2,"stimulus":"img/750/equaldotanddens/L/1_Ratio_750_L_20_R_15.png","xmouse":[802,802,802,802,802,802,802,802,802,802,802,802,802,802,802,802,802,802,802,802,802,802,802,802,802,802,802,802,802,802,802,802,802,802,802,802,802,802,802,802,802,802,802,802,802,802,802,802,802,802,802,802,802,802,802,809,817,827,838,865,878,905,915,923,931,942,950,959,965,972,973,979,984,988,992,996,1001,1006,1012,1017,1033,1037,1040,1043,1046,1049,1053,1059],"ymouse":[542,542,542,542,542,542,542,542,542,542,542,542,542,542,542,542,542,542,542,542,542,542,542,542,542,542,542,542,542,542,542,542,542,542,542,542,542,542,542,542,542,542,542,542,542,542,542,542,542,542,542,542,542,531,525,496,475,453,428,377,356,324,312,303,296,285,277,266,257,243,237,213,194,179,165,152,133,123,111,102,83,80,77,74,70,68,66,64],"timestamp_mouse":[10,35,44,65,85,105,124,146,164,184,206,224,245,264,286,305,325,345,364,384,404,426,444,465,485,505,526,546,565,585,605,624,644,664,684,705,726,744,764,785,806,825,845,864,886,906,924,945,965,984,1004,1025,1044,1065,1085,1106,1124,1145,1164,1184,1204,1225,1245,1264,1284,1306,1324,1345,1366,1386,1404,1426,1445,1465,1484,1505,1525,1545,1564,1585,1605,1624,1644,1665,1684,1704,1724,1745],"xSR":741.5,"ySR":469.95,"xT1":424.9,"yT1":0,"xT2":1058.1,"yT2":0,"toosoon":0,"cond_shown":"equaldotanddens","ratio_trial":750,"smaller_num":"15","larger_num":"20","correct_side":1,"subjID":"juanpablocampospuerto30","gender":"0","age":"11","school":"6"},{"start_time":1551794843878,"click_time":1551794845292,"finger_time":1551794844732,"fix_duration":744.3554364727959,"trial":4,"RT":854,"MT":560,"sideResp":1,"stimulus":"img/750/equaldotsize/L/6_Ratio_750_L_24_R_18.png","xmouse":[748,748,748,748,748,748,748,748,748,748,748,748,748,748,748,749,754,759,765,771,774,774,774,774,774,774,774,775,775,775,775,775,775,775,775,775,775,775,776,778,778,778,777,771,761,739,725,689,651,623,592,583,577,573,568,562,558,556,554,539,528,518,507,501,493,490,489,489,487,485,485],"ymouse":[549,549,549,549,549,549,549,549,549,549,549,549,549,549,549,549,548,547,545,543,542,542,542,542,542,542,542,542,542,542,542,542,542,542,542,542,542,542,540,535,499,479,462,444,431,412,402,375,348,332,311,301,288,274,251,240,232,226,219,189,170,152,138,129,118,114,111,109,107,101,98],"timestamp_mouse":[13,44,53,74,93,114,134,154,174,194,214,234,254,274,294,313,334,353,373,393,413,433,454,474,493,514,533,554,575,593,614,633,653,675,694,714,733,753,774,793,814,833,854,874,893,913,933,953,973,993,1013,1033,1054,1075,1094,1113,1133,1153,1173,1194,1213,1233,1253,1273,1294,1313,1333,1354,1375,1394,1414],"xSR":741.5,"ySR":469.95,"xT1":424.9,"yT1":0,"xT2":1058.1,"yT2":0,"toosoon":0,"cond_shown":"equaldotsize","ratio_trial":750,"smaller_num":"18","larger_num":"24","correct_side":1,"subjID":"juanpablocampospuerto30","gender":"0","age":"11","school":"6"},{"start_time":1551794846847,"click_time":1551794849153,"finger_time":1551794848191,"fix_duration":574.0417128144759,"trial":5,"RT":1344,"MT":962,"sideResp":2,"stimulus":"img/500/equaldotanddens/L/7_Ratio_500_L_10_R_5.png","xmouse":[830,830,830,830,830,830,830,830,830,830,830,830,830,830,830,830,830,830,830,830,830,830,830,830,830,830,830,830,830,830,830,830,830,830,830,830,830,830,830,830,830,830,830,830,830,830,830,830,830,830,830,830,830,830,830,830,830,830,831,832,835,835,835,835,835,835,837,854,874,906,949,970,996,1005,1006,1006,1006,1008,1018,1041,1059,1066,1069,1073,1080,1086,1092,1095,1099,1101,1101,1101,1102,1103,1104,1105,1108,1111,1114,1118,1121,1122,1122,1122,1121,1120,1120,1120,1120,1120,1121,1122,1123,1123,1123,1123],"ymouse":[511,511,511,511,511,511,511,511,511,511,511,511,511,511,511,511,511,511,511,511,511,511,511,511,511,511,511,511,511,511,511,511,511,511,511,511,511,511,511,511,511,511,511,511,511,511,510,510,510,510,510,510,510,510,510,510,510,510,510,510,505,503,502,499,497,489,474,431,410,392,377,371,347,327,317,311,305,304,298,286,275,268,248,229,211,198,183,177,170,168,168,168,167,166,166,165,161,157,154,144,130,118,118,117,117,117,117,117,117,117,117,116,112,109,105,99],"timestamp_mouse":[9,24,44,65,86,105,125,145,164,184,205,226,246,264,285,304,325,346,366,385,406,424,446,464,484,506,525,546,564,585,605,625,645,666,685,705,724,745,765,784,804,826,844,865,885,904,924,946,965,984,1004,1026,1045,1064,1084,1104,1124,1145,1165,1186,1205,1226,1244,1265,1285,1306,1325,1344,1365,1386,1404,1424,1444,1465,1485,1505,1525,1544,1564,1585,1605,1624,1645,1665,1684,1704,1725,1744,1764,1786,1805,1824,1845,1865,1884,1906,1925,1944,1965,1984,2005,2025,2044,2064,2085,2106,2124,2145,2164,2184,2204,2224,2244,2265,2285,2306],"xSR":741.5,"ySR":469.95,"xT1":424.9,"yT1":0,"xT2":1058.1,"yT2":0,"toosoon":0,"cond_shown":"equaldotanddens","ratio_trial":500,"smaller_num":"5","larger_num":"10","correct_side":1,"subjID":"juanpablocampospuerto30","gender":"0","age":"11","school":"6"},{"start_time":1551794850596,"click_time":1551794852251,"finger_time":1551794851992,"fix_duration":262.07367118425185,"trial":6,"RT":1396,"MT":259,"sideResp":2,"stimulus":"img/250/equaldotanddens/L/15_Ratio_250_L_12_R_3.png","xmouse":[772,772,772,772,772,772,772,772,772,772,772,772,772,772,772,772,772,772,772,772,772,772,772,772,772,772,772,772,772,772,772,772,772,772,772,772,772,772,772,772,772,772,772,772,772,772,772,772,772,772,772,772,772,772,772,772,772,772,772,772,772,772,772,772,773,778,785,800,818,853,867,878,899,919,951,965,988,1013,1044,1050,1054,1060,1074],"ymouse":[508,508,508,508,508,508,508,508,508,508,508,508,508,508,508,508,508,508,508,508,508,508,508,508,508,508,508,508,508,508,508,508,508,508,508,508,508,508,508,508,508,508,508,508,508,508,508,508,508,508,508,508,508,508,508,508,508,508,508,508,508,508,508,508,506,502,495,484,471,441,432,423,398,369,316,290,253,215,156,141,128,114,81],"timestamp_mouse":[31,36,56,76,97,115,135,157,176,197,215,235,257,277,297,316,335,356,375,396,417,437,455,476,496,516,536,557,576,596,616,637,657,676,696,716,737,757,776,796,817,836,855,876,896,916,935,955,977,995,1015,1035,1056,1075,1097,1115,1136,1157,1175,1196,1216,1236,1256,1277,1296,1315,1335,1355,1375,1396,1416,1437,1456,1475,1496,1515,1535,1555,1575,1596,1615,1635,1655],"xSR":741.5,"ySR":469.95,"xT1":424.9,"yT1":0,"xT2":1058.1,"yT2":0,"toosoon":0,"cond_shown":"equaldotanddens","ratio_trial":250,"smaller_num":"3","larger_num":"12","correct_side":1,"subjID":"juanpablocampospuerto30","gender":"0","age":"11","school":"6"},{"start_time":1551794854111,"click_time":1551794855612,"finger_time":1551794855033,"fix_duration":438.3566432433784,"trial":7,"RT":922,"MT":579,"sideResp":1,"stimulus":"img/900/equaldotanddens/R/13_Ratio_900_L_18_R_20.png","xmouse":[789,789,789,789,789,789,789,789,789,789,789,789,789,789,789,789,789,789,789,789,789,789,789,789,789,789,789,789,789,789,789,789,789,789,789,789,789,789,789,789,789,789,789,789,780,764,742,704,657,634,615,585,556,532,482,471,465,465,465,465,465,465,465,465,465,465,465,465,465,466,470,471,472,475,484,487],"ymouse":[539,539,539,539,539,539,539,539,539,539,539,539,539,539,539,539,539,539,539,539,539,539,539,539,539,539,540,541,541,541,541,541,541,541,541,541,541,541,541,541,541,541,541,541,527,499,461,411,368,351,336,314,289,255,183,171,168,167,167,167,167,167,167,163,161,161,160,157,153,151,146,143,136,128,105,86],"timestamp_mouse":[3,20,45,62,81,101,121,142,161,180,202,220,240,262,281,301,321,341,361,381,401,420,441,461,481,500,520,540,561,581,600,621,641,660,682,700,720,740,761,782,801,820,842,861,880,901,922,942,961,980,1000,1021,1040,1060,1080,1100,1120,1140,1160,1181,1201,1220,1240,1261,1280,1300,1321,1341,1361,1380,1401,1421,1441,1460,1480,1501],"xSR":741.5,"ySR":469.95,"xT1":424.9,"yT1":0,"xT2":1058.1,"yT2":0,"toosoon":0,"cond_shown":"equaldotanddens","ratio_trial":900,"smaller_num":"18","larger_num":"20","correct_side":2,"subjID":"juanpablocampospuerto30","gender":"0","age":"11","school":"6"},{"start_time":1551794857364,"click_time":1551794858791,"finger_time":1551794858451,"fix_duration":672.6497555969577,"trial":8,"RT":1087,"MT":340,"sideResp":1,"stimulus":"img/900/randomdotsizeEA/L/4_Ratio_900_L_20_R_18.png","xmouse":[814,814,814,814,814,814,814,814,814,814,814,814,814,814,814,814,814,814,814,814,814,814,814,814,814,814,814,814,814,814,814,814,814,814,814,814,814,814,814,814,814,814,814,814,814,814,814,814,814,814,815,821,824,828,832,835,836,840,844,846,847,847,841,828,810,740,718,697,672,623,517,483],"ymouse":[488,488,488,488,488,488,488,488,488,488,488,488,488,488,488,488,488,488,488,488,488,488,488,488,488,488,488,488,488,488,488,488,488,488,488,488,488,488,488,488,488,488,488,488,488,488,488,488,488,488,484,480,476,473,468,464,461,454,447,444,434,424,409,388,367,310,292,275,255,207,100,71],"timestamp_mouse":[11,41,49,68,87,109,128,149,168,188,207,228,247,267,288,308,328,347,367,389,407,429,447,468,489,509,528,549,569,588,609,627,647,667,688,707,729,747,768,787,808,828,849,867,888,907,928,948,969,988,1008,1027,1049,1067,1087,1108,1127,1148,1167,1188,1208,1227,1247,1268,1289,1308,1327,1348,1368,1387,1408,1427],"xSR":741.5,"ySR":469.95,"xT1":424.9,"yT1":0,"xT2":1058.1,"yT2":0,"toosoon":0,"cond_shown":"randomdotsizeEA","ratio_trial":900,"smaller_num":"18","larger_num":"20","correct_side":1,"subjID":"juanpablocampospuerto30","gender":"0","age":"11","school":"6"},{"start_time":1551794860983,"click_time":1551794862292,"finger_time":1551794861972,"fix_duration":1209.2242172893164,"trial":9,"RT":989,"MT":320,"sideResp":2,"stimulus":"img/900/equaldotsize/L/1_Ratio_900_L_10_R_9.png","xmouse":[772,772,772,772,772,772,772,772,772,772,772,772,772,772,772,772,772,772,772,772,772,772,772,772,772,772,772,772,772,772,772,772,772,772,772,772,772,772,772,772,772,772,774,778,785,801,808,817,827,851,867,890,910,922,938,944,953,965,977,996,1002,1008,1015,1032,1044,1067],"ymouse":[536,536,536,536,536,536,536,536,536,536,536,536,536,536,536,536,536,536,536,536,536,536,536,536,536,536,536,536,536,536,536,536,536,536,536,536,536,536,536,536,536,536,536,534,523,504,495,484,471,434,411,390,370,357,322,303,284,264,241,205,189,174,157,131,111,78],"timestamp_mouse":[10,36,49,69,88,109,129,149,169,189,209,229,249,269,288,309,330,349,369,389,409,428,449,468,488,508,530,548,568,589,610,628,649,670,689,709,730,749,769,789,809,829,848,869,888,908,928,949,969,989,1008,1028,1048,1069,1089,1109,1129,1149,1169,1189,1208,1228,1254,1268,1288,1309],"xSR":741.5,"ySR":469.95,"xT1":424.9,"yT1":0,"xT2":1058.1,"yT2":0,"toosoon":0,"cond_shown":"equaldotsize","ratio_trial":900,"smaller_num":"9","larger_num":"10","correct_side":1,"subjID":"juanpablocampospuerto30","gender":"0","age":"11","school":"6"},{"start_time":1551794863493,"click_time":1551794865612,"finger_time":1551794863952,"fix_duration":338.66635340274365,"trial":10,"RT":459,"MT":1660,"sideResp":1,"stimulus":"img/500/equaldotanddens/L/4_Ratio_500_L_18_R_9.png","xmouse":[790,790,790,790,790,790,790,790,790,790,790,790,790,790,790,790,790,790,790,790,790,788,788,788,788,785,780,775,773,773,773,773,773,772,772,772,772,772,772,772,771,762,753,749,749,749,749,760,780,787,787,787,790,793,811,820,825,826,826,826,826,826,826,826,826,826,826,826,826,826,826,826,826,826,826,826,822,815,800,732,690,655,635,619,606,598,593,590,584,565,548,531,517,506,496,495,495,495,492,487,484,481,478,477,477,477,477],"ymouse":[490,490,490,490,490,490,490,490,490,490,490,490,490,490,490,490,490,490,490,490,490,482,470,446,408,393,378,368,362,362,362,362,362,361,361,361,361,361,361,361,362,373,388,398,402,404,411,432,472,491,500,500,505,509,531,542,547,549,549,549,549,549,549,549,549,549,549,549,549,549,549,549,549,549,549,549,550,550,549,535,513,484,456,433,420,414,403,383,347,302,278,258,239,223,204,202,201,197,190,177,168,164,159,149,116,101,94],"timestamp_mouse":[1,32,40,58,79,99,118,140,159,178,199,218,238,258,278,298,318,338,360,378,398,418,439,459,479,498,519,539,559,579,599,619,640,658,679,699,719,739,758,778,800,819,838,858,879,898,918,939,960,978,1000,1019,1040,1059,1079,1100,1118,1138,1159,1180,1199,1219,1239,1258,1279,1298,1319,1339,1360,1379,1399,1419,1438,1460,1478,1498,1520,1538,1560,1579,1599,1618,1639,1658,1680,1698,1719,1739,1759,1779,1798,1818,1838,1858,1880,1898,1919,1938,1959,1979,1999,2019,2039,2060,2079,2098,2119],"xSR":741.5,"ySR":469.95,"xT1":424.9,"yT1":0,"xT2":1058.1,"yT2":0,"toosoon":0,"cond_shown":"equaldotanddens","ratio_trial":500,"smaller_num":"9","larger_num":"18","correct_side":1,"subjID":"juanpablocampospuerto30","gender":"0","age":"11","school":"6"},{"start_time":1551794866784,"click_time":1551794868233,"finger_time":1551794867692,"fix_duration":250,"trial":11,"RT":908,"MT":541,"sideResp":2,"stimulus":"img/500/equaldotsize/L/4_Ratio_500_L_18_R_9.png","xmouse":[763,763,763,763,763,763,764,764,764,764,764,764,764,764,764,764,764,764,764,764,764,764,764,764,764,764,764,764,764,764,764,764,764,764,764,764,764,764,764,764,764,764,768,774,783,801,808,818,834,863,868,871,871,871,874,876,884,895,912,954,984,1001,1008,1011,1019,1024,1027,1030,1033,1035,1043,1050,1059],"ymouse":[508,508,508,508,509,509,509,510,510,510,510,510,510,510,510,510,510,510,510,510,510,510,510,510,510,510,510,510,510,510,510,510,510,510,510,510,510,510,510,510,510,510,506,496,473,430,413,391,359,313,295,288,286,283,266,255,236,216,197,167,148,135,128,125,117,115,113,111,109,108,87,69,50],"timestamp_mouse":[12,34,48,68,88,108,127,149,167,187,209,229,248,269,289,307,328,348,368,388,408,429,447,467,487,508,528,549,569,587,607,629,647,667,688,707,727,747,768,788,808,828,847,868,887,908,929,948,967,988,1007,1027,1048,1067,1089,1107,1127,1148,1167,1188,1207,1227,1247,1268,1288,1307,1327,1348,1369,1388,1408,1427,1449],"xSR":741.5,"ySR":469.95,"xT1":424.9,"yT1":0,"xT2":1058.1,"yT2":0,"toosoon":0,"cond_shown":"equaldotsize","ratio_trial":500,"smaller_num":"9","larger_num":"18","correct_side":1,"subjID":"juanpablocampospuerto30","gender":"0","age":"11","school":"6"},{"start_time":1551794869734,"click_time":1551794871072,"finger_time":1551794870713,"fix_duration":641.2715273101818,"trial":12,"RT":979,"MT":359,"sideResp":1,"stimulus":"img/250/equaldotsize/R/12_Ratio_250_L_5_R_20.png","xmouse":[783,783,783,783,783,783,783,783,783,783,784,785,785,785,785,785,785,785,785,785,785,785,785,785,785,785,785,785,785,785,785,785,785,785,785,785,785,785,785,785,785,785,785,785,785,785,785,779,774,760,739,686,666,649,640,637,632,618,611,607,601,585,571,553,536,524,503],"ymouse":[488,488,488,488,488,488,488,488,488,488,488,488,488,488,488,488,488,488,488,488,488,488,488,488,488,488,488,488,488,488,488,488,488,488,488,488,488,488,488,488,488,488,488,488,488,488,485,470,459,443,426,386,372,361,353,348,334,306,289,272,254,210,182,155,127,107,79],"timestamp_mouse":[19,40,59,77,98,119,137,158,179,198,219,238,258,277,297,318,337,358,379,399,419,437,457,477,498,518,538,558,577,598,618,637,659,677,697,718,738,758,777,797,818,838,857,877,899,918,937,957,979,997,1017,1038,1057,1077,1097,1117,1137,1157,1177,1197,1217,1237,1258,1277,1297,1317,1338],"xSR":741.5,"ySR":469.95,"xT1":424.9,"yT1":0,"xT2":1058.1,"yT2":0,"toosoon":0,"cond_shown":"equaldotsize","ratio_trial":250,"smaller_num":"5","larger_num":"20","correct_side":2,"subjID":"juanpablocampospuerto30","gender":"0","age":"11","school":"6"},{"start_time":1551794873538,"click_time":1551794875831,"finger_time":1551794875271,"fix_duration":1445.104390629813,"trial":13,"RT":1733,"MT":560,"sideResp":2,"stimulus":"img/900/randomdotsizeEA/R/14_Ratio_900_L_18_R_20.png","xmouse":[796,796,796,796,796,796,796,796,796,796,796,796,796,796,796,796,796,796,796,796,796,796,796,796,796,796,796,796,796,796,796,796,796,796,796,796,796,796,796,796,796,796,796,796,796,796,796,796,796,796,798,798,798,798,798,798,798,798,798,798,798,798,798,798,798,798,798,798,798,798,798,798,798,798,799,800,801,801,801,801,801,801,802,805,806,814,820,832,839,845,851,861,867,875,882,895,908,914,920,934,950,961,974,974,974,974,976,990,1006,1021,1028,1033,1037,1046,1064],"ymouse":[542,542,542,542,542,542,542,542,542,542,542,542,542,542,542,542,542,542,542,542,542,542,542,542,542,542,542,542,542,542,542,542,542,542,542,542,542,542,542,542,542,542,539,538,537,536,535,534,532,528,524,523,522,522,522,522,522,522,522,522,522,522,522,522,522,522,522,522,522,522,522,522,522,522,518,516,513,512,512,512,512,512,508,502,497,481,467,439,426,414,401,378,364,345,327,300,254,232,211,188,168,156,145,145,145,145,144,137,129,121,117,114,112,106,97],"timestamp_mouse":[14,36,55,74,94,113,135,155,175,194,213,235,253,275,293,314,333,354,374,393,413,434,453,474,494,513,535,554,573,593,615,634,653,674,694,714,734,755,775,793,815,833,853,874,893,914,934,954,973,995,1013,1033,1055,1074,1094,1115,1133,1154,1174,1194,1215,1233,1254,1274,1295,1314,1333,1354,1373,1393,1415,1435,1454,1473,1494,1514,1534,1553,1573,1594,1614,1634,1654,1674,1693,1714,1733,1754,1775,1794,1813,1835,1854,1873,1894,1913,1934,1953,1974,1994,2013,2034,2053,2074,2095,2114,2134,2153,2174,2193,2213,2233,2254,2273,2293],"xSR":741.5,"ySR":469.95,"xT1":424.9,"yT1":0,"xT2":1058.1,"yT2":0,"toosoon":0,"cond_shown":"randomdotsizeEA","ratio_trial":900,"smaller_num":"18","larger_num":"20","correct_side":2,"subjID":"juanpablocampospuerto30","gender":"0","age":"11","school":"6"},{"start_time":1551794878124,"click_time":1551794883653,"finger_time":1551794880013,"fix_duration":1125.0712320852647,"trial":14,"RT":1889,"MT":3640,"sideResp":1,"stimulus":"img/750/randomdotsizeEA/L/8_Ratio_750_L_4_R_3.png","xmouse":[811,811,811,811,811,811,811,811,811,811,811,811,811,811,811,811,811,811,811,811,811,811,811,811,811,811,811,811,811,811,811,811,811,811,811,811,811,811,811,811,811,811,811,811,811,811,811,811,811,811,811,811,811,811,811,811,811,811,811,811,811,811,811,811,811,811,811,811,811,811,811,811,811,811,811,811,811,811,812,813,814,814,814,814,815,817,818,818,819,820,820,821,822,823,825,825,827,827,827,827,827,827,827,827,827,827,827,827,827,827,827,827,827,827,827,827,827,827,827,827,827,827,827,827,827,827,827,827,827,827,827,827,827,827,827,827,827,827,827,827,827,827,827,827,827,827,827,827,827,827,827,827,827,827,827,827,827,827,827,827,827,827,827,827,827,827,827,827,827,827,827,827,827,827,827,827,827,827,827,826,825,825,825,825,825,825,825,825,825,825,825,825,825,825,825,825,825,825,825,825,825,825,825,825,825,825,825,825,825,825,825,825,825,825,825,825,825,825,825,825,825,825,825,825,825,825,825,825,825,825,825,825,825,825,825,825,825,825,825,825,825,825,822,810,788,749,736,700,692,684,677,671,660,653,643,624,604,553,539,528,520,514,514,514,514,514,514,514,514,514,514,514,514,514,513,511,507],"ymouse":[486,486,486,486,486,486,486,486,486,486,486,486,486,486,486,486,486,486,486,486,486,486,486,486,486,486,486,486,486,486,486,486,486,486,486,486,486,486,486,486,486,486,486,486,486,486,486,486,486,486,486,486,486,486,486,486,486,486,486,486,486,486,486,486,486,487,487,487,487,487,487,487,487,487,487,487,487,487,486,485,483,483,483,483,481,479,478,477,476,476,476,474,473,472,469,469,466,466,466,466,466,466,466,466,466,466,466,466,466,466,466,466,466,466,466,466,466,466,466,466,466,466,466,466,466,466,466,466,466,466,466,466,466,466,466,466,466,466,466,466,466,466,466,466,466,466,466,466,466,466,466,466,466,466,466,466,466,466,466,466,466,466,466,466,466,466,466,466,466,466,466,466,466,466,465,464,464,463,461,460,459,459,459,459,458,458,458,458,458,458,458,458,458,458,458,458,458,458,458,458,458,458,458,458,458,458,458,458,458,458,458,458,458,458,458,458,458,458,458,458,458,458,458,458,458,458,458,458,458,458,458,458,458,458,458,458,458,458,458,458,458,458,458,454,441,418,411,392,388,382,377,372,362,356,346,324,290,207,183,162,146,139,138,138,138,138,138,137,136,135,133,132,126,122,115,109,98],"timestamp_mouse":[10,34,47,68,88,107,127,147,169,189,207,228,248,268,288,308,327,353,368,388,408,427,447,468,487,507,527,547,569,587,607,627,647,669,687,707,728,748,767,789,807,827,848,868,888,907,928,947,967,989,1008,1027,1048,1067,1089,1107,1127,1148,1167,1188,1208,1227,1247,1268,1288,1308,1327,1347,1368,1387,1407,1429,1447,1468,1487,1508,1527,1548,1568,1587,1607,1627,1648,1667,1687,1708,1729,1748,1768,1788,1808,1828,1848,1867,1889,1909,1927,1948,1968,1989,2007,2027,2049,2069,2087,2107,2128,2148,2168,2187,2209,2227,2248,2268,2288,2307,2327,2348,2368,2388,2407,2429,2448,2468,2487,2509,2528,2548,2567,2587,2609,2627,2649,2667,2688,2707,2727,2748,2768,2788,2808,2827,2848,2868,2888,2908,2929,2949,2968,2987,3008,3029,3049,3067,3088,3107,3127,3148,3168,3189,3208,3227,3247,3268,3288,3307,3328,3348,3368,3389,3407,3427,3448,3467,3487,3507,3527,3547,3567,3589,3608,3627,3648,3667,3689,3708,3727,3748,3767,3787,3808,3828,3848,3869,3889,3908,3929,3947,3968,3988,4007,4027,4048,4068,4087,4108,4127,4148,4169,4188,4208,4227,4248,4267,4287,4308,4328,4348,4368,4387,4407,4429,4449,4467,4487,4508,4529,4548,4568,4587,4608,4629,4648,4667,4688,4707,4727,4749,4767,4787,4808,4828,4848,4867,4887,4907,4929,4948,4967,4987,5008,5029,5048,5067,5087,5107,5129,5148,5167,5188,5208,5228,5247,5267,5287,5307,5328,5348,5367,5388,5407,5429,5448,5467,5487,5509,5529],"xSR":741.5,"ySR":469.95,"xT1":424.9,"yT1":0,"xT2":1058.1,"yT2":0,"toosoon":0,"cond_shown":"randomdotsizeEA","ratio_trial":750,"smaller_num":"3","larger_num":"4","correct_side":1,"subjID":"juanpablocampospuerto30","gender":"0","age":"11","school":"6"},{"start_time":1551794886784,"click_time":1551794888311,"finger_time":1551794887531,"fix_duration":250,"trial":15,"RT":747,"MT":780,"sideResp":2,"stimulus":"img/750/equaldotanddens/R/12_Ratio_750_L_3_R_4.png","xmouse":[806,806,806,806,806,806,806,806,806,806,806,806,806,806,806,806,806,806,806,806,806,806,806,806,806,806,806,806,806,806,806,806,806,806,806,804,801,794,784,766,762,761,761,761,761,761,761,761,761,713,675,646,630,624,623,623,623,623,623,624,635,647,660,694,720,786,807,822,836,872,899,941,992,1003,1026,1049,1063],"ymouse":[496,496,496,496,496,496,496,496,496,496,496,496,496,496,496,496,496,496,496,496,496,496,496,496,496,496,496,496,496,496,496,496,496,496,496,493,482,467,445,413,405,404,404,404,404,404,404,404,401,339,298,280,271,267,266,266,266,266,266,267,274,281,284,285,275,233,215,202,194,178,166,143,113,105,94,86,82],"timestamp_mouse":[10,35,46,67,86,108,126,146,166,186,206,227,246,266,288,307,328,346,366,387,407,426,446,466,486,508,526,548,566,586,606,628,646,666,686,707,726,747,768,787,806,826,848,867,887,906,926,946,967,987,1006,1027,1046,1067,1087,1106,1127,1147,1166,1187,1207,1227,1247,1266,1286,1306,1327,1347,1368,1387,1406,1426,1446,1467,1486,1506,1527],"xSR":741.5,"ySR":469.95,"xT1":424.9,"yT1":0,"xT2":1058.1,"yT2":0,"toosoon":0,"cond_shown":"equaldotanddens","ratio_trial":750,"smaller_num":"3","larger_num":"4","correct_side":2,"subjID":"juanpablocampospuerto30","gender":"0","age":"11","school":"6"},{"start_time":1551794890590,"click_time":1551794891930,"finger_time":1551794891610,"fix_duration":1139.0636186638728,"trial":16,"RT":1020,"MT":320,"sideResp":2,"stimulus":"img/900/randomdotsizeEA/R/13_Ratio_900_L_18_R_20.png","xmouse":[797,797,797,797,797,797,797,797,797,797,797,797,797,797,797,797,797,797,797,797,797,797,797,797,797,797,797,797,797,797,797,797,797,797,797,797,797,797,797,797,797,797,797,797,797,797,797,797,797,797,798,812,840,862,894,900,904,910,921,951,967,982,997,1005,1028,1038,1052,1065],"ymouse":[512,512,512,512,512,512,512,512,512,512,512,512,512,512,512,512,512,512,512,512,512,512,512,512,512,512,512,512,512,512,512,512,512,512,512,512,512,512,512,512,512,512,512,512,512,512,512,512,512,512,491,442,364,320,267,259,251,239,221,181,162,145,130,121,105,98,88,80],"timestamp_mouse":[11,20,41,61,81,100,122,140,161,181,201,222,240,261,280,302,321,342,361,380,401,421,442,460,480,500,521,540,560,581,601,621,642,660,681,700,721,741,760,780,801,822,841,862,881,901,920,940,960,982,1000,1020,1040,1061,1082,1100,1121,1140,1160,1182,1200,1220,1240,1261,1281,1300,1320,1340],"xSR":741.5,"ySR":469.95,"xT1":424.9,"yT1":0,"xT2":1058.1,"yT2":0,"toosoon":0,"cond_shown":"randomdotsizeEA","ratio_trial":900,"smaller_num":"18","larger_num":"20","correct_side":2,"subjID":"juanpablocampospuerto30","gender":"0","age":"11","school":"6"},{"start_time":1551794892942,"click_time":1551794894670,"finger_time":1551794893990,"fix_duration":250.96480771371154,"trial":17,"RT":1048,"MT":680,"sideResp":1,"stimulus":"img/750/randomdotsizeEA/L/8_Ratio_750_L_4_R_3.png","xmouse":[787,787,787,787,787,787,787,787,787,787,787,787,787,787,787,787,787,787,787,787,787,787,787,787,787,787,787,787,787,787,787,787,787,787,787,787,787,787,787,787,787,787,787,787,787,787,787,787,787,786,782,768,719,691,650,629,611,580,565,554,547,542,538,533,528,519,507,500,490,478,467,463,462,462,462,463,464,467,469,469,469,469,469,469,469,469,469],"ymouse":[508,508,508,508,508,508,508,508,508,508,508,508,508,508,508,508,508,508,508,508,508,508,508,508,508,508,508,508,508,508,508,508,508,508,508,508,508,508,508,508,508,508,508,508,508,508,508,508,508,502,496,481,441,422,392,375,359,321,301,283,271,253,241,224,205,178,141,128,118,113,112,111,111,111,111,112,116,123,125,126,126,126,125,123,115,103,96],"timestamp_mouse":[8,28,50,69,88,110,129,148,169,188,209,229,249,268,289,309,330,349,370,388,408,429,448,470,488,509,528,549,570,589,609,628,649,669,688,709,729,748,769,790,809,829,849,870,889,908,928,949,969,989,1009,1028,1048,1068,1088,1108,1128,1149,1168,1189,1208,1229,1248,1269,1289,1310,1329,1348,1369,1388,1408,1429,1450,1468,1488,1508,1528,1548,1568,1589,1608,1629,1648,1668,1688,1708,1728],"xSR":741.5,"ySR":469.95,"xT1":424.9,"yT1":0,"xT2":1058.1,"yT2":0,"toosoon":0,"cond_shown":"randomdotsizeEA","ratio_trial":750,"smaller_num":"3","larger_num":"4","correct_side":1,"subjID":"juanpablocampospuerto30","gender":"0","age":"11","school":"6"},{"start_time":1551794897711,"click_time":1551794899071,"finger_time":1551794898490,"fix_duration":779.0770770091976,"trial":18,"RT":779,"MT":581,"sideResp":2,"stimulus":"img/900/equaldotsize/R/14_Ratio_900_L_18_R_20.png","xmouse":[790,790,790,790,790,790,790,790,790,790,790,790,790,790,790,790,790,790,790,790,790,790,790,790,790,790,790,790,790,790,790,790,790,790,790,790,790,790,797,813,830,851,875,889,911,936,950,973,980,983,984,984,976,976,976,976,978,981,987,988,992,1001,1032,1044,1049,1053,1058,1065],"ymouse":[518,518,518,518,518,518,518,518,518,518,518,518,518,518,518,518,518,518,518,518,518,518,518,518,518,518,518,518,518,518,518,518,518,518,518,518,516,505,463,443,429,420,412,408,398,386,374,341,327,314,299,283,245,212,177,144,110,99,92,92,90,90,85,83,82,81,80,76],"timestamp_mouse":[20,42,60,79,99,119,140,160,179,199,219,239,260,279,300,321,339,359,379,399,421,440,460,479,499,519,540,559,580,600,620,639,659,681,699,719,739,760,779,800,820,841,860,879,899,919,940,960,979,999,1019,1039,1061,1079,1100,1119,1139,1159,1180,1199,1220,1240,1260,1279,1300,1321,1339,1360],"xSR":741.5,"ySR":469.95,"xT1":424.9,"yT1":0,"xT2":1058.1,"yT2":0,"toosoon":0,"cond_shown":"equaldotsize","ratio_trial":900,"smaller_num":"18","larger_num":"20","correct_side":2,"subjID":"juanpablocampospuerto30","gender":"0","age":"11","school":"6"},{"start_time":1551794900093,"click_time":1551794901390,"finger_time":1551794900771,"fix_duration":281.5491264897652,"trial":19,"RT":678,"MT":619,"sideResp":1,"stimulus":"img/900/equaldotsize/L/4_Ratio_900_L_20_R_18.png","xmouse":[788,788,788,788,788,788,788,788,788,788,788,788,788,788,788,788,788,788,788,788,788,788,788,788,788,788,788,788,788,788,781,776,764,725,705,689,679,672,668,663,659,656,653,649,636,628,619,607,583,561,543,531,523,511,504,501,496,492,488,484,482,480,478,475,471],"ymouse":[520,520,520,520,520,520,520,520,520,520,520,520,520,520,520,520,520,520,520,520,520,520,520,520,520,520,520,520,520,520,515,511,504,486,480,480,478,473,470,452,439,431,419,405,379,366,352,334,296,266,242,226,214,193,180,168,158,150,140,129,123,117,111,100,70],"timestamp_mouse":[25,38,57,77,97,118,138,158,177,197,218,239,257,277,297,317,337,358,378,397,417,439,457,479,497,519,539,557,577,598,618,637,657,678,697,717,738,757,777,797,818,837,857,878,897,918,937,958,977,997,1018,1037,1059,1078,1097,1117,1139,1158,1177,1198,1217,1238,1259,1277,1297],"xSR":741.5,"ySR":469.95,"xT1":424.9,"yT1":0,"xT2":1058.1,"yT2":0,"toosoon":0,"cond_shown":"equaldotsize","ratio_trial":900,"smaller_num":"18","larger_num":"20","correct_side":1,"subjID":"juanpablocampospuerto30","gender":"0","age":"11","school":"6"},{"start_time":1551794903253,"click_time":1551794904590,"finger_time":1551794904050,"fix_duration":980.2274245500269,"trial":20,"RT":797,"MT":540,"sideResp":1,"stimulus":"img/750/equaldotanddens/L/8_Ratio_750_L_4_R_3.png","xmouse":[759,759,760,760,760,760,760,760,760,760,760,760,760,760,760,760,760,760,760,760,760,760,760,760,760,760,760,760,760,760,760,760,760,760,758,753,751,747,742,722,693,681,671,666,661,652,626,611,601,598,595,588,580,564,543,513,509,506,504,502,500,495,493,491,491,493,497],"ymouse":[518,518,517,517,517,517,517,517,517,517,517,517,517,517,517,517,517,517,517,517,517,517,517,517,517,517,517,517,517,517,517,517,513,511,507,499,496,492,488,474,435,412,395,387,380,374,354,343,334,330,325,313,301,279,248,210,204,201,197,192,181,165,157,150,140,113,94],"timestamp_mouse":[19,37,57,77,97,117,138,158,179,198,218,238,258,278,299,319,337,358,378,399,417,437,458,478,498,517,539,557,577,599,618,637,658,679,697,718,737,758,777,797,817,837,858,877,897,918,937,958,977,997,1017,1038,1058,1079,1098,1118,1137,1157,1177,1198,1218,1237,1257,1277,1299,1318,1337],"xSR":741.5,"ySR":469.95,"xT1":424.9,"yT1":0,"xT2":1058.1,"yT2":0,"toosoon":0,"cond_shown":"equaldotanddens","ratio_trial":750,"smaller_num":"3","larger_num":"4","correct_side":1,"subjID":"juanpablocampospuerto30","gender":"0","age":"11","school":"6"},{"start_time":1551794906740,"click_time":1551794907870,"finger_time":1551794907491,"fix_duration":1268.687870124532,"trial":21,"RT":751,"MT":379,"sideResp":2,"stimulus":"img/750/equaldotanddens/R/4_Ratio_750_L_15_R_20.png","xmouse":[817,817,817,817,817,817,817,817,817,817,817,817,817,817,817,817,817,817,817,817,817,817,817,817,817,817,817,817,817,817,817,817,817,817,817,818,820,829,837,839,841,848,852,856,861,864,887,905,929,960,993,1035,1058,1075,1089,1101,1112],"ymouse":[511,511,511,511,511,511,511,511,511,511,511,511,511,511,511,511,511,511,511,511,511,511,511,511,511,511,511,511,511,511,511,511,511,511,511,511,507,468,444,421,406,382,368,360,350,345,310,287,262,231,201,166,148,132,118,107,97],"timestamp_mouse":[10,36,50,71,91,111,131,151,171,192,212,230,250,270,292,312,331,350,372,391,411,431,451,472,490,511,530,550,570,590,610,630,650,671,690,712,730,751,770,790,810,832,850,870,890,910,931,950,970,990,1010,1032,1050,1071,1090,1111,1130],"xSR":741.5,"ySR":469.95,"xT1":424.9,"yT1":0,"xT2":1058.1,"yT2":0,"toosoon":0,"cond_shown":"equaldotanddens","ratio_trial":750,"smaller_num":"15","larger_num":"20","correct_side":2,"subjID":"juanpablocampospuerto30","gender":"0","age":"11","school":"6"},{"start_time":1551794909132,"click_time":1551794910390,"finger_time":1551794910030,"fix_duration":479.8706989805007,"trial":22,"RT":898,"MT":360,"sideResp":1,"stimulus":"img/500/equaldotanddens/L/4_Ratio_500_L_18_R_9.png","xmouse":[813,813,813,813,813,813,813,813,813,813,813,813,813,813,813,813,813,813,813,813,813,813,813,813,813,813,813,813,813,813,813,813,813,813,813,813,813,813,813,813,809,803,788,775,763,759,743,708,676,642,615,580,570,561,553,546,535,518,511,504,498,494,486],"ymouse":[520,520,520,520,520,520,520,520,520,520,520,520,520,520,520,520,520,520,520,520,520,520,520,520,520,520,520,520,520,520,520,520,520,520,520,520,520,520,520,520,515,509,491,481,469,464,446,412,389,364,342,313,300,289,277,263,241,217,205,186,163,134,58],"timestamp_mouse":[19,38,59,78,100,119,139,158,178,199,220,238,258,279,300,318,339,358,379,400,418,439,459,480,498,518,539,559,580,599,619,638,659,678,698,719,739,758,779,799,818,838,860,878,898,919,939,958,979,1000,1018,1040,1058,1079,1100,1118,1138,1159,1178,1199,1218,1238,1258],"xSR":741.5,"ySR":469.95,"xT1":424.9,"yT1":0,"xT2":1058.1,"yT2":0,"toosoon":0,"cond_shown":"equaldotanddens","ratio_trial":500,"smaller_num":"9","larger_num":"18","correct_side":1,"subjID":"juanpablocampospuerto30","gender":"0","age":"11","school":"6"},{"start_time":1551794912507,"click_time":1551794913790,"finger_time":1551794913390,"fix_duration":994.354807419685,"trial":23,"RT":883,"MT":400,"sideResp":1,"stimulus":"img/750/equaldotanddens/L/1_Ratio_750_L_20_R_15.png","xmouse":[796,796,796,796,796,796,796,796,796,796,796,796,796,796,796,796,796,796,796,796,796,796,796,796,796,796,796,796,796,796,796,796,796,796,796,796,796,796,796,796,796,796,794,786,769,745,720,699,655,632,615,605,598,588,581,578,575,572,570,568,565,562,555,531,516],"ymouse":[513,513,513,513,513,513,513,513,513,513,513,513,513,513,513,513,513,513,513,513,513,513,513,513,513,513,513,513,513,513,513,513,513,513,513,513,513,513,513,513,513,513,509,489,452,400,358,327,265,238,220,208,196,168,151,136,124,117,113,112,109,106,101,84,73],"timestamp_mouse":[20,36,44,64,83,104,124,144,165,184,204,225,244,263,284,304,323,345,363,385,403,423,443,465,483,503,524,545,564,583,604,623,643,665,684,703,725,744,763,783,804,823,843,864,883,903,923,943,964,983,1003,1024,1045,1064,1083,1103,1123,1145,1163,1183,1203,1223,1243,1264,1283],"xSR":741.5,"ySR":469.95,"xT1":424.9,"yT1":0,"xT2":1058.1,"yT2":0,"toosoon":0,"cond_shown":"equaldotanddens","ratio_trial":750,"smaller_num":"15","larger_num":"20","correct_side":1,"subjID":"juanpablocampospuerto30","gender":"0","age":"11","school":"6"},{"start_time":1551794915039,"click_time":1551794916471,"finger_time":1551794916151,"fix_duration":446.1330243716235,"trial":24,"RT":1112,"MT":320,"sideResp":2,"stimulus":"img/900/equaldotanddens/L/10_Ratio_900_L_20_R_18.png","xmouse":[768,768,768,768,768,768,768,768,768,768,768,768,768,768,768,768,768,768,768,768,768,768,768,768,768,768,768,768,768,768,768,768,768,768,768,768,768,768,768,768,768,768,768,768,768,768,768,769,769,770,771,777,795,805,815,824,844,857,881,920,946,990,1011,1027,1038,1045,1056,1066,1074,1079,1080,1085],"ymouse":[511,511,511,511,511,511,511,511,511,511,511,511,511,511,511,511,511,511,511,511,511,511,511,511,511,511,511,511,511,511,511,511,511,511,511,511,511,511,511,511,511,510,508,507,507,507,507,506,506,505,505,502,489,482,474,466,452,442,432,414,400,358,317,272,234,200,153,130,115,105,102,95],"timestamp_mouse":[13,33,52,71,91,112,131,152,171,191,213,231,252,271,291,312,332,352,373,391,412,432,452,472,492,511,532,553,573,593,611,631,652,671,691,712,732,753,772,792,812,832,853,872,891,911,932,953,972,991,1012,1031,1051,1071,1092,1112,1132,1151,1171,1191,1212,1232,1252,1271,1292,1312,1332,1351,1371,1391,1412,1432],"xSR":741.5,"ySR":469.95,"xT1":424.9,"yT1":0,"xT2":1058.1,"yT2":0,"toosoon":0,"cond_shown":"equaldotanddens","ratio_trial":900,"smaller_num":"18","larger_num":"20","correct_side":1,"subjID":"juanpablocampospuerto30","gender":"0","age":"11","school":"6"},{"start_time":1551794918183,"click_time":1551794919492,"finger_time":1551794918930,"fix_duration":850.7676343284817,"trial":25,"RT":747,"MT":562,"sideResp":2,"stimulus":"img/500/equaldotsize/R/3_Ratio_500_L_10_R_20.png","xmouse":[767,767,767,767,767,767,767,767,767,767,767,767,767,767,767,767,767,767,767,767,767,767,767,767,767,767,767,767,767,767,767,767,767,769,779,798,804,813,821,843,854,864,871,878,911,925,939,951,965,980,997,1002,1005,1007,1008,1012,1013,1017,1023,1031,1045,1050,1052,1056,1060,1063],"ymouse":[537,537,537,537,537,537,537,537,537,537,537,537,537,537,537,537,537,537,537,537,537,537,537,537,537,537,537,537,537,537,537,537,537,535,523,499,487,468,443,367,328,295,278,264,213,197,182,170,158,150,138,135,132,131,131,128,126,124,121,118,112,108,107,105,102,98],"timestamp_mouse":[11,36,48,67,87,107,129,148,167,189,207,228,247,267,288,307,329,349,368,387,408,427,449,467,488,507,527,547,567,587,607,628,647,669,687,708,727,747,767,788,807,827,847,868,888,907,928,947,967,987,1008,1027,1047,1068,1087,1108,1128,1147,1168,1187,1207,1228,1247,1268,1287,1308],"xSR":741.5,"ySR":469.95,"xT1":424.9,"yT1":0,"xT2":1058.1,"yT2":0,"toosoon":0,"cond_shown":"equaldotsize","ratio_trial":500,"smaller_num":"10","larger_num":"20","correct_side":2,"subjID":"juanpablocampospuerto30","gender":"0","age":"11","school":"6"},{"start_time":1551794920663,"click_time":1551794921831,"finger_time":1551794921350,"fix_duration":250,"trial":26,"RT":687,"MT":481,"sideResp":1,"stimulus":"img/750/randomdotsizeEA/L/1_Ratio_750_L_20_R_15.png","xmouse":[770,770,770,770,770,770,770,770,770,770,770,770,770,770,770,770,770,770,770,770,770,770,770,770,770,770,770,770,770,770,768,762,754,747,738,718,705,693,676,651,633,592,577,571,569,568,567,565,564,561,557,550,546,539,531,513,502,495,486],"ymouse":[547,547,547,547,547,547,547,547,547,547,547,547,547,547,547,547,547,547,547,547,547,547,547,547,547,547,547,547,547,547,544,526,508,488,469,440,425,411,395,368,349,310,291,281,277,275,272,267,257,241,230,207,192,176,162,136,120,109,95],"timestamp_mouse":[8,40,47,68,88,108,127,148,167,188,207,227,248,267,287,308,327,347,368,387,409,428,447,467,487,508,527,547,567,587,607,627,647,667,687,709,727,749,767,787,807,827,847,867,887,908,928,947,967,987,1008,1027,1047,1068,1089,1108,1127,1147,1167],"xSR":741.5,"ySR":469.95,"xT1":424.9,"yT1":0,"xT2":1058.1,"yT2":0,"toosoon":0,"cond_shown":"randomdotsizeEA","ratio_trial":750,"smaller_num":"15","larger_num":"20","correct_side":1,"subjID":"juanpablocampospuerto30","gender":"0","age":"11","school":"6"},{"start_time":1551794923184,"click_time":1551794924550,"finger_time":1551794924030,"fix_duration":250,"trial":27,"RT":846,"MT":520,"sideResp":1,"stimulus":"img/250/randomdotsizeEA/L/7_Ratio_250_L_8_R_2.png","xmouse":[799,799,799,799,799,799,799,799,799,799,799,799,799,799,799,799,799,799,799,799,799,799,799,799,799,799,799,799,799,799,799,799,799,799,799,799,798,797,795,791,786,776,736,715,630,544,524,512,502,479,466,452,443,440,436,435,435,435,435,433,433,432,431,430,429,429,428,428,428],"ymouse":[498,498,498,498,498,498,498,498,498,498,498,498,498,498,498,498,498,498,498,498,498,498,498,498,498,498,498,498,498,498,498,498,498,498,498,498,498,498,494,490,485,473,427,404,329,253,229,214,198,166,151,140,132,130,128,127,127,127,127,126,126,124,121,114,106,104,102,100,98],"timestamp_mouse":[10,34,46,68,87,107,128,147,167,187,207,228,248,267,287,306,327,348,367,387,406,428,446,467,487,508,527,547,567,587,607,628,647,666,687,706,726,747,766,787,806,827,846,867,886,906,927,946,966,987,1006,1026,1046,1066,1087,1106,1126,1147,1167,1187,1207,1227,1246,1266,1287,1306,1326,1347,1366],"xSR":741.5,"ySR":469.95,"xT1":424.9,"yT1":0,"xT2":1058.1,"yT2":0,"toosoon":0,"cond_shown":"randomdotsizeEA","ratio_trial":250,"smaller_num":"2","larger_num":"8","correct_side":1,"subjID":"juanpablocampospuerto30","gender":"0","age":"11","school":"6"},{"start_time":1551794925543,"click_time":1551794926831,"finger_time":1551794926371,"fix_duration":250,"trial":28,"RT":828,"MT":460,"sideResp":2,"stimulus":"img/500/equaldotanddens/R/1_Ratio_500_L_9_R_18.png","xmouse":[780,780,780,780,780,780,780,780,780,780,780,780,780,780,780,780,780,780,780,780,780,780,780,780,780,780,780,780,780,780,780,780,780,780,780,782,786,805,812,817,823,842,851,862,875,887,897,900,905,910,914,925,930,946,970,1015,1044,1052,1055,1058,1062,1073,1079,1084,1090],"ymouse":[552,552,552,552,552,552,552,552,552,552,552,552,552,552,552,552,552,552,552,552,552,552,552,552,552,552,552,552,552,552,552,552,552,552,552,550,544,516,505,493,478,428,402,380,357,331,304,295,287,281,276,268,264,255,240,214,189,179,173,166,157,132,121,108,97],"timestamp_mouse":[9,41,47,68,88,107,128,148,168,187,207,227,247,268,289,307,328,349,367,387,408,428,448,467,488,508,529,548,567,588,609,629,648,668,687,707,727,748,767,788,807,828,847,867,888,908,928,947,968,987,1007,1028,1047,1067,1088,1108,1128,1147,1168,1187,1207,1228,1247,1267,1288],"xSR":741.5,"ySR":469.95,"xT1":424.9,"yT1":0,"xT2":1058.1,"yT2":0,"toosoon":0,"cond_shown":"equaldotanddens","ratio_trial":500,"smaller_num":"9","larger_num":"18","correct_side":2,"subjID":"juanpablocampospuerto30","gender":"0","age":"11","school":"6"},{"start_time":1551794928274,"click_time":1551794929571,"finger_time":1551794929030,"fix_duration":582.130984263184,"trial":29,"RT":756,"MT":541,"sideResp":1,"stimulus":"img/900/randomdotsizeEA/L/4_Ratio_900_L_20_R_18.png","xmouse":[789,789,789,789,789,789,789,789,789,789,789,789,789,789,789,789,789,789,789,789,789,789,789,789,789,789,789,789,789,789,789,789,789,789,788,775,762,745,741,717,707,696,689,686,684,681,676,674,665,647,630,611,590,570,533,525,520,516,512,510,505,501,496,491,480],"ymouse":[522,522,522,522,522,522,522,522,522,522,522,522,522,522,522,522,522,522,522,522,522,522,522,522,522,522,522,522,522,522,522,522,522,522,521,503,480,442,426,363,334,313,301,296,292,283,274,270,260,239,227,215,201,186,161,156,151,146,139,133,123,118,111,105,96],"timestamp_mouse":[16,37,57,77,97,116,136,156,177,197,216,237,257,277,296,316,336,358,376,396,417,436,456,478,496,517,538,557,577,596,616,637,656,676,698,716,736,756,778,797,816,838,856,876,896,917,937,957,976,997,1016,1037,1056,1076,1098,1116,1137,1158,1176,1196,1217,1236,1256,1276,1297],"xSR":741.5,"ySR":469.95,"xT1":424.9,"yT1":0,"xT2":1058.1,"yT2":0,"toosoon":0,"cond_shown":"randomdotsizeEA","ratio_trial":900,"smaller_num":"18","larger_num":"20","correct_side":1,"subjID":"juanpablocampospuerto30","gender":"0","age":"11","school":"6"},{"start_time":1551794930481,"click_time":1551794931871,"finger_time":1551794931270,"fix_duration":250,"trial":30,"RT":789,"MT":601,"sideResp":1,"stimulus":"img/250/equaldotanddens/L/7_Ratio_250_L_8_R_2.png","xmouse":[806,806,806,806,806,805,805,805,805,805,805,805,805,805,805,805,805,805,805,805,805,805,805,805,805,805,805,805,805,805,805,805,805,805,798,791,784,777,768,760,740,729,720,706,688,630,591,536,519,476,470,466,463,461,458,457,457,458,460,464,470,471,471,471,472,473,474,475,475,477],"ymouse":[519,519,519,519,520,520,520,520,520,520,520,520,520,520,520,520,520,520,520,520,520,520,520,520,520,520,520,520,520,520,520,520,520,521,515,508,500,491,478,469,444,434,425,416,403,362,335,294,283,242,230,216,203,192,181,176,172,164,160,146,127,123,121,120,116,112,108,105,100,94],"timestamp_mouse":[10,40,49,69,90,109,130,149,170,190,209,229,249,270,290,309,329,349,370,389,410,430,450,470,490,510,530,550,569,591,609,629,650,669,690,709,730,749,770,789,809,829,849,869,891,910,929,949,970,990,1010,1029,1049,1069,1090,1109,1130,1149,1171,1190,1209,1229,1250,1269,1290,1309,1329,1349,1370,1390],"xSR":741.5,"ySR":469.95,"xT1":424.9,"yT1":0,"xT2":1058.1,"yT2":0,"toosoon":0,"cond_shown":"equaldotanddens","ratio_trial":250,"smaller_num":"2","larger_num":"8","correct_side":1,"subjID":"juanpablocampospuerto30","gender":"0","age":"11","school":"6"},{"start_time":1551794933097,"click_time":1551794934471,"finger_time":1551794933910,"fix_duration":386.8301811008715,"trial":31,"RT":813,"MT":561,"sideResp":1,"stimulus":"img/900/equaldotanddens/L/10_Ratio_900_L_20_R_18.png","xmouse":[772,772,772,772,772,772,772,772,772,772,772,772,772,772,772,772,772,772,772,772,772,772,772,772,772,772,772,772,772,772,772,772,772,773,773,774,775,776,776,776,775,772,766,741,718,695,672,656,634,627,613,601,594,588,574,568,560,553,529,522,521,520,520,519,516,515,514,513,510],"ymouse":[508,508,508,508,508,508,508,508,508,508,508,508,508,508,508,508,508,508,508,508,508,508,508,508,508,508,508,508,508,508,508,508,508,503,498,491,481,475,474,470,467,463,453,415,385,351,327,307,259,240,216,193,179,170,155,150,143,137,123,121,121,120,120,119,113,110,105,102,92],"timestamp_mouse":[14,39,53,74,93,114,134,154,174,195,213,235,253,274,295,314,335,353,373,394,413,434,453,473,493,513,534,553,574,594,613,634,654,674,693,715,733,754,773,793,813,834,853,874,893,914,934,955,974,993,1013,1034,1053,1074,1093,1114,1134,1154,1174,1193,1213,1234,1254,1273,1294,1313,1333,1354,1374],"xSR":741.5,"ySR":469.95,"xT1":424.9,"yT1":0,"xT2":1058.1,"yT2":0,"toosoon":0,"cond_shown":"equaldotanddens","ratio_trial":900,"smaller_num":"18","larger_num":"20","correct_side":1,"subjID":"juanpablocampospuerto30","gender":"0","age":"11","school":"6"},{"start_time":1551794937736,"click_time":1551794939171,"finger_time":1551794938711,"fix_duration":905.1613350454228,"trial":32,"RT":975,"MT":460,"sideResp":2,"stimulus":"img/500/randomdotsizeEA/R/15_Ratio_500_L_1_R_2.png","xmouse":[784,784,784,784,784,784,784,784,784,784,784,784,784,784,784,784,784,784,784,784,784,784,784,784,784,784,784,784,784,784,784,784,784,784,784,784,784,784,787,791,799,821,824,824,824,825,826,831,832,832,832,832,834,838,841,846,851,863,875,899,932,948,948,947,945,945,952,981,1004,1029,1052,1074],"ymouse":[530,530,530,530,530,530,530,530,530,530,530,530,530,530,530,530,530,530,530,530,530,530,530,530,530,530,530,530,530,530,530,530,530,530,530,530,530,529,526,522,520,515,514,514,514,512,501,470,464,464,464,464,452,436,418,397,384,368,357,340,304,264,229,217,208,188,150,82,56,38,26,17],"timestamp_mouse":[15,34,55,75,95,116,134,155,176,195,215,235,254,275,294,315,335,355,375,396,415,435,455,474,494,515,534,555,574,594,615,635,655,674,696,714,734,754,774,795,814,835,854,874,894,914,934,954,975,995,1014,1034,1054,1074,1094,1114,1134,1155,1175,1194,1214,1234,1254,1274,1295,1316,1335,1354,1374,1395,1416,1435],"xSR":741.5,"ySR":469.95,"xT1":424.9,"yT1":0,"xT2":1058.1,"yT2":0,"toosoon":0,"cond_shown":"randomdotsizeEA","ratio_trial":500,"smaller_num":"1","larger_num":"2","correct_side":2,"subjID":"juanpablocampospuerto30","gender":"0","age":"11","school":"6"},{"start_time":1551794942043,"click_time":1551794944990,"finger_time":1551794942191,"fix_duration":390.1056075898751,"trial":33,"RT":148,"MT":2799,"sideResp":1,"stimulus":"img/750/randomdotsizeEA/R/4_Ratio_750_L_15_R_20.png","xmouse":[749,749,749,749,749,749,747,738,733,732,732,732,732,732,732,732,732,732,732,732,732,732,732,732,732,732,732,732,732,732,732,732,732,732,732,732,732,732,734,746,772,788,802,802,802,802,802,802,802,802,802,802,802,802,802,802,802,802,802,802,802,802,802,802,802,802,802,802,802,802,802,802,802,802,802,802,802,802,802,802,802,802,802,802,802,802,802,802,802,802,802,802,802,802,802,802,802,802,802,802,802,802,802,802,802,802,802,802,802,802,802,802,802,802,802,802,802,802,802,802,802,802,802,802,802,802,802,802,802,799,795,773,710,670,638,605,554,540,531,520,517,508,498,498,498,498,498,496],"ymouse":[507,507,507,507,507,507,505,492,485,484,484,484,484,484,484,484,484,484,484,484,484,484,484,484,484,484,484,484,484,484,484,484,484,484,484,484,484,484,483,483,483,484,487,487,487,487,487,487,488,489,489,489,489,489,489,489,489,489,489,489,489,489,489,489,489,489,489,489,489,489,489,489,489,489,489,489,489,489,489,489,489,489,489,489,489,489,489,489,489,489,489,489,489,489,489,489,489,489,489,489,489,489,489,489,489,489,489,489,489,489,489,489,489,489,489,489,489,489,489,489,489,489,489,489,489,489,489,489,489,487,481,456,414,392,370,348,307,290,275,252,243,222,184,168,153,135,118,91],"timestamp_mouse":[9,27,59,67,89,107,127,148,167,188,207,228,247,267,287,307,328,347,368,387,408,428,448,467,489,509,528,548,567,588,607,628,647,668,687,708,727,748,769,787,807,827,848,867,887,907,927,948,967,987,1007,1027,1048,1068,1088,1108,1127,1148,1168,1189,1208,1228,1248,1267,1287,1307,1328,1347,1367,1388,1408,1427,1447,1468,1487,1509,1527,1548,1567,1589,1608,1627,1648,1668,1688,1707,1728,1748,1767,1788,1808,1828,1847,1869,1889,1908,1928,1948,1968,1989,2008,2028,2047,2069,2087,2108,2128,2149,2169,2188,2208,2228,2248,2268,2287,2307,2328,2348,2369,2388,2407,2428,2448,2468,2488,2509,2528,2548,2568,2587,2609,2627,2647,2667,2689,2707,2728,2747,2767,2787,2807,2829,2848,2867,2887,2907,2928,2947],"xSR":741.5,"ySR":469.95,"xT1":424.9,"yT1":0,"xT2":1058.1,"yT2":0,"toosoon":0,"cond_shown":"randomdotsizeEA","ratio_trial":750,"smaller_num":"15","larger_num":"20","correct_side":2,"subjID":"juanpablocampospuerto30","gender":"0","age":"11","school":"6"},{"start_time":1551794946803,"click_time":1551794947871,"finger_time":1551794947490,"fix_duration":1012.9429572262871,"trial":34,"RT":687,"MT":381,"sideResp":2,"stimulus":"img/500/equaldotsize/R/15_Ratio_500_L_1_R_2.png","xmouse":[773,773,773,773,773,773,773,773,773,773,773,773,773,773,773,773,773,773,773,773,773,773,773,773,773,773,773,773,773,773,773,773,772,771,781,790,797,800,806,818,834,854,896,946,957,960,963,969,995,1011,1027,1048,1052,1066],"ymouse":[518,518,518,518,518,518,518,518,518,518,518,518,518,518,518,518,518,518,518,518,518,518,518,518,518,518,518,518,518,518,518,518,515,508,461,439,423,416,412,404,391,373,333,267,239,221,203,183,136,116,97,77,73,64],"timestamp_mouse":[9,40,48,68,87,107,128,147,168,189,207,227,249,268,288,307,327,347,368,388,408,428,447,467,488,507,527,548,568,587,608,628,647,667,687,707,728,748,768,787,807,827,848,868,887,908,927,947,967,987,1008,1027,1047,1068],"xSR":741.5,"ySR":469.95,"xT1":424.9,"yT1":0,"xT2":1058.1,"yT2":0,"toosoon":0,"cond_shown":"equaldotsize","ratio_trial":500,"smaller_num":"1","larger_num":"2","correct_side":2,"subjID":"juanpablocampospuerto30","gender":"0","age":"11","school":"6"},{"start_time":1551794949317,"click_time":1551794950610,"finger_time":1551794950070,"fix_duration":645.0493636503985,"trial":35,"RT":753,"MT":540,"sideResp":2,"stimulus":"img/250/equaldotsize/R/9_Ratio_250_L_3_R_12.png","xmouse":[788,788,787,787,787,787,787,787,787,787,787,786,786,786,786,786,785,785,785,785,785,785,785,785,785,785,785,785,785,785,785,785,785,785,785,785,785,785,785,788,796,808,823,846,849,852,852,853,863,873,889,905,929,942,954,961,967,981,992,1007,1022,1038,1050,1067,1074],"ymouse":[528,528,527,527,527,526,526,525,525,525,524,522,521,521,520,518,518,518,518,518,518,518,518,518,518,518,518,518,518,518,518,518,518,515,510,498,485,467,433,413,393,370,351,323,319,316,316,314,300,291,278,267,251,244,238,234,230,207,192,174,156,138,126,104,96],"timestamp_mouse":[14,34,54,73,93,113,133,153,173,194,213,234,253,273,293,314,333,354,373,394,413,433,454,474,493,513,533,555,574,594,613,634,654,673,694,713,733,753,773,793,814,833,854,873,894,913,933,953,973,993,1013,1033,1053,1073,1093,1113,1133,1155,1173,1194,1213,1233,1254,1274,1293],"xSR":741.5,"ySR":469.95,"xT1":424.9,"yT1":0,"xT2":1058.1,"yT2":0,"toosoon":0,"cond_shown":"equaldotsize","ratio_trial":250,"smaller_num":"3","larger_num":"12","correct_side":2,"subjID":"juanpablocampospuerto30","gender":"0","age":"11","school":"6"},{"start_time":1551794951848,"click_time":1551794953190,"finger_time":1551794952610,"fix_duration":396.3799783841571,"trial":36,"RT":762,"MT":580,"sideResp":1,"stimulus":"img/900/equaldotsize/R/6_Ratio_900_L_9_R_10.png","xmouse":[818,818,818,818,818,818,818,818,818,818,818,818,818,818,818,818,818,818,818,818,818,818,818,818,818,818,818,818,818,818,817,809,805,803,798,789,776,744,728,714,703,674,663,650,639,627,602,585,570,554,543,538,528,518,512,510,510,510,509,507,506,500,496,491,485,479,474,474],"ymouse":[519,519,519,519,519,519,519,519,519,519,519,519,519,519,519,519,519,519,519,519,519,519,519,519,519,519,519,519,519,519,517,511,511,510,510,510,510,507,502,491,478,430,414,395,380,363,322,303,288,278,272,269,262,256,253,251,241,228,211,195,180,156,145,135,124,115,102,99],"timestamp_mouse":[9,22,42,62,82,103,122,142,164,183,202,223,244,263,283,302,322,343,363,383,403,423,444,464,483,502,522,543,562,583,602,622,643,662,683,702,722,742,762,782,804,823,842,863,882,902,923,942,962,982,1003,1022,1042,1062,1082,1102,1124,1142,1163,1182,1203,1223,1242,1262,1284,1302,1323,1342],"xSR":741.5,"ySR":469.95,"xT1":424.9,"yT1":0,"xT2":1058.1,"yT2":0,"toosoon":0,"cond_shown":"equaldotsize","ratio_trial":900,"smaller_num":"9","larger_num":"10","correct_side":2,"subjID":"juanpablocampospuerto30","gender":"0","age":"11","school":"6"},{"start_time":1551794955010,"click_time":1551794956350,"finger_time":1551794955850,"fix_duration":1056.0989856376818,"trial":37,"RT":840,"MT":500,"sideResp":1,"stimulus":"img/750/equaldotsize/L/10_Ratio_750_L_4_R_3.png","xmouse":[789,789,789,789,789,789,789,789,789,789,789,789,789,789,789,789,789,789,789,789,789,789,789,789,789,789,789,789,789,789,789,789,789,789,789,789,789,789,788,783,770,749,735,711,631,570,518,486,462,458,456,454,453,452,449,449,448,447,445,445,445,445,446,446,448,451,454,460],"ymouse":[510,510,510,510,510,510,510,510,510,510,510,510,510,510,510,510,510,510,510,510,510,510,510,510,510,510,510,510,510,510,510,510,510,510,510,510,510,510,509,504,494,473,454,429,374,339,311,297,283,280,278,273,262,224,210,202,196,190,178,171,163,153,138,133,124,116,106,92],"timestamp_mouse":[10,22,40,61,82,101,120,140,160,180,201,222,240,261,281,300,320,340,360,380,400,420,440,461,480,501,521,540,561,580,600,621,640,660,681,701,720,740,761,780,800,821,840,860,880,901,920,940,961,980,1001,1020,1040,1061,1080,1100,1120,1140,1160,1180,1201,1220,1240,1260,1280,1300,1320,1340],"xSR":741.5,"ySR":469.95,"xT1":424.9,"yT1":0,"xT2":1058.1,"yT2":0,"toosoon":0,"cond_shown":"equaldotsize","ratio_trial":750,"smaller_num":"3","larger_num":"4","correct_side":1,"subjID":"juanpablocampospuerto30","gender":"0","age":"11","school":"6"},{"start_time":1551794957640,"click_time":1551794960150,"finger_time":1551794958451,"fix_duration":487.40827620980474,"trial":38,"RT":811,"MT":1699,"sideResp":2,"stimulus":"img/900/equaldotsize/L/8_Ratio_900_L_20_R_18.png","xmouse":[758,758,758,758,758,758,758,758,758,758,758,758,758,758,758,758,758,758,758,758,758,758,758,758,758,758,758,758,758,758,758,758,758,758,758,757,756,756,753,750,748,748,747,747,747,746,745,745,745,745,746,747,765,789,818,840,861,874,902,938,1018,1069,1104,1104,1102,1102,1102,1102,1102,1102,1102,1102,1102,1102,1102,1102,1102,1102,1102,1102,1102,1102,1102,1102,1102,1102,1102,1102,1102,1102,1102,1102,1102,1102,1102,1102,1102,1102,1102,1102,1102,1102,1102,1102,1102,1102,1102,1088,1001,892,869,867,867,870,871,875,878,886,895,901,910,945,982,1022,1052,1072],"ymouse":[507,507,507,507,507,507,507,507,507,507,507,507,507,507,507,507,507,507,507,507,507,507,507,507,507,507,507,507,507,507,507,507,507,507,507,506,501,494,485,474,469,465,462,461,460,459,449,443,438,435,433,431,415,395,364,331,291,274,259,234,197,178,163,160,158,158,158,158,158,158,158,158,158,158,158,158,158,158,158,158,158,158,158,158,158,158,158,158,158,158,158,158,158,158,158,158,158,158,158,158,158,158,158,158,158,158,158,164,192,224,226,213,192,182,175,168,163,151,145,141,137,122,108,91,80,72],"timestamp_mouse":[10,45,50,70,90,110,130,152,171,192,210,230,250,272,290,311,331,351,371,390,410,430,452,470,492,511,530,550,570,590,610,630,650,671,692,710,731,750,770,791,811,831,850,870,890,910,931,951,970,991,1011,1030,1051,1070,1091,1112,1131,1150,1170,1190,1210,1230,1251,1270,1290,1310,1331,1351,1370,1391,1411,1431,1451,1470,1490,1510,1531,1550,1570,1591,1610,1631,1650,1670,1692,1710,1731,1750,1771,1790,1810,1831,1850,1870,1890,1912,1931,1950,1970,1990,2010,2031,2050,2070,2091,2111,2131,2151,2172,2191,2210,2231,2250,2270,2291,2310,2331,2350,2370,2390,2410,2430,2450,2470,2490,2510],"xSR":741.5,"ySR":469.95,"xT1":424.9,"yT1":0,"xT2":1058.1,"yT2":0,"toosoon":0,"cond_shown":"equaldotsize","ratio_trial":900,"smaller_num":"18","larger_num":"20","correct_side":1,"subjID":"juanpablocampospuerto30","gender":"0","age":"11","school":"6"},{"start_time":1551794961860,"click_time":1551794963210,"finger_time":1551794962790,"fix_duration":427.7752661668123,"trial":39,"RT":930,"MT":420,"sideResp":2,"stimulus":"img/900/randomdotsizeEA/L/8_Ratio_900_L_20_R_18.png","xmouse":[810,810,810,810,810,810,810,810,810,810,810,810,810,810,810,810,810,810,810,810,810,810,810,810,810,810,810,810,810,810,810,810,810,810,810,810,804,800,786,778,771,770,770,770,770,764,751,739,724,697,688,678,678,678,678,678,678,678,678,695,841,926,1004,1060,1094,1116,1116,1116],"ymouse":[501,501,501,501,501,501,501,501,501,501,501,501,501,501,501,501,501,501,501,501,501,501,501,501,501,501,501,501,501,501,501,501,501,501,501,501,496,493,488,484,481,481,481,481,481,476,463,453,440,424,420,413,413,413,413,413,413,413,411,403,362,332,285,237,197,137,109,81],"timestamp_mouse":[10,35,50,70,90,111,130,150,171,191,211,231,250,271,290,310,330,351,371,391,410,430,451,472,490,510,530,550,571,590,610,632,651,671,690,710,730,750,770,790,811,831,851,870,890,911,930,950,970,991,1011,1030,1050,1072,1091,1111,1130,1150,1171,1190,1211,1230,1251,1271,1290,1311,1330,1350],"xSR":741.5,"ySR":469.95,"xT1":424.9,"yT1":0,"xT2":1058.1,"yT2":0,"toosoon":0,"cond_shown":"randomdotsizeEA","ratio_trial":900,"smaller_num":"18","larger_num":"20","correct_side":1,"subjID":"juanpablocampospuerto30","gender":"0","age":"11","school":"6"},{"start_time":1551794964202,"click_time":1551794965811,"finger_time":1551794965010,"fix_duration":250,"trial":40,"RT":808,"MT":801,"sideResp":1,"stimulus":"img/900/equaldotanddens/L/4_Ratio_900_L_20_R_18.png","xmouse":[820,820,820,820,820,820,820,820,820,820,820,820,820,820,820,820,820,820,820,820,820,820,820,820,820,820,820,820,820,820,820,820,820,820,820,819,816,816,816,814,814,814,818,832,863,878,896,917,945,945,946,946,946,946,946,935,914,885,852,780,758,733,727,713,689,670,646,627,602,594,589,586,586,583,581,579,575,568,547,537,524],"ymouse":[496,496,496,496,496,496,496,496,496,496,496,496,496,496,496,496,496,496,496,496,496,496,496,496,496,496,496,496,496,496,496,496,496,496,496,496,491,489,488,476,465,452,434,398,348,331,313,300,272,269,269,269,268,268,268,261,254,247,237,216,206,185,179,154,115,96,78,69,53,45,40,36,35,33,32,32,32,32,34,36,40],"timestamp_mouse":[8,36,48,69,89,108,129,150,169,188,208,228,250,269,288,308,329,348,368,389,410,428,449,468,488,508,528,548,568,588,608,630,648,670,689,708,728,748,768,788,808,828,849,869,888,908,929,950,968,988,1009,1029,1048,1069,1089,1108,1128,1148,1168,1188,1208,1228,1249,1269,1288,1308,1329,1348,1368,1388,1408,1428,1449,1468,1490,1508,1528,1548,1569,1588,1609],"xSR":741.5,"ySR":469.95,"xT1":424.9,"yT1":0,"xT2":1058.1,"yT2":0,"toosoon":0,"cond_shown":"equaldotanddens","ratio_trial":900,"smaller_num":"18","larger_num":"20","correct_side":1,"subjID":"juanpablocampospuerto30","gender":"0","age":"11","school":"6"},{"start_time":1551794968428,"click_time":1551794969610,"finger_time":1551794969291,"fix_duration":1415.3318927455218,"trial":41,"RT":863,"MT":319,"sideResp":2,"stimulus":"img/750/equaldotsize/R/2_Ratio_750_L_6_R_8.png","xmouse":[813,813,813,813,813,813,813,813,813,813,813,813,813,813,813,813,813,813,813,813,813,813,813,813,813,813,813,813,813,813,813,813,813,813,813,813,813,813,813,813,813,814,814,808,807,806,806,806,813,821,830,842,886,914,938,959,981,1027,1053,1066],"ymouse":[513,513,513,513,513,513,513,513,513,513,513,513,513,513,513,513,513,513,513,513,513,513,513,513,513,513,513,513,513,513,513,513,513,513,513,513,513,513,513,512,504,488,479,465,460,455,447,413,392,373,352,326,202,140,107,81,59,23,8,1],"timestamp_mouse":[8,22,43,64,83,102,122,142,162,182,202,223,244,262,282,302,323,342,362,382,403,422,442,463,483,503,523,542,562,583,602,622,642,662,682,702,722,743,762,782,802,823,842,863,883,903,922,943,962,982,1002,1023,1043,1062,1082,1102,1122,1142,1162,1182],"xSR":741.5,"ySR":469.95,"xT1":424.9,"yT1":0,"xT2":1058.1,"yT2":0,"toosoon":0,"cond_shown":"equaldotsize","ratio_trial":750,"smaller_num":"6","larger_num":"8","correct_side":2,"subjID":"juanpablocampospuerto30","gender":"0","age":"11","school":"6"},{"start_time":1551794971690,"click_time":1551794972951,"finger_time":1551794972510,"fix_duration":1158.3844139194744,"trial":42,"RT":820,"MT":441,"sideResp":2,"stimulus":"img/500/equaldotanddens/R/6_Ratio_500_L_9_R_18.png","xmouse":[799,799,799,799,799,799,799,799,799,799,799,799,799,799,799,799,799,799,799,799,799,799,799,799,798,798,798,798,798,798,797,795,793,791,790,790,790,794,796,799,805,814,824,839,886,925,965,1005,1035,1074,1081,1085,1086,1086,1086,1086,1087,1087,1088,1088,1091,1092,1095,1096],"ymouse":[561,561,561,561,561,561,561,561,561,561,561,561,561,561,561,561,561,561,561,561,561,561,561,561,561,561,561,561,561,561,561,556,553,549,545,536,529,520,511,489,471,447,421,397,337,293,258,227,208,184,177,173,171,170,169,162,157,152,146,140,126,115,102,90],"timestamp_mouse":[12,21,40,60,81,100,120,141,161,181,200,221,240,260,280,300,321,341,360,380,402,420,441,461,481,501,521,541,561,581,601,620,641,660,680,700,721,740,761,781,800,820,840,860,880,901,920,940,960,980,1000,1020,1041,1060,1080,1100,1121,1140,1161,1180,1200,1220,1241,1261],"xSR":741.5,"ySR":469.95,"xT1":424.9,"yT1":0,"xT2":1058.1,"yT2":0,"toosoon":0,"cond_shown":"equaldotanddens","ratio_trial":500,"smaller_num":"9","larger_num":"18","correct_side":2,"subjID":"juanpablocampospuerto30","gender":"0","age":"11","school":"6"},{"start_time":1551794974838,"click_time":1551794976011,"finger_time":1551794975771,"fix_duration":866.2686924770547,"trial":43,"RT":933,"MT":240,"sideResp":1,"stimulus":"img/500/randomdotsizeEA/L/5_Ratio_500_L_4_R_2.png","xmouse":[824,824,824,824,824,824,824,824,824,824,824,824,824,824,824,824,824,824,824,824,824,824,824,824,824,824,824,824,824,824,824,824,824,824,824,824,824,824,824,824,824,824,824,822,818,804,759,745,733,724,715,707,689,676,659,639,568,524,484],"ymouse":[502,502,502,502,502,502,502,502,502,502,502,502,502,502,502,502,502,502,502,502,502,502,502,502,502,502,502,502,502,502,502,502,502,502,502,502,502,502,502,502,502,502,502,502,502,477,362,331,311,302,294,290,279,270,256,236,148,105,82],"timestamp_mouse":[12,32,52,73,93,113,132,153,172,193,213,232,252,273,292,312,333,352,372,393,412,433,452,473,493,513,532,553,573,592,612,632,653,673,692,712,733,752,772,793,812,832,853,872,892,912,933,952,972,993,1013,1032,1052,1072,1092,1112,1133,1152,1173],"xSR":741.5,"ySR":469.95,"xT1":424.9,"yT1":0,"xT2":1058.1,"yT2":0,"toosoon":0,"cond_shown":"randomdotsizeEA","ratio_trial":500,"smaller_num":"2","larger_num":"4","correct_side":1,"subjID":"juanpablocampospuerto30","gender":"0","age":"11","school":"6"},{"start_time":1551794977282,"click_time":1551794978671,"finger_time":1551794978150,"fix_duration":250,"trial":44,"RT":868,"MT":521,"sideResp":2,"stimulus":"img/250/randomdotsizeEA/R/8_Ratio_250_L_1_R_4.png","xmouse":[774,774,774,774,774,774,774,774,774,774,774,774,774,774,774,774,774,774,774,774,774,774,774,774,774,774,774,774,774,774,774,774,774,774,774,774,774,774,774,775,778,782,785,791,801,832,852,876,908,955,960,962,967,974,987,994,1003,1014,1026,1030,1032,1034,1035,1038,1045,1047,1050,1055,1062,1078],"ymouse":[526,526,526,526,526,526,526,526,526,526,526,526,526,526,526,526,526,526,526,526,526,526,526,526,526,526,526,526,526,526,526,526,526,526,526,526,526,526,526,521,510,496,479,460,438,390,366,342,322,306,302,300,292,280,250,237,224,208,187,172,155,149,145,142,137,134,130,124,116,94],"timestamp_mouse":[10,38,49,69,89,108,130,148,168,188,209,228,248,269,288,309,328,348,369,389,408,430,449,470,489,508,528,549,568,589,610,628,649,668,690,709,728,750,769,788,808,828,848,868,889,908,928,948,968,990,1008,1028,1048,1068,1090,1108,1128,1149,1168,1188,1208,1229,1249,1268,1289,1308,1328,1348,1369,1389],"xSR":741.5,"ySR":469.95,"xT1":424.9,"yT1":0,"xT2":1058.1,"yT2":0,"toosoon":0,"cond_shown":"randomdotsizeEA","ratio_trial":250,"smaller_num":"1","larger_num":"4","correct_side":2,"subjID":"juanpablocampospuerto30","gender":"0","age":"11","school":"6"},{"start_time":1551794980738,"click_time":1551794982271,"finger_time":1551794981571,"fix_duration":1146.1952186004783,"trial":45,"RT":833,"MT":700,"sideResp":2,"stimulus":"img/500/equaldotsize/R/9_Ratio_500_L_2_R_4.png","xmouse":[812,812,812,812,812,812,812,812,812,812,812,812,812,812,812,812,812,812,812,812,812,812,812,812,812,812,812,812,812,812,812,812,812,812,812,812,812,812,813,818,829,864,877,887,901,918,946,961,972,978,982,990,993,994,995,997,997,998,998,999,1000,1000,1001,1002,1005,1011,1017,1035,1041,1043,1044,1047,1050,1051,1053,1056,1064],"ymouse":[530,530,530,530,530,530,530,530,530,530,530,530,530,530,530,530,530,530,530,530,530,530,530,530,530,530,530,530,530,530,530,530,530,530,530,530,530,530,521,510,488,439,425,415,405,385,355,342,331,324,319,304,295,285,274,262,231,218,207,201,198,196,194,192,187,176,167,142,133,129,127,119,114,111,107,100,91],"timestamp_mouse":[12,32,52,72,92,112,133,154,173,192,212,232,254,273,294,313,333,353,373,392,413,433,452,472,492,513,532,553,574,593,613,633,653,672,693,713,733,752,772,792,814,833,852,872,892,913,933,952,972,993,1012,1032,1052,1072,1092,1114,1132,1152,1172,1192,1214,1232,1252,1272,1292,1313,1333,1353,1372,1392,1412,1433,1452,1473,1492,1512,1533],"xSR":741.5,"ySR":469.95,"xT1":424.9,"yT1":0,"xT2":1058.1,"yT2":0,"toosoon":0,"cond_shown":"equaldotsize","ratio_trial":500,"smaller_num":"2","larger_num":"4","correct_side":2,"subjID":"juanpablocampospuerto30","gender":"0","age":"11","school":"6"},{"start_time":1551794984758,"click_time":1551794985830,"finger_time":1551794985430,"fix_duration":1265.7113749777163,"trial":46,"RT":672,"MT":400,"sideResp":1,"stimulus":"img/250/equaldotsize/L/7_Ratio_250_L_8_R_2.png","xmouse":[820,820,820,820,820,820,820,820,820,820,820,820,820,820,820,820,820,820,820,820,820,820,820,820,819,816,802,795,792,787,782,773,761,738,649,614,590,583,571,558,547,541,539,539,539,537,534,533,531,530,529,525,523,520],"ymouse":[520,520,520,520,520,520,520,520,520,520,520,520,520,520,520,520,520,520,520,520,520,520,520,520,520,519,509,506,505,503,501,500,493,472,399,356,291,274,259,247,238,229,225,223,219,213,207,202,189,168,146,112,102,92],"timestamp_mouse":[12,33,52,72,94,113,132,153,172,192,212,232,253,273,292,313,332,352,373,392,412,433,454,472,492,512,532,553,572,592,612,632,652,672,692,712,732,752,772,792,812,832,852,872,892,912,932,952,972,992,1012,1033,1052,1072],"xSR":741.5,"ySR":469.95,"xT1":424.9,"yT1":0,"xT2":1058.1,"yT2":0,"toosoon":0,"cond_shown":"equaldotsize","ratio_trial":250,"smaller_num":"2","larger_num":"8","correct_side":1,"subjID":"juanpablocampospuerto30","gender":"0","age":"11","school":"6"},{"start_time":1551794987446,"click_time":1551794988990,"finger_time":1551794988491,"fix_duration":754.2076002557786,"trial":47,"RT":1045,"MT":499,"sideResp":1,"stimulus":"img/750/randomdotsizeEA/L/8_Ratio_750_L_4_R_3.png","xmouse":[760,760,760,760,760,760,760,760,760,760,760,760,760,760,760,760,760,760,760,760,760,760,760,760,760,760,760,760,760,760,760,760,760,760,760,760,760,760,760,760,760,760,760,760,760,760,760,760,760,760,760,758,727,709,696,688,679,676,673,669,663,650,648,644,639,633,625,620,617,609,598,581,568,556,544,532,520,507],"ymouse":[518,518,518,518,518,518,518,518,518,518,518,518,518,518,518,518,518,518,518,518,518,518,518,518,518,518,518,518,518,518,518,518,518,518,518,518,518,518,518,518,518,518,518,518,518,518,518,518,518,518,518,515,490,483,477,473,468,462,455,444,429,385,369,354,337,318,277,253,228,208,181,157,148,140,131,122,112,86],"timestamp_mouse":[10,24,45,64,85,105,125,145,165,186,205,225,244,265,284,304,325,344,364,384,405,425,445,465,485,505,525,544,564,584,604,624,645,664,684,704,724,744,765,786,805,825,846,865,884,904,924,944,965,984,1006,1024,1045,1065,1084,1104,1125,1144,1164,1184,1205,1225,1244,1265,1284,1304,1325,1344,1364,1384,1404,1425,1444,1465,1484,1504,1524,1544],"xSR":741.5,"ySR":469.95,"xT1":424.9,"yT1":0,"xT2":1058.1,"yT2":0,"toosoon":0,"cond_shown":"randomdotsizeEA","ratio_trial":750,"smaller_num":"3","larger_num":"4","correct_side":1,"subjID":"juanpablocampospuerto30","gender":"0","age":"11","school":"6"},{"start_time":1551794989922,"click_time":1551794991171,"finger_time":1551794990750,"fix_duration":250,"trial":48,"RT":828,"MT":421,"sideResp":2,"stimulus":"img/250/equaldotsize/R/8_Ratio_250_L_1_R_4.png","xmouse":[780,780,780,780,780,780,780,780,780,780,780,780,780,780,780,780,780,780,780,780,780,780,780,780,780,780,780,780,780,780,780,780,780,780,780,780,780,781,788,795,806,816,829,855,869,881,889,900,919,931,941,949,959,966,973,987,1020,1061,1072,1078,1082,1084,1095],"ymouse":[495,495,495,495,495,495,495,495,495,495,495,495,495,495,495,495,495,495,495,495,495,495,495,495,495,495,495,495,495,495,495,495,495,495,495,495,495,496,492,482,471,461,447,418,398,382,366,342,307,288,273,260,245,238,228,216,189,149,134,124,116,111,93],"timestamp_mouse":[9,35,49,68,89,109,128,148,169,188,210,228,249,269,288,309,329,349,369,388,408,428,449,468,488,509,529,548,568,589,609,629,649,670,689,708,728,748,769,788,808,828,849,868,888,908,928,948,968,988,1009,1028,1049,1068,1088,1110,1129,1149,1168,1188,1209,1228,1249],"xSR":741.5,"ySR":469.95,"xT1":424.9,"yT1":0,"xT2":1058.1,"yT2":0,"toosoon":0,"cond_shown":"equaldotsize","ratio_trial":250,"smaller_num":"1","larger_num":"4","correct_side":2,"subjID":"juanpablocampospuerto30","gender":"0","age":"11","school":"6"},{"start_time":1551794993369,"click_time":1551794994710,"finger_time":1551794994012,"fix_duration":1337.6413229449245,"trial":49,"RT":643,"MT":698,"sideResp":2,"stimulus":"img/250/equaldotanddens/R/13_Ratio_250_L_2_R_8.png","xmouse":[821,821,821,821,821,821,821,821,821,821,821,821,821,821,821,821,821,821,821,821,821,821,821,821,821,821,821,821,821,820,820,820,824,828,834,837,845,851,861,874,905,917,921,924,928,932,950,961,972,987,1008,1011,1011,1012,1016,1021,1039,1046,1049,1050,1051,1053,1055,1055,1055,1055,1058,1062],"ymouse":[501,501,501,501,501,501,501,501,501,501,501,501,501,501,501,501,501,501,501,501,501,501,501,501,501,501,501,501,501,501,499,478,464,451,431,421,399,383,362,339,298,284,277,274,268,262,239,223,207,189,165,162,161,160,153,144,121,112,108,106,104,101,99,99,99,99,93,89],"timestamp_mouse":[12,21,41,61,81,101,121,141,162,181,202,222,241,262,283,302,321,341,361,381,401,421,441,461,483,501,521,541,561,581,602,621,643,661,681,701,721,742,761,781,803,821,841,861,881,901,921,941,961,981,1002,1021,1041,1062,1082,1101,1122,1141,1161,1182,1201,1221,1243,1262,1281,1301,1321,1341],"xSR":741.5,"ySR":469.95,"xT1":424.9,"yT1":0,"xT2":1058.1,"yT2":0,"toosoon":0,"cond_shown":"equaldotanddens","ratio_trial":250,"smaller_num":"2","larger_num":"8","correct_side":2,"subjID":"juanpablocampospuerto30","gender":"0","age":"11","school":"6"},{"start_time":1551795001340,"click_time":1551795002451,"finger_time":1551795002051,"fix_duration":1447.075531397304,"trial":50,"RT":711,"MT":400,"sideResp":1,"stimulus":"img/900/equaldotsize/L/1_Ratio_900_L_10_R_9.png","xmouse":[794,794,794,794,794,794,794,794,794,794,794,794,794,794,794,794,794,794,794,794,794,794,794,794,794,794,794,794,794,794,794,794,794,794,789,782,772,770,765,755,735,695,688,685,681,676,667,658,652,645,633,609,597,585,564,517],"ymouse":[494,494,494,494,494,494,494,494,494,494,494,494,494,494,494,494,494,494,494,494,494,494,494,494,494,494,494,494,494,494,494,494,494,494,485,464,414,393,374,356,331,260,235,217,204,196,188,187,186,184,180,167,156,143,124,98],"timestamp_mouse":[11,33,50,70,90,110,130,152,171,190,210,230,251,271,291,311,331,351,370,391,411,430,451,471,490,510,531,551,571,591,611,631,650,670,690,711,731,750,770,791,810,830,850,870,890,910,930,950,970,990,1011,1031,1050,1070,1091,1111],"xSR":741.5,"ySR":469.95,"xT1":424.9,"yT1":0,"xT2":1058.1,"yT2":0,"toosoon":0,"cond_shown":"equaldotsize","ratio_trial":900,"smaller_num":"9","larger_num":"10","correct_side":1,"subjID":"juanpablocampospuerto30","gender":"0","age":"11","school":"6"},{"start_time":1551795003997,"click_time":1551795005150,"finger_time":1551795004691,"fix_duration":565.3704020636538,"trial":51,"RT":694,"MT":459,"sideResp":1,"stimulus":"img/750/randomdotsizeEA/L/8_Ratio_750_L_4_R_3.png","xmouse":[835,835,835,835,835,835,835,835,835,835,835,835,835,835,835,835,835,835,835,835,835,835,835,835,835,835,835,835,835,835,835,823,817,811,799,794,789,782,775,759,750,740,724,678,661,645,630,620,603,594,588,585,582,573,542,521,505,497],"ymouse":[538,538,538,538,538,538,538,538,538,538,538,538,538,538,538,538,538,538,538,538,538,538,538,538,538,538,538,538,538,537,532,509,497,484,457,446,436,425,417,394,382,369,353,318,304,290,278,266,245,237,231,228,223,213,173,143,107,82],"timestamp_mouse":[13,37,53,73,93,114,133,154,173,194,213,233,254,273,295,313,334,354,374,393,413,433,454,474,494,513,534,554,573,593,614,634,653,673,694,713,733,753,773,793,813,833,854,874,893,913,933,953,975,993,1013,1033,1053,1073,1093,1113,1133,1153],"xSR":741.5,"ySR":469.95,"xT1":424.9,"yT1":0,"xT2":1058.1,"yT2":0,"toosoon":0,"cond_shown":"randomdotsizeEA","ratio_trial":750,"smaller_num":"3","larger_num":"4","correct_side":1,"subjID":"juanpablocampospuerto30","gender":"0","age":"11","school":"6"},{"start_time":1551795006334,"click_time":1551795007491,"finger_time":1551795006972,"fix_duration":520.1967011449249,"trial":52,"RT":638,"MT":519,"sideResp":2,"stimulus":"img/500/equaldotanddens/R/1_Ratio_500_L_9_R_18.png","xmouse":[829,829,829,829,829,829,829,829,829,829,829,829,829,829,829,829,829,829,829,829,829,829,829,829,829,829,829,829,830,832,835,847,856,864,874,885,894,898,901,902,905,929,947,962,972,977,983,1008,1026,1048,1064,1074,1077,1079,1080,1083,1088,1091],"ymouse":[506,506,506,506,506,506,506,506,506,506,506,506,506,506,506,506,506,506,506,506,506,506,506,506,506,506,506,506,504,501,492,467,451,433,413,397,377,360,344,328,309,261,242,231,223,216,208,188,176,162,151,142,135,133,128,120,102,89],"timestamp_mouse":[16,36,56,76,97,116,137,157,177,196,217,237,257,276,296,317,336,357,377,397,416,437,457,478,497,517,538,557,577,596,617,638,657,676,697,717,738,757,777,796,816,838,856,878,897,918,936,956,976,998,1016,1036,1057,1076,1097,1117,1137,1156],"xSR":741.5,"ySR":469.95,"xT1":424.9,"yT1":0,"xT2":1058.1,"yT2":0,"toosoon":0,"cond_shown":"equaldotanddens","ratio_trial":500,"smaller_num":"9","larger_num":"18","correct_side":2,"subjID":"juanpablocampospuerto30","gender":"0","age":"11","school":"6"},{"start_time":1551795008562,"click_time":1551795009791,"finger_time":1551795009231,"fix_duration":250,"trial":53,"RT":669,"MT":560,"sideResp":1,"stimulus":"img/500/randomdotsizeEA/L/10_Ratio_500_L_4_R_2.png","xmouse":[800,800,800,800,800,800,800,800,800,800,800,800,800,800,800,800,800,800,800,800,800,800,800,800,800,799,795,792,789,784,778,769,757,739,704,648,625,602,583,571,563,549,542,542,541,541,542,543,543,543,543,543,543,543,543,543,543,543,542,539,534,522],"ymouse":[525,525,525,525,525,525,525,525,525,525,525,525,525,525,525,525,525,525,525,525,525,525,525,525,525,525,523,521,520,515,509,504,498,492,482,464,454,441,433,423,411,370,289,189,116,80,71,67,65,65,65,65,65,65,65,65,65,65,64,64,65,67],"timestamp_mouse":[10,40,49,70,88,108,128,150,168,189,209,229,249,270,289,309,328,349,369,389,408,430,449,469,489,509,529,549,569,588,610,629,649,669,689,710,729,748,768,789,810,829,848,868,889,910,929,949,969,989,1011,1029,1049,1068,1090,1110,1129,1148,1168,1189,1208,1229],"xSR":741.5,"ySR":469.95,"xT1":424.9,"yT1":0,"xT2":1058.1,"yT2":0,"toosoon":0,"cond_shown":"randomdotsizeEA","ratio_trial":500,"smaller_num":"2","larger_num":"4","correct_side":1,"subjID":"juanpablocampospuerto30","gender":"0","age":"11","school":"6"},{"start_time":1551795011630,"click_time":1551795012930,"finger_time":1551795012472,"fix_duration":856.464711873146,"trial":54,"RT":842,"MT":458,"sideResp":1,"stimulus":"img/750/equaldotsize/L/14_Ratio_750_L_8_R_6.png","xmouse":[778,778,778,778,778,778,778,778,778,778,778,778,778,778,778,778,778,778,778,778,778,778,778,778,778,778,778,778,778,778,778,778,778,778,778,778,778,778,778,778,774,758,736,720,699,678,652,625,571,567,567,567,567,567,567,567,567,567,565,562,556,553,540,533,526,520],"ymouse":[519,519,519,519,519,519,519,519,519,519,519,519,519,519,519,519,519,519,519,519,519,519,519,519,519,519,519,519,519,519,519,519,519,519,519,519,519,516,511,505,495,472,436,408,367,320,261,204,90,73,70,70,70,70,70,70,70,70,70,70,72,72,72,72,72,72],"timestamp_mouse":[8,21,41,60,82,101,122,140,161,180,201,220,241,262,281,302,322,341,361,380,402,420,442,462,480,502,522,542,562,581,602,622,641,661,680,701,722,741,761,781,800,822,842,861,881,901,922,940,960,981,1002,1021,1041,1061,1081,1102,1121,1141,1161,1181,1201,1221,1241,1261,1282,1300],"xSR":741.5,"ySR":469.95,"xT1":424.9,"yT1":0,"xT2":1058.1,"yT2":0,"toosoon":0,"cond_shown":"equaldotsize","ratio_trial":750,"smaller_num":"6","larger_num":"8","correct_side":1,"subjID":"juanpablocampospuerto30","gender":"0","age":"11","school":"6"},{"start_time":1551795015474,"click_time":1551795016672,"finger_time":1551795016172,"fix_duration":1461.8181198826292,"trial":55,"RT":698,"MT":500,"sideResp":1,"stimulus":"img/500/equaldotsize/L/10_Ratio_500_L_4_R_2.png","xmouse":[813,813,813,813,813,813,813,813,813,813,813,813,813,813,813,813,813,813,813,813,813,813,813,813,813,813,813,813,813,813,813,813,813,810,790,776,755,733,710,701,688,682,677,671,666,648,640,632,625,603,590,577,563,553,548,538,532,530,527,520],"ymouse":[511,511,511,511,511,511,511,511,511,511,511,511,511,511,511,511,511,511,511,511,511,511,511,511,511,511,511,511,511,511,511,511,510,506,469,443,409,369,333,319,297,284,271,257,239,199,185,171,158,128,117,106,94,85,81,74,71,71,70,68],"timestamp_mouse":[19,36,57,77,97,118,136,157,177,198,218,237,257,277,297,317,336,358,377,397,418,437,457,477,497,516,537,557,576,597,617,638,656,677,698,716,737,757,776,796,817,837,857,877,896,916,938,957,977,998,1016,1037,1057,1076,1098,1117,1137,1157,1177,1198],"xSR":741.5,"ySR":469.95,"xT1":424.9,"yT1":0,"xT2":1058.1,"yT2":0,"toosoon":0,"cond_shown":"equaldotsize","ratio_trial":500,"smaller_num":"2","larger_num":"4","correct_side":1,"subjID":"juanpablocampospuerto30","gender":"0","age":"11","school":"6"},{"start_time":1551795018129,"click_time":1551795019411,"finger_time":1551795018892,"fix_duration":537.915442568931,"trial":56,"RT":763,"MT":519,"sideResp":1,"stimulus":"img/500/randomdotsizeEA/L/13_Ratio_500_L_12_R_6.png","xmouse":[823,823,823,823,823,823,823,823,823,823,823,823,823,823,823,823,823,823,823,823,823,823,823,823,823,823,823,823,823,823,823,823,823,823,823,823,819,809,762,741,726,718,707,704,702,699,694,680,672,661,645,629,607,599,591,585,574,570,567,566,564,560,544,532,523],"ymouse":[516,516,516,516,516,516,516,516,516,516,516,516,516,516,516,516,516,516,516,516,516,516,516,516,516,516,516,516,516,516,516,516,516,516,517,517,511,501,462,444,431,421,404,397,387,376,357,326,306,281,253,223,182,166,151,135,115,110,106,104,104,102,95,90,86],"timestamp_mouse":[8,22,42,62,82,103,122,142,162,183,203,221,243,262,282,302,323,341,363,383,402,421,443,461,482,502,522,543,562,581,603,623,641,662,683,703,722,742,763,782,801,822,843,861,882,903,923,942,961,983,1002,1023,1043,1062,1083,1102,1121,1141,1163,1181,1203,1221,1243,1262,1282],"xSR":741.5,"ySR":469.95,"xT1":424.9,"yT1":0,"xT2":1058.1,"yT2":0,"toosoon":0,"cond_shown":"randomdotsizeEA","ratio_trial":500,"smaller_num":"6","larger_num":"12","correct_side":1,"subjID":"juanpablocampospuerto30","gender":"0","age":"11","school":"6"},{"start_time":1551795022820,"click_time":1551795023951,"finger_time":1551795023532,"fix_duration":927.2331611988757,"trial":57,"RT":712,"MT":419,"sideResp":2,"stimulus":"img/250/randomdotsizeEA/R/13_Ratio_250_L_2_R_8.png","xmouse":[820,820,820,820,820,820,820,820,820,820,820,820,820,820,820,820,820,820,820,820,820,820,820,820,820,820,820,820,820,820,820,820,824,830,838,845,856,891,916,931,935,947,960,978,982,985,987,990,993,995,998,1001,1004,1020,1035,1050,1065],"ymouse":[553,553,553,553,553,553,553,553,553,553,553,553,553,553,553,553,553,553,553,553,553,553,553,553,553,553,552,552,552,552,550,546,527,514,499,479,453,343,275,215,187,150,129,107,103,101,100,97,95,95,95,95,95,95,93,89,86],"timestamp_mouse":[15,36,52,71,91,110,131,152,170,191,212,231,252,270,291,311,331,351,371,391,411,432,451,470,492,510,531,552,572,591,611,632,651,671,691,712,731,751,770,791,811,831,851,871,891,910,930,952,970,991,1011,1030,1051,1071,1091,1111,1131],"xSR":741.5,"ySR":469.95,"xT1":424.9,"yT1":0,"xT2":1058.1,"yT2":0,"toosoon":0,"cond_shown":"randomdotsizeEA","ratio_trial":250,"smaller_num":"2","larger_num":"8","correct_side":2,"subjID":"juanpablocampospuerto30","gender":"0","age":"11","school":"6"},{"start_time":1551795024962,"click_time":1551795026771,"finger_time":1551795025892,"fix_duration":250,"trial":58,"RT":930,"MT":879,"sideResp":2,"stimulus":"img/750/equaldotanddens/R/3_Ratio_750_L_15_R_20.png","xmouse":[781,781,781,781,781,781,781,781,781,781,781,781,781,781,781,781,781,781,781,781,781,781,781,781,781,781,781,781,781,781,781,781,781,781,781,781,781,781,781,781,781,781,781,781,782,784,797,809,821,832,840,850,854,861,869,882,892,896,905,915,945,958,968,976,990,1006,1010,1013,1017,1022,1023,1023,1023,1023,1023,1023,1023,1023,1023,1023,1023,1023,1023,1023,1023,1023,1032,1042,1049,1057,1062],"ymouse":[505,505,505,505,505,505,505,505,505,505,505,505,505,505,505,505,505,505,505,505,505,505,505,505,505,505,505,505,505,505,505,505,505,505,505,505,505,505,505,505,504,502,500,498,495,488,467,452,437,426,419,411,406,397,382,362,337,324,305,280,234,223,212,204,184,161,155,149,141,133,122,120,117,114,111,110,110,110,110,110,110,110,110,110,110,110,99,91,85,78,74],"timestamp_mouse":[10,28,59,69,89,110,129,148,169,189,209,228,249,269,290,310,329,349,369,388,409,429,449,470,489,509,530,549,570,590,609,630,650,669,690,708,730,748,770,788,809,829,850,869,890,909,930,948,970,988,1008,1028,1049,1069,1089,1109,1129,1149,1168,1188,1210,1229,1249,1269,1288,1310,1328,1348,1368,1388,1410,1428,1449,1468,1489,1508,1528,1549,1