[{"start_time":1551793977602,"click_time":1551793980574,"finger_time":1551793980373,"fix_duration":1103.9942100237947,"trial":0,"RT":2771,"MT":201,"sideResp":2,"stimulus":[],"xmouse":[777,777,777,777,777,777,777,777,777,777,777,777,777,777,777,777,777,777,777,777,777,777,777,777,777,777,777,777,777,777,777,777,777,777,777,777,777,777,777,777,777,777,777,777,777,777,777,777,777,777,777,777,777,777,777,777,777,777,777,777,777,777,777,777,777,777,777,777,777,777,777,777,777,777,777,777,777,777,777,777,777,777,777,777,777,777,777,777,777,777,777,777,777,777,777,777,777,777,777,777,777,777,777,777,777,777,777,777,777,777,777,777,777,777,777,777,777,777,777,777,777,777,777,777,777,777,777,777,777,777,777,777,777,780,786,795,812,833,859,871,886,909,946,979,989,997,1011,1030,1113],"ymouse":[583,583,583,583,583,583,583,583,583,583,583,583,583,583,583,583,583,583,583,583,583,583,583,583,583,583,583,583,583,583,583,583,583,583,583,583,583,583,583,583,583,583,583,583,583,583,583,583,583,583,583,583,583,583,583,583,583,583,583,583,583,583,583,583,583,583,583,583,583,583,583,583,583,583,583,583,583,583,583,583,583,583,583,583,583,583,583,583,583,583,583,583,583,583,583,583,583,583,583,583,583,583,583,583,583,583,583,583,583,583,583,583,583,583,583,583,583,583,583,583,583,583,583,583,583,583,583,583,583,583,583,583,583,579,573,564,539,504,447,413,368,310,246,187,151,130,110,92,53],"timestamp_mouse":[11,49,52,72,91,112,133,152,172,192,212,233,251,272,291,313,331,351,372,392,413,431,452,471,491,512,531,553,572,592,611,631,653,672,692,712,731,753,772,791,811,832,851,872,892,911,931,953,971,991,1013,1032,1052,1073,1091,1113,1133,1153,1171,1193,1211,1231,1252,1272,1292,1312,1331,1352,1372,1391,1412,1431,1453,1472,1493,1511,1532,1552,1572,1591,1613,1631,1653,1672,1692,1713,1732,1752,1773,1792,1811,1831,1853,1871,1891,1913,1931,1951,1973,1993,2011,2031,2052,2072,2091,2112,2131,2153,2171,2192,2212,2233,2252,2272,2291,2312,2331,2352,2372,2393,2411,2431,2452,2473,2491,2511,2533,2552,2571,2591,2613,2632,2653,2672,2692,2713,2733,2752,2771,2792,2813,2833,2851,2872,2893,2912,2933,2953,2971],"xSR":741.5,"ySR":501.8,"xT1":424.9,"yT1":0,"xT2":1058.1,"yT2":0,"toosoon":0,"cond_shown":"Incongruent","ratio_trial":100,"L_num":3,"L_den":9,"R_num":7,"R_den":30,"correct_side":1,"subjID":"juanpablocampospuerto30","gender":"0","age":"11","school":"6","test":{"fix_dur":[250,1500],"timestim":1000,"targets_dim":[100,100],"targets_relative_coord":[0.3,0.7],"size_stim":[880,420],"start_dim":[100,100],"size_start":[300,300],"size_fix":60,"samplingrate":20,"img_types":["Congruent","Incongruent"],"ratios":[100,200,300],"rep_conds":19,"nTrials":120,"trials_to_rest":500,"Trials_order":[91,106,10,40,113,95,9,43,93,81,33,105,99,68,97,53,83,30,11,23,67,108,77,57,82,94,37,118,31,54,115,61,96,29,34,66,104,111,59,49,69,0,42,46,80,8,35,116,58,24,101,7,56,6,22,25,47,103,55,109,89,100,26,112,64,4,3,79,18,32,84,28,51,62,38,17,73,15,14,27,39,16,88,2,63,110,98,44,65,52,119,20,86,50,1,36,76,70,107,13,45,5,71,114,92,85,21,102,19,48,78,41,72,75,60,90,12,87,117,74],"cond_shown":["Incongruent","Congruent","Congruent","Congruent","Incongruent","Incongruent","Incongruent","Incongruent","Incongruent","Incongruent","Incongruent","Incongruent","Incongruent","Congruent","Incongruent","Incongruent","Incongruent","Congruent","Incongruent","Incongruent","Incongruent","Congruent","Incongruent","Incongruent","Congruent","Congruent","Incongruent","Congruent","Incongruent","Congruent","Incongruent","Incongruent","Congruent","Incongruent","Congruent","Congruent","Congruent","Incongruent","Incongruent","Incongruent","Incongruent","Congruent","Congruent","Congruent","Congruent","Congruent","Incongruent","Congruent","Congruent","Congruent","Incongruent","Incongruent","Congruent","Congruent","Congruent","Incongruent","Incongruent","Incongruent","Incongruent","Incongruent","Incongruent","Congruent","Congruent","Congruent","Congruent","Congruent","Incongruent","Incongruent","Congruent","Congruent","Congruent","Congruent","Incongruent","Congruent","Congruent","Incongruent","Incongruent","Incongruent","Congruent","Incongruent","Incongruent","Congruent","Congruent","Congruent","Incongruent","Congruent","Congruent","Congruent","Incongruent","Congruent","Incongruent","Congruent","Congruent","Congruent","Incongruent","Congruent","Congruent","Congruent","Incongruent","Incongruent","Incongruent","Incongruent","Incongruent","Congruent","Congruent","Incongruent","Incongruent","Congruent","Incongruent","Congruent","Congruent","Incongruent","Congruent","Incongruent","Congruent","Congruent","Congruent","Incongruent","Incongruent","Congruent"],"ratio_trial":[100,300,300,300,300,300,200,100,200,200,200,200,200,200,100,300,300,100,300,300,100,100,300,200,300,300,100,300,100,100,100,100,100,300,300,100,200,200,300,100,200,100,100,300,200,200,300,200,300,100,300,100,200,100,300,100,300,100,100,100,300,300,200,300,300,300,200,100,100,200,100,300,200,200,200,300,100,200,200,200,200,300,300,200,200,200,200,200,300,300,300,200,200,200,100,100,300,300,300,100,200,300,300,100,200,100,200,100,100,100,100,300,100,200,100,100,100,200,200,200],"left_num":[3,8,1,20,1,2,7,2,3,4,4,7,7,9,9,4,4,8,13,4,9,15,4,14,2,1,6,1,8,11,11,6,2,13,11,15,11,9,13,3,4,8,10,3,1,13,4,8,3,12,13,12,8,4,24,13,13,10,4,12,4,20,13,20,24,11,14,3,8,9,7,2,7,9,9,4,8,7,3,11,3,1,11,7,3,6,3,7,13,1,4,4,3,7,8,2,20,1,4,12,9,13,4,11,5,9,14,11,6,3,11,13,10,3,2,1,7,4,4,6],"right_num":[7,1,3,9,2,6,6,8,1,1,1,8,8,13,13,2,2,2,12,2,6,13,2,12,10,19,13,11,6,4,9,3,6,12,2,13,3,8,12,4,1,2,3,4,21,14,8,3,2,13,12,2,7,15,2,6,12,8,8,9,2,13,14,13,8,2,6,7,2,13,9,10,12,13,4,2,6,4,14,3,11,3,2,18,1,11,14,2,12,3,2,3,14,2,6,6,14,19,6,9,8,12,6,4,14,13,6,6,3,2,4,12,3,1,11,3,15,6,1,11],"left_den":[9,16,5,25,2,4,15,4,10,30,30,10,10,30,15,20,20,16,26,20,18,25,20,30,20,3,10,5,16,22,22,12,5,26,22,25,22,15,26,6,30,16,25,6,2,26,5,15,6,30,26,30,15,10,30,26,26,25,8,24,20,25,26,25,30,22,30,9,16,30,14,20,10,30,20,20,16,15,6,20,4,5,22,15,10,20,10,21,26,5,20,10,6,21,16,5,25,3,5,24,15,26,5,22,10,15,30,22,12,6,22,26,25,10,5,2,14,5,30,20],"right_den":[30,5,6,18,10,30,9,20,2,3,3,16,16,26,26,4,4,5,15,4,10,26,4,18,25,30,26,22,10,10,15,5,12,15,10,26,10,10,15,10,3,5,10,5,30,20,16,9,10,26,15,4,21,30,4,10,15,16,20,15,4,26,20,26,16,10,9,30,5,26,15,25,24,26,16,4,10,6,20,4,20,6,10,27,2,22,28,15,15,6,4,15,20,15,10,12,28,30,12,15,10,15,12,10,20,26,9,15,5,5,10,15,10,2,22,5,25,10,3,22],"correct_side":[1,1,2,1,1,1,2,1,2,2,2,1,1,2,1,2,2,1,2,2,2,1,2,2,2,2,1,2,2,1,2,2,2,2,1,1,1,2,2,1,2,1,1,2,2,2,1,1,1,2,2,2,1,2,1,2,2,2,1,2,2,1,2,1,1,1,2,1,1,2,2,2,1,2,1,2,2,2,2,2,1,2,1,2,2,2,2,1,2,2,2,1,2,1,2,2,1,2,1,2,2,2,1,1,2,1,2,1,2,1,1,2,1,2,2,2,2,1,2,2],"img_shown":["img2/100/Incongruent/L/I_Dist_100_LN_3_LD_9_RN_7_RD_30_0.png","img2/300/Congruent/L/C_Dist_300_LN_8_LD_16_RN_1_RD_5_0.png","img2/300/Congruent/R/C_Dist_300_LN_1_LD_5_RN_3_RD_6_1.png","img2/300/Congruent/L/C_Dist_300_LN_20_LD_25_RN_9_RD_18_0.png","img2/300/Incongruent/L/I_Dist_300_LN_1_LD_2_RN_2_RD_10_0.png","img2/300/Incongruent/L/I_Dist_300_LN_2_LD_4_RN_6_RD_30_0.png","img2/200/Incongruent/R/I_Dist_200_LN_7_LD_15_RN_6_RD_9_1.png","img2/100/Incongruent/L/I_Dist_100_LN_2_LD_4_RN_8_RD_20_0.png","img2/200/Incongruent/R/I_Dist_200_LN_3_LD_10_RN_1_RD_2_1.png","img2/200/Incongruent/R/I_Dist_200_LN_4_LD_30_RN_1_RD_3_1.png","img2/200/Incongruent/R/I_Dist_200_LN_4_LD_30_RN_1_RD_3_1.png","img2/200/Incongruent/L/I_Dist_200_LN_7_LD_10_RN_8_RD_16_0.png","img2/200/Incongruent/L/I_Dist_200_LN_7_LD_10_RN_8_RD_16_0.png","img2/200/Congruent/R/C_Dist_200_LN_9_LD_30_RN_13_RD_26_1.png","img2/100/Incongruent/L/I_Dist_100_LN_9_LD_15_RN_13_RD_26_0.png","img2/300/Incongruent/R/I_Dist_300_LN_4_LD_20_RN_2_RD_4_1.png","img2/300/Incongruent/R/I_Dist_300_LN_4_LD_20_RN_2_RD_4_1.png","img2/100/Congruent/L/C_Dist_100_LN_8_LD_16_RN_2_RD_5_0.png","img2/300/Incongruent/R/I_Dist_300_LN_13_LD_26_RN_12_RD_15_1.png","img2/300/Incongruent/R/I_Dist_300_LN_4_LD_20_RN_2_RD_4_1.png","img2/100/Incongruent/R/I_Dist_100_LN_9_LD_18_RN_6_RD_10_1.png","img2/100/Congruent/L/C_Dist_100_LN_15_LD_25_RN_13_RD_26_0.png","img2/300/Incongruent/R/I_Dist_300_LN_4_LD_20_RN_2_RD_4_1.png","img2/200/Incongruent/R/I_Dist_200_LN_14_LD_30_RN_12_RD_18_1.png","img2/300/Congruent/R/C_Dist_300_LN_2_LD_20_RN_10_RD_25_1.png","img2/300/Congruent/R/C_Dist_300_LN_1_LD_3_RN_19_RD_30_1.png","img2/100/Incongruent/L/I_Dist_100_LN_6_LD_10_RN_13_RD_26_0.png","img2/300/Congruent/R/C_Dist_300_LN_1_LD_5_RN_11_RD_22_1.png","img2/100/Incongruent/R/I_Dist_100_LN_8_LD_16_RN_6_RD_10_1.png","img2/100/Congruent/L/C_Dist_100_LN_11_LD_22_RN_4_RD_10_0.png","img2/100/Incongruent/R/I_Dist_100_LN_11_LD_22_RN_9_RD_15_1.png","img2/100/Incongruent/R/I_Dist_100_LN_6_LD_12_RN_3_RD_5_1.png","img2/100/Congruent/R/C_Dist_100_LN_2_LD_5_RN_6_RD_12_1.png","img2/300/Incongruent/R/I_Dist_300_LN_13_LD_26_RN_12_RD_15_1.png","img2/300/Congruent/L/C_Dist_300_LN_11_LD_22_RN_2_RD_10_0.png","img2/100/Congruent/L/C_Dist_100_LN_15_LD_25_RN_13_RD_26_0.png","img2/200/Congruent/L/C_Dist_200_LN_11_LD_22_RN_3_RD_10_0.png","img2/200/Incongruent/R/I_Dist_200_LN_9_LD_15_RN_8_RD_10_1.png","img2/300/Incongruent/R/I_Dist_300_LN_13_LD_26_RN_12_RD_15_1.png","img2/100/Incongruent/L/I_Dist_100_LN_3_LD_6_RN_4_RD_10_0.png","img2/200/Incongruent/R/I_Dist_200_LN_4_LD_30_RN_1_RD_3_1.png","img2/100/Congruent/L/C_Dist_100_LN_8_LD_16_RN_2_RD_5_0.png","img2/100/Congruent/L/C_Dist_100_LN_10_LD_25_RN_3_RD_10_0.png","img2/300/Congruent/R/C_Dist_300_LN_3_LD_6_RN_4_RD_5_1.png","img2/200/Congruent/R/C_Dist_200_LN_1_LD_2_RN_21_RD_30_1.png","img2/200/Congruent/R/C_Dist_200_LN_13_LD_26_RN_14_RD_20_1.png","img2/300/Incongruent/L/I_Dist_300_LN_4_LD_5_RN_8_RD_16_0.png","img2/200/Congruent/L/C_Dist_200_LN_8_LD_15_RN_3_RD_9_0.png","img2/300/Congruent/L/C_Dist_300_LN_3_LD_6_RN_2_RD_10_0.png","img2/100/Congruent/R/C_Dist_100_LN_12_LD_30_RN_13_RD_26_1.png","img2/300/Incongruent/R/I_Dist_300_LN_13_LD_26_RN_12_RD_15_1.png","img2/100/Incongruent/R/I_Dist_100_LN_12_LD_30_RN_2_RD_4_1.png","img2/200/Congruent/L/C_Dist_200_LN_8_LD_15_RN_7_RD_21_0.png","img2/100/Congruent/R/C_Dist_100_LN_4_LD_10_RN_15_RD_30_1.png","img2/300/Congruent/L/C_Dist_300_LN_24_LD_30_RN_2_RD_4_0.png","img2/100/Incongruent/R/I_Dist_100_LN_13_LD_26_RN_6_RD_10_1.png","img2/300/Incongruent/R/I_Dist_300_LN_13_LD_26_RN_12_RD_15_1.png","img2/100/Incongruent/R/I_Dist_100_LN_10_LD_25_RN_8_RD_16_1.png","img2/100/Incongruent/L/I_Dist_100_LN_4_LD_8_RN_8_RD_20_0.png","img2/100/Incongruent/R/I_Dist_100_LN_12_LD_24_RN_9_RD_15_1.png","img2/300/Incongruent/R/I_Dist_300_LN_4_LD_20_RN_2_RD_4_1.png","img2/300/Congruent/L/C_Dist_300_LN_20_LD_25_RN_13_RD_26_0.png","img2/200/Congruent/R/C_Dist_200_LN_13_LD_26_RN_14_RD_20_1.png","img2/300/Congruent/L/C_Dist_300_LN_20_LD_25_RN_13_RD_26_0.png","img2/300/Congruent/L/C_Dist_300_LN_24_LD_30_RN_8_RD_16_0.png","img2/300/Congruent/L/C_Dist_300_LN_11_LD_22_RN_2_RD_10_0.png","img2/200/Incongruent/R/I_Dist_200_LN_14_LD_30_RN_6_RD_9_1.png","img2/100/Incongruent/L/I_Dist_100_LN_3_LD_9_RN_7_RD_30_0.png","img2/100/Congruent/L/C_Dist_100_LN_8_LD_16_RN_2_RD_5_0.png","img2/200/Congruent/R/C_Dist_200_LN_9_LD_30_RN_13_RD_26_1.png","img2/100/Congruent/R/C_Dist_100_LN_7_LD_14_RN_9_RD_15_1.png","img2/300/Congruent/R/C_Dist_300_LN_2_LD_20_RN_10_RD_25_1.png","img2/200/Incongruent/L/I_Dist_200_LN_7_LD_10_RN_12_RD_24_0.png","img2/200/Congruent/R/C_Dist_200_LN_9_LD_30_RN_13_RD_26_1.png","img2/200/Congruent/L/C_Dist_200_LN_9_LD_20_RN_4_RD_16_0.png","img2/300/Incongruent/R/I_Dist_300_LN_4_LD_20_RN_2_RD_4_1.png","img2/100/Incongruent/R/I_Dist_100_LN_8_LD_16_RN_6_RD_10_1.png","img2/200/Incongruent/R/I_Dist_200_LN_7_LD_15_RN_4_RD_6_1.png","img2/200/Congruent/R/C_Dist_200_LN_3_LD_6_RN_14_RD_20_1.png","img2/200/Incongruent/R/I_Dist_200_LN_11_LD_20_RN_3_RD_4_1.png","img2/200/Incongruent/L/I_Dist_200_LN_3_LD_4_RN_11_RD_20_0.png","img2/300/Congruent/R/C_Dist_300_LN_1_LD_5_RN_3_RD_6_1.png","img2/300/Congruent/L/C_Dist_300_LN_11_LD_22_RN_2_RD_10_0.png","img2/200/Congruent/R/C_Dist_200_LN_7_LD_15_RN_18_RD_27_1.png","img2/200/Incongruent/R/I_Dist_200_LN_3_LD_10_RN_1_RD_2_1.png","img2/200/Congruent/R/C_Dist_200_LN_6_LD_20_RN_11_RD_22_1.png","img2/200/Congruent/R/C_Dist_200_LN_3_LD_10_RN_14_RD_28_1.png","img2/200/Congruent/L/C_Dist_200_LN_7_LD_21_RN_2_RD_15_0.png","img2/300/Incongruent/R/I_Dist_300_LN_13_LD_26_RN_12_RD_15_1.png","img2/300/Congruent/R/C_Dist_300_LN_1_LD_5_RN_3_RD_6_1.png","img2/300/Incongruent/R/I_Dist_300_LN_4_LD_20_RN_2_RD_4_1.png","img2/200/Congruent/L/C_Dist_200_LN_4_LD_10_RN_3_RD_15_0.png","img2/200/Congruent/R/C_Dist_200_LN_3_LD_6_RN_14_RD_20_1.png","img2/200/Congruent/L/C_Dist_200_LN_7_LD_21_RN_2_RD_15_0.png","img2/100/Incongruent/R/I_Dist_100_LN_8_LD_16_RN_6_RD_10_1.png","img2/100/Congruent/R/C_Dist_100_LN_2_LD_5_RN_6_RD_12_1.png","img2/300/Congruent/L/C_Dist_300_LN_20_LD_25_RN_14_RD_28_0.png","img2/300/Congruent/R/C_Dist_300_LN_1_LD_3_RN_19_RD_30_1.png","img2/300/Incongruent/L/I_Dist_300_LN_4_LD_5_RN_6_RD_12_0.png","img2/100/Incongruent/R/I_Dist_100_LN_12_LD_24_RN_9_RD_15_1.png","img2/200/Incongruent/R/I_Dist_200_LN_9_LD_15_RN_8_RD_10_1.png","img2/300/Incongruent/R/I_Dist_300_LN_13_LD_26_RN_12_RD_15_1.png","img2/300/Incongruent/L/I_Dist_300_LN_4_LD_5_RN_6_RD_12_0.png","img2/100/Congruent/L/C_Dist_100_LN_11_LD_22_RN_4_RD_10_0.png","img2/200/Congruent/R/C_Dist_200_LN_5_LD_10_RN_14_RD_20_1.png","img2/100/Incongruent/L/I_Dist_100_LN_9_LD_15_RN_13_RD_26_0.png","img2/200/Incongruent/R/I_Dist_200_LN_14_LD_30_RN_6_RD_9_1.png","img2/100/Congruent/L/C_Dist_100_LN_11_LD_22_RN_6_RD_15_0.png","img2/100/Incongruent/R/I_Dist_100_LN_6_LD_12_RN_3_RD_5_1.png","img2/100/Congruent/L/C_Dist_100_LN_3_LD_6_RN_2_RD_5_0.png","img2/100/Congruent/L/C_Dist_100_LN_11_LD_22_RN_4_RD_10_0.png","img2/300/Incongruent/R/I_Dist_300_LN_13_LD_26_RN_12_RD_15_1.png","img2/100/Congruent/L/C_Dist_100_LN_10_LD_25_RN_3_RD_10_0.png","img2/200/Incongruent/R/I_Dist_200_LN_3_LD_10_RN_1_RD_2_1.png","img2/100/Congruent/R/C_Dist_100_LN_2_LD_5_RN_11_RD_22_1.png","img2/100/Congruent/R/C_Dist_100_LN_1_LD_2_RN_3_RD_5_1.png","img2/100/Congruent/R/C_Dist_100_LN_7_LD_14_RN_15_RD_25_1.png","img2/200/Incongruent/L/I_Dist_200_LN_4_LD_5_RN_6_RD_10_0.png","img2/200/Incongruent/R/I_Dist_200_LN_4_LD_30_RN_1_RD_3_1.png","img2/200/Congruent/R/C_Dist_200_LN_6_LD_20_RN_11_RD_22_1.png"],"dist100_C":[["C_Dist_100_LN_10_LD_25_RN_3_RD_10_0.png","C_Dist_100_LN_11_LD_22_RN_4_RD_10_0.png","C_Dist_100_LN_11_LD_22_RN_6_RD_15_0.png","C_Dist_100_LN_15_LD_25_RN_13_RD_26_0.png","C_Dist_100_LN_3_LD_6_RN_2_RD_5_0.png","C_Dist_100_LN_6_LD_20_RN_5_RD_25_0.png","C_Dist_100_LN_8_LD_16_RN_2_RD_5_0.png","C_Dist_100_LN_9_LD_15_RN_8_RD_16_0.png"],["C_Dist_100_LN_1_LD_2_RN_18_RD_30_1.png","C_Dist_100_LN_1_LD_2_RN_3_RD_5_1.png","C_Dist_100_LN_12_LD_30_RN_13_RD_26_1.png","C_Dist_100_LN_2_LD_5_RN_11_RD_22_1.png","C_Dist_100_LN_2_LD_5_RN_6_RD_12_1.png","C_Dist_100_LN_3_LD_20_RN_4_RD_16_1.png","C_Dist_100_LN_4_LD_10_RN_15_RD_30_1.png","C_Dist_100_LN_4_LD_8_RN_6_RD_10_1.png","C_Dist_100_LN_6_LD_12_RN_15_RD_25_1.png","C_Dist_100_LN_7_LD_14_RN_15_RD_25_1.png","C_Dist_100_LN_7_LD_14_RN_9_RD_15_1.png"]],"dist100_I":[["I_Dist_100_LN_1_LD_2_RN_8_RD_20_0.png","I_Dist_100_LN_2_LD_4_RN_6_RD_15_0.png","I_Dist_100_LN_2_LD_4_RN_8_RD_20_0.png","I_Dist_100_LN_3_LD_5_RN_11_RD_22_0.png","I_Dist_100_LN_3_LD_5_RN_8_RD_16_0.png","I_Dist_100_LN_3_LD_6_RN_4_RD_10_0.png","I_Dist_100_LN_3_LD_9_RN_7_RD_30_0.png","I_Dist_100_LN_4_LD_8_RN_8_RD_20_0.png","I_Dist_100_LN_6_LD_10_RN_11_RD_22_0.png","I_Dist_100_LN_6_LD_10_RN_13_RD_26_0.png","I_Dist_100_LN_6_LD_10_RN_7_RD_14_0.png","I_Dist_100_LN_9_LD_10_RN_20_RD_25_0.png","I_Dist_100_LN_9_LD_15_RN_13_RD_26_0.png","I_Dist_100_LN_9_LD_15_RN_14_RD_28_0.png"],["I_Dist_100_LN_10_LD_25_RN_8_RD_16_1.png","I_Dist_100_LN_10_LD_25_RN_9_RD_18_1.png","I_Dist_100_LN_11_LD_22_RN_9_RD_15_1.png","I_Dist_100_LN_12_LD_24_RN_9_RD_15_1.png","I_Dist_100_LN_12_LD_30_RN_2_RD_4_1.png","I_Dist_100_LN_13_LD_26_RN_12_RD_20_1.png","I_Dist_100_LN_13_LD_26_RN_6_RD_10_1.png","I_Dist_100_LN_17_LD_30_RN_10_RD_15_1.png","I_Dist_100_LN_6_LD_12_RN_3_RD_5_1.png","I_Dist_100_LN_8_LD_16_RN_6_RD_10_1.png","I_Dist_100_LN_8_LD_20_RN_1_RD_2_1.png","I_Dist_100_LN_9_LD_18_RN_6_RD_10_1.png"]],"dist100_S":[["E_Dist_100_LN_2_LD_12_RN_2_RD_30_0.png","E_Dist_100_LN_6_LD_10_RN_6_RD_12_0.png"],["E_Dist_100_LN_6_LD_12_RN_6_RD_10_1.png"]],"dist200_C":[["C_Dist_200_LN_11_LD_22_RN_3_RD_10_0.png","C_Dist_200_LN_12_LD_15_RN_6_RD_10_0.png","C_Dist_200_LN_12_LD_20_RN_6_RD_15_0.png","C_Dist_200_LN_14_LD_28_RN_6_RD_20_0.png","C_Dist_200_LN_15_LD_25_RN_4_RD_10_0.png","C_Dist_200_LN_16_LD_20_RN_12_RD_20_0.png","C_Dist_200_LN_16_LD_30_RN_9_RD_27_0.png","C_Dist_200_LN_20_LD_25_RN_9_RD_15_0.png","C_Dist_200_LN_21_LD_30_RN_2_RD_4_0.png","C_Dist_200_LN_4_LD_10_RN_3_RD_15_0.png","C_Dist_200_LN_4_LD_8_RN_3_RD_10_0.png","C_Dist_200_LN_6_LD_15_RN_3_RD_15_0.png","C_Dist_200_LN_7_LD_21_RN_2_RD_15_0.png","C_Dist_200_LN_8_LD_15_RN_2_RD_6_0.png","C_Dist_200_LN_8_LD_15_RN_3_RD_9_0.png","C_Dist_200_LN_8_LD_15_RN_7_RD_21_0.png","C_Dist_200_LN_9_LD_20_RN_4_RD_16_0.png"],["C_Dist_200_LN_1_LD_2_RN_21_RD_30_1.png","C_Dist_200_LN_13_LD_26_RN_14_RD_20_1.png","C_Dist_200_LN_3_LD_10_RN_11_RD_22_1.png","C_Dist_200_LN_3_LD_10_RN_14_RD_28_1.png","C_Dist_200_LN_3_LD_10_RN_7_RD_14_1.png","C_Dist_200_LN_3_LD_12_RN_9_RD_20_1.png","C_Dist_200_LN_3_LD_6_RN_14_RD_20_1.png","C_Dist_200_LN_5_LD_10_RN_14_RD_20_1.png","C_Dist_200_LN_6_LD_12_RN_7_RD_10_1.png","C_Dist_200_LN_6_LD_20_RN_11_RD_22_1.png","C_Dist_200_LN_7_LD_15_RN_18_RD_27_1.png","C_Dist_200_LN_9_LD_30_RN_13_RD_26_1.png"]],"dist200_I":[["I_Dist_200_LN_1_LD_2_RN_3_RD_10_0.png","I_Dist_200_LN_1_LD_3_RN_2_RD_15_0.png","I_Dist_200_LN_3_LD_4_RN_11_RD_20_0.png","I_Dist_200_LN_4_LD_5_RN_6_RD_10_0.png","I_Dist_200_LN_4_LD_6_RN_14_RD_30_0.png","I_Dist_200_LN_7_LD_10_RN_12_RD_24_0.png","I_Dist_200_LN_7_LD_10_RN_14_RD_28_0.png","I_Dist_200_LN_7_LD_10_RN_8_RD_16_0.png"],["I_Dist_200_LN_11_LD_20_RN_3_RD_4_1.png","I_Dist_200_LN_14_LD_30_RN_12_RD_18_1.png","I_Dist_200_LN_14_LD_30_RN_6_RD_9_1.png","I_Dist_200_LN_3_LD_10_RN_1_RD_2_1.png","I_Dist_200_LN_4_LD_30_RN_1_RD_3_1.png","I_Dist_200_LN_6_LD_20_RN_3_RD_6_1.png","I_Dist_200_LN_7_LD_15_RN_4_RD_6_1.png","I_Dist_200_LN_7_LD_15_RN_6_RD_9_1.png","I_Dist_200_LN_9_LD_15_RN_8_RD_10_1.png"]],"dist200_S":[["E_Dist_200_LN_3_LD_6_RN_3_RD_10_0.png"],["E_Dist_200_LN_3_LD_10_RN_3_RD_6_1.png"]],"dist300_C":[["C_Dist_300_LN_11_LD_22_RN_1_RD_5_0.png","C_Dist_300_LN_11_LD_22_RN_2_RD_10_0.png","C_Dist_300_LN_11_LD_22_RN_4_RD_20_0.png","C_Dist_300_LN_12_LD_24_RN_2_RD_10_0.png","C_Dist_300_LN_18_LD_20_RN_9_RD_15_0.png","C_Dist_300_LN_20_LD_25_RN_13_RD_26_0.png","C_Dist_300_LN_20_LD_25_RN_14_RD_28_0.png","C_Dist_300_LN_20_LD_25_RN_5_RD_10_0.png","C_Dist_300_LN_20_LD_25_RN_8_RD_16_0.png","C_Dist_300_LN_20_LD_25_RN_9_RD_18_0.png","C_Dist_300_LN_24_LD_30_RN_2_RD_4_0.png","C_Dist_300_LN_24_LD_30_RN_8_RD_16_0.png","C_Dist_300_LN_3_LD_6_RN_2_RD_10_0.png","C_Dist_300_LN_4_LD_10_RN_1_RD_10_0.png","C_Dist_300_LN_4_LD_5_RN_2_RD_4_0.png","C_Dist_300_LN_8_LD_16_RN_1_RD_5_0.png","C_Dist_300_LN_9_LD_10_RN_3_RD_5_0.png"],["C_Dist_300_LN_1_LD_20_RN_7_RD_20_1.png","C_Dist_300_LN_1_LD_3_RN_19_RD_30_1.png","C_Dist_300_LN_1_LD_30_RN_8_RD_24_1.png","C_Dist_300_LN_1_LD_5_RN_11_RD_22_1.png","C_Dist_300_LN_1_LD_5_RN_3_RD_6_1.png","C_Dist_300_LN_1_LD_5_RN_6_RD_12_1.png","C_Dist_300_LN_2_LD_10_RN_12_RD_24_1.png","C_Dist_300_LN_2_LD_20_RN_10_RD_25_1.png","C_Dist_300_LN_3_LD_12_RN_11_RD_20_1.png","C_Dist_300_LN_3_LD_6_RN_4_RD_5_1.png","C_Dist_300_LN_4_LD_20_RN_13_RD_26_1.png","C_Dist_300_LN_5_LD_25_RN_6_RD_12_1.png","C_Dist_300_LN_5_LD_25_RN_7_RD_14_1.png","C_Dist_300_LN_7_LD_14_RN_20_RD_25_1.png","C_Dist_300_LN_8_LD_15_RN_10_RD_12_1.png"]],"dist300_I":[["I_Dist_300_LN_1_LD_2_RN_2_RD_10_0.png","I_Dist_300_LN_1_LD_2_RN_3_RD_15_0.png","I_Dist_300_LN_2_LD_4_RN_6_RD_30_0.png","I_Dist_300_LN_3_LD_6_RN_4_RD_20_0.png","I_Dist_300_LN_4_LD_5_RN_6_RD_12_0.png","I_Dist_300_LN_4_LD_5_RN_8_RD_16_0.png","I_Dist_300_LN_7_LD_10_RN_8_RD_20_0.png","I_Dist_300_LN_8_LD_10_RN_14_RD_28_0.png","I_Dist_300_LN_8_LD_10_RN_9_RD_18_0.png"],["I_Dist_300_LN_13_LD_26_RN_12_RD_15_1.png","I_Dist_300_LN_4_LD_20_RN_2_RD_4_1.png"]],"dist300_S":[["E_Dist_300_LN_9_LD_12_RN_9_RD_20_0.png"],["E_Dist_300_LN_18_LD_30_RN_18_RD_20_1.png","E_Dist_300_LN_3_LD_10_RN_3_RD_5_1.png","E_Dist_300_LN_9_LD_20_RN_9_RD_12_1.png"]],"dist500_C":[["C_Dist_500_LN_10_LD_13_RN_7_RD_26_0.png","C_Dist_500_LN_10_LD_15_RN_4_RD_24_0.png","C_Dist_500_LN_12_LD_16_RN_3_RD_12_0.png","C_Dist_500_LN_12_LD_18_RN_4_RD_24_0.png","C_Dist_500_LN_15_LD_18_RN_5_RD_15_0.png","C_Dist_500_LN_15_LD_20_RN_1_RD_4_0.png","C_Dist_500_LN_18_LD_27_RN_1_RD_6_0.png","C_Dist_500_LN_20_LD_24_RN_1_RD_3_0.png","C_Dist_500_LN_20_LD_24_RN_3_RD_9_0.png","C_Dist_500_LN_20_LD_24_RN_7_RD_21_0.png","C_Dist_500_LN_20_LD_28_RN_3_RD_14_0.png","C_Dist_500_LN_21_LD_28_RN_6_RD_24_0.png","C_Dist_500_LN_22_LD_28_RN_2_RD_7_0.png","C_Dist_500_LN_25_LD_30_RN_9_RD_27_0.png","C_Dist_500_LN_4_LD_6_RN_1_RD_6_0.png","C_Dist_500_LN_5_LD_6_RN_2_RD_6_0.png","C_Dist_500_LN_6_LD_9_RN_1_RD_6_0.png","C_Dist_500_LN_7_LD_10_RN_1_RD_5_0.png","C_Dist_500_LN_8_LD_12_RN_1_RD_6_0.png","C_Dist_500_LN_8_LD_12_RN_4_RD_24_0.png"],["C_Dist_500_LN_1_LD_4_RN_12_RD_16_1.png","C_Dist_500_LN_1_LD_4_RN_9_RD_12_1.png","C_Dist_500_LN_1_LD_9_RN_11_RD_18_1.png","C_Dist_500_LN_10_LD_24_RN_22_RD_24_1.png","C_Dist_500_LN_2_LD_12_RN_10_RD_15_1.png","C_Dist_500_LN_2_LD_12_RN_12_RD_18_1.png","C_Dist_500_LN_2_LD_12_RN_4_RD_6_1.png","C_Dist_500_LN_2_LD_24_RN_7_RD_12_1.png","C_Dist_500_LN_2_LD_5_RN_18_RD_20_1.png","C_Dist_500_LN_2_LD_5_RN_9_RD_10_1.png","C_Dist_500_LN_2_LD_8_RN_12_RD_16_1.png","C_Dist_500_LN_2_LD_8_RN_21_RD_28_1.png","C_Dist_500_LN_3_LD_10_RN_4_RD_5_1.png","C_Dist_500_LN_3_LD_12_RN_15_RD_20_1.png","C_Dist_500_LN_3_LD_30_RN_6_RD_10_1.png","C_Dist_500_LN_3_LD_8_RN_14_RD_16_1.png","C_Dist_500_LN_4_LD_16_RN_15_RD_20_1.png","C_Dist_500_LN_4_LD_24_RN_12_RD_18_1.png","C_Dist_500_LN_5_LD_14_RN_6_RD_7_1.png","C_Dist_500_LN_7_LD_21_RN_20_RD_24_1.png","C_Dist_500_LN_7_LD_28_RN_12_RD_16_1.png","C_Dist_500_LN_7_LD_28_RN_9_RD_12_1.png","C_Dist_500_LN_9_LD_27_RN_20_RD_24_1.png"]],"dist500_I":[["I_Dist_500_LN_2_LD_3_RN_4_RD_24_0.png","I_Dist_500_LN_5_LD_6_RN_6_RD_18_0.png","I_Dist_500_LN_7_LD_8_RN_9_RD_24_0.png"],["I_Dist_500_LN_7_LD_21_RN_5_RD_6_1.png"]],"dist500_S":[["E_Dist_500_LN_6_LD_8_RN_6_RD_24_0.png"],["E_Dist_500_LN_2_LD_12_RN_2_RD_3_1.png","E_Dist_500_LN_6_LD_24_RN_6_RD_8_1.png"]]}},{"start_time":1551793984432,"click_time":1551793986514,"finger_time":1551793985874,"fix_duration":417.9889952430622,"trial":1,"RT":1442,"MT":640,"sideResp":1,"stimulus":[],"xmouse":[772,772,772,772,772,772,772,772,772,772,772,772,772,772,772,772,772,772,772,772,772,772,772,772,772,772,772,772,772,772,772,772,772,772,772,772,772,772,772,772,772,772,772,772,772,772,772,772,772,772,772,772,772,772,772,772,772,772,772,772,772,772,772,772,772,772,772,772,770,766,760,748,731,724,718,711,702,677,661,649,634,620,598,595,592,591,588,560,542,527,513,503,501,501,501,501,501,501,501,501,501,501,496,487,480],"ymouse":[576,576,576,576,576,576,576,576,576,576,576,576,576,576,576,576,576,576,576,576,576,576,576,576,576,576,576,576,576,576,576,576,576,576,576,576,576,576,576,576,576,576,576,576,576,576,576,576,576,576,576,576,576,576,576,576,576,576,576,576,576,576,576,576,576,576,576,574,570,564,552,533,502,488,474,461,445,406,385,369,352,334,303,298,294,291,283,246,226,208,197,181,170,162,154,145,141,138,135,133,131,128,117,106,99],"timestamp_mouse":[9,21,42,61,83,102,121,142,162,181,202,221,243,261,283,302,322,342,363,383,402,421,442,461,483,501,522,543,563,582,601,623,642,662,682,702,722,741,762,783,802,823,843,863,882,903,921,942,963,982,1003,1023,1042,1062,1082,1101,1121,1142,1161,1183,1203,1221,1241,1263,1282,1302,1322,1341,1362,1382,1403,1422,1442,1462,1482,1503,1522,1542,1563,1581,1602,1623,1642,1663,1681,1701,1722,1741,1763,1782,1802,1821,1841,1863,1882,1903,1922,1941,1962,1983,2002,2023,2042,2063,2082],"xSR":741.5,"ySR":501.8,"xT1":424.9,"yT1":0,"xT2":1058.1,"yT2":0,"toosoon":0,"cond_shown":"Congruent","ratio_trial":300,"L_num":8,"L_den":16,"R_num":1,"R_den":5,"correct_side":1,"subjID":"juanpablocampospuerto30","gender":"0","school":"6","age":"11"},{"start_time":1551793988125,"click_time":1551793990254,"finger_time":1551793989534,"fix_duration":810.0416853645945,"trial":2,"RT":1409,"MT":720,"sideResp":2,"stimulus":[],"xmouse":[783,783,783,783,783,783,783,783,783,783,783,783,783,783,783,783,783,783,783,783,783,783,783,783,783,783,783,783,783,783,783,783,783,783,783,783,783,783,783,783,783,783,783,783,783,783,783,783,783,783,783,783,783,783,783,783,783,783,783,783,783,783,783,783,783,783,783,790,804,820,833,845,854,855,858,864,879,937,967,993,1012,1031,1057,1062,1066,1068,1069,1069,1069,1069,1070,1072,1075,1078,1083,1088,1092,1093,1097,1099,1099,1099,1100,1100,1100,1100,1100],"ymouse":[545,545,545,545,545,545,545,545,545,545,545,545,545,545,545,545,545,545,545,545,545,545,545,545,545,545,545,545,545,545,545,545,545,545,545,545,545,545,545,545,545,545,545,545,545,545,545,545,545,545,545,545,545,545,545,545,545,545,545,545,545,545,545,545,545,545,545,544,529,506,484,461,423,412,402,392,377,348,336,325,314,301,279,273,266,261,256,248,244,238,233,224,207,198,185,166,144,116,112,111,111,111,110,107,104,100,97],"timestamp_mouse":[10,33,49,68,89,109,129,149,169,189,209,229,248,270,288,310,328,348,369,389,409,429,450,468,490,508,530,550,568,590,609,629,650,669,688,709,730,748,769,788,810,829,849,869,888,909,930,949,969,989,1009,1028,1048,1068,1088,1109,1129,1148,1170,1189,1208,1229,1248,1270,1290,1308,1330,1349,1370,1388,1409,1429,1449,1468,1488,1509,1529,1548,1569,1588,1609,1629,1649,1670,1690,1708,1729,1748,1769,1789,1809,1829,1848,1868,1889,1908,1929,1950,1969,1989,2008,2029,2048,2069,2090,2109,2129],"xSR":741.5,"ySR":501.8,"xT1":424.9,"yT1":0,"xT2":1058.1,"yT2":0,"toosoon":0,"cond_shown":"Congruent","ratio_trial":300,"L_num":1,"L_den":5,"R_num":3,"R_den":6,"correct_side":2,"subjID":"juanpablocampospuerto30","gender":"0","school":"6","age":"11"},{"start_time":1551793993383,"click_time":1551793995033,"finger_time":1551793994774,"fix_duration":788.6153456594559,"trial":3,"RT":1391,"MT":259,"sideResp":1,"stimulus":[],"xmouse":[795,795,795,795,795,795,795,795,795,795,795,795,795,795,795,795,795,795,795,795,795,795,795,795,795,795,795,795,795,795,795,795,795,795,795,795,795,795,795,795,795,795,795,795,795,795,795,795,795,795,795,795,795,795,795,795,795,795,795,795,795,795,795,795,795,794,789,774,756,716,686,656,643,634,616,609,597,580,563,546,536,525,518],"ymouse":[545,545,545,545,545,545,545,545,545,545,545,545,545,545,545,545,545,545,545,545,545,545,545,545,545,545,545,545,545,545,545,545,545,545,545,545,545,545,545,545,545,545,545,545,545,545,545,545,545,545,545,545,545,545,545,545,545,545,545,545,545,545,545,545,545,544,544,535,522,465,426,389,370,354,324,312,289,249,202,138,110,85,67],"timestamp_mouse":[11,38,51,72,91,111,130,150,171,192,211,231,252,271,291,310,332,350,371,391,412,432,451,470,491,511,531,551,572,591,612,630,651,672,690,711,732,750,771,791,810,832,851,871,890,912,930,952,970,990,1011,1032,1051,1070,1092,1112,1131,1152,1172,1191,1211,1231,1252,1271,1291,1311,1332,1352,1370,1391,1411,1432,1450,1470,1491,1510,1530,1551,1571,1591,1611,1631,1650],"xSR":741.5,"ySR":501.8,"xT1":424.9,"yT1":0,"xT2":1058.1,"yT2":0,"toosoon":0,"cond_shown":"Congruent","ratio_trial":300,"L_num":20,"L_den":25,"R_num":9,"R_den":18,"correct_side":1,"subjID":"juanpablocampospuerto30","gender":"0","school":"6","age":"11"},{"start_time":1551793996857,"click_time":1551793998974,"finger_time":1551793998234,"fix_duration":842.9157770151537,"trial":4,"RT":1377,"MT":740,"sideResp":2,"stimulus":[],"xmouse":[806,806,806,806,806,806,806,806,806,806,806,806,806,806,806,806,806,806,806,806,806,806,806,806,806,806,805,805,805,805,805,805,805,805,805,805,805,805,805,805,805,805,805,805,805,805,805,805,805,805,805,805,805,805,805,805,805,805,805,805,805,805,805,805,805,805,805,806,819,837,869,879,885,890,895,905,915,926,937,947,952,952,952,953,955,962,965,966,967,969,972,980,986,990,998,1015,1020,1024,1027,1034,1051,1054,1055,1056,1057,1063],"ymouse":[549,549,549,549,549,549,549,549,549,549,549,549,549,549,549,549,549,549,549,549,549,549,549,549,549,549,549,549,549,549,549,549,549,549,549,549,549,549,549,549,549,549,549,549,549,549,549,549,549,549,549,549,549,549,549,549,549,549,549,549,549,549,549,549,549,548,540,526,498,461,417,407,402,397,394,382,365,342,316,296,252,241,230,218,206,180,172,168,165,162,156,146,139,135,126,107,101,96,93,90,79,78,77,77,76,74],"timestamp_mouse":[16,37,58,77,97,117,137,156,177,196,218,236,257,277,298,318,337,356,378,396,417,438,457,476,497,518,537,557,577,596,618,636,656,676,697,717,736,756,777,796,817,837,858,878,896,916,937,957,976,998,1018,1036,1058,1078,1097,1117,1136,1157,1177,1198,1217,1238,1256,1278,1297,1317,1337,1356,1377,1397,1417,1438,1457,1477,1498,1516,1537,1556,1577,1598,1616,1637,1657,1678,1698,1717,1737,1757,1777,1796,1816,1836,1856,1876,1896,1917,1937,1956,1976,1997,2017,2038,2057,2077,2097,2117],"xSR":741.5,"ySR":501.8,"xT1":424.9,"yT1":0,"xT2":1058.1,"yT2":0,"toosoon":0,"cond_shown":"Incongruent","ratio_trial":300,"L_num":1,"L_den":2,"R_num":2,"R_den":10,"correct_side":1,"subjID":"juanpablocampospuerto30","gender":"0","school":"6","age":"11"},{"start_time":1551794000929,"click_time":1551794002874,"finger_time":1551794000995,"fix_duration":973.4905395258246,"trial":5,"RT":66,"MT":1879,"sideResp":2,"stimulus":[],"xmouse":[749,749,749,740,733,727,726,726,726,726,726,726,726,726,726,726,726,726,726,726,726,726,726,726,726,726,726,726,726,726,726,726,726,726,729,731,736,750,752,754,754,756,757,757,757,758,759,763,764,764,765,765,765,766,766,767,767,767,767,768,771,773,778,779,779,779,779,779,782,791,807,838,904,925,929,929,922,919,919,921,925,934,953,961,973,985,1002,1015,1018,1019,1022,1025,1030,1031,1037,1046,1054,1084],"ymouse":[518,518,518,518,524,527,528,528,528,528,528,528,528,528,528,528,528,528,528,528,528,528,528,528,528,528,528,528,528,528,528,528,528,528,528,528,528,529,530,530,531,533,534,534,534,535,535,535,536,536,536,536,536,537,537,537,537,537,537,537,537,535,531,530,530,530,530,530,528,514,492,452,356,324,304,282,261,216,209,203,197,192,186,184,179,173,165,159,157,154,147,141,125,119,109,98,89,74],"timestamp_mouse":[11,24,45,66,85,105,126,145,165,185,205,224,245,265,285,305,325,345,365,385,406,426,444,466,486,504,526,545,564,584,606,624,645,665,685,704,724,745,765,785,804,824,844,866,886,905,925,945,965,984,1005,1026,1045,1065,1085,1104,1124,1144,1165,1185,1206,1226,1244,1264,1285,1306,1324,1344,1366,1386,1404,1424,1444,1466,1484,1505,1526,1544,1565,1584,1604,1626,1644,1665,1685,1706,1724,1745,1765,1785,1805,1826,1844,1865,1884,1904,1925,1945],"xSR":741.5,"ySR":501.8,"xT1":424.9,"yT1":0,"xT2":1058.1,"yT2":0,"toosoon":0,"cond_shown":"Incongruent","ratio_trial":300,"L_num":2,"L_den":4,"R_num":6,"R_den":30,"correct_side":1,"subjID":"juanpablocampospuerto30","gender":"0","school":"6","age":"11"},{"start_time":1551794004484,"click_time":1551794007674,"finger_time":1551794007035,"fix_duration":250,"trial":6,"RT":2551,"MT":639,"sideResp":1,"stimulus":[],"xmouse":[785,785,785,785,785,785,785,785,785,785,785,785,785,785,785,785,785,785,785,785,785,785,785,785,785,785,785,785,785,785,785,785,785,785,785,785,785,785,785,785,785,785,785,785,785,785,785,785,785,785,785,785,785,785,785,785,785,785,785,785,785,785,785,785,785,785,785,785,785,785,785,785,785,785,785,785,785,784,784,784,784,784,784,784,784,784,784,784,784,784,784,784,784,784,784,784,784,784,784,784,784,784,784,784,784,784,784,784,784,786,786,786,786,786,786,786,786,786,786,786,786,786,786,786,786,777,762,740,703,640,617,603,593,584,569,562,559,557,557,551,541,525,508,483,444,432,426,423,423,423,423,423,423,427,434,439,445,450,457,472],"ymouse":[560,560,560,560,560,560,560,560,560,560,560,560,560,560,560,560,560,560,560,560,560,560,560,560,560,560,560,560,560,560,560,560,560,560,560,560,560,560,560,560,560,560,560,560,560,560,560,560,560,560,560,560,560,560,560,560,560,560,560,560,560,560,560,560,560,560,560,560,560,560,560,560,560,560,560,560,560,559,557,551,550,550,550,550,550,550,550,550,550,550,550,550,550,550,550,550,550,550,550,550,550,550,550,550,550,550,550,550,550,556,557,558,558,558,558,558,558,558,558,558,558,558,558,558,558,546,532,515,485,436,422,412,403,390,352,328,309,294,272,250,235,215,197,179,156,150,145,143,143,141,139,138,137,136,134,131,128,125,119,83],"timestamp_mouse":[9,44,51,71,89,110,129,150,170,190,210,230,251,269,290,311,330,351,370,390,411,430,449,471,490,511,529,550,569,591,610,629,649,671,690,709,731,750,769,791,810,830,851,870,890,909,931,951,969,989,1010,1030,1050,1070,1090,1111,1129,1150,1170,1189,1210,1231,1251,1269,1290,1310,1331,1350,1369,1390,1411,1430,1451,1471,1489,1510,1531,1550,1569,1590,1609,1629,1649,1669,1690,1709,1731,1749,1771,1791,1810,1831,1850,1870,1890,1909,1930,1949,1970,1991,2011,2031,2051,2069,2089,2109,2130,2149,2169,2190,2211,2230,2250,2269,2290,2310,2330,2349,2370,2390,2409,2430,2449,2471,2489,2509,2530,2551,2571,2589,2609,2630,2650,2670,2690,2711,2730,2750,2770,2789,2810,2830,2850,2871,2890,2910,2930,2949,2971,2990,3010,3029,3050,3071,3090,3109,3130,3151,3169,3189],"xSR":741.5,"ySR":501.8,"xT1":424.9,"yT1":0,"xT2":1058.1,"yT2":0,"toosoon":0,"cond_shown":"Incongruent","ratio_trial":200,"L_num":7,"L_den":15,"R_num":6,"R_den":9,"correct_side":2,"subjID":"juanpablocampospuerto30","gender":"0","school":"6","age":"11"},{"start_time":1551794010256,"click_time":1551794012054,"finger_time":1551794011874,"fix_duration":1380.8363041794003,"trial":7,"RT":1618,"MT":180,"sideResp":1,"stimulus":[],"xmouse":[800,800,800,800,800,800,800,800,800,800,800,800,800,800,800,800,800,800,800,800,800,800,800,800,800,800,800,800,800,800,800,800,800,800,800,800,800,800,800,800,800,800,800,800,800,800,800,800,800,800,800,800,800,800,800,800,800,800,800,800,800,800,800,800,800,800,800,800,800,800,800,800,800,800,800,800,799,799,797,796,764,733,682,623,561,482,462,453,446,437],"ymouse":[531,531,531,531,531,531,531,531,531,531,531,531,531,531,531,531,531,531,531,531,531,531,531,531,531,531,531,531,531,531,531,531,531,531,531,531,531,531,531,531,531,531,531,531,531,531,531,531,531,531,531,531,531,531,531,531,531,531,531,531,531,531,531,531,531,531,531,531,531,531,531,531,531,531,531,531,530,528,527,525,497,471,426,364,286,177,147,125,102,82],"timestamp_mouse":[36,37,57,79,98,117,137,157,178,197,219,239,257,279,298,317,339,359,378,399,418,438,458,477,499,518,537,557,578,598,618,639,657,677,697,718,737,757,777,798,818,839,857,877,899,918,937,957,979,998,1018,1037,1059,1078,1099,1119,1138,1157,1178,1198,1218,1239,1257,1277,1298,1317,1337,1358,1378,1399,1417,1438,1457,1478,1498,1518,1538,1558,1577,1598,1618,1638,1657,1677,1699,1718,1739,1758,1777,1798],"xSR":741.5,"ySR":501.8,"xT1":424.9,"yT1":0,"xT2":1058.1,"yT2":0,"toosoon":0,"cond_shown":"Incongruent","ratio_trial":100,"L_num":2,"L_den":4,"R_num":8,"R_den":20,"correct_side":1,"subjID":"juanpablocampospuerto30","gender":"0","school":"6","age":"11"},{"start_time":1551794013597,"click_time":1551794015574,"finger_time":1551794014874,"fix_duration":322.9102261075278,"trial":8,"RT":1277,"MT":700,"sideResp":2,"stimulus":[],"xmouse":[822,822,822,822,822,822,822,822,822,822,822,822,822,822,822,822,822,822,822,822,822,822,822,822,822,822,822,822,822,822,822,822,822,822,822,822,822,822,822,822,822,822,822,822,822,822,822,822,822,822,822,822,822,822,822,822,822,823,823,823,823,823,823,831,838,848,860,879,913,924,933,936,938,946,954,963,971,979,986,988,989,993,998,1008,1012,1013,1017,1022,1029,1030,1030,1032,1033,1039,1042,1045,1050,1053,1061],"ymouse":[520,520,520,520,520,520,520,520,520,520,521,521,521,521,521,521,521,521,521,521,521,521,521,521,521,521,521,521,521,521,521,521,521,521,521,521,521,521,521,521,521,521,521,521,521,521,521,521,521,521,521,521,521,521,521,521,521,521,520,520,520,518,513,477,461,439,408,367,284,246,213,186,164,129,115,105,97,88,83,82,82,80,78,74,72,72,71,69,67,67,66,66,65,65,65,65,66,69,73],"timestamp_mouse":[17,41,58,78,97,117,138,156,176,198,218,236,257,277,298,317,337,356,376,397,416,437,456,477,497,516,538,557,576,597,616,638,658,676,697,717,737,756,776,797,816,838,856,876,897,916,938,956,976,998,1016,1036,1056,1077,1096,1118,1138,1156,1177,1198,1217,1238,1257,1277,1298,1317,1337,1358,1377,1396,1416,1436,1457,1477,1498,1516,1537,1556,1577,1596,1616,1638,1658,1676,1696,1716,1737,1758,1778,1798,1816,1836,1858,1877,1898,1916,1936,1957,1977],"xSR":741.5,"ySR":501.8,"xT1":424.9,"yT1":0,"xT2":1058.1,"yT2":0,"toosoon":0,"cond_shown":"Incongruent","ratio_trial":200,"L_num":3,"L_den":10,"R_num":1,"R_den":2,"correct_side":2,"subjID":"juanpablocampospuerto30","gender":"0","school":"6","age":"11"},{"start_time":1551794017142,"click_time":1551794019254,"finger_time":1551794018955,"fix_duration":527.6308404683526,"trial":9,"RT":1813,"MT":299,"sideResp":2,"stimulus":[],"xmouse":[801,801,801,801,801,801,801,801,801,801,801,801,801,801,801,801,801,801,801,801,801,801,801,801,801,801,801,801,801,801,801,801,801,801,801,801,801,801,801,801,801,801,801,801,801,801,801,801,801,801,801,801,801,801,801,801,801,801,801,801,801,801,801,801,801,801,801,801,801,801,801,801,801,801,801,800,800,800,800,800,800,800,800,800,800,800,800,801,803,807,813,829,845,850,861,872,890,898,913,934,947,954,970,1017,1068,1125],"ymouse":[546,546,546,546,546,546,546,546,546,546,546,546,546,546,546,546,546,546,546,546,546,546,546,546,546,546,546,546,546,546,546,546,546,546,546,546,546,546,546,546,546,546,546,546,546,546,546,546,546,546,546,546,546,546,546,546,546,546,546,546,546,546,546,546,546,546,546,546,546,546,546,546,546,546,546,546,542,540,540,540,540,540,540,540,540,540,540,534,527,514,500,457,420,409,388,371,342,326,304,276,255,225,201,152,107,58],"timestamp_mouse":[12,32,51,72,93,112,133,152,173,192,211,232,251,273,291,311,333,351,373,392,411,433,453,472,492,511,533,553,572,593,612,633,651,672,693,712,733,751,773,791,811,833,851,873,892,912,933,951,971,991,1012,1032,1051,1072,1091,1112,1132,1152,1173,1192,1212,1233,1253,1271,1292,1313,1331,1352,1372,1393,1413,1431,1452,1472,1493,1512,1531,1553,1572,1592,1612,1632,1653,1672,1693,1713,1731,1753,1771,1792,1813,1831,1857,1871,1892,1912,1931,1953,1972,1992,2012,2032,2052,2071,2092,2112],"xSR":741.5,"ySR":501.8,"xT1":424.9,"yT1":0,"xT2":1058.1,"yT2":0,"toosoon":0,"cond_shown":"Incongruent","ratio_trial":200,"L_num":4,"L_den":30,"R_num":1,"R_den":3,"correct_side":2,"subjID":"juanpablocampospuerto30","gender":"0","school":"6","age":"11"},{"start_time":1551794021998,"click_time":1551794024074,"finger_time":1551794023395,"fix_duration":463.52486992380693,"trial":10,"RT":1397,"MT":679,"sideResp":2,"stimulus":[],"xmouse":[758,758,758,758,758,758,758,758,758,758,758,758,758,758,758,758,758,758,758,758,758,758,758,758,758,758,758,758,758,758,758,758,758,758,758,758,758,758,758,758,758,758,758,758,758,758,758,758,758,758,758,758,758,758,758,758,758,758,758,758,758,758,758,758,758,758,768,774,797,826,845,862,878,908,916,926,936,951,975,985,989,989,989,994,997,999,1000,1001,1005,1005,1008,1010,1014,1024,1029,1033,1043,1054,1069,1070,1070,1070,1070,1070],"ymouse":[553,553,553,553,553,553,553,553,553,553,553,553,553,553,553,553,553,553,553,553,553,553,553,553,553,553,553,553,553,553,553,553,553,553,553,553,553,553,553,553,553,553,553,553,553,553,553,553,553,553,553,553,553,553,553,553,553,553,553,553,553,553,553,553,553,553,545,541,519,493,476,459,446,413,400,383,365,344,301,284,273,266,254,209,193,184,180,174,164,159,152,146,138,124,120,117,115,113,109,108,108,108,106,96],"timestamp_mouse":[17,36,57,76,96,115,137,155,176,196,216,236,255,275,295,317,336,355,375,395,417,436,456,476,496,515,536,556,576,596,616,635,656,675,696,716,737,755,775,796,815,836,856,876,895,916,936,956,976,996,1017,1036,1055,1075,1097,1116,1135,1156,1176,1195,1216,1235,1255,1275,1295,1317,1337,1357,1376,1397,1415,1435,1456,1477,1497,1516,1536,1556,1576,1595,1615,1636,1656,1677,1696,1716,1737,1756,1775,1797,1816,1836,1856,1876,1897,1915,1936,1957,1976,1996,2015,2036,2055,2076],"xSR":741.5,"ySR":501.8,"xT1":424.9,"yT1":0,"xT2":1058.1,"yT2":0,"toosoon":0,"cond_shown":"Incongruent","ratio_trial":200,"L_num":4,"L_den":30,"R_num":1,"R_den":3,"correct_side":2,"subjID":"juanpablocampospuerto30","gender":"0","school":"6","age":"11"},{"start_time":1551794025650,"click_time":1551794027993,"finger_time":1551794027573,"fix_duration":574.0851421590947,"trial":11,"RT":1923,"MT":420,"sideResp":2,"stimulus":[],"xmouse":[778,778,778,778,778,778,778,778,778,778,778,778,778,778,778,778,778,778,778,778,778,778,778,778,778,778,778,778,778,778,778,778,778,778,778,778,778,778,778,778,778,778,778,778,778,778,778,778,778,778,778,778,778,778,778,778,778,778,778,778,778,778,778,778,778,778,778,778,778,778,778,778,778,778,778,778,778,778,778,778,778,778,778,778,778,778,778,779,782,787,794,801,803,804,807,812,825,833,841,849,855,872,876,882,888,896,912,917,921,926,932,962,977,991,1003,1015,1052,1066],"ymouse":[582,582,582,582,582,582,582,582,582,582,582,582,582,582,582,582,582,582,582,582,582,582,582,582,582,582,582,582,582,582,582,582,582,582,582,582,582,582,582,582,582,582,582,582,582,582,582,582,582,582,582,582,582,582,582,582,582,582,582,582,582,582,582,582,582,582,582,582,582,582,582,582,582,582,582,582,582,582,582,582,582,582,582,582,582,582,582,576,570,558,549,532,527,522,515,505,471,454,431,412,393,345,329,313,299,284,259,249,239,228,216,175,163,152,144,135,103,86],"timestamp_mouse":[14,39,45,64,83,105,125,144,164,184,203,224,244,264,283,304,324,345,363,384,403,425,444,464,483,504,523,543,563,584,604,623,644,663,683,704,724,743,764,784,803,825,844,863,883,904,925,944,965,984,1005,1024,1044,1064,1083,1103,1123,1143,1164,1184,1205,1223,1244,1263,1283,1303,1324,1343,1365,1384,1403,1424,1444,1465,1484,1503,1524,1543,1563,1584,1605,1623,1644,1665,1683,1704,1723,1744,1764,1783,1805,1824,1844,1863,1884,1905,1923,1943,1964,1984,2005,2023,2045,2063,2083,2103,2124,2145,2164,2183,2204,2224,2244,2264,2284,2304,2325,2343],"xSR":741.5,"ySR":501.8,"xT1":424.9,"yT1":0,"xT2":1058.1,"yT2":0,"toosoon":0,"cond_shown":"Incongruent","ratio_trial":200,"L_num":7,"L_den":10,"R_num":8,"R_den":16,"correct_side":1,"subjID":"juanpablocampospuerto30","gender":"0","school":"6","age":"11"},{"start_time":1551794031587,"click_time":1551794033594,"finger_time":1551794033174,"fix_duration":950.9899082527133,"trial":12,"RT":1587,"MT":420,"sideResp":1,"stimulus":[],"xmouse":[784,784,784,784,784,784,784,784,784,784,784,784,784,784,784,784,784,784,784,784,784,784,784,784,784,784,784,784,784,784,784,784,784,784,784,784,784,784,784,784,784,784,784,784,784,784,784,784,784,784,784,784,784,784,784,784,784,784,784,784,784,784,784,784,784,784,784,784,784,784,784,784,784,782,778,776,775,775,775,774,767,756,736,711,662,650,640,631,625,615,604,593,583,578,577,577,576,572,565,537,519],"ymouse":[528,528,528,528,528,528,528,528,528,528,528,528,528,528,528,528,528,528,528,528,528,528,528,528,528,528,528,528,528,528,528,528,528,528,528,528,528,528,528,528,528,528,528,528,528,528,528,528,528,528,528,528,528,528,528,528,528,528,528,528,528,530,530,530,530,530,530,530,530,530,530,530,530,528,516,510,507,505,504,501,493,484,469,450,412,399,378,348,307,174,130,108,95,88,80,79,75,74,74,75,80],"timestamp_mouse":[8,27,47,66,86,106,127,148,166,187,206,227,248,268,286,308,328,347,368,387,407,428,447,466,487,507,527,546,568,587,608,626,646,667,687,706,728,747,767,788,807,827,848,866,888,906,928,947,967,987,1007,1028,1046,1066,1087,1108,1126,1148,1166,1187,1207,1228,1246,1268,1287,1308,1326,1348,1366,1386,1408,1426,1448,1468,1487,1506,1528,1547,1568,1587,1608,1627,1646,1668,1687,1708,1726,1746,1767,1787,1807,1826,1847,1866,1887,1908,1927,1947,1967,1987,2007],"xSR":741.5,"ySR":501.8,"xT1":424.9,"yT1":0,"xT2":1058.1,"yT2":0,"toosoon":0,"cond_shown":"Incongruent","ratio_trial":200,"L_num":7,"L_den":10,"R_num":8,"R_den":16,"correct_side":1,"subjID":"juanpablocampospuerto30","gender":"0","school":"6","age":"11"},{"start_time":1551794036713,"click_time":1551794039474,"finger_time":1551794038335,"fix_duration":617.1178017529957,"trial":13,"RT":1622,"MT":1139,"sideResp":1,"stimulus":[],"xmouse":[773,773,773,773,773,773,773,773,773,773,773,773,773,773,773,773,773,773,773,773,773,773,773,773,773,773,773,773,773,773,773,773,773,773,773,773,773,773,773,773,773,773,773,773,773,773,773,773,773,773,773,773,773,773,773,773,773,773,773,773,773,773,773,773,773,773,773,773,780,786,789,791,794,797,797,797,797,797,802,805,813,822,834,854,857,859,860,860,860,860,860,860,860,860,860,860,860,860,860,860,860,860,860,860,860,859,857,850,830,814,795,771,749,709,688,664,643,620,550,529,508,493,489,491,495,502,509,513,517,517,518,520,520,521,521,521,519,510,456],"ymouse":[558,558,558,558,558,558,558,558,558,558,558,558,558,558,558,558,558,558,558,558,558,558,558,558,558,558,558,558,558,558,558,558,558,558,558,558,558,558,558,558,558,558,558,558,558,558,558,558,558,558,558,558,558,558,558,558,558,558,558,558,558,558,558,558,558,558,558,558,547,540,535,532,529,525,525,525,525,525,519,514,508,499,490,469,458,450,445,444,444,444,444,444,444,444,444,444,444,444,444,444,444,444,444,444,444,444,443,440,424,410,393,376,360,336,324,310,297,282,232,217,202,188,178,171,170,168,163,160,157,155,153,146,143,143,142,137,130,118,92],"timestamp_mouse":[8,21,49,60,80,101,121,141,161,182,200,221,240,260,282,300,320,341,360,380,401,420,440,460,480,501,521,541,562,582,601,621,642,661,682,701,720,740,760,782,800,821,840,861,882,900,922,942,961,981,1001,1021,1041,1061,1081,1100,1122,1141,1161,1181,1200,1220,1241,1260,1282,1302,1321,1341,1361,1381,1402,1420,1440,1461,1481,1502,1521,1541,1561,1581,1602,1622,1642,1661,1680,1700,1720,1740,1761,1781,1801,1820,1840,1861,1881,1901,1920,1942,1961,1982,2001,2021,2040,2061,2082,2101,2120,2142,2161,2182,2200,2221,2242,2260,2281,2301,2321,2342,2360,2380,2401,2421,2442,2460,2480,2501,2520,2542,2561,2581,2600,2622,2641,2661,2682,2700,2720,2740,2761],"xSR":741.5,"ySR":501.8,"xT1":424.9,"yT1":0,"xT2":1058.1,"yT2":0,"toosoon":0,"cond_shown":"Congruent","ratio_trial":200,"L_num":9,"L_den":30,"R_num":13,"R_den":26,"correct_side":2,"subjID":"juanpablocampospuerto30","gender":"0","school":"6","age":"11"},{"start_time":1551794041651,"click_time":1551794043613,"finger_time":1551794042974,"fix_duration":1036.8676077248613,"trial":14,"RT":1323,"MT":639,"sideResp":1,"stimulus":[],"xmouse":[779,779,779,779,779,779,779,779,779,779,779,779,779,779,779,779,779,779,779,779,779,779,779,779,779,779,779,779,779,779,779,779,779,779,779,779,779,779,779,779,779,779,779,779,779,779,779,779,779,779,779,779,777,768,760,757,752,752,752,752,752,752,751,751,751,749,725,678,608,528,458,376,370,369,369,369,369,369,369,369,372,384,385,388,392,396,405,407,407,407,407,406,406,406,406,406,417,424,426],"ymouse":[582,582,582,582,582,582,582,582,582,582,582,582,582,582,582,582,582,582,582,582,582,582,582,582,582,582,582,582,582,582,582,582,582,582,582,582,582,582,582,582,582,582,582,582,582,582,582,582,582,582,582,582,571,558,546,541,536,536,536,536,536,536,532,524,516,503,472,437,395,351,319,268,257,251,248,248,247,245,239,224,207,187,182,176,170,161,143,139,138,136,135,126,123,118,113,106,93,90,89],"timestamp_mouse":[11,39,42,63,83,102,122,142,163,184,203,222,242,262,282,302,322,343,362,384,402,424,442,462,483,503,523,543,562,584,604,623,644,663,682,703,722,743,762,784,802,823,844,863,884,903,923,943,964,984,1002,1024,1044,1062,1083,1104,1122,1144,1164,1182,1203,1222,1243,1263,1283,1303,1323,1343,1362,1384,1402,1422,1443,1463,1483,1503,1523,1543,1563,1583,1603,1622,1644,1663,1684,1704,1724,1743,1762,1782,1802,1823,1842,1862,1883,1904,1923,1942,1962],"xSR":741.5,"ySR":501.8,"xT1":424.9,"yT1":0,"xT2":1058.1,"yT2":0,"toosoon":0,"cond_shown":"Incongruent","ratio_trial":100,"L_num":9,"L_den":15,"R_num":13,"R_den":26,"correct_side":1,"subjID":"juanpablocampospuerto30","gender":"0","school":"6","age":"11"},{"start_time":1551794044725,"click_time":1551794046595,"finger_time":1551794046054,"fix_duration":250,"trial":15,"RT":1329,"MT":541,"sideResp":2,"stimulus":[],"xmouse":[801,801,801,801,801,801,801,801,801,801,801,801,801,801,801,801,801,801,801,801,801,801,801,801,801,801,801,801,801,801,801,801,801,801,801,801,801,801,801,801,801,801,801,801,801,801,800,797,797,797,797,797,797,797,797,797,797,797,797,797,797,797,797,798,803,817,855,934,962,982,997,1004,1013,1016,1021,1028,1037,1050,1051,1051,1051,1051,1051,1053,1054,1056,1057,1062,1063,1066,1069,1074,1084,1089],"ymouse":[545,545,545,545,545,545,545,545,545,545,545,545,545,545,545,545,545,545,545,545,545,545,545,545,545,545,545,545,545,545,545,545,545,545,545,545,545,545,545,545,545,545,545,545,545,545,545,548,548,548,548,548,548,548,548,548,548,548,548,548,548,548,548,546,540,525,487,423,398,380,364,350,327,316,299,279,255,227,225,224,221,213,197,189,184,179,174,157,150,142,134,123,105,94],"timestamp_mouse":[13,54,54,70,89,108,130,148,168,190,208,228,249,268,289,309,328,349,369,390,410,428,449,468,490,509,529,548,568,590,610,629,649,669,689,709,728,748,769,789,809,829,849,870,889,909,928,949,968,988,1008,1029,1049,1068,1088,1108,1128,1149,1169,1189,1208,1230,1248,1268,1289,1308,1329,1349,1369,1389,1409,1429,1448,1470,1489,1509,1530,1548,1569,1589,1609,1629,1649,1669,1689,1708,1728,1748,1769,1789,1809,1830,1849,1870],"xSR":741.5,"ySR":501.8,"xT1":424.9,"yT1":0,"xT2":1058.1,"yT2":0,"toosoon":0,"cond_shown":"Incongruent","ratio_trial":300,"L_num":4,"L_den":20,"R_num":2,"R_den":4,"correct_side":2,"subjID":"juanpablocampospuerto30","gender":"0","school":"6","age":"11"},{"start_time":1551794050288,"click_time":1551794052214,"finger_time":1551794051693,"fix_duration":1293.8220680062295,"trial":16,"RT":1405,"MT":521,"sideResp":2,"stimulus":[],"xmouse":[787,787,787,787,787,787,787,787,787,787,787,787,787,787,787,787,787,787,787,787,787,787,787,787,787,787,787,787,787,787,787,787,787,787,787,787,787,787,787,787,787,787,787,787,787,787,787,787,787,787,787,787,787,787,787,787,787,787,787,787,787,787,787,787,787,787,787,791,794,824,842,859,874,887,899,904,911,921,931,952,959,970,977,980,982,983,985,996,1008,1035,1039,1040,1040,1040,1052,1071,1093],"ymouse":[562,562,562,562,562,562,562,562,562,562,562,562,562,562,562,562,562,562,562,562,562,562,562,562,562,562,562,562,562,562,562,562,562,562,562,562,562,562,562,562,562,562,562,562,562,562,562,562,562,562,562,562,562,562,562,562,562,562,562,562,562,562,562,562,562,562,562,553,545,503,481,462,445,429,408,398,390,379,366,321,300,276,256,241,226,220,213,190,167,128,122,121,121,121,113,105,94],"timestamp_mouse":[8,27,45,66,85,105,127,146,167,185,206,225,246,266,285,306,327,347,366,386,407,425,446,465,486,505,525,546,565,587,606,625,646,665,685,705,726,746,766,786,806,825,845,866,885,906,926,946,966,985,1005,1026,1045,1065,1085,1106,1125,1147,1165,1186,1207,1225,1247,1267,1286,1306,1327,1346,1366,1386,1405,1426,1446,1467,1487,1505,1525,1545,1567,1586,1607,1625,1646,1665,1686,1706,1726,1746,1766,1785,1805,1826,1846,1865,1885,1906,1926],"xSR":741.5,"ySR":501.8,"xT1":424.9,"yT1":0,"xT2":1058.1,"yT2":0,"toosoon":0,"cond_shown":"Incongruent","ratio_trial":300,"L_num":4,"L_den":20,"R_num":2,"R_den":4,"correct_side":2,"subjID":"juanpablocampospuerto30","gender":"0","school":"6","age":"11"},{"start_time":1551794053603,"click_time":1551794055613,"finger_time":1551794055074,"fix_duration":506.53504812275617,"trial":17,"RT":1471,"MT":539,"sideResp":2,"stimulus":[],"xmouse":[807,807,807,807,807,807,807,807,807,807,807,807,807,807,807,807,807,807,807,807,807,807,807,807,807,807,807,807,807,807,807,807,807,807,807,807,807,807,807,807,807,807,807,807,807,807,807,807,807,807,807,807,807,807,807,807,807,807,807,807,807,807,807,807,807,807,807,807,806,806,806,809,814,832,844,858,870,880,899,908,921,937,959,1031,1043,1048,1050,1051,1049,1045,1040,1038,1035,1034,1034,1034,1034,1036,1040,1054,1065],"ymouse":[575,575,575,575,575,575,575,575,575,575,575,575,575,575,575,575,575,575,575,575,575,575,575,575,575,575,575,575,575,575,575,575,575,575,575,575,575,575,575,575,575,575,575,575,575,575,575,575,575,575,575,576,576,576,576,576,576,576,576,576,576,576,576,576,576,576,576,576,573,568,561,550,535,488,465,440,419,402,367,354,339,322,303,237,211,199,189,181,170,162,154,149,144,140,139,136,133,128,120,104,93],"timestamp_mouse":[11,37,52,71,90,110,132,150,171,192,210,230,251,271,290,311,332,350,371,390,411,431,450,470,492,511,530,552,572,590,611,631,652,670,690,712,732,750,771,790,811,830,852,870,892,911,931,951,971,991,1010,1030,1051,1072,1090,1111,1130,1151,1172,1191,1211,1231,1251,1270,1290,1312,1330,1351,1371,1392,1410,1432,1452,1471,1491,1510,1532,1551,1570,1590,1611,1631,1650,1671,1691,1710,1731,1752,1770,1791,1810,1831,1851,1871,1890,1910,1930,1952,1970,1991,2010],"xSR":741.5,"ySR":501.8,"xT1":424.9,"yT1":0,"xT2":1058.1,"yT2":0,"toosoon":0,"cond_shown":"Congruent","ratio_trial":100,"L_num":8,"L_den":16,"R_num":2,"R_den":5,"correct_side":1,"subjID":"juanpablocampospuerto30","gender":"0","school":"6","age":"11"},{"start_time":1551794059748,"click_time":1551794061833,"finger_time":1551794061094,"fix_duration":453.2709325908737,"trial":18,"RT":1346,"MT":739,"sideResp":2,"stimulus":[],"xmouse":[788,788,788,788,788,788,788,788,788,788,788,788,788,788,788,788,788,788,788,788,788,788,788,788,788,788,788,788,788,788,788,788,788,788,788,788,788,788,788,788,788,788,788,788,788,788,788,788,788,788,788,788,788,788,788,788,788,788,788,788,788,788,788,788,788,791,812,829,837,841,841,844,852,864,875,881,884,885,889,896,905,925,934,936,938,941,973,994,1015,1026,1028,1031,1034,1037,1040,1043,1046,1046,1046,1048,1051,1055,1057,1058,1059],"ymouse":[575,575,575,575,575,575,575,575,575,575,575,575,575,575,575,575,575,575,575,575,575,575,575,575,575,575,575,575,575,575,575,575,575,575,575,575,575,575,575,575,575,575,575,575,575,575,575,575,575,575,575,575,575,575,575,575,575,575,575,575,575,575,575,575,571,557,510,479,457,432,405,355,325,302,288,281,276,274,264,251,237,216,208,202,196,186,151,140,132,128,127,126,121,115,106,99,91,90,87,83,81,76,75,73,73],"timestamp_mouse":[10,39,45,66,85,106,127,145,166,186,207,225,245,267,286,306,327,346,366,387,406,425,447,466,485,506,526,546,566,585,606,625,647,665,686,707,726,745,766,787,806,826,845,867,887,906,926,945,967,985,1006,1027,1045,1067,1085,1106,1125,1146,1167,1187,1207,1227,1246,1266,1287,1306,1325,1346,1367,1386,1406,1426,1447,1467,1486,1506,1527,1546,1566,1586,1605,1625,1645,1666,1687,1705,1725,1745,1765,1786,1806,1826,1846,1866,1886,1906,1925,1946,1966,1985,2006,2026,2047,2066,2085],"xSR":741.5,"ySR":501.8,"xT1":424.9,"yT1":0,"xT2":1058.1,"yT2":0,"toosoon":0,"cond_shown":"Incongruent","ratio_trial":300,"L_num":13,"L_den":26,"R_num":12,"R_den":15,"correct_side":2,"subjID":"juanpablocampospuerto30","gender":"0","school":"6","age":"11"},{"start_time":1551794065570,"click_time":1551794067574,"finger_time":1551794066893,"fix_duration":1475.2883589372766,"trial":19,"RT":1323,"MT":681,"sideResp":2,"stimulus":[],"xmouse":[774,774,774,774,774,774,774,774,774,774,774,774,774,774,774,774,774,774,774,774,774,774,774,774,774,774,774,774,774,774,774,774,774,774,774,774,774,774,774,774,774,774,774,774,774,774,774,774,774,774,774,774,774,774,774,774,774,774,774,774,774,774,774,774,776,789,805,831,862,884,908,919,937,955,976,986,989,993,995,996,998,1001,1006,1012,1019,1038,1041,1044,1046,1046,1050,1051,1052,1053,1055,1057,1057,1059,1063,1065,1069],"ymouse":[557,557,557,557,557,557,557,557,557,557,557,557,557,557,557,557,557,557,557,557,557,557,557,557,557,557,557,557,557,557,557,557,557,557,557,557,557,557,557,557,557,557,557,557,557,557,557,557,557,557,557,557,557,557,557,557,557,557,557,557,557,557,557,556,549,521,498,468,439,420,398,384,362,340,308,273,262,255,251,248,237,225,211,197,184,155,148,143,139,135,126,123,120,117,116,113,112,108,105,102,97],"timestamp_mouse":[3,24,44,63,83,103,125,143,163,184,203,225,243,263,284,305,324,343,363,384,403,424,444,463,483,503,523,544,563,583,604,623,643,665,684,705,725,743,763,784,804,825,843,863,884,905,923,944,964,984,1003,1023,1044,1063,1083,1104,1124,1143,1163,1185,1205,1223,1244,1265,1284,1304,1323,1344,1363,1384,1403,1424,1444,1465,1485,1504,1524,1543,1563,1583,1604,1624,1645,1664,1684,1704,1724,1745,1764,1783,1803,1823,1843,1864,1884,1903,1925,1944,1964,1985,2004],"xSR":741.5,"ySR":501.8,"xT1":424.9,"yT1":0,"xT2":1058.1,"yT2":0,"toosoon":0,"cond_shown":"Incongruent","ratio_trial":300,"L_num":4,"L_den":20,"R_num":2,"R_den":4,"correct_side":2,"subjID":"juanpablocampospuerto30","gender":"0","school":"6","age":"11"},{"start_time":1551794068618,"click_time":1551794070415,"finger_time":1551794070154,"fix_duration":264.4225560684502,"trial":20,"RT":1536,"MT":261,"sideResp":2,"stimulus":[],"xmouse":[823,823,823,823,823,823,823,823,823,823,823,823,823,823,823,823,823,823,823,823,823,823,823,823,823,823,823,823,823,823,823,823,823,823,823,823,823,823,823,823,823,823,823,823,823,823,823,823,823,823,823,823,823,823,823,823,823,823,823,823,823,823,823,823,823,822,822,822,821,821,821,821,821,821,821,821,822,833,840,846,850,852,880,905,926,945,967,1020,1060,1099],"ymouse":[552,552,552,552,552,552,552,552,552,552,552,552,552,552,552,552,552,552,552,552,552,552,552,552,552,552,552,552,552,552,552,552,552,552,552,552,552,552,552,552,552,552,552,552,552,552,552,552,552,552,552,552,552,552,552,552,552,552,552,552,552,552,552,552,552,552,550,545,541,539,538,535,531,526,519,510,500,474,465,455,444,429,357,319,290,261,228,151,110,82],"timestamp_mouse":[17,37,55,76,95,117,137,156,176,196,215,237,255,277,296,315,336,356,376,396,417,435,456,477,495,515,536,555,577,597,615,636,655,675,696,715,736,756,776,795,816,835,856,876,896,916,936,955,976,996,1017,1035,1056,1076,1097,1115,1136,1156,1176,1196,1215,1236,1255,1276,1296,1315,1336,1356,1376,1396,1417,1435,1456,1477,1496,1515,1536,1556,1575,1596,1615,1636,1656,1676,1696,1715,1736,1755,1777,1797],"xSR":741.5,"ySR":501.8,"xT1":424.9,"yT1":0,"xT2":1058.1,"yT2":0,"toosoon":0,"cond_shown":"Incongruent","ratio_trial":100,"L_num":9,"L_den":18,"R_num":6,"R_den":10,"correct_side":2,"subjID":"juanpablocampospuerto30","gender":"0","school":"6","age":"11"},{"start_time":1551794071818,"click_time":1551794074074,"finger_time":1551794073334,"fix_duration":443.55933928703985,"trial":21,"RT":1516,"MT":740,"sideResp":1,"stimulus":[],"xmouse":[804,804,804,804,804,804,804,804,804,804,804,804,804,804,804,804,804,804,804,804,804,804,804,804,804,804,804,804,804,804,804,804,804,804,804,804,804,804,804,804,804,804,804,804,804,804,804,804,804,804,804,804,804,804,804,804,804,804,804,804,804,804,804,804,804,804,804,804,804,804,804,804,801,799,799,797,793,775,761,744,734,697,669,659,654,649,643,639,634,628,615,605,596,586,574,559,544,528,521,517,511,500,494,479,477,475,474,473,472,472,472,472,472],"ymouse":[527,527,527,527,527,527,527,527,527,527,527,527,527,527,527,527,527,527,527,527,527,527,527,527,527,527,527,527,527,527,527,527,527,527,527,527,527,527,527,527,527,527,527,527,527,527,527,527,527,527,527,527,527,527,527,527,527,527,527,527,527,527,527,527,527,527,527,527,527,527,527,527,520,510,504,498,490,474,451,420,395,298,250,243,242,242,244,246,245,241,236,233,229,223,215,204,196,182,175,170,163,152,148,140,140,139,137,133,130,124,115,100,85],"timestamp_mouse":[17,35,56,76,96,115,135,157,176,197,216,236,255,276,296,316,335,356,376,396,415,436,455,475,496,516,535,555,575,596,615,636,656,675,695,716,736,755,775,796,816,835,855,875,896,915,936,956,976,995,1015,1036,1057,1076,1095,1116,1137,1156,1175,1195,1216,1235,1255,1275,1296,1317,1336,1355,1376,1397,1416,1436,1456,1475,1495,1516,1536,1556,1576,1597,1616,1637,1655,1675,1695,1716,1736,1756,1776,1796,1815,1835,1855,1877,1896,1917,1937,1956,1976,1997,2016,2036,2055,2075,2096,2116,2136,2156,2175,2197,2216,2236,2256],"xSR":741.5,"ySR":501.8,"xT1":424.9,"yT1":0,"xT2":1058.1,"yT2":0,"toosoon":0,"cond_shown":"Congruent","ratio_trial":100,"L_num":15,"L_den":25,"R_num":13,"R_den":26,"correct_side":1,"subjID":"juanpablocampospuerto30","gender":"0","school":"6","age":"11"},{"start_time":1551794075921,"click_time":1551794078274,"finger_time":1551794077234,"fix_duration":1026.8581131190947,"trial":22,"RT":1313,"MT":1040,"sideResp":2,"stimulus":[],"xmouse":[822,822,822,822,822,822,822,822,822,822,822,822,822,822,822,822,822,822,822,822,822,822,822,822,822,822,822,822,822,822,822,822,822,822,822,822,822,821,821,821,820,820,820,820,820,820,820,820,820,820,820,820,820,820,820,820,820,820,820,820,820,820,820,820,820,820,820,822,822,822,822,822,828,829,829,829,833,866,884,902,918,937,970,983,991,996,998,1003,1007,1011,1013,1016,1019,1019,1020,1021,1021,1024,1026,1029,1031,1031,1034,1042,1045,1047,1049,1053,1054,1055,1056,1057,1057,1057,1057,1057,1057,1061],"ymouse":[532,532,528,527,527,527,526,526,526,526,526,526,526,526,526,526,526,526,526,526,526,526,526,526,526,526,526,526,526,526,526,526,526,526,526,526,526,524,523,521,520,520,520,520,520,520,520,520,520,520,520,520,520,520,520,520,520,520,520,520,520,520,520,516,512,498,486,461,454,440,428,412,391,389,389,387,381,349,338,324,313,301,281,273,266,262,259,240,231,224,217,207,189,180,170,163,157,137,129,121,114,107,97,77,69,64,59,45,40,37,34,32,32,32,32,32,32,32],"timestamp_mouse":[13,34,53,73,92,112,133,152,173,193,212,232,253,272,293,313,334,352,372,393,413,433,454,472,492,512,533,553,572,592,614,634,652,673,693,714,733,752,772,793,813,833,852,872,892,913,933,954,972,993,1012,1033,1053,1072,1093,1114,1132,1152,1173,1192,1213,1233,1253,1272,1292,1313,1334,1354,1373,1393,1413,1433,1452,1473,1493,1513,1533,1553,1573,1593,1613,1633,1653,1673,1693,1713,1733,1753,1773,1793,1814,1834,1853,1873,1893,1912,1932,1952,1974,1994,2012,2033,2052,2073,2092,2112,2134,2153,2172,2192,2213,2233,2253,2273,2292,2313,2332,2353],"xSR":741.5,"ySR":501.8,"xT1":424.9,"yT1":0,"xT2":1058.1,"yT2":0,"toosoon":0,"cond_shown":"Incongruent","ratio_trial":300,"L_num":4,"L_den":20,"R_num":2,"R_den":4,"correct_side":2,"subjID":"juanpablocampospuerto30","gender":"0","school":"6","age":"11"},{"start_time":1551794081798,"click_time":1551794083894,"finger_time":1551794083474,"fix_duration":1302.5588383955078,"trial":23,"RT":1676,"MT":420,"sideResp":2,"stimulus":[],"xmouse":[782,782,782,782,782,782,782,782,782,782,782,782,782,782,782,782,782,782,782,782,782,782,782,782,782,782,782,782,782,782,782,782,782,782,782,782,782,782,782,782,782,782,782,782,782,782,782,782,782,782,782,782,782,782,782,782,782,782,782,782,782,782,782,782,782,782,782,782,782,782,782,782,782,782,782,782,782,782,782,782,782,782,788,812,824,830,840,848,854,860,866,880,896,931,941,945,947,950,958,969,988,1014,1049,1057,1059],"ymouse":[582,582,582,582,582,582,582,582,582,582,582,582,582,582,582,582,582,582,582,582,582,582,582,582,582,582,582,582,582,582,582,582,582,582,582,582,582,582,582,582,582,582,582,582,582,582,582,582,582,582,582,582,582,582,582,582,582,582,582,582,582,582,582,582,582,582,582,582,582,582,582,582,582,582,582,582,582,582,582,582,578,564,542,488,465,447,428,403,347,318,290,238,198,123,105,96,91,87,85,86,89,90,86,83,82],"timestamp_mouse":[15,35,55,76,95,115,136,157,175,196,216,235,256,277,296,316,337,357,376,395,415,436,457,475,495,517,537,555,575,595,616,636,656,675,695,715,735,756,775,796,816,835,855,875,896,915,936,955,975,996,1016,1037,1056,1077,1096,1116,1136,1155,1175,1196,1216,1236,1256,1277,1296,1316,1337,1357,1377,1395,1415,1436,1456,1476,1496,1517,1536,1556,1575,1596,1615,1637,1657,1676,1696,1716,1736,1756,1776,1796,1816,1836,1857,1875,1895,1916,1937,1956,1975,1995,2016,2036,2057,2076,2096],"xSR":741.5,"ySR":501.8,"xT1":424.9,"yT1":0,"xT2":1058.1,"yT2":0,"toosoon":0,"cond_shown":"Incongruent","ratio_trial":200,"L_num":14,"L_den":30,"R_num":12,"R_den":18,"correct_side":2,"subjID":"juanpablocampospuerto30","gender":"0","school":"6","age":"11"},{"start_time":1551794085085,"click_time":1551794087495,"finger_time":1551794086735,"fix_duration":250,"trial":24,"RT":1650,"MT":760,"sideResp":2,"stimulus":[],"xmouse":[807,807,807,807,807,807,807,807,807,807,807,807,807,807,807,807,807,807,807,807,807,807,807,807,807,807,807,807,807,807,807,807,807,807,807,807,807,807,807,807,807,807,807,807,807,807,807,807,807,807,807,807,807,807,807,807,807,807,807,807,807,807,807,807,807,807,807,807,807,807,807,807,807,807,807,807,807,807,806,807,811,815,821,828,852,863,871,876,882,883,883,885,888,896,921,929,934,936,937,949,955,961,970,978,986,990,994,996,1000,1011,1016,1020,1026,1029,1031,1033,1036,1043,1051,1058,1059],"ymouse":[545,545,545,545,545,545,545,545,545,545,545,545,545,545,545,545,545,545,545,545,545,545,545,545,545,545,545,545,545,545,545,545,545,545,545,545,545,545,545,545,545,545,545,545,545,545,545,545,545,545,545,545,545,545,545,545,545,545,545,545,545,545,545,545,545,545,545,545,545,545,545,545,545,545,545,545,545,545,545,535,525,509,487,465,419,403,391,382,373,369,369,368,365,356,335,327,323,318,312,287,273,256,236,214,184,173,166,161,155,140,134,130,124,121,118,115,112,104,98,83,79],"timestamp_mouse":[9,30,49,68,89,109,130,149,170,190,209,230,249,270,290,309,329,349,370,389,410,429,448,468,489,509,528,550,569,589,608,629,649,669,689,709,728,749,769,789,809,830,850,868,889,908,930,949,970,989,1010,1028,1049,1069,1088,1108,1128,1148,1168,1189,1208,1228,1249,1269,1290,1309,1329,1349,1368,1390,1408,1428,1449,1469,1489,1509,1528,1548,1568,1588,1608,1629,1650,1669,1689,1709,1729,1748,1770,1789,1809,1829,1849,1868,1889,1908,1929,1949,1970,1989,2010,2030,2049,2069,2090,2108,2130,2150,2169,2189,2209,2229,2249,2269,2288,2309,2329,2349,2370,2389,2410],"xSR":741.5,"ySR":501.8,"xT1":424.9,"yT1":0,"xT2":1058.1,"yT2":0,"toosoon":0,"cond_shown":"Congruent","ratio_trial":300,"L_num":2,"L_den":20,"R_num":10,"R_den":25,"correct_side":2,"subjID":"juanpablocampospuerto30","gender":"0","school":"6","age":"11"},{"start_time":1551794089199,"click_time":1551794091515,"finger_time":1551794090574,"fix_duration":543.7001465058688,"trial":25,"RT":1375,"MT":941,"sideResp":2,"stimulus":[],"xmouse":[799,799,799,799,799,799,799,799,799,799,799,799,799,799,799,799,799,799,799,799,799,799,799,799,799,799,799,799,799,799,799,799,799,799,799,799,799,799,799,799,799,799,799,799,799,799,799,799,799,799,799,799,799,799,799,799,799,799,799,799,799,799,799,797,792,779,765,753,732,720,704,685,668,630,620,614,609,604,596,595,593,589,577,524,508,500,497,496,496,496,496,498,498,500,501,502,504,505,520,537,561,596,637,710,724,735,746,761,789,803,816,825,853,967,1032,1079],"ymouse":[546,546,546,546,546,546,546,546,546,546,546,546,546,546,546,546,546,546,546,546,546,546,546,546,546,546,546,546,546,546,546,546,546,546,546,546,546,546,546,546,546,546,546,546,546,546,546,546,546,546,546,546,546,546,546,546,546,546,546,546,546,546,546,546,546,538,521,502,465,446,429,411,396,360,347,334,321,303,275,265,256,243,224,165,158,154,153,152,149,147,144,143,142,141,140,140,139,139,139,139,144,149,154,157,155,150,143,136,126,122,119,116,111,96,88,79],"timestamp_mouse":[15,35,55,74,95,116,134,156,174,195,215,235,256,276,294,314,335,356,374,394,414,435,455,474,494,514,534,555,574,596,615,635,654,676,694,715,735,754,775,794,815,835,856,874,896,915,935,956,974,995,1014,1035,1054,1074,1095,1115,1135,1155,1175,1195,1214,1234,1254,1276,1295,1315,1335,1355,1375,1395,1415,1436,1456,1475,1495,1515,1534,1556,1574,1595,1614,1635,1655,1675,1695,1715,1734,1754,1774,1794,1814,1835,1855,1875,1896,1915,1935,1956,1975,1994,2015,2035,2056,2075,2095,2116,2134,2154,2174,2194,2215,2234,2256,2275,2295,2316],"xSR":741.5,"ySR":501.8,"xT1":424.9,"yT1":0,"xT2":1058.1,"yT2":0,"toosoon":0,"cond_shown":"Congruent","ratio_trial":300,"L_num":1,"L_den":3,"R_num":19,"R_den":30,"correct_side":2,"subjID":"juanpablocampospuerto30","gender":"0","school":"6","age":"11"},{"start_time":1551794092764,"click_time":1551794095935,"finger_time":1551794094714,"fix_duration":250,"trial":26,"RT":1950,"MT":1221,"sideResp":2,"stimulus":[],"xmouse":[826,826,826,826,826,826,826,826,826,826,826,826,826,826,826,826,826,826,826,826,826,826,826,826,826,826,826,826,826,826,826,826,826,826,826,826,826,826,826,826,826,826,826,826,826,826,826,826,826,826,826,826,826,826,826,826,826,826,826,826,826,826,826,826,826,826,826,826,826,826,826,826,826,826,826,826,826,826,826,826,826,826,826,826,826,826,826,826,826,826,826,826,822,817,802,757,742,736,734,734,732,730,729,729,729,729,729,729,729,729,729,729,729,729,729,729,730,731,731,731,731,732,732,734,734,737,737,737,737,737,737,738,738,738,738,762,793,827,855,883,924,954,991,1021,1036,1042,1042,1042,1042,1042,1044,1045,1045,1045,1046,1051,1054,1057,1059],"ymouse":[548,548,548,548,548,548,548,548,548,548,548,548,548,548,548,548,548,548,548,548,548,548,548,548,548,548,548,548,548,548,548,548,548,548,548,548,548,548,548,548,548,548,548,548,548,548,548,548,548,548,548,548,548,548,548,548,548,548,548,548,548,548,548,548,548,548,548,548,548,548,548,548,548,548,548,548,548,548,548,548,548,548,548,548,548,548,548,548,548,548,548,548,548,546,542,534,532,530,529,528,517,512,508,505,504,504,504,504,504,504,504,504,504,504,504,502,501,501,500,500,500,499,499,498,498,496,496,496,496,496,496,495,495,490,485,446,404,361,335,314,281,254,222,197,184,161,150,142,136,130,120,114,109,104,96,85,81,78,75],"timestamp_mouse":[9,31,50,69,90,109,130,149,169,190,210,231,251,271,290,309,331,350,369,390,410,431,449,470,490,509,531,550,569,591,610,629,650,670,690,709,730,750,769,789,810,830,850,869,890,910,929,951,970,989,1009,1029,1049,1070,1091,1110,1130,1150,1169,1190,1209,1230,1251,1269,1289,1310,1330,1350,1369,1390,1410,1431,1450,1469,1489,1509,1530,1549,1569,1589,1609,1630,1649,1670,1690,1709,1730,1750,1770,1789,1810,1829,1850,1870,1890,1910,1930,1950,1971,1991,2009,2029,2049,2070,2089,2109,2130,2150,2170,2191,2210,2231,2249,2269,2290,2310,2329,2350,2370,2391,2410,2429,2450,2469,2491,2510,2530,2549,2569,2590,2610,2630,2649,2670,2689,2710,2729,2749,2771,2789,2809,2831,2850,2871,2891,2909,2930,2950,2970,2991,3009,3030,3049,3071,3090,3109,3130,3150,3171],"xSR":741.5,"ySR":501.8,"xT1":424.9,"yT1":0,"xT2":1058.1,"yT2":0,"toosoon":0,"cond_shown":"Incongruent","ratio_trial":100,"L_num":6,"L_den":10,"R_num":13,"R_den":26,"correct_side":1,"subjID":"juanpablocampospuerto30","gender":"0","school":"6","age":"11"},{"start_time":1551794098165,"click_time":1551794100553,"finger_time":1551794098274,"fix_duration":671.6462666268823,"trial":27,"RT":109,"MT":2279,"sideResp":1,"stimulus":[],"xmouse":[762,762,762,758,747,737,736,736,736,736,736,736,736,736,736,736,736,736,736,736,736,736,736,736,736,736,736,736,736,743,779,801,823,840,849,851,851,851,851,851,851,846,841,832,822,801,797,795,794,794,794,794,793,793,793,793,791,785,780,774,765,756,746,739,734,731,731,731,731,731,731,731,731,731,731,731,731,730,730,729,726,726,726,726,725,725,725,725,723,714,703,638,583,531,477,435,415,393,377,366,355,355,355,355,355,355,355,357,365,375,412,429,439,442,444,446,446,447,448,451],"ymouse":[590,590,590,587,578,571,569,569,569,569,569,569,570,570,570,570,570,570,570,570,570,570,570,570,570,570,570,570,571,574,574,574,574,574,573,573,573,573,573,573,573,573,574,578,582,588,589,589,589,588,588,588,588,588,588,588,588,588,587,585,577,570,564,559,555,553,553,553,553,553,553,553,553,553,553,553,553,552,552,551,549,549,548,548,548,548,548,547,545,540,533,489,447,388,302,224,185,145,112,92,74,71,70,70,70,70,70,75,82,90,105,108,108,108,108,107,106,105,102,97],"timestamp_mouse":[13,28,49,70,89,109,129,148,168,189,209,230,248,270,290,309,329,348,369,389,408,428,448,468,488,509,530,550,568,588,608,629,649,669,689,709,729,748,770,789,809,828,849,870,890,909,928,949,969,988,1008,1029,1049,1069,1088,1108,1129,1149,1169,1190,1208,1230,1249,1268,1289,1308,1328,1348,1369,1389,1408,1430,1449,1468,1488,1508,1529,1549,1568,1589,1608,1630,1649,1668,1689,1708,1728,1749,1769,1789,1808,1829,1850,1870,1889,1909,1928,1949,1969,1988,2008,2029,2049,2070,2089,2109,2130,2148,2169,2189,2209,2229,2250,2269,2288,2309,2329,2349,2369,2388],"xSR":741.5,"ySR":501.8,"xT1":424.9,"yT1":0,"xT2":1058.1,"yT2":0,"toosoon":0,"cond_shown":"Congruent","ratio_trial":300,"L_num":1,"L_den":5,"R_num":11,"R_den":22,"correct_side":2,"subjID":"juanpablocampospuerto30","gender":"0","school":"6","age":"11"},{"start_time":1551794104324,"click_time":1551794106373,"finger_time":1551794105755,"fix_duration":628.0899367534337,"trial":28,"RT":1431,"MT":618,"sideResp":2,"stimulus":[],"xmouse":[765,765,765,765,765,765,765,765,765,765,765,765,765,765,765,765,765,765,765,765,765,765,765,765,765,765,765,765,765,765,765,765,765,765,765,765,765,765,765,765,765,765,765,765,765,765,765,765,765,765,765,765,765,765,765,765,765,765,765,765,765,765,765,765,765,765,769,782,785,786,793,801,821,828,836,843,853,871,880,892,900,911,938,954,965,975,979,984,985,987,992,995,1005,1010,1021,1038,1063,1079,1080,1086,1094,1101,1109],"ymouse":[544,544,544,544,544,544,544,544,544,544,544,544,544,544,544,544,544,544,544,544,544,544,544,544,544,544,544,544,544,544,544,544,544,544,544,544,544,544,544,544,544,544,544,544,544,544,544,544,544,544,544,544,544,544,544,544,544,544,544,544,544,544,544,544,544,543,539,525,522,520,511,500,476,465,451,437,420,392,378,364,352,338,299,266,225,182,158,145,144,143,141,140,135,134,131,127,120,116,115,113,107,103,97],"timestamp_mouse":[10,30,49,69,89,111,129,149,171,190,210,229,249,269,289,309,330,349,371,390,409,430,449,470,490,511,531,549,570,589,609,630,649,669,689,711,730,749,771,789,810,829,849,871,890,909,930,950,969,990,1011,1031,1049,1070,1089,1111,1130,1150,1169,1190,1210,1229,1250,1269,1290,1309,1329,1350,1370,1390,1410,1431,1449,1470,1491,1510,1529,1550,1569,1590,1610,1630,1649,1670,1690,1709,1731,1751,1770,1790,1810,1829,1849,1870,1889,1909,1930,1949,1969,1989,2009,2029,2049],"xSR":741.5,"ySR":501.8,"xT1":424.9,"yT1":0,"xT2":1058.1,"yT2":0,"toosoon":0,"cond_shown":"Incongruent","ratio_trial":100,"L_num":8,"L_den":16,"R_num":6,"R_den":10,"correct_side":2,"subjID":"juanpablocampospuerto30","gender":"0","school":"6","age":"11"},{"start_time":1551794107639,"click_time":1551794109773,"finger_time":1551794109094,"fix_duration":283.2117243144864,"trial":29,"RT":1455,"MT":679,"sideResp":2,"stimulus":[],"xmouse":[806,806,806,806,806,806,806,806,806,806,806,806,806,806,806,806,806,806,806,806,806,806,806,806,806,806,806,806,806,806,806,806,806,806,806,806,806,806,806,806,806,806,806,806,806,806,806,806,806,806,806,806,806,806,806,806,806,806,806,806,806,806,806,806,806,806,806,807,808,810,812,837,877,936,992,1019,1045,1047,1049,1051,1058,1084,1099,1110,1121,1127,1132,1133,1134,1135,1136,1141,1143,1143,1144,1147,1148,1149,1150,1151,1151,1152,1152,1152,1153,1153,1153],"ymouse":[551,551,551,551,551,551,551,551,551,551,551,551,551,551,551,551,551,551,551,551,551,551,551,551,551,551,551,551,551,551,551,551,551,551,551,551,551,551,551,551,551,551,551,551,551,551,551,551,551,551,551,551,551,551,551,551,551,551,551,551,551,551,551,551,551,551,551,551,551,549,548,526,495,457,425,407,387,381,376,367,354,316,296,282,268,259,244,239,235,228,218,180,167,156,147,136,125,122,117,115,114,112,112,112,110,107,99],"timestamp_mouse":[15,34,54,74,94,114,134,154,174,194,214,234,254,274,294,314,334,354,374,394,414,434,454,474,494,514,534,554,574,594,614,634,654,674,694,714,734,754,774,794,814,834,854,876,896,916,935,955,975,995,1016,1035,1055,1075,1095,1115,1135,1155,1175,1195,1215,1235,1255,1275,1295,1315,1335,1356,1376,1396,1415,1436,1455,1476,1496,1514,1534,1555,1574,1594,1615,1634,1655,1675,1694,1714,1734,1755,1774,1794,1814,1834,1854,1875,1895,1914,1934,1954,1974,1995,2014,2034,2054,2075,2094,2114,2134],"xSR":741.5,"ySR":501.8,"xT1":424.9,"yT1":0,"xT2":1058.1,"yT2":0,"toosoon":0,"cond_shown":"Congruent","ratio_trial":100,"L_num":11,"L_den":22,"R_num":4,"R_den":10,"correct_side":1,"subjID":"juanpablocampospuerto30","gender":"0","school":"6","age":"11"},{"start_time":1551794112571,"click_time":1551794114334,"finger_time":1551794113955,"fix_duration":656.4587061944004,"trial":30,"RT":1384,"MT":379,"sideResp":2,"stimulus":[],"xmouse":[797,797,797,797,797,797,797,797,797,797,797,797,797,797,797,797,797,797,797,797,797,797,797,797,797,797,797,797,797,797,797,797,797,797,797,797,797,797,797,797,797,797,797,797,797,797,797,797,797,793,778,769,763,753,743,743,743,743,743,743,743,743,743,743,743,753,774,797,818,833,840,841,848,866,888,948,964,975,984,990,1001,1007,1012,1016,1019,1025,1035,1051,1067],"ymouse":[560,560,560,560,560,560,560,560,560,560,560,560,560,560,560,560,560,560,560,560,560,560,560,560,560,560,560,560,560,560,560,560,560,560,560,560,560,560,560,560,560,560,560,560,560,560,560,560,560,560,560,560,560,558,557,557,557,557,557,557,557,557,557,557,557,552,541,528,511,496,468,455,432,390,341,238,215,198,183,173,159,152,145,136,128,105,90,72,54],"timestamp_mouse":[3,25,43,63,83,102,122,143,164,182,202,224,242,263,282,303,322,344,363,382,402,422,443,462,483,504,523,542,562,582,602,622,643,662,683,702,722,743,762,783,802,822,843,863,883,902,922,942,962,982,1002,1022,1042,1062,1082,1103,1123,1142,1163,1184,1203,1222,1243,1264,1282,1302,1322,1343,1363,1384,1403,1422,1442,1462,1484,1502,1524,1543,1564,1583,1603,1622,1643,1664,1683,1702,1723,1743,1763],"xSR":741.5,"ySR":501.8,"xT1":424.9,"yT1":0,"xT2":1058.1,"yT2":0,"toosoon":0,"cond_shown":"Incongruent","ratio_trial":100,"L_num":11,"L_den":22,"R_num":9,"R_den":15,"correct_side":2,"subjID":"juanpablocampospuerto30","gender":"0","school":"6","age":"11"},{"start_time":1551794116341,"click_time":1551794118613,"finger_time":1551794117673,"fix_duration":1165.591930059139,"trial":31,"RT":1332,"MT":940,"sideResp":2,"stimulus":[],"xmouse":[809,809,809,809,809,809,809,809,809,809,809,809,809,809,809,809,809,809,809,809,809,809,809,809,809,809,809,809,809,809,809,809,809,809,809,809,809,809,809,809,809,809,809,809,809,809,809,809,809,809,809,809,809,809,809,809,809,809,809,809,809,809,809,809,815,824,837,863,876,890,902,920,925,928,929,930,937,939,945,951,956,969,974,978,981,982,985,986,987,989,992,997,999,1001,1005,1017,1028,1032,1034,1035,1039,1047,1051,1056,1057,1058,1059,1059,1061,1062,1064,1065,1067,1068],"ymouse":[530,530,530,530,530,530,530,530,530,530,530,530,530,530,530,530,530,530,530,530,530,530,530,530,530,530,530,530,530,530,530,530,530,530,530,530,530,530,530,530,530,530,530,530,530,530,530,530,530,530,530,530,530,530,530,530,530,530,530,530,530,530,530,530,521,504,480,435,408,375,339,289,277,270,267,264,255,252,247,243,240,229,224,219,213,209,198,190,184,178,172,163,160,156,151,142,134,131,129,128,126,123,122,119,119,118,117,116,113,112,108,104,102,99],"timestamp_mouse":[13,34,53,72,92,112,132,152,172,192,212,232,252,272,292,312,332,352,372,392,412,432,452,472,492,512,532,552,572,592,612,632,652,672,692,712,732,752,772,792,812,832,852,872,892,912,932,952,972,993,1014,1034,1053,1072,1093,1112,1133,1152,1172,1192,1212,1233,1254,1274,1292,1312,1332,1354,1374,1394,1413,1432,1452,1472,1493,1512,1533,1552,1573,1592,1613,1633,1652,1673,1693,1713,1733,1752,1772,1793,1813,1833,1853,1873,1894,1913,1933,1953,1972,1993,2013,2033,2052,2072,2093,2112,2133,2152,2173,2192,2213,2232,2252,2272],"xSR":741.5,"ySR":501.8,"xT1":424.9,"yT1":0,"xT2":1058.1,"yT2":0,"toosoon":0,"cond_shown":"Incongruent","ratio_trial":100,"L_num":6,"L_den":12,"R_num":3,"R_den":5,"correct_side":2,"subjID":"juanpablocampospuerto30","gender":"0","school":"6","age":"11"},{"start_time":1551794120213,"click_time":1551794122294,"finger_time":1551794121535,"fix_duration":998.5723098737593,"trial":32,"RT":1322,"MT":759,"sideResp":1,"stimulus":[],"xmouse":[766,766,766,766,766,766,766,766,766,766,766,766,766,766,766,766,766,766,766,766,766,766,766,766,766,766,766,766,766,766,766,766,766,766,766,766,766,766,766,766,766,766,766,766,766,766,766,766,766,766,766,766,766,766,766,767,768,768,768,768,768,768,768,768,760,743,714,690,658,647,636,625,617,615,615,615,615,615,616,616,615,607,593,570,564,562,560,556,541,533,527,523,520,516,517,520,520,520,520,520,520,520,520,520,520],"ymouse":[552,552,552,552,552,552,551,551,551,551,551,551,551,551,551,551,551,551,551,551,551,551,551,551,551,551,551,551,551,551,551,551,551,551,551,551,551,551,551,551,551,551,551,551,551,551,551,551,551,551,551,551,551,551,551,551,553,555,556,556,556,556,556,556,545,524,495,477,449,431,406,380,353,343,343,342,340,337,330,321,313,301,286,271,267,265,261,258,244,238,231,223,213,172,153,135,123,118,112,110,107,106,106,100,96],"timestamp_mouse":[3,21,42,60,80,100,122,141,161,180,201,220,241,261,282,302,320,341,360,381,400,420,440,461,482,500,520,540,560,582,600,620,642,660,681,701,720,742,761,782,801,821,840,860,880,900,922,940,961,980,1000,1020,1041,1061,1082,1101,1121,1142,1160,1180,1202,1221,1240,1261,1281,1301,1322,1341,1361,1380,1401,1421,1440,1461,1481,1501,1520,1541,1561,1581,1601,1621,1642,1661,1681,1701,1720,1740,1760,1781,1800,1821,1842,1860,1881,1900,1921,1940,1960,1981,2001,2021,2041,2060,2081],"xSR":741.5,"ySR":501.8,"xT1":424.9,"yT1":0,"xT2":1058.1,"yT2":0,"toosoon":0,"cond_shown":"Congruent","ratio_trial":100,"L_num":2,"L_den":5,"R_num":6,"R_den":12,"correct_side":2,"subjID":"juanpablocampospuerto30","gender":"0","school":"6","age":"11"},{"start_time":1551794124409,"click_time":1551794126234,"finger_time":1551794125734,"fix_duration":1175.6768777170741,"trial":33,"RT":1325,"MT":500,"sideResp":2,"stimulus":[],"xmouse":[785,785,785,785,785,785,785,785,785,785,785,785,785,785,785,785,785,785,785,785,785,785,785,785,785,785,785,785,785,785,785,785,785,785,785,785,785,785,785,785,785,785,785,785,785,785,785,785,785,785,785,785,785,785,785,785,785,785,785,785,785,785,786,800,813,826,834,837,857,870,894,916,933,964,973,983,992,1000,1027,1043,1058,1071,1080,1085,1085,1085,1086,1088,1092,1093,1094,1097],"ymouse":[553,553,553,553,553,553,553,553,553,553,553,553,553,553,553,553,553,553,553,553,553,553,553,553,553,553,553,553,553,553,553,553,553,553,553,553,553,553,553,553,553,553,553,553,553,553,553,553,553,553,553,553,553,553,553,553,553,553,553,553,553,553,553,540,527,511,497,488,447,424,394,371,351,319,310,302,294,284,254,239,225,213,200,190,186,183,179,173,148,130,109,89],"timestamp_mouse":[4,24,44,65,85,104,125,145,165,184,205,225,245,264,284,305,324,345,365,385,405,424,444,466,485,504,525,544,565,585,606,625,645,665,684,704,725,745,765,784,805,826,845,866,885,905,924,944,964,984,1004,1024,1044,1064,1085,1105,1125,1146,1166,1184,1204,1226,1244,1264,1286,1305,1325,1346,1365,1384,1404,1425,1445,1465,1485,1505,1526,1546,1566,1585,1604,1625,1644,1665,1685,1705,1725,1745,1765,1784,1804,1825],"xSR":741.5,"ySR":501.8,"xT1":424.9,"yT1":0,"xT2":1058.1,"yT2":0,"toosoon":0,"cond_shown":"Incongruent","ratio_trial":300,"L_num":13,"L_den":26,"R_num":12,"R_den":15,"correct_side":2,"subjID":"juanpablocampospuerto30","gender":"0","school":"6","age":"11"},{"start_time":1551794127425,"click_time":1551794129274,"finger_time":1551794128774,"fix_duration":250,"trial":34,"RT":1349,"MT":500,"sideResp":1,"stimulus":[],"xmouse":[830,830,830,830,830,830,830,830,830,830,830,830,830,830,830,830,830,830,830,830,830,830,830,830,830,830,830,830,830,830,830,830,830,830,830,830,830,830,830,830,830,830,830,830,830,830,830,830,830,830,830,830,830,830,830,830,830,830,830,830,830,830,830,828,820,810,793,745,709,659,591,488,436,433,433,431,430,426,425,425,425,425,425,426,429,430,433,437,440,442,445,447,457],"ymouse":[557,557,557,557,557,557,557,557,557,557,557,557,557,557,557,557,557,557,557,557,557,557,557,557,557,557,557,557,557,557,557,557,557,557,557,557,557,557,557,557,557,557,557,557,557,557,557,557,557,557,557,557,557,557,557,557,557,557,557,557,557,557,557,557,550,539,525,486,451,399,334,252,205,195,189,183,179,165,158,152,147,144,135,130,124,121,117,113,109,106,103,102,93],"timestamp_mouse":[10,28,48,69,88,108,129,148,168,188,208,229,249,268,288,309,328,350,368,388,408,428,449,470,489,508,528,548,569,589,609,629,649,670,688,710,729,749,768,788,808,828,849,869,889,909,928,949,968,988,1009,1029,1050,1068,1088,1109,1128,1149,1168,1189,1208,1228,1249,1270,1289,1310,1329,1349,1368,1389,1409,1428,1448,1469,1490,1509,1528,1548,1569,1589,1609,1628,1649,1669,1689,1710,1730,1749,1769,1789,1809,1829,1849],"xSR":741.5,"ySR":501.8,"xT1":424.9,"yT1":0,"xT2":1058.1,"yT2":0,"toosoon":0,"cond_shown":"Congruent","ratio_trial":300,"L_num":11,"L_den":22,"R_num":2,"R_den":10,"correct_side":1,"subjID":"juanpablocampospuerto30","gender":"0","school":"6","age":"11"},{"start_time":1551794130685,"click_time":1551794133253,"finger_time":1551794132673,"fix_duration":250,"trial":35,"RT":1988,"MT":580,"sideResp":2,"stimulus":[],"xmouse":[763,763,763,763,763,763,763,763,763,763,763,763,763,763,763,763,763,763,763,763,763,763,763,763,763,763,763,763,763,763,763,763,763,763,763,763,763,763,763,763,763,763,763,763,763,763,763,763,763,763,763,763,763,763,763,763,763,763,763,763,763,763,763,763,763,763,763,763,763,763,763,763,763,763,763,763,763,763,763,763,763,763,763,763,763,763,763,763,763,763,763,766,773,781,791,793,794,796,800,839,864,897,931,972,1025,1036,1039,1039,1039,1039,1039,1039,1041,1043,1053,1062,1069,1070,1071,1072,1072,1072,1073,1073,1075,1075,1076,1076,1076],"ymouse":[551,551,551,551,551,551,551,551,551,551,551,551,551,551,551,551,551,551,551,551,551,551,551,551,551,551,551,551,551,551,551,551,551,551,551,551,551,551,551,551,551,551,551,551,551,551,551,551,551,551,551,551,551,551,551,551,551,551,551,551,551,551,551,551,551,551,551,551,551,551,551,551,551,551,551,551,551,551,551,551,551,551,551,551,551,551,551,551,551,551,551,548,543,537,529,526,525,522,517,485,468,444,417,379,330,321,318,318,317,293,273,248,221,196,162,149,136,132,129,126,124,123,121,119,113,110,106,101,95],"timestamp_mouse":[9,28,48,68,88,109,129,149,169,189,209,229,249,269,289,309,328,348,369,389,410,429,448,469,488,510,529,549,569,588,609,630,648,669,689,709,728,748,769,790,808,828,848,869,888,908,928,948,968,989,1009,1029,1049,1069,1088,1108,1128,1148,1169,1188,1208,1228,1249,1268,1289,1309,1328,1348,1368,1390,1409,1429,1448,1468,1489,1508,1529,1549,1570,1589,1608,1629,1648,1668,1690,1710,1729,1748,1768,1790,1810,1830,1849,1869,1888,1909,1929,1949,1969,1988,2008,2030,2049,2068,2088,2109,2128,2150,2170,2189,2208,2228,2248,2269,2289,2309,2328,2348,2368,2389,2409,2428,2448,2468,2488,2509,2529,2548,2568],"xSR":741.5,"ySR":501.8,"xT1":424.9,"yT1":0,"xT2":1058.1,"yT2":0,"toosoon":0,"cond_shown":"Congruent","ratio_trial":100,"L_num":15,"L_den":25,"R_num":13,"R_den":26,"correct_side":1,"subjID":"juanpablocampospuerto30","gender":"0","school":"6","age":"11"},{"start_time":1551794137932,"click_time":1551794140254,"finger_time":1551794139353,"fix_duration":1317.7995147002937,"trial":36,"RT":1421,"MT":901,"sideResp":1,"stimulus":[],"xmouse":[802,802,802,802,802,802,802,800,800,799,798,798,798,798,798,798,798,798,798,798,798,798,798,798,798,798,798,798,798,798,798,798,798,798,798,798,798,798,798,798,798,798,798,798,798,798,798,798,798,798,798,798,798,798,798,798,798,798,798,798,798,798,798,798,798,798,798,797,790,779,768,745,672,637,616,593,586,574,573,573,571,567,553,539,516,486,458,412,405,400,396,393,392,391,391,393,395,396,396,396,396,394,381,374,372,372,372,373,382,392,403,413,422,424,424,424,425],"ymouse":[531,531,531,531,531,531,531,532,534,536,537,537,537,537,537,537,537,537,537,537,537,537,537,537,537,537,537,537,537,537,537,537,537,537,537,537,537,537,537,537,537,537,537,537,537,537,537,537,537,537,537,537,537,537,537,537,537,537,537,537,537,537,537,537,537,537,537,537,533,524,514,493,437,415,404,391,387,377,373,366,357,348,327,314,295,277,261,238,230,225,219,212,205,192,187,180,173,164,163,161,157,146,101,78,54,34,21,20,17,14,13,15,19,20,20,20,20],"timestamp_mouse":[3,22,42,63,82,101,122,143,163,183,203,221,242,262,283,301,322,342,363,381,402,422,441,461,481,501,523,542,561,581,602,623,643,661,681,702,722,742,762,781,802,821,842,861,882,902,921,941,962,981,1002,1021,1041,1062,1083,1102,1121,1142,1163,1182,1201,1222,1242,1261,1281,1301,1321,1341,1362,1381,1401,1421,1441,1461,1481,1503,1522,1541,1561,1581,1602,1622,1642,1661,1682,1702,1721,1742,1763,1782,1801,1821,1841,1862,1883,1903,1923,1942,1962,1982,2002,2022,2042,2063,2083,2101,2121,2142,2161,2182,2202,2222,2242,2261,2281,2301,2321],"xSR":741.5,"ySR":501.8,"xT1":424.9,"yT1":0,"xT2":1058.1,"yT2":0,"toosoon":0,"cond_shown":"Congruent","ratio_trial":200,"L_num":11,"L_den":22,"R_num":3,"R_den":10,"correct_side":1,"subjID":"juanpablocampospuerto30","gender":"0","school":"6","age":"11"},{"start_time":1551794142605,"click_time":1551794144755,"finger_time":1551794143974,"fix_duration":1330.3649398047344,"trial":37,"RT":1369,"MT":781,"sideResp":2,"stimulus":[],"xmouse":[803,803,803,803,803,803,803,803,803,803,803,802,802,802,802,802,802,802,802,802,802,802,802,802,802,802,802,802,802,802,802,802,802,802,802,802,802,802,802,802,802,802,802,802,802,802,802,802,802,802,802,802,802,802,802,802,802,802,802,802,802,802,802,802,802,802,802,802,815,823,828,832,851,854,854,854,854,854,854,856,858,859,859,872,898,935,977,1037,1140,1180,1209,1223,1231,1232,1232,1232,1232,1232,1232,1232,1232,1232,1232,1223,1201,1177,1161,1141],"ymouse":[570,570,570,570,570,570,570,570,570,570,570,569,569,569,569,569,569,569,569,569,569,569,569,569,569,569,569,569,569,569,569,569,569,569,569,569,569,569,569,569,569,569,569,569,569,569,569,569,569,569,569,569,569,569,569,569,569,569,569,569,569,569,569,569,567,557,543,525,473,456,448,442,415,409,409,409,409,409,409,408,404,404,404,377,347,312,270,228,148,112,84,68,55,45,41,37,35,35,35,35,35,35,34,36,45,53,59,66],"timestamp_mouse":[9,29,48,69,89,109,128,148,169,189,209,229,248,268,289,308,329,349,368,389,409,429,449,468,488,510,529,549,569,589,609,629,649,668,688,708,728,749,769,788,809,828,849,868,889,908,928,948,969,988,1010,1028,1048,1068,1089,1108,1129,1148,1168,1189,1209,1229,1249,1269,1289,1309,1330,1350,1369,1389,1409,1429,1448,1468,1488,1508,1528,1548,1569,1588,1610,1629,1649,1668,1689,1709,1729,1750,1769,1790,1809,1829,1849,1869,1889,1909,1929,1950,1969,1988,2008,2028,2048,2068,2090,2109,2129,2150],"xSR":741.5,"ySR":501.8,"xT1":424.9,"yT1":0,"xT2":1058.1,"yT2":0,"toosoon":0,"cond_shown":"Incongruent","ratio_trial":200,"L_num":9,"L_den":15,"R_num":8,"R_den":10,"correct_side":2,"subjID":"juanpablocampospuerto30","gender":"0","school":"6","age":"11"},{"start_time":1551794147665,"click_time":1551794149175,"finger_time":1551794148933,"fix_duration":250,"trial":38,"RT":1268,"MT":242,"sideResp":2,"stimulus":[],"xmouse":[765,765,765,765,765,764,764,764,764,764,764,764,764,764,764,764,764,764,764,765,771,771,771,771,774,780,786,787,788,788,788,788,788,788,788,788,788,788,788,788,788,788,788,788,788,788,788,788,788,788,788,788,790,790,791,792,793,795,798,802,809,815,826,852,882,921,928,929,932,948,1019,1057,1084,1096,1106,1135],"ymouse":[573,573,573,573,573,572,570,569,569,569,569,569,569,569,569,569,569,569,568,568,567,567,567,567,566,565,565,565,564,564,564,564,564,564,564,564,564,564,564,564,564,564,564,564,564,564,564,564,564,564,564,564,564,564,564,564,564,564,563,562,561,559,556,545,530,502,489,477,457,390,279,232,193,171,151,84],"timestamp_mouse":[13,28,50,69,88,108,130,148,169,189,210,228,249,268,288,308,329,349,370,388,409,429,448,470,490,509,528,548,568,588,609,628,648,669,689,708,728,750,768,789,808,828,849,870,888,908,928,948,968,988,1008,1029,1048,1068,1089,1109,1130,1149,1169,1189,1209,1229,1249,1268,1288,1308,1328,1349,1370,1389,1409,1430,1449,1468,1489,1510],"xSR":741.5,"ySR":501.8,"xT1":424.9,"yT1":0,"xT2":1058.1,"yT2":0,"toosoon":0,"cond_shown":"Incongruent","ratio_trial":300,"L_num":13,"L_den":26,"R_num":12,"R_den":15,"correct_side":2,"subjID":"juanpablocampospuerto30","gender":"0","school":"6","age":"11"},{"start_time":1551794150779,"click_time":1551794152934,"finger_time":1551794152134,"fix_duration":585.8036387488127,"trial":39,"RT":1355,"MT":800,"sideResp":1,"stimulus":[],"xmouse":[811,811,811,811,811,811,811,811,811,811,811,811,811,811,810,808,802,798,797,797,797,796,795,794,794,794,794,794,794,794,794,794,794,794,794,794,794,794,794,794,794,794,794,794,794,794,794,794,794,794,793,791,791,791,791,791,791,789,789,789,789,788,786,785,774,763,751,740,731,723,718,714,709,705,697,689,677,663,647,606,579,550,518,488,460,453,453,453,453,453,453,453,453,453,453,454,455,456,458,458,458,458,458,458,459,459,459,461],"ymouse":[550,550,550,550,550,550,550,550,550,550,550,550,550,550,551,554,557,558,558,558,558,558,556,554,554,554,554,554,554,554,554,554,554,554,554,554,554,554,554,554,554,554,554,554,554,554,554,554,554,554,553,553,553,553,553,553,553,553,553,554,555,555,556,557,557,557,552,543,537,533,531,527,521,513,484,470,453,433,409,346,308,273,238,212,187,182,182,182,182,182,182,181,178,172,160,150,139,129,122,117,117,117,117,115,108,104,100,97],"timestamp_mouse":[17,34,55,74,94,115,135,154,175,194,214,235,254,276,294,315,335,354,375,395,414,436,454,474,496,515,536,554,574,594,615,636,655,675,694,714,735,755,774,795,814,834,854,875,895,914,935,955,975,994,1015,1034,1055,1075,1094,1114,1134,1154,1174,1195,1215,1236,1254,1275,1295,1314,1335,1355,1375,1395,1414,1434,1454,1476,1495,1515,1534,1555,1574,1595,1615,1634,1655,1675,1695,1715,1735,1755,1775,1795,1815,1836,1856,1874,1895,1914,1935,1956,1974,1994,2015,2034,2054,2076,2095,2115,2135,2154],"xSR":741.5,"ySR":501.8,"xT1":424.9,"yT1":0,"xT2":1058.1,"yT2":0,"toosoon":0,"cond_shown":"Incongruent","ratio_trial":100,"L_num":3,"L_den":6,"R_num":4,"R_den":10,"correct_side":1,"subjID":"juanpablocampospuerto30","gender":"0","school":"6","age":"11"},{"start_time":1551794154213,"click_time":1551794155993,"finger_time":1551794155553,"fix_duration":358.81507242329025,"trial":40,"RT":1340,"MT":440,"sideResp":2,"stimulus":[],"xmouse":[807,807,807,807,807,807,807,807,807,807,807,807,807,807,807,807,807,807,807,807,807,807,807,807,807,807,807,807,807,807,807,807,807,807,807,807,807,807,807,807,807,807,807,807,807,807,807,807,807,807,807,807,807,807,807,807,807,807,807,807,807,807,807,807,808,814,823,835,867,877,888,906,936,975,988,998,1003,1005,1009,1011,1016,1021,1026,1037,1039,1042,1045,1048,1058,1062],"ymouse":[544,544,544,544,544,544,544,544,544,544,544,544,544,544,544,544,544,544,544,544,544,544,544,544,544,544,544,544,544,544,544,544,544,544,544,544,544,544,544,544,544,544,544,544,544,544,544,544,544,544,544,544,544,544,544,544,544,544,544,544,544,544,544,544,536,522,503,471,398,375,354,329,294,257,244,233,225,218,205,197,187,178,167,148,143,136,130,121,102,94],"timestamp_mouse":[3,21,41,60,80,101,121,140,161,180,200,221,242,260,280,302,320,341,360,381,400,420,440,460,480,500,520,542,562,580,600,620,641,660,680,701,720,742,760,780,800,821,841,861,881,901,920,940,960,980,1000,1021,1040,1062,1080,1101,1122,1141,1160,1180,1201,1220,1240,1260,1280,1301,1321,1340,1360,1380,1400,1420,1441,1460,1481,1500,1520,1542,1560,1580,1600,1620,1640,1661,1680,1701,1720,1740,1760,1780],"xSR":741.5,"ySR":501.8,"xT1":424.9,"yT1":0,"xT2":1058.1,"yT2":0,"toosoon":0,"cond_shown":"Incongruent","ratio_trial":200,"L_num":4,"L_den":30,"R_num":1,"R_den":3,"correct_side":2,"subjID":"juanpablocampospuerto30","gender":"0","school":"6","age":"11"},{"start_time":1551794157368,"click_time":1551794159134,"finger_time":1551794158833,"fix_duration":513.1421750410937,"trial":41,"RT":1465,"MT":301,"sideResp":2,"stimulus":[],"xmouse":[799,799,799,799,799,799,799,799,799,799,799,799,799,799,799,799,799,799,799,799,799,799,799,799,799,799,799,799,799,799,799,799,799,799,799,799,799,799,799,799,799,799,799,799,799,799,799,799,799,799,799,799,799,799,799,799,799,799,799,799,799,799,799,799,799,799,799,799,799,799,803,810,820,831,850,870,877,886,896,914,956,973,989,1005,1012,1039,1049,1057,1067],"ymouse":[561,561,561,561,561,561,561,561,561,561,561,561,561,561,561,561,561,561,561,561,561,561,561,561,561,561,561,561,561,561,561,561,561,561,561,561,561,561,561,561,561,561,561,561,561,561,561,561,561,561,561,561,561,561,561,561,561,561,561,561,561,561,561,561,561,561,561,561,561,555,538,523,509,495,473,441,422,397,372,338,264,234,207,174,164,131,120,111,97],"timestamp_mouse":[11,26,45,66,86,105,125,145,165,186,206,226,245,265,285,306,325,345,365,385,405,425,445,465,485,506,526,545,566,585,607,626,646,665,685,706,726,747,765,785,805,825,846,865,886,905,926,947,965,985,1005,1025,1045,1067,1085,1106,1125,1147,1165,1185,1205,1226,1245,1266,1287,1306,1325,1345,1365,1386,1406,1425,1445,1465,1486,1506,1526,1545,1566,1585,1605,1625,1645,1665,1686,1705,1725,1746,1766],"xSR":741.5,"ySR":501.8,"xT1":424.9,"yT1":0,"xT2":1058.1,"yT2":0,"toosoon":0,"cond_shown":"Congruent","ratio_trial":100,"L_num":8,"L_den":16,"R_num":2,"R_den":5,"correct_side":1,"subjID":"juanpablocampospuerto30","gender":"0","school":"6","age":"11"},{"start_time":1551794161304,"click_time":1551794163333,"finger_time":1551794162773,"fix_duration":1451.9492295034067,"trial":42,"RT":1469,"MT":560,"sideResp":1,"stimulus":[],"xmouse":[799,798,798,798,798,798,798,798,797,796,796,796,796,796,796,796,796,796,796,796,796,796,796,796,796,796,796,796,796,796,796,796,796,796,796,796,796,796,796,796,796,796,796,796,796,796,796,796,796,796,796,796,796,796,796,796,796,796,796,796,796,796,796,796,796,796,796,796,796,796,795,792,780,717,686,666,653,643,642,642,642,642,642,634,631,624,613,600,551,541,539,538,536,532,529,526,526,524,521,521,518,517],"ymouse":[526,527,527,527,527,527,527,528,532,533,535,535,535,535,535,535,535,535,535,535,535,535,535,535,535,535,535,535,535,535,535,535,535,535,535,535,535,535,535,535,535,535,535,535,535,535,535,535,535,535,535,535,535,535,535,535,535,535,535,535,535,535,535,535,535,535,535,535,535,535,536,535,507,403,361,333,317,298,290,288,286,282,277,260,251,239,223,207,168,163,161,161,161,157,154,152,151,143,126,117,102,88],"timestamp_mouse":[9,30,49,70,90,110,129,150,169,189,209,229,249,269,290,309,329,349,369,390,410,430,450,469,489,510,529,550,570,590,610,629,650,669,689,709,729,749,769,790,809,829,850,870,889,910,929,949,969,990,1009,1029,1049,1071,1090,1110,1130,1149,1170,1189,1210,1229,1249,1270,1289,1310,1329,1349,1369,1390,1409,1429,1450,1469,1489,1510,1530,1549,1569,1591,1610,1630,1649,1670,1689,1709,1729,1750,1769,1790,1809,1829,1850,1869,1890,1909,1930,1949,1969,1990,2009,2029],"xSR":741.5,"ySR":501.8,"xT1":424.9,"yT1":0,"xT2":1058.1,"yT2":0,"toosoon":0,"cond_shown":"Congruent","ratio_trial":100,"L_num":10,"L_den":25,"R_num":3,"R_den":10,"correct_side":1,"subjID":"juanpablocampospuerto30","gender":"0","school":"6","age":"11"},{"start_time":1551794165292,"click_time":1551794167094,"finger_time":1551794166614,"fix_duration":778.1110065351069,"trial":43,"RT":1322,"MT":480,"sideResp":2,"stimulus":[],"xmouse":[820,820,820,820,820,820,820,820,820,820,820,820,820,820,820,820,820,820,820,820,820,820,820,820,820,820,820,820,820,820,820,820,820,820,820,820,820,820,820,820,820,820,820,820,820,820,820,820,820,820,820,820,820,820,820,820,820,820,820,821,821,822,823,825,833,840,854,876,900,949,956,961,962,963,963,962,962,968,979,1001,1003,1005,1007,1009,1018,1022,1026,1028,1032,1047,1060],"ymouse":[588,588,588,588,588,588,588,588,588,588,588,588,588,588,588,588,588,588,588,588,588,588,588,588,588,588,588,588,588,588,588,588,588,588,588,588,588,588,588,588,588,588,588,588,588,588,588,588,588,588,588,588,588,588,588,588,588,587,586,581,579,576,573,568,552,536,513,474,422,331,314,293,272,245,207,193,177,156,134,101,97,94,91,89,82,79,77,75,71,58,48],"timestamp_mouse":[5,21,42,61,81,102,121,141,162,181,202,221,243,262,282,302,321,341,361,381,401,422,441,462,482,501,521,543,561,581,602,622,641,662,681,701,721,741,762,783,801,821,841,863,881,902,923,941,961,981,1001,1023,1042,1061,1082,1101,1121,1143,1162,1181,1201,1222,1241,1263,1282,1302,1322,1341,1362,1381,1401,1422,1441,1462,1481,1501,1521,1542,1562,1583,1601,1621,1641,1661,1681,1702,1721,1742,1762,1781,1802],"xSR":741.5,"ySR":501.8,"xT1":424.9,"yT1":0,"xT2":1058.1,"yT2":0,"toosoon":0,"cond_shown":"Congruent","ratio_trial":300,"L_num":3,"L_den":6,"R_num":4,"R_den":5,"correct_side":2,"subjID":"juanpablocampospuerto30","gender":"0","school":"6","age":"11"},{"start_time":1551794168927,"click_time":1551794170214,"finger_time":1551794169773,"fix_duration":853.2272968115365,"trial":44,"RT":846,"MT":441,"sideResp":1,"stimulus":[],"xmouse":[780,780,780,780,780,780,780,780,780,780,780,780,780,780,780,780,780,780,780,780,780,780,780,780,780,780,780,780,780,780,780,780,780,780,78