[{"start_time":1551793957178,"click_time":1551793959123,"finger_time":1551793958821,"fix_duration":851.9815922990242,"trial":0,"RT":1643,"MT":302,"sideResp":1,"stimulus":[],"xmouse":[775,775,775,775,775,775,775,775,775,775,775,775,775,775,775,775,775,775,775,775,775,775,775,775,775,775,775,775,775,775,775,775,775,775,775,775,775,775,775,775,775,775,775,775,775,775,775,775,775,775,775,775,775,775,775,775,775,775,775,775,775,775,775,775,775,775,775,775,775,775,775,775,775,775,775,774,772,761,745,738,735,735,735,735,732,728,721,709,683,617,590,571,559,538,513],"ymouse":[567,567,567,567,567,567,567,567,567,567,567,567,567,567,567,567,567,567,567,567,567,567,567,567,567,567,567,567,567,567,567,567,567,567,567,567,567,567,567,567,567,567,567,567,567,567,567,567,567,567,567,567,567,567,567,567,567,567,567,567,567,567,567,567,567,567,567,567,567,567,567,567,567,567,567,565,564,551,543,537,535,535,535,534,531,523,508,481,423,299,239,181,143,92,23],"timestamp_mouse":[9,23,104,124,144,164,184,205,223,244,265,283,304,324,343,363,383,404,425,444,463,485,505,523,544,564,585,603,623,643,663,684,705,723,744,763,784,804,824,843,864,885,904,924,944,964,985,1004,1025,1043,1063,1083,1104,1124,1144,1164,1183,1204,1225,1244,1263,1283,1304,1325,1344,1364,1383,1404,1424,1443,1463,1483,1503,1524,1544,1563,1584,1604,1624,1643,1663,1684,1704,1725,1744,1763,1783,1803,1824,1844,1864,1884,1904,1923,1944],"xSR":741.5,"ySR":501.8,"xT1":424.9,"yT1":0,"xT2":1058.1,"yT2":0,"toosoon":0,"cond_shown":"Congruent","ratio_trial":200,"L_num":11,"L_den":22,"R_num":3,"R_den":10,"correct_side":1,"subjID":"AnasofiaBermudezsalazar35","gender":"1","age":"10","school":"6","test":{"fix_dur":[250,1500],"timestim":1000,"targets_dim":[100,100],"targets_relative_coord":[0.3,0.7],"size_stim":[880,420],"start_dim":[100,100],"size_start":[300,300],"size_fix":60,"samplingrate":20,"img_types":["Congruent","Incongruent"],"ratios":[100,200,300],"rep_conds":19,"nTrials":120,"trials_to_rest":500,"Trials_order":[98,108,24,84,4,29,110,83,112,22,95,103,65,58,20,19,2,59,8,15,25,9,32,66,91,102,101,114,90,71,48,113,39,105,70,67,99,80,40,79,64,74,97,50,53,118,12,87,51,42,35,63,117,3,26,104,73,55,36,78,5,31,43,16,111,100,27,107,88,45,47,37,10,77,33,46,116,76,69,94,115,56,68,85,92,34,21,28,17,18,72,96,93,57,81,38,41,86,0,89,23,61,62,109,75,106,44,11,30,6,60,7,52,82,14,49,119,13,1,54],"cond_shown":["Congruent","Congruent","Congruent","Congruent","Congruent","Incongruent","Congruent","Incongruent","Congruent","Congruent","Incongruent","Incongruent","Incongruent","Congruent","Congruent","Incongruent","Congruent","Incongruent","Congruent","Incongruent","Incongruent","Incongruent","Congruent","Congruent","Incongruent","Congruent","Incongruent","Congruent","Congruent","Incongruent","Congruent","Incongruent","Incongruent","Incongruent","Congruent","Incongruent","Incongruent","Congruent","Congruent","Incongruent","Congruent","Congruent","Incongruent","Congruent","Incongruent","Congruent","Congruent","Incongruent","Incongruent","Congruent","Incongruent","Incongruent","Incongruent","Incongruent","Congruent","Congruent","Incongruent","Incongruent","Congruent","Congruent","Incongruent","Incongruent","Incongruent","Congruent","Incongruent","Congruent","Incongruent","Incongruent","Congruent","Incongruent","Incongruent","Incongruent","Congruent","Incongruent","Incongruent","Congruent","Congruent","Congruent","Incongruent","Congruent","Incongruent","Congruent","Congruent","Incongruent","Congruent","Congruent","Incongruent","Congruent","Incongruent","Congruent","Congruent","Congruent","Incongruent","Incongruent","Incongruent","Congruent","Incongruent","Congruent","Congruent","Incongruent","Incongruent","Incongruent","Congruent","Incongruent","Incongruent","Congruent","Congruent","Incongruent","Congruent","Congruent","Congruent","Incongruent","Congruent","Congruent","Congruent","Incongruent","Incongruent","Incongruent","Incongruent","Congruent"],"ratio_trial":[200,100,100,100,300,300,200,300,300,300,300,100,300,300,200,100,200,300,200,200,100,200,200,100,100,100,300,100,100,300,100,300,200,200,300,100,200,200,300,100,300,200,100,200,300,300,100,200,200,100,300,200,200,200,200,200,100,100,100,100,300,100,100,300,200,300,200,300,300,200,300,100,300,300,200,300,200,300,200,300,100,200,200,100,200,300,200,300,300,100,100,100,200,200,200,200,300,200,100,300,300,100,200,100,200,300,200,300,100,100,100,100,300,300,200,100,300,100,100,100],"left_num":[11,2,3,11,3,13,3,4,1,8,13,9,4,4,16,2,13,13,6,11,6,7,15,9,12,4,1,12,6,1,2,13,1,4,2,10,4,3,11,9,2,3,12,7,4,20,3,3,11,9,7,14,4,7,21,7,3,17,1,15,4,17,12,1,14,24,4,2,9,14,1,12,9,8,14,4,3,4,14,7,3,3,3,11,6,24,1,1,8,2,2,9,7,7,7,3,13,13,3,4,7,8,9,4,14,4,3,4,1,8,8,11,3,1,5,3,4,2,6,2],"right_num":[3,6,4,6,4,12,7,2,8,10,12,14,6,13,9,8,14,12,3,3,3,8,4,8,2,6,3,13,5,2,11,12,2,6,12,8,14,14,4,6,10,9,2,18,8,8,2,1,3,8,8,12,14,6,2,2,11,10,3,13,2,10,9,19,6,8,1,6,3,6,2,9,3,14,12,1,14,13,12,20,4,9,14,9,3,8,3,3,9,6,6,8,12,14,14,7,12,14,2,2,8,1,13,8,6,2,14,2,3,2,2,9,4,6,14,11,2,6,13,6],"left_den":[22,5,20,22,6,26,10,20,30,15,26,15,5,20,30,4,26,26,15,20,12,10,25,15,30,8,2,30,20,2,5,26,3,5,10,25,6,10,22,18,20,12,30,15,5,25,6,10,20,15,10,30,6,15,30,21,5,30,2,25,20,30,24,3,30,30,30,4,10,30,2,24,10,10,30,10,6,20,30,14,6,12,10,22,15,30,2,5,10,5,5,15,10,10,10,10,26,26,6,20,10,20,30,8,30,5,10,20,2,16,16,22,6,5,10,5,20,4,10,5],"right_den":[10,12,16,15,5,15,14,4,24,12,15,28,12,26,27,20,20,15,15,4,5,16,10,16,4,10,15,26,25,10,22,15,15,10,24,16,30,28,20,10,25,20,4,27,16,16,5,2,4,16,20,18,30,9,4,15,22,15,5,26,4,15,15,30,9,16,3,30,5,9,10,15,5,28,18,10,20,26,18,25,10,20,28,15,15,16,10,6,18,12,12,16,24,28,28,14,15,20,5,4,20,2,26,20,9,4,28,4,5,5,5,15,5,12,20,22,4,15,26,12],"correct_side":[1,2,2,1,2,2,2,2,2,2,2,1,1,2,1,1,2,2,1,2,2,1,1,1,2,2,1,2,1,1,2,2,1,1,2,2,1,2,1,2,2,2,2,2,1,1,1,2,2,1,1,2,1,2,1,1,1,2,2,1,2,2,2,2,2,1,2,1,1,2,1,2,1,1,2,1,2,2,2,2,1,2,2,2,1,1,1,2,1,2,2,1,1,1,1,2,2,2,1,2,1,2,2,1,2,1,2,2,2,1,1,2,2,2,2,1,2,1,1,2],"img_shown":["img2/200/Congruent/L/C_Dist_200_LN_11_LD_22_RN_3_RD_10_0.png","img2/100/Congruent/R/C_Dist_100_LN_2_LD_5_RN_6_RD_12_1.png","img2/100/Congruent/R/C_Dist_100_LN_3_LD_20_RN_4_RD_16_1.png","img2/100/Congruent/L/C_Dist_100_LN_11_LD_22_RN_6_RD_15_0.png","img2/300/Congruent/R/C_Dist_300_LN_3_LD_6_RN_4_RD_5_1.png","img2/300/Incongruent/R/I_Dist_300_LN_13_LD_26_RN_12_RD_15_1.png","img2/200/Congruent/R/C_Dist_200_LN_3_LD_10_RN_7_RD_14_1.png","img2/300/Incongruent/R/I_Dist_300_LN_4_LD_20_RN_2_RD_4_1.png","img2/300/Congruent/R/C_Dist_300_LN_1_LD_30_RN_8_RD_24_1.png","img2/300/Congruent/R/C_Dist_300_LN_8_LD_15_RN_10_RD_12_1.png","img2/300/Incongruent/R/I_Dist_300_LN_13_LD_26_RN_12_RD_15_1.png","img2/100/Incongruent/L/I_Dist_100_LN_9_LD_15_RN_14_RD_28_0.png","img2/300/Incongruent/L/I_Dist_300_LN_4_LD_5_RN_6_RD_12_0.png","img2/300/Congruent/R/C_Dist_300_LN_4_LD_20_RN_13_RD_26_1.png","img2/200/Congruent/L/C_Dist_200_LN_16_LD_30_RN_9_RD_27_0.png","img2/100/Incongruent/L/I_Dist_100_LN_2_LD_4_RN_8_RD_20_0.png","img2/200/Congruent/R/C_Dist_200_LN_13_LD_26_RN_14_RD_20_1.png","img2/300/Incongruent/R/I_Dist_300_LN_13_LD_26_RN_12_RD_15_1.png","img2/200/Congruent/L/C_Dist_200_LN_6_LD_15_RN_3_RD_15_0.png","img2/200/Incongruent/R/I_Dist_200_LN_11_LD_20_RN_3_RD_4_1.png","img2/100/Incongruent/R/I_Dist_100_LN_6_LD_12_RN_3_RD_5_1.png","img2/200/Incongruent/L/I_Dist_200_LN_7_LD_10_RN_8_RD_16_0.png","img2/200/Congruent/L/C_Dist_200_LN_15_LD_25_RN_4_RD_10_0.png","img2/100/Congruent/L/C_Dist_100_LN_9_LD_15_RN_8_RD_16_0.png","img2/100/Incongruent/R/I_Dist_100_LN_12_LD_30_RN_2_RD_4_1.png","img2/100/Congruent/R/C_Dist_100_LN_4_LD_8_RN_6_RD_10_1.png","img2/300/Incongruent/L/I_Dist_300_LN_1_LD_2_RN_3_RD_15_0.png","img2/100/Congruent/R/C_Dist_100_LN_12_LD_30_RN_13_RD_26_1.png","img2/100/Congruent/L/C_Dist_100_LN_6_LD_20_RN_5_RD_25_0.png","img2/300/Incongruent/L/I_Dist_300_LN_1_LD_2_RN_2_RD_10_0.png","img2/100/Congruent/R/C_Dist_100_LN_2_LD_5_RN_11_RD_22_1.png","img2/300/Incongruent/R/I_Dist_300_LN_13_LD_26_RN_12_RD_15_1.png","img2/200/Incongruent/L/I_Dist_200_LN_1_LD_3_RN_2_RD_15_0.png","img2/200/Incongruent/L/I_Dist_200_LN_4_LD_5_RN_6_RD_10_0.png","img2/300/Congruent/R/C_Dist_300_LN_2_LD_10_RN_12_RD_24_1.png","img2/100/Incongruent/R/I_Dist_100_LN_10_LD_25_RN_8_RD_16_1.png","img2/200/Incongruent/L/I_Dist_200_LN_4_LD_6_RN_14_RD_30_0.png","img2/200/Congruent/R/C_Dist_200_LN_3_LD_10_RN_14_RD_28_1.png","img2/300/Congruent/L/C_Dist_300_LN_11_LD_22_RN_4_RD_20_0.png","img2/100/Incongruent/R/I_Dist_100_LN_9_LD_18_RN_6_RD_10_1.png","img2/300/Congruent/R/C_Dist_300_LN_2_LD_20_RN_10_RD_25_1.png","img2/200/Congruent/R/C_Dist_200_LN_3_LD_12_RN_9_RD_20_1.png","img2/100/Incongruent/R/I_Dist_100_LN_12_LD_30_RN_2_RD_4_1.png","img2/200/Congruent/R/C_Dist_200_LN_7_LD_15_RN_18_RD_27_1.png","img2/300/Incongruent/L/I_Dist_300_LN_4_LD_5_RN_8_RD_16_0.png","img2/300/Congruent/L/C_Dist_300_LN_20_LD_25_RN_8_RD_16_0.png","img2/100/Congruent/L/C_Dist_100_LN_3_LD_6_RN_2_RD_5_0.png","img2/200/Incongruent/R/I_Dist_200_LN_3_LD_10_RN_1_RD_2_1.png","img2/200/Incongruent/R/I_Dist_200_LN_11_LD_20_RN_3_RD_4_1.png","img2/100/Congruent/L/C_Dist_100_LN_9_LD_15_RN_8_RD_16_0.png","img2/300/Incongruent/L/I_Dist_300_LN_7_LD_10_RN_8_RD_20_0.png","img2/200/Incongruent/R/I_Dist_200_LN_14_LD_30_RN_12_RD_18_1.png","img2/200/Incongruent/L/I_Dist_200_LN_4_LD_6_RN_14_RD_30_0.png","img2/200/Incongruent/R/I_Dist_200_LN_7_LD_15_RN_6_RD_9_1.png","img2/200/Congruent/L/C_Dist_200_LN_21_LD_30_RN_2_RD_4_0.png","img2/200/Congruent/L/C_Dist_200_LN_7_LD_21_RN_2_RD_15_0.png","img2/100/Incongruent/L/I_Dist_100_LN_3_LD_5_RN_11_RD_22_0.png","img2/100/Incongruent/R/I_Dist_100_LN_17_LD_30_RN_10_RD_15_1.png","img2/100/Congruent/R/C_Dist_100_LN_1_LD_2_RN_3_RD_5_1.png","img2/100/Congruent/L/C_Dist_100_LN_15_LD_25_RN_13_RD_26_0.png","img2/300/Incongruent/R/I_Dist_300_LN_4_LD_20_RN_2_RD_4_1.png","img2/100/Incongruent/R/I_Dist_100_LN_17_LD_30_RN_10_RD_15_1.png","img2/100/Incongruent/R/I_Dist_100_LN_12_LD_24_RN_9_RD_15_1.png","img2/300/Congruent/R/C_Dist_300_LN_1_LD_3_RN_19_RD_30_1.png","img2/200/Incongruent/R/I_Dist_200_LN_14_LD_30_RN_6_RD_9_1.png","img2/300/Congruent/L/C_Dist_300_LN_24_LD_30_RN_8_RD_16_0.png","img2/200/Incongruent/R/I_Dist_200_LN_4_LD_30_RN_1_RD_3_1.png","img2/300/Incongruent/L/I_Dist_300_LN_2_LD_4_RN_6_RD_30_0.png","img2/300/Congruent/L/C_Dist_300_LN_9_LD_10_RN_3_RD_5_0.png","img2/200/Incongruent/R/I_Dist_200_LN_14_LD_30_RN_6_RD_9_1.png","img2/300/Incongruent/L/I_Dist_300_LN_1_LD_2_RN_2_RD_10_0.png","img2/100/Incongruent/R/I_Dist_100_LN_12_LD_24_RN_9_RD_15_1.png","img2/300/Congruent/L/C_Dist_300_LN_9_LD_10_RN_3_RD_5_0.png","img2/300/Incongruent/L/I_Dist_300_LN_8_LD_10_RN_14_RD_28_0.png","img2/200/Incongruent/R/I_Dist_200_LN_14_LD_30_RN_12_RD_18_1.png","img2/300/Congruent/L/C_Dist_300_LN_4_LD_10_RN_1_RD_10_0.png","img2/200/Congruent/R/C_Dist_200_LN_3_LD_6_RN_14_RD_20_1.png","img2/300/Congruent/R/C_Dist_300_LN_4_LD_20_RN_13_RD_26_1.png","img2/200/Incongruent/R/I_Dist_200_LN_14_LD_30_RN_12_RD_18_1.png","img2/300/Congruent/R/C_Dist_300_LN_7_LD_14_RN_20_RD_25_1.png","img2/100/Incongruent/L/I_Dist_100_LN_3_LD_6_RN_4_RD_10_0.png","img2/200/Congruent/R/C_Dist_200_LN_3_LD_12_RN_9_RD_20_1.png","img2/200/Congruent/R/C_Dist_200_LN_3_LD_10_RN_14_RD_28_1.png","img2/100/Incongruent/R/I_Dist_100_LN_11_LD_22_RN_9_RD_15_1.png","img2/200/Congruent/L/C_Dist_200_LN_6_LD_15_RN_3_RD_15_0.png","img2/300/Congruent/L/C_Dist_300_LN_24_LD_30_RN_8_RD_16_0.png","img2/200/Incongruent/L/I_Dist_200_LN_1_LD_2_RN_3_RD_10_0.png","img2/300/Congruent/R/C_Dist_300_LN_1_LD_5_RN_3_RD_6_1.png","img2/300/Incongruent/L/I_Dist_300_LN_8_LD_10_RN_9_RD_18_0.png","img2/100/Congruent/R/C_Dist_100_LN_2_LD_5_RN_6_RD_12_1.png","img2/100/Congruent/R/C_Dist_100_LN_2_LD_5_RN_6_RD_12_1.png","img2/100/Congruent/L/C_Dist_100_LN_9_LD_15_RN_8_RD_16_0.png","img2/200/Incongruent/L/I_Dist_200_LN_7_LD_10_RN_12_RD_24_0.png","img2/200/Incongruent/L/I_Dist_200_LN_7_LD_10_RN_14_RD_28_0.png","img2/200/Incongruent/L/I_Dist_200_LN_7_LD_10_RN_14_RD_28_0.png","img2/200/Congruent/R/C_Dist_200_LN_3_LD_10_RN_7_RD_14_1.png","img2/300/Incongruent/R/I_Dist_300_LN_13_LD_26_RN_12_RD_15_1.png","img2/200/Congruent/R/C_Dist_200_LN_13_LD_26_RN_14_RD_20_1.png","img2/100/Congruent/L/C_Dist_100_LN_3_LD_6_RN_2_RD_5_0.png","img2/300/Incongruent/R/I_Dist_300_LN_4_LD_20_RN_2_RD_4_1.png","img2/300/Incongruent/L/I_Dist_300_LN_7_LD_10_RN_8_RD_20_0.png","img2/100/Incongruent/R/I_Dist_100_LN_8_LD_20_RN_1_RD_2_1.png","img2/200/Congruent/R/C_Dist_200_LN_9_LD_30_RN_13_RD_26_1.png","img2/100/Incongruent/L/I_Dist_100_LN_4_LD_8_RN_8_RD_20_0.png","img2/200/Incongruent/R/I_Dist_200_LN_14_LD_30_RN_6_RD_9_1.png","img2/300/Congruent/L/C_Dist_300_LN_4_LD_5_RN_2_RD_4_0.png","img2/200/Congruent/R/C_Dist_200_LN_3_LD_10_RN_14_RD_28_1.png","img2/300/Incongruent/R/I_Dist_300_LN_4_LD_20_RN_2_RD_4_1.png","img2/100/Congruent/R/C_Dist_100_LN_1_LD_2_RN_3_RD_5_1.png","img2/100/Congruent/L/C_Dist_100_LN_8_LD_16_RN_2_RD_5_0.png","img2/100/Congruent/L/C_Dist_100_LN_8_LD_16_RN_2_RD_5_0.png","img2/100/Incongruent/R/I_Dist_100_LN_11_LD_22_RN_9_RD_15_1.png","img2/300/Congruent/R/C_Dist_300_LN_3_LD_6_RN_4_RD_5_1.png","img2/300/Congruent/R/C_Dist_300_LN_1_LD_5_RN_6_RD_12_1.png","img2/200/Congruent/R/C_Dist_200_LN_5_LD_10_RN_14_RD_20_1.png","img2/100/Incongruent/L/I_Dist_100_LN_3_LD_5_RN_11_RD_22_0.png","img2/300/Incongruent/R/I_Dist_300_LN_4_LD_20_RN_2_RD_4_1.png","img2/100/Incongruent/L/I_Dist_100_LN_2_LD_4_RN_6_RD_15_0.png","img2/100/Incongruent/L/I_Dist_100_LN_6_LD_10_RN_13_RD_26_0.png","img2/100/Congruent/R/C_Dist_100_LN_2_LD_5_RN_6_RD_12_1.png"],"dist100_C":[["C_Dist_100_LN_10_LD_25_RN_3_RD_10_0.png","C_Dist_100_LN_11_LD_22_RN_4_RD_10_0.png","C_Dist_100_LN_11_LD_22_RN_6_RD_15_0.png","C_Dist_100_LN_15_LD_25_RN_13_RD_26_0.png","C_Dist_100_LN_3_LD_6_RN_2_RD_5_0.png","C_Dist_100_LN_6_LD_20_RN_5_RD_25_0.png","C_Dist_100_LN_8_LD_16_RN_2_RD_5_0.png","C_Dist_100_LN_9_LD_15_RN_8_RD_16_0.png"],["C_Dist_100_LN_1_LD_2_RN_18_RD_30_1.png","C_Dist_100_LN_1_LD_2_RN_3_RD_5_1.png","C_Dist_100_LN_12_LD_30_RN_13_RD_26_1.png","C_Dist_100_LN_2_LD_5_RN_11_RD_22_1.png","C_Dist_100_LN_2_LD_5_RN_6_RD_12_1.png","C_Dist_100_LN_3_LD_20_RN_4_RD_16_1.png","C_Dist_100_LN_4_LD_10_RN_15_RD_30_1.png","C_Dist_100_LN_4_LD_8_RN_6_RD_10_1.png","C_Dist_100_LN_6_LD_12_RN_15_RD_25_1.png","C_Dist_100_LN_7_LD_14_RN_15_RD_25_1.png","C_Dist_100_LN_7_LD_14_RN_9_RD_15_1.png"]],"dist100_I":[["I_Dist_100_LN_1_LD_2_RN_8_RD_20_0.png","I_Dist_100_LN_2_LD_4_RN_6_RD_15_0.png","I_Dist_100_LN_2_LD_4_RN_8_RD_20_0.png","I_Dist_100_LN_3_LD_5_RN_11_RD_22_0.png","I_Dist_100_LN_3_LD_5_RN_8_RD_16_0.png","I_Dist_100_LN_3_LD_6_RN_4_RD_10_0.png","I_Dist_100_LN_3_LD_9_RN_7_RD_30_0.png","I_Dist_100_LN_4_LD_8_RN_8_RD_20_0.png","I_Dist_100_LN_6_LD_10_RN_11_RD_22_0.png","I_Dist_100_LN_6_LD_10_RN_13_RD_26_0.png","I_Dist_100_LN_6_LD_10_RN_7_RD_14_0.png","I_Dist_100_LN_9_LD_10_RN_20_RD_25_0.png","I_Dist_100_LN_9_LD_15_RN_13_RD_26_0.png","I_Dist_100_LN_9_LD_15_RN_14_RD_28_0.png"],["I_Dist_100_LN_10_LD_25_RN_8_RD_16_1.png","I_Dist_100_LN_10_LD_25_RN_9_RD_18_1.png","I_Dist_100_LN_11_LD_22_RN_9_RD_15_1.png","I_Dist_100_LN_12_LD_24_RN_9_RD_15_1.png","I_Dist_100_LN_12_LD_30_RN_2_RD_4_1.png","I_Dist_100_LN_13_LD_26_RN_12_RD_20_1.png","I_Dist_100_LN_13_LD_26_RN_6_RD_10_1.png","I_Dist_100_LN_17_LD_30_RN_10_RD_15_1.png","I_Dist_100_LN_6_LD_12_RN_3_RD_5_1.png","I_Dist_100_LN_8_LD_16_RN_6_RD_10_1.png","I_Dist_100_LN_8_LD_20_RN_1_RD_2_1.png","I_Dist_100_LN_9_LD_18_RN_6_RD_10_1.png"]],"dist100_S":[["E_Dist_100_LN_2_LD_12_RN_2_RD_30_0.png","E_Dist_100_LN_6_LD_10_RN_6_RD_12_0.png"],["E_Dist_100_LN_6_LD_12_RN_6_RD_10_1.png"]],"dist200_C":[["C_Dist_200_LN_11_LD_22_RN_3_RD_10_0.png","C_Dist_200_LN_12_LD_15_RN_6_RD_10_0.png","C_Dist_200_LN_12_LD_20_RN_6_RD_15_0.png","C_Dist_200_LN_14_LD_28_RN_6_RD_20_0.png","C_Dist_200_LN_15_LD_25_RN_4_RD_10_0.png","C_Dist_200_LN_16_LD_20_RN_12_RD_20_0.png","C_Dist_200_LN_16_LD_30_RN_9_RD_27_0.png","C_Dist_200_LN_20_LD_25_RN_9_RD_15_0.png","C_Dist_200_LN_21_LD_30_RN_2_RD_4_0.png","C_Dist_200_LN_4_LD_10_RN_3_RD_15_0.png","C_Dist_200_LN_4_LD_8_RN_3_RD_10_0.png","C_Dist_200_LN_6_LD_15_RN_3_RD_15_0.png","C_Dist_200_LN_7_LD_21_RN_2_RD_15_0.png","C_Dist_200_LN_8_LD_15_RN_2_RD_6_0.png","C_Dist_200_LN_8_LD_15_RN_3_RD_9_0.png","C_Dist_200_LN_8_LD_15_RN_7_RD_21_0.png","C_Dist_200_LN_9_LD_20_RN_4_RD_16_0.png"],["C_Dist_200_LN_1_LD_2_RN_21_RD_30_1.png","C_Dist_200_LN_13_LD_26_RN_14_RD_20_1.png","C_Dist_200_LN_3_LD_10_RN_11_RD_22_1.png","C_Dist_200_LN_3_LD_10_RN_14_RD_28_1.png","C_Dist_200_LN_3_LD_10_RN_7_RD_14_1.png","C_Dist_200_LN_3_LD_12_RN_9_RD_20_1.png","C_Dist_200_LN_3_LD_6_RN_14_RD_20_1.png","C_Dist_200_LN_5_LD_10_RN_14_RD_20_1.png","C_Dist_200_LN_6_LD_12_RN_7_RD_10_1.png","C_Dist_200_LN_6_LD_20_RN_11_RD_22_1.png","C_Dist_200_LN_7_LD_15_RN_18_RD_27_1.png","C_Dist_200_LN_9_LD_30_RN_13_RD_26_1.png"]],"dist200_I":[["I_Dist_200_LN_1_LD_2_RN_3_RD_10_0.png","I_Dist_200_LN_1_LD_3_RN_2_RD_15_0.png","I_Dist_200_LN_3_LD_4_RN_11_RD_20_0.png","I_Dist_200_LN_4_LD_5_RN_6_RD_10_0.png","I_Dist_200_LN_4_LD_6_RN_14_RD_30_0.png","I_Dist_200_LN_7_LD_10_RN_12_RD_24_0.png","I_Dist_200_LN_7_LD_10_RN_14_RD_28_0.png","I_Dist_200_LN_7_LD_10_RN_8_RD_16_0.png"],["I_Dist_200_LN_11_LD_20_RN_3_RD_4_1.png","I_Dist_200_LN_14_LD_30_RN_12_RD_18_1.png","I_Dist_200_LN_14_LD_30_RN_6_RD_9_1.png","I_Dist_200_LN_3_LD_10_RN_1_RD_2_1.png","I_Dist_200_LN_4_LD_30_RN_1_RD_3_1.png","I_Dist_200_LN_6_LD_20_RN_3_RD_6_1.png","I_Dist_200_LN_7_LD_15_RN_4_RD_6_1.png","I_Dist_200_LN_7_LD_15_RN_6_RD_9_1.png","I_Dist_200_LN_9_LD_15_RN_8_RD_10_1.png"]],"dist200_S":[["E_Dist_200_LN_3_LD_6_RN_3_RD_10_0.png"],["E_Dist_200_LN_3_LD_10_RN_3_RD_6_1.png"]],"dist300_C":[["C_Dist_300_LN_11_LD_22_RN_1_RD_5_0.png","C_Dist_300_LN_11_LD_22_RN_2_RD_10_0.png","C_Dist_300_LN_11_LD_22_RN_4_RD_20_0.png","C_Dist_300_LN_12_LD_24_RN_2_RD_10_0.png","C_Dist_300_LN_18_LD_20_RN_9_RD_15_0.png","C_Dist_300_LN_20_LD_25_RN_13_RD_26_0.png","C_Dist_300_LN_20_LD_25_RN_14_RD_28_0.png","C_Dist_300_LN_20_LD_25_RN_5_RD_10_0.png","C_Dist_300_LN_20_LD_25_RN_8_RD_16_0.png","C_Dist_300_LN_20_LD_25_RN_9_RD_18_0.png","C_Dist_300_LN_24_LD_30_RN_2_RD_4_0.png","C_Dist_300_LN_24_LD_30_RN_8_RD_16_0.png","C_Dist_300_LN_3_LD_6_RN_2_RD_10_0.png","C_Dist_300_LN_4_LD_10_RN_1_RD_10_0.png","C_Dist_300_LN_4_LD_5_RN_2_RD_4_0.png","C_Dist_300_LN_8_LD_16_RN_1_RD_5_0.png","C_Dist_300_LN_9_LD_10_RN_3_RD_5_0.png"],["C_Dist_300_LN_1_LD_20_RN_7_RD_20_1.png","C_Dist_300_LN_1_LD_3_RN_19_RD_30_1.png","C_Dist_300_LN_1_LD_30_RN_8_RD_24_1.png","C_Dist_300_LN_1_LD_5_RN_11_RD_22_1.png","C_Dist_300_LN_1_LD_5_RN_3_RD_6_1.png","C_Dist_300_LN_1_LD_5_RN_6_RD_12_1.png","C_Dist_300_LN_2_LD_10_RN_12_RD_24_1.png","C_Dist_300_LN_2_LD_20_RN_10_RD_25_1.png","C_Dist_300_LN_3_LD_12_RN_11_RD_20_1.png","C_Dist_300_LN_3_LD_6_RN_4_RD_5_1.png","C_Dist_300_LN_4_LD_20_RN_13_RD_26_1.png","C_Dist_300_LN_5_LD_25_RN_6_RD_12_1.png","C_Dist_300_LN_5_LD_25_RN_7_RD_14_1.png","C_Dist_300_LN_7_LD_14_RN_20_RD_25_1.png","C_Dist_300_LN_8_LD_15_RN_10_RD_12_1.png"]],"dist300_I":[["I_Dist_300_LN_1_LD_2_RN_2_RD_10_0.png","I_Dist_300_LN_1_LD_2_RN_3_RD_15_0.png","I_Dist_300_LN_2_LD_4_RN_6_RD_30_0.png","I_Dist_300_LN_3_LD_6_RN_4_RD_20_0.png","I_Dist_300_LN_4_LD_5_RN_6_RD_12_0.png","I_Dist_300_LN_4_LD_5_RN_8_RD_16_0.png","I_Dist_300_LN_7_LD_10_RN_8_RD_20_0.png","I_Dist_300_LN_8_LD_10_RN_14_RD_28_0.png","I_Dist_300_LN_8_LD_10_RN_9_RD_18_0.png"],["I_Dist_300_LN_13_LD_26_RN_12_RD_15_1.png","I_Dist_300_LN_4_LD_20_RN_2_RD_4_1.png"]],"dist300_S":[["E_Dist_300_LN_9_LD_12_RN_9_RD_20_0.png"],["E_Dist_300_LN_18_LD_30_RN_18_RD_20_1.png","E_Dist_300_LN_3_LD_10_RN_3_RD_5_1.png","E_Dist_300_LN_9_LD_20_RN_9_RD_12_1.png"]],"dist500_C":[["C_Dist_500_LN_10_LD_13_RN_7_RD_26_0.png","C_Dist_500_LN_10_LD_15_RN_4_RD_24_0.png","C_Dist_500_LN_12_LD_16_RN_3_RD_12_0.png","C_Dist_500_LN_12_LD_18_RN_4_RD_24_0.png","C_Dist_500_LN_15_LD_18_RN_5_RD_15_0.png","C_Dist_500_LN_15_LD_20_RN_1_RD_4_0.png","C_Dist_500_LN_18_LD_27_RN_1_RD_6_0.png","C_Dist_500_LN_20_LD_24_RN_1_RD_3_0.png","C_Dist_500_LN_20_LD_24_RN_3_RD_9_0.png","C_Dist_500_LN_20_LD_24_RN_7_RD_21_0.png","C_Dist_500_LN_20_LD_28_RN_3_RD_14_0.png","C_Dist_500_LN_21_LD_28_RN_6_RD_24_0.png","C_Dist_500_LN_22_LD_28_RN_2_RD_7_0.png","C_Dist_500_LN_25_LD_30_RN_9_RD_27_0.png","C_Dist_500_LN_4_LD_6_RN_1_RD_6_0.png","C_Dist_500_LN_5_LD_6_RN_2_RD_6_0.png","C_Dist_500_LN_6_LD_9_RN_1_RD_6_0.png","C_Dist_500_LN_7_LD_10_RN_1_RD_5_0.png","C_Dist_500_LN_8_LD_12_RN_1_RD_6_0.png","C_Dist_500_LN_8_LD_12_RN_4_RD_24_0.png"],["C_Dist_500_LN_1_LD_4_RN_12_RD_16_1.png","C_Dist_500_LN_1_LD_4_RN_9_RD_12_1.png","C_Dist_500_LN_1_LD_9_RN_11_RD_18_1.png","C_Dist_500_LN_10_LD_24_RN_22_RD_24_1.png","C_Dist_500_LN_2_LD_12_RN_10_RD_15_1.png","C_Dist_500_LN_2_LD_12_RN_12_RD_18_1.png","C_Dist_500_LN_2_LD_12_RN_4_RD_6_1.png","C_Dist_500_LN_2_LD_24_RN_7_RD_12_1.png","C_Dist_500_LN_2_LD_5_RN_18_RD_20_1.png","C_Dist_500_LN_2_LD_5_RN_9_RD_10_1.png","C_Dist_500_LN_2_LD_8_RN_12_RD_16_1.png","C_Dist_500_LN_2_LD_8_RN_21_RD_28_1.png","C_Dist_500_LN_3_LD_10_RN_4_RD_5_1.png","C_Dist_500_LN_3_LD_12_RN_15_RD_20_1.png","C_Dist_500_LN_3_LD_30_RN_6_RD_10_1.png","C_Dist_500_LN_3_LD_8_RN_14_RD_16_1.png","C_Dist_500_LN_4_LD_16_RN_15_RD_20_1.png","C_Dist_500_LN_4_LD_24_RN_12_RD_18_1.png","C_Dist_500_LN_5_LD_14_RN_6_RD_7_1.png","C_Dist_500_LN_7_LD_21_RN_20_RD_24_1.png","C_Dist_500_LN_7_LD_28_RN_12_RD_16_1.png","C_Dist_500_LN_7_LD_28_RN_9_RD_12_1.png","C_Dist_500_LN_9_LD_27_RN_20_RD_24_1.png"]],"dist500_I":[["I_Dist_500_LN_2_LD_3_RN_4_RD_24_0.png","I_Dist_500_LN_5_LD_6_RN_6_RD_18_0.png","I_Dist_500_LN_7_LD_8_RN_9_RD_24_0.png"],["I_Dist_500_LN_7_LD_21_RN_5_RD_6_1.png"]],"dist500_S":[["E_Dist_500_LN_6_LD_8_RN_6_RD_24_0.png"],["E_Dist_500_LN_2_LD_12_RN_2_RD_3_1.png","E_Dist_500_LN_6_LD_24_RN_6_RD_8_1.png"]]}},{"start_time":1551793963273,"click_time":1551793966102,"finger_time":1551793964822,"fix_duration":250,"trial":1,"RT":1549,"MT":1280,"sideResp":2,"stimulus":[],"xmouse":[776,776,776,776,776,776,776,776,776,776,776,776,776,776,776,776,776,776,776,776,776,776,776,776,776,776,776,776,776,776,776,776,776,776,776,776,776,776,776,776,776,776,776,776,776,776,776,776,776,776,776,777,778,778,778,778,778,778,778,778,778,778,778,778,778,778,778,778,778,778,778,778,778,778,778,763,749,585,526,479,445,428,413,413,415,420,425,433,435,435,435,435,435,435,435,435,435,435,435,435,435,435,435,435,435,435,437,471,501,527,565,599,714,753,779,790,800,809,812,821,829,839,859,867,886,907,925,966,982,994,1011,1026,1043,1046,1047,1049,1049,1051,1053,1055,1057,1059],"ymouse":[494,494,494,494,494,494,494,494,494,494,494,494,494,494,494,494,494,494,494,494,494,494,494,494,494,494,494,494,494,494,494,494,494,494,494,494,494,494,494,494,494,494,494,494,494,494,494,494,494,494,494,494,494,494,494,494,494,494,494,494,494,494,494,494,494,494,494,494,494,494,494,494,494,494,494,485,470,389,351,317,281,259,222,201,185,178,174,170,170,170,170,170,170,170,170,170,170,170,170,170,170,170,170,170,170,170,170,170,170,177,181,185,199,199,199,199,195,185,180,171,164,158,146,141,137,134,133,129,129,127,123,121,112,110,109,107,107,104,101,98,96,95],"timestamp_mouse":[11,31,50,69,88,108,128,148,169,190,208,229,248,269,289,309,328,349,369,388,410,428,449,468,489,509,529,549,570,588,609,630,649,668,689,710,728,748,769,788,809,829,849,868,889,910,930,949,970,990,1010,1030,1050,1068,1090,1109,1129,1150,1170,1188,1208,1229,1250,1269,1290,1310,1330,1350,1369,1389,1409,1429,1448,1469,1488,1508,1529,1549,1569,1589,1608,1628,1648,1669,1688,1709,1730,1749,1768,1789,1808,1828,1848,1869,1889,1909,1928,1949,1969,1990,2009,2030,2049,2068,2089,2109,2128,2148,2170,2189,2208,2230,2249,2270,2289,2308,2328,2348,2368,2388,2409,2429,2449,2469,2489,2508,2529,2549,2568,2589,2608,2629,2649,2669,2689,2709,2729,2749,2769,2788,2808,2828],"xSR":741.5,"ySR":469.95,"xT1":424.9,"yT1":0,"xT2":1058.1,"yT2":0,"toosoon":0,"cond_shown":"Congruent","ratio_trial":100,"L_num":2,"L_den":5,"R_num":6,"R_den":12,"correct_side":2,"subjID":"AnasofiaBermudezsalazar35","gender":"1","school":"6","age":"10"},{"start_time":1551793969648,"click_time":1551793971762,"finger_time":1551793971341,"fix_duration":1144.555333869087,"trial":2,"RT":1693,"MT":421,"sideResp":1,"stimulus":[],"xmouse":[775,775,775,775,775,775,775,775,775,775,775,775,775,775,775,775,775,775,775,775,775,775,775,775,775,775,775,775,775,775,775,775,775,775,775,775,775,775,775,775,775,775,775,775,775,775,776,776,776,776,776,776,776,776,776,776,776,776,776,776,776,776,776,776,776,776,776,776,776,776,776,776,776,776,776,776,776,778,778,780,780,780,781,748,710,699,670,626,571,568,547,527,522,528,533,538,539,543,548,551,551,551,546,526,518,516],"ymouse":[486,486,486,486,486,486,486,486,486,486,486,486,486,486,486,486,486,486,486,486,486,486,486,486,486,486,486,486,486,486,486,486,486,486,486,486,486,486,486,486,486,486,486,486,486,486,486,486,486,486,486,486,486,486,486,486,486,486,486,486,486,486,486,486,486,486,486,486,486,486,486,486,486,486,486,486,486,487,487,489,489,489,489,480,465,453,430,413,362,357,328,303,289,275,267,259,255,245,229,215,205,190,176,129,109,96],"timestamp_mouse":[21,45,54,74,93,115,134,153,174,194,213,235,253,274,295,314,333,355,373,395,413,435,453,475,495,513,534,555,573,593,615,634,653,674,695,714,735,755,774,794,814,834,853,875,895,913,934,954,974,993,1014,1033,1054,1074,1094,1114,1134,1155,1174,1193,1213,1234,1254,1274,1295,1314,1335,1353,1373,1393,1414,1434,1453,1474,1493,1514,1535,1553,1574,1594,1614,1634,1653,1674,1693,1714,1734,1754,1774,1794,1813,1834,1853,1874,1893,1914,1934,1954,1973,1995,2013,2033,2053,2073,2094,2114],"xSR":741.5,"ySR":469.95,"xT1":424.9,"yT1":0,"xT2":1058.1,"yT2":0,"toosoon":0,"cond_shown":"Congruent","ratio_trial":100,"L_num":3,"L_den":20,"R_num":4,"R_den":16,"correct_side":2,"subjID":"AnasofiaBermudezsalazar35","gender":"1","school":"6","age":"10"},{"start_time":1551793974202,"click_time":1551793976222,"finger_time":1551793975842,"fix_duration":1118.0774796267672,"trial":3,"RT":1640,"MT":380,"sideResp":1,"stimulus":[],"xmouse":[797,797,797,797,797,797,797,797,797,797,797,797,797,797,797,797,797,797,797,797,797,797,797,797,797,797,797,797,797,797,797,797,797,797,797,797,797,797,797,797,797,797,797,797,797,797,797,797,797,797,797,797,797,797,797,797,797,797,797,797,797,797,797,797,797,797,797,797,797,797,797,797,797,797,797,797,797,797,797,797,797,772,742,710,676,638,593,581,571,570,570,573,575,576,578,579,580,580,580,575,546,518],"ymouse":[528,528,528,528,528,528,528,528,528,528,528,528,528,528,528,528,528,528,528,528,528,528,528,528,528,528,528,528,528,528,528,528,528,528,528,528,528,528,528,528,528,528,528,528,528,528,528,528,528,528,528,528,528,528,528,528,528,528,528,528,528,528,528,528,528,528,528,528,528,528,528,528,528,528,528,528,528,528,528,528,528,493,467,440,404,370,324,311,286,277,264,246,242,239,236,232,223,210,197,172,122,76],"timestamp_mouse":[1,32,39,59,80,100,119,140,159,180,201,220,240,260,279,299,321,340,359,380,401,419,441,461,479,501,521,540,560,580,600,621,639,661,680,701,719,740,759,781,799,820,839,861,879,900,919,941,959,981,1000,1019,1041,1060,1079,1099,1120,1140,1159,1181,1201,1219,1241,1260,1279,1300,1321,1341,1360,1379,1400,1419,1439,1461,1479,1500,1520,1540,1560,1580,1599,1619,1640,1660,1679,1700,1719,1740,1759,1780,1801,1820,1840,1860,1880,1899,1919,1940,1960,1980,2000,2019],"xSR":741.5,"ySR":469.95,"xT1":424.9,"yT1":0,"xT2":1058.1,"yT2":0,"toosoon":0,"cond_shown":"Congruent","ratio_trial":100,"L_num":11,"L_den":22,"R_num":6,"R_den":15,"correct_side":1,"subjID":"AnasofiaBermudezsalazar35","gender":"1","school":"6","age":"10"},{"start_time":1551793977775,"click_time":1551793979902,"finger_time":1551793979182,"fix_duration":250,"trial":4,"RT":1407,"MT":720,"sideResp":2,"stimulus":[],"xmouse":[799,799,799,800,800,801,801,802,802,802,802,802,802,802,802,802,802,802,802,802,802,802,802,802,802,802,802,802,802,802,802,802,802,802,802,802,802,802,802,802,802,802,802,802,802,802,802,802,802,803,803,803,803,803,803,803,803,803,803,803,803,803,803,803,803,803,803,805,819,837,858,906,943,952,974,990,993,1010,1021,1027,1031,1031,1031,1031,1034,1038,1042,1051,1057,1063,1070,1089,1092,1093,1094,1095,1095,1097,1098,1098,1098,1098,1102,1104,1105,1105,1107],"ymouse":[504,504,504,504,504,504,504,504,504,504,504,504,504,504,504,504,504,504,504,504,504,504,504,504,504,504,504,504,504,504,504,504,504,504,504,504,504,504,504,504,504,504,504,504,504,504,504,504,504,504,504,504,504,504,504,504,504,504,504,504,504,504,504,504,504,504,504,504,489,475,458,422,394,379,362,348,346,319,301,287,276,270,249,238,228,219,213,195,187,181,171,147,144,142,140,138,137,131,130,130,130,130,119,111,106,103,98],"timestamp_mouse":[9,28,47,67,86,107,127,148,166,188,208,227,248,266,288,308,327,347,367,386,408,427,446,468,486,506,528,546,568,587,607,627,648,667,688,706,727,747,767,787,808,826,847,867,887,908,927,947,967,988,1006,1027,1048,1068,1086,1108,1127,1146,1168,1186,1208,1226,1247,1267,1286,1307,1326,1347,1367,1387,1407,1427,1447,1467,1488,1506,1527,1547,1566,1587,1606,1627,1647,1667,1687,1707,1728,1747,1766,1787,1807,1828,1847,1866,1887,1906,1926,1947,1967,1986,2008,2027,2046,2067,2088,2106,2127],"xSR":741.5,"ySR":469.95,"xT1":424.9,"yT1":0,"xT2":1058.1,"yT2":0,"toosoon":0,"cond_shown":"Congruent","ratio_trial":300,"L_num":3,"L_den":6,"R_num":4,"R_den":5,"correct_side":2,"subjID":"AnasofiaBermudezsalazar35","gender":"1","school":"6","age":"10"},{"start_time":1551793982294,"click_time":1551793984222,"finger_time":1551793983782,"fix_duration":250,"trial":5,"RT":1488,"MT":440,"sideResp":2,"stimulus":[],"xmouse":[794,794,794,794,794,794,794,794,794,794,794,794,794,794,794,794,794,794,794,794,794,794,794,794,794,794,794,794,794,794,794,794,794,794,794,794,794,794,794,794,794,794,794,794,794,794,794,794,794,794,794,794,794,794,794,794,794,794,794,794,794,794,794,794,794,794,794,794,794,794,794,794,805,821,840,910,990,1013,1029,1043,1051,1062,1070,1075,1080,1084,1091,1092,1095,1096,1099,1101,1103,1106,1108,1108,1112],"ymouse":[513,513,513,513,513,513,513,513,513,513,513,513,513,513,513,513,513,513,513,513,513,513,513,513,513,513,513,513,513,513,513,513,513,513,513,513,513,513,513,513,513,513,513,513,513,513,513,513,513,513,513,513,513,513,513,513,513,513,513,513,513,513,513,513,513,513,513,513,513,513,513,513,494,471,426,362,279,251,231,210,196,170,159,152,146,141,131,130,127,124,121,118,114,110,105,103,99],"timestamp_mouse":[11,40,49,68,87,109,127,149,167,189,208,228,248,269,287,309,327,348,367,389,408,427,449,468,488,509,527,547,568,588,608,629,647,667,689,709,727,747,768,788,808,827,849,868,888,909,928,948,969,989,1009,1029,1048,1069,1088,1109,1129,1149,1167,1188,1208,1229,1247,1268,1288,1308,1328,1347,1368,1388,1408,1429,1447,1469,1488,1509,1528,1548,1568,1589,1608,1627,1647,1667,1687,1709,1728,1747,1768,1787,1807,1827,1848,1869,1887,1907,1928],"xSR":741.5,"ySR":469.95,"xT1":424.9,"yT1":0,"xT2":1058.1,"yT2":0,"toosoon":0,"cond_shown":"Incongruent","ratio_trial":300,"L_num":13,"L_den":26,"R_num":12,"R_den":15,"correct_side":2,"subjID":"AnasofiaBermudezsalazar35","gender":"1","school":"6","age":"10"},{"start_time":1551793987693,"click_time":1551793989342,"finger_time":1551793989023,"fix_duration":250,"trial":6,"RT":1330,"MT":319,"sideResp":2,"stimulus":[],"xmouse":[807,807,807,807,807,807,807,807,807,807,807,807,807,807,807,807,807,807,807,807,807,807,807,807,807,807,807,807,807,807,807,807,807,807,807,807,807,807,807,807,807,807,807,807,807,807,807,807,807,807,807,807,807,807,807,807,807,807,807,807,807,807,807,807,813,834,910,941,984,1012,1026,1033,1033,1035,1037,1039,1045,1046,1046,1048,1054,1073,1093],"ymouse":[539,539,539,539,539,539,539,539,539,539,539,539,539,539,539,539,539,539,539,539,539,539,539,539,539,539,539,539,539,539,539,539,539,539,539,539,539,539,539,539,539,539,539,539,539,539,539,539,539,539,539,539,539,539,539,539,539,539,539,539,539,539,539,537,522,485,374,311,264,238,215,196,196,192,188,185,171,163,161,156,146,115,90],"timestamp_mouse":[12,28,49,70,90,110,128,149,169,190,208,229,250,268,289,310,329,349,370,388,410,430,448,468,489,510,529,550,570,589,608,629,648,668,688,709,728,750,770,789,809,830,850,869,889,908,929,950,970,990,1009,1029,1050,1070,1090,1108,1129,1148,1170,1190,1210,1230,1249,1269,1288,1308,1330,1349,1368,1388,1409,1429,1449,1469,1488,1510,1528,1549,1569,1588,1608,1628,1649],"xSR":741.5,"ySR":469.95,"xT1":424.9,"yT1":0,"xT2":1058.1,"yT2":0,"toosoon":0,"cond_shown":"Congruent","ratio_trial":200,"L_num":3,"L_den":10,"R_num":7,"R_den":14,"correct_side":2,"subjID":"AnasofiaBermudezsalazar35","gender":"1","school":"6","age":"10"},{"start_time":1551793990974,"click_time":1551793992882,"finger_time":1551793992482,"fix_duration":250,"trial":7,"RT":1508,"MT":400,"sideResp":2,"stimulus":[],"xmouse":[782,782,782,782,782,782,782,782,782,782,783,783,783,783,783,783,783,783,783,783,783,783,783,783,783,783,783,783,783,783,783,783,783,783,783,783,783,783,783,783,783,783,783,783,783,783,783,783,783,783,783,783,783,783,783,783,783,783,783,783,783,783,783,783,783,783,783,783,783,783,783,784,784,784,802,836,865,955,999,1057,1087,1131,1160,1170,1172,1173,1173,1173,1173,1173,1173,1173,1164,1162,1159,1154],"ymouse":[510,510,510,510,510,510,510,510,510,510,511,511,511,511,511,511,511,511,511,511,511,511,511,511,511,511,511,511,511,511,511,511,511,511,511,511,511,511,511,511,511,511,511,511,511,511,511,511,511,511,511,511,511,511,511,511,511,511,511,511,511,511,511,511,511,511,511,511,511,511,511,511,512,512,493,460,431,353,315,260,226,168,129,116,112,111,111,111,111,110,108,105,100,99,97,95],"timestamp_mouse":[10,31,48,68,88,108,128,148,168,189,208,228,248,268,288,308,329,349,368,389,407,427,448,469,487,508,529,549,567,589,608,629,648,669,689,707,727,749,769,789,809,829,847,869,888,907,927,949,969,987,1007,1028,1049,1067,1089,1109,1128,1148,1168,1187,1209,1228,1248,1268,1288,1308,1327,1348,1368,1389,1408,1429,1449,1468,1488,1508,1527,1547,1568,1589,1608,1628,1648,1668,1688,1707,1727,1747,1767,1788,1808,1828,1848,1868,1889,1908],"xSR":741.5,"ySR":469.95,"xT1":424.9,"yT1":0,"xT2":1058.1,"yT2":0,"toosoon":0,"cond_shown":"Incongruent","ratio_trial":300,"L_num":4,"L_den":20,"R_num":2,"R_den":4,"correct_side":2,"subjID":"AnasofiaBermudezsalazar35","gender":"1","school":"6","age":"10"},{"start_time":1551793995271,"click_time":1551793996823,"finger_time":1551793996303,"fix_duration":649.2076391094448,"trial":8,"RT":1032,"MT":520,"sideResp":2,"stimulus":[],"xmouse":[802,802,802,802,802,802,802,802,802,802,802,802,802,802,802,802,802,802,802,802,802,802,802,802,802,802,802,802,802,802,802,802,802,802,802,802,802,802,802,802,802,802,802,802,802,802,802,802,802,801,799,806,815,822,844,861,891,917,928,943,960,970,991,998,1004,1011,1017,1023,1024,1024,1024,1024,1024,1028,1030,1038,1048,1065],"ymouse":[509,509,509,509,509,509,509,509,509,509,509,509,509,509,509,509,509,509,509,509,509,509,509,509,509,509,509,509,509,509,509,509,509,509,509,509,509,509,509,509,509,509,509,509,509,509,509,509,509,509,509,457,430,406,362,328,282,227,209,185,162,144,117,108,98,90,85,83,83,83,83,83,83,80,80,75,70,62],"timestamp_mouse":[10,46,50,72,91,111,131,152,171,192,211,230,252,271,292,311,331,351,372,390,412,430,450,470,492,511,531,551,571,592,611,632,651,671,690,712,731,752,771,791,810,831,852,870,892,911,931,950,971,991,1011,1032,1050,1070,1092,1111,1131,1150,1171,1191,1210,1231,1250,1272,1291,1310,1332,1351,1372,1391,1411,1430,1450,1471,1491,1511,1532,1552],"xSR":741.5,"ySR":469.95,"xT1":424.9,"yT1":0,"xT2":1058.1,"yT2":0,"toosoon":0,"cond_shown":"Congruent","ratio_trial":300,"L_num":1,"L_den":30,"R_num":8,"R_den":24,"correct_side":2,"subjID":"AnasofiaBermudezsalazar35","gender":"1","school":"6","age":"10"},{"start_time":1551793999027,"click_time":1551794000522,"finger_time":1551794000021,"fix_duration":404.72729124249963,"trial":9,"RT":994,"MT":501,"sideResp":2,"stimulus":[],"xmouse":[797,797,797,797,797,797,797,797,797,797,797,797,797,797,797,797,797,797,797,797,797,797,797,797,797,797,797,797,797,797,797,797,797,797,797,797,797,797,797,797,797,797,797,797,797,797,797,797,801,848,871,892,928,972,981,996,1007,1017,1031,1037,1041,1045,1045,1051,1054,1057,1060,1065,1068,1080,1083,1088,1094,1102,1109],"ymouse":[497,497,497,497,497,497,497,497,497,497,497,497,497,497,497,497,497,497,497,497,497,497,497,497,497,497,497,497,497,497,497,497,497,497,497,497,497,497,497,497,497,497,497,497,497,497,497,497,494,453,436,421,397,358,345,325,308,292,265,252,244,236,231,213,202,194,186,174,161,149,143,135,119,108,90],"timestamp_mouse":[14,46,54,74,96,115,134,156,174,196,215,236,256,274,296,314,335,355,375,396,414,436,454,474,496,516,534,556,576,595,614,634,654,676,695,716,734,756,775,796,815,836,854,874,895,915,935,956,976,994,1014,1034,1056,1076,1094,1115,1136,1155,1176,1194,1215,1236,1254,1276,1294,1314,1334,1356,1375,1396,1415,1435,1454,1475,1495],"xSR":741.5,"ySR":469.95,"xT1":424.9,"yT1":0,"xT2":1058.1,"yT2":0,"toosoon":0,"cond_shown":"Congruent","ratio_trial":300,"L_num":8,"L_den":15,"R_num":10,"R_den":12,"correct_side":2,"subjID":"AnasofiaBermudezsalazar35","gender":"1","school":"6","age":"10"},{"start_time":1551794002634,"click_time":1551794004322,"finger_time":1551794003903,"fix_duration":250,"trial":10,"RT":1269,"MT":419,"sideResp":2,"stimulus":[],"xmouse":[789,789,789,789,789,789,789,789,789,789,789,789,789,789,789,789,789,789,789,789,789,789,789,789,789,789,789,789,789,789,789,789,789,789,789,789,789,789,789,789,789,789,789,789,789,789,789,789,789,789,789,789,789,789,789,789,789,789,789,794,807,824,841,860,897,917,938,952,975,1008,1020,1032,1039,1045,1058,1062,1068,1076,1079,1085,1086,1087,1088,1089,1091],"ymouse":[545,545,545,545,545,545,545,545,545,545,545,545,545,545,545,545,545,545,545,545,545,545,545,545,545,545,545,545,545,545,545,545,545,545,545,545,545,545,545,545,545,545,545,545,545,545,545,545,545,545,545,545,545,545,545,545,545,545,545,537,522,503,487,474,439,414,386,370,335,272,249,230,209,190,157,145,134,122,117,110,107,105,103,101,99],"timestamp_mouse":[10,37,49,68,87,108,127,147,167,187,208,228,249,267,288,309,327,347,368,388,408,428,449,468,488,508,528,548,569,587,609,628,649,668,688,708,727,749,768,789,807,828,847,867,889,907,928,948,967,988,1008,1028,1049,1068,1089,1107,1129,1149,1167,1188,1208,1228,1247,1269,1288,1307,1328,1348,1368,1388,1408,1428,1447,1468,1488,1508,1527,1547,1568,1588,1607,1628,1647,1669,1688],"xSR":741.5,"ySR":469.95,"xT1":424.9,"yT1":0,"xT2":1058.1,"yT2":0,"toosoon":0,"cond_shown":"Incongruent","ratio_trial":300,"L_num":13,"L_den":26,"R_num":12,"R_den":15,"correct_side":2,"subjID":"AnasofiaBermudezsalazar35","gender":"1","school":"6","age":"10"},{"start_time":1551794007723,"click_time":1551794010023,"finger_time":1551794009463,"fix_duration":459.73525703288254,"trial":11,"RT":1740,"MT":560,"sideResp":1,"stimulus":[],"xmouse":[811,811,811,811,811,811,811,811,811,811,811,811,811,811,811,811,811,811,811,811,811,811,811,811,811,811,811,811,811,811,811,811,811,811,811,811,811,811,811,811,811,811,812,812,812,812,812,812,812,812,812,812,812,813,813,813,813,813,813,813,813,813,813,813,813,813,813,813,813,813,813,813,813,813,814,814,814,814,814,815,816,816,816,816,811,781,735,689,634,528,502,487,469,455,443,442,442,443,443,449,451,455,460,467,470,471,474,477,481,484,485,486,487,487,489],"ymouse":[524,524,524,524,524,524,524,524,524,524,524,524,524,524,524,524,524,524,524,524,524,524,524,524,524,524,524,524,524,524,524,524,524,524,524,524,524,524,524,524,524,524,524,524,524,524,524,524,524,524,524,524,524,524,524,524,524,524,524,524,524,524,524,524,524,524,524,524,524,524,524,524,525,525,525,525,525,525,525,525,527,527,527,527,524,502,471,445,415,359,338,324,306,288,260,249,246,237,232,209,197,184,172,161,155,155,151,142,135,127,126,124,122,116,97],"timestamp_mouse":[31,38,59,80,99,119,139,159,178,200,219,240,260,278,299,319,339,359,378,399,419,440,459,479,500,519,540,560,579,600,620,639,659,680,699,719,740,759,779,799,819,840,859,879,899,919,940,960,979,999,1019,1039,1060,1079,1100,1120,1140,1160,1179,1199,1219,1240,1259,1279,1299,1319,1340,1359,1380,1400,1420,1439,1460,1480,1499,1519,1539,1560,1579,1600,1619,1640,1660,1679,1699,1719,1740,1759,1780,1799,1820,1840,1860,1879,1899,1920,1940,1959,1979,2000,2019,2040,2060,2079,2100,2119,2139,2160,2179,2199,2219,2239,2259,2280,2300],"xSR":741.5,"ySR":469.95,"xT1":424.9,"yT1":0,"xT2":1058.1,"yT2":0,"toosoon":0,"cond_shown":"Incongruent","ratio_trial":100,"L_num":9,"L_den":15,"R_num":14,"R_den":28,"correct_side":1,"subjID":"AnasofiaBermudezsalazar35","gender":"1","school":"6","age":"10"},{"start_time":1551794012106,"click_time":1551794013523,"finger_time":1551794012922,"fix_duration":683.7583276109261,"trial":12,"RT":816,"MT":601,"sideResp":1,"stimulus":[],"xmouse":[773,773,773,773,773,773,773,773,773,773,773,773,773,773,773,773,773,773,773,773,773,773,773,773,773,773,773,773,773,773,773,773,773,773,773,773,773,771,771,769,741,727,712,685,654,593,578,563,554,547,527,521,510,505,495,493,493,493,494,496,498,500,504,507,507,510,510,506,499,495,489],"ymouse":[531,531,531,531,531,531,531,531,531,531,531,531,531,531,531,531,531,531,531,531,531,531,531,531,531,531,531,531,531,531,531,531,531,531,531,530,530,530,529,525,507,503,500,496,486,458,444,429,412,397,364,352,335,321,287,270,258,249,243,234,222,216,211,204,200,176,163,141,125,113,98],"timestamp_mouse":[33,37,57,77,96,116,136,156,176,196,216,237,257,277,296,317,336,356,376,396,416,436,456,476,496,516,537,557,577,597,616,637,657,676,698,716,737,757,777,796,816,836,856,876,897,916,936,956,977,996,1016,1036,1057,1076,1098,1116,1137,1156,1176,1197,1216,1236,1256,1276,1296,1317,1336,1357,1378,1396,1417],"xSR":741.5,"ySR":469.95,"xT1":424.9,"yT1":0,"xT2":1058.1,"yT2":0,"toosoon":0,"cond_shown":"Incongruent","ratio_trial":300,"L_num":4,"L_den":5,"R_num":6,"R_den":12,"correct_side":1,"subjID":"AnasofiaBermudezsalazar35","gender":"1","school":"6","age":"10"},{"start_time":1551794015860,"click_time":1551794017583,"finger_time":1551794017002,"fix_duration":994.2023591722024,"trial":13,"RT":1142,"MT":581,"sideResp":2,"stimulus":[],"xmouse":[784,784,784,784,784,784,784,784,784,784,784,784,784,784,784,784,784,784,784,784,784,784,784,784,784,784,784,784,784,784,784,784,784,784,784,784,784,784,784,784,784,784,784,784,784,784,784,784,784,784,784,784,784,784,784,788,790,805,823,827,843,849,861,888,895,910,928,950,975,979,987,987,974,972,970,970,967,966,969,973,985,996,1028,1045,1063,1076,1088],"ymouse":[537,537,537,537,537,537,537,537,537,537,537,537,537,537,537,537,537,537,537,537,537,537,537,537,537,537,537,537,537,537,537,537,537,537,537,537,537,537,537,537,537,537,537,537,537,537,537,537,537,537,537,537,537,537,537,541,544,570,593,596,602,602,603,599,595,588,573,540,499,485,450,420,347,325,313,303,290,274,249,241,223,209,175,156,134,118,98],"timestamp_mouse":[10,24,42,62,82,103,122,142,162,182,202,222,242,262,283,302,322,342,363,383,402,423,442,463,482,504,523,543,563,583,602,622,642,663,683,702,722,743,762,783,803,823,842,863,882,902,923,942,963,982,1002,1023,1043,1062,1082,1102,1122,1142,1162,1183,1203,1222,1242,1263,1283,1303,1323,1343,1362,1383,1402,1423,1443,1462,1483,1502,1522,1543,1562,1582,1602,1622,1644,1663,1683,1702,1723],"xSR":741.5,"ySR":469.95,"xT1":424.9,"yT1":0,"xT2":1058.1,"yT2":0,"toosoon":0,"cond_shown":"Congruent","ratio_trial":300,"L_num":4,"L_den":20,"R_num":13,"R_den":26,"correct_side":2,"subjID":"AnasofiaBermudezsalazar35","gender":"1","school":"6","age":"10"},{"start_time":1551794020118,"click_time":1551794022023,"finger_time":1551794021562,"fix_duration":1154.7632385278155,"trial":14,"RT":1444,"MT":461,"sideResp":1,"stimulus":[],"xmouse":[771,771,771,771,771,771,771,771,771,771,771,771,771,771,771,771,771,771,771,771,771,771,771,771,771,771,771,771,771,771,771,771,771,771,771,771,771,771,771,771,771,771,771,771,771,771,771,771,771,771,771,771,771,771,771,771,771,771,771,771,771,771,771,771,771,771,771,771,771,771,762,750,731,690,672,631,613,583,549,529,511,509,508,507,505,504,502,502,502,501,500,500,500,499,497,496],"ymouse":[517,517,517,517,517,517,517,517,517,517,517,517,517,517,517,517,517,517,517,517,517,517,517,517,517,517,517,517,517,517,517,517,517,517,517,517,517,517,517,517,517,517,517,517,517,517,517,517,517,517,517,517,517,517,517,517,517,517,517,517,517,517,517,517,517,517,517,517,517,517,505,482,455,397,367,314,286,254,220,196,170,166,161,160,156,140,137,135,132,128,126,122,118,114,105,96],"timestamp_mouse":[8,24,45,64,84,104,124,144,164,185,205,225,245,265,284,304,324,345,364,384,405,424,445,464,485,504,525,545,565,584,604,624,645,664,684,705,724,745,764,784,804,824,844,864,884,904,924,946,965,984,1004,1024,1046,1064,1085,1104,1124,1145,1164,1185,1204,1224,1244,1265,1285,1304,1324,1344,1365,1384,1404,1425,1444,1465,1486,1504,1524,1544,1565,1584,1604,1624,1645,1664,1684,1704,1724,1745,1765,1786,1805,1824,1845,1865,1884,1905],"xSR":741.5,"ySR":469.95,"xT1":424.9,"yT1":0,"xT2":1058.1,"yT2":0,"toosoon":0,"cond_shown":"Congruent","ratio_trial":200,"L_num":16,"L_den":30,"R_num":9,"R_den":27,"correct_side":1,"subjID":"AnasofiaBermudezsalazar35","gender":"1","school":"6","age":"10"},{"start_time":1551794024285,"click_time":1551794026202,"finger_time":1551794025783,"fix_duration":940.627955967019,"trial":15,"RT":1498,"MT":419,"sideResp":2,"stimulus":[],"xmouse":[753,753,753,753,753,753,753,753,753,753,753,753,753,753,753,753,753,753,753,753,753,753,753,753,753,753,753,753,753,753,753,753,753,753,753,753,753,753,753,753,753,753,753,753,753,753,753,753,753,753,753,753,753,753,753,753,753,753,753,753,753,753,753,753,753,753,753,753,753,753,753,753,755,761,803,814,964,1034,1052,1070,1074,1078,1079,1079,1081,1082,1084,1084,1084,1084,1085,1086,1086,1086,1086,1086],"ymouse":[517,517,517,517,517,517,517,517,517,517,517,517,517,517,517,517,517,517,517,517,517,517,517,517,517,517,517,517,517,517,517,517,517,517,517,517,517,517,517,517,517,517,517,517,517,517,517,517,517,517,517,517,517,517,517,517,517,517,517,517,517,517,517,517,517,517,517,517,517,517,517,517,512,501,442,426,279,219,198,181,173,161,157,155,151,141,123,118,114,111,108,103,101,100,100,99],"timestamp_mouse":[30,37,57,77,97,117,137,157,178,197,218,237,258,277,297,318,338,357,378,398,418,437,458,478,497,517,537,558,578,598,617,638,657,677,698,718,737,758,777,797,817,838,857,877,897,917,937,958,978,998,1017,1037,1058,1077,1097,1118,1137,1158,1178,1197,1218,1238,1257,1278,1298,1317,1337,1357,1378,1398,1417,1437,1457,1478,1498,1518,1537,1558,1577,1597,1617,1637,1658,1678,1698,1718,1737,1757,1777,1798,1818,1837,1858,1877,1897,1917],"xSR":741.5,"ySR":469.95,"xT1":424.9,"yT1":0,"xT2":1058.1,"yT2":0,"toosoon":0,"cond_shown":"Incongruent","ratio_trial":100,"L_num":2,"L_den":4,"R_num":8,"R_den":20,"correct_side":1,"subjID":"AnasofiaBermudezsalazar35","gender":"1","school":"6","age":"10"},{"start_time":1551794028584,"click_time":1551794030304,"finger_time":1551794029604,"fix_duration":760.0900932270829,"trial":16,"RT":1020,"MT":700,"sideResp":1,"stimulus":[],"xmouse":[812,812,812,812,812,812,812,812,812,812,812,812,812,812,812,812,812,812,812,812,812,812,812,812,812,812,812,812,812,812,812,812,812,812,812,812,812,812,812,812,812,812,812,812,812,812,812,812,812,798,748,702,639,586,525,474,431,416,401,391,375,371,368,368,368,373,388,394,403,413,417,431,439,447,457,465,472,475,475,475,469,456,455,451,450,447],"ymouse":[514,514,514,514,514,514,514,514,514,514,514,514,514,514,514,514,514,514,514,514,514,514,514,514,514,514,514,514,514,514,514,514,514,514,514,514,514,514,514,514,514,514,514,514,514,514,514,514,514,530,580,611,640,661,673,677,666,649,631,611,556,534,505,478,448,419,366,339,310,285,276,247,235,223,209,196,183,175,173,167,154,132,126,117,109,99],"timestamp_mouse":[18,44,58,78,98,118,138,158,178,199,218,239,258,279,298,318,338,358,378,399,418,438,459,478,498,518,538,558,578,598,619,638,658,678,698,718,738,758,778,798,818,838,858,878,899,919,938,959,978,998,1020,1038,1058,1078,1099,1119,1139,1158,1178,1198,1219,1238,1259,1279,1299,1318,1338,1360,1378,1399,1419,1438,1459,1478,1499,1518,1538,1562,1579,1598,1618,1639,1659,1678,1698,1720],"xSR":741.5,"ySR":469.95,"xT1":424.9,"yT1":0,"xT2":1058.1,"yT2":0,"toosoon":0,"cond_shown":"Congruent","ratio_trial":200,"L_num":13,"L_den":26,"R_num":14,"R_den":20,"correct_side":2,"subjID":"AnasofiaBermudezsalazar35","gender":"1","school":"6","age":"10"},{"start_time":1551794031856,"click_time":1551794033342,"finger_time":1551794032722,"fix_duration":250,"trial":17,"RT":866,"MT":620,"sideResp":2,"stimulus":[],"xmouse":[798,798,798,798,798,798,798,798,798,798,798,798,798,798,798,798,798,798,798,798,798,798,798,798,798,799,799,799,799,799,799,799,799,799,799,799,799,800,801,801,802,809,815,855,918,1004,1111,1252,1360,1380,1390,1394,1395,1394,1387,1378,1365,1357,1341,1331,1307,1274,1233,1220,1217,1211,1210,1203,1192,1183,1179,1170,1142,1131,1119],"ymouse":[493,493,493,493,493,493,493,493,493,493,493,493,493,493,493,493,493,493,493,493,493,493,493,493,493,493,493,493,493,493,493,493,493,493,493,493,493,493,493,493,493,504,513,540,554,565,569,539,487,469,452,439,424,392,367,342,299,271,226,211,192,176,163,161,160,158,157,153,149,145,141,135,116,105,92],"timestamp_mouse":[10,32,46,67,86,106,127,146,166,186,206,227,247,266,286,307,326,346,366,386,406,426,447,467,487,507,526,547,566,587,606,626,646,666,686,706,726,746,767,787,807,827,846,866,886,907,926,946,966,986,1006,1026,1047,1066,1087,1107,1127,1147,1167,1186,1206,1227,1248,1267,1287,1307,1326,1347,1366,1386,1407,1426,1447,1466,1486],"xSR":741.5,"ySR":469.95,"xT1":424.9,"yT1":0,"xT2":1058.1,"yT2":0,"toosoon":0,"cond_shown":"Incongruent","ratio_trial":300,"L_num":13,"L_den":26,"R_num":12,"R_den":15,"correct_side":2,"subjID":"AnasofiaBermudezsalazar35","gender":"1","school":"6","age":"10"},{"start_time":1551794035393,"click_time":1551794037023,"finger_time":1551794036642,"fix_duration":370.01621805833054,"trial":18,"RT":1249,"MT":381,"sideResp":1,"stimulus":[],"xmouse":[809,809,809,809,809,809,809,809,809,809,809,809,809,809,809,809,809,809,809,809,809,809,809,809,809,809,809,809,809,809,809,809,809,809,809,809,809,809,809,809,809,809,809,809,809,809,809,809,809,809,809,809,809,809,809,809,809,809,809,809,809,782,709,621,584,483,448,426,418,416,420,424,427,430,432,436,454,462,469,474,475,478],"ymouse":[529,529,529,529,529,529,529,529,529,529,529,529,529,529,529,529,529,529,529,529,529,529,529,529,529,529,529,529,529,529,529,529,529,529,529,529,529,529,529,529,529,529,529,529,529,529,529,529,529,529,529,529,529,529,529,529,529,529,529,529,529,508,471,427,411,347,313,275,248,226,194,188,183,179,176,172,150,140,129,117,113,99],"timestamp_mouse":[11,44,49,69,89,109,129,150,169,190,209,229,249,270,289,309,330,349,369,390,409,431,450,470,489,510,529,550,569,589,609,630,649,670,690,709,729,749,770,790,809,829,849,869,890,909,929,950,970,989,1010,1030,1049,1070,1089,1109,1130,1149,1171,1189,1209,1229,1249,1269,1290,1311,1329,1350,1370,1389,1410,1429,1450,1469,1489,1509,1529,1550,1569,1589,1610,1629],"xSR":741.5,"ySR":469.95,"xT1":424.9,"yT1":0,"xT2":1058.1,"yT2":0,"toosoon":0,"cond_shown":"Congruent","ratio_trial":200,"L_num":6,"L_den":15,"R_num":3,"R_den":15,"correct_side":1,"subjID":"AnasofiaBermudezsalazar35","gender":"1","school":"6","age":"10"},{"start_time":1551794039114,"click_time":1551794040722,"finger_time":1551794039822,"fix_duration":831.0146277642982,"trial":19,"RT":708,"MT":900,"sideResp":2,"stimulus":[],"xmouse":[777,777,777,777,777,777,777,777,777,777,777,777,777,777,777,777,777,777,777,777,777,777,777,777,777,777,777,777,777,777,777,777,777,779,801,833,846,857,879,895,936,957,969,1001,1010,1051,1062,1070,1075,1084,1094,1097,1101,1102,1101,1099,1098,1096,1095,1094,1094,1094,1093,1093,1093,1096,1096,1096,1096,1096,1096,1096,1096,1096,1096,1096,1096,1096,1096,1096,1096],"ymouse":[534,534,534,534,534,534,534,534,534,534,534,534,534,534,534,534,534,534,534,534,534,534,534,534,534,534,534,534,534,534,534,534,534,536,554,575,580,582,582,576,551,535,520,485,475,410,395,377,364,351,316,298,278,255,225,200,190,184,180,176,168,163,156,142,136,117,112,112,109,102,102,102,102,101,101,101,101,101,101,100,99],"timestamp_mouse":[15,37,48,68,88,108,129,148,169,189,208,228,248,268,289,308,328,348,368,389,410,428,449,468,488,508,529,548,569,589,609,629,649,669,689,708,728,748,769,788,808,828,850,868,889,909,928,949,968,988,1009,1028,1048,1068,1089,1109,1129,1148,1169,1188,1208,1228,1248,1268,1288,1308,1328,1348,1368,1390,1408,1428,1448,1468,1489,1509,1529,1548,1569,1588,1608],"xSR":741.5,"ySR":469.95,"xT1":424.9,"yT1":0,"xT2":1058.1,"yT2":0,"toosoon":0,"cond_shown":"Incongruent","ratio_trial":200,"L_num":11,"L_den":20,"R_num":3,"R_den":4,"correct_side":2,"subjID":"AnasofiaBermudezsalazar35","gender":"1","school":"6","age":"10"},{"start_time":1551794043498,"click_time":1551794044943,"finger_time":1551794044382,"fix_duration":1133.7022438149063,"trial":20,"RT":884,"MT":561,"sideResp":2,"stimulus":[],"xmouse":[812,812,812,812,812,812,812,812,812,812,812,812,812,812,812,812,812,811,811,811,811,811,811,811,811,811,811,811,811,811,811,811,811,811,811,811,811,811,811,811,811,814,822,831,845,864,892,911,924,931,942,967,980,989,999,1014,1028,1037,1046,1049,1049,1056,1060,1063,1065,1069,1071,1072,1074,1075,1077,1078,1078],"ymouse":[543,543,543,543,543,543,543,543,543,543,543,543,543,543,543,543,543,544,544,544,544,544,544,544,544,544,544,544,544,544,544,544,544,544,544,544,544,544,544,544,544,548,555,561,568,579,588,591,593,593,592,581,568,550,527,482,448,429,402,372,334,282,272,249,225,183,172,162,154,145,133,105,93],"timestamp_mouse":[8,24,44,64,85,104,124,145,165,185,204,224,246,264,284,304,325,346,365,385,405,424,445,464,484,505,525,544,565,585,605,625,645,665,684,704,724,744,765,785,804,824,845,865,884,904,924,944,965,985,1004,1024,1044,1065,1084,1104,1125,1144,1164,1184,1204,1224,1244,1264,1284,1305,1324,1344,1364,1385,1404,1424,1444],"xSR":741.5,"ySR":469.95,"xT1":424.9,"yT1":0,"xT2":1058.1,"yT2":0,"toosoon":0,"cond_shown":"Incongruent","ratio_trial":100,"L_num":6,"L_den":12,"R_num":3,"R_den":5,"correct_side":2,"subjID":"AnasofiaBermudezsalazar35","gender":"1","school":"6","age":"10"},{"start_time":1551794048184,"click_time":1551794049704,"finger_time":1551794049222,"fix_duration":1418.1832810759615,"trial":21,"RT":1038,"MT":482,"sideResp":1,"stimulus":[],"xmouse":[808,808,808,808,808,808,808,808,808,808,808,808,808,808,808,808,808,808,808,808,808,808,808,808,808,808,808,808,808,808,808,808,808,808,808,808,808,808,808,808,808,808,806,806,805,805,805,805,804,799,779,770,704,669,653,632,617,589,572,553,532,519,501,499,497,494,493,488,487,487,487,487,488,488,488,487,487],"ymouse":[514,514,514,514,514,514,514,514,514,514,514,514,514,514,514,514,514,514,514,514,514,514,514,514,514,514,514,514,514,514,514,514,514,514,514,514,514,514,514,514,514,514,514,514,514,514,514,514,514,514,530,539,585,594,600,600,596,568,547,519,487,464,405,372,346,312,276,225,206,186,170,155,124,117,109,101,92],"timestamp_mouse":[1,19,38,58,78,98,118,138,159,178,198,218,238,259,278,298,318,339,358,378,398,418,440,458,478,499,518,538,558,578,598,618,639,659,678,698,718,738,759,778,799,818,838,858,879,900,918,938,959,978,998,1019,1038,1058,1079,1098,1119,1139,1158,1178,1199,1218,1238,1258,1278,1299,1318,1338,1359,1379,1398,1419,1438,1459,1479,1498,1519],"xSR":741.5,"ySR":469.95,"xT1":424.9,"yT1":0,"xT2":1058.1,"yT2":0,"toosoon":0,"cond_shown":"Incongruent","ratio_trial":200,"L_num":7,"L_den":10,"R_num":8,"R_den":16,"correct_side":1,"subjID":"AnasofiaBermudezsalazar35","gender":"1","school":"6","age":"10"},{"start_time":1551794051574,"click_time":1551794053504,"finger_time":1551794053002,"fix_duration":250,"trial":22,"RT":1428,"MT":502,"sideResp":1,"stimulus":[],"xmouse":[816,816,816,816,816,816,816,816,816,816,816,816,816,816,816,816,816,816,816,816,816,816,816,816,816,816,816,816,816,816,816,816,816,816,816,816,816,816,816,816,816,816,816,816,816,816,816,816,816,816,816,816,816,816,816,816,816,816,816,816,816,816,816,816,816,816,816,817,817,813,799,736,601,568,545,528,507,459,430,410,405,400,399,399,399,399,399,402,403,403,403,403,409,414,418,424,430],"ymouse":[547,547,547,547,547,547,547,547,547,547,547,547,547,547,547,547,547,547,547,547,547,547,547,547,547,547,547,547,547,547,547,547,547,547,547,547,547,547,547,547,547,547,547,547,547,547,547,547,547,547,547,547,547,547,547,547,547,547,547,547,547,547,547,547,547,547,547,547,547,540,524,481,403,373,346,316,287,216,173,147,131,113,100,93,87,86,82,76,75,75,75,75,75,75,75,75,75],"timestamp_mouse":[10,35,48,68,88,109,128,148,168,188,209,228,248,268,288,308,328,348,368,389,409,428,448,469,489,508,528,548,568,589,609,628,649,668,688,709,728,748,769,789,809,828,848,869,888,908,929,948,969,989,1009,1029,1049,1068,1088,1108,1129,1148,1169,1188,1208,1229,1248,1268,1288,1308,1328,1349,1369,1388,1408,1428,1448,1468,1488,1508,1528,1548,1569,1589,1608,1628,1648,1668,1688,1708,1729,1748,1769,1788,1808,1829,1848,1868,1889,1908,1930],"xSR":741.5,"ySR":469.95,"xT1":424.9,"yT1":0,"xT2":1058.1,"yT2":0,"toosoon":0,"cond_shown":"Congruent","ratio_trial":200,"L_num":15,"L_den":25,"R_num":4,"R_den":10,"correct_side":1,"subjID":"AnasofiaBermudezsalazar35","gender":"1","school":"6","age":"10"},{"start_time":1551794056116,"click_time":1551794057723,"finger_time":1551794057242,"fix_duration":1451.3062997665932,"trial":23,"RT":1126,"MT":481,"sideResp":1,"stimulus":[],"xmouse":[797,797,797,797,797,797,797,797,797,797,797,797,797,797,797,797,797,797,797,797,797,797,797,797,797,797,797,797,797,797,797,797,797,797,797,797,797,797,797,797,797,797,797,797,797,797,794,789,781,776,765,758,754,753,748,743,741,737,732,709,701,682,660,635,600,588,579,576,571,564,558,555,554,554,553,549,545,542,539,527,521],"ymouse":[523,523,523,523,523,523,523,523,523,523,523,523,523,523,523,523,523,523,523,523,523,523,523,523,523,523,523,523,523,523,523,523,523,523,523,523,523,523,523,523,523,523,523,523,523,523,526,528,534,537,542,545,545,546,546,546,546,546,546,539,534,525,518,501,474,456,434,407,373,336,265,238,220,200,166,151,138,124,110,88,79],"timestamp_mouse":[12,26,46,67,86,107,127,146,166,187,207,226,246,266,286,307,326,346,367,387,406,426,448,467,486,506,527,547,566,586,606,627,646,666,686,706,727,747,766,787,806,827,847,866,886,906,926,946,968,986,1006,1027,1046,1067,1087,1106,1126,1146,1166,1187,1206,1226,1247,1267,1287,1306,1327,1346,1367,1386,1406,1426,1447,1466,1487,1506,1526,1547,1567,1588,1607],"xSR":741.5,"ySR":469.95,"xT1":424.9,"yT1":0,"xT2":1058.1,"yT2":0,"toosoon":0,"cond_shown":"Congruent","ratio_trial":100,"L_num":9,"L_den":15,"R_num":8,"R_den":16,"correct_side":1,"subjID":"AnasofiaBermudezsalazar35","gender":"1","school":"6","age":"10"},{"start_time":1551794059154,"click_time":1551794061382,"finger_time":1551794060962,"fix_duration":250,"trial":24,"RT":1808,"MT":420,"sideResp":2,"stimulus":[],"xmouse":[790,790,790,790,790,790,790,790,790,790,790,790,790,790,790,790,790,790,790,790,790,790,790,790,790,790,790,790,790,790,790,790,790,790,790,790,790,790,790,790,790,790,790,790,790,790,790,790,790,790,790,790,790,790,790,790,790,790,790,790,790,790,790,790,790,790,790,790,790,790,790,790,790,790,790,790,790,790,790,790,790,790,790,790,790,790,790,790,790,806,821,847,861,891,900,903,906,936,936,949,968,979,1004,1010,1019,1020,1020,1020,1029,1046,1063],"ymouse":[492,492,492,492,492,492,492,492,492,492,492,492,492,492,492,492,492,492,492,492,492,492,492,492,492,492,492,492,492,492,492,492,492,492,492,492,492,492,492,492,492,492,492,492,492,493,493,493,493,493,493,493,493,493,493,493,493,493,493,493,493,493,493,493,493,493,493,493,493,493,493,493,493,493,493,493,493,493,493,493,493,493,493,493,493,493,493,493,493,471,424,325,265,195,175,165,156,99,99,80,55,40,26,25,24,24,24,24,27,44,60],"timestamp_mouse":[10,35,49,69,88,108,128,148,168,188,208,229,249,268,288,308,328,349,368,388,408,428,448,468,488,508,529,548,568,588,608,628,649,668,688,708,728,749,768,788,808,828,848,868,889,909,929,948,969,989,1008,1028,1049,1068,1088,1108,1129,1148,1169,1188,1208,1229,1249,1268,1289,1309,1328,1348,1368,1388,1409,1430,1448,1468,1489,1508,1529,1549,1569,1588,1609,1629,1648,1668,1689,1709,1728,1748,1769,1788,1808,1828,1848,1868,1888,1909,1976,1978,1989,2009,2029,2055,2069,2088,2108,2128,2148,2168,2188,2208,2228],"xSR":741.5,"ySR":469.95,"xT1":424.9,"yT1":0,"xT2":1058.1,"yT2":0,"toosoon":0,"cond_shown":"Incongruent","ratio_trial":100,"L_num":12,"L_den":30,"R_num":2,"R_den":4,"correct_side":2,"subjID":"AnasofiaBermudezsalazar35","gender":"1","school":"6","age":"10"},{"start_time":1551794063492,"click_time":1551794065382,"finger_time":1551794064843,"fix_duration":947.3276752336774,"trial":25,"RT":1351,"MT":539,"sideResp":2,"stimulus":[],"xmouse":[764,764,764,764,764,764,764,764,764,764,764,764,764,764,764,764,764,764,764,764,764,764,764,764,764,764,764,764,764,764,764,764,764,764,764,764,764,764,764,764,764,764,764,764,764,764,764,764,764,764,764,764,764,764,764,764,764,764,764,764,764,764,764,764,764,764,797,828,860,899,928,961,968,976,984,993,1015,1021,1025,1028,1030,1030,1030,1030,1030,1030,1031,1035,1039,1043,1048,1051,1053,1057,1059],"ymouse":[534,534,534,534,534,534,534,534,534,534,534,534,534,534,534,534,534,534,534,534,534,534,534,534,534,534,534,534,534,534,534,534,534,534,534,534,534,534,534,534,534,534,534,534,534,534,534,534,534,534,534,534,534,534,534,534,534,534,534,534,534,534,534,534,534,534,503,468,422,367,321,241,212,187,164,142,92,76,63,55,51,50,50,50,50,50,50,50,52,53,55,55,55,56,56],"timestamp_mouse":[10,31,51,70,90,110,130,150,170,190,210,231,250,270,290,310,331,350,370,390,410,430,450,470,490,510,530,552,571,590,610,630,650,671,691,710,731,757,770,791,810,830,851,870,890,910,931,950,970,991,1010,1031,1050,1071,1091,1111,1131,1150,1171,1191,1210,1230,1250,1271,1291,1311,1330,1351,1372,1391,1410,1430,1450,1471,1491,1511,1530,1550,1570,1590,1611,1630,1650,1670,1690,1710,1730,1751,1770,1791,1812,1830,1851,1871,1890],"xSR":741.5,"ySR":469.95,"xT1":424.9,"yT1":0,"xT2":1058.1,"yT2":0,"toosoon":0,"cond_shown":"Congruent","ratio_trial":100,"L_num":4,"L_den":8,"R_num":6,"R_den":10,"correct_side":2,"subjID":"AnasofiaBermudezsalazar35","gender":"1","school":"6","age":"10"},{"start_time":1551794068170,"click_time":1551794069463,"finger_time":1551794069122,"fix_duration":1345.4972994335596,"trial":26,"RT":952,"MT":341,"sideResp":1,"stimulus":[],"xmouse":[797,797,797,797,797,797,797,797,797,797,797,797,797,797,797,797,797,797,797,797,797,797,797,797,797,797,797,797,797,797,797,797,797,797,797,797,797,797,797,797,797,797,797,797,797,797,788,729,674,624,598,590,559,553,546,537,528,511,508,501,494,489,466,457,452],"ymouse":[527,527,527,527,527,527,527,527,527,527,527,527,527,527,527,527,527,527,527,527,527,527,527,527,527,527,527,527,527,527,527,527,527,527,527,527,527,527,527,527,527,527,527,527,527,527,524,510,493,475,464,459,425,402,373,338,298,249,229,204,185,165,124,104,87],"timestamp_mouse":[13,33,53,73,93,112,132,153,172,193,212,232,252,272,292,312,332,352,372,393,413,432,452,472,493,513,532,552,573,593,613,633,652,673,692,713,733,753,773,792,812,833,852,873,892,913,932,952,972,992,1013,1033,1052,1072,1092,1113,1132,1152,1173,1192,1212,1233,1252,1272,1293],"xSR":741.5,"ySR":469.95,"xT1":424.9,"yT1":0,"xT2":1058.1,"yT2":0,"toosoon":0,"cond_shown":"Incongruent","ratio_trial":300,"L_num":1,"L_den":2,"R_num":3,"R_den":15,"correct_side":1,"subjID":"AnasofiaBermudezsalazar35","gender":"1","school":"6","age":"10"},{"start_time":1551794071154,"click_time":1551794073002,"finger_time":1551794072422,"fix_duration":250,"trial":27,"RT":1268,"MT":580,"sideResp":2,"stimulus":[],"xmouse":[754,754,754,754,754,754,754,754,754,754,754,754,754,754,754,754,754,754,754,754,754,754,754,754,754,754,754,754,754,754,754,754,754,754,754,754,754,754,754,755,756,756,756,756,756,756,756,756,756,756,756,756,756,756,756,756,756,758,758,758,758,758,778,880,928,980,1034,1149,1179,1199,1209,1211,1211,1211,1211,1212,1213,1212,1204,1202,1199,1195,1181,1177,1175,1166,1159,1153,1143,1140,1138,1136,1135],"ymouse":[513,513,513,513,513,513,513,513,513,513,513,513,513,513,513,513,513,513,513,513,513,513,513,513,513,513,513,513,513,513,513,513,513,513,513,513,513,513,513,514,514,514,514,514,514,514,514,514,514,514,514,514,514,514,514,514,514,515,515,516,516,516,531,564,578,584,584,567,551,532,512,475,449,402,379,362,346,328,299,289,278,266,236,228,220,204,186,167,137,123,112,103,97],"timestamp_mouse":[10,32,48,68,88,108,129,149,169,188,208,229,248,268,288,308,329,349,368,388,408,429,448,468,488,508,528,548,568,588,608,629,649,668,688,708,728,748,768,788,808,829,848,868,888,909,928,949,969,988,1008,1029,1049,1068,1088,1108,1128,1148,1168,1189,1209,1228,1248,1268,1288,1308,1329,1349,1368,1388,1408,1429,1449,1468,1488,1508,1529,1548,1568,1588,1609,1629,1649,1668,1689,1708,1729,1748,1768,1788,1809,1828,1848],"xSR":741.5,"ySR":469.95,"xT1":424.9,"yT1":0,"xT2":1058.1,"yT2":0,"toosoon":0,"cond_shown":"Congruent","ratio_trial":100,"L_num":12,"L_den":30,"R_num":13,"R_den":26,"correct_side":2,"subjID":"AnasofiaBermudezsalazar35","gender":"1","school":"6","age":"10"},{"start_time":1551794074956,"click_time":1551794077422,"finger_time":1551794076943,"fix_duration":732.1452037477795,"trial":28,"RT":1987,"MT":479,"sideResp":1,"stimulus":[],"xmouse":[765,765,765,765,765,765,765,765,765,765,765,765,765,765,765,765,765,765,765,765,765,765,765,765,765,765,765,765,765,765,765,765,765,765,765,765,765,765,765,765,765,765,765,764,764,764,764,764,764,764,764,764,764,764,764,764,764,764,764,764,764,764,764,764,764,764,764,764,764,764,764,764,764,764,764,764,764,764,764,764,764,764,764,764,764,764,764,764,764,764,764,764,764,764,764,764,764,764,764,720,692,648,564,522,478,428,389,359,349,349,348,348,348,356,366,373,379,399,413,425,434,434,438,446],"ymouse":[543,543,543,543,543,543,543,543,543,543,543,543,543,543,543,543,543,543,543,543,543,543,543,543,543,543,543,543,543,543,543,543,543,543,543,543,543,543,543,543,543,543,543,543,543,543,543,543,543,543,543,543,543,543,543,543,543,543,543,543,543,543,543,543,543,543,543,543,543,543,543,543,543,543,543,543,543,543,543,543,543,543,543,543,543,543,543,543,543,543,543,543,543,543,543,543,543,543,543,501,480,443,373,339,309,275,247,222,204,198,194,191,187,178,174,169,162,146,134,123,115,115,112,97],"timestamp_mouse":[10,32,47,67,86,107,128,146,166,186,206,226,247,266,287,306,326,347,367,387,407,426,447,467,486,506,527,546,566,586,608,626,647,666,686,706,726,746,766,786,807,827,846,866,886,907,926,947,966,986,1006,1026,1046,1067,1088,1107,1126,1146,1166,1186,1206,1226,1247,1266,1287,1306,1327,1347,1367,1386,1406,1426,1446,1466,1486,1507,1526,1546,1567,1587,1607,1627,1646,1666,1686,1707,1727,1747,1766,1786,1807,1827,1847,1866,1886,1906,1926,1947,1967,1987,2006,2027,2048,2066,2086,2106,2126,2147,2166,2186,2206,2226,2246,2266,2286,2306,2326,2348,2366,2387,2406,2426,2447,2466],"xSR":741.5,"ySR":469.95,"xT1":424.9,"yT1":0,"xT2":1058.1,"yT2":0,"toosoon":0,"cond_shown":"Congruent","ratio_trial":100,"L_num":6,"L_den":20,"R_num":5,"R_den":25,"correct_side":1,"subjID":"AnasofiaBermudezsalazar35","gender":"1","school":"6","age":"10"},{"start_time":1551794078873,"click_time":1551794079962,"finger_time":1551794079543,"fix_duration":250,"trial":29,"RT":670,"MT":419,"sideResp":1,"stimulus":[],"xmouse":[804,805,808,808,808,808,808,808,808,808,808,808,808,808,808,808,808,808,808,808,808,808,808,808,808,808,808,808,808,808,808,803,760,720,692,674,657,636,618,593,571,554,530,521,513,502,491,467,461,461,461,461,461,461,461],"ymouse":[523,523,525,525,525,525,525,525,525,525,525,525,525,525,525,525,525,525,525,525,525,525,525,525,525,525,525,525,525,525,525,525,490,450,411,388,364,338,320,301,282,264,231,218,203,181,164,126,117,114,114,111,106,102,97],"timestamp_mouse":[9,29,49,69,89,109,129,150,169,190,209,229,249,270,290,310,330,349,370,389,410,429,449,469,490,509,530,549,569,590,610,630,649,670,690,709,730,749,770,790,809,830,849,869,889,909,930,949,970,989,1010,1029,1049,1069,1089],"xSR":741.5,"ySR":469.95,"xT1":424.9,"yT1":0,"xT2":1058.1,"yT2":0,"toosoon":0,"cond_shown":"Incongruent","ratio_trial":300,"L_num":1,"L_den":2,"R_num":2,"R_den":10,"correct_side":1,"subjID":"AnasofiaBermudezsalazar35","gender":"1","school":"6","age":"10"},{"start_time":1551794082139,"click_time":1551794083923,"finger_time":1551794083542,"fix_duration":715.3104621489846,"trial":30,"RT":1403,"MT":381,"sideResp":1,"stimulus":[],"xmouse":[801,801,801,801,801,801,801,801,801,801,801,801,801,801,801,801,801,801,801,801,801,801,801,801,801,801,801,801,801,801,801,801,801,801,801,801,801,801,801,801,801,801,801,801,801,801,801,801,801,801,801,801,801,801,801,801,801,801,801,801,801,801,801,801,801,801,801,801,801,780,706,616,529,370,357,345,338,331,327,327,328,329,331,332,346,358,371,391,405,431],"ymouse":[497,497,497,497,497,497,497,497,497,497,497,497,497,497,497,497,497,497,497,497,497,497,497,497,497,497,497,497,497,497,497,497,497,497,497,497,497,497,497,497,497,497,497,497,497,497,497,497,497,497,497,497,497,497,497,497,497,497,497,497,497,497,497,497,497,497,497,497,496,480,441,396,355,274,255,230,208,183,166,150,145,143,141,140,128,120,111,96,84,54],"timestamp_mouse":[10,37,43,64,83,103,123,143,163,183,203,223,243,263,284,304,324,343,363,383,404,423,444,463,483,504,524,544,563,583,603,624,644,664,683,703,724,744,764,783,803,823,843,864,883,903,923,944,965,983,1003,1023,1043,1063,1084,1103,1123,1143,1164,1183,1203,1224,1244,1263,1283,1303,1323,1343,1364,1383,1403,1423,1443,1464,1483,1503,1523,1543,1563,1583,1605,1624,1644,1664,1683,1703,1724,1744,1763,1783],"xSR":741.5,"ySR":469.95,"xT1":424.9,"yT1":0,"xT2":1058.1,"yT2":0,"toosoon":0,"cond_shown":"Congruent","ratio_trial":100,"L_num":2,"L_den":5,"R_num":11,"R_den":22,"correct_side":2,"subjID":"AnasofiaBermudezsalazar35","gender":"1","school":"6","age":"10"},{"start_time":1551794088889,"click_time":1551794090683,"finger_time":1551794090142,"fix_duration":1244.0728495191497,"trial":31,"RT":1253,"MT":541,"sideResp":2,"stimulus":[],"xmouse":[805,805,805,805,805,805,805,805,805,805,805,805,805,805,805,805,805,805,805,805,805,805,805,804,804,804,804,804,804,804,804,804,804,804,804,804,804,804,804,804,804,804,804,804,804,804,804,804,804,804,804,813,815,816,818,818,823,825,825,826,828,840,849,856,871,893,905,918,934,945,981,1003,1031,1045,1057,1074,1086,1089,1091,1092,1092,1092,1092,1092,1092,1092,1092,1092,1092,1093],"ymouse":[543,543,543,543,543,543,543,543,543,543,543,543,543,543,543,543,543,543,543,543,543,543,543,543,543,543,543,543,543,543,543,543,543,543,543,543,543,543,543,543,543,543,543,543,543,543,543,543,543,543,543,536,535,535,534,533,529,526,526,523,521,503,488,477,458,417,396,375,358,337,291,261,218,190,161,135,113,106,101,100,100,100,100,100,100,100,100,100,100,96],"timestamp_mouse":[13,33,53,73,94,114,133,154,174,195,214,233,253,274,293,314,333,353,373,393,413,434,453,473,494,514,533,553,573,594,613,633,654,673,693,713,734,753,773,793,814,834,853,874,893,913,933,953,973,993,1013,1033,1053,1073,1094,1114,1133,1154,1173,1194,1213,1233,1253,1274,1294,1314,1333,1353,1373,1394,1414,1433,1453,1473,1494,1513,1533,1554,1573,1593,1615,1633,1653,1674,1694,1713,1733,1754,1774,1793],"xSR":741.5,"ySR":469.95,"xT1":424.9,"yT1":0,"xT2":1058.1,"yT2":0,"toosoon":0,"cond_shown":"Incongruent","ratio_trial":300,"L_num":13,"L_den":26,"R_num":12,"R_den":15,"correct_side":2,"subjID":"AnasofiaBermudezsalazar35","gender":"1","school":"6","age":"10"},{"start_time":1551794092514,"click_time":1551794095322,"finger_time":1551794094023,"fix_duration":370.0335445212706,"trial":32,"RT":1509,"MT":1299,"sideResp":1,"stimulus":[],"xmouse":[777,777,777,779,782,786,787,787,789,789,789,789,789,789,789,789,789,789,789,789,789,789,789,789,789,789,789,789,789,789,789,789,789,789,789,789,789,789,789,789,789,789,789,789,789,789,789,789,789,789,789,789,789,789,789,789,789,789,789,789,789,789,789,789,789,789,789,789,789,789,789,789,793,806,828,871,883,895,906,916,922,924,926,928,930,937,940,945,950,957,960,962,962,962,962,962,962,962,962,962,962,962,962,962,962,962,962,962,962,962,962,962,960,944,918,884,870,863,860,857,851,843,835,818,784,719,665,608,550,498,463,457,455,454,454,453,452,452,452,453,460],"ymouse":[562,562,562,557,555,549,546,546,545,545,545,545,545,545,545,545,545,545,545,545,545,545,545,545,545,545,545,545,545,545,545,545,545,545,545,545,545,545,545,545,545,545,545,545,545,545,545,545,545,545,545,545,545,545,545,545,545,545,545,545,545,545,545,545,545,545,545,545,545,545,545,544,538,519,484,416,384,359,339,321,299,293,288,282,277,255,249,238,230,221,215,212,212,212,212,212,212,212,212,212,212,212,212,212,212,212,212,212,212,212,212,212,211,210,210,210,210,210,210,209,209,209,209,209,209,209,209,209,209,201,192,188,186,184,183,168,156,142,131,117,91],"timestamp_mouse":[20,40,48,69,89,109,128,148,169,189,208,229,248,268,289,308,329,349,368,388,408,428,449,468,488,508,529,548,569,588,608,629,649,668,689,708,728,748,768,788,808,828,849,869,889,909,928,948,969,988,1008,1029,1048,1069,1088,1109,1128,1148,1169,1188,1209,1228,1248,1269,1289,1308,1329,1349,1368,1388,1408,1428,1449,1469,1488,1509,1528,1548,1568,1588,1608,1629,1648,1669,1688,1708,1729,1749,1768,1789,1808,1829,1848,1868,1888,1908,1929,1948,1968,1989,2008,2028,2049,2068,2088,2109,2129,2148,2168,2189,2209,2228,2248,2268,2289,2308,2329,2348,2369,2389,2408,2428,2449,2470,2488,2508,2528,2548,2569,2589,2608,2628,2648,2669,2688,2708,2728,2748,2768,2788,2808],"xSR":741.5,"ySR":469.95,"xT1":424.9,"yT1":0,"xT2":1058.1,"yT2":0,"toosoon":0,"cond_shown":"Incongruent","ratio_trial":200,"L_num":1,"L_den":3,"R_num":2,"R_den":15,"correct_side":1,"subjID":"AnasofiaBermudezsalazar35","gender":"1","school":"6","age":"10"},{"start_time":1551794098897,"click_time":1551794100003,"finger_time":1551794099603,"fix_duration":874.0350890676021,"trial":33,"RT":706,"MT":400,"sideResp":1,"stimulus":[],"xmouse":[760,760,760,760,760,760,760,760,760,760,760,760,760,760,760,760,760,760,760,760,760,760,760,760,760,760,760,760,760,760,760,760,760,758,751,735,660,637,621,605,565,547,538,531,528,526,526,526,526,526,526,526,526,526,526,523],"ymouse":[495,495,495,495,495,495,495,495,495,495,495,495,495,495,495,495,495,495,495,495,495,495,495,495,495,495,495,495,495,495,495,495,495,488,478,461,414,395,378,363,321,300,282,269,251,216,198,179,163,146,116,107,96,88,82,73],"timestamp_mouse":[8,38,46,66,85,106,126,146,165,185,206,226,246,265,285,306,325,346,365,386,405,425,445,466,486,506,525,545,565,585,605,626,646,665,685,706,725,745,766,786,806,825,846,865,885,906,925,945,966,986,1008,1025,1046,1066,1085,1105],"xSR":741.5,"ySR":469.95,"xT1":424.9,"yT1":0,"xT2":1058.1,"yT2":0,"toosoon":0,"cond_shown":"Incongruent","ratio_trial":200,"L_num":4,"L_den":5,"R_num":6,"R_den":10,"correct_side":1,"subjID":"AnasofiaBermudezsalazar35","gender":"1","school":"6","age":"10"},{"start_time":1551794102152,"click_time":1551794103983,"finger_time":1551794103682,"fix_duration":929.7475586386728,"trial":34,"RT":1530,"MT":301,"sideResp":2,"stimulus":[],"xmouse":[760,760,760,760,760,760,760,760,760,760,760,760,760,760,760,760,760,760,760,760,760,760,760,760,760,760,760,760,760,760,760,760,760,760,760,760,760,760,760,760,760,760,760,760,760,760,760,760,760,760,760,760,760,760,760,760,760,760,760,760,760,760,760,760,760,760,760,760,760,760,760,763,784,784,800,804,819,836,853,858,861,863,866,869,874,888,906,974,1022,1056,1089,1109],"ymouse":[548,548,548,548,548,548,548,548,548,548,548,548,548,548,548,548,548,548,548,548,548,548,548,548,548,548,548,548,548,548,548,548,548,548,548,548,548,548,548,548,548,548,548,548,548,548,548,548,548,549,549,549,549,549,549,549,549,549,549,549,549,549,549,549,549,549,549,549,549,549,549,544,522,517,493,491,451,415,385,373,365,357,342,332,322,300,279,225,185,151,116,88],"timestamp_mouse":[10,40,50,71,91,110,130,150,171,191,211,231,250,270,290,310,331,350,371,391,411,430,450,471,490,510,531,551,570,590,611,630,650,671,690,711,731,750,770,790,810,831,850,870,890,910,930,951,970,990,1010,1030,1050,1070,1090,1110,1130,1150,1171,1190,1210,1230,1250,1270,1290,1310,1330,1350,1370,1390,1410,1430,1451,1470,1490,1510,1530,1550,1570,1590,1611,1630,1650,1670,1691,1710,1731,1751,1771,1790,1810,1830],"xSR":741.5,"ySR":469.95,"xT1":424.9,"yT1":0,"xT2":1058.1,"yT2":0,"toosoon":0,"cond_shown":"Congruent","ratio_trial":300,"L_num":2,"L_den":10,"R_num":12,"R_den":24,"correct_side":2,"subjID":"AnasofiaBermudezsalazar35","gender":"1","school":"6","age":"10"},{"start_time":1551794111694,"click_time":1551794113562,"finger_time":1551794113142,"fix_duration":770.516039045343,"trial":35,"RT":1448,"MT":420,"sideResp":1,"stimulus":[],"xmouse":[810,810,810,810,810,810,810,810,810,810,810,810,810,810,810,810,810,810,810,810,810,810,810,810,810,810,810,810,810,810,810,810,810,810,810,810,810,810,810,810,810,810,810,810,810,810,810,810,810,810,810,810,810,810,810,810,810,810,810,810,810,810,810,810,810,810,810,810,810,810,810,791,769,747,716,665,649,640,630,615,591,482,455,444,440,440,440,440,440,439,438,439,443,445],"ymouse":[525,525,525,525,525,525,525,525,525,525,525,525,525,525,525,525,525,525,525,525,525,525,525,525,525,525,525,525,525,525,525,525,525,525,525,525,525,525,525,525,525,525,525,525,525,525,525,525,525,525,525,525,525,525,525,525,525,525,525,525,525,525,525,525,525,525,525,525,525,525,522,489,461,430,395,328,309,295,283,269,252,199,184,176,172,172,170,168,164,159,152,124,108,92],"timestamp_mouse":[11,43,48,68,88,108,129,148,168,188,209,229,249,269,289,308,329,348,368,388,408,428,448,470,489,509,528,548,568,589,608,628,648,669,688,708,729,748,768,790,808,828,849,869,888,909,928,948,968,989,1008,1029,1049,1068,1089,1108,1129,1148,1169,1188,1208,1229,1248,1269,1289,1308,1328,1349,1369,1388,1409,1428,1448,1468,1488,1510,1528,1548,1568,1588,1608,1628,1648,1669,1689,1708,1728,1748,1768,1789,1808,1829,1848,1868],"xSR":741.5,"ySR":469.95,"xT1":424.9,"yT1":0,"xT2":1058.1,"yT2":0,"toosoon":0,"cond_shown":"Incongruent","ratio_trial":100,"L_num":10,"L_den":25,"R_num":8,"R_den":16,"correct_side":2,"subjID":"AnasofiaBermudezsalazar35","gender":"1","school":"6","age":"10"},{"start_time":1551794114842,"click_time":1551794115642,"finger_time":1551794115203,"fix_duration":337.31225669533313,"trial":36,"RT":361,"MT":439,"sideResp":2,"stimulus":[],"xmouse":[831,831,831,831,831,831,831,831,830,829,828,828,828,828,828,828,825,824,825,828,830,837,843,850,856,848,842,833,818,818,825,845,889,934,979,985,986,987,991,1035,1094],"ymouse":[498,498,498,498,498,498,498,498,498,498,498,498,498,498,498,498,497,492,451,424,396,363,336,310,278,268,264,261,252,243,224,200,170,146,121,115,112,111,108,91,72],"timestamp_mouse":[9,21,47,61,81,101,120,140,160,181,200,221,241,260,280,300,320,340,361,380,400,421,441,460,480,500,520,540,561,580,600,620,640,660,680,700,720,740,760,780,800],"xSR":741.5,"ySR":469.95,"xT1":424.9,"yT1":0,"xT2":1058.1,"yT2":0,"toosoon":0,"cond_shown":"Incongruent","ratio_trial":200,"L_num":4,"L_den":6,"R_num":14,"R_den":30,"correct_side":1,"subjID":"AnasofiaBermudezsalazar35","gender":"1","school":"6","age":"10"},{"start_time":1551794118222,"click_time":1551794120162,"finger_time":1551794119683,"fix_duration":1217.6988351369678,"trial":37,"RT":1461,"MT":479,"sideResp":2,"stimulus":[],"xmouse":[781,781,781,781,781,781,781,781,781,781,781,781,781,781,781,781,781,781,781,781,781,781,781,781,781,781,781,781,781,781,781,781,781,781,781,781,781,781,781,781,781,781,781,781,781,781,781,781,781,781,781,781,781,781,781,781,781,781,781,781,781,781,781,781,781,781,781,781,781,781,784,802,817,850,890,934,947,952,955,960,965,971,975,978,979,990,999,1010,1021,1021,1021,1021,1021,1021,1021,1021,1021,1119],"ymouse":[533,533,533,533,533,533,533,533,533,533,533,533,533,533,533,533,533,533,533,533,533,533,533,533,533,533,533,533,533,533,533,533,533,533,533,533,533,533,533,533,533,533,533,533,533,533,533,533,533,533,533,533,533,533,533,533,533,533,533,533,533,533,533,533,533,533,533,533,533,533,530,509,485,451,419,379,358,341,322,250,209,168,140,118,104,65,46,24,1,1,1,1,1,1,1,1,1,1],"timestamp_mouse":[8,32,40,60,80,100,120,141,161,181,200,220,241,260,280,300,321,340,361,381,401,421,441,461,481,500,521,541,561,581,600,621,641,660,680,700,721,741,761,780,800,820,840,861,880,901,920,940,961,980,999,1020,1040,1061,1081,1100,1121,1140,1160,1181,1201,1221,1240,1261,1281,1301,1320,1341,1360,1380,1401,1420,1441,1461,1480,1500,1520,1540,1560,1581,1604,1620,1640,1661,1680,1700,1720,1741,1760,1781,1800,1820,1840,1860,1881,1901,1920,1940],"xSR":741.5,"ySR":469.95,"xT1":424.9,"yT1":0,"xT2":1058.1,"yT2":0,"toosoon":0,"cond_shown":"Congruent","ratio_trial":200,"L_num":3,"L_den":10,"R_num":14,"R_den":28,"correct_side":2,"subjID":"AnasofiaBermudezsalazar35","gender":"1","school":"6","age":"10"},{"start_time":1551794124560,"click_time":1551794126542,"finger_time":1551794126002,"fix_duration":1476.3311913101263,"trial":38,"RT":1442,"MT":540,"sideResp":1,"stimulus":[],"xmouse":[774,774,774,774,774,774,774,774,774,774,774,774,774,774,774,774,774,774,774,774,774,774,774,774,774,774,774,774,774,774,774,774,774,774,774,774,774,774,774,774,774,774,774,774,774,774,774,774,774,774,774,774,774,774,774,774,774,774,774,774,774,774,774,774,774,774,774,774,774,774,767,758,722,545,454,376,324,291,284,283,283,283,283,284,288,294,299,308,325,333,341,354,354,354,354,354,354,354,354,436],"ymouse":[518,518,518,518,518,518,518,518,518,518,518,518,518,518,518,518,518,518,518,518,518,518,518,518,518,518,518,518,518,518,518,518,518,518,518,518,518,518,518,518,518,518,518,518,518,518,518,518,518,518,518,518,518,518,518,518,518,518,518,518,518,518,518,518,518,518,518,518,518,518,512,503,472,371,317,280,245,214,201,196,192,189,186,171,162,149,136,118,76,56,36,6,6,6,6,6,6,6,6,10],"timestamp_mouse":[10,22,43,62,83,103,122,143,162,183,203,222,243,263,284,303,322,343,362,383,403,424,442,463,482,502,523,543,562,583,603,623,642,662,683,703,723,743,762,782,802,822,842,863,882,902,922,942,963,982,1003,1022,1042,1062,1082,1102,1122,1142,1162,1182,1202,1222,1243,1263,1282,1302,1322,1342,1362,1384,1402,1423,1442,1462,1482,1502,1522,1543,1563,1583,1603,1622,1643,1662,1682,1703,1722,1743,1762,1783,1802,1822,1842,1862,1882,1902,1922,1943,1962,1982],"xSR":741.5,"ySR":469.95,"xT1":424.9,"yT1":0,"xT2":1058.1,"yT2":0,"toosoon":0,"cond_shown":"Congruent","ratio_trial":300,"L_num":11,"L_den":22,"R_num":4,"R_den":20,"correct_side":1,"subjID":"AnasofiaBermudezsalazar35","gender":"1","school":"6","age":"10"},{"start_time":1551794128554,"click_time":1551794129822,"finger_time":1551794129542,"fix_duration":250,"trial":39,"RT":988,"MT":280,"sideResp":2,"stimulus":[],"xmouse":[805,805,805,805,805,805,805,805,805,805,805,805,805,805,805,805,805,805,805,805,805,805,805,805,805,805,805,805,805,805,805,805,805,805,805,805,805,805,805,805,805,805,805,805,805,805,805,811,831,851,880,905,922,960,994,1024,1043,1081,1091,1095,1095,1095,1095,1085],"ymouse":[558,558,558,558,558,558,558,558,558,558,558,558,558,558,558,558,558,558,558,558,558,558,558,558,558,558,558,558,558,558,558,558,558,558,558,558,558,558,558,558,558,558,558,558,558,558,558,552,543,531,513,496,477,433,393,349,323,237,199,176,153,132,115,67],"timestamp_mouse":[8,27,47,67,89,107,127,147,168,187,208,227,247,268,288,308,329,347,368,389,407,427,448,467,487,507,529,547,568,587,609,627,648,667,687,707,727,747,767,787,807,828,849,867,888,907,927,947,967,988,1007,1028,1047,1067,1087,1107,1127,1148,1167,1187,1208,1229,1248,1268],"xSR":741.5,"ySR":469.95,"xT1":424.9,"yT1":0,"xT2":1058.1,"yT2":0,"toosoon":0,"cond_shown":"Incongruent","ratio_trial":100,"L_num":9,"L_den":18,"R_num":6,"R_den":10,"correct_side":2,"subjID":"AnasofiaBermudezsalazar35","gender":"1","school":"6","age":"10"},{"start_time":1551794132596,"click_time":1551794135321,"finger_time":1551794134521,"fix_duration":1374.3047488340196,"trial":40,"RT":1925,"MT":800,"sideResp":1,"stimulus":[],"xmouse":[806,806,806,806,806,806,806,806,806,806,806,806,806,806,806,806,806,806,806,806,806,806,806,806,806,806,806,806,806,806,806,806,806,806,806,806,806,806,806,806,806,806,806,806,806,806,806,806,806,806,806,806,806,806,806,806,806,806,806,806,806,806,806,806,806,806,806,806,806,806,806,806,806,806,806,806,806,806,806,806,806,806,806,806,806,806,806,806,806,805,802,799,799,799,799,800,808,814,820,825,830,832,832,832,828,818,787,766,740,712,634,608,590,575,560,548,530,525,519,518,517,517,517,517,517,517,509,503,498,494,491,488,488,486,484,481,470],"ymouse":[528,528,528,528,528,528,528,528,528,528,528,528,528,528,528,528,528,528,528,528,528,528,528,528,528,528,528,528,528,528,528,528,528,528,528,528,528,528,528,528,528,528,528,528,528,528,528,528,528,528,528,528,528,528,528,528,528,528,528,528,528,528,528,528,528,528,528,528,528,528,528,528,528,528,528,528,528,528,528,528,528,528,528,528,528,528,528,528,528,521,510,492,485,482,478,471,454,440,423,404,382,357,351,343,334,324,315,312,304,296,266,256,248,238,231,223,212,205,196,190,182,172,165,158,155,151,140,135,131,129,127,126,126,124,121,116,98],"timestamp_mouse":[11,41,47,66,86,105,125,146,166,185,205,226,245,265,286,305,325,345,366,385,406,425,446,465,486,507,525,546,566,587,605,626,646,666,685,705,725,747,765,786,806,826,845,866,887,907,927,946,965,985,1005,1026,1046,1065,1086,1105,1125,1145,1166,1186,1206,1227,1245,1265,1286,1306,1325,1345,1365,1385,1406,1425,1446,1466,1487,1507,1525,1546,1567,1585,1606,1625,1646,1665,1686,1706,1727,1746,1765,1786,1806,1826,1845,1865,1886,1906,1925,1947,1965,1986,2005,2025,2046,2065,2086,2106,2125,2146,2166,2186,2206,2225,2246,2266,2285,2305,2325,2345,2365,2385,2406,2426,2445,2466,2486,2506,2525,2546,2566,2585,2607,2627,2645,2666,2687,2706,2725],"xSR":741.5,"ySR":469.95,"xT1":424.9,"yT1":0,"xT2":1058.1,"yT2":0,"toosoon":0,"cond_shown":"Congruent","ratio_trial":300,"L_num":2,"L_den":20,"R_num":10,"R_den":25,"correct_side":2,"subjID":"AnasofiaBermudezsalazar35","gender":"1","school":"6","age":"10"},{"start_time":1551794140060,"click_time":1551794141742,"finger_time":1551794141241,"fix_duration":1277.8550860562507,"trial":41,"RT":1181,"MT":501,"sideResp":2,"stimulus":[],"xmouse":[767,767,767,767,767,767,767,767,767,767,767,767,767,767,767,767,767,767,767,767,767,767,767,767,767,767,767,767,767,767,767,767,767,767,767,767,767,767,767,767,767,767,767,767,767,767,767,767,767,767,767,767,767,767,767,767,771,774,821,899,985,1027,1060,1076,1077,1077,1075,1071,1072,1080,1081,1081,1081,1081,1081,1081,1081,1081,1082,1082,1083,1085,1089,1098,1102],"ymouse":[529,529,529,529,529,529,529,529,529,529,529,529,529,529,529,529,529,529,529,529,529,529,529,529,529,529,529,529,529,529,529,529,529,529,529,529,529,529,529,529,529,529,529,529,529,529,529,529,529,529,529,529,529,529,529,529,532,535,555,562,567,567,563,550,547,541,530,494,414,362,313,264,225,182,168,162,158,153,153,152,149,143,136,112,97],"timestamp_mouse":[9,22,44,61,81,101,121,141,162,181,202,221,243,261,281,301,321,341,361,381,401,421,441,461,481,501,522,542,562,581,601,623,642,661,681,701,721,741,762,783,802,821,841,863,881,902,921,942,961,981,1001,1022,1041,1061,1081,1102,1121,1142,1163,1181,1201,1222,1242,1261,1282,1301,1321,1342,1361,1381,1401,1422,1441,1461,1482,1502,1521,1542,1561,1581,1601,1622,1641,1661,1682],"xSR":741.5,"ySR":469.95,"xT1":424.9,"yT1":0,"xT2":1058.1,"yT2":0,"toosoon":0,"cond_shown":"Congruent","ratio_trial":200,"L_num":3,"L_den":12,"R_num":9,"R_den":20,"correct_side":2,"subjID":"AnasofiaBermudezsalazar35","gender":"1","school":"6","age":"10"},{"start_time":1551794143821,"click_time":1551794145402,"finger_time":1551794144962,"fix_duration":837.92030583104,"trial":42,"RT":1141,"MT":440,"sideResp":2,"stimulus":[],"xmouse":[809,809,809,809,809,809,809,809,809,809,809,809,809,809,809,809,809,809,809,809,809,809,809,809,809,809,809,809,809,809,809,809,809,809,809,809,809,809,809,809,809,809,809,809,809,809,809,809,809,809,819,824,827,829,830,830,834,849,866,873,888,900,913,922,935,950,960,966,971,971,976,982,985,988,993,1008,1014,1020,1032,1077],"ymouse":[542,542,542,542,542,542,542,542,542,542,542,542,542,542,542,542,542,542,542,542,542,542,542,542,542,542,542,542,542,542,542,542,542,542,542,542,542,542,542,542,542,542,542,542,542,542,542,542,542,542,542,542,542,542,542,542,542,542,542,541,536,529,517,504,477,417,378,337,275,242,194,172,153,134,115,85,75,66,60,52],"timestamp_mouse":[9,34,41,60,80,102,120,142,161,180,200,220,241,261,280,301,320,341,361,380,400,420,441,461,480,500,520,541,560,580,602,621,640,660,680,701,720,741,761,780,800,820,841,861,881,900,920,941,960,980,1001,1021,1041,1060,1080,1100,1120,1141,1161,1180,1201,1221,1240,1260,1280,1300,1321,1340,1361,1381,1400,1420,1441,1460,1480,1500,1520,1540,1561,1581],"xSR":741.5,"ySR":469.95,"xT1":424.9,"yT1":0,"xT2":1058.1,"yT2":0,"toosoon":0,"cond_shown":"Incongruent","ratio_trial":100,"L_num":12,"L_den":30,"R_num":2,"R_den":4,"correct_side":2,"subjID":"AnasofiaBermudezsalazar35","gender":"1","school":"6","age":"10"},{"start_time":1551794147495,"click_time":1551794150622,"finger_time":1551794149101,"fix_duration":490.5651258399971,"trial":43,"RT":1606,"MT":1521,"sideResp":1,"stimulus":[],"xmouse":[788,788,788,788,788,788,788,788,788,788,788,788,788,788,788,788,788,788,788,788,788,788,788,788,788,788,788,788,788,788,788,788,788,788,788,788,788,788,788,788,788,788,788,788,788,788,788,788,788,788,788,788,788,788,788,788,788,788,788,788,788,788,788,788,788,788,788,788,788,788,788,788,788,788,788,788,789,796,809,830,856,937,977,996,1004,1004,1004,1004,1003,1003,1003,1003,1003,1003,1007,1020,1036,1041,1042,1042,1042,1042,1042,1042,1042,1042,1042,1042,1042,1042,1042,1042,1042,1042,1040,1034,995,975,956,940,905,886,862,826,785,752,735,726,719,712,703,694,691,686,677,666,622,586,542,493,389,331,302,289,287,287,287,287,293,305,314,334,351,367,382,422,439],"ymouse":[558,558,558,558,558,558,558,558,558,558,558,558,558,558,558,558,558,558,558,558,558,558,558,558,558,558,558,558,558,558,558,558,558,558,558,558,558,558,558,558,558,558,558,558,558,558,558,558,558,558,558,558,558,558,558,558,558,558,558,558,558,558,558,558,558,558,558,558,558,558,558,558,558,558,558,558,558,550,529,482,420,279,222,188,163,160,153,152,148,144,141,139,138,137,134,128,119,116,115,114,114,114,114,114,114,114,114,114,114,114,114,114,114,114,116,121,156,172,187,198,210,214,217,221,221,221,213,205,196,189,181,170,166,158,153,149,139,132,127,121,105,92,84,79,77,77,77,77,75,72,68,63,61,58,54,46,44],"timestamp_mouse":[14,40,47,66,86,106,127,147,167,187,206,227,247,266,287,306,326,346,366,387,406,426,448,466,487,507,528,546,566,586,607,627,646,668,687,708,726,746,767,788,807,827,847,868,887,907,927,946,966,987,1007,1026,1047,1066,1086,1107,1128,1146,1166,1187,1208,1226,1246,1267,1286,1307,1326,1347,1366,1387,1408,1427,1447,1466,1486,1508,1526,1546,1567,1587,1606,1626,1646,1667,1686,1707,1726,1747,1766,1788,1807,1826,1847,1867,1887,1906,1926,1948,1966,1986,2006,2026,2046,2066,2087,2107,2126,2146,2167,2187,2207,2226,2246,2266,2286,2308,2327,2346,2366,2387,2408,2426,2447,2466,2486,2506,2526,2547,2566,2586,2606,2626,2646,2668,2687,2706,2726,2747,2766,2787,2807,2826,2846,2867,2887,2907,2926,2946,2966,2987,3007,3026,3047,3066,3086,3107,3127],"xSR":741.5,"ySR":469.95,"xT1":424.9,"yT1":0,"xT2":1058.1,"yT2":0,"toosoon":0,"cond_shown":"Congruent","ratio_trial":200,"L_num":7,"L_den":15,"R_num":18,"R_den":27,"correct_side":2,"subjID":"AnasofiaBermudezsalazar35","gender":"1","school":"6","age":"10"},{"start_time":1551794152805,"click_time":1551794154121,"finger_time":1551794153702,"fix_duration":1082.7944384333687,"trial":44,"RT":897,"MT":419,"sideResp":1,"stimulus":[],"xmouse":[805,805,805,805,805,805,805,805,805,805,805,805,805,805,805,805,805,805,805,805,805,805,805,805,805,805,805,805,805,805,805,805,805,805,805,805,805,805,805,805,806,806,789,760,728,605,545,491,462,420,373,368,368,368,372,384,387,389,392,402,406,410,415,419,423,429],"ymouse":[495,495,495,495,495,495,495,495,495,495,495,495,495,495,495,495,495,495,495,495,495,495,495,495,495,495,495,495,495,495,495,495,495,495,495,495,495,495,495,495,497,497,504,511,521,551,557,557,549,527,468,442,416,386,360,309,286,264,249,208,189,170,152,134,122,97],"timestamp_mouse":[32,36,57,77,97,116,136,158,176,198,217,238,256,278,297,316,337,356,376,397,417,436,456,476,498,517,537,557,576,596,617,636,656,678,696,717,737,758,777,796,816,836,857,877,897,916,936,957,976,997,1017,1037,1056,1077,1096,1117,1136,1156,1177,1197,1216,1236,1258,1276,1296,1316],"xSR":741.5,"ySR":469.95,"xT1":424.9,"yT1":0,"xT2":1058.1,"yT2":0,"toosoon":0,"cond_shown":"Incongruent","ratio_trial":300,"L_num":4,"L_den":5,"R_num":8,"R_den":16,"correct_side":1,"subjID":"AnasofiaBermudezsalazar35","gender":"1","school":"6","age":"10"},{"start_time":1551794156391,"click_time":1551794158302,"finger_time":1551794157362,"fix_duration":1148.5673520531318,"trial":45,"RT":971,"MT":940,"sideResp":1,"stimulus":[],"xmouse":[836,836,836,836,836,836,836,836,836,836,836,836,836,836,836,836,836,836,836,836,836,836,836,836,836,836,836,836,836,836,836,836,836,836,836,836,836,836,836,836,836,836,836,836,836,835,821,809,794,781,771,756,752,745,736,700,667,595,526,456,386,342,332,328,325,324,324,324,324,324,324,325,326,329,334,338,349,353,358,366,374,385,389,391,392,392,394,394,394,394,394,394,399,406,418,432],"ymouse":[491,491,491,491,491,491,491,491,491,491,491,491,491,491,491,491,491,491,491,491,491,491,491,491,491,491,491,491,491,491,491,491,491,491,491,491,491,491,491,491,491,491,491,491,491,499,529,551,573,593,608,635,640,647,650,653,653,639,621,604,582,550,536,519,503,481,443,424,408,395,364,351,338,324,307,294,261,243,225,207,182,152,139,134,130,127,124,124,124,124,124,123,119,112,103,94],"timestamp_mouse":[10,39,51,70,90,110,130,151,170,190,211,230,251,272,291,311,330,351,370,390,410,430,451,472,490,510,530,551,571,590,610,631,650,670,690,710,731,752,771,790,811,831,850,870,890,910,930,951,971,991,1010,1031,1050,1070,1091,1111,1130,1150,1171,1191,1210,1231,1250,1270,1290,1310,1330,1350,1371,1391,1411,1430,1451,1471,1491,1512,1530,1551,1570,1591,1611,1630,1650,1671,1690,1710,1730,1750,1771,1791,1811,1830,1851,1871,1891,1911],"xSR":741.5,"ySR":469.95,"xT1":424.9,"yT1":0,"xT2":1058.1,"yT2":0,"toosoon":0,"cond_shown":"Congruent","ratio_trial":300,"L_num":20,"L_den":25,"R_num":8,"R_den":16,"correct_side":1,"subjID":"AnasofiaBermudezsalazar35","gender":"1","school":"6","age":"10"},{"start_time":1551794160383,"click_time":1551794162103,"finger_time":1551794161762,"fix_duration":920.8583025360149,"trial":46,"RT":1379,"MT":341,"sideResp":2,"stimulus":[],"xmouse":[823,823,823,823,823,823,823,823,823,823,823,823,823,823,823,823,823,823,823,823,823,823,823,823,823,823,823,823,823,823,823,823,823,823,823,823,823,823,823,823,823,823,823,823,823,823,823,823,823,823,823,823,823,823,823,823,823,823,823,823,823,823,823,823,823,823,823,839,851,883,906,948,963,972,978,981,981,983,987,993,1000,1023,1034,1043,1054,1078],"ymouse":[538,538,538,538,538,538,538,538,538,538,538,538,538,538,538,538,538,538,538,538,538,538,538,538,538,538,538,538,538,538,538,538,538,538,538,538,538,538,538,538,538,538,538,538,538,538,538,538,538,538,538,538,538,538,538,538,538,538,538,538,538,538,538,538,538,538,538,532,523,480,433,336,291,256,233,201,184,169,154,135,118,86,75,67,58,45],"timestamp_mouse":[35,38,59,78,99,118,138,159,179,198,220,239,258,278,298,320,338,358,378,399,418,438,459,478,499,518,539,559,579,598,618,638,658,678,698,719,738,760,778,799,819,838,858,878,898,920,938,958,978,998,1019,1039,1058,1078,1098,1118,1138,1159,1179,1198,1219,1238,1259,1278,1299,1318,1339,1358,1379,1399,1418,1438,1459,1478,1498,1519,1538,1559,1580,1599,1618,1640,1659,1680,1700,1720],"xSR":741.5,"ySR":469.95,"xT1":424.9,"yT1":0,"xT2":1058.1,"yT2":0,"toosoon":0,"cond_shown":"Congruent","ratio_trial":100,"L_num":3,"L_den":6,"R_num":2,"R_den":5,"correct_side":1,"subjID":"AnasofiaBermudezsalazar35","gender":"1","school":"6","age":"10"},{"start_time":1551794164797,"click_time":1551794167221,"finger_time":1551794165941,"fix_duration":1213.9208768505725,"trial":47,"RT":1144,"MT":1280,"sideResp":2,"stimulus":[],"xmouse":[797,797,797,797,797,797,797,797,797,797,797,797,797,797,797,797,797,797,796,792,788,784,784,782,780,780,780,779,779,779,779,779,779,779,779,779,779,779,779,779,779,779,779,779,779,779,779,779,779,780,781,784,789,799,803,815,835,858,897,965,1074,1181,1204,1210,1212,1212,1216,1216,1213,1204,1189,1178,1176,1172,1167,1160,1159,1159,1159,1159,1159,1159,1159,1159,1159,1159,1159,1159,1159,1159,1159,1159,1159,1159,1159,1159,1159,1159,1159,1159,1159,1159,1159,1159,1159,1159,1159,1159,1159,1159,1159,1159,1159,1159,1159,1159,1159,1159,1159,1159,1159,1127],"ymouse":[557,557,557,557,557,557,557,557,557,557,557,557,557,557,557,557,557,557,557,550,542,535,534,532,529,528,528,527,527,527,527,527,527,527,527,527,527,528,528,528,528,528,528,528,528,528,528,528,528,531,534,539,545,551,551,551,548,537,522,491,444,401,385,377,371,365,334,310,276,235,191,138,130,125,121,115,115,114,114,114,114,114,114,114,114,114,114,114,114,114,114,114,114,114,114,114,114,114,114,114,114,114,114,114,114,114,114,114,114,114,114,114,114,114,114,114,114,114,114,114,114,99],"timestamp_mouse":[11,36,44,64,84,105,124,145,164,184,204,225,244,265,284,305,324,344,364,385,404,426,444,464,484,505,524,544,564,584,604,624,644,664,684,706,724,744,765,784,804,824,844,865,885,905,924,944,964,984,1004,1024,1044,1064,1084,1105,1124,1144,1164,1184,1204,1225,1245,1264,1285,1305,1324,1344,1364,1386,1405,1424,1444,1464,1484,1505,1524,1544,1566,1586,1606,1625,1644,1664,1684,1705,1724,1745,1765,1784,1805,1824,1844,1864,1884,1906,1924,1944,1965,1985,2004,2024,2044,2065,2084,2104,2124,2144,2165,2184,2205,2224,2245,2264,2284,2305,2324,2344,2364,2386,2405,2424],"xSR":741.5,"ySR":469.95,"xT1":424.9,"yT1":0,"xT2":1058.1,"yT2":0,"toosoon":0,"cond_shown":"Incongruent","ratio_trial":200,"L_num":3,"L_den":10,"R_num":1,"R_den":2,"correct_side":2,"subjID":"AnasofiaBermudezsalazar35","gender":"1","school":"6","age":"10"},{"start_time":1551794171018,"click_time":1551794173102,"finger_time":1551794172521,"fix_duration":1235.2072304059282,"trial":48,"RT":1503,"MT":581,"sideResp":2,"stimulus":[],"xmouse":[777,777,777,777,777,777,777,777,777,777,777,777,777,777,777,777,777,777,777,777,777,777,777,777,777,777,777,777,777,777,777,777,777,777,777,777,777,777,777,777,777,777,777,777,777,777,777,777,777,777,777,777,777,777,777,777,777,777,777,777,777,777,777,777,777,777,777,777,777,777,777,777,768,754,747,737,735,734,733,733,733,733,733,734,742,768,787,813,851,887,944,974,990,1007,1027,1068,1080,1088,1093,1095,1095,1095,1095,1095,1091],"ymouse":[561,561,561,561,561,561,561,561,561,561,561,561,561,561,561,561,561,561,561,561,561,561,561,561,561,561,561,561,561,561,561,561,561,561,561,561,561,561,561,561,561,561,561,561,561,561,561,561,561,561,561,561,561,561,561,561,561,561,561,561,561,561,561,561,561,561,561,561,561,561,561,561,561,558,556,547,539,531,520,507,498,496,494,493,492,484,477,467,450,422,365,332,310,290,274,245,231,218,203,164,145,131,116,103,79],"timestamp_mouse":[10,34,44,64,83,104,124,144,164,184,204,225,244,264,284,304,324,344,364,385,403,423,445,464,484,504,523,544,563,584,604,624,644,664,684,705,724,743,763,783,803,824,845,864,884,904,925,943,964,983,1003,1025,1044,1064,1084,1103,1123,1144,1163,1184,1204,1223,1243,1265,1284,1304,1324,1344,1363,1384,1405,1423,1444,1464,1483,1503,1524,1544,1564,1583,1603,1624,1645,1664,1683,1703,1724,1744,1763,1783,1803,1823,1844,1863,1883,1908,1923,1943,1963,1984,2003,2023,2043,2063,2084],"xSR":741.5,"ySR":469.95,"xT1":424.9,"yT1":0,"xT2":1058.1,"yT2":0,"toosoon":0,"cond_shown":"Incongruent","ratio_trial":200,"L_num":11,"L_den":20,"R_num":3,"R_den":4,"correct_side":2,"subjID":"AnasofiaBermudezsalazar35","gender":"1","school":"6","age":"10"},{"start_time":1551794176072,"click_time":1551794177801,"finger_time":1551794177401,"fix_duration":669.610876343642,"trial":49,"RT":1329,"MT":400,"sideResp":1,"stimulus":[],"xmouse":[811,811,811,811,811,811,811,811,811,811,811,811,811,811,811,811,811,811,811,811,811,811,811,811,811,811,811,811,811,811,811,811,811,811,811,811,811,811,811,811,811,811,811,811,811,811,811,810,810,807,798,790,788,787,787,787,787,787,787,787,787,787,787,786,783,757,732,641,607,596,592,590,585,583,581,579,578,573,567,561,550,527,517,509,502,497,493],"ymouse":[481,481,481,481,481,481,481,481,481,481,481,481,481,481,481,48