[{"start_time":1551794774879,"click_time":1551794776202,"finger_time":1551794775762,"fix_duration":250,"trial":0,"RT":883,"MT":440,"sideResp":1,"stimulus":"img/750/randomdotsizeEA/L/10_Ratio_750_L_4_R_3.png","xmouse":[749,749,749,749,749,749,749,749,749,749,749,749,749,749,749,749,749,749,749,749,749,749,749,749,749,749,749,749,749,749,749,749,749,749,749,749,749,749,749,749,749,749,749,747,732,712,691,643,617,594,572,572,572,572,572,572,572,572,572,572,572,572,572,572,572,572,471],"ymouse":[543,543,543,543,543,543,543,543,543,543,543,543,543,543,543,543,543,543,543,543,543,543,543,543,543,543,543,543,543,543,543,543,543,543,543,543,543,543,543,543,543,541,520,492,451,390,334,209,145,79,20,20,20,20,20,20,20,20,20,20,20,20,20,20,20,20,1],"timestamp_mouse":[8,23,51,63,82,102,123,142,164,184,202,223,242,263,282,303,322,344,363,382,403,422,444,463,483,503,523,543,562,583,603,624,642,662,684,702,722,742,762,783,803,823,842,863,883,902,922,943,962,982,1003,1023,1043,1063,1083,1104,1123,1143,1163,1183,1202,1222,1243,1263,1283,1303,1323],"xSR":741.5,"ySR":501.8,"xT1":424.9,"yT1":0,"xT2":1058.1,"yT2":0,"toosoon":0,"cond_shown":"randomdotsizeEA","ratio_trial":750,"smaller_num":"3","larger_num":"4","correct_side":1,"subjID":"Anasofiabermudezsalazar35","gender":"1","age":"10","school":"6","test":{"fix_dur":[250,1500],"timestim":300,"targets_dim":[100,100],"targets_relative_coord":[0.3,0.7],"size_stim":[880,420],"start_dim":[100,100],"size_start":[300,300],"size_fix":60,"samplingrate":20,"img_types":["equaldotsize","equaldotanddens","randomdotsizeEA"],"ratios":[250,500,750,900],"rep_conds":9,"nTrials":120,"trials_to_rest":500,"Trials_order":[68,45,99,85,23,0,55,20,42,46,63,88,73,109,66,27,3,84,106,28,116,80,31,104,22,24,118,6,67,38,60,18,33,83,77,79,56,41,81,64,59,37,52,48,21,107,89,8,5,39,100,51,69,43,61,102,62,49,115,1,14,90,75,111,103,11,10,87,12,19,17,2,91,95,58,7,35,71,92,54,108,96,105,70,9,32,86,29,44,97,47,78,98,76,112,117,93,110,114,26,16,119,50,53,34,82,40,57,101,94,4,65,113,25,74,30,72,36,15,13],"cond_shown":["randomdotsizeEA","equaldotsize","equaldotsize","equaldotanddens","randomdotsizeEA","equaldotsize","equaldotanddens","randomdotsizeEA","equaldotsize","equaldotanddens","equaldotsize","equaldotanddens","equaldotanddens","equaldotanddens","equaldotsize","equaldotsize","equaldotsize","equaldotsize","equaldotanddens","equaldotanddens","randomdotsizeEA","randomdotsizeEA","equaldotanddens","randomdotsizeEA","equaldotanddens","equaldotsize","equaldotanddens","equaldotsize","equaldotanddens","randomdotsizeEA","equaldotsize","equaldotsize","equaldotsize","randomdotsizeEA","randomdotsizeEA","equaldotanddens","randomdotsizeEA","randomdotsizeEA","equaldotsize","equaldotanddens","randomdotsizeEA","equaldotanddens","equaldotanddens","equaldotsize","equaldotsize","randomdotsizeEA","randomdotsizeEA","randomdotsizeEA","randomdotsizeEA","equaldotsize","equaldotanddens","equaldotsize","equaldotsize","equaldotanddens","equaldotanddens","equaldotsize","randomdotsizeEA","equaldotanddens","equaldotanddens","equaldotanddens","randomdotsizeEA","equaldotsize","equaldotsize","equaldotsize","equaldotanddens","randomdotsizeEA","equaldotanddens","equaldotsize","equaldotsize","equaldotanddens","randomdotsizeEA","randomdotsizeEA","equaldotanddens","randomdotsizeEA","equaldotanddens","equaldotanddens","randomdotsizeEA","randomdotsizeEA","randomdotsizeEA","equaldotsize","equaldotsize","equaldotsize","equaldotsize","equaldotanddens","equaldotsize","randomdotsizeEA","randomdotsizeEA","randomdotsizeEA","randomdotsizeEA","equaldotanddens","randomdotsizeEA","equaldotsize","randomdotsizeEA","equaldotanddens","equaldotanddens","equaldotsize","equaldotsize","randomdotsizeEA","equaldotsize","randomdotsizeEA","equaldotanddens","randomdotsizeEA","randomdotsizeEA","randomdotsizeEA","equaldotanddens","equaldotanddens","equaldotanddens","equaldotsize","randomdotsizeEA","equaldotanddens","equaldotanddens","randomdotsizeEA","randomdotsizeEA","equaldotanddens","randomdotsizeEA","equaldotsize","equaldotsize","equaldotsize","equaldotsize","equaldotanddens"],"ratio_trial":[750,900,500,250,900,250,750,750,750,900,500,500,250,250,750,500,500,250,900,500,750,750,750,750,900,250,900,750,750,250,250,750,900,900,500,750,750,500,900,500,900,250,500,250,900,900,500,750,500,500,500,500,900,750,250,750,250,250,750,250,250,750,500,500,750,900,900,500,250,750,500,250,750,900,900,750,900,900,750,750,250,250,900,900,900,750,250,500,750,250,900,750,250,500,500,900,900,250,750,250,500,900,250,500,900,900,500,900,500,900,500,500,500,250,250,750,250,250,500,250],"smaller_num":["3","9","2","2","9","3","6","6","15","18","2","10","2","3","12","9","2","3","18","5","15","9","3","12","18","3","9","15","6","2","6","3","9","18","6","15","6","2","18","6","9","6","3","3","18","18","2","15","3","1","4","10","9","18","3","12","3","1","12","4","2","6","4","1","9","9","18","9","3","15","5","6","3","18","9","3","18","18","12","3","2","6","9","18","18","12","5","6","18","2","9","3","3","3","2","9","9","3","3","1","6","9","5","9","18","18","1","18","9","9","6","6","6","6","6","3","4","4","2","6"],"larger_num":["4","10","4","8","10","12","8","8","20","20","4","20","8","12","16","18","4","12","20","10","20","12","4","16","20","12","10","20","8","8","24","4","10","20","12","20","8","4","20","12","10","24","6","12","20","20","4","20","6","2","8","20","10","24","12","16","12","4","16","16","8","8","8","2","12","10","20","18","12","20","10","24","4","20","10","4","20","20","16","4","8","24","10","20","20","16","20","12","24","8","10","4","12","6","4","10","10","12","4","4","12","10","20","18","20","20","2","20","18","10","12","12","12","24","24","4","16","16","4","24"],"correct_side":[1,2,1,2,2,1,1,1,2,1,2,2,2,1,2,2,2,2,1,2,2,2,2,2,2,1,2,2,1,1,2,1,2,1,1,2,1,2,2,1,2,2,2,1,1,1,1,2,2,2,1,2,1,1,1,2,1,2,2,2,1,2,1,2,2,1,1,2,1,1,1,1,1,1,2,1,2,1,2,2,1,1,2,1,1,2,2,1,1,1,2,2,2,2,2,2,2,2,1,2,1,2,2,1,1,1,2,1,1,1,1,1,1,2,2,2,2,1,2,2],"img_shown":["img/750/randomdotsizeEA/L/10_Ratio_750_L_4_R_3.png","img/900/equaldotsize/R/5_Ratio_900_L_9_R_10.png","img/500/equaldotsize/L/10_Ratio_500_L_4_R_2.png","img/250/equaldotanddens/R/13_Ratio_250_L_2_R_8.png","img/900/randomdotsizeEA/R/3_Ratio_900_L_9_R_10.png","img/250/equaldotsize/L/14_Ratio_250_L_12_R_3.png","img/750/equaldotanddens/L/14_Ratio_750_L_8_R_6.png","img/750/randomdotsizeEA/L/13_Ratio_750_L_8_R_6.png","img/750/equaldotsize/R/3_Ratio_750_L_15_R_20.png","img/900/equaldotanddens/L/2_Ratio_900_L_20_R_18.png","img/500/equaldotsize/R/9_Ratio_500_L_2_R_4.png","img/500/equaldotanddens/R/3_Ratio_500_L_10_R_20.png","img/250/equaldotanddens/R/13_Ratio_250_L_2_R_8.png","img/250/equaldotanddens/L/15_Ratio_250_L_12_R_3.png","img/750/equaldotsize/R/11_Ratio_750_L_12_R_16.png","img/500/equaldotsize/R/1_Ratio_500_L_9_R_18.png","img/500/equaldotsize/R/9_Ratio_500_L_2_R_4.png","img/250/equaldotsize/R/9_Ratio_250_L_3_R_12.png","img/900/equaldotanddens/L/8_Ratio_900_L_20_R_18.png","img/500/equaldotanddens/R/14_Ratio_500_L_5_R_10.png","img/750/randomdotsizeEA/R/5_Ratio_750_L_15_R_20.png","img/750/randomdotsizeEA/R/15_Ratio_750_L_9_R_12.png","img/750/equaldotanddens/R/12_Ratio_750_L_3_R_4.png","img/750/randomdotsizeEA/R/11_Ratio_750_L_12_R_16.png","img/900/equaldotanddens/R/11_Ratio_900_L_18_R_20.png","img/250/equaldotsize/L/15_Ratio_250_L_12_R_3.png","img/900/equaldotanddens/R/15_Ratio_900_L_9_R_10.png","img/750/equaldotsize/R/4_Ratio_750_L_15_R_20.png","img/750/equaldotanddens/L/13_Ratio_750_L_8_R_6.png","img/250/randomdotsizeEA/L/3_Ratio_250_L_8_R_2.png","img/250/equaldotsize/R/6_Ratio_250_L_6_R_24.png","img/750/equaldotsize/L/10_Ratio_750_L_4_R_3.png","img/900/equaldotsize/R/6_Ratio_900_L_9_R_10.png","img/900/randomdotsizeEA/L/2_Ratio_900_L_20_R_18.png","img/500/randomdotsizeEA/L/11_Ratio_500_L_12_R_6.png","img/750/equaldotanddens/R/3_Ratio_750_L_15_R_20.png","img/750/randomdotsizeEA/L/13_Ratio_750_L_8_R_6.png","img/500/randomdotsizeEA/R/9_Ratio_500_L_2_R_4.png","img/900/equaldotsize/R/11_Ratio_900_L_18_R_20.png","img/500/equaldotanddens/L/13_Ratio_500_L_12_R_6.png","img/900/randomdotsizeEA/R/5_Ratio_900_L_9_R_10.png","img/250/equaldotanddens/R/6_Ratio_250_L_6_R_24.png","img/500/equaldotanddens/R/2_Ratio_500_L_3_R_6.png","img/250/equaldotsize/L/15_Ratio_250_L_12_R_3.png","img/900/equaldotsize/L/8_Ratio_900_L_20_R_18.png","img/900/randomdotsizeEA/L/2_Ratio_900_L_20_R_18.png","img/500/randomdotsizeEA/L/10_Ratio_500_L_4_R_2.png","img/750/randomdotsizeEA/R/4_Ratio_750_L_15_R_20.png","img/500/randomdotsizeEA/R/2_Ratio_500_L_3_R_6.png","img/500/equaldotsize/R/15_Ratio_500_L_1_R_2.png","img/500/equaldotanddens/L/8_Ratio_500_L_8_R_4.png","img/500/equaldotsize/R/3_Ratio_500_L_10_R_20.png","img/900/equaldotsize/L/1_Ratio_900_L_10_R_9.png","img/750/equaldotanddens/L/6_Ratio_750_L_24_R_18.png","img/250/equaldotanddens/L/15_Ratio_250_L_12_R_3.png","img/750/equaldotsize/R/11_Ratio_750_L_12_R_16.png","img/250/randomdotsizeEA/L/15_Ratio_250_L_12_R_3.png","img/250/equaldotanddens/R/8_Ratio_250_L_1_R_4.png","img/750/equaldotanddens/R/11_Ratio_750_L_12_R_16.png","img/250/equaldotanddens/R/10_Ratio_250_L_4_R_16.png","img/250/randomdotsizeEA/L/7_Ratio_250_L_8_R_2.png","img/750/equaldotsize/R/2_Ratio_750_L_6_R_8.png","img/500/equaldotsize/L/8_Ratio_500_L_8_R_4.png","img/500/equaldotsize/R/15_Ratio_500_L_1_R_2.png","img/750/equaldotanddens/R/15_Ratio_750_L_9_R_12.png","img/900/randomdotsizeEA/L/1_Ratio_900_L_10_R_9.png","img/900/equaldotanddens/L/8_Ratio_900_L_20_R_18.png","img/500/equaldotsize/R/6_Ratio_500_L_9_R_18.png","img/250/equaldotsize/L/15_Ratio_250_L_12_R_3.png","img/750/equaldotanddens/L/1_Ratio_750_L_20_R_15.png","img/500/randomdotsizeEA/L/7_Ratio_500_L_10_R_5.png","img/250/randomdotsizeEA/L/5_Ratio_250_L_24_R_6.png","img/750/equaldotanddens/L/9_Ratio_750_L_4_R_3.png","img/900/randomdotsizeEA/L/8_Ratio_900_L_20_R_18.png","img/900/equaldotanddens/R/6_Ratio_900_L_9_R_10.png","img/750/equaldotanddens/L/8_Ratio_750_L_4_R_3.png","img/900/randomdotsizeEA/R/12_Ratio_900_L_18_R_20.png","img/900/randomdotsizeEA/L/10_Ratio_900_L_20_R_18.png","img/750/randomdotsizeEA/R/11_Ratio_750_L_12_R_16.png","img/750/equaldotsize/R/12_Ratio_750_L_3_R_4.png","img/250/equaldotsize/L/7_Ratio_250_L_8_R_2.png","img/250/equaldotsize/L/5_Ratio_250_L_24_R_6.png","img/900/equaldotsize/R/3_Ratio_900_L_9_R_10.png","img/900/equaldotanddens/L/10_Ratio_900_L_20_R_18.png","img/900/equaldotsize/L/2_Ratio_900_L_20_R_18.png","img/750/randomdotsizeEA/R/11_Ratio_750_L_12_R_16.png","img/250/randomdotsizeEA/R/12_Ratio_250_L_5_R_20.png","img/500/randomdotsizeEA/L/13_Ratio_500_L_12_R_6.png","img/750/randomdotsizeEA/L/6_Ratio_750_L_24_R_18.png","img/250/equaldotanddens/L/3_Ratio_250_L_8_R_2.png","img/900/randomdotsizeEA/R/5_Ratio_900_L_9_R_10.png","img/750/equaldotsize/R/7_Ratio_750_L_3_R_4.png","img/250/randomdotsizeEA/R/4_Ratio_250_L_3_R_12.png","img/500/equaldotanddens/R/2_Ratio_500_L_3_R_6.png","img/500/equaldotanddens/R/9_Ratio_500_L_2_R_4.png","img/900/equaldotsize/R/7_Ratio_900_L_9_R_10.png","img/900/equaldotsize/R/15_Ratio_900_L_9_R_10.png","img/250/randomdotsizeEA/R/4_Ratio_250_L_3_R_12.png","img/750/equaldotsize/L/10_Ratio_750_L_4_R_3.png","img/250/randomdotsizeEA/R/8_Ratio_250_L_1_R_4.png","img/500/equaldotanddens/L/13_Ratio_500_L_12_R_6.png","img/900/randomdotsizeEA/R/3_Ratio_900_L_9_R_10.png","img/250/randomdotsizeEA/R/12_Ratio_250_L_5_R_20.png","img/500/randomdotsizeEA/L/4_Ratio_500_L_18_R_9.png","img/900/equaldotanddens/L/2_Ratio_900_L_20_R_18.png","img/900/equaldotanddens/L/2_Ratio_900_L_20_R_18.png","img/500/equaldotanddens/R/12_Ratio_500_L_1_R_2.png","img/900/equaldotsize/L/4_Ratio_900_L_20_R_18.png","img/500/randomdotsizeEA/L/4_Ratio_500_L_18_R_9.png","img/900/equaldotanddens/L/1_Ratio_900_L_10_R_9.png","img/500/equaldotanddens/L/11_Ratio_500_L_12_R_6.png","img/500/randomdotsizeEA/L/11_Ratio_500_L_12_R_6.png","img/500/randomdotsizeEA/L/11_Ratio_500_L_12_R_6.png","img/250/equaldotanddens/R/6_Ratio_250_L_6_R_24.png","img/250/randomdotsizeEA/R/6_Ratio_250_L_6_R_24.png","img/750/equaldotsize/R/12_Ratio_750_L_3_R_4.png","img/250/equaldotsize/R/10_Ratio_250_L_4_R_16.png","img/250/equaldotsize/L/2_Ratio_250_L_16_R_4.png","img/500/equaldotsize/R/9_Ratio_500_L_2_R_4.png","img/250/equaldotanddens/R/6_Ratio_250_L_6_R_24.png"],"Rat0":[["12_Ratio_0_L_9_R_0.png","13_Ratio_0_L_6_R_0.png","5_Ratio_0_L_2_R_0.png","6_Ratio_0_L_4_R_0.png","8_Ratio_0_L_6_R_0.png"],["1_Ratio_0_L_0_R_17.png","10_Ratio_0_L_0_R_22.png","11_Ratio_0_L_0_R_1.png","14_Ratio_0_L_0_R_24.png","15_Ratio_0_L_0_R_4.png","2_Ratio_0_L_0_R_5.png","3_Ratio_0_L_0_R_17.png","4_Ratio_0_L_0_R_7.png","7_Ratio_0_L_0_R_19.png","9_Ratio_0_L_0_R_15.png"]],"Rat250":[["1_Ratio_250_L_8_R_2.png","14_Ratio_250_L_12_R_3.png","15_Ratio_250_L_12_R_3.png","2_Ratio_250_L_16_R_4.png","3_Ratio_250_L_8_R_2.png","5_Ratio_250_L_24_R_6.png","7_Ratio_250_L_8_R_2.png"],["10_Ratio_250_L_4_R_16.png","11_Ratio_250_L_3_R_12.png","12_Ratio_250_L_5_R_20.png","13_Ratio_250_L_2_R_8.png","4_Ratio_250_L_3_R_12.png","6_Ratio_250_L_6_R_24.png","8_Ratio_250_L_1_R_4.png","9_Ratio_250_L_3_R_12.png"]],"Rat500":[["10_Ratio_500_L_4_R_2.png","11_Ratio_500_L_12_R_6.png","13_Ratio_500_L_12_R_6.png","4_Ratio_500_L_18_R_9.png","5_Ratio_500_L_4_R_2.png","7_Ratio_500_L_10_R_5.png","8_Ratio_500_L_8_R_4.png"],["1_Ratio_500_L_9_R_18.png","12_Ratio_500_L_1_R_2.png","14_Ratio_500_L_5_R_10.png","15_Ratio_500_L_1_R_2.png","2_Ratio_500_L_3_R_6.png","3_Ratio_500_L_10_R_20.png","6_Ratio_500_L_9_R_18.png","9_Ratio_500_L_2_R_4.png"]],"Rat750":[["1_Ratio_750_L_20_R_15.png","10_Ratio_750_L_4_R_3.png","13_Ratio_750_L_8_R_6.png","14_Ratio_750_L_8_R_6.png","6_Ratio_750_L_24_R_18.png","8_Ratio_750_L_4_R_3.png","9_Ratio_750_L_4_R_3.png"],["11_Ratio_750_L_12_R_16.png","12_Ratio_750_L_3_R_4.png","15_Ratio_750_L_9_R_12.png","2_Ratio_750_L_6_R_8.png","3_Ratio_750_L_15_R_20.png","4_Ratio_750_L_15_R_20.png","5_Ratio_750_L_15_R_20.png","7_Ratio_750_L_3_R_4.png"]],"Rat900":[["1_Ratio_900_L_10_R_9.png","10_Ratio_900_L_20_R_18.png","2_Ratio_900_L_20_R_18.png","4_Ratio_900_L_20_R_18.png","8_Ratio_900_L_20_R_18.png"],["11_Ratio_900_L_18_R_20.png","12_Ratio_900_L_18_R_20.png","13_Ratio_900_L_18_R_20.png","14_Ratio_900_L_18_R_20.png","15_Ratio_900_L_9_R_10.png","3_Ratio_900_L_9_R_10.png","5_Ratio_900_L_9_R_10.png","6_Ratio_900_L_9_R_10.png","7_Ratio_900_L_9_R_10.png","9_Ratio_900_L_18_R_20.png"]],"Rat1000":[["10_Ratio_1000_L_16_R_16.png","11_Ratio_1000_L_6_R_6.png","12_Ratio_1000_L_14_R_14.png","13_Ratio_1000_L_20_R_20.png","15_Ratio_1000_L_15_R_15.png","2_Ratio_1000_L_17_R_17.png","4_Ratio_1000_L_9_R_9.png","5_Ratio_1000_L_6_R_6.png","6_Ratio_1000_L_19_R_19.png","8_Ratio_1000_L_14_R_14.png","9_Ratio_1000_L_25_R_25.png"],["1_Ratio_1000_L_1_R_1.png","14_Ratio_1000_L_17_R_17.png","3_Ratio_1000_L_17_R_17.png","7_Ratio_1000_L_6_R_6.png"]]}},{"start_time":1551794778994,"click_time":1551794780762,"finger_time":1551794779822,"fix_duration":1490.0147276673704,"trial":1,"RT":828,"MT":940,"sideResp":1,"stimulus":"img/900/equaldotsize/R/5_Ratio_900_L_9_R_10.png","xmouse":[770,770,770,770,770,770,770,770,770,770,770,770,770,770,770,770,770,770,770,770,770,770,770,770,770,770,770,770,770,770,770,770,770,770,770,770,770,770,780,796,830,882,928,952,971,982,982,982,982,982,982,982,982,982,982,982,982,982,982,982,982,982,971,960,936,901,847,835,827,824,814,781,758,739,710,664,664,664,664,664,664,664,664,664,664,664,664,664,504],"ymouse":[535,535,535,535,535,535,535,535,535,535,535,535,535,535,535,535,535,535,535,535,535,535,535,535,535,535,535,535,535,535,535,535,535,535,535,535,535,535,525,520,505,482,470,458,450,442,442,442,442,442,442,442,442,442,442,442,442,442,442,442,442,442,442,444,444,444,428,418,403,392,355,266,212,174,104,17,17,17,17,17,17,17,17,17,17,17,17,17,1],"timestamp_mouse":[9,27,48,68,88,108,128,149,167,188,208,228,249,268,288,308,328,347,368,388,407,427,447,469,487,508,527,549,567,589,607,627,647,668,688,707,729,748,767,787,808,828,847,867,888,909,927,948,967,988,1009,1027,1048,1067,1087,1108,1128,1148,1169,1188,1209,1229,1248,1268,1288,1308,1327,1348,1367,1387,1407,1429,1447,1468,1488,1508,1529,1548,1568,1588,1608,1627,1647,1668,1688,1708,1727,1747,1767],"xSR":741.5,"ySR":469.95,"xT1":424.9,"yT1":0,"xT2":1058.1,"yT2":0,"toosoon":0,"cond_shown":"equaldotsize","ratio_trial":900,"smaller_num":"9","larger_num":"10","correct_side":2,"subjID":"Anasofiabermudezsalazar35","gender":"1","age":"10","school":"6"},{"start_time":1551794784851,"click_time":1551794786222,"finger_time":1551794785741,"fix_duration":528.2106471188704,"trial":2,"RT":890,"MT":481,"sideResp":1,"stimulus":"img/500/equaldotsize/L/10_Ratio_500_L_4_R_2.png","xmouse":[745,745,745,745,745,745,745,745,745,745,745,745,745,745,745,745,745,745,745,745,745,745,745,745,745,745,745,745,745,745,745,745,745,745,745,745,745,745,745,745,745,745,745,745,740,731,699,643,557,534,527,526,525,528,529,529,530,531,533,534,536,536,536,534,527,521,506,490,471],"ymouse":[539,539,539,539,539,539,539,539,539,539,539,539,539,539,539,539,539,539,539,539,539,539,539,539,539,539,539,539,539,539,539,539,539,539,539,539,539,539,539,539,539,539,539,539,535,523,490,424,332,296,274,260,240,234,231,229,227,225,220,216,212,204,196,178,165,152,134,116,89],"timestamp_mouse":[11,36,51,71,92,111,132,151,170,190,212,231,252,270,290,311,331,351,370,391,410,431,452,471,490,510,530,552,570,591,610,631,651,671,691,711,731,750,770,792,810,830,852,872,890,910,931,951,971,990,1010,1031,1052,1070,1091,1111,1131,1150,1170,1192,1211,1231,1251,1270,1290,1311,1332,1351,1371],"xSR":741.5,"ySR":469.95,"xT1":424.9,"yT1":0,"xT2":1058.1,"yT2":0,"toosoon":0,"cond_shown":"equaldotsize","ratio_trial":500,"smaller_num":"2","larger_num":"4","correct_side":1,"subjID":"Anasofiabermudezsalazar35","gender":"1","age":"10","school":"6"},{"start_time":1551794788281,"click_time":1551794789662,"finger_time":1551794789041,"fix_duration":757.6286419773014,"trial":3,"RT":760,"MT":621,"sideResp":2,"stimulus":"img/250/equaldotanddens/R/13_Ratio_250_L_2_R_8.png","xmouse":[795,795,795,795,795,795,795,795,795,795,795,795,795,795,795,795,795,795,795,795,795,795,795,795,795,795,795,795,795,795,795,795,795,795,795,795,795,803,860,945,1007,1040,1083,1098,1109,1121,1126,1138,1145,1150,1153,1155,1157,1157,1158,1159,1159,1150,1140,1131,1125,1124,1124,1124,1124,1124,1124,1124,1124,1125],"ymouse":[537,537,537,537,537,537,537,537,537,537,537,537,537,537,537,537,537,537,537,537,537,537,537,537,537,537,537,537,537,537,537,537,537,537,537,537,537,537,543,556,562,559,519,482,444,388,359,320,307,294,289,285,276,273,266,253,241,209,188,166,144,126,113,113,113,113,113,109,104,95],"timestamp_mouse":[6,21,42,62,82,101,120,142,162,181,202,220,241,260,280,300,320,342,360,381,402,421,440,462,481,500,521,542,561,581,602,620,640,662,681,701,720,741,760,780,801,820,840,861,881,901,920,940,960,980,1000,1020,1040,1062,1081,1100,1121,1141,1161,1181,1201,1221,1241,1261,1280,1300,1320,1341,1360,1380],"xSR":741.5,"ySR":469.95,"xT1":424.9,"yT1":0,"xT2":1058.1,"yT2":0,"toosoon":0,"cond_shown":"equaldotanddens","ratio_trial":250,"smaller_num":"2","larger_num":"8","correct_side":2,"subjID":"Anasofiabermudezsalazar35","gender":"1","age":"10","school":"6"},{"start_time":1551794791788,"click_time":1551794793221,"finger_time":1551794792621,"fix_duration":1265.7752061013107,"trial":4,"RT":833,"MT":600,"sideResp":2,"stimulus":"img/900/randomdotsizeEA/R/3_Ratio_900_L_9_R_10.png","xmouse":[821,821,821,821,821,821,821,821,821,821,821,821,821,821,821,821,821,821,821,821,821,821,821,821,821,821,821,821,821,821,821,821,821,821,821,821,821,821,821,821,826,861,878,894,909,929,955,962,973,979,995,1005,1017,1026,1036,1054,1060,1065,1068,1070,1078,1080,1082,1083,1084,1087,1088,1088,1090,1091,1094,1099],"ymouse":[511,511,511,511,511,511,511,511,511,511,511,511,511,511,511,511,511,511,511,511,511,511,511,511,511,511,511,511,511,511,511,511,511,511,511,511,511,511,511,511,507,474,459,437,413,385,346,329,309,300,276,261,246,231,214,183,172,163,155,149,136,133,126,123,121,116,115,113,110,108,101,82],"timestamp_mouse":[15,34,59,74,93,113,133,155,173,193,215,233,255,274,293,314,334,354,374,394,415,435,453,474,493,515,533,553,574,595,613,634,653,675,693,715,733,754,774,794,814,833,853,874,894,914,933,954,973,993,1015,1033,1054,1075,1093,1114,1134,1153,1173,1193,1215,1234,1253,1273,1294,1315,1333,1353,1374,1393,1413,1433],"xSR":741.5,"ySR":469.95,"xT1":424.9,"yT1":0,"xT2":1058.1,"yT2":0,"toosoon":0,"cond_shown":"randomdotsizeEA","ratio_trial":900,"smaller_num":"9","larger_num":"10","correct_side":2,"subjID":"Anasofiabermudezsalazar35","gender":"1","age":"10","school":"6"},{"start_time":1551794794614,"click_time":1551794795761,"finger_time":1551794795422,"fix_duration":250,"trial":5,"RT":808,"MT":339,"sideResp":1,"stimulus":"img/250/equaldotsize/L/14_Ratio_250_L_12_R_3.png","xmouse":[826,826,826,825,825,824,823,822,822,821,821,821,820,820,820,820,820,820,820,820,820,820,820,820,820,820,820,820,820,820,820,820,820,820,820,820,820,820,805,767,620,530,482,476,475,481,491,497,499,499,500,500,502,504,505,507,507,507],"ymouse":[553,553,553,553,553,553,553,553,553,553,553,553,552,552,552,552,552,552,552,552,552,552,552,552,552,552,552,552,552,552,552,552,552,552,552,552,552,552,524,477,344,275,230,216,214,189,181,174,170,168,166,166,162,156,137,123,107,92],"timestamp_mouse":[8,38,49,67,88,107,128,147,168,188,208,227,249,267,288,308,329,347,368,388,407,427,449,467,488,508,527,547,569,588,609,627,649,669,687,707,727,747,767,788,808,827,849,868,888,907,928,948,968,987,1008,1027,1047,1068,1089,1107,1127,1147],"xSR":741.5,"ySR":469.95,"xT1":424.9,"yT1":0,"xT2":1058.1,"yT2":0,"toosoon":0,"cond_shown":"equaldotsize","ratio_trial":250,"smaller_num":"3","larger_num":"12","correct_side":1,"subjID":"Anasofiabermudezsalazar35","gender":"1","age":"10","school":"6"},{"start_time":1551794797891,"click_time":1551794799022,"finger_time":1551794798682,"fix_duration":869.4956841960372,"trial":6,"RT":791,"MT":340,"sideResp":1,"stimulus":"img/750/equaldotanddens/L/14_Ratio_750_L_8_R_6.png","xmouse":[760,760,760,760,760,760,760,760,760,760,760,760,760,760,760,760,760,760,760,760,760,760,760,760,760,760,760,760,760,760,760,760,760,760,760,760,759,755,742,722,690,632,611,603,595,592,588,587,587,587,587,583,573,552,539,533,504],"ymouse":[549,549,549,549,549,549,549,549,549,549,549,549,549,549,549,549,549,549,549,549,549,549,549,549,549,549,549,549,549,549,549,549,549,549,549,549,546,537,519,479,411,279,225,199,175,150,131,124,122,121,119,115,108,96,90,87,78],"timestamp_mouse":[12,31,50,72,92,111,131,151,172,190,210,232,250,271,290,311,331,351,370,390,410,432,451,471,490,510,532,551,570,590,612,631,652,671,692,712,730,750,771,791,812,830,852,870,891,911,931,950,970,992,1013,1031,1051,1070,1091,1111,1131],"xSR":741.5,"ySR":469.95,"xT1":424.9,"yT1":0,"xT2":1058.1,"yT2":0,"toosoon":0,"cond_shown":"equaldotanddens","ratio_trial":750,"smaller_num":"6","larger_num":"8","correct_side":1,"subjID":"Anasofiabermudezsalazar35","gender":"1","age":"10","school":"6"},{"start_time":1551794800884,"click_time":1551794803041,"finger_time":1551794802382,"fix_duration":861.8529481930174,"trial":7,"RT":1498,"MT":659,"sideResp":1,"stimulus":"img/750/randomdotsizeEA/L/13_Ratio_750_L_8_R_6.png","xmouse":[821,822,822,822,822,822,822,822,822,822,822,822,822,822,822,822,822,822,822,822,822,822,822,822,822,822,822,822,822,822,822,822,823,823,823,823,823,823,823,823,823,823,823,823,823,823,823,823,823,823,823,823,823,823,823,823,823,823,823,823,823,823,823,823,823,823,823,823,823,823,823,814,809,788,760,709,667,657,655,655,655,655,655,656,656,656,646,634,618,601,576,517,497,474,470,469,469,469,469,469,469,469,469,469,468,468,468,468],"ymouse":[530,530,530,530,530,530,530,530,530,530,530,530,530,530,530,530,530,530,530,530,530,530,530,530,530,530,530,530,531,531,531,531,531,531,531,531,531,531,531,531,531,531,531,531,531,531,531,531,531,531,531,531,531,531,531,531,531,531,531,531,531,531,531,531,531,531,531,531,531,531,531,521,514,494,467,421,376,364,355,350,346,341,337,333,327,323,298,280,260,235,204,151,132,112,106,105,105,105,105,105,105,105,105,105,105,105,103,99],"timestamp_mouse":[18,38,58,79,97,117,138,158,178,197,218,238,258,278,298,318,338,359,379,399,419,438,458,479,498,518,539,557,577,599,619,637,658,678,699,719,739,759,778,798,818,838,858,878,897,917,937,958,977,998,1019,1039,1058,1077,1099,1117,1139,1158,1179,1198,1219,1238,1258,1278,1299,1319,1337,1358,1378,1399,1419,1437,1458,1477,1498,1518,1538,1558,1577,1598,1618,1637,1659,1677,1697,1717,1738,1757,1778,1798,1817,1837,1859,1877,1898,1919,1937,1958,1979,1997,2017,2037,2059,2077,2099,2119,2138,2157],"xSR":741.5,"ySR":469.95,"xT1":424.9,"yT1":0,"xT2":1058.1,"yT2":0,"toosoon":0,"cond_shown":"randomdotsizeEA","ratio_trial":750,"smaller_num":"6","larger_num":"8","correct_side":1,"subjID":"Anasofiabermudezsalazar35","gender":"1","age":"10","school":"6"},{"start_time":1551794806373,"click_time":1551794807742,"finger_time":1551794807262,"fix_duration":250,"trial":8,"RT":889,"MT":480,"sideResp":1,"stimulus":"img/750/equaldotsize/R/3_Ratio_750_L_15_R_20.png","xmouse":[809,809,809,809,809,809,809,809,809,809,809,809,809,809,809,809,809,809,809,809,809,809,809,809,809,809,809,809,809,809,809,809,809,809,809,809,809,809,809,809,810,810,791,777,763,751,744,739,732,723,701,691,649,613,572,531,485,405,387,380,378,378,378,378,378,378,392,412,432],"ymouse":[541,541,541,541,541,541,541,541,541,541,541,541,541,541,541,541,541,541,541,541,541,541,541,541,541,541,541,541,541,541,541,541,541,541,541,541,541,541,541,541,540,531,496,480,463,450,439,427,418,408,388,377,347,320,282,238,193,121,98,88,80,76,72,72,71,70,66,66,66],"timestamp_mouse":[9,37,49,69,90,109,128,149,169,189,209,229,248,269,289,308,329,348,370,389,408,430,448,470,488,509,530,549,568,589,609,630,648,670,688,708,730,748,768,789,809,829,850,868,889,908,929,948,969,989,1008,1029,1048,1068,1089,1109,1129,1148,1168,1188,1208,1229,1249,1268,1289,1308,1330,1349,1369],"xSR":741.5,"ySR":469.95,"xT1":424.9,"yT1":0,"xT2":1058.1,"yT2":0,"toosoon":0,"cond_shown":"equaldotsize","ratio_trial":750,"smaller_num":"15","larger_num":"20","correct_side":2,"subjID":"Anasofiabermudezsalazar35","gender":"1","age":"10","school":"6"},{"start_time":1551794811251,"click_time":1551794812862,"finger_time":1551794812383,"fix_duration":747.0547067262231,"trial":9,"RT":1132,"MT":479,"sideResp":1,"stimulus":"img/900/equaldotanddens/L/2_Ratio_900_L_20_R_18.png","xmouse":[806,806,806,806,806,806,806,806,806,806,806,806,806,806,806,806,806,806,806,806,806,806,806,806,806,806,806,806,806,806,806,806,806,806,806,806,806,806,806,806,806,806,806,806,806,806,806,806,806,806,806,806,805,802,803,803,803,800,745,686,619,548,486,405,375,364,360,360,360,360,360,361,362,362,362,362,368,395,406,416,426],"ymouse":[515,515,515,515,515,515,515,515,515,515,515,515,515,515,515,515,515,515,515,515,515,515,515,515,515,515,515,515,515,515,515,515,515,515,515,515,515,515,515,515,515,515,515,515,515,515,515,515,515,515,515,515,513,511,494,474,445,422,346,296,240,187,137,69,44,32,23,21,20,19,19,19,18,18,18,18,18,41,53,67,78],"timestamp_mouse":[11,33,52,70,92,111,132,150,170,191,212,230,250,270,291,310,331,352,372,390,411,431,450,472,491,511,530,552,571,590,611,630,651,671,690,711,730,751,771,791,810,830,851,871,890,912,930,951,972,991,1011,1030,1052,1071,1090,1111,1132,1151,1171,1190,1211,1230,1251,1270,1291,1311,1332,1352,1370,1391,1411,1432,1451,1470,1491,1511,1532,1552,1570,1590,1611],"xSR":741.5,"ySR":469.95,"xT1":424.9,"yT1":0,"xT2":1058.1,"yT2":0,"toosoon":0,"cond_shown":"equaldotanddens","ratio_trial":900,"smaller_num":"18","larger_num":"20","correct_side":1,"subjID":"Anasofiabermudezsalazar35","gender":"1","age":"10","school":"6"},{"start_time":1551794815131,"click_time":1551794816142,"finger_time":1551794815822,"fix_duration":948.6760572246125,"trial":10,"RT":691,"MT":320,"sideResp":2,"stimulus":"img/500/equaldotsize/R/9_Ratio_500_L_2_R_4.png","xmouse":[795,795,795,795,795,795,795,795,795,795,795,795,795,795,795,795,795,795,795,795,795,795,795,795,795,795,795,795,795,795,795,795,798,815,871,908,932,951,965,987,992,996,1008,1024,1035,1042,1046,1050,1054,1057,1062],"ymouse":[520,520,520,520,520,520,520,520,520,520,520,520,520,520,520,520,520,520,520,520,520,520,520,520,520,520,520,520,520,520,520,520,517,483,401,364,327,303,281,236,217,197,167,117,98,89,84,80,75,70,67],"timestamp_mouse":[13,38,52,70,90,112,130,151,172,190,210,230,251,271,290,310,330,351,370,392,410,431,451,471,490,510,530,550,570,590,611,630,651,671,691,710,731,750,770,790,810,830,852,872,891,910,930,950,971,990,1010],"xSR":741.5,"ySR":469.95,"xT1":424.9,"yT1":0,"xT2":1058.1,"yT2":0,"toosoon":0,"cond_shown":"equaldotsize","ratio_trial":500,"smaller_num":"2","larger_num":"4","correct_side":2,"subjID":"Anasofiabermudezsalazar35","gender":"1","age":"10","school":"6"},{"start_time":1551794818805,"click_time":1551794820001,"finger_time":1551794819541,"fix_duration":1001.0078169337529,"trial":11,"RT":736,"MT":460,"sideResp":2,"stimulus":"img/500/equaldotanddens/R/3_Ratio_500_L_10_R_20.png","xmouse":[804,804,804,804,804,804,804,804,804,804,804,804,804,804,804,804,804,804,804,804,804,804,804,804,804,804,804,804,804,804,804,804,804,805,811,829,854,889,959,987,1008,1014,1022,1027,1032,1035,1035,1030,1030,1034,1041,1043,1044,1048,1056,1067,1070,1071,1073,1075],"ymouse":[535,535,535,535,535,535,535,535,535,535,535,535,535,535,535,535,535,535,535,535,535,535,535,535,535,535,535,535,535,535,535,535,535,535,535,526,513,489,447,420,371,348,329,316,306,283,271,254,238,228,204,192,181,173,163,137,123,110,103,95],"timestamp_mouse":[31,37,57,77,96,117,136,158,178,197,216,238,256,276,296,317,336,356,377,398,416,437,456,477,498,517,537,558,577,596,616,638,657,676,698,716,736,757,778,797,817,836,857,877,897,916,938,957,977,997,1018,1037,1056,1078,1097,1116,1137,1158,1176,1196],"xSR":741.5,"ySR":469.95,"xT1":424.9,"yT1":0,"xT2":1058.1,"yT2":0,"toosoon":0,"cond_shown":"equaldotanddens","ratio_trial":500,"smaller_num":"10","larger_num":"20","correct_side":2,"subjID":"Anasofiabermudezsalazar35","gender":"1","age":"10","school":"6"},{"start_time":1551794825204,"click_time":1551794826202,"finger_time":1551794825762,"fix_duration":440.6737403090614,"trial":12,"RT":558,"MT":440,"sideResp":2,"stimulus":"img/250/equaldotanddens/R/13_Ratio_250_L_2_R_8.png","xmouse":[825,825,825,826,827,828,828,828,828,828,828,828,828,828,828,828,828,828,828,828,828,828,828,828,828,828,834,845,857,876,902,915,922,934,940,961,969,982,984,996,1012,1018,1023,1027,1031,1036,1038,1044,1056,1070],"ymouse":[534,534,534,534,537,539,541,542,543,544,546,547,548,550,550,550,550,550,550,550,550,550,550,550,550,550,545,534,523,502,462,433,408,383,361,310,283,253,244,208,164,143,127,116,111,104,103,101,94,84],"timestamp_mouse":[33,38,58,77,97,117,138,157,178,197,219,237,258,277,297,317,339,357,378,397,417,438,459,477,497,517,537,558,577,597,617,637,657,677,697,717,739,758,778,797,818,837,857,877,897,917,938,958,979,998],"xSR":741.5,"ySR":469.95,"xT1":424.9,"yT1":0,"xT2":1058.1,"yT2":0,"toosoon":0,"cond_shown":"equaldotanddens","ratio_trial":250,"smaller_num":"2","larger_num":"8","correct_side":2,"subjID":"Anasofiabermudezsalazar35","gender":"1","age":"10","school":"6"},{"start_time":1551794828293,"click_time":1551794829621,"finger_time":1551794828903,"fix_duration":250,"trial":13,"RT":610,"MT":718,"sideResp":1,"stimulus":"img/250/equaldotanddens/L/15_Ratio_250_L_12_R_3.png","xmouse":[781,781,781,781,781,781,781,781,782,782,783,783,783,783,783,783,784,784,784,784,784,784,784,784,784,784,784,784,784,780,766,745,717,686,656,627,614,612,610,609,608,608,608,608,607,603,580,570,563,559,559,559,554,547,542,542,541,541,541,541,541,541,541,541,541,540,516],"ymouse":[527,527,527,527,527,527,527,527,527,527,528,528,528,528,528,528,528,528,528,528,528,528,528,528,528,528,528,528,528,523,448,380,303,228,163,101,63,47,39,30,27,25,25,25,24,26,40,44,47,47,48,48,48,48,46,46,45,45,45,45,45,45,45,45,45,45,49],"timestamp_mouse":[10,39,48,69,88,109,130,148,169,188,209,228,248,269,289,308,329,348,369,389,409,429,449,470,489,510,529,549,569,588,610,629,649,668,689,709,729,748,769,789,810,828,848,869,890,909,929,948,968,989,1010,1028,1049,1069,1089,1109,1130,1149,1168,1188,1210,1229,1249,1269,1290,1309,1328],"xSR":741.5,"ySR":469.95,"xT1":424.9,"yT1":0,"xT2":1058.1,"yT2":0,"toosoon":0,"cond_shown":"equaldotanddens","ratio_trial":250,"smaller_num":"3","larger_num":"12","correct_side":1,"subjID":"Anasofiabermudezsalazar35","gender":"1","age":"10","school":"6"},{"start_time":1551794831112,"click_time":1551794832121,"finger_time":1551794831761,"fix_duration":489.02736298132254,"trial":14,"RT":649,"MT":360,"sideResp":2,"stimulus":"img/750/equaldotsize/R/11_Ratio_750_L_12_R_16.png","xmouse":[809,809,809,809,809,809,809,809,810,810,810,810,810,810,810,810,810,810,810,810,810,810,810,810,810,810,810,810,810,810,810,823,854,863,917,964,998,1017,1029,1039,1052,1055,1058,1059,1059,1058,1053,1051,1048,1055,1060],"ymouse":[509,509,509,509,509,509,509,509,510,510,510,510,510,510,511,511,511,511,511,511,511,511,511,511,511,511,511,511,511,511,511,505,484,477,443,406,381,365,350,333,307,291,278,256,238,186,151,123,103,80,68],"timestamp_mouse":[10,45,50,69,90,110,129,150,170,189,210,229,251,270,290,310,330,350,369,391,411,429,450,469,490,509,531,550,569,589,609,630,649,669,689,710,729,749,769,791,809,830,849,870,889,909,929,950,970,991,1009],"xSR":741.5,"ySR":469.95,"xT1":424.9,"yT1":0,"xT2":1058.1,"yT2":0,"toosoon":0,"cond_shown":"equaldotsize","ratio_trial":750,"smaller_num":"12","larger_num":"16","correct_side":2,"subjID":"Anasofiabermudezsalazar35","gender":"1","age":"10","school":"6"},{"start_time":1551794834207,"click_time":1551794835203,"finger_time":1551794834841,"fix_duration":1303.174260141256,"trial":15,"RT":634,"MT":362,"sideResp":2,"stimulus":"img/500/equaldotsize/R/1_Ratio_500_L_9_R_18.png","xmouse":[800,801,801,801,801,801,801,801,802,802,802,802,802,802,802,803,803,803,803,803,803,803,803,805,805,805,805,805,808,814,836,859,891,951,1000,1068,1095,1112,1115,1120,1124,1126,1126,1127,1128,1131,1131,1131,1131,1128],"ymouse":[551,551,551,551,551,551,551,551,551,551,551,551,551,551,551,552,552,552,552,552,552,552,552,553,553,553,553,553,554,551,541,524,495,455,411,331,297,264,258,237,214,206,198,189,181,160,150,130,113,81],"timestamp_mouse":[14,43,56,75,95,115,135,155,176,194,215,234,254,275,294,314,336,355,374,396,414,436,454,475,495,516,534,555,574,594,616,634,654,674,694,714,736,754,774,794,814,834,854,874,896,916,935,955,974,995],"xSR":741.5,"ySR":469.95,"xT1":424.9,"yT1":0,"xT2":1058.1,"yT2":0,"toosoon":0,"cond_shown":"equaldotsize","ratio_trial":500,"smaller_num":"9","larger_num":"18","correct_side":2,"subjID":"Anasofiabermudezsalazar35","gender":"1","age":"10","school":"6"},{"start_time":1551794836846,"click_time":1551794838063,"finger_time":1551794837741,"fix_duration":723.5875658601622,"trial":16,"RT":895,"MT":322,"sideResp":2,"stimulus":"img/500/equaldotsize/R/9_Ratio_500_L_2_R_4.png","xmouse":[782,782,782,782,782,782,782,782,782,782,782,782,782,782,782,782,782,782,782,782,782,782,782,782,782,782,781,779,778,778,778,778,778,778,778,778,778,778,778,778,780,786,800,838,866,883,929,944,972,981,990,1001,1010,1022,1026,1032,1039,1044,1055,1059,1061],"ymouse":[529,529,529,529,529,529,529,529,529,529,529,529,529,529,529,529,529,529,529,529,529,529,529,529,529,530,537,549,558,559,559,559,559,559,559,559,559,559,559,559,557,549,536,498,468,449,394,366,317,291,261,234,222,194,185,172,149,136,110,101,98],"timestamp_mouse":[17,38,56,75,95,116,135,157,176,195,216,235,255,275,295,316,335,355,375,395,417,436,455,476,495,515,537,555,575,595,615,635,656,675,695,717,735,756,777,795,815,836,856,876,895,915,936,955,975,995,1016,1036,1056,1076,1096,1116,1135,1156,1177,1195,1217],"xSR":741.5,"ySR":469.95,"xT1":424.9,"yT1":0,"xT2":1058.1,"yT2":0,"toosoon":0,"cond_shown":"equaldotsize","ratio_trial":500,"smaller_num":"2","larger_num":"4","correct_side":2,"subjID":"Anasofiabermudezsalazar35","gender":"1","age":"10","school":"6"},{"start_time":1551794841462,"click_time":1551794842241,"finger_time":1551794841962,"fix_duration":518.0588347045028,"trial":17,"RT":500,"MT":279,"sideResp":2,"stimulus":"img/250/equaldotsize/R/9_Ratio_250_L_3_R_12.png","xmouse":[802,802,802,803,803,804,804,804,805,805,806,807,808,808,808,808,808,808,808,808,808,809,809,824,833,843,855,879,919,945,974,992,1006,1033,1042,1049,1055,1059,1064,1067],"ymouse":[546,546,546,546,546,546,546,546,546,546,546,546,546,546,546,546,546,546,546,546,546,546,546,533,519,506,489,451,390,354,312,279,258,214,195,180,158,141,107,96],"timestamp_mouse":[1,20,39,59,80,99,119,139,161,179,199,219,240,260,279,299,319,341,359,379,400,419,440,459,480,500,520,539,559,579,600,620,641,660,679,699,721,740,760,779],"xSR":741.5,"ySR":469.95,"xT1":424.9,"yT1":0,"xT2":1058.1,"yT2":0,"toosoon":0,"cond_shown":"equaldotsize","ratio_trial":250,"smaller_num":"3","larger_num":"12","correct_side":2,"subjID":"Anasofiabermudezsalazar35","gender":"1","age":"10","school":"6"},{"start_time":1551794846680,"click_time":1551794847903,"finger_time":1551794847442,"fix_duration":1277.0693881140892,"trial":18,"RT":762,"MT":461,"sideResp":1,"stimulus":"img/900/equaldotanddens/L/8_Ratio_900_L_20_R_18.png","xmouse":[806,806,806,806,806,806,806,806,806,806,806,806,806,806,806,806,806,806,806,806,806,806,806,806,806,806,806,806,806,806,806,806,804,801,800,791,786,777,771,764,758,748,731,720,701,679,646,597,580,569,558,545,542,541,540,539,532,528,523,515,511,484],"ymouse":[529,529,529,529,529,529,529,529,529,529,529,529,529,529,529,529,529,529,529,529,529,529,529,529,529,529,529,529,529,529,529,529,527,526,522,500,493,475,461,446,428,408,382,363,340,316,282,231,212,198,184,163,157,148,140,134,119,113,109,104,102,91],"timestamp_mouse":[9,22,41,61,81,101,121,141,162,182,202,221,241,261,281,301,321,341,361,382,402,421,442,461,482,501,523,542,561,583,601,621,641,662,681,702,721,742,762,782,802,821,841,861,881,901,921,941,961,982,1001,1023,1041,1062,1081,1101,1122,1141,1161,1181,1201,1223],"xSR":741.5,"ySR":469.95,"xT1":424.9,"yT1":0,"xT2":1058.1,"yT2":0,"toosoon":0,"cond_shown":"equaldotanddens","ratio_trial":900,"smaller_num":"18","larger_num":"20","correct_side":1,"subjID":"Anasofiabermudezsalazar35","gender":"1","age":"10","school":"6"},{"start_time":1551794849654,"click_time":1551794850542,"finger_time":1551794850241,"fix_duration":550.1203220681224,"trial":19,"RT":587,"MT":301,"sideResp":2,"stimulus":"img/500/equaldotanddens/R/14_Ratio_500_L_5_R_10.png","xmouse":[784,784,784,785,785,785,786,786,786,786,786,786,787,787,787,787,787,787,787,787,787,787,787,787,787,787,790,801,820,838,850,870,883,911,922,935,945,960,989,1005,1018,1038,1055,1098,1121],"ymouse":[521,521,521,522,522,522,522,522,522,522,522,522,522,522,522,522,522,522,522,522,522,522,522,522,522,522,522,511,489,463,444,419,402,366,354,340,329,311,270,247,226,200,173,114,83],"timestamp_mouse":[8,27,47,67,87,108,129,147,168,189,207,227,247,267,287,307,328,347,368,387,407,428,449,469,487,509,528,548,568,587,608,627,648,668,688,707,728,747,767,787,808,827,847,867,888],"xSR":741.5,"ySR":469.95,"xT1":424.9,"yT1":0,"xT2":1058.1,"yT2":0,"toosoon":0,"cond_shown":"equaldotanddens","ratio_trial":500,"smaller_num":"5","larger_num":"10","correct_side":2,"subjID":"Anasofiabermudezsalazar35","gender":"1","age":"10","school":"6"},{"start_time":1551794853253,"click_time":1551794854621,"finger_time":1551794853903,"fix_duration":1451.6938624633904,"trial":20,"RT":650,"MT":718,"sideResp":1,"stimulus":"img/750/randomdotsizeEA/R/5_Ratio_750_L_15_R_20.png","xmouse":[830,830,830,830,830,831,831,831,833,833,833,833,833,833,833,833,833,833,833,833,833,833,833,833,833,833,833,833,833,833,835,835,821,808,787,766,736,717,683,664,645,626,611,594,589,586,580,575,564,559,555,552,550,546,544,543,543,542,541,541,541,541,541,541,541,541,541,541,520],"ymouse":[539,539,539,539,539,539,539,539,541,541,541,541,541,541,541,541,541,541,541,541,541,541,541,541,541,541,541,541,541,541,541,532,468,445,419,396,369,356,324,307,290,274,258,234,225,216,197,180,144,129,115,104,92,71,64,60,58,56,54,54,54,54,54,54,53,52,52,52,52],"timestamp_mouse":[10,34,49,69,88,108,128,150,168,188,208,228,249,269,288,308,329,349,369,389,409,428,448,468,490,509,528,549,569,588,609,629,650,668,688,708,729,748,768,788,808,829,849,868,888,908,929,949,968,989,1009,1029,1048,1069,1088,1109,1129,1148,1168,1188,1209,1228,1248,1268,1288,1309,1329,1349,1368],"xSR":741.5,"ySR":469.95,"xT1":424.9,"yT1":0,"xT2":1058.1,"yT2":0,"toosoon":0,"cond_shown":"randomdotsizeEA","ratio_trial":750,"smaller_num":"15","larger_num":"20","correct_side":2,"subjID":"Anasofiabermudezsalazar35","gender":"1","age":"10","school":"6"},{"start_time":1551794858862,"click_time":1551794860482,"finger_time":1551794859702,"fix_duration":399.33506965507723,"trial":21,"RT":840,"MT":780,"sideResp":2,"stimulus":"img/750/randomdotsizeEA/R/15_Ratio_750_L_9_R_12.png","xmouse":[802,802,802,802,802,802,802,802,803,803,803,803,803,803,803,803,803,803,803,803,803,803,803,803,803,803,803,803,803,803,803,803,803,803,804,806,807,808,810,813,818,823,846,863,880,893,915,928,947,955,960,964,972,977,978,980,982,986,993,994,994,995,995,995,995,995,995,995,995,996,998,1000,1002,1009,1012,1018,1029,1038,1058,1069,1078,1087],"ymouse":[511,511,511,511,511,511,511,511,511,511,511,511,511,511,511,511,511,511,511,511,511,511,511,511,511,511,511,511,511,511,511,511,511,511,511,509,506,504,498,492,483,473,435,414,393,377,347,330,303,292,284,278,267,261,261,258,255,249,244,243,243,242,242,242,242,242,242,242,242,241,239,239,237,231,227,218,201,185,147,126,103,81],"timestamp_mouse":[1,19,39,59,79,99,119,139,160,179,199,220,239,259,280,299,320,339,359,381,399,419,439,460,481,500,520,539,559,579,599,620,641,661,680,700,719,739,759,779,801,819,840,859,879,900,920,940,959,979,1001,1019,1041,1059,1080,1099,1119,1141,1159,1179,1200,1219,1240,1259,1281,1300,1320,1340,1360,1379,1401,1420,1441,1459,1480,1499,1519,1539,1559,1580,1599,1619],"xSR":741.5,"ySR":469.95,"xT1":424.9,"yT1":0,"xT2":1058.1,"yT2":0,"toosoon":0,"cond_shown":"randomdotsizeEA","ratio_trial":750,"smaller_num":"9","larger_num":"12","correct_side":2,"subjID":"Anasofiabermudezsalazar35","gender":"1","age":"10","school":"6"},{"start_time":1551794862194,"click_time":1551794863761,"finger_time":1551794862882,"fix_duration":330.6261357459174,"trial":22,"RT":688,"MT":879,"sideResp":2,"stimulus":"img/750/equaldotanddens/R/12_Ratio_750_L_3_R_4.png","xmouse":[773,773,773,774,776,777,779,779,779,779,779,779,779,780,780,780,780,780,780,780,781,781,781,781,781,781,781,781,781,781,781,788,802,823,861,904,994,1047,1061,1086,1096,1100,1100,1100,1100,1100,1100,1100,1100,1093,1089,1067,1054,1046,1043,1042,1042,1042,1042,1042,1042,1043,1045,1046,1048,1049,1051,1051,1051,1051,1051,1051,1051,1052,1052,1054,1056,1058,1062],"ymouse":[553,553,553,553,554,554,555,555,555,555,555,555,555,555,555,555,555,555,555,555,555,555,555,555,555,555,555,555,555,555,555,551,539,515,482,445,389,349,334,303,286,261,247,240,234,220,214,205,194,175,161,127,110,98,88,79,78,76,76,76,76,75,73,73,71,71,71,71,71,71,71,71,71,71,71,71,71,71,71],"timestamp_mouse":[10,42,47,68,87,107,129,148,168,187,207,227,247,267,289,307,328,349,367,388,408,428,448,467,487,509,527,548,568,587,608,627,647,667,688,707,727,747,767,787,807,827,848,867,887,909,927,947,967,989,1008,1027,1047,1067,1087,1108,1127,1148,1169,1187,1207,1227,1248,1268,1288,1307,1328,1348,1368,1388,1408,1427,1448,1467,1489,1509,1527,1548,1567],"xSR":741.5,"ySR":469.95,"xT1":424.9,"yT1":0,"xT2":1058.1,"yT2":0,"toosoon":0,"cond_shown":"equaldotanddens","ratio_trial":750,"smaller_num":"3","larger_num":"4","correct_side":2,"subjID":"Anasofiabermudezsalazar35","gender":"1","age":"10","school":"6"},{"start_time":1551794866626,"click_time":1551794867582,"finger_time":1551794867222,"fix_duration":882.5724573681808,"trial":23,"RT":596,"MT":360,"sideResp":2,"stimulus":"img/750/randomdotsizeEA/R/11_Ratio_750_L_12_R_16.png","xmouse":[788,788,788,788,788,788,788,788,788,788,788,788,788,788,788,788,788,788,788,788,788,788,788,788,788,788,789,796,807,820,826,832,839,866,880,899,925,973,1011,1057,1077,1093,1104,1113,1123,1127,1130,1131],"ymouse":[519,519,519,519,519,519,519,519,519,519,519,519,519,519,519,519,519,519,519,519,519,519,519,519,519,519,518,505,480,446,433,420,403,365,343,321,293,257,231,191,176,158,145,133,115,109,102,99],"timestamp_mouse":[16,40,55,77,96,115,135,155,175,195,216,236,257,275,295,316,337,355,375,396,415,436,457,475,496,515,536,555,575,596,615,635,655,676,695,716,736,755,775,796,815,837,855,876,896,915,935,956],"xSR":741.5,"ySR":469.95,"xT1":424.9,"yT1":0,"xT2":1058.1,"yT2":0,"toosoon":0,"cond_shown":"randomdotsizeEA","ratio_trial":750,"smaller_num":"12","larger_num":"16","correct_side":2,"subjID":"Anasofiabermudezsalazar35","gender":"1","age":"10","school":"6"},{"start_time":1551794871399,"click_time":1551794872821,"finger_time":1551794872182,"fix_duration":676.664513298218,"trial":24,"RT":783,"MT":639,"sideResp":2,"stimulus":"img/900/equaldotanddens/R/11_Ratio_900_L_18_R_20.png","xmouse":[822,823,823,823,823,823,823,823,823,823,823,823,823,823,823,823,823,823,823,823,823,823,823,823,823,823,823,823,823,823,823,823,823,823,823,823,831,836,841,861,878,907,922,933,945,966,974,981,987,998,1013,1020,1027,1034,1041,1059,1068,1077,1082,1087,1089,1089,1089,1089,1089,1089,1089,1090,1091,1095,1104,1110],"ymouse":[531,531,531,531,531,531,531,531,531,531,531,531,531,531,531,531,531,531,531,531,531,531,531,531,531,531,531,531,531,531,531,531,531,531,531,531,524,510,501,470,449,402,378,357,337,298,284,274,263,249,230,220,212,203,196,177,166,155,149,140,137,137,137,137,137,137,137,133,131,122,101,87],"timestamp_mouse":[4,39,44,63,82,103,122,143,163,183,202,223,242,262,283,302,323,342,363,382,404,422,442,464,483,502,523,542,562,583,603,623,642,663,683,703,722,743,762,783,802,823,843,864,883,903,922,942,962,983,1004,1022,1043,1062,1083,1104,1122,1142,1162,1183,1204,1224,1242,1264,1282,1302,1323,1342,1362,1383,1403,1422],"xSR":741.5,"ySR":469.95,"xT1":424.9,"yT1":0,"xT2":1058.1,"yT2":0,"toosoon":0,"cond_shown":"equaldotanddens","ratio_trial":900,"smaller_num":"18","larger_num":"20","correct_side":2,"subjID":"Anasofiabermudezsalazar35","gender":"1","age":"10","school":"6"},{"start_time":1551794878712,"click_time":1551794880021,"finger_time":1551794879503,"fix_duration":1248.9595346243314,"trial":25,"RT":791,"MT":518,"sideResp":1,"stimulus":"img/250/equaldotsize/L/15_Ratio_250_L_12_R_3.png","xmouse":[762,762,762,762,762,762,762,762,762,762,762,762,762,762,762,762,762,762,762,762,762,762,762,762,762,762,762,762,762,762,762,762,762,762,762,762,762,756,752,740,730,718,704,692,682,659,643,630,615,603,585,576,562,550,509,492,471,455,437,422,413,413,413,413,414,425],"ymouse":[526,526,526,526,526,526,526,526,526,526,526,526,526,526,526,526,526,526,526,526,526,526,526,526,526,526,526,526,526,526,526,526,526,526,526,526,526,508,500,469,452,433,413,389,373,341,318,296,275,256,221,205,185,171,140,129,119,112,106,102,99,99,99,96,95,81],"timestamp_mouse":[10,37,50,70,90,110,130,150,170,189,209,230,249,271,289,309,329,351,369,390,409,430,450,469,491,511,529,551,569,590,609,629,650,669,690,710,729,750,770,791,811,830,849,870,890,911,929,949,969,990,1009,1031,1049,1069,1090,1109,1129,1150,1169,1189,1210,1229,1249,1270,1289,1309],"xSR":741.5,"ySR":469.95,"xT1":424.9,"yT1":0,"xT2":1058.1,"yT2":0,"toosoon":0,"cond_shown":"equaldotsize","ratio_trial":250,"smaller_num":"3","larger_num":"12","correct_side":1,"subjID":"Anasofiabermudezsalazar35","gender":"1","age":"10","school":"6"},{"start_time":1551794885249,"click_time":1551794886321,"finger_time":1551794886021,"fix_duration":1246.0454781978883,"trial":26,"RT":772,"MT":300,"sideResp":2,"stimulus":"img/900/equaldotanddens/R/15_Ratio_900_L_9_R_10.png","xmouse":[766,766,766,766,766,766,766,766,766,766,766,766,766,766,766,766,766,766,766,766,766,766,766,766,766,766,766,766,766,766,766,766,772,774,778,785,795,806,836,858,891,923,989,1025,1067,1099,1131,1143,1152,1153,1153,1153,1153,1153],"ymouse":[547,547,547,547,547,547,547,547,547,547,547,547,547,547,547,547,547,547,547,547,547,547,547,547,547,547,547,547,547,547,547,547,537,530,521,506,492,474,431,405,367,334,260,224,191,164,135,123,108,105,104,103,102,99],"timestamp_mouse":[12,37,52,74,94,113,132,153,173,192,213,234,253,272,293,313,333,352,374,393,413,433,452,472,493,513,533,554,573,593,614,633,653,672,693,712,732,753,772,792,814,832,854,872,893,912,933,952,972,993,1012,1033,1053,1072],"xSR":741.5,"ySR":469.95,"xT1":424.9,"yT1":0,"xT2":1058.1,"yT2":0,"toosoon":0,"cond_shown":"equaldotanddens","ratio_trial":900,"smaller_num":"9","larger_num":"10","correct_side":2,"subjID":"Anasofiabermudezsalazar35","gender":"1","age":"10","school":"6"},{"start_time":1551794887753,"click_time":1551794888621,"finger_time":1551794888461,"fix_duration":328.35845108415896,"trial":27,"RT":708,"MT":160,"sideResp":2,"stimulus":"img/750/equaldotsize/R/4_Ratio_750_L_15_R_20.png","xmouse":[821,821,821,821,821,821,821,821,821,821,821,821,821,821,821,821,821,821,821,821,821,821,821,821,821,821,821,821,821,821,821,821,822,824,833,853,879,962,1006,1036,1055,1064,1067,1067],"ymouse":[526,526,526,526,526,526,526,526,526,526,526,526,526,526,526,526,526,526,526,526,526,526,526,526,526,526,526,526,526,526,526,526,528,528,526,510,480,360,290,230,177,127,101,64],"timestamp_mouse":[9,34,49,68,88,109,128,148,169,189,208,229,248,270,290,309,329,348,369,390,408,428,449,469,489,508,529,548,570,588,608,629,649,669,688,708,728,749,768,788,808,828,848,868],"xSR":741.5,"ySR":469.95,"xT1":424.9,"yT1":0,"xT2":1058.1,"yT2":0,"toosoon":0,"cond_shown":"equaldotsize","ratio_trial":750,"smaller_num":"15","larger_num":"20","correct_side":2,"subjID":"Anasofiabermudezsalazar35","gender":"1","age":"10","school":"6"},{"start_time":1551794890492,"click_time":1551794891521,"finger_time":1551794891201,"fix_duration":1069.4676075264679,"trial":28,"RT":709,"MT":320,"sideResp":1,"stimulus":"img/750/equaldotanddens/L/13_Ratio_750_L_8_R_6.png","xmouse":[782,782,782,782,782,782,782,782,782,783,783,783,783,783,783,783,783,783,783,783,783,783,783,783,783,783,783,783,783,783,783,783,778,772,757,730,683,641,617,607,599,597,597,597,597,594,584,570,554,531,513,489],"ymouse":[548,548,548,548,548,548,548,548,548,548,548,548,548,548,548,548,548,548,548,548,548,548,548,548,548,548,548,548,548,548,548,548,545,537,509,468,417,384,358,340,310,297,287,279,268,230,215,193,170,144,123,91],"timestamp_mouse":[9,44,49,71,89,110,130,149,171,189,210,231,250,270,290,311,329,350,369,389,410,430,449,469,490,511,529,549,569,590,609,629,650,670,689,709,731,750,770,790,810,829,849,870,890,910,929,950,970,989,1009,1029],"xSR":741.5,"ySR":469.95,"xT1":424.9,"yT1":0,"xT2":1058.1,"yT2":0,"toosoon":0,"cond_shown":"equaldotanddens","ratio_trial":750,"smaller_num":"6","larger_num":"8","correct_side":1,"subjID":"Anasofiabermudezsalazar35","gender":"1","age":"10","school":"6"},{"start_time":1551794893548,"click_time":1551794895123,"finger_time":1551794894503,"fix_duration":986.1338409339368,"trial":29,"RT":955,"MT":620,"sideResp":1,"stimulus":"img/250/randomdotsizeEA/L/3_Ratio_250_L_8_R_2.png","xmouse":[766,766,766,766,766,766,766,766,766,766,766,766,766,766,766,766,766,766,766,766,766,766,766,766,766,766,766,766,766,766,766,766,766,766,766,766,766,766,766,766,766,766,766,766,766,766,766,754,738,701,663,631,619,605,600,598,594,579,566,553,542,530,516,497,484,476,469,466,464,464,464,464,465,467,470,474,481,487,495],"ymouse":[484,484,484,484,484,484,484,484,484,484,484,484,484,484,484,484,484,484,484,484,484,484,484,484,484,484,484,484,484,484,484,484,484,484,484,484,484,484,484,484,484,484,484,484,484,484,483,460,436,408,384,356,341,317,307,298,289,264,250,238,224,208,186,163,153,144,137,134,130,128,128,126,125,122,117,114,109,105,94],"timestamp_mouse":[13,35,54,75,93,113,133,153,173,193,214,234,254,273,294,313,334,353,374,394,414,433,453,474,494,514,534,553,575,594,613,633,655,676,694,715,734,756,774,796,816,834,855,875,894,914,935,955,974,994,1015,1035,1054,1075,1094,1114,1135,1156,1174,1194,1214,1235,1255,1275,1294,1314,1334,1356,1374,1395,1415,1434,1454,1475,1494,1514,1535,1554,1575],"xSR":741.5,"ySR":469.95,"xT1":424.9,"yT1":0,"xT2":1058.1,"yT2":0,"toosoon":0,"cond_shown":"randomdotsizeEA","ratio_trial":250,"smaller_num":"2","larger_num":"8","correct_side":1,"subjID":"Anasofiabermudezsalazar35","gender":"1","age":"10","school":"6"},{"start_time":1551794897043,"click_time":1551794898104,"finger_time":1551794897742,"fix_duration":698.971404820171,"trial":30,"RT":699,"MT":362,"sideResp":2,"stimulus":"img/250/equaldotsize/R/6_Ratio_250_L_6_R_24.png","xmouse":[766,766,766,766,766,766,766,766,766,766,766,766,766,766,766,766,766,766,766,766,766,766,766,766,766,766,766,766,766,766,766,766,766,770,816,864,916,964,1006,1050,1063,1073,1081,1089,1093,1095,1095,1095,1095,1098,1099,1104,1108,1113],"ymouse":[547,547,547,547,547,547,547,547,547,547,547,547,547,547,547,547,547,547,547,547,547,547,547,547,547,547,547,547,547,547,547,547,547,544,500,464,425,386,349,287,263,240,218,182,172,160,158,149,141,130,123,113,103,80],"timestamp_mouse":[1,19,45,60,79,100,119,139,159,180,200,220,241,260,281,300,320,339,361,380,400,419,440,461,480,499,519,541,560,579,601,619,641,660,679,699,719,741,760,780,800,819,839,860,879,900,919,940,959,979,999,1020,1040,1060],"xSR":741.5,"ySR":469.95,"xT1":424.9,"yT1":0,"xT2":1058.1,"yT2":0,"toosoon":0,"cond_shown":"equaldotsize","ratio_trial":250,"smaller_num":"6","larger_num":"24","correct_side":2,"subjID":"Anasofiabermudezsalazar35","gender":"1","age":"10","school":"6"},{"start_time":1551794900525,"click_time":1551794905023,"finger_time":1551794901562,"fix_duration":1201.4833814783094,"trial":31,"RT":1037,"MT":3461,"sideResp":2,"stimulus":"img/750/equaldotsize/L/10_Ratio_750_L_4_R_3.png","xmouse":[793,793,793,793,793,793,793,793,793,793,793,793,793,793,793,793,793,793,793,793,793,793,793,793,793,793,793,793,793,793,793,793,793,793,793,793,793,793,793,793,793,793,793,793,793,793,793,793,793,799,805,821,837,851,877,887,898,905,914,933,938,943,947,947,947,947,947,947,947,947,947,947,947,947,947,947,947,947,947,947,947,947,944,943,936,930,921,912,897,859,837,821,808,807,807,807,807,807,807,807,807,807,807,808,809,809,809,809,809,809,809,809,809,809,809,809,809,809,809,809,809,809,809,809,809,809,809,809,809,809,809,809,809,809,809,809,809,809,809,809,809,809,809,809,809,809,809,809,809,809,809,809,809,809,809,809,809,809,809,809,809,809,809,809,809,809,809,809,809,809,809,809,812,828,860,880,896,921,972,992,1008,1024,1038,1059,1088,1102,1119,1132,1143,1159,1163,1164,1165,1165,1165,1165,1165,1165,1165,1165,1165,1165,1163,1158,1158,1158,1158,1158,1158,1158,1158,1158,1158,1158,1158,1158,1158,1158,1158,1158,1158,1156,1151,1148,1145],"ymouse":[488,488,488,488,488,488,488,488,488,488,488,488,488,488,488,488,488,488,488,488,488,488,488,488,488,488,488,488,488,488,488,488,488,488,488,488,488,488,488,488,488,488,488,488,488,488,488,488,488,483,474,453,436,418,385,369,353,342,330,307,301,297,292,292,292,292,292,292,292,292,292,292,292,292,292,292,292,292,292,292,292,294,299,302,314,324,339,352,372,420,449,470,491,494,494,494,494,494,494,494,494,495,495,496,496,496,496,496,496,496,497,497,497,497,497,497,497,497,497,497,497,497,497,497,497,497,497,497,497,497,497,497,497,497,497,497,497,497,497,497,497,497,497,497,497,497,497,497,497,497,497,497,497,497,497,497,497,497,497,497,497,497,497,497,497,497,497,497,497,497,497,493,482,463,427,403,381,350,299,285,273,261,246,225,198,186,170,157,142,121,116,111,111,111,111,111,111,111,111,111,111,111,107,104,104,104,104,104,104,104,104,104,104,104,104,104,104,104,104,104,104,103,101,100,98],"timestamp_mouse":[30,37,58,77,98,117,137,159,177,198,218,238,257,278,298,318,337,358,377,398,417,438,457,477,498,518,538,558,579,597,618,638,657,678,699,717,737,757,778,799,818,838,859,878,898,918,938,958,977,997,1018,1037,1057,1077,1097,1117,1137,1158,1178,1197,1217,1237,1258,1279,1298,1319,1339,1358,1377,1397,1418,1437,1458,1479,1499,1518,1537,1558,1579,1597,1617,1637,1658,1677,1697,1717,1738,1758,1779,1798,1817,1837,1857,1878,1899,1918,1937,1958,1978,1997,2018,2038,2057,2078,2098,2117,2137,2157,2178,2197,2218,2237,2259,2278,2297,2317,2337,2357,2378,2399,2417,2437,2457,2478,2498,2519,2537,2558,2577,2599,2618,2638,2658,2677,2698,2717,2737,2757,2778,2799,2818,2838,2858,2877,2897,2917,2937,2957,2978,2999,3017,3038,3058,3078,3097,3117,3137,3158,3177,3197,3218,3238,3257,3278,3297,3317,3338,3357,3379,3399,3418,3438,3458,3477,3498,3517,3539,3557,3579,3597,3617,3638,3657,3677,3698,3717,3737,3758,3778,3798,3817,3837,3858,3879,3899,3918,3939,3957,3978,3997,4018,4037,4057,4079,4097,4117,4138,4158,4178,4198,4217,4238,4258,4279,4297,4317,4337,4358,4377,4398,4418,4437,4457,4477,4497],"xSR":741.5,"ySR":469.95,"xT1":424.9,"yT1":0,"xT2":1058.1,"yT2":0,"toosoon":0,"cond_shown":"equaldotsize","ratio_trial":750,"smaller_num":"3","larger_num":"4","correct_side":1,"subjID":"Anasofiabermudezsalazar35","gender":"1","age":"10","school":"6"},{"start_time":1551794911254,"click_time":1551794913082,"finger_time":1551794912002,"fix_duration":1148.371726516866,"trial":32,"RT":748,"MT":1080,"sideResp":1,"stimulus":"img/900/equaldotsize/R/6_Ratio_900_L_9_R_10.png","xmouse":[805,805,805,805,805,805,805,805,805,805,805,805,805,805,805,805,805,805,805,805,805,805,805,805,805,805,805,805,805,805,805,805,805,805,805,800,784,759,678,617,556,518,492,473,471,471,470,470,470,470,470,470,470,471,472,473,473,473,473,473,473,473,473,473,473,473,473,473,473,473,473,473,473,473,473,473,473,473,472,472,472,471,471,471,471,471,471,471,471,473,477,482],"ymouse":[533,533,533,533,533,533,533,533,533,533,533,533,533,533,533,533,533,533,533,533,533,533,533,533,533,533,533,533,533,533,533,533,533,533,532,516,486,459,393,360,327,308,293,278,275,274,273,264,259,251,246,240,219,209,203,201,200,200,200,200,200,200,200,200,200,200,200,200,200,200,200,200,200,200,197,195,192,168,154,143,136,132,128,128,128,128,128,126,123,116,105,91],"timestamp_mouse":[8,36,48,68,89,109,130,148,169,189,208,229,248,269,290,308,328,349,368,388,409,428,449,468,489,509,529,550,568,590,608,629,649,668,689,709,729,748,768,788,809,828,849,868,889,909,928,950,968,989,1009,1029,1050,1069,1089,1108,1128,1150,1169,1189,1209,1228,1249,1268,1289,1309,1328,1350,1368,1388,1410,1429,1449,1468,1489,1508,1529,1550,1568,1588,1609,1629,1648,1668,1688,1709,1728,1748,1770,1788,1808,1828],"xSR":741.5,"ySR":469.95,"xT1":424.9,"yT1":0,"xT2":1058.1,"yT2":0,"toosoon":0,"cond_shown":"equaldotsize","ratio_trial":900,"smaller_num":"9","larger_num":"10","correct_side":2,"subjID":"Anasofiabermudezsalazar35","gender":"1","age":"10","school":"6"},{"start_time":1551794916294,"click_time":1551794918362,"finger_time":1551794918023,"fix_duration":250,"trial":33,"RT":1729,"MT":339,"sideResp":1,"stimulus":"img/900/randomdotsizeEA/L/2_Ratio_900_L_20_R_18.png","xmouse":[798,798,798,798,798,798,798,798,798,798,798,798,798,798,798,798,798,798,798,798,798,798,798,798,798,798,798,798,798,798,798,798,798,799,799,799,799,799,799,799,799,799,799,799,800,801,801,801,801,801,801,801,801,805,812,816,820,820,820,820,820,820,820,820,820,820,820,820,820,820,820,820,820,820,820,820,820,820,820,820,820,820,820,820,820,820,701,593,481,383,321,296,298,300,307,313,318,320,324,329,358,384,411,433],"ymouse":[501,501,501,501,501,501,501,501,501,501,501,501,501,501,501,501,501,501,501,501,501,501,501,501,501,501,501,501,501,501,501,501,501,501,501,501,501,501,501,501,501,501,501,501,501,501,501,501,501,501,501,501,501,500,495,493,491,491,491,491,491,491,491,491,491,491,491,491,491,491,491,491,491,491,491,491,491,491,491,491,491,491,491,491,491,483,385,319,254,204,163,128,110,104,93,86,82,80,77,75,69,68,68,68],"timestamp_mouse":[8,40,48,69,88,110,129,148,168,189,208,228,248,270,288,309,329,349,370,389,408,428,448,468,490,508,528,549,569,590,610,628,649,669,689,709,728,748,768,789,808,829,848,868,889,908,928,948,968,988,1009,1028,1049,1068,1089,1108,1129,1149,1168,1188,1208,1228,1249,1268,1288,1309,1330,1348,1370,1390,1409,1428,1448,1470,1488,1508,1529,1548,1569,1590,1608,1628,1649,1669,1689,1708,1729,1749,1770,1789,1808,1829,1848,1868,1889,1908,1929,1949,1969,1988,2009,2028,2049,2068],"xSR":741.5,"ySR":469.95,"xT1":424.9,"yT1":0,"xT2":1058.1,"yT2":0,"toosoon":0,"cond_shown":"randomdotsizeEA","ratio_trial":900,"smaller_num":"18","larger_num":"20","correct_side":1,"subjID":"Anasofiabermudezsalazar35","gender":"1","age":"10","school":"6"},{"start_time":1551794920213,"click_time":1551794921423,"finger_time":1551794921122,"fix_duration":428.60008594635815,"trial":34,"RT":909,"MT":301,"sideResp":1,"stimulus":"img/500/randomdotsizeEA/L/11_Ratio_500_L_12_R_6.png","xmouse":[786,786,786,786,786,786,786,786,786,786,786,786,786,786,786,786,786,786,786,786,786,786,786,786,786,786,786,786,786,786,786,786,786,786,786,786,786,786,786,786,786,785,785,779,771,725,711,701,686,673,645,633,626,620,612,593,572,548,540,506,470],"ymouse":[550,550,550,550,550,550,550,550,550,550,550,550,550,550,550,550,550,550,550,550,550,550,550,550,550,550,550,550,550,550,550,550,550,550,550,550,550,550,550,550,550,550,549,540,522,453,434,414,386,366,330,314,302,291,278,245,214,184,169,130,89],"timestamp_mouse":[9,29,49,70,91,110,130,149,169,190,210,229,249,269,290,310,329,351,370,390,411,429,450,470,490,511,529,549,569,590,609,630,650,670,690,709,729,749,769,791,811,830,849,869,889,909,929,949,970,990,1009,1029,1049,1070,1091,1110,1129,1149,1169,1189,1209],"xSR":741.5,"ySR":469.95,"xT1":424.9,"yT1":0,"xT2":1058.1,"yT2":0,"toosoon":0,"cond_shown":"randomdotsizeEA","ratio_trial":500,"smaller_num":"6","larger_num":"12","correct_side":1,"subjID":"Anasofiabermudezsalazar35","gender":"1","age":"10","school":"6"},{"start_time":1551794922955,"click_time":1551794924423,"finger_time":1551794923983,"fix_duration":371.05148792513955,"trial":35,"RT":1028,"MT":440,"sideResp":2,"stimulus":"img/750/equaldotanddens/R/3_Ratio_750_L_15_R_20.png","xmouse":[789,789,789,789,789,789,789,789,789,789,789,789,789,789,789,789,789,789,789,789,789,789,789,789,789,789,789,789,789,789,789,789,789,789,789,790,792,801,804,807,810,812,812,812,812,813,813,813,813,813,818,837,881,908,928,949,964,976,994,1005,1010,1026,1055,1091,1107,1113,1117,1120,1121,1121,1118,1111,1105,1093],"ymouse":[555,555,555,555,555,555,555,555,555,555,555,555,555,555,555,555,555,555,555,555,555,555,555,555,555,555,555,555,555,555,555,555,555,555,548,542,535,517,511,505,501,497,495,494,494,493,493,493,493,490,484,460,402,370,341,315,295,283,273,268,266,258,246,233,223,219,213,196,184,173,152,134,116,74],"timestamp_mouse":[8,32,48,68,87,108,129,147,168,187,207,229,247,267,288,308,328,348,367,388,408,427,448,467,487,509,528,548,569,588,608,628,649,667,687,708,727,748,768,788,807,828,848,867,888,908,928,948,967,988,1008,1028,1049,1067,1088,1107,1128,1147,1167,1187,1207,1229,1247,1267,1287,1307,1327,1349,1367,1387,1407,1427,1447,1467],"xSR":741.5,"ySR":469.95,"xT1":424.9,"yT1":0,"xT2":1058.1,"yT2":0,"toosoon":0,"cond_shown":"equaldotanddens","ratio_trial":750,"smaller_num":"15","larger_num":"20","correct_side":2,"subjID":"Anasofiabermudezsalazar35","gender":"1","age":"10","school":"6"},{"start_time":1551794925739,"click_time":1551794926882,"finger_time":1551794926504,"fix_duration":315.98876668615804,"trial":36,"RT":765,"MT":378,"sideResp":1,"stimulus":"img/750/randomdotsizeEA/L/13_Ratio_750_L_8_R_6.png","xmouse":[783,783,783,783,783,783,783,783,783,782,781,780,780,780,780,780,780,780,780,780,780,780,780,780,780,780,780,780,780,780,780,780,780,780,780,779,776,775,731,707,684,667,648,625,606,598,590,581,573,554,551,548,543,538,526,523,519,514],"ymouse":[534,534,534,534,534,534,534,534,534,534,533,533,533,533,533,533,533,533,533,533,533,533,533,533,533,533,533,533,533,533,533,533,533,533,533,532,531,530,462,433,406,383,358,321,278,258,241,223,204,173,167,160,152,142,123,115,106,95],"timestamp_mouse":[9,33,43,63,85,104,124,143,164,185,205,224,243,264,283,305,323,343,364,383,405,424,444,464,484,505,523,545,565,583,604,624,645,663,685,704,723,743,765,783,804,823,844,865,883,904,923,943,963,984,1003,1023,1044,1063,1084,1103,1123,1143],"xSR":741.5,"ySR":469.95,"xT1":424.9,"yT1":0,"xT2":1058.1,"yT2":0,"toosoon":0,"cond_shown":"randomdotsizeEA","ratio_trial":750,"smaller_num":"6","larger_num":"8","correct_side":1,"subjID":"Anasofiabermudezsalazar35","gender":"1","age":"10","school":"6"},{"start_time":1551794929421,"click_time":1551794930822,"finger_time":1551794930303,"fix_duration":1296.4587528193638,"trial":37,"RT":882,"MT":519,"sideResp":2,"stimulus":"img/500/randomdotsizeEA/R/9_Ratio_500_L_2_R_4.png","xmouse":[793,793,793,793,793,793,793,793,793,793,793,793,793,793,793,793,793,793,793,793,793,793,793,793,793,793,793,793,793,793,793,793,793,793,793,793,793,793,793,793,793,809,820,835,854,879,888,895,903,908,913,916,920,926,939,947,956,973,986,1011,1025,1037,1047,1058,1064,1073,1075,1078,1079,1084,1091],"ymouse":[520,520,520,520,520,520,520,520,520,520,520,520,520,520,520,520,520,520,520,520,520,520,520,520,520,520,520,520,520,520,520,520,520,520,520,520,520,520,520,520,520,512,507,494,475,445,432,421,408,396,384,374,357,339,304,286,269,243,225,189,173,159,148,139,134,126,123,121,119,112,99],"timestamp_mouse":[9,31,42,63,82,102,122,142,162,181,201,223,242,262,282,301,322,343,362,382,401,421,441,462,481,501,521,542,561,581,601,621,642,661,683,701,723,741,762,783,802,821,842,861,882,902,921,941,961,981,1001,1021,1041,1062,1083,1101,1121,1141,1162,1183,1201,1221,1241,1261,1282,1301,1322,1343,1363,1383,1401],"xSR":741.5,"ySR":469.95,"xT1":424.9,"yT1":0,"xT2":1058.1,"yT2":0,"toosoon":0,"cond_shown":"randomdotsizeEA","ratio_trial":500,"smaller_num":"2","larger_num":"4","correct_side":2,"subjID":"Anasofiabermudezsalazar35","gender":"1","age":"10","school":"6"},{"start_time":1551794932753,"click_time":1551794933782,"finger_time":1551794933442,"fix_duration":750.4617707311311,"trial":38,"RT":689,"MT":340,"sideResp":1,"stimulus":"img/900/equaldotsize/R/11_Ratio_900_L_18_R_20.png","xmouse":[839,839,839,839,839,839,839,839,839,839,839,839,839,839,839,839,839,839,839,839,839,839,839,839,839,839,839,839,839,840,840,839,838,831,824,818,807,778,763,750,738,735,728,717,711,701,689,663,644,617,565,513],"ymouse":[507,507,507,507,507,507,507,507,507,507,507,507,507,507,507,507,507,507,507,507,507,507,507,507,507,507,507,507,507,507,507,506,505,474,450,427,397,325,297,268,242,227,201,173,162,151,143,126,117,109,95,80],"timestamp_mouse":[11,34,51,70,90,109,129,149,171,189,209,229,251,270,289,310,330,349,369,389,409,429,450,469,489,509,529,551,569,590,610,629,649,671,689,709,729,751,769,789,809,830,849,870,890,909,929,950,969,989,1010,1029],"xSR":741.5,"ySR":469.95,"xT1":424.9,"yT1":0,"xT2":1058.1,"yT2":0,"toosoon":0,"cond_shown":"equaldotsize","ratio_trial":900,"smaller_num":"18","larger_num":"20","correct_side":2,"subjID":"Anasofiabermudezsalazar35","gender":"1","age":"10","school":"6"},{"start_time":1551794935282,"click_time":1551794939642,"finger_time":1551794937582,"fix_duration":618.610240123462,"trial":39,"RT":2300,"MT":2060,"sideResp":2,"stimulus":"img/500/equaldotanddens/L/13_Ratio_500_L_12_R_6.png","xmouse":[816,816,816,816,816,816,816,816,816,816,816,816,816,816,816,816,816,816,816,816,816,816,816,816,816,816,816,816,816,816,816,816,816,816,816,816,816,816,816,816,816,816,816,816,816,816,816,816,817,817,817,817,817,817,817,817,817,818,818,818,818,819,820,820,820,820,820,820,820,820,820,820,820,820,820,820,820,820,820,820,820,820,820,820,820,820,820,820,820,820,820,820,820,820,820,820,820,820,820,820,820,820,820,820,820,820,819,815,811,809,808,808,802,796,787,758,728,628,584,565,563,563,563,563,563,563,563,563,563,563,563,563,564,577,588,607,637,683,712,733,746,748,747,746,743,741,741,741,740,740,740,740,741,741,741,741,741,741,741,741,741,741,741,741,741,741,741,741,741,741,742,747,750,757,761,766,774,790,823,870,916,955,994,1001,1005,1007,1010,1011,1013,1015,1017,1019,1022,1025,1026,1026,1026,1026,1026,1026,1026,1026,1026,1026,1026,1026,1026,1027,1027,1027,1028,1029,1031,1032,1033,1037,1042,1058,1067],"ymouse":[538,538,538,538,538,538,538,538,538,538,538,538,538,538,538,538,538,538,538,538,538,538,538,538,538,538,538,538,538,538,538,538,538,538,538,538,538,538,538,538,538,538,538,538,538,538,538,538,538,539,539,539,539,539,539,539,539,539,539,539,540,540,540,540,540,540,540,540,540,540,540,540,540,540,540,540,540,540,540,540,540,540,540,540,540,540,540,540,540,540,540,540,540,540,540,540,540,540,540,540,540,540,540,540,540,540,540,531,517,512,509,506,498,490,483,467,452,418,406,400,400,400,400,400,400,400,400,400,400,400,400,400,425,471,524,565,606,635,646,650,652,652,651,645,630,615,595,569,558,548,542,540,535,535,535,535,535,535,535,535,535,535,535,535,535,535,535,535,534,534,534,534,536,539,540,542,544,533,506,459,403,350,288,269,255,247,238,233,228,220,216,209,197,193,191,190,190,190,190,190,189,187,185,185,183,182,180,178,176,174,171,168,161,158,154,146,137,110,93],"timestamp_mouse":[8,20,40,61,81,100,120,141,161,181,200,221,241,261,280,301,321,342,360,381,402,422,441,460,482,500,520,541,561,581,600,620,640,660,681,700,721,740,761,780,801,821,841,860,881,900,922,941,960,980,1001,1021,1042,1061,1081,1102,1121,1140,1160,1181,1201,1221,1240,1262,1280,1300,1320,1340,1361,1382,1400,1421,1440,1461,1481,1501,1520,1541,1560,1580,1601,1620,1640,1660,1680,1701,1721,1742,1762,1780,1802,1821,1840,1861,1881,1902,1921,1942,1960,1982,2000,2020,2041,2060,2082,2102,2121,2141,2161,2181,2200,2220,2241,2260,2280,2300,2320,2340,2360,2381,2401,2422,2442,2461,2480,2502,2522,2542,2560,2581,2601,2621,2640,2660,2680,2701,2720,2740,2761,2781,2800,2821,2840,2861,2881,2901,2920,2940,2960,2981,3001,3021,3040,3060,3080,3102,3122,3141,3161,3181,3201,3222,3240,3260,3281,3302,3322,3342,3360,3381,3400,3422,3441,3461,3480,3501,3522,3541,3560,3580,3600,3622,3640,3660,3680,3700,3722,3740,3762,3780,3800,3821,3840,3860,3880,3900,3922,3942,3961,3981,4000,4020,4040,4061,4080,4100,4120,4140,4160,4180,4201,4220,4241,4260,4280,4301,4320,4340,4360],"xSR":741.5,"ySR":469.95,"xT1":424.9,"yT1":0,"xT2":1058.1,"yT2":0,"toosoon":0,"cond_shown":"equaldotanddens","ratio_trial":500,"smaller_num":"6","larger_num":"12","correct_side":1,"subjID":"Anasofiabermudezsalazar35","gender":"1","age":"10","school":"6"},{"start_time":1551794941893,"click_time":1551794942922,"finger_time":1551794942662,"fix_duration":250,"trial":40,"RT":769,"MT":260,"sideResp":1,"stimulus":"img/900/randomdotsizeEA/R/5_Ratio_900_L_9_R_10.png","xmouse":[754,754,754,754,754,754,754,754,754,754,754,754,754,754,754,754,754,754,754,754,754,754,754,754,754,754,754,754,754,754,754,754,754,754,754,754,754,748,740,730,700,683,668,657,647,638,617,602,589,573,557,518],"ymouse":[524,524,524,524,524,524,524,524,524,524,524,524,524,524,524,524,524,524,524,524,524,524,524,524,524,524,524,524,524,524,524,524,524,524,524,524,518,498,477,454,401,375,350,328,294,273,229,206,184,163,138,90],"timestamp_mouse":[11,42,50,69,90,110,130,151,171,190,211,229,250,269,290,311,330,349,369,389,409,430,449,471,489,509,530,549,570,590,610,631,651,670,690,711,730,749,769,790,810,829,849,870,889,909,929,950,969,990,1011,1029],"xSR":741.5,"ySR":469.95,"xT1":424.9,"yT1":0,"xT2":1058.1,"yT2":0,"toosoon":0,"cond_shown":"randomdotsizeEA","ratio_trial":900,"smaller_num":"9","larger_num":"10","correct_side":2,"subjID":"Anasofiabermudezsalazar35","gender":"1","age":"10","school":"6"},{"start_time":1551794944201,"click_time":1551794945263,"finger_time":1551794944862,"fix_duration":397.82867640337474,"trial":41,"RT":661,"MT":401,"sideResp":2,"stimulus":"img/250/equaldotanddens/R/6_Ratio_250_L_6_R_24.png","xmouse":[775,775,775,775,775,775,775,775,775,775,775,775,775,775,775,775,775,775,775,775,775,775,775,775,775,775,775,775,775,775,775,780,809,858,930,1141,1222,1286,1292,1297,1298,1298,1298,1298,1298,1298,1298,1293,1283,1266,1252,1200,1174,1150],"ymouse":[521,521,521,521,521,521,521,521,521,521,521,521,521,521,521,521,521,521,521,521,521,521,521,521,521,521,521,521,521,521,521,521,511,495,453,332,278,224,216,199,195,193,191,190,188,186,183,179,172,159,149,117,102,87],"timestamp_mouse":[8,21,44,61,83,102,121,141,161,183,202,223,242,261,281,301,321,342,361,381,401,422,441,462,481,501,522,541,562,582,602,621,641,661,681,703,722,742,761,781,801,821,841,862,881,902,921,942,961,982,1001,1021,1042,1061],"xSR":741.5,"ySR":469.95,"xT1":424.9,"yT1":0,"xT2":1058.1,"yT2":0,"toosoon":0,"cond_shown":"equaldotanddens","ratio_trial":250,"smaller_num":"6","larger_num":"24","correct_side":2,"subjID":"Anasofiabermudezsalazar35","gender":"1","age":"10","school":"6"},{"start_time":1551794947214,"click_time":1551794948304,"finger_time":1551794948002,"fix_duration":809.2410269288654,"trial":42,"RT":788,"MT":302,"sideResp":2,"stimulus":"img/500/equaldotanddens/R/2_Ratio_500_L_3_R_6.png","xmouse":[801,801,801,801,801,801,801,801,801,801,801,801,801,801,801,801,801,801,801,801,801,801,801,801,801,801,801,801,801,801,801,801,801,801,801,801,801,804,817,855,907,932,961,978,999,1006,1011,1014,1020,1030,1036,1041,1048,1056,1063],"ymouse":[524,524,524,524,524,524,524,524,524,524,524,524,524,524,524,524,524,524,524,524,524,524,524,524,524,524,524,524,524,524,524,524,524,524,524,524,524,508,482,409,316,278,237,206,159,139,122,107,91,69,59,50,42,36,32],"timestamp_mouse":[9,41,49,69,88,110,128,149,168,189,210,228,249,270,288,309,330,348,370,389,408,430,448,468,488,509,528,548,581,590,609,628,649,668,690,710,728,749,769,788,808,828,850,868,889,908,928,949,968,989,1008,1029,1048,1068,1089],"xSR":741.5,"ySR":469.95,"xT1":424.9,"yT1":0,"xT2":1058.1,"yT2":0,"toosoon":0,"cond_shown":"equaldotanddens","ratio_trial":500,"smaller_num":"3","larger_num":"6","correct_side":2,"subjID":"Anasofiabermudezsalazar35","gender":"1","age":"10","school":"6"},{"start_time":1551794950618,"click_time":1551794951544,"finger_time":1551794951203,"fix_duration":654.2279094252555,"trial":43,"RT":585,"MT":341,"sideResp":1,"stimulus":"img/250/equaldotsize/L/15_Ratio_250_L_12_R_3.png","xmouse":[815,815,815,815,815,815,815,816,816,816,816,816,816,816,817,817,817,818,818,818,818,818,818,818,818,818,818,818,813,804,779,766,758,748,739,718,707,697,685,678,662,650,635,612,587,528,505],"ymouse":[514,514,514,514,514,514,514,514,514,514,514,514,514,514,515,515,515,516,516,516,516,516,516,516,516,516,516,515,493,465,400,365,340,317,293,251,231,217,200,191,177,168,156,141,120,72,51],"timestamp_mouse":[15,38,45,65,84,104,124,144,164,186,204,225,245,265,285,305,325,345,364,385,405,424,444,464,485,505,526,544,564,585,606,625,644,664,686,705,725,744,764,784,804,824,844,865,884,904,926],"xSR":741.5,"ySR":469.95,"xT1":424.9,"yT1":0,"xT2":1058.1,"yT2":0,"toosoon":0,"cond_shown":"equaldotsize","ratio_trial":250,"smaller_num":"3","larger_num":"12","correct_side":1,"subjID":"Anasofiabermudezsalazar35","gender":"1","age":"10","school":"6"},{"start_time":1551794957165,"click_time":1551794958403,"finger_time":1551794957923,"fix_duration":1180.1560123213144,"trial":44,"RT":758,"MT":480,"sideResp":2,"stimulus":"img/900/equaldotsize/L/8_Ratio_900_L_20_R_18.png","xmouse":[768,770,773,774,774,775,775,775,775,775,775,776,779,781,782,782,783,783,783,783,783,783,783,783,783,783,783,783,783,783,783,783,783,790,798,811,840,877,896,914,940,961,988,995,1003,1003,1004,1015,1021,1027,1040,1058,1065,1065,1067,1068,1069,1071,1072,1072,1074,1076],"ymouse":[536,537,538,538,539,539,539,540,540,540,540,541,543,545,546,546,546,546,546,546,546,546,546,546,546,546,546,546,546,546,546,546,546,532,523,502,470,431,410,390,361,337,300,283,266,265,254,222,207,197,178,151,138,137,129,122,113,110,108,106,104,99],"timestamp_mouse":[19,40,58,77,98,118,137,158,177,198,218,237,257,277,297,318,339,358,377,398,418,438,458,477,497,518,538,557,577,597,617,639,657,677,698,717,738,758,777,797,818,837,857,877,897,918,937,958,978,999,1019,1038,1057,1078,1097,1118,1138,1158,1178,1197,1218,1238],"xSR":741.5,"ySR":469.95,"xT1":424.9,"yT1":0,"xT2":1058.1,"yT2":0,"toosoon":0,"cond_shown":"equaldotsize","ratio_trial":900,"smaller_num":"18","larger_num":"20","correct_side":1,"subjID":"Anasofiabermudezsalazar35","gender":"1","age":"10","school":"6"},{"start_time":1551794961226,"click_time":1551794962722,"finger_time":1551794962204,"fix_duration":802.5586234943911,"trial":45,"RT":978,"MT":518,"sideResp":1,"stimulus":"img/900/randomdotsizeEA/L/2_Ratio_900_L_20_R_18.png","xmouse":[817,817,817,817,817,817,817,817,817,817,817,817,817,817,817,817,817,817,817,817,817,817,817,817,817,817,817,817,817,817,817,817,817,817,817,817,817,817,817,817,817,817,817,817,817,818,821,831,847,856,862,867,872,878,878,878,878,875,856,812,776,734,710,698,694,694,694,691,682,656,640,618,599,534,479],"ymouse":[518,518,518,518,518,518,518,518,518,518,518,518,518,518,518,518,518,518,518,518,518,518,518,518,518,518,518,518,518,518,518,518,518,518,518,518,518,518,518,518,518,518,518,518,518,518,515,487,444,423,402,385,370,342,333,327,323,318,307,290,277,262,255,251,249,249,249,245,234,203,186,164,147,106,76],"timestamp_mouse":[31,36,57,77,96,117,136,158,177,197,218,238,257,278,296,316,337,357,377,397,416,438,458,477,498,518,537,558,577,597,616,638,658,676,698,716,737,757,776,798,817,836,857,876,898,916,936,957,978,996,1016,1037,1056,1077,1096,1116,1137,1156,1176,1196,1217,1238,1257,1276,1297,1317,1336,1357,1377,1396,1416,1438,1456,1477,1496],"xSR":741.5,"ySR":469.95,"xT1":424.9,"yT1":0,"xT2":1058.1,"yT2":0,"toosoon":0,"cond_shown":"randomdotsizeEA","ratio_trial":900,"smaller_num":"18","larger_num":"20","correct_side":1,"subjID":"Anasofiabermudezsalazar35","gender":"1","age":"10","school":"6"},{"start_time":1551794964449,"click_time":1551794965843,"finger_time":1551794965623,"fix_duration":544.9184980927246,"trial":46,"RT":1174,"MT":220,"sideResp":1,"stimulus":"img/500/randomdotsizeEA/L/10_Ratio_500_L_4_R_2.png","xmouse":[839,839,839,839,839,839,839,839,839,839,839,839,839,839,839,839,839,839,839,839,839,839,839,839,839,839,839,839,839,839,839,839,839,839,839,839,839,839,839,839,839,839,839,839,839,839,839,839,839,839,839,839,839,839,839,839,839,837,773,733,671,613,574,532,525,516,509,505,503,503],"ymouse":[491,491,491,491,491,491,491,491,491,491,491,491,491,491,491,491,491,491,491,491,491,491,491,491,491,491,491,491,491,491,491,491,491,491,491,491,491,491,491,491,491,491,491,491,491,491,491,491,491,491,491,491,491,491,491,491,491,490,392,350,298,256,223,184,166,150,129,116,101,98],"timestamp_mouse":[14,34,53,73,95,129,134,153,175,193,213,233,254,273,294,313,334,354,374,393,415,435,454,475,494,514,535,554,573,595,614,633,655,673,693,715,733,753,773,794,814,834,853,874,893,915,933,954,975,995,1014,1033,1055,1073,1094,1114,1134,1154,1174,1193,1214,1234,1253,1273,1293,1313,1333,1353,1373,1394],"xSR":741.5,"ySR":469.95,"xT1":424.9,"yT1":0,"xT2":1058.1,"yT2":0,"toosoon":0,"cond_shown":"randomdotsizeEA","ratio_trial":500,"smaller_num":"2","larger_num":"4","correct_side":1,"subjID":"Anasofiabermudezsalazar35","gender":"1","age":"10","school":"6"},{"start_time":1551794967359,"click_time":1551794968803,"finger_time":1551794968122,"fix_duration":433.20690694503816,"trial":47,"RT":763,"MT":681,"sideResp":1,"stimulus":"img/750/randomdotsizeEA/R/4_Ratio_750_L_15_R_20.png","xmouse":[789,789,789,789,789,789,789,789,789,789,789,789,789,789,789,789,789,789,789,789,789,789,789,789,789,789,789,789,789,789,789,789,789,789,789,789,784,769,705,672,649,616,599,575,569,565,562,556,556,555,554,554,554,554,554,552,551,546,543,543,540,539,539,539,539,539,539,539,539,539,539,536,497],"ymouse":[519,519,519,519,519,519,519,519,519,519,519,519,519,519,519,519,519,519,519,519,519,519,519,519,519,519,519,519,519,519,519,519,519,519,519,519,514,495,424,390,366,335,313,267,248,230,219,197,192,188,183,171,147,134,121,109,98,80,72,70,66,65,65,65,65,65,65,65,65,65,65,64,60],"timestamp_mouse":[11,23,43,63,83,105,124,145,163,184,203,224,243,264,283,303,324,344,364,383,405,424,444,464,483,503,525,543,563,585,605,624,644,664,683,704,724,743,763,784,804,823,843,863,885,903,923,945,963,983,1003,1024,1045,1065,1084,1105,1125,1144,1163,1184,1204,1224,1243,1264,1283,1303,1323,1345,1365,1383,1404,1423,1444],"xSR":741.5,"ySR":469.95,"xT1":424.9,"yT1":0,"xT2":1058.1,"yT2":0,"toosoon":0,"cond_shown":"randomdotsizeEA","ratio_trial":750,"smaller_num":"15","larger_num":"20","correct_side":2,"subjID":"Anasofiabermudezsalazar35","gender":"1","age":"10","school":"6"},{"start_time":1551794969953,"click_time":1551794971023,"finger_time":1551794970682,"fix_duration":250,"trial":48,"RT":729,"MT":341,"sideResp":2,"stimulus":"img/500/randomdotsizeEA/R/2_Ratio_500_L_3_R_6.png","xmouse":[786,786,786,786,786,786,786,786,786,786,786,786,786,786,786,786,786,786,786,786,786,786,789,795,797,799,801,802,802,802,802,802,809,816,825,838,851,883,907,927,947,963,966,971,971,974,975,978,982,987,1005,1012,1042,1088],"ymouse":[550,550,550,550,550,550,550,550,550,550,550,550,550,550,550,550,550,550,550,550,550,550,550,541,537,533,531,529,529,529,529,528,516,509,501,491,478,437,398,347,308,252,226,187,176,167,163,154,146,139,126,122,112,97],"timestamp_mouse":[10,40,51,69,90,111,130,150,169,189,211,229,250,269,289,309,330,350,370,390,410,430,450,469,489,510,529,551,570,589,609,630,651,670,689,709,729,750,769,789,809,830,849,869,890,910,929,950,969,991,1009,1029,1049,1069],"xSR":741.5,"ySR":469.95,"xT1":424.9,"yT1":0,"xT2":1058.1,"yT2":0,"toosoon":0,"cond_shown":"randomdotsizeEA","ratio_trial":500,"smaller_num":"3","larger_num":"6","correct_side":2,"subjID":"Anasofiabermudezsalazar35","gender":"1","age":"10","school":"6"},{"start_time":1551794972516,"click_time":1551794973444,"finger_time":1551794973202,"fix_duration":250,"trial":49,"RT":686,"MT":242,"sideResp":2,"stimulus":"img/500/equaldotsize/R/15_Ratio_500_L_1_R_2.png","xmouse":[760,760,760,760,760,760,760,760,760,760,760,760,760,760,760,760,760,760,760,760,759,757,757,757,757,757,757,757,756,754,753,753,753,754,766,808,847,876,896,927,943,957,978,986,1018,1080,1099],"ymouse":[514,514,514,514,514,514,514,514,514,514,514,514,514,514,514,514,514,514,514,514,514,514,514,514,514,514,514,514,514,513,512,512,505,485,466,419,384,351,325,276,249,227,194,182,146,101,84],"timestamp_mouse":[8,37,48,66,87,108,126,147,167,187,207,228,248,268,287,306,327,348,366,386,407,426,447,467,487,507,526,547,567,587,608,628,646,666,686,706,727,748,767,787,806,826,846,866,886,908,928],"xSR":741.5,"ySR":469.95,"xT1":424.9,"yT1":0,"xT2":1058.1,"yT2":0,"toosoon":0,"cond_shown":"equaldotsize","ratio_trial":500,"smaller_num":"1","larger_num":"2","correct_side":2,"subjID":"Anasofiabermudezsalazar35","gender":"1","age":"10","school":"6"},{"start_time":1551794974772,"click_time":1551794975682,"finger_time":1551794975342,"fix_duration":308.6196454839506,"trial":50,"RT":570,"MT":340,"sideResp":1,"stimulus":"img/500/equaldotanddens/L/8_Ratio_500_L_8_R_4.png","xmouse":[781,781,781,781,781,781,781,781,781,781,781,781,781,781,781,781,781,781,781,781,781,781,781,780,780,779,768,750,728,696,645,613,565,554,549,544,539,531,531,531,531,531,531,529,526,523],"ymouse":[518,518,518,518,518,518,518,518,518,518,518,518,518,518,518,518,518,518,518,518,518,518,518,517,517,515,494,471,450,422,374,334,265,243,227,212,195,170,163,149,138,106,88,69,55,45],"timestamp_mouse":[10,33,51,71,92,111,131,150,170,192,210,232,251,271,292,311,331,352,371,391,411,431,450,470,490,511,531,551,570,590,611,630,650,670,692,711,730,750,771,790,812,831,850,870,890,910],"xSR":741.5,"ySR":469.95,"xT1":424.9,"yT1":0,"xT2":1058.1,"yT2":0,"toosoon":0,"cond_shown":"equaldotanddens","ratio_trial":500,"smaller_num":"4","larger_num":"8","correct_side":1,"subjID":"Anasofiabermudezsalazar35","gender":"1","age":"10","school":"6"},{"start_time":1551794977746,"click_time":1551794978583,"finger_time":1551794978363,"fix_duration":1222.410675224923,"trial":51,"RT":617,"MT":220,"sideResp":2,"stimulus":"img/500/equaldotsize/R/3_Ratio_500_L_10_R_20.png","xmouse":[829,829,829,829,829,829,829,829,829,829,829,829,829,829,829,829,829,829,829,829,829,829,829,829,830,830,830,830,830,838,868,884,956,1043,1076,1093,1102,1104,1107,1107,1108,1110],"ymouse":[499,499,499,499,499,499,499,499,499,499,499,499,499,499,499,499,499,499,499,499,499,499,499,499,504,511,512,512,513,506,463,441,359,233,182,157,137,125,109,104,101,96],"timestamp_mouse":[17,38,57,77,97,116,137,157,177,197,217,238,257,278,296,317,336,358,378,396,417,437,457,476,497,516,536,557,576,596,617,638,658,677,698,716,736,758,777,796,816,836],"xSR":741.5,"ySR":469.95,"xT1":424.9,"yT1":0,"xT2":1058.1,"yT2":0,"toosoon":0,"cond_shown":"equaldotsize","ratio_trial":500,"smaller_num":"10","larger_num":"20","correct_side":2,"subjID":"Anasofiabermudezsalazar35","gender":"1","age":"10","school":"6"},{"start_time":1551794980853,"click_time":1551794982042,"finger_time":1551794981623,"fix_duration":1468.040249368574,"trial":52,"RT":770,"MT":419,"sideResp":1,"stimulus":"img/900/equaldotsize/L/1_Ratio_900_L_10_R_9.png","xmouse":[820,820,820,820,820,820,820,820,820,820,820,820,820,820,820,820,820,820,820,820,820,820,820,820,820,820,820,820,820,820,820,820,820,820,820,820,820,822,873,894,909,914,906,885,857,828,798,723,694,665,644,628,621,607,600,590,581,558,547,524],"ymouse":[535,535,535,535,535,535,535,535,535,535,535,535,535,535,535,535,535,535,535,535,535,535,535,535,535,535,535,535,535,535,535,535,535,535,535,535,535,526,439,393,366,347,324,314,305,296,293,293,293,289,285,279,274,245,227,208,187,136,115,88],"timestamp_mouse":[19,38,49,69,90,110,130,150,170,191,211,230,251,270,289,309,329,351,371,390,410,430,449,469,490,509,530,551,571,589,611,631,650,670,690,710,729,749,770,790,809,829,851,870,890,910,930,951,969,989,1010,1030,1051,1070,1089,1109,1130,1151,1169,1189],"xSR":741.5,"ySR":469.95,"xT1":424.9,"yT1":0,"xT2":1058.1,"yT2":0,"toosoon":0,"cond_shown":"equaldotsize","ratio_trial":900,"smaller_num":"9","larger_num":"10","correct_side":1,"subjID":"Anasofiabermudezsalazar35","gender":"1","age":"10","school":"6"},{"start_time":1551794983688,"click_time":1551794984662,"finger_time":1551794984383,"fix_duration":903.3867159571784,"trial":53,"RT":695,"MT":279,"sideResp":1,"stimulus":"img/750/equaldotanddens/L/6_Ratio_750_L_24_R_18.png","xmouse":[788,788,788,788,788,788,788,788,788,788,788,788,788,788,788,788,788,788,788,788,788,788,788,788,788,788,788,788,788,788,788,788,779,768,742,705,686,667,656,647,635,632,630,625,621,610,573,551,522],"ymouse":[501,501,501,501,501,501,501,501,501,501,501,501,501,501,501,501,501,501,501,501,501,501,501,501,501,501,501,501,501,501,501,501,490,473,439,392,372,346,327,306,266,245,224,204,186,155,107,89,70],"timestamp_mouse":[14,34,54,75,95,114,136,154,174,195,214,236,254,275,295,316,335,355,375,395,415,436,455,475,496,515,535,554,576,594,614,636,656,675,695,715,735,754,775,794,816,834,856,875,894,914,934,954,974],"xSR":741.5,"ySR":469.95,"xT1":424.9,"yT1":0,"xT2":1058.1,"yT2":0,"toosoon":0,"cond_shown":"equaldotanddens","ratio_trial":750,"smaller_num":"18","larger_num":"24","correct_side":1,"subjID":"Anasofiabermudezsalazar35","gender":"1","age":"10","school":"6"},{"start_time":1551794986891,"click_time":1551794987843,"finger_time":1551794987623,"fix_duration":1366.225279088918,"trial":54,"RT":732,"MT":220,"sideResp":1,"stimulus":"img/250/equaldotanddens/L/15_Ratio_250_L_12_R_3.png","xmouse":[798,798,798,798,798,798,798,798,798,798,798,798,798,798,798,798,798,798,798,798,798,798,798,798,798,798,798,798,798,798,798,798,798,798,795,793,694,630,582,533,509,488,486,484,484,485,485,486],"ymouse":[530,530,530,530,530,530,530,530,530,530,530,530,530,530,530,530,530,530,530,530,530,530,530,530,530,530,530,530,530,530,530,530,530,530,530,528,384,321,271,237,216,190,178,157,140,117,103,92],"timestamp_mouse":[13,33,51,71,91,112,131,153,172,192,211,231,252,271,291,313,331,353,371,393,412,433,452,473,491,513,531,552,572,591,611,631,652,671,691,713,732,751,771,793,811,833,853,872,892,913,931,952],"xSR":741.5,"ySR":469.95,"xT1":424.9,"yT1":0,"xT2":1058.1,"yT2":0,"toosoon":0,"cond_shown":"equaldotanddens","ratio_trial":250,"smaller_num":"3","larger_num":"12","correct_side":1,"subjID":"Anasofiabermudezsalazar35","gender":"1","age":"10","school":"6"},{"start_time":1551794989741,"click_time":1551794990443,"finger_time":1551794990324,"fix_duration":1116.8970113661164,"trial":55,"RT":583,"MT":119,"sideResp":2,"stimulus":"img/750/equaldotsize/R/11_Ratio_750_L_12_R_16.png","xmouse":[789,789,789,789,789,789,789,789,789,789,789,789,789,789,789,789,789,789,789,789,789,789,789,789,789,789,789,789,807,830,866,922,962,1008,1057,1068],"ymouse":[524,524,524,524,524,524,524,524,524,524,524,524,524,524,524,524,524,524,524,524,524,524,524,524,524,524,524,520,489,462,406,302,235,168,117,97],"timestamp_mouse":[9,31,42,63,83,101,121,142,163,182,203,222,241,262,282,302,323,342,362,382,402,422,442,462,483,501,521,541,562,583,602,621,641,661,681,702],"xSR":741.5,"ySR":469.95,"xT1":424.9,"yT1":0,"xT2":1058.1,"yT2":0,"toosoon":0,"cond_shown":"equaldotsize","ratio_trial":750,"smaller_num":"12","larger_num":"16","correct_side":2,"subjID":"Anasofiabermudezsalazar35","gender":"1","age":"10","school":"6"},{"start_time":1551794993201,"click_time":1551794994142,"finger_time":1551794993843,"fix_duration":397.75838740430856,"trial":56,"RT":642,"MT":299,"sideResp":1,"stimulus":"img/250/randomdotsizeEA/L/15_Ratio_250_L_12_R_3.png","xmouse":[814,817,817,817,817,817,817,817,817,817,817,817,817,817,817,817,817,817,817,817,817,817,817,817,817,817,817,817,817,817,816,750,688,618,556,499,489,486,485,485,486,486,486,486,486,486,486,486],"ymouse":[521,533,533,533,533,533,533,533,533,533,533,533,533,533,533,533,533,533,533,533,533,533,533,533,533,533,533,533,533,533,533,480,429,367,310,228,201,178,162,151,140,131,128,125,120,109,102,90],"timestamp_mouse":[1,37,42,61,81,103,121,141,161,182,202,223,243,262,282,302,323,342,361,383,402,423,441,461,483,501,523,541,562,583,601,621,642,662,681,702,721,741,762,781,801,821,842,861,881,903,921,941],"xSR":741.5,"ySR":469.95,"xT1":424.9,"yT1":0,"xT2":1058.1,"yT2":0,"toosoon":0,"cond_shown":"randomdotsizeEA","ratio_trial":250,"smaller_num":"3","larger_num":"12","correct_side":1,"subjID":"Anasofiabermudezsalazar35","gender":"1","age":"10","school":"6"},{"start_time":1551794995793,"click_time":1551794996742,"finger_time":1551794996342,"fix_duration":829.0191428330517,"trial":57,"RT":549,"MT":400,"sideResp":2,"stimulus":"img/250/equaldotanddens/R/8_Ratio_250_L_1_R_4.png","xmouse":[779,779,779,779,779,779,779,779,779,779,779,779,779,779,779,779,779,779,779,779,779,779,779,779,780,800,824,860,941,966,1059,1142,1176,1198,1211,1216,1211,1211,1211,1211,1211,1211,1211,1211,1211,1211,1211,1156],"ymouse":[531,531,531,531,531,531,531,531,531,531,531,531,531,531,531,531,531,531,531,531,531,531,531,531,531,513,495,460,395,372,294,188,132,88,62,26,6,6,6,6,6,6,6,6,6,6,6,12],"timestamp_mouse":[10,42,50,69,91,110,131,150,169,190,209,230,249,269,289,310,329,351,370,390,410,430,451,469,489,510,529,549,570,591,609,629,649,670,689,710,729,750,770,789,809,829,849,869,889,909,929,949],"xSR":741.5,"ySR":469.95,"xT1":424.9,"yT1":0,"xT2":1058.1,"yT2":0,"toosoon":0,"cond_shown":"equaldotanddens","ratio_trial":250,"smaller_num":"1","larger_num":"4","correct_side":2,"subjID":"Anasofiabermudezsalazar35","gender":"1","age":"10","school":"6"},{"start_time":1551794999247,"click_time":1551795000303,"finger_time":1551795000003,"fix_duration":1202.0525362245746,"trial":58,"RT":756,"MT":300,"sideResp":2,"stimulus":"img/750/equaldotanddens/R/11_Ratio_750_L_12_R_16.png","xmouse":[811,811,811,811,811,811,811,811,811,811,811,811,811,811,811,811,811,811,811,811,811,811,811,811,811,811,811,811,811,811,811,811,811,811,810,810,815,829,868,888,906,924,949,957,968,981,1000,1012,1018,1023,1033,1044,1073],"ymouse":[535,535,535,535,535,535,535,535,535,535,535,535,535,535,535,535,535,535,535,535,535,535,535,535,535,535,535,535,535,535,535,535,535,535,535,530,470,426,336,304,268,232,189,173,151,131,104,87,78,73,63,55,39],"timestamp_mouse":[16,40,56,76,97,117,136,156,175,195,215,236,256,277,295,315,335,357,376,395,417,435,456,477,496,516,535,557,577,595,615,636,657,675,695,717,736,756,776,796,816,835,856,875,896,915,936,956,976,995,1016,1036,1055],"xSR":741.5,"ySR":469.95,"xT1":424.9,"yT1":0,"xT2":1058.1,"yT2":0,"toosoon":0,"cond_shown":"equaldotanddens","ratio_trial":750,"smaller_num":"12","larger_num":"16","correct_side":2,"subjID":"Anasofiabermudezsalazar35","gender":"1","age":"10","school":"6"},{"start_time":1551795003891,"click_time":1551795004803,"finger_time":1551795004403,"fix_duration":1367.750035428042,"trial":59,"RT":512,"MT":400,"sideResp":2,"stimulus":"img/250/equaldotanddens/R/10_Ratio_250_L_4_R_16.png","xmouse":[825,825,825,825,825,825,825,825,825,825,825,825,825,825,825,825,825,825,825,825,825,825,825,825,829,863,900,928,943,953,962,963,963,963,964,965,966,970,974,981,1008,1024,1035,1046,1054,1061],"ymouse":[504,504,504,504,504,504,504,504,504,504,504,504,504,504,504,504,504,504,504,504,504,504,504,504,491,442,399,360,336,319,300,295,291,287,281,277,264,251,234,214,171,152,137,122,110,99],"timestamp_mouse":[12,36,53,73,91,111,131,153,173,191,211,233,251,272,292,312,332,351,372,393,411,431,452,472,492,512,532,551,571,593,613,632,651,671,691,713,732,751,771,791,813,831,852,873,893,912],"xSR":741.5,"ySR":469.95,"xT1":424.9,"yT1":0,"xT2":1058.1,"yT2":0,"toosoon":0,"cond_shown":"equaldotanddens","ratio_trial":250,"smaller_num":"4","larger_num":"16","correct_side":2,"subjID":"Anasofiabermudezsalazar35","gender":"1","age":"10","school":"6"},{"start_time":1551795006394,"click_time":1551795007802,"finger_time":1551795006962,"fix_duration":250,"trial":60,"RT":568,"MT":840,"sideResp":1,"stimulus":"img/250/randomdotsizeEA/L/7_Ratio_250_L_8_R_2.png","xmouse":[767,767,767,767,767,767,767,767,767,767,767,767,767,767,767,767,767,767,767,767,767,767,767,767,767,767,764,753,726,716,707,673,655,639,621,600,595,591,588,586,573,556,528,490,461,436,418,416,416,416,416,416,416,416,416,416,416,416,416,416,416,416,416,416,416,416,416,416,414,421,429],"ymouse":[522,522,522,522,522,522,522,522,522,522,522,522,522,522,522,522,522,522,522,522,522,522,522,522,522,522,522,518,498,482,462,400,372,348,326,298,292,285,282,279,260,240,210,175,144,117,94,89,87,86,85,85,84,84,84,84,84,84,84,84,84,84,84,84,84,84,84,84,82,72,66],"timestamp_mouse":[10,42,49,69,90,109,128,149,168,190,208,228,249,268,288,309,330,348,370,389,409,429,449,469,489,510,528,548,568,588,608,628,649,668,688,709,728,749,768,788,809,828,849,868,888,909,928,948,969,989,1008,1028,1048,1070,1088,1109,1130,1150,1169,1189,1208,1229,1249,1269,1289,1310,1329,1349,1368,1388,1408],"xSR":741.5,"ySR":469.95,"xT1":424.9,"yT1":0,"xT2":1058.1,"yT2":0,"toosoon":0,"cond_shown":"randomdotsizeEA","ratio_trial":250,"smaller_num":"2","larger_num":"8","correct_side":1,"subjID":"Anasofiabermudezsalazar35","gender":"1","age":"10","school":"6"},{"start_time":1551795010646,"click_time":1551795011763,"finger_time":1551795011182,"fix_duration":1483.4838661501851,"trial":61,"RT":536,"MT":581,"sideResp":2,"stimulus":"img/750/equaldotsize/R/2_Ratio_750_L_6_R_8.png","xmouse":[761,761,761,761,761,761,761,761,761,761,761,761,761,761,761,761,761,761,761,761,761,761,760,756,753,750,736,722,716,714,713,711,708,705,700,696,689,688,688,688,689,695,730,759,796,835,871,929,969,1014,1058,1095,1134,1147,1151,1152],"ymouse":[536,536,536,536,536,536,536,536,536,536,536,536,536,536,536,536,536,536,536,536,536,536,535,534,532,531,518,507,501,498,494,488,472,463,447,441,423,419,414,407,396,383,343,323,302,280,259,236,220,200,179,159,129,113,100,90],"timestamp_mouse":[17,37,58,78,97,116,137,156,178,197,217,236,256,277,297,317,337,356,378,398,417,436,458,476,496,517,536,557,576,596,618,638,658,677,697,716,736,757,776,797,817,836,858,876,897,916,936,957,977,996,1018,1038,1057,1076,1097,1117],"xSR":741.5,"ySR":469.95,"xT1":424.9,"yT1":0,"xT2":1058.1,"yT2":0,"toosoon":0,"cond_shown":"equaldotsize","ratio_trial":750,"smaller_num":"6","larger_num":"8","correct_side":2,"subjID":"Anasofiabermudezsalazar35","gender":"1","age":"10","school":"6"},{"start_time":1551795013154,"click_time":1551795014364,"finger_time":1551795014022,"fix_duration":250,"trial":62,"RT":868,"MT":342,"sideResp":1,"stimulus":"img/500/equaldotsize/L/8_Ratio_500_L_8_R_4.png","xmouse":[832,832,832,832,832,832,832,832,832,832,832,832,832,832,832,832,832,832,832,832,832,832,832,832,832,832,832,832,832,832,832,832,832,832,832,832,832,832,832,832,832,831,787,638,556,491,457,425,418,414,414,414,414,414,413,413,416,422,423,425,425],"ymouse":[527,527,527,527,527,527,527,527,527,527,527,527,527,527,527,527,527,527,527,527,527,527,527,527,527,527,527,527,527,527,527,527,527,527,527,527,527,527,527,527,527,527,515,472,448,429,410,375,358,339,320,303,281,254,241,226,206,155,128,106,82],"timestamp_mouse":[10,35,48,70,89,108,128,149,170,188,208,228,248,269,289,309,329,349,369,389,408,429,449,470,488,510,529,550,570,589,609,628,650,668,689,709,730,750,770,788,808,828,848,868,890,909,928,949,968,988,1009,1030,1048,1068,1090,1111,1130,1151,1170,1190,1210],"xSR":741.5,"ySR":469.95,"xT1":424.9,"yT1":0,"xT2":1058.1,"yT2":0,"toosoon":0,"cond_shown":"equaldotsize","ratio_trial":500,"smaller_num":"4","larger_num":"8","correct_side":1,"subjID":"Anasofiabermudezsalazar35","gender":"1","age":"10","school":"6"},{"start_time":1551795017676,"click_time":1551795018723,"finger_time":1551795018364,"fix_duration":250,"trial":63,"RT":688,"MT":359,"sideResp":2,"stimulus":"img/500/equaldotsize/R/15_Ratio_500_L_1_R_2.png","xmouse":[820,820,820,820,820,820,820,820,820,820,820,820,820,820,820,820,820,820,820,820,820,820,820,820,820,820,820,820,820,820,820,820,825,836,855,906,940,982,997,1011,1020,1046,1055,1066,1073,1078,1078,1078,1080,1081,1082,1087,1091],"ymouse":[533,533,533,533,533,533,533,533,533,533,533,533,533,533,533,533,533,533,533,533,533,533,533,533,533,533,533,533,533,533,533,533,522,499,465,398,357,312,298,281,269,233,214,193,175,154,143,132,125,119,114,100,94],"timestamp_mouse":[10,31,48,68,88,109,128,148,169,188,209,228,248,268,289,308,328,349,368,389,408,428,448,469,489,508,529,548,569,588,609,629,648,667,688,707,728,748,768,789,807,828,848,868,888,908,927,948,968,989,1009,1029,1047],"xSR":741.5,"ySR":469.95,"xT1":424.9,"yT1":0,"xT2":1058.1,"yT2":0,"toosoon":0,"cond_shown":"equaldotsize","ratio_trial":500,"smaller_num":"1","larger_num":"2","correct_side":2,"subjID":"Anasofiabermudezsalazar35","gender":"1","age":"10","school":"6"},{"start_time":1551795021233,"click_time":1551795022265,"finger_time":1551795022004,"fix_duration":268.9737293633406,"trial":64,"RT":771,"MT":261,"sideResp":2,"stimulus":"img/750/equaldotanddens/R/15_Ratio_750_L_9_R_12.png","xmouse":[785,785,785,785,785,785,785,785,785,785,785,785,785,785,785,785,785,785,785,785,785,785,785,785,785,785,785,785,785,785,785,785,785,785,785,785,785,785,821,847,878,901,921,948,956,962,964,968,974,1008,1042,1084],"ymouse":[494,494,494,494,494,494,494,494,494,494,494,494,494,494,494,494,494,494,494,494,494,494,494,494,494,494,494,494,494,494,494,494,494,494,494,494,494,494,452,409,351,295,244,195,184,177,171,163,152,120,102,79],"timestamp_mouse":[11,45,51,71,91,112,131,152,171,192,211,231,251,272,292,311,332,350,371,391,411,432,451,471,491,511,532,551,572,592,611,631,652,672,692,711,731,750,771,791,812,831,852,871,891,911,931,952,971,991,1011,1031],"xSR":741.5,"ySR":469.95,"xT1":424.9,"yT1":0,"xT2":1058.1,"yT2":0,"toosoon":0,"cond_shown":"equaldotanddens","ratio_trial":750,"smaller_num":"9","larger_num":"12","correct_side":2,"subjID":"Anasofiabermudezsalazar35","gender":"1","age":"10","school":"6"},{"start_time":1551795025834,"click_time":1551795027204,"finger_time":1551795026484,"fix_duration":250,"trial":65,"RT":650,"MT":720,"sideResp":1,"stimulus":"img/900/randomdotsizeEA/L/1_Ratio_900_L_10_R_9.png","xmouse":[770,770,770,770,770,770,770,770,770,770,770,770,770,770,770,770,770,770,770,770,770,770,770,770,770,770,770,770,770,770,770,770,763,746,721,713,711,707,704,701,697,692,681,632,548,515,432,392,353,350,350,349,349,349,353,360,368,380,382,389,392,396,397,399,400,403,411,418,438],"ymouse":[502,502,502,502,502,502,502,502,502,502,502,502,502,502,502,502,502,502,502,502,502,502,502,502,502,502,502,502,502,5