[{"start_time":1551900670396,"click_time":1551900671483,"finger_time":1551900670441,"fix_duration":450.7800917052669,"trial":0,"RT":45,"MT":1042,"sideResp":1,"stimulus":"img/500/equaldotanddens/L/13_Ratio_500_L_12_R_6.png","xmouse":[819,835,835,835,835,835,835,835,835,835,835,835,835,835,835,835,835,835,835,835,835,835,835,835,835,835,836,960,987,996,996,996,982,975,968,964,960,956,955,950,936,904,851,713,639,577,539,509,506,502,502,502,502,502,502],"ymouse":[587,621,621,625,625,625,625,625,625,625,625,625,625,625,625,625,625,625,625,625,625,625,625,625,625,625,625,587,574,562,552,540,515,508,502,497,494,491,491,491,491,490,489,489,487,479,470,444,421,369,315,257,206,107,64],"timestamp_mouse":[7,45,45,67,86,106,127,146,166,187,206,227,247,266,286,307,327,346,366,386,406,426,447,467,485,506,526,546,567,586,606,627,646,666,686,706,726,747,767,786,806,827,846,866,887,906,926,945,965,986,1006,1027,1046,1065,1087],"xSR":741.5,"ySR":501.8,"xT1":424.9,"yT1":0,"xT2":1058.1,"yT2":0,"toosoon":0,"cond_shown":"equaldotanddens","ratio_trial":500,"smaller_num":"6","larger_num":"12","correct_side":1,"subjID":"JuanPabloRoncancio33","gender":"0","age":"12","school":"6","test":{"fix_dur":[250,1500],"timestim":300,"targets_dim":[100,100],"targets_relative_coord":[0.3,0.7],"size_stim":[880,420],"start_dim":[100,100],"size_start":[300,300],"size_fix":60,"samplingrate":20,"img_types":["equaldotsize","equaldotanddens","randomdotsizeEA"],"ratios":[250,500,750,900],"rep_conds":9,"nTrials":120,"trials_to_rest":500,"Trials_order":[100,80,112,75,82,45,12,78,21,9,33,116,22,34,2,96,13,5,20,64,83,65,62,76,109,95,51,98,91,92,88,54,72,106,73,94,15,30,99,67,41,108,93,10,25,74,114,107,86,61,43,44,4,47,119,89,38,40,55,52,115,23,63,103,50,37,7,58,77,1,113,81,56,35,68,101,11,60,118,59,110,53,111,29,69,57,79,32,105,18,17,42,85,24,31,48,27,28,97,66,8,102,84,71,90,36,0,39,117,3,87,46,104,14,49,26,19,70,16,6],"cond_shown":["equaldotanddens","randomdotsizeEA","equaldotanddens","equaldotsize","equaldotanddens","equaldotsize","equaldotsize","equaldotsize","equaldotsize","equaldotsize","equaldotsize","randomdotsizeEA","equaldotanddens","equaldotanddens","randomdotsizeEA","equaldotsize","equaldotanddens","randomdotsizeEA","randomdotsizeEA","equaldotanddens","randomdotsizeEA","randomdotsizeEA","randomdotsizeEA","equaldotanddens","equaldotanddens","randomdotsizeEA","equaldotsize","randomdotsizeEA","equaldotanddens","randomdotsizeEA","equaldotanddens","equaldotsize","equaldotsize","equaldotanddens","equaldotanddens","equaldotanddens","equaldotsize","equaldotsize","equaldotsize","equaldotanddens","randomdotsizeEA","equaldotsize","equaldotsize","equaldotanddens","equaldotanddens","randomdotsizeEA","equaldotsize","randomdotsizeEA","randomdotsizeEA","equaldotanddens","equaldotanddens","randomdotsizeEA","equaldotanddens","randomdotsizeEA","randomdotsizeEA","randomdotsizeEA","randomdotsizeEA","equaldotanddens","equaldotanddens","equaldotanddens","equaldotanddens","randomdotsizeEA","equaldotsize","equaldotanddens","randomdotsizeEA","equaldotanddens","equaldotanddens","equaldotanddens","randomdotsizeEA","equaldotanddens","randomdotsizeEA","equaldotsize","randomdotsizeEA","randomdotsizeEA","randomdotsizeEA","randomdotsizeEA","randomdotsizeEA","equaldotsize","equaldotanddens","randomdotsizeEA","randomdotsizeEA","randomdotsizeEA","equaldotsize","randomdotsizeEA","equaldotsize","equaldotsize","equaldotanddens","randomdotsizeEA","equaldotsize","equaldotsize","randomdotsizeEA","equaldotsize","equaldotanddens","equaldotsize","equaldotanddens","equaldotsize","equaldotsize","equaldotanddens","equaldotanddens","equaldotsize","randomdotsizeEA","equaldotsize","equaldotsize","randomdotsizeEA","equaldotsize","equaldotsize","equaldotsize","equaldotsize","equaldotsize","equaldotsize","equaldotsize","equaldotanddens","randomdotsizeEA","randomdotsizeEA","equaldotanddens","randomdotsizeEA","equaldotanddens","equaldotanddens","equaldotanddens","equaldotsize"],"ratio_trial":[500,750,500,500,900,900,250,750,900,900,900,750,900,900,250,250,250,500,750,500,900,500,250,500,250,900,500,250,750,750,500,750,250,900,250,900,500,750,500,750,500,250,900,900,250,250,750,900,250,250,750,750,500,900,900,500,250,500,750,500,750,900,500,750,250,250,750,900,500,250,500,900,750,900,750,500,900,250,900,900,250,500,500,500,900,900,750,750,900,750,500,750,250,250,750,250,500,500,250,750,750,750,250,900,750,250,250,500,900,500,500,900,750,250,250,250,750,900,500,750],"smaller_num":["6","15","5","9","9","9","2","3","9","9","18","3","9","9","2","2","4","9","3","1","18","6","3","1","4","9","2","2","18","12","9","3","3","18","3","18","9","15","2","3","9","3","18","18","3","4","6","9","2","3","3","3","9","9","18","5","5","2","3","6","15","9","6","3","3","3","15","18","1","2","4","9","3","9","9","2","9","2","18","18","3","2","4","9","18","18","3","3","9","15","1","3","6","4","3","3","4","2","3","15","3","3","3","9","15","6","3","1","18","6","4","9","3","5","3","3","3","9","1","6"],"larger_num":["12","20","10","18","10","10","8","4","10","10","20","4","10","10","8","8","16","18","4","2","20","12","12","2","16","10","4","8","24","16","18","4","12","20","12","20","18","20","4","4","18","12","20","20","12","16","8","10","8","12","4","4","18","10","20","10","20","4","4","12","20","10","12","4","12","12","20","20","2","8","8","10","4","10","12","4","10","8","20","20","12","4","8","18","20","20","4","4","10","20","2","4","24","16","4","12","8","4","12","20","4","4","12","10","20","24","12","2","20","12","8","10","4","20","12","12","4","10","2","8"],"correct_side":[1,2,1,2,2,2,1,1,2,2,1,1,2,2,1,1,1,2,1,2,2,1,1,2,1,2,1,1,1,2,1,2,1,1,2,2,2,2,1,2,2,1,2,2,2,1,2,2,1,1,1,1,2,2,2,2,2,1,1,1,2,2,1,1,2,1,1,1,2,1,1,2,1,2,2,1,2,1,1,1,1,2,1,1,1,1,1,1,2,1,2,1,2,1,1,2,1,1,2,2,1,1,1,1,1,1,2,2,1,1,1,2,2,2,1,2,1,2,2,1],"img_shown":["img/500/equaldotanddens/L/13_Ratio_500_L_12_R_6.png","img/750/randomdotsizeEA/R/5_Ratio_750_L_15_R_20.png","img/500/equaldotanddens/L/7_Ratio_500_L_10_R_5.png","img/500/equaldotsize/R/1_Ratio_500_L_9_R_18.png","img/900/equaldotanddens/R/3_Ratio_900_L_9_R_10.png","img/900/equaldotsize/R/5_Ratio_900_L_9_R_10.png","img/250/equaldotsize/L/3_Ratio_250_L_8_R_2.png","img/750/equaldotsize/L/10_Ratio_750_L_4_R_3.png","img/900/equaldotsize/R/15_Ratio_900_L_9_R_10.png","img/900/equaldotsize/R/6_Ratio_900_L_9_R_10.png","img/900/equaldotsize/L/10_Ratio_900_L_20_R_18.png","img/750/randomdotsizeEA/L/9_Ratio_750_L_4_R_3.png","img/900/equaldotanddens/R/3_Ratio_900_L_9_R_10.png","img/900/equaldotanddens/R/5_Ratio_900_L_9_R_10.png","img/250/randomdotsizeEA/L/1_Ratio_250_L_8_R_2.png","img/250/equaldotsize/L/1_Ratio_250_L_8_R_2.png","img/250/equaldotanddens/L/2_Ratio_250_L_16_R_4.png","img/500/randomdotsizeEA/R/6_Ratio_500_L_9_R_18.png","img/750/randomdotsizeEA/L/9_Ratio_750_L_4_R_3.png","img/500/equaldotanddens/R/12_Ratio_500_L_1_R_2.png","img/900/randomdotsizeEA/R/13_Ratio_900_L_18_R_20.png","img/500/randomdotsizeEA/L/13_Ratio_500_L_12_R_6.png","img/250/randomdotsizeEA/L/15_Ratio_250_L_12_R_3.png","img/500/equaldotanddens/R/15_Ratio_500_L_1_R_2.png","img/250/equaldotanddens/L/2_Ratio_250_L_16_R_4.png","img/900/randomdotsizeEA/R/15_Ratio_900_L_9_R_10.png","img/500/equaldotsize/L/5_Ratio_500_L_4_R_2.png","img/250/randomdotsizeEA/L/7_Ratio_250_L_8_R_2.png","img/750/equaldotanddens/L/6_Ratio_750_L_24_R_18.png","img/750/randomdotsizeEA/R/11_Ratio_750_L_12_R_16.png","img/500/equaldotanddens/L/4_Ratio_500_L_18_R_9.png","img/750/equaldotsize/R/7_Ratio_750_L_3_R_4.png","img/250/equaldotsize/L/15_Ratio_250_L_12_R_3.png","img/900/equaldotanddens/L/2_Ratio_900_L_20_R_18.png","img/250/equaldotanddens/R/4_Ratio_250_L_3_R_12.png","img/900/equaldotanddens/R/13_Ratio_900_L_18_R_20.png","img/500/equaldotsize/R/1_Ratio_500_L_9_R_18.png","img/750/equaldotsize/R/5_Ratio_750_L_15_R_20.png","img/500/equaldotsize/L/5_Ratio_500_L_4_R_2.png","img/750/equaldotanddens/R/12_Ratio_750_L_3_R_4.png","img/500/randomdotsizeEA/R/1_Ratio_500_L_9_R_18.png","img/250/equaldotsize/L/14_Ratio_250_L_12_R_3.png","img/900/equaldotsize/R/11_Ratio_900_L_18_R_20.png","img/900/equaldotanddens/R/14_Ratio_900_L_18_R_20.png","img/250/equaldotanddens/R/4_Ratio_250_L_3_R_12.png","img/250/randomdotsizeEA/L/2_Ratio_250_L_16_R_4.png","img/750/equaldotsize/R/2_Ratio_750_L_6_R_8.png","img/900/randomdotsizeEA/R/7_Ratio_900_L_9_R_10.png","img/250/randomdotsizeEA/L/3_Ratio_250_L_8_R_2.png","img/250/equaldotanddens/L/15_Ratio_250_L_12_R_3.png","img/750/equaldotanddens/L/8_Ratio_750_L_4_R_3.png","img/750/randomdotsizeEA/L/9_Ratio_750_L_4_R_3.png","img/500/equaldotanddens/R/1_Ratio_500_L_9_R_18.png","img/900/randomdotsizeEA/R/6_Ratio_900_L_9_R_10.png","img/900/randomdotsizeEA/R/11_Ratio_900_L_18_R_20.png","img/500/randomdotsizeEA/R/14_Ratio_500_L_5_R_10.png","img/250/randomdotsizeEA/R/12_Ratio_250_L_5_R_20.png","img/500/equaldotanddens/L/5_Ratio_500_L_4_R_2.png","img/750/equaldotanddens/L/8_Ratio_750_L_4_R_3.png","img/500/equaldotanddens/L/13_Ratio_500_L_12_R_6.png","img/750/equaldotanddens/R/4_Ratio_750_L_15_R_20.png","img/900/randomdotsizeEA/R/15_Ratio_900_L_9_R_10.png","img/500/equaldotsize/L/11_Ratio_500_L_12_R_6.png","img/750/equaldotanddens/L/8_Ratio_750_L_4_R_3.png","img/250/randomdotsizeEA/R/11_Ratio_250_L_3_R_12.png","img/250/equaldotanddens/L/15_Ratio_250_L_12_R_3.png","img/750/equaldotanddens/L/1_Ratio_750_L_20_R_15.png","img/900/equaldotanddens/L/2_Ratio_900_L_20_R_18.png","img/500/randomdotsizeEA/R/15_Ratio_500_L_1_R_2.png","img/250/equaldotanddens/L/7_Ratio_250_L_8_R_2.png","img/500/randomdotsizeEA/L/8_Ratio_500_L_8_R_4.png","img/900/equaldotsize/R/15_Ratio_900_L_9_R_10.png","img/750/randomdotsizeEA/L/8_Ratio_750_L_4_R_3.png","img/900/randomdotsizeEA/R/6_Ratio_900_L_9_R_10.png","img/750/randomdotsizeEA/R/15_Ratio_750_L_9_R_12.png","img/500/randomdotsizeEA/L/10_Ratio_500_L_4_R_2.png","img/900/randomdotsizeEA/R/6_Ratio_900_L_9_R_10.png","img/250/equaldotsize/L/1_Ratio_250_L_8_R_2.png","img/900/equaldotanddens/L/2_Ratio_900_L_20_R_18.png","img/900/randomdotsizeEA/L/4_Ratio_900_L_20_R_18.png","img/250/randomdotsizeEA/L/15_Ratio_250_L_12_R_3.png","img/500/randomdotsizeEA/R/9_Ratio_500_L_2_R_4.png","img/500/equaldotsize/L/8_Ratio_500_L_8_R_4.png","img/500/randomdotsizeEA/L/4_Ratio_500_L_18_R_9.png","img/900/equaldotsize/L/4_Ratio_900_L_20_R_18.png","img/900/equaldotsize/L/10_Ratio_900_L_20_R_18.png","img/750/equaldotanddens/L/10_Ratio_750_L_4_R_3.png","img/750/randomdotsizeEA/L/8_Ratio_750_L_4_R_3.png","img/900/equaldotsize/R/7_Ratio_900_L_9_R_10.png","img/750/equaldotsize/L/1_Ratio_750_L_20_R_15.png","img/500/randomdotsizeEA/R/15_Ratio_500_L_1_R_2.png","img/750/equaldotsize/L/9_Ratio_750_L_4_R_3.png","img/250/equaldotanddens/R/6_Ratio_250_L_6_R_24.png","img/250/equaldotsize/L/2_Ratio_250_L_16_R_4.png","img/750/equaldotanddens/L/8_Ratio_750_L_4_R_3.png","img/250/equaldotsize/R/9_Ratio_250_L_3_R_12.png","img/500/equaldotsize/L/8_Ratio_500_L_8_R_4.png","img/500/equaldotanddens/L/10_Ratio_500_L_4_R_2.png","img/250/equaldotanddens/R/4_Ratio_250_L_3_R_12.png","img/750/equaldotsize/R/4_Ratio_750_L_15_R_20.png","img/750/randomdotsizeEA/L/10_Ratio_750_L_4_R_3.png","img/750/equaldotsize/L/10_Ratio_750_L_4_R_3.png","img/250/equaldotsize/L/14_Ratio_250_L_12_R_3.png","img/900/randomdotsizeEA/L/1_Ratio_900_L_10_R_9.png","img/750/equaldotsize/L/1_Ratio_750_L_20_R_15.png","img/250/equaldotsize/L/5_Ratio_250_L_24_R_6.png","img/250/equaldotsize/R/4_Ratio_250_L_3_R_12.png","img/500/equaldotsize/R/12_Ratio_500_L_1_R_2.png","img/900/equaldotsize/L/8_Ratio_900_L_20_R_18.png","img/500/equaldotsize/L/13_Ratio_500_L_12_R_6.png","img/500/equaldotsize/L/8_Ratio_500_L_8_R_4.png","img/900/equaldotanddens/R/7_Ratio_900_L_9_R_10.png","img/750/randomdotsizeEA/R/7_Ratio_750_L_3_R_4.png","img/250/randomdotsizeEA/R/12_Ratio_250_L_5_R_20.png","img/250/equaldotanddens/L/14_Ratio_250_L_12_R_3.png","img/250/randomdotsizeEA/R/11_Ratio_250_L_3_R_12.png","img/750/equaldotanddens/L/8_Ratio_750_L_4_R_3.png","img/900/equaldotanddens/R/3_Ratio_900_L_9_R_10.png","img/500/equaldotanddens/R/12_Ratio_500_L_1_R_2.png","img/750/equaldotsize/L/14_Ratio_750_L_8_R_6.png"],"Rat0":[["12_Ratio_0_L_9_R_0.png","13_Ratio_0_L_6_R_0.png","5_Ratio_0_L_2_R_0.png","6_Ratio_0_L_4_R_0.png","8_Ratio_0_L_6_R_0.png"],["1_Ratio_0_L_0_R_17.png","10_Ratio_0_L_0_R_22.png","11_Ratio_0_L_0_R_1.png","14_Ratio_0_L_0_R_24.png","15_Ratio_0_L_0_R_4.png","2_Ratio_0_L_0_R_5.png","3_Ratio_0_L_0_R_17.png","4_Ratio_0_L_0_R_7.png","7_Ratio_0_L_0_R_19.png","9_Ratio_0_L_0_R_15.png"]],"Rat250":[["1_Ratio_250_L_8_R_2.png","14_Ratio_250_L_12_R_3.png","15_Ratio_250_L_12_R_3.png","2_Ratio_250_L_16_R_4.png","3_Ratio_250_L_8_R_2.png","5_Ratio_250_L_24_R_6.png","7_Ratio_250_L_8_R_2.png"],["10_Ratio_250_L_4_R_16.png","11_Ratio_250_L_3_R_12.png","12_Ratio_250_L_5_R_20.png","13_Ratio_250_L_2_R_8.png","4_Ratio_250_L_3_R_12.png","6_Ratio_250_L_6_R_24.png","8_Ratio_250_L_1_R_4.png","9_Ratio_250_L_3_R_12.png"]],"Rat500":[["10_Ratio_500_L_4_R_2.png","11_Ratio_500_L_12_R_6.png","13_Ratio_500_L_12_R_6.png","4_Ratio_500_L_18_R_9.png","5_Ratio_500_L_4_R_2.png","7_Ratio_500_L_10_R_5.png","8_Ratio_500_L_8_R_4.png"],["1_Ratio_500_L_9_R_18.png","12_Ratio_500_L_1_R_2.png","14_Ratio_500_L_5_R_10.png","15_Ratio_500_L_1_R_2.png","2_Ratio_500_L_3_R_6.png","3_Ratio_500_L_10_R_20.png","6_Ratio_500_L_9_R_18.png","9_Ratio_500_L_2_R_4.png"]],"Rat750":[["1_Ratio_750_L_20_R_15.png","10_Ratio_750_L_4_R_3.png","13_Ratio_750_L_8_R_6.png","14_Ratio_750_L_8_R_6.png","6_Ratio_750_L_24_R_18.png","8_Ratio_750_L_4_R_3.png","9_Ratio_750_L_4_R_3.png"],["11_Ratio_750_L_12_R_16.png","12_Ratio_750_L_3_R_4.png","15_Ratio_750_L_9_R_12.png","2_Ratio_750_L_6_R_8.png","3_Ratio_750_L_15_R_20.png","4_Ratio_750_L_15_R_20.png","5_Ratio_750_L_15_R_20.png","7_Ratio_750_L_3_R_4.png"]],"Rat900":[["1_Ratio_900_L_10_R_9.png","10_Ratio_900_L_20_R_18.png","2_Ratio_900_L_20_R_18.png","4_Ratio_900_L_20_R_18.png","8_Ratio_900_L_20_R_18.png"],["11_Ratio_900_L_18_R_20.png","12_Ratio_900_L_18_R_20.png","13_Ratio_900_L_18_R_20.png","14_Ratio_900_L_18_R_20.png","15_Ratio_900_L_9_R_10.png","3_Ratio_900_L_9_R_10.png","5_Ratio_900_L_9_R_10.png","6_Ratio_900_L_9_R_10.png","7_Ratio_900_L_9_R_10.png","9_Ratio_900_L_18_R_20.png"]],"Rat1000":[["10_Ratio_1000_L_16_R_16.png","11_Ratio_1000_L_6_R_6.png","12_Ratio_1000_L_14_R_14.png","13_Ratio_1000_L_20_R_20.png","15_Ratio_1000_L_15_R_15.png","2_Ratio_1000_L_17_R_17.png","4_Ratio_1000_L_9_R_9.png","5_Ratio_1000_L_6_R_6.png","6_Ratio_1000_L_19_R_19.png","8_Ratio_1000_L_14_R_14.png","9_Ratio_1000_L_25_R_25.png"],["1_Ratio_1000_L_1_R_1.png","14_Ratio_1000_L_17_R_17.png","3_Ratio_1000_L_17_R_17.png","7_Ratio_1000_L_6_R_6.png"]]}},{"start_time":1551900673768,"click_time":1551900675143,"finger_time":1551900674683,"fix_duration":1403.1515355210436,"trial":1,"RT":915,"MT":460,"sideResp":2,"stimulus":"img/750/randomdotsizeEA/R/5_Ratio_750_L_15_R_20.png","xmouse":[746,746,746,746,746,746,746,746,753,762,767,767,767,767,767,767,767,767,767,767,767,767,767,767,767,767,767,767,767,767,767,767,767,767,767,767,767,767,767,767,767,767,767,774,781,794,812,830,861,873,877,886,890,900,903,910,917,924,947,958,969,982,989,1018,1041,1064,1077,1087,1093],"ymouse":[542,542,542,542,542,542,542,542,542,542,541,541,541,541,541,541,541,541,541,541,541,541,541,541,541,541,541,541,541,541,541,541,541,541,541,541,541,541,541,541,541,541,541,532,520,501,477,448,393,363,353,333,320,299,291,282,271,258,225,214,206,197,191,170,155,137,124,108,89],"timestamp_mouse":[15,39,55,74,94,114,134,154,174,194,214,234,254,275,295,315,334,354,375,394,414,434,454,474,495,514,535,554,574,594,615,635,655,675,694,715,734,754,774,795,814,834,854,874,894,915,934,954,974,994,1014,1034,1055,1074,1094,1114,1134,1155,1174,1194,1215,1235,1254,1275,1294,1314,1334,1355,1374],"xSR":741.5,"ySR":501.8,"xT1":424.9,"yT1":0,"xT2":1058.1,"yT2":0,"toosoon":0,"cond_shown":"randomdotsizeEA","ratio_trial":750,"smaller_num":"15","larger_num":"20","correct_side":2,"subjID":"JuanPabloRoncancio33","gender":"0","age":"12","school":"6"},{"start_time":1551900677355,"click_time":1551900678702,"finger_time":1551900678163,"fix_duration":1172.7312363458743,"trial":2,"RT":808,"MT":539,"sideResp":1,"stimulus":"img/500/equaldotanddens/L/7_Ratio_500_L_10_R_5.png","xmouse":[802,802,802,802,802,802,802,802,802,802,802,802,802,802,802,802,802,802,802,802,802,802,802,802,802,802,802,802,802,802,802,802,802,802,802,802,802,802,801,799,787,775,753,729,681,664,650,640,628,606,594,591,591,591,591,572,543,505,466,430,429,429,429,429,429,428,428,432],"ymouse":[535,535,535,535,535,535,535,535,535,535,535,535,535,535,535,535,535,535,535,535,535,535,535,535,535,535,535,535,535,535,535,535,535,535,535,533,530,527,524,519,500,484,452,419,348,319,291,266,237,184,163,160,160,160,160,155,147,136,125,114,114,114,114,114,114,110,105,97],"timestamp_mouse":[10,36,47,67,87,107,127,147,168,187,208,228,247,267,288,307,327,348,367,387,407,427,448,467,487,508,527,547,567,587,608,627,647,668,687,707,728,748,767,787,808,827,847,868,887,908,928,948,967,988,1007,1027,1047,1067,1087,1107,1128,1148,1168,1188,1208,1228,1248,1268,1288,1308,1327,1347],"xSR":741.5,"ySR":501.8,"xT1":424.9,"yT1":0,"xT2":1058.1,"yT2":0,"toosoon":0,"cond_shown":"equaldotanddens","ratio_trial":500,"smaller_num":"5","larger_num":"10","correct_side":1,"subjID":"JuanPabloRoncancio33","gender":"0","age":"12","school":"6"},{"start_time":1551900680958,"click_time":1551900681982,"finger_time":1551900681642,"fix_duration":913.6626250347792,"trial":3,"RT":684,"MT":340,"sideResp":2,"stimulus":"img/500/equaldotsize/R/1_Ratio_500_L_9_R_18.png","xmouse":[781,781,781,781,781,781,781,781,781,781,781,781,781,781,781,781,781,781,781,781,781,781,781,781,781,781,781,781,781,781,783,790,806,821,846,863,885,912,930,953,956,958,958,959,961,973,984,998,1014,1033,1064,1081],"ymouse":[554,554,554,554,554,554,554,554,554,554,554,554,554,554,554,554,554,554,554,554,554,554,554,554,554,554,554,554,554,554,538,526,512,508,496,481,460,426,396,349,334,317,311,306,293,257,235,212,187,162,111,71],"timestamp_mouse":[8,33,44,64,84,104,125,145,164,185,204,225,244,264,284,304,324,345,364,384,404,424,445,464,484,505,525,545,565,585,604,625,644,664,684,705,724,745,764,785,804,824,845,864,884,904,924,944,965,984,1005,1024],"xSR":741.5,"ySR":501.8,"xT1":424.9,"yT1":0,"xT2":1058.1,"yT2":0,"toosoon":0,"cond_shown":"equaldotsize","ratio_trial":500,"smaller_num":"9","larger_num":"18","correct_side":2,"subjID":"JuanPabloRoncancio33","gender":"0","age":"12","school":"6"},{"start_time":1551900684404,"click_time":1551900685542,"finger_time":1551900685042,"fix_duration":1161.9852633562493,"trial":4,"RT":638,"MT":500,"sideResp":2,"stimulus":"img/900/equaldotanddens/R/3_Ratio_900_L_9_R_10.png","xmouse":[805,805,791,783,777,774,774,774,774,774,774,774,774,774,774,774,774,774,774,774,774,774,774,774,774,774,774,774,774,773,777,804,828,857,884,914,962,980,988,991,992,992,992,992,991,991,992,997,1003,1014,1024,1041,1049,1056,1065,1076,1085],"ymouse":[520,520,529,534,538,540,540,540,540,540,540,540,540,540,540,540,540,540,540,540,540,540,540,540,540,540,540,540,540,540,531,492,466,437,414,391,356,340,325,300,288,262,249,234,218,199,165,149,136,122,118,114,112,110,106,103,98],"timestamp_mouse":[18,38,58,78,99,118,139,158,178,198,218,239,258,279,298,318,338,359,378,398,419,438,458,478,498,519,538,559,578,598,619,638,658,678,699,719,739,758,778,798,819,838,858,878,899,918,939,958,979,1000,1018,1038,1058,1078,1099,1118,1138],"xSR":741.5,"ySR":501.8,"xT1":424.9,"yT1":0,"xT2":1058.1,"yT2":0,"toosoon":0,"cond_shown":"equaldotanddens","ratio_trial":900,"smaller_num":"9","larger_num":"10","correct_side":2,"subjID":"JuanPabloRoncancio33","gender":"0","age":"12","school":"6"},{"start_time":1551900687102,"click_time":1551900688003,"finger_time":1551900687903,"fix_duration":598.2715904710014,"trial":5,"RT":801,"MT":100,"sideResp":1,"stimulus":"img/900/equaldotsize/R/5_Ratio_900_L_9_R_10.png","xmouse":[775,775,775,775,775,775,775,775,775,775,775,775,775,775,775,775,775,775,775,775,775,777,781,787,787,787,787,787,787,787,787,787,787,788,788,788,785,776,774,770,768,760,677,574,500,435],"ymouse":[567,567,567,567,567,567,567,567,567,567,567,567,567,567,567,567,567,567,567,567,567,568,566,563,563,563,563,563,563,563,563,563,563,563,557,551,545,531,526,515,499,470,331,207,130,75],"timestamp_mouse":[8,20,40,60,80,100,120,140,160,180,200,220,240,260,280,299,321,340,359,380,400,420,440,461,481,501,520,541,560,581,600,620,641,661,681,700,720,741,761,781,801,820,840,860,880,901],"xSR":741.5,"ySR":501.8,"xT1":424.9,"yT1":0,"xT2":1058.1,"yT2":0,"toosoon":0,"cond_shown":"equaldotsize","ratio_trial":900,"smaller_num":"9","larger_num":"10","correct_side":2,"subjID":"JuanPabloRoncancio33","gender":"0","age":"12","school":"6"},{"start_time":1551900689193,"click_time":1551900690282,"finger_time":1551900689963,"fix_duration":250,"trial":6,"RT":770,"MT":319,"sideResp":1,"stimulus":"img/250/equaldotsize/L/3_Ratio_250_L_8_R_2.png","xmouse":[786,786,786,786,786,786,795,820,827,830,831,831,831,831,831,831,831,831,831,831,831,831,831,831,831,831,831,831,831,831,831,831,831,831,831,831,826,812,783,775,767,765,760,751,741,723,695,619,583,534,517,506,492,485,471],"ymouse":[507,507,507,507,508,510,519,538,545,548,551,551,551,551,551,551,551,551,551,551,551,551,551,551,551,551,551,551,551,551,551,551,551,551,551,550,545,529,495,487,480,476,464,451,432,408,369,276,233,169,148,137,116,104,85],"timestamp_mouse":[17,35,49,70,90,109,129,150,170,189,210,230,249,270,289,309,330,349,369,390,410,429,449,470,489,509,529,549,570,590,610,629,649,669,689,709,729,749,770,789,809,830,850,869,889,910,930,949,969,989,1010,1029,1049,1069,1089],"xSR":741.5,"ySR":501.8,"xT1":424.9,"yT1":0,"xT2":1058.1,"yT2":0,"toosoon":0,"cond_shown":"equaldotsize","ratio_trial":250,"smaller_num":"2","larger_num":"8","correct_side":1,"subjID":"JuanPabloRoncancio33","gender":"0","age":"12","school":"6"},{"start_time":1551900692384,"click_time":1551900693783,"finger_time":1551900693541,"fix_duration":1420.4634833493792,"trial":7,"RT":1157,"MT":242,"sideResp":1,"stimulus":"img/750/equaldotsize/L/10_Ratio_750_L_4_R_3.png","xmouse":[769,769,774,774,774,774,774,774,774,774,774,774,774,774,774,774,774,774,774,774,774,774,774,774,774,774,774,774,774,774,774,774,774,774,774,774,774,774,774,774,774,774,774,774,774,774,774,774,774,774,774,774,774,774,775,775,769,762,745,731,722,716,707,703,697,693,684,635,588,522],"ymouse":[547,547,545,545,545,545,545,545,545,545,545,545,545,545,545,545,545,545,545,545,545,545,545,545,545,545,545,545,545,545,545,545,545,545,545,545,545,545,545,545,545,545,545,545,545,545,545,545,545,545,545,545,545,545,541,529,512,493,457,428,413,397,368,352,334,317,290,203,149,91],"timestamp_mouse":[28,38,58,79,98,118,139,158,179,198,218,238,258,278,298,319,338,358,379,398,418,438,459,478,498,518,539,558,579,598,619,639,659,679,699,719,739,758,778,799,819,838,858,879,899,919,938,958,979,999,1018,1038,1058,1078,1099,1118,1138,1157,1178,1198,1218,1238,1258,1278,1298,1319,1339,1358,1379,1399],"xSR":741.5,"ySR":501.8,"xT1":424.9,"yT1":0,"xT2":1058.1,"yT2":0,"toosoon":0,"cond_shown":"equaldotsize","ratio_trial":750,"smaller_num":"3","larger_num":"4","correct_side":1,"subjID":"JuanPabloRoncancio33","gender":"0","age":"12","school":"6"},{"start_time":1551900695034,"click_time":1551900696364,"finger_time":1551900695943,"fix_duration":250,"trial":8,"RT":909,"MT":421,"sideResp":2,"stimulus":"img/900/equaldotsize/R/15_Ratio_900_L_9_R_10.png","xmouse":[777,777,777,777,777,777,777,777,777,777,777,777,777,777,777,777,777,777,777,777,777,777,777,777,777,777,777,777,777,777,777,777,777,777,777,777,777,777,777,777,777,777,777,777,778,796,818,841,874,891,907,933,944,953,959,975,986,998,1004,1014,1034,1041,1046,1051,1058,1075,1082],"ymouse":[514,514,514,514,514,514,514,514,514,514,514,514,514,514,514,514,514,514,514,514,514,514,514,514,514,514,514,514,514,514,514,514,514,514,514,514,514,514,514,514,514,514,514,514,515,493,469,446,418,403,389,368,358,350,342,322,307,281,260,240,212,200,188,176,160,120,99],"timestamp_mouse":[10,41,49,68,90,109,130,149,169,189,209,230,250,269,289,309,330,350,369,389,409,429,450,470,490,509,529,549,570,589,609,629,649,670,689,709,729,749,770,789,810,830,850,869,890,909,928,949,969,990,1010,1030,1049,1069,1089,1110,1129,1150,1169,1189,1208,1229,1249,1269,1289,1309,1330],"xSR":741.5,"ySR":501.8,"xT1":424.9,"yT1":0,"xT2":1058.1,"yT2":0,"toosoon":0,"cond_shown":"equaldotsize","ratio_trial":900,"smaller_num":"9","larger_num":"10","correct_side":2,"subjID":"JuanPabloRoncancio33","gender":"0","age":"12","school":"6"},{"start_time":1551900698174,"click_time":1551900699783,"finger_time":1551900699103,"fix_duration":730.0827314233122,"trial":9,"RT":929,"MT":680,"sideResp":2,"stimulus":"img/900/equaldotsize/R/6_Ratio_900_L_9_R_10.png","xmouse":[790,790,790,790,790,790,790,790,790,790,790,790,790,790,790,790,790,790,790,790,790,790,790,790,790,790,790,790,790,790,790,790,790,790,790,790,790,790,790,790,790,790,790,790,793,803,816,837,897,942,959,973,978,981,981,983,994,1013,1094,1134,1161,1181,1189,1209,1218,1228,1233,1233,1233,1233,1233,1233,1233,1214,1205,1198,1190,1182,1170,1160,1150],"ymouse":[544,544,544,544,544,544,544,544,544,544,544,544,544,544,544,544,544,544,544,544,544,544,544,544,544,544,544,544,544,544,544,544,544,544,544,544,544,544,544,544,544,544,544,544,535,519,497,466,369,310,288,278,274,272,272,270,255,234,166,134,109,81,65,37,25,10,1,1,1,1,1,1,1,3,8,14,18,22,28,30,32],"timestamp_mouse":[8,40,49,69,90,109,128,148,169,190,208,228,250,269,288,308,329,350,369,390,409,428,449,468,489,510,529,549,570,590,610,629,649,669,688,709,730,748,768,789,808,830,850,870,889,909,929,949,969,989,1009,1030,1049,1068,1090,1109,1128,1148,1168,1189,1210,1229,1250,1269,1290,1309,1329,1349,1368,1390,1409,1429,1449,1469,1489,1510,1529,1550,1569,1590,1609],"xSR":741.5,"ySR":501.8,"xT1":424.9,"yT1":0,"xT2":1058.1,"yT2":0,"toosoon":0,"cond_shown":"equaldotsize","ratio_trial":900,"smaller_num":"9","larger_num":"10","correct_side":2,"subjID":"JuanPabloRoncancio33","gender":"0","age":"12","school":"6"},{"start_time":1551900700954,"click_time":1551900701984,"finger_time":1551900701683,"fix_duration":250,"trial":10,"RT":729,"MT":301,"sideResp":1,"stimulus":"img/900/equaldotsize/L/10_Ratio_900_L_20_R_18.png","xmouse":[750,750,750,750,750,750,750,750,750,750,751,751,751,751,752,752,752,752,752,752,752,752,752,752,752,752,752,752,752,752,752,752,752,752,752,750,741,724,705,663,643,617,596,581,552,538,527,524,521,521,512,499],"ymouse":[582,582,582,581,581,581,581,580,579,577,576,575,574,573,571,571,569,569,569,569,569,569,569,569,569,569,569,569,569,569,569,569,569,568,553,539,518,492,464,410,380,333,295,267,213,188,170,160,150,141,104,62],"timestamp_mouse":[10,39,49,69,90,108,129,150,169,189,209,230,249,270,289,310,330,349,369,388,408,429,450,470,489,509,530,549,569,590,608,630,648,669,689,709,729,749,770,790,808,830,849,869,890,908,928,950,969,989,1010,1030],"xSR":741.5,"ySR":501.8,"xT1":424.9,"yT1":0,"xT2":1058.1,"yT2":0,"toosoon":0,"cond_shown":"equaldotsize","ratio_trial":900,"smaller_num":"18","larger_num":"20","correct_side":1,"subjID":"JuanPabloRoncancio33","gender":"0","age":"12","school":"6"},{"start_time":1551900704178,"click_time":1551900705643,"finger_time":1551900705243,"fix_duration":1232.6931309823021,"trial":11,"RT":1065,"MT":400,"sideResp":2,"stimulus":"img/750/randomdotsizeEA/L/9_Ratio_750_L_4_R_3.png","xmouse":[789,789,789,789,789,789,789,789,789,789,789,789,789,789,789,789,789,789,789,789,789,789,789,789,789,789,789,789,789,789,789,789,789,789,789,789,789,789,789,789,789,789,788,780,774,766,758,757,757,757,756,756,757,775,784,791,799,812,844,862,866,878,893,922,933,939,945,949,960,972,990,1019,1035,1060],"ymouse":[550,550,550,550,550,550,550,550,550,550,550,550,550,550,550,550,550,550,550,550,550,550,550,550,550,550,550,550,550,550,550,550,550,550,550,550,550,550,550,550,550,550,551,558,563,565,566,566,566,566,566,546,527,491,476,462,448,434,396,358,346,280,253,223,211,204,197,191,174,157,139,113,102,91],"timestamp_mouse":[10,25,46,65,86,105,126,145,165,186,204,226,245,265,284,306,325,346,364,385,404,426,445,466,486,505,524,545,565,585,604,626,645,664,685,705,726,746,764,785,804,825,845,865,886,905,925,945,965,985,1006,1026,1045,1065,1085,1104,1126,1144,1165,1185,1204,1224,1245,1265,1285,1305,1325,1345,1365,1386,1405,1425,1445,1465],"xSR":741.5,"ySR":501.8,"xT1":424.9,"yT1":0,"xT2":1058.1,"yT2":0,"toosoon":0,"cond_shown":"randomdotsizeEA","ratio_trial":750,"smaller_num":"3","larger_num":"4","correct_side":1,"subjID":"JuanPabloRoncancio33","gender":"0","age":"12","school":"6"},{"start_time":1551900706815,"click_time":1551900727183,"finger_time":1551900724643,"fix_duration":250,"trial":12,"RT":17828,"MT":2540,"sideResp":2,"stimulus":"img/900/equaldotanddens/R/3_Ratio_900_L_9_R_10.png","xmouse":[808,808,808,808,808,808,808,808,808,808,808,808,808,808,808,808,808,808,808,808,808,808,808,808,808,808,808,808,808,808,808,808,808,808,808,808,808,808,808,808,808,808,808,808,808,808,808,808,808,808,808,808,808,808,808,808,808,808,808,808,808,808,808,808,808,808,808,808,808,808,808,808,808,808,808,808,808,808,808,808,808,808,808,808,808,808,808,808,808,808,808,808,808,808,808,808,808,808,808,808,808,808,808,808,808,808,808,808,808,808,808,808,808,808,808,808,808,808,808,808,808,808,808,808,808,808,808,808,808,808,808,808,808,808,808,808,808,808,808,808,808,808,808,808,808,808,808,808,808,808,808,808,808,808,808,808,808,808,808,808,808,808,808,808,808,808,808,808,808,808,808,808,808,808,808,808,808,808,808,808,808,808,808,808,808,808,808,808,808,808,808,808,808,808,808,808,808,808,808,808,808,808,808,808,808,808,808,808,808,808,808,808,808,808,808,808,808,808,808,808,808,808,808,808,808,808,808,808,808,808,808,808,808,808,808,808,808,808,808,808,808,808,808,808,808,808,808,808,808,808,808,808,808,808,808,808,808,808,808,808,808,808,808,808,808,808,808,808,808,808,808,808,808,808,808,808,808,808,808,808,808,808,808,808,808,808,808,808,808,808,808,808,808,808,808,808,808,808,808,808,808,808,808,808,808,808,808,808,808,808,808,808,808,808,808,808,808,808,808,808,808,808,808,808,808,808,808,808,808,808,808,808,808,808,808,808,808,808,808,808,808,808,808,808,808,808,808,808,808,808,808,808,808,808,808,808,808,808,808,808,808,808,808,808,808,808,808,808,808,808,808,808,808,808,808,808,808,808,808,808,808,808,808,808,808,808,808,808,808,808,808,808,808,808,808,808,808,808,808,808,808,808,808,808,808,808,808,808,808,808,808,808,808,808,808,808,808,808,808,808,808,808,808,808,808,808,808,808,808,808,808,808,808,808,808,808,808,808,808,808,808,808,808,808,808,808,808,808,808,808,808,808,808,808,808,808,808,808,808,808,808,808,808,808,808,808,808,808,808,808,808,808,808,808,808,808,808,808,808,808,808,808,808,808,808,808,808,808,808,808,808,808,808,808,808,808,808,808,808,808,808,808,808,808,808,808,808,808,808,808,808,808,808,808,808,808,808,808,808,808,808,808,808,808,808,808,808,808,808,808,808,808,808,808,808,808,808,808,808,808,808,808,808,808,808,808,808,808,808,808,808,808,808,808,808,808,808,808,808,808,808,808,808,808,808,808,808,808,808,808,808,808,808,808,808,808,808,808,808,808,808,808,808,808,808,808,808,808,808,808,808,808,808,808,808,808,808,808,808,808,808,808,808,808,808,808,808,808,808,808,808,808,808,808,808,808,808,808,808,808,808,808,808,808,808,808,808,808,808,808,808,808,808,808,808,808,808,808,808,808,808,808,808,808,808,808,808,808,808,808,808,808,808,808,808,808,808,808,808,808,808,808,808,808,808,808,808,808,808,808,808,808,808,808,808,808,808,808,808,808,808,808,808,808,808,808,808,808,808,808,808,808,808,808,808,808,808,808,808,808,808,808,808,808,808,808,808,808,808,808,808,808,808,808,808,808,808,808,808,808,808,808,808,808,808,808,808,808,808,808,808,808,808,808,808,808,808,808,808,808,808,808,808,808,808,808,808,808,808,808,808,808,808,808,808,808,808,808,808,808,808,808,808,808,808,808,808,808,808,808,808,808,808,808,808,808,808,808,808,808,808,808,808,808,808,808,808,808,808,808,808,808,808,808,808,808,808,808,808,808,808,808,808,808,808,808,808,808,808,808,808,808,808,808,808,808,808,808,808,808,808,808,808,808,808,808,808,808,808,808,808,808,808,808,808,808,808,808,808,808,808,808,808,808,808,808,808,808,808,808,808,808,808,808,808,808,808,808,808,808,808,808,808,808,808,808,808,808,808,808,808,808,808,808,808,808,808,808,808,808,808,808,808,808,808,808,808,808,808,808,807,658,658,658,658,658,658,658,658,658,658,658,658,658,658,658,658,658,658,658,658,658,658,658,658,658,658,658,658,658,658,658,658,658,658,658,658,658,658,658,658,658,658,658,658,658,658,658,658,30,21,0,0,0,0,0,0,0,0,0,0,0,0,0,0,0,0,0,0,0,0,0,0,0,0,0,0,0,0,0,0,0,0,0,0,0,360,438,533,567,592,614,635,636,636,636,636,636,636,636,636,636,636,1334,1358,1369,1371,1371,1367,1360,1343,1252,1207,1167,1135,1107,1059,1032,1023,1023,1023,1023,1023,1023,1022,1023,1048,1055,1065],"ymouse":[533,533,533,533,533,533,533,533,533,533,533,533,533,533,533,533,533,533,533,533,533,533,533,533,533,533,533,533,533,533,533,533,533,533,533,533,533,533,533,533,533,533,533,533,533,533,533,533,533,533,533,533,533,533,533,533,533,533,533,533,533,533,533,533,533,533,533,533,533,533,533,533,533,533,533,533,533,533,533,533,533,533,533,533,533,533,533,533,533,533,533,533,533,533,533,533,533,533,533,533,533,533,533,533,533,533,533,533,533,533,533,533,533,533,533,533,533,533,533,533,533,533,533,533,533,533,533,533,533,533,533,533,533,533,533,533,533,533,533,533,533,533,533,533,533,533,533,533,533,533,533,533,533,533,533,533,533,533,533,533,533,533,533,533,533,533,533,533,533,533,533,533,533,533,533,533,533,533,533,533,533,533,533,533,533,533,533,533,533,533,533,533,533,533,533,533,533,533,533,533,533,533,533,533,533,533,533,533,533,533,533,533,533,533,533,533,533,533,533,533,533,533,533,533,533,533,533,533,533,533,533,533,533,533,533,533,533,533,533,533,533,533,533,533,533,533,533,533,533,533,533,533,533,533,533,533,533,533,533,533,533,533,533,533,533,533,533,533,533,533,533,533,533,533,533,533,533,533,533,533,533,533,533,533,533,533,533,533,533,533,533,533,533,533,533,533,533,533,533,533,533,533,533,533,533,533,533,533,533,533,533,533,533,533,533,533,533,533,533,533,533,533,533,533,533,533,533,533,533,533,533,533,533,533,533,533,533,533,533,533,533,533,533,533,533,533,533,533,533,533,533,533,533,533,533,533,533,533,533,533,533,533,533,533,533,533,533,533,533,533,533,533,533,533,533,533,533,533,533,533,533,533,533,533,533,533,533,533,533,533,533,533,533,533,533,533,533,533,533,533,533,533,533,533,533,533,533,533,533,533,533,533,533,533,533,533,533,533,533,533,533,533,533,533,533,533,533,533,533,533,533,533,533,533,533,533,533,533,533,533,533,533,533,533,533,533,533,533,533,533,533,533,533,533,533,533,533,533,533,533,533,533,533,533,533,533,533,533,533,533,533,533,533,533,533,533,533,533,533,533,533,533,533,533,533,533,533,533,533,533,533,533,533,533,533,533,533,533,533,533,533,533,533,533,533,533,533,533,533,533,533,533,533,533,533,533,533,533,533,533,533,533,533,533,533,533,533,533,533,533,533,533,533,533,533,533,533,533,533,533,533,533,533,533,533,533,533,533,533,533,533,533,533,533,533,533,533,533,533,533,533,533,533,533,533,533,533,533,533,533,533,533,533,533,533,533,533,533,533,533,533,533,533,533,533,533,533,533,533,533,533,533,533,533,533,533,533,533,533,533,533,533,533,533,533,533,533,533,533,533,533,533,533,533,533,533,533,533,533,533,533,533,533,533,533,533,533,533,533,533,533,533,533,533,533,533,533,533,533,533,533,533,533,533,533,533,533,533,533,533,533,533,533,533,533,533,533,533,533,533,533,533,533,533,533,533,533,533,533,533,533,533,533,533,533,533,533,533,533,533,533,533,533,533,533,533,533,533,533,533,533,533,533,533,533,533,533,533,533,533,533,533,533,533,533,533,533,533,533,533,533,533,533,533,533,533,533,533,533,533,533,533,533,533,533,533,533,533,533,533,533,533,533,533,533,533,533,533,533,533,533,533,533,533,533,533,533,533,533,533,533,533,533,533,533,533,533,533,533,533,533,533,533,533,533,533,533,533,533,533,533,533,533,533,533,533,533,533,533,533,533,533,533,533,533,533,533,533,533,533,533,533,533,533,533,533,533,533,533,533,533,533,533,533,533,533,533,533,533,533,533,533,533,533,533,533,533,533,533,533,533,533,533,533,533,533,533,533,533,533,533,533,533,533,533,533,533,533,533,533,533,533,533,533,533,533,533,533,533,533,533,533,533,533,533,533,533,533,533,533,533,533,533,533,533,533,533,533,533,533,533,533,533,533,533,533,533,533,533,533,533,533,533,533,533,533,533,533,533,533,533,655,655,655,655,655,655,655,655,655,655,655,655,655,655,655,655,655,655,655,655,655,655,655,655,655,655,655,655,655,655,655,655,655,655,655,655,655,655,655,655,655,655,655,655,655,655,655,655,744,669,492,354,180,78,78,78,78,78,78,78,78,78,78,78,78,78,78,78,78,78,78,78,78,78,78,78,78,78,78,78,78,78,78,78,78,76,124,162,165,159,137,53,23,10,10,10,10,10,10,10,10,10,2,16,24,29,32,35,38,43,67,82,93,100,103,103,100,99,99,99,99,99,99,98,96,78,70,58],"timestamp_mouse":[7,28,48,68,88,109,128,148,168,188,208,228,249,268,287,308,328,349,368,387,409,428,448,469,488,508,528,548,569,588,607,628,647,669,687,709,728,748,768,788,809,827,848,869,887,908,928,948,967,989,1009,1028,1049,1069,1088,1109,1128,1148,1169,1189,1208,1228,1248,1268,1289,1309,1328,1348,1368,1388,1408,1429,1449,1469,1488,1508,1527,1547,1569,1589,1607,1629,1649,1667,1688,1709,1728,1749,1769,1788,1808,1829,1849,1868,1889,1907,1928,1948,1968,1988,2009,2028,2048,2068,2089,2107,2129,2147,2169,2187,2207,2229,2248,2269,2288,2308,2328,2349,2369,2389,2408,2429,2449,2468,2488,2509,2528,2549,2569,2589,2609,2629,2647,2669,2689,2707,2728,2748,2768,2789,2808,2829,2848,2868,2888,2908,2927,2948,2968,2988,3009,3028,3049,3069,3088,3107,3128,3148,3168,3188,3209,3229,3248,3268,3288,3307,3328,3347,3367,3389,3408,3429,3448,3467,3489,3508,3529,3547,3568,3588,3609,3627,3649,3667,3689,3709,3727,3749,3768,3788,3808,3828,3848,3868,3887,3907,3928,3948,3967,3989,4007,4028,4048,4068,4088,4108,4128,4147,4168,4188,4209,4227,4249,4268,4289,4308,4328,4347,4367,4388,4408,4427,4448,4468,4488,4508,4527,4549,4567,4589,4608,4628,4647,4668,4688,4709,4729,4748,4768,4789,4808,4828,4848,4869,4888,4908,4929,4948,4969,4989,5009,5028,5049,5069,5089,5108,5128,5149,5169,5189,5209,5228,5248,5267,5288,5308,5328,5347,5368,5389,5408,5427,5449,5467,5489,5508,5529,5549,5569,5588,5609,5628,5647,5668,5688,5709,5727,5748,5768,5787,5809,5828,5848,5868,5889,5909,5929,5949,5968,5989,6008,6029,6049,6069,6089,6107,6129,6148,6168,6189,6209,6227,6249,6267,6287,6308,6328,6349,6368,6389,6408,6428,6448,6468,6488,6508,6528,6549,6569,6589,6608,6628,6647,6669,6688,6708,6729,6748,6769,6788,6809,6828,6848,6869,6887,6908,6929,6947,6968,6988,7008,7028,7048,7068,7088,7108,7127,7149,7168,7189,7208,7228,7248,7268,7289,7307,7328,7349,7369,7388,7408,7429,7449,7468,7489,7508,7527,7549,7569,7587,7608,7628,7649,7668,7688,7708,7728,7747,7768,7789,7809,7829,7848,7868,7889,7909,7929,7947,7968,7987,8008,8028,8048,8068,8088,8109,8128,8148,8169,8189,8208,8229,8248,8268,8288,8308,8329,8348,8369,8388,8408,8428,8447,8468,8488,8508,8528,8548,8568,8589,8609,8627,8649,8667,8689,8707,8728,8748,8768,8788,8809,8828,8847,8868,8889,8909,8927,8948,8968,8989,9009,9027,9049,9068,9088,9109,9127,9147,9169,9188,9209,9229,9248,9269,9289,9307,9328,9347,9369,9387,9408,9428,9447,9469,9487,9508,9528,9547,9567,9588,9607,9628,9647,9668,9688,9708,9728,9749,9768,9789,9807,9828,9849,9868,9889,9908,9928,9949,9968,9988,10007,10029,10049,10068,10088,10109,10127,10148,10168,10188,10209,10229,10247,10268,10289,10308,10329,10349,10368,10388,10407,10429,10449,10469,10488,10509,10528,10548,10569,10587,10608,10628,10648,10668,10688,10708,10728,10748,10768,10788,10808,10828,10847,10869,10887,10908,10929,10949,10969,10988,11008,11028,11047,11069,11088,11108,11128,11148,11168,11187,11208,11229,11247,11269,11288,11307,11329,11348,11368,11388,11409,11428,11448,11468,11487,11509,11528,11548,11569,11589,11608,11629,11649,11669,11689,11709,11729,11749,11767,11789,11809,11828,11848,11868,11888,11907,11929,11949,11969,11988,12009,12028,12048,12068,12089,12107,12129,12148,12169,12188,12207,12228,12248,12268,12288,12307,12327,12348,12367,12387,12409,12428,12449,12469,12488,12507,12528,12548,12568,12588,12609,12629,12649,12667,12689,12707,12728,12748,12769,12789,12808,12827,12849,12868,12889,12908,12928,12947,12967,12989,13007,13029,13048,13067,13088,13107,13128,13149,13168,13188,13207,13227,13249,13269,13289,13309,13328,13349,13369,13388,13408,13428,13448,13469,13488,13507,13528,13549,13567,13589,13609,13627,13649,13668,13689,13708,13729,13747,13769,13789,13809,13828,13849,13868,13888,13908,13927,13949,13967,13988,14008,14028,14048,14068,14088,14109,14127,14148,14167,14189,14209,14229,14247,14269,14289,14307,14329,14348,14367,14388,14408,14428,14449,14468,14488,14509,14528,14549,14569,14589,14608,14628,14648,14668,14689,14709,14727,14748,14768,14789,14808,14828,14847,14869,14887,14908,14928,14949,14968,14987,15008,15029,15047,15069,15089,15109,15129,15149,15169,15188,15209,15229,15248,15269,15289,15309,15327,15349,15369,15389,15407,15429,15449,15467,15488,15508,15527,15549,15569,15588,15607,15629,15648,15669,15689,15708,15729,15748,15767,15788,15809,15828,15849,15868,15887,15909,15929,15948,15967,15988,16008,16029,16049,16067,16089,16108,16127,16149,16169,16187,16209,16228,16249,16268,16289,16308,16328,16348,16368,16388,16408,16429,16449,16467,16488,16508,16527,16548,16569,16588,16609,16628,16649,16669,16688,16708,16729,16748,16768,16788,16808,16827,16849,16869,16887,16909,16929,16949,16969,16989,17009,17028,17048,17068,17089,17109,17129,17147,17168,17189,17208,17229,17249,17268,17289,17309,17327,17348,17369,17388,17409,17428,17448,17468,17488,17509,17527,17549,17568,17588,17609,17628,17649,17668,17689,17709,17727,17749,17769,17788,17808,17828,17847,17868,17888,17908,17928,17948,17967,17987,18008,18029,18048,18068,18088,18109,18128,18148,18168,18187,18209,18228,18248,18269,18288,18307,18329,18347,18368,18388,18407,18427,18448,18468,18489,18507,18528,18547,18569,18587,18608,18629,18648,18668,18687,18708,18728,18748,18769,18788,18808,18828,18848,18869,18889,18908,18928,18947,18967,18988,19009,19029,19048,19068,19088,19108,19128,19149,19168,19188,19208,19228,19247,19268,19289,19308,19329,19347,19368,19389,19408,19429,19449,19468,19488,19507,19528,19547,19567,19588,19608,19628,19648,19668,19688,19709,19729,19747,19769,19788,19808,19828,19848,19867,19888,19908,19928,19948,19968,19989,20007,20028,20048,20069,20089,20107,20127,20148,20168,20187,20208,20229,20249,20268,20289,20309,20328,20347,20368],"xSR":741.5,"ySR":501.8,"xT1":424.9,"yT1":0,"xT2":1058.1,"yT2":0,"toosoon":0,"cond_shown":"equaldotanddens","ratio_trial":900,"smaller_num":"9","larger_num":"10","correct_side":2,"subjID":"JuanPabloRoncancio33","gender":"0","age":"12","school":"6"},{"start_time":1551900728873,"click_time":1551900729944,"finger_time":1551900729544,"fix_duration":688.8395003828243,"trial":13,"RT":671,"MT":400,"sideResp":2,"stimulus":"img/900/equaldotanddens/R/5_Ratio_900_L_9_R_10.png","xmouse":[811,811,811,811,811,811,811,811,811,811,811,811,811,811,811,811,811,811,811,811,811,811,811,811,811,811,811,811,811,809,804,803,803,803,805,810,814,817,831,840,848,854,857,865,872,890,906,921,959,979,995,1011,1029,1067],"ymouse":[581,581,581,581,581,581,581,581,581,581,581,581,581,581,581,581,581,581,581,581,581,581,581,581,581,581,581,581,581,581,563,536,506,432,400,365,348,337,323,319,311,304,297,282,273,252,232,210,157,129,109,90,72,43],"timestamp_mouse":[10,38,49,70,91,109,131,150,171,191,210,230,250,271,289,311,330,349,370,391,410,430,450,470,491,511,529,550,570,590,610,631,651,671,690,710,730,750,770,791,809,831,849,870,891,910,929,950,970,990,1010,1030,1050,1071],"xSR":741.5,"ySR":501.8,"xT1":424.9,"yT1":0,"xT2":1058.1,"yT2":0,"toosoon":0,"cond_shown":"equaldotanddens","ratio_trial":900,"smaller_num":"9","larger_num":"10","correct_side":2,"subjID":"JuanPabloRoncancio33","gender":"0","age":"12","school":"6"},{"start_time":1551900733165,"click_time":1551900734363,"finger_time":1551900734024,"fix_duration":1000.273315447745,"trial":14,"RT":859,"MT":339,"sideResp":1,"stimulus":"img/250/randomdotsizeEA/L/1_Ratio_250_L_8_R_2.png","xmouse":[792,792,792,792,792,792,792,792,792,792,792,792,792,792,792,792,792,792,792,792,792,792,792,792,792,792,792,792,792,792,792,792,792,792,792,792,792,792,792,792,781,751,708,599,553,509,482,460,440,438,438,438,438,438,438,439,439,439,438,434],"ymouse":[586,586,586,586,586,586,586,586,586,586,586,586,586,586,586,586,586,586,586,586,586,586,586,586,586,586,586,586,586,586,586,586,586,586,586,586,586,586,586,586,573,545,504,418,377,336,302,273,242,237,237,237,237,235,212,206,185,166,110,88],"timestamp_mouse":[19,44,59,78,99,117,137,158,178,199,217,237,258,278,299,319,339,359,378,397,418,437,459,478,497,519,539,558,578,599,618,638,659,679,699,717,739,758,779,798,819,838,859,878,899,918,938,959,978,998,1017,1038,1059,1078,1098,1117,1139,1159,1179,1197],"xSR":741.5,"ySR":501.8,"xT1":424.9,"yT1":0,"xT2":1058.1,"yT2":0,"toosoon":0,"cond_shown":"randomdotsizeEA","ratio_trial":250,"smaller_num":"2","larger_num":"8","correct_side":1,"subjID":"JuanPabloRoncancio33","gender":"0","age":"12","school":"6"},{"start_time":1551900736135,"click_time":1551900737184,"finger_time":1551900736782,"fix_duration":809.0932090185989,"trial":15,"RT":647,"MT":402,"sideResp":1,"stimulus":"img/250/equaldotsize/L/1_Ratio_250_L_8_R_2.png","xmouse":[801,801,801,801,801,801,801,801,801,801,801,801,801,801,801,801,801,801,801,801,801,801,801,801,801,801,801,801,801,801,801,794,743,662,571,390,298,225,191,181,176,176,176,176,176,178,178,178,178,178,178,178,429],"ymouse":[540,540,540,540,540,540,540,540,540,540,540,540,540,540,540,540,540,540,540,540,540,540,540,540,540,540,540,540,540,540,540,538,497,441,373,223,142,76,41,22,11,11,11,11,6,1,1,1,1,1,1,1,19],"timestamp_mouse":[9,38,49,68,88,107,128,148,168,188,208,229,249,267,288,308,328,348,368,388,409,427,449,469,488,508,528,549,568,589,608,628,647,668,689,709,727,748,769,787,809,827,847,868,888,909,927,948,969,987,1008,1027,1049],"xSR":741.5,"ySR":501.8,"xT1":424.9,"yT1":0,"xT2":1058.1,"yT2":0,"toosoon":0,"cond_shown":"equaldotsize","ratio_trial":250,"smaller_num":"2","larger_num":"8","correct_side":1,"subjID":"JuanPabloRoncancio33","gender":"0","age":"12","school":"6"},{"start_time":1551900738394,"click_time":1551900739843,"finger_time":1551900739124,"fix_duration":250,"trial":16,"RT":730,"MT":719,"sideResp":1,"stimulus":"img/250/equaldotanddens/L/2_Ratio_250_L_16_R_4.png","xmouse":[818,818,818,818,818,818,818,818,818,818,818,818,818,818,818,818,818,818,818,818,818,818,818,818,818,818,818,818,818,818,818,818,818,818,805,784,739,586,521,481,450,427,381,367,359,358,357,357,357,360,361,364,367,370,372,372,372,380,388,401,424,424,424,424,424,424,424,424,424,424,424,424,480],"ymouse":[553,553,553,553,553,553,553,553,553,553,553,553,553,553,553,553,553,553,553,553,553,553,553,553,553,553,553,553,553,553,553,553,553,553,537,512,465,333,278,242,215,198,165,155,148,146,144,139,137,134,133,133,130,128,125,124,121,97,69,40,2,2,2,2,2,2,2,2,2,2,2,2,5],"timestamp_mouse":[11,34,50,68,89,108,130,150,169,188,210,229,248,269,288,309,328,349,369,389,410,429,448,469,490,509,529,549,569,588,609,629,650,670,688,710,730,749,769,789,809,830,849,870,889,909,928,949,968,989,1009,1029,1049,1070,1088,1109,1129,1149,1168,1189,1210,1229,1250,1269,1289,1308,1328,1350,1369,1390,1410,1430,1449],"xSR":741.5,"ySR":501.8,"xT1":424.9,"yT1":0,"xT2":1058.1,"yT2":0,"toosoon":0,"cond_shown":"equaldotanddens","ratio_trial":250,"smaller_num":"4","larger_num":"16","correct_side":1,"subjID":"JuanPabloRoncancio33","gender":"0","age":"12","school":"6"},{"start_time":1551900741576,"click_time":1551900743043,"finger_time":1551900742263,"fix_duration":792.3086343879826,"trial":17,"RT":687,"MT":780,"sideResp":2,"stimulus":"img/500/randomdotsizeEA/R/6_Ratio_500_L_9_R_18.png","xmouse":[780,780,780,780,780,780,780,780,780,780,780,780,780,780,780,780,780,780,780,780,780,780,780,780,780,780,780,780,780,780,780,780,780,780,785,794,806,817,849,859,870,882,887,895,899,904,908,913,930,937,948,955,960,970,975,981,989,991,993,993,994,994,994,995,1003,1015,1029,1035,1036,1036,1037,1038,1044,1065],"ymouse":[537,537,537,537,537,537,537,537,537,537,537,537,537,537,537,537,537,537,537,537,537,537,537,537,537,537,537,537,537,537,537,537,536,512,487,453,414,376,302,278,258,238,229,214,206,196,184,172,142,129,111,101,94,82,77,73,68,66,65,65,65,65,65,65,61,58,56,55,55,55,55,55,54,53],"timestamp_mouse":[9,32,48,66,87,107,127,147,167,187,206,227,246,268,287,308,328,348,367,387,406,427,446,467,487,507,526,547,566,587,608,627,647,667,687,707,728,747,767,786,807,827,846,867,887,907,927,948,968,986,1007,1027,1046,1067,1087,1107,1127,1147,1167,1187,1206,1228,1247,1267,1287,1307,1327,1346,1366,1387,1407,1427,1447,1467],"xSR":741.5,"ySR":501.8,"xT1":424.9,"yT1":0,"xT2":1058.1,"yT2":0,"toosoon":0,"cond_shown":"randomdotsizeEA","ratio_trial":500,"smaller_num":"9","larger_num":"18","correct_side":2,"subjID":"JuanPabloRoncancio33","gender":"0","age":"12","school":"6"},{"start_time":1551900746889,"click_time":1551900748103,"finger_time":1551900747764,"fix_duration":804.840710425503,"trial":18,"RT":875,"MT":339,"sideResp":1,"stimulus":"img/750/randomdotsizeEA/L/9_Ratio_750_L_4_R_3.png","xmouse":[788,788,788,788,788,788,788,788,788,788,788,788,788,788,788,788,788,788,788,788,788,788,788,788,788,788,788,788,788,788,788,788,788,788,788,788,788,788,788,788,788,782,758,728,716,690,675,651,640,632,627,622,609,595,588,582,577,570,548,529,518],"ymouse":[567,567,567,567,567,567,567,567,567,567,567,567,567,567,567,567,567,567,567,567,567,567,567,567,567,567,567,567,567,567,567,567,567,567,567,567,567,567,567,567,567,554,510,441,415,355,320,270,250,233,223,212,185,158,140,121,103,81,37,14,2],"timestamp_mouse":[15,36,53,74,94,115,135,155,175,193,215,233,254,274,293,314,333,355,374,394,415,434,454,474,495,515,534,554,575,595,615,635,654,674,694,715,735,754,774,795,814,834,854,875,894,914,934,954,974,993,1015,1034,1055,1075,1093,1114,1135,1154,1174,1194,1214],"xSR":741.5,"ySR":501.8,"xT1":424.9,"yT1":0,"xT2":1058.1,"yT2":0,"toosoon":0,"cond_shown":"randomdotsizeEA","ratio_trial":750,"smaller_num":"3","larger_num":"4","correct_side":1,"subjID":"JuanPabloRoncancio33","gender":"0","age":"12","school":"6"},{"start_time":1551900751863,"click_time":1551900753343,"finger_time":1551900752624,"fix_duration":979.3926591152157,"trial":19,"RT":761,"MT":719,"sideResp":2,"stimulus":"img/500/equaldotanddens/R/12_Ratio_500_L_1_R_2.png","xmouse":[778,778,778,778,778,778,778,778,778,778,778,778,778,778,778,778,778,778,778,778,778,778,778,778,778,778,778,778,778,778,778,778,778,778,778,778,776,776,782,824,865,919,972,1026,1153,1226,1353,1387,1387,1387,1387,1387,1387,1387,1387,1387,1387,1387,1387,1387,1387,1387,1387,1387,1387,1387,1387,1387,1387,1299,1269,1237,1203,1175,1133],"ymouse":[557,557,557,557,557,557,557,557,557,557,557,557,557,557,557,557,557,557,557,557,557,557,557,557,557,557,557,557,557,557,557,556,556,556,556,549,529,512,494,456,427,382,327,260,146,98,30,12,12,12,12,12,12,12,12,12,12,12,12,12,12,12,12,12,12,12,12,12,12,8,16,27,34,38,38],"timestamp_mouse":[8,30,40,60,80,101,119,140,160,180,199,221,240,260,280,300,320,340,359,381,401,419,441,461,481,501,520,540,561,581,601,620,640,660,681,700,720,740,761,780,801,820,840,860,880,899,919,940,961,981,1001,1020,1040,1060,1080,1099,1120,1141,1160,1180,1201,1220,1240,1260,1281,1300,1319,1340,1359,1380,1399,1420,1439,1460,1480],"xSR":741.5,"ySR":501.8,"xT1":424.9,"yT1":0,"xT2":1058.1,"yT2":0,"toosoon":0,"cond_shown":"equaldotanddens","ratio_trial":500,"smaller_num":"1","larger_num":"2","correct_side":2,"subjID":"JuanPabloRoncancio33","gender":"0","age":"12","school":"6"},{"start_time":1551900755398,"click_time":1551900756564,"finger_time":1551900756243,"fix_duration":593.794872182874,"trial":20,"RT":845,"MT":321,"sideResp":2,"stimulus":"img/900/randomdotsizeEA/R/13_Ratio_900_L_18_R_20.png","xmouse":[784,784,784,784,784,784,784,784,784,784,784,784,784,784,784,784,784,784,784,784,784,784,784,784,784,784,784,784,784,784,784,784,784,784,784,784,784,784,784,784,787,791,834,879,918,950,974,1000,1012,1014,1023,1031,1043,1050,1059,1066,1075,1091,1100],"ymouse":[519,519,519,519,519,519,519,519,519,519,519,519,519,519,519,519,519,519,519,519,519,519,519,519,519,519,519,519,519,519,519,519,519,519,519,519,519,519,519,519,517,515,485,459,430,402,381,352,331,324,301,283,247,229,206,181,152,103,85],"timestamp_mouse":[8,25,45,65,85,105,126,144,166,185,205,226,244,265,284,305,325,345,365,385,406,425,446,464,485,505,525,544,566,584,605,624,646,665,685,705,725,745,765,785,806,824,845,865,885,906,925,945,965,985,1006,1025,1046,1065,1085,1105,1125,1145,1165],"xSR":741.5,"ySR":501.8,"xT1":424.9,"yT1":0,"xT2":1058.1,"yT2":0,"toosoon":0,"cond_shown":"randomdotsizeEA","ratio_trial":900,"smaller_num":"18","larger_num":"20","correct_side":2,"subjID":"JuanPabloRoncancio33","gender":"0","age":"12","school":"6"},{"start_time":1551900758352,"click_time":1551900759344,"finger_time":1551900759043,"fix_duration":748.4319196335482,"trial":21,"RT":691,"MT":301,"sideResp":1,"stimulus":"img/500/randomdotsizeEA/L/13_Ratio_500_L_12_R_6.png","xmouse":[744,744,744,744,744,744,743,743,743,743,743,743,743,743,743,743,743,743,743,743,743,743,743,743,743,743,743,743,743,743,743,743,743,743,740,729,720,706,683,649,633,621,615,607,598,591,581,570,556,521],"ymouse":[553,553,553,553,553,553,553,553,553,553,553,553,553,553,553,553,553,553,553,553,553,553,553,553,553,553,553,553,553,553,553,553,553,553,539,513,488,452,401,313,273,234,216,200,178,166,152,133,112,80],"timestamp_mouse":[11,37,52,71,91,112,132,152,172,191,212,232,251,271,290,312,331,351,372,392,411,431,451,470,491,512,532,551,572,591,611,631,652,672,691,712,731,751,772,791,812,832,851,872,890,910,931,951,971,992],"xSR":741.5,"ySR":501.8,"xT1":424.9,"yT1":0,"xT2":1058.1,"yT2":0,"toosoon":0,"cond_shown":"randomdotsizeEA","ratio_trial":500,"smaller_num":"6","larger_num":"12","correct_side":1,"subjID":"JuanPabloRoncancio33","gender":"0","age":"12","school":"6"},{"start_time":1551900760695,"click_time":1551900761763,"finger_time":1551900761343,"fix_duration":250,"trial":22,"RT":648,"MT":420,"sideResp":1,"stimulus":"img/250/randomdotsizeEA/L/15_Ratio_250_L_12_R_3.png","xmouse":[802,802,802,802,802,802,802,802,802,802,802,802,802,802,802,802,802,802,802,802,802,802,802,802,802,802,802,802,802,800,792,784,743,715,658,621,599,584,582,582,582,582,582,582,582,580,575,563,559,554,548,541,525,519],"ymouse":[579,579,579,579,579,579,579,579,579,579,579,579,579,579,579,579,579,579,579,579,579,579,579,579,579,579,579,579,579,564,542,514,408,343,237,173,127,64,45,32,25,22,22,22,22,22,26,35,40,45,51,56,64,67],"timestamp_mouse":[8,33,48,67,88,108,128,148,169,189,209,228,249,267,289,308,329,348,368,388,409,428,448,467,489,508,527,547,569,588,608,628,648,669,688,708,728,747,767,788,808,828,848,869,889,909,928,949,967,989,1008,1028,1048,1068],"xSR":741.5,"ySR":501.8,"xT1":424.9,"yT1":0,"xT2":1058.1,"yT2":0,"toosoon":0,"cond_shown":"randomdotsizeEA","ratio_trial":250,"smaller_num":"3","larger_num":"12","correct_side":1,"subjID":"JuanPabloRoncancio33","gender":"0","age":"12","school":"6"},{"start_time":1551900763238,"click_time":1551900764524,"finger_time":1551900763763,"fix_duration":511.9691810847411,"trial":23,"RT":525,"MT":761,"sideResp":2,"stimulus":"img/500/equaldotanddens/R/15_Ratio_500_L_1_R_2.png","xmouse":[798,798,798,798,798,798,798,798,798,798,798,798,798,798,798,798,798,798,798,798,798,798,798,798,799,802,803,804,805,807,811,814,819,826,832,846,854,858,860,862,869,875,882,890,904,929,942,950,962,972,1000,1013,1025,1034,1039,1040,1040,1041,1041,1042,1044,1045,1050,1055,1062],"ymouse":[518,518,518,518,518,518,518,518,518,518,518,518,518,518,518,518,518,518,518,518,518,518,518,518,517,507,499,491,481,474,457,445,429,410,389,349,322,309,298,286,273,267,262,255,245,225,215,203,176,154,113,95,79,67,62,61,61,61,61,61,60,60,57,54,49],"timestamp_mouse":[16,36,45,66,86,105,125,145,165,185,205,225,245,265,286,306,325,345,366,386,405,426,446,465,486,505,525,545,566,585,605,625,646,665,686,705,724,744,765,786,805,826,845,866,885,906,924,945,966,986,1005,1025,1044,1066,1085,1105,1125,1144,1166,1185,1206,1225,1244,1265,1286],"xSR":741.5,"ySR":501.8,"xT1":424.9,"yT1":0,"xT2":1058.1,"yT2":0,"toosoon":0,"cond_shown":"equaldotanddens","ratio_trial":500,"smaller_num":"1","larger_num":"2","correct_side":2,"subjID":"JuanPabloRoncancio33","gender":"0","age":"12","school":"6"},{"start_time":1551900767590,"click_time":1551900768544,"finger_time":1551900768243,"fix_duration":1325.6706634471786,"trial":24,"RT":653,"MT":301,"sideResp":1,"stimulus":"img/250/equaldotanddens/L/2_Ratio_250_L_16_R_4.png","xmouse":[804,804,804,804,804,804,804,804,804,804,804,804,804,804,804,804,804,804,804,804,804,804,804,804,804,804,804,804,804,804,803,794,764,742,718,698,684,664,658,649,639,635,618,600,580,560,543,518],"ymouse":[579,579,579,579,579,579,579,579,579,579,579,579,579,579,579,579,579,579,579,579,579,579,579,579,579,579,579,579,579,579,579,557,488,444,406,372,346,304,282,253,216,191,143,114,88,64,41,11],"timestamp_mouse":[13,35,54,73,94,114,132,153,172,193,212,232,253,272,293,313,332,354,373,392,413,433,453,473,493,514,532,554,572,593,614,632,653,673,693,713,734,753,772,793,814,833,852,872,893,914,933,954],"xSR":741.5,"ySR":501.8,"xT1":424.9,"yT1":0,"xT2":1058.1,"yT2":0,"toosoon":0,"cond_shown":"equaldotanddens","ratio_trial":250,"smaller_num":"4","larger_num":"16","correct_side":1,"subjID":"JuanPabloRoncancio33","gender":"0","age":"12","school":"6"},{"start_time":1551900769608,"click_time":1551900770923,"finger_time":1551900770323,"fix_duration":322.230132968805,"trial":25,"RT":715,"MT":600,"sideResp":2,"stimulus":"img/900/randomdotsizeEA/R/15_Ratio_900_L_9_R_10.png","xmouse":[784,783,783,782,781,780,780,780,780,780,780,780,780,780,780,780,780,780,780,780,780,780,780,780,780,780,780,780,780,780,780,780,782,785,791,795,808,817,836,854,878,918,937,949,958,970,982,982,982,983,987,995,998,1001,1007,1011,1026,1034,1042,1045,1045,1045,1047,1054,1057,1059],"ymouse":[528,530,531,531,532,533,533,533,533,533,533,533,533,533,533,533,533,533,533,533,533,533,533,533,533,533,533,533,533,533,533,533,531,527,516,499,444,412,356,320,280,208,176,158,143,129,116,115,115,115,112,108,106,103,100,98,88,84,80,78,77,77,77,73,71,70],"timestamp_mouse":[15,35,55,75,96,115,134,156,174,195,215,235,256,275,295,316,336,355,375,394,414,435,456,476,495,515,535,555,576,595,615,634,655,675,695,715,735,755,775,796,815,835,855,875,895,916,935,955,975,995,1016,1035,1055,1075,1096,1115,1136,1155,1174,1196,1215,1235,1255,1274,1295,1315],"xSR":741.5,"ySR":501.8,"xT1":424.9,"yT1":0,"xT2":1058.1,"yT2":0,"toosoon":0,"cond_shown":"randomdotsizeEA","ratio_trial":900,"smaller_num":"9","larger_num":"10","correct_side":2,"subjID":"JuanPabloRoncancio33","gender":"0","age":"12","school":"6"},{"start_time":1551900818800,"click_time":1551900819903,"finger_time":1551900819424,"fix_duration":936.6826795610963,"trial":26,"RT":624,"MT":479,"sideResp":1,"stimulus":"img/500/equaldotsize/L/5_Ratio_500_L_4_R_2.png","xmouse":[765,765,765,765,765,765,765,765,765,765,765,765,765,765,765,765,765,765,765,765,765,765,765,765,765,765,765,765,759,757,750,747,738,734,726,718,714,703,697,690,686,682,680,680,680,679,669,620,598,575,564,557,539,531,525,521],"ymouse":[569,569,569,569,569,569,569,569,569,569,569,569,569,569,569,569,569,569,569,569,569,569,569,569,569,569,569,559,537,530,505,489,455,434,407,381,358,313,294,269,258,248,244,244,244,243,236,196,172,138,118,99,59,40,24,17],"timestamp_mouse":[3,31,43,63,83,103,123,143,163,182,204,223,243,263,283,303,323,343,363,384,403,422,442,463,484,502,523,542,563,583,603,624,642,662,682,703,723,743,764,783,803,823,843,862,884,903,924,942,963,983,1003,1023,1044,1063,1083,1103],"xSR":741.5,"ySR":501.8,"xT1":424.9,"yT1":0,"xT2":1058.1,"yT2":0,"toosoon":0,"cond_shown":"equaldotsize","ratio_trial":500,"smaller_num":"2","larger_num":"4","correct_side":1,"subjID":"JuanPabloRoncancio33","gender":"0","age":"12","school":"6"},{"start_time":1551900821780,"click_time":1551900823043,"finger_time":1551900822463,"fix_duration":795.8612687420205,"trial":27,"RT":683,"MT":580,"sideResp":1,"stimulus":"img/250/randomdotsizeEA/L/7_Ratio_250_L_8_R_2.png","xmouse":[789,789,789,789,789,789,789,789,789,789,789,789,789,789,789,789,789,789,789,789,789,789,789,789,789,789,789,789,789,789,789,789,788,780,770,760,750,738,712,692,680,669,656,629,616,605,595,587,580,578,564,542,505,459,457,457,457,457,457,457,457,456,462,470],"ymouse":[515,515,515,515,515,515,515,515,515,515,515,515,515,515,515,515,515,515,515,515,515,515,515,515,515,515,515,515,515,515,515,515,515,504,487,465,441,412,355,315,288,265,241,199,180,165,154,146,142,142,139,132,122,109,107,107,107,107,107,107,107,105,102,97],"timestamp_mouse":[10,29,43,63,82,103,123,143,164,184,203,223,244,263,282,303,323,343,364,383,403,424,442,464,483,503,524,544,563,582,603,622,643,662,683,703,723,744,763,783,803,824,844,863,883,903,923,942,963,983,1003,1024,1043,1063,1083,1104,1122,1143,1163,1183,1203,1223,1243,1263],"xSR":741.5,"ySR":501.8,"xT1":424.9,"yT1":0,"xT2":1058.1,"yT2":0,"toosoon":0,"cond_shown":"randomdotsizeEA","ratio_trial":250,"smaller_num":"2","larger_num":"8","correct_side":1,"subjID":"JuanPabloRoncancio33","gender":"0","age":"12","school":"6"},{"start_time":1551900824375,"click_time":1551900825243,"finger_time":1551900824983,"fix_duration":250,"trial":28,"RT":608,"MT":260,"sideResp":1,"stimulus":"img/750/equaldotanddens/L/6_Ratio_750_L_24_R_18.png","xmouse":[787,787,787,787,787,787,787,787,787,787,787,787,787,787,787,787,787,787,787,787,787,787,787,787,787,787,786,784,775,768,753,735,719,682,666,652,641,631,607,584,568,553,539,515],"ymouse":[586,586,586,586,586,586,586,586,586,586,586,586,586,586,586,586,586,586,586,586,586,586,586,586,586,586,584,578,546,523,474,431,386,302,267,243,223,203,166,139,120,101,81,41],"timestamp_mouse":[10,35,48,67,88,109,129,149,168,188,208,228,248,268,287,308,328,349,367,389,407,427,449,468,488,509,528,549,568,588,608,628,648,668,688,708,728,749,767,787,807,829,849,868],"xSR":741.5,"ySR":501.8,"xT1":424.9,"yT1":0,"xT2":1058.1,"yT2":0,"toosoon":0,"cond_shown":"equaldotanddens","ratio_trial":750,"smaller_num":"18","larger_num":"24","correct_side":1,"subjID":"JuanPabloRoncancio33","gender":"0","age":"12","school":"6"},{"start_time":1551900826598,"click_time":1551900827623,"finger_time":1551900827344,"fix_duration":332.52037459991254,"trial":29,"RT":746,"MT":279,"sideResp":2,"stimulus":"img/750/randomdotsizeEA/R/11_Ratio_750_L_12_R_16.png","xmouse":[793,793,793,793,793,792,790,790,789,789,789,789,789,789,789,789,789,789,789,789,789,789,789,789,789,789,789,789,789,789,789,789,789,798,808,819,833,863,880,898,918,941,980,992,1004,1013,1019,1030,1036,1049,1057,1069],"ymouse":[544,544,544,544,544,545,546,547,547,548,548,548,548,548,548,548,548,548,548,548,548,548,548,548,548,548,548,548,548,548,548,548,547,540,532,523,507,449,409,366,320,264,168,134,108,87,72,52,48,42,39,34],"timestamp_mouse":[20,25,46,65,86,105,125,145,165,185,204,226,246,264,285,305,326,346,366,386,404,424,445,466,485,505,524,546,566,584,605,625,645,665,686,706,726,746,765,785,805,824,845,865,885,905,926,945,965,986,1006,1025],"xSR":741.5,"ySR":501.8,"xT1":424.9,"yT1":0,"xT2":1058.1,"yT2":0,"toosoon":0,"cond_shown":"randomdotsizeEA","ratio_trial":750,"smaller_num":"12","larger_num":"16","correct_side":2,"subjID":"JuanPabloRoncancio33","gender":"0","age":"12","school":"6"},{"start_time":1551900829297,"click_time":1551900830383,"finger_time":1551900829903,"fix_duration":551.5915331731636,"trial":30,"RT":606,"MT":480,"sideResp":1,"stimulus":"img/500/equaldotanddens/L/4_Ratio_500_L_18_R_9.png","xmouse":[804,804,804,804,804,804,804,804,804,804,804,804,804,804,804,804,804,804,804,804,804,804,804,804,804,804,804,804,803,798,794,784,741,717,697,683,668,647,637,624,614,605,605,605,605,605,571,551,544,540,538,536,535,525,520],"ymouse":[516,516,516,516,516,516,516,516,516,516,516,516,516,516,516,516,516,516,516,516,516,516,516,516,516,516,516,516,516,506,498,477,374,315,257,206,154,85,58,36,17,1,1,1,1,1,0,10,14,16,18,18,20,25,28],"timestamp_mouse":[9,32,47,66,86,106,126,146,165,187,206,227,247,265,285,305,327,347,365,386,407,425,446,467,486,506,527,547,566,587,606,626,647,665,686,707,726,746,766,786,806,826,846,866,886,907,925,946,965,986,1006,1027,1045,1065,1086],"xSR":741.5,"ySR":501.8,"xT1":424.9,"yT1":0,"xT2":1058.1,"yT2":0,"toosoon":0,"cond_shown":"equaldotanddens","ratio_trial":500,"smaller_num":"9","larger_num":"18","correct_side":1,"subjID":"JuanPabloRoncancio33","gender":"0","age":"12","school":"6"},{"start_time":1551900832464,"click_time":1551900833263,"finger_time":1551900833043,"fix_duration":1081.5590981801513,"trial":31,"RT":579,"MT":220,"sideResp":2,"stimulus":"img/750/equaldotsize/R/7_Ratio_750_L_3_R_4.png","xmouse":[790,790,790,790,790,790,790,790,790,790,790,790,790,790,790,790,790,790,790,790,790,790,790,790,790,790,793,801,820,834,848,870,894,969,1016,1046,1064,1080,1106,1115],"ymouse":[546,546,548,548,548,548,548,548,548,548,548,548,548,548,548,548,548,548,548,548,548,548,548,548,543,539,521,508,477,453,428,388,348,255,202,163,141,123,103,97],"timestamp_mouse":[33,40,59,79,98,120,139,159,180,199,218,238,259,279,298,319,340,359,380,399,420,439,459,479,500,518,539,560,579,598,619,639,659,678,699,719,739,759,779,799],"xSR":741.5,"ySR":501.8,"xT1":424.9,"yT1":0,"xT2":1058.1,"yT2":0,"toosoon":0,"cond_shown":"equaldotsize","ratio_trial":750,"smaller_num":"3","larger_num":"4","correct_side":2,"subjID":"JuanPabloRoncancio33","gender":"0","age":"12","school":"6"},{"start_time":1551900835212,"click_time":1551900835862,"finger_time":1551900835784,"fix_duration":827.3680364983287,"trial":32,"RT":572,"MT":78,"sideResp":1,"stimulus":"img/250/equaldotsize/L/15_Ratio_250_L_12_R_3.png","xmouse":[778,778,778,778,778,778,778,778,778,778,778,778,778,778,778,778,778,778,778,778,778,778,778,778,778,778,778,757,744,694,662,572,520],"ymouse":[564,564,564,564,564,564,564,564,564,564,564,564,564,564,564,564,564,564,564,564,564,564,564,564,564,563,560,518,495,405,339,177,96],"timestamp_mouse":[11,33,51,71,91,112,130,151,171,191,211,232,251,272,291,310,330,352,371,391,412,432,450,472,492,512,530,552,572,592,611,631,650],"xSR":741.5,"ySR":501.8,"xT1":424.9,"yT1":0,"xT2":1058.1,"yT2":0,"toosoon":0,"cond_shown":"equaldotsize","ratio_trial":250,"smaller_num":"3","larger_num":"12","correct_side":1,"subjID":"JuanPabloRoncancio33","gender":"0","age":"12","school":"6"},{"start_time":1551900837066,"click_time":1551900837904,"finger_time":1551900837743,"fix_duration":281.46064677474914,"trial":33,"RT":677,"MT":161,"sideResp":2,"stimulus":"img/900/equaldotanddens/L/2_Ratio_900_L_20_R_18.png","xmouse":[772,772,772,772,772,772,772,772,772,772,772,772,772,772,772,772,772,772,772,772,772,772,772,772,772,772,772,772,772,772,772,773,781,821,851,892,919,944,1006,1030,1056,1073],"ymouse":[568,568,568,568,568,568,568,568,568,568,568,568,568,568,568,568,568,568,568,568,568,568,568,568,568,568,568,568,568,566,558,544,521,457,406,341,284,237,140,108,78,58],"timestamp_mouse":[26,37,58,77,97,117,137,156,177,196,217,236,257,277,298,318,337,357,378,397,417,437,457,477,497,518,537,556,577,597,617,637,657,677,697,717,738,758,776,797,817,838],"xSR":741.5,"ySR":501.8,"xT1":424.9,"yT1":0,"xT2":1058.1,"yT2":0,"toosoon":0,"cond_shown":"equaldotanddens","ratio_trial":900,"smaller_num":"18","larger_num":"20","correct_side":1,"subjID":"JuanPabloRoncancio33","gender":"0","age":"12","school":"6"},{"start_time":1551900840187,"click_time":1551900841243,"finger_time":1551900840863,"fix_duration":1001.7047690563854,"trial":34,"RT":676,"MT":380,"sideResp":2,"stimulus":"img/250/equaldotanddens/R/4_Ratio_250_L_3_R_12.png","xmouse":[805,805,805,805,805,805,805,805,805,805,805,805,805,805,805,805,805,805,805,805,805,805,805,805,805,805,805,805,805,805,805,805,832,873,905,927,942,955,959,960,961,962,963,963,963,963,963,963,963,965,976,998,1063],"ymouse":[547,547,547,547,547,547,547,547,547,547,547,547,547,547,547,547,547,547,547,547,547,547,547,547,547,547,547,547,547,547,547,547,529,502,474,432,375,279,236,197,178,173,172,172,172,172,172,172,172,172,163,138,53],"timestamp_mouse":[21,38,56,76,96,115,137,155,176,196,216,236,255,276,297,316,336,356,375,397,416,436,457,476,497,516,537,556,577,597,617,635,656,676,696,716,736,755,777,796,817,837,856,877,897,916,935,956,976,996,1016,1035,1056],"xSR":741.5,"ySR":501.8,"xT1":424.9,"yT1":0,"xT2":1058.1,"yT2":0,"toosoon":0,"cond_shown":"equaldotanddens","ratio_trial":250,"smaller_num":"3","larger_num":"12","correct_side":2,"subjID":"JuanPabloRoncancio33","gender":"0","age":"12","school":"6"},{"start_time":1551900843995,"click_time":1551900846043,"finger_time":1551900844544,"fix_duration":1051.3698153026544,"trial":35,"RT":549,"MT":1499,"sideResp":2,"stimulus":"img/900/equaldotanddens/R/13_Ratio_900_L_18_R_20.png","xmouse":[827,827,827,827,827,827,825,813,798,782,780,780,780,780,780,780,780,780,780,780,779,779,777,776,774,770,763,746,743,738,730,724,711,703,695,690,682,668,658,642,631,622,609,605,601,593,585,562,550,542,537,536,536,536,536,534,529,518,516,516,516,516,516,516,516,516,516,518,538,585,621,651,688,702,718,733,751,785,802,872,923,954,954,954,954,954,954,954,954,1373,1383,1383,1383,1383,1383,1383,1383,1383,1383,1370,1332,1256,1143],"ymouse":[566,566,566,566,566,566,565,563,561,559,559,559,559,559,559,559,559,559,559,559,558,558,555,550,541,530,512,465,454,434,407,389,359,345,331,320,308,283,268,245,230,218,200,195,191,186,182,167,158,153,149,148,148,148,148,148,148,144,142,142,142,142,142,142,142,142,142,141,135,122,117,108,97,93,89,85,80,67,56,30,16,5,5,5,5,5,5,5,5,2,4,4,4,4,4,4,4,4,5,7,7,7,7],"timestamp_mouse":[8,32,49,68,88,108,128,148,169,188,209,229,247,269,288,308,328,349,367,388,408,429,448,468,488,509,529,549,568,588,608,627,649,668,688,708,727,748,768,788,808,829,848,868,888,909,928,947,967,989,1008,1029,1048,1069,1088,1107,1128,1149,1169,1188,1208,1228,1249,1268,1288,1308,1328,1348,1369,1388,1407,1429,1448,1468,1488,1508,1527,1548,1569,1588,1608,1628,1649,1668,1688,1708,1729,1748,1768,1787,1807,1828,1847,1869,1888,1909,1929,1948,1968,1988,2009,2028,2048],"xSR":741.5,"ySR":501.8,"xT1":424.9,"yT1":0,"xT2":1058.1,"yT2":0,"toosoon":0,"cond_shown":"equaldotanddens","ratio_trial":900,"smaller_num":"18","larger_num":"20","correct_side":2,"subjID":"JuanPabloRoncancio33","gender":"0","age":"12","school":"6"},{"start_time":1551900848104,"click_time":1551900851763,"finger_time":1551900848823,"fix_duration":918.5025431393778,"trial":36,"RT":719,"MT":2940,"sideResp":2,"stimulus":"img/500/equaldotsize/R/1_Ratio_500_L_9_R_18.png","xmouse":[773,773,773,773,773,773,773,773,773,773,773,773,773,773,773,773,773,773,773,773,773,773,773,773,773,773,773,773,773,773,773,773,772,772,769,765,759,750,746,740,735,723,720,719,724,736,750,784,805,829,864,917,1097,1202,1342,1417,1464,1504,1515,1522,1530,1542,1562,1568,1568,1568,1568,1567,1567,1567,1567,1567,1567,1567,1567,1567,1567,1567,1567,1567,1567,1567,1565,1564,1564,1564,1564,1564,1564,1564,1564,1564,1564,1564,1564,1564,1564,1564,1564,1564,1564,1564,1563,1557,1548,1546,1544,1544,1544,1544,1544,1544,1544,1544,1544,1544,1544,1541,1537,1535,1534,1532,1527,1525,1519,1510,1492,1404,1334,1272,1202,1147,1059,1029,991,977,972,972,972,972,972,972,972,971,974,976,978,979,979,981,987,1011,1239,1303,1303,1303,1303,1303,1303,1303,1303,1303,1303,1303,1303,1303,1303,1303,1303,1303,1303,1303,1303,1303,1303,1303,1303,1514,1473,1418,1366,1309,1205,1156],"ymouse":[584,582,580,578,577,577,577,577,577,577,577,577,577,577,577,577,577,577,577,577,577,577,577,577,577,577,577,577,577,577,577,572,561,552,540,518,500,468,455,442,430,402,388,373,352,338,324,303,295,287,281,278,265,249,230,211,196,165,151,136,118,98,60,34,23,18,16,16,16,16,16,16,16,16,16,16,16,16,16,16,16,16,22,25,28,30,31,31,31,31,31,31,31,31,31,31,31,31,31,31,31,31,31,29,27,27,27,26,26,26,26,26,26,26,26,26,26,26,26,26,27,27,29,29,30,32,36,57,74,93,111,118,131,136,141,143,144,144,144,144,144,144,144,144,140,136,129,116,110,104,96,82,16,1,1,1,1,1,1,1,1,1,1,1,1,1,1,1,1,1,1,1,1,1,1,1,1,11,18,26,26,26,26,26],"timestamp_mouse":[1,19,39,59,80,99,119,138,160,179,199,218,240,259,280,298,319,339,359,379,398,418,440,459,479,500,518,539,560,579,599,619,639,659,678,699,719,738,758,779,799,824,840,860,879,899,920,939,959,979,999,1020,1039,1060,1078,1099,1120,1139,1159,1180,1199,1219,1238,1260,1278,1299,1320,1338,1358,1379,1399,1420,1439,1459,1479,1499,1518,1539,1559,1579,1599,1619,1638,1659,1679,1700,1719,1739,1758,1779,1799,1820,1839,1858,1879,1899,1918,1939,1959,1979,1999,2019,2040,2059,2079,2099,2119,2139,2160,2179,2199,2219,2238,2259,2279,2299,2319,2339,2358,2379,2400,2420,2439,2460,2479,2499,2519,2539,2559,2579,2599,2619,2639,2659,2679,2699,2719,2740,2759,2779,2799,2819,2840,2859,2879,2899,2920,2939,2959,2979,3000,3020,3040,3058,3079,3098,3118,3139,3159,3179,3199,3220,3239,3259,3279,3299,3319,3339,3359,3378,3400,3419,3440,3459,3479,3500,3519,3539,3558,3578,3598,3619,3639,3659],"xSR":741.5,"ySR":501.8,"xT1":424.9,"yT1":0,"xT2":1058.1,"yT2":0,"toosoon":0,"cond_shown":"equaldotsize","ratio_trial":500,"smaller_num":"9","larger_num":"18","correct_side":2,"subjID":"JuanPabloRoncancio33","gender":"0","age":"12","school":"6"},{"start_time":1551900855661,"click_time":1551900860924,"finger_time":1551900856342,"fix_duration":1195.0946853120006,"trial":37,"RT":681,"MT":4582,"sideResp":1,"stimulus":"img/750/equaldotsize/R/5_Ratio_750_L_15_R_20.png","xmouse":[811,811,811,811,811,811,811,811,811,811,811,811,811,811,811,811,811,811,811,811,811,811,811,811,811,810,809,809,808,808,808,807,806,806,806,806,806,806,806,806,806,806,806,806,810,821,836,844,852,858,858,859,860,860,861,864,868,874,881,894,902,911,921,927,929,930,930,929,922,903,891,880,873,866,845,828,800,782,763,729,715,705,700,697,696,696,696,696,696,696,696,696,696,696,696,695,693,691,689,683,678,671,661,650,625,611,587,570,560,553,552,552,552,547,517,493,451,422,396,369,369,369,369,373,451,519,660,763,863,1046,1111,1161,1186,1207,1237,1273,1314,1369,1429,1524,1549,1567,1567,1567,1567,1567,1567,1567,1567,1567,1567,1567,1567,1567,1578,1557,1516,1489,1467,1438,1429,1428,1428,1428,1428,1414,1328,1169,945,266,0,0,0,0,0,0,0,0,0,0,0,0,0,0,0,0,38,143,336,856,856,856,856,856,856,856,856,856,856,856,856,856,856,856,856,856,856,856,856,856,856,856,1193,929,204,0,0,0,0,0,0,0,0,0,0,0,0,34,130,546,863,1165,1165,1165,1165,1165,1165,1165,1165,1165,1165,1165,1165,1165,1165,1165,1165,1165,1165,1165,1165,1165,1165,0,0,0,0,0,7,64,135,230,357,487],"ymouse":[574,574,574,571,568,564,564,564,564,564,564,564,564,564,564,564,564,564,564,564,564,564,564,564,564,559,552,548,543,537,527,520,513,506,495,488,474,465,455,447,445,440,433,420,405,365,332,314,296,272,262,257,255,253,253,246,241,234,223,203,189,173,160,150,146,143,134,122,102,65,51,42,39,38,38,38,38,38,40,44,46,48,49,49,49,49,49,49,49,49,49,49,50,50,54,71,84,100,116,154,179,205,239,265,310,325,343,350,355,357,357,357,357,355,344,338,329,325,323,323,323,323,323,323,333,343,356,356,356,352,341,334,327,322,313,304,298,290,282,263,254,243,243,243,243,243,243,243,243,243,243,243,243,243,60,64,69,73,76,80,80,80,80,80,80,80,75,73,71,71,71,71,72,84,98,104,109,110,110,110,110,110,110,110,110,110,112,112,104,25,25,25,25,25,25,25,25,25,25,25,25,25,25,25,25,25,25,25,25,25,25,25,45,89,142,145,147,147,147,149,154,157,158,158,158,158,160,160,150,94,56,8,8,8,8,8,8,8,8,8,8,8,8,8,8,8,8,8,8,8,8,8,8,0,17,19,19,19,22,32,35,35,35,35],"timestamp_mouse":[9,32,43,61,82,103,123,143,162,181,202,222,243,263,282,302,322,342,363,381,403,423,443,462,482,503,522,541,562,582,602,622,642,662,681,702,722,743,762,782,802,823,842,863,882,902,922,943,962,982,1002,1022,1042,1062,1082,1102,1122,1142,1162,1182,1201,1222,1242,1263,1282,1302,1322,1342,1362,1382,1402,1422,1443,1461,1482,1503,1522,1542,1563,1583,1602,1622,1641,1661,1682,1702,1722,1742,1762,1782,1802,1822,1843,1863,1882,1902,1922,1942,1963,1982,2002,2022,2043,2061,2082,2102,2122,2143,2162,2182,2202,2222,2242,2263,2282,2303,2322,2341,2361,2382,2402,2422,2441,2463,2482,2503,2522,2542,2562,2582,2602,2622,2643,2663,2682,2701,2722,2742,2762,2782,2802,2821,2842,2862,2882,2903,2922,2942,2961,2983,3002,3023,3042,3062,3083,3102,3122,3142,3163,3182,3203,3222,3242,3262,3282,3302,3322,3342,3362,3382,3402,3423,3442,3462,3482,3503,3522,3542,3562,3582,3603,3623,3643,3662,3682,3701,3722,3743,3762,3782,3802,3822,3842,3862,3883,3902,3922,3942,3961,3982,4002,4023,4042,4061,4081,4103,4123,4143,4162,4181,4202,4222,4242,4263,4282,4302,4323,4342,4361,4383,4402,4423,4442,4463,4483,4503,4521,4542,4562,4582,4602,4622,4643,4663,4682,4702,4722,4741,4762,4781,4802,4822,4842,4863,4883,4902,4922,4942,4962,4982,5002,5023,5042,5063,5082,5103,5122,5143,5163,5182,5202,5222,5242,5263],"xSR":741.5,"ySR":501.8,"xT1":424.9,"yT1":0,"xT2":1058.1,"yT2":0,"toosoon":0,"cond_shown":"equaldotsize","ratio_trial":750,"smaller_num":"15","larger_num":"20","correct_side":2,"subjID":"JuanPabloRoncancio33","gender":"0","age":"12","school":"6"},{"start_time":1551900864424,"click_time":1551900865483,"finger_time":1551900865124,"fix_duration":379.66902739297035,"trial":38,"RT":700,"MT":359,"sideResp":1,"stimulus":"img/500/equaldotsize/L/5_Ratio_500_L_4_R_2.png","xmouse":[811,811,811,811,811,811,810,810,810,810,809,807,807,806,806,805,804,804,803,803,803,803,803,803,803,803,803,803,803,803,803,803,800,796,785,757,732,717,704,691,663,648,634,624,619,612,606,604,592,582,570,535,517],"ymouse":[520,520,520,520,520,520,520,520,520,520,521,523,524,524,525,526,528,528,530,530,530,530,530,530,530,530,530,530,530,530,530,530,521,507,486,438,397,374,355,338,303,290,276,265,258,244,229,224,198,176,151,93,69],"timestamp_mouse":[34,40,60,80,98,119,140,160,180,200,219,239,258,279,300,318,339,359,379,399,418,439,458,480,499,520,539,559,580,598,620,639,659,679,700,719,738,759,779,799,819,838,858,878,899,919,939,959,980,999,1019,1039,1059],"xSR":741.5,"ySR":501.8,"xT1":424.9,"yT1":0,"xT2":1058.1,"yT2":0,"toosoon":0,"cond_shown":"equaldotsize","ratio_trial":500,"smaller_num":"2","larger_num":"4","correct_side":1,"subjID":"JuanPabloRoncancio33","gender":"0","age":"12","school":"6"},{"start_time":1551900867175,"click_time":1551900870863,"finger_time":1551900867824,"fix_duration":730.9151828628817,"trial":39,"RT":649,"MT":3039,"sideResp":1,"stimulus":"img/750/equaldotanddens/R/12_Ratio_750_L_3_R_4.png","xmouse":[786,786,786,786,786,786,786,786,786,786,786,786,786,786,786,786,786,786,786,786,786,786,786,786,787,787,787,787,787,787,787,787,787,787,788,789,791,792,795,796,796,796,797,797,797,797,797,797,797,797,797,797,797,797,797,797,797,796,795,788,783,780,776,767,766,766,764,762,753,746,739,733,722,703,694,683,674,665,653,650,649,648,647,644,642,640,637,635,630,627,623,618,613,606,605,604,602,602,602,602,602,598,595,583,578,576,575,575,575,575,575,575,575,575,575,575,575,575,575,575,575,573,570,558,554,550,549,548,548,547,546,545,544,543,543,541,540,537,536,535,535,535,534,533,533,532,532,531,530,530,530,529,529,529,529,529,529,529,529,529,529,529,529,529,529,529,529,529,529,529,529,529,529,529,529,529,529,529,529,529,529,529,529,526,524],"ymouse":[562,562,562,562,562,562,562,562,562,562,562,562,562,562,562,562,562,562,554,548,542,532,527,519,517,516,516,516,515,515,510,504,499,488,483,477,472,469,461,457,455,455,454,454,454,453,451,449,442,437,426,418,412,403,400,396,392,386,377,353,337,327,316,296,291,285,277,265,237,209,189,165,141,88,67,46,32,22,15,14,14,15,15,19,21,23,24,25,26,26,27,27,28,30,31,31,32,32,32,32,32,33,35,36,36,36,36,36,36,36,36,36,36,36,36,36,36,36,36,36,36,35,35,34,34,34,34,34,34,34,34,34,34,35,35,36,36,36,36,37,37,37,37,37,37,38,38,39,40,40,40,41,41,41,41,41,41,41,41,41,41,41,41,41,41,41,41,41,41,41,41,41,41,41,41,41,41,41,41,41,41,41,41,41,41],"timestamp_mouse":[8,31,47,68,88,107,129,148,169,189,208,229,247,267,289,308,327,348,368,388,408,428,448,468,488,508,528,547,568,588,608,628,649,668,688,708,728,749,768,787,808,828,848,869,889,908,928,949,968,988,1008,1029,1048,1069,1087,1108,1128,1149,1167,1188,1208,1228,1248,1268,1288,1308,1327,1348,1368,1387,1408,1428,1448,1468,1487,1508,1529,1549,1569,1588,1607,1629,1649,1667,1688,1707,1728,1749,1769,1789,1808,1829,1848,1869,1888,1908,1928,1949,1968,1988,2008,2029,2048,2068,2088,2108,2128,2148,2169,2187,2207,2227,2248,2268,2288,2308,2329,2349,2368,2387,2408,2428,2448,2467,2488,2508,2528,2549,2568,2588,2608,2629,2648,2669,2688,2708,2728,2747,2768,2788,2808,2828,2847,2869,2888,2908,2928,2948,2969,2987,3009,3029,3049,3069,3087,3109,3128,3147,3168,3188,3208,3228,3249,3268,3287,3308,3328,3349,3368,3388,3408,3429,3448,3468,3488,3508,3528,3548,3568,3588,3608,3629,3648,3668,3688],"xSR":741.5,"ySR":501.8,"xT1":424.9,"yT1":0,"xT2":1058.1,"yT2":0,"toosoon":0,"cond_shown":"equaldotanddens","ratio_trial":750,"smaller_num":"3","larger_num":"4","correct_side":2,"subjID":"JuanPabloRoncancio33","gender":"0","age":"12","school":"6"},{"start_time":1551900873559,"click_time":1551900876742,"finger_time":1551900874343,"fix_duration":1075.8089208512117,"trial":40,"RT":784,"MT":2399,"sideResp":1,"stimulus":"img/500/randomdotsizeEA/R/1_Ratio_500_L_9_R_18.png","xmouse":[793,793,793,793,793,793,793,793,793,793,793,793,793,793,793,793,793,793,793,793,793,793,793,793,793,793,793,793,793,793,793,793,793,793,793,793,794,797,800,812,819,825,828,830,834,837,837,839,841,849,855,862,868,873,884,889,899,908,917,937,940,948,954,962,983,993,1001,1008,1014,1020,1023,1027,1031,1031,1031,1031,1031,1031,1031,1031,1031,1031,1031,1031,1031,1031,1031,1031,1031,1031,1031,1031,1031,1031,1031,1031,1031,1031,1031,1031,1031,1031,1031,1031,1029,1029,1029,1029,1029,1029,1029,1029,1029,1029,1029,1029,1029,1029,1029,1029,1029,1028,1006,977,930,819,783,752,727,705,703,703,703,703,703,703,702,699,693,680,674,673,671,671,669,666,663,661,660,659,659,658,654,646,622,605,587,569,551,521],"ymouse":[565,565,565,565,565,565,565,565,565,565,565,565,565,565,565,565,565,565,565,565,565,565,565,565,565,565,565,565,565,565,565,565,565,565,565,565,564,553,538,497,475,443,426,409,388,382,378,375,370,357,346,334,323,311,280,260,239,221,204,169,163,149,137,126,105,95,86,75,67,57,51,44,40,39,38,38,38,38,38,38,38,38,38,38,38,38,38,38,38,38,38,38,38,38,38,38,38,38,38,38,38,38,39,40,42,42,42,42,42,42,42,42,42,42,42,42,42,42,42,42,42,42,45,45,45,51,58,66,69,72,73,73,73,73,73,73,73,73,73,74,76,76,76,76,77,78,78,78,78,78,78,78,78,75,65,60,55,49,44,36],"timestamp_mouse":[10,32,43,64,83,104,124,145,164,183,204,224,244,264,285,304,325,343,365,384,403,424,445,464,484,504,524,544,565,583,604,624,644,665,685,704,725,744,763,784,804,824,843,865,884,904,924,944,964,984,1004,1024,1045,1064,1084,1104,1124,1143,1163,1184,1204,1224,1244,1265,1284,1304,1323,1345,1364,1383,1403,1424,1444,1464,1485,1505,1523,1543,1564,1584,1605,1624,1644,1665,1684,1704,1723,1743,1765,1785,1805,1823,1845,1864,1884,1903,1923,1945,1964,1984,2003,2024,2043,2064,2084,2104,2125,2143,2164,2185,2205,2224,2243,2265,2284,2303,2323,2343,2365,2384,2405,2424,2443,2463,2484,2504,2524,2543,2564,2584,2603,2624,2645,2663,2684,2703,2724,2744,2764,2784,2804,2823,2844,2863,2884,2904,2924,2943,2964,2984,3003,3023,3044,3064,3084,3103,3123,3144,3164,3183],"xSR":741.5,"ySR":501.8,"xT1":424.9,"yT1":0,"xT2":1058.1,"yT2":0,"toosoon":0,"cond_shown":"randomdotsizeEA","ratio_trial":500,"smaller_num":"9","larger_num":"18","correct_side":2,"subjID":"JuanPabloRoncancio33","gender":"0","age":"12","school":"6"},{"start_time":1551900880161,"click_time":1551900894702,"finger_time":1551900881343,"fix_duration":1196.1513210557862,"trial":41,"RT":1182,"MT":13359,"sideResp":1,"stimulus":"img/250/equaldotsize/L/14_Ratio_250_L_12_R_3.png","xmouse":[790,790,790,790,790,790,790,790,790,790,790,790,790,790,790,790,790,790,790,790,790,790,790,790,790,790,790,790,790,790,790,790,790,790,790,790,790,790,790,790,790,790,790,790,790,790,790,790,790,790,790,790,790,790,790,788,785,777,768,752,744,729,722,716,699,692,685,681,680,680,680,680,680,680,680,680,680,680,680,680,680,680,680,680,680,680,680,680,680,680,680,680,680,680,680,680,680,680,680,680,680,680,680,680,680,680,680,680,680,680,680,680,680,680,680,680,680,680,680,680,680,680,680,680,680,680,680,680,680,680,680,680,680,680,680,680,680,680,680,680,680,680,680,680,680,680,680,680,680,680,680,680,680,680,680,680,680,680,680,680,680,680,680,680,680,680,680,680,680,680,680,680,680,680,677,676,673,671,668,663,658,653,643,635,619,614,612,610,610,601,595,593,593,593,593,593,594,605,620,656,693,719,748,780,821,901,953,996,1040,1097,1126,1133,1134,1134,1134,1134,1131,1128,1120,1096,1079,1054,1037,1029,1028,1028,1028,1028,1028,1028,1028,1028,1028,1028,1028,1028,1028,1028,1028,1028,1028,1028,1028,1028,1028,1028,1028,1028,1028,1028,1028,1028,1028,1028,1028,1028,1028,1028,1028,1028,1028,1028,1028,1028,1028,1028,1028,1028,1028,1028,1028,1028,1028,1028,1028,1028,1028,1028,1028,1028,1028,1028,1028,1028,1028,1028,1028,1028,1028,1028,1028,1028,1028,1028,1028,1028,1028,1028,1028,1028,1028,1028,1028,1028,1028,1028,1028,1028,1028,1028,1028,1028,1028,1028,1028,1028,1028,1028,1028,1028,1028,1028,1028,1028,1028,1028,1028,1028,1028,1028,1028,1028,1028,1028,1028,1028,1028,1028,1028,1028,1028,1028,1028,1028,1028,1028,1028,1028,1028,1028,1028,1028,1028,1028,1028,1028,1028,1028,1028,1028,1028,1028,1028,1028,1028,1028,1028,1028,1028,1028,1028,1028,1028,1028,1028,1028,1028,1028,1028,1028,1028,1028,1028,1028,1028,1028,1028,1028,1028,1028,1028,1028,1028,1028,1028,1028,1028,1028,1028,1028,1028,1028,1028,1028,1028,1028,1028,1028,1028,1028,1028,1028,1028,1028,1028,1028,1028,1028,1028,1028,1028,1028,1028,1028,1028,1028,1028,1028,1028,1028,1028,1028,1028,1028,1028,1028,1028,1028,1028,1028,1028,1028,1028,1028,1028,1028,1028,1028,1028,1028,1028,1028,1028,1028,1028,1028,1028,1028,1028,1028,1028,1028,1028,1028,1028,1028,1028,1028,1028,1028,1028,1028,1028,1028,1028,1028,1028,1028,1028,1028,1028,1028,1028,1028,1028,1028,1028,1028,1028,1028,1028,1028,1028,1028,1028,1028,1028,1028,1028,1028,1028,1028,1028,1028,1028,1028,1028,1028,1028,1028,1028,1028,1028,1028,1028,1028,1028,1028,1028,1028,1028,1028,1028,1028,1028,1028,1028,1028,1028,1028,1028,1028,1028,1028,1028,1028,1028,1028,1028,1028,1028,1028,1028,1028,1028,1028,1028,1028,1028,1028,1028,1028,1028,1028,1028,1028,1028,1028,1028,1028,1028,1028,1028,1028,1028,1028,1028,1028,1028,1028,1028,1028,1028,1028,1028,1028,1028,1028,1028,1028,1028,1028,1028,1028,1028,1028,1028,1028,1028,1028,1028,1028,1028,1028,1028,1028,1028,1028,1028,1028,1028,1028,1028,1028,1028,1028,1037,1052,1076,1240,1331,1411,1498,1522,1528,1528,1528,1528,1528,1528,1528,1528,1528,1528,1528,1528,1528,1528,1530,1535,1543,1543,1543,1539,1534,1534,1534,1534,1534,1534,1534,1534,1534,1534,1534,1534,1534,1534,1534,1461,1461,1461,1458,1454,1447,1445,1444,1443,1441,1440,1440,1440,1440,1440,1440,1440,1440,1440,1440,1440,1440,1440,1440,1440,1440,1440,1440,1440,1440,1440,1440,1440,1440,1440,1440,1440,1440,1440,1439,1436,1424,1401,1347,1189,1189,1189,1189,1189,1189,1189,1189,1189,1189,1189,1189,1189,1189,1189,1189,1189,1189,70,164,320,793,1112,1419,1419,1419,1419,1419,1419,1419,1536,1275,1055,777,455],"ymouse":[557,557,557,557,557,557,557,557,557,557,557,557,557,557,557,557,557,557,557,557,557,557,557,557,557,557,557,557,557,557,557,557,557,557,557,557,557,557,557,557,557,557,557,557,557,557,557,557,557,557,557,557,557,557,557,554,542,524,503,456,432,397,377,361,333,323,316,312,311,311,311,311,311,311,311,311,311,311,311,311,311,311,311,311,311,311,311,311,311,311,311,311,311,311,311,311,311,311,311,311,311,311,311,311,311,311,311,311,311,311,311,311,311,311,311,311,311,311,311,311,311,311,311,311,311,311,311,311,311,311,311,311,311,311,311,311,311,311,311,311,311,311,311,311,311,311,311,311,311,311,311,311,311,311,311,311,311,311,311,311,311,311,311,311,311,311,311,311,311,311,311,311,311,311,314,315,317,318,319,322,325,326,328,330,330,330,330,330,330,330,330,331,331,331,331,331,334,345,356,388,406,411,411,411,411,411,411,411,411,408,401,399,399,399,399,399,400,403,408,450,482,520,543,555,556,556,556,556,556,556,556,556,556,556,556,556,556,556,556,556,556,556,556,556,556,556,556,556,556,556,556,556,556,556,556,556,556,556,556,556,556,556,556,556,556,556,556,556,556,556,556,556,556,556,556,556,556,556,556,556,556,556,556,556,556,556,556,556,556,556,556,556,556,556,556,556,556,556,556,556,556,556,556,556,556,556,556,556,556,556,556,556,556,556,556,556,556,556,556,556,556,556,556,556,556,556,556,556,556,556,556,556,556,556,556,556,556,556,556,556,556,556,556,556,556,556,556,556,556,556,556,556,556,556,556,556,556,556,556,556,556,556,556,556,556,556,556,556,556,556,556,556,556,556,556,556,556,556,556,556,556,556,556,556,556,556,556,556,556,556,556,556,556,556,556,556,556,556,556,556,556,556,556,556,556,556,556,556,556,556,556,556,556,556,556,556,556,556,556,556,556,556,556,556,556,556,556,556,556,556,556,556,556,556,556,556,556,556,556,556,556,556,556,556,556,556,556,556,556,556,556,556,556,556,556,556,556,556,556,556,556,556,556,556,556,556,556,556,556,556,556,556,556,556,556,556,556,556,556,556,556,556,556,556,556,556,556,556,556,556,556,556,556,556,556,556,556,556,556,556,556,556,556,556,556,556,556,556,556,556,556,556,556,556,556,556,556,556,556,556,556,556,556,556,556,556,556,556,556,556,556,556,556,556,556,556,556,556,556,556,556,556,556,556,556,556,556,556,556,556,556,556,556,556,556,556,556,556,556,556,556,556,556,556,556,556,556,556,556,556,556,556,556,556,556,556,556,556,556,556,556,556,556,556,556,556,556,556,556,556,556,556,556,556,556,556,556,556,556,556,556,556,556,556,556,556,551,540,521,435,396,368,358,357,357,357,357,357,357,357,357,357,357,357,357,357,357,357,355,311,240,187,154,110,24,24,24,24,24,24,24,24,24,24,24,24,24,24,24,9,13,16,22,26,31,31,31,32,33,33,33,33,33,33,33,33,33,33,33,33,33,33,33,33,33,33,33,33,33,33,33,33,33,33,33,33,33,33,33,36,41,43,43,18,18,18,18,18,18,18,18,18,18,18,18,18,18,18,18,18,18,8,33,70,155,212,262,262,262,262,262,262,262,280,213,163,116,61],"timestamp_mouse":[8,30,42,62,82,103,123,142,162,183,203,222,241,263,282,301,322,342,363,381,402,421,442,462,482,501,523,541,563,583,601,623,641,663,681,702,723,741,761,783,802,821,842,862,882,901,922,943,961,982,1001,1021,1043,1061,1082,1102,1122,1142,1161,1182,1202,1222,1242,1262,1282,1301,1322,1342,1361,1382,1402,1422,1442,1463,1482,1503,1521,1542,1563,1582,1601,1622,1642,1663,1682,1701,1722,1742,1761,1782,1802,1823,1842,1862,1882,1901,1923,1942,1961,1982,2002,2022,2041,2063,2082,2103,2122,2142,2161,2182,2202,2222,2242,2261,2282,2302,2322,2343,2362,2382,2401,2423,2443,2462,2483,2502,2523,2542,2561,2583,2602,2623,2641,2662,2681,2702,2722,2741,2762,2782,2801,2821,2841,2863,2882,2902,2921,2941,2963,2982,3002,3021,3041,3063,3083,3102,3122,3141,3161,3183,3202,3223,3241,3263,3282,3302,3321,3343,3363,3382,3401,3421,3442,3462,3482,3502,3522,3542,3561,3582,3602,3621,3642,3663,3681,3701,3721,3742,3763,3782,3801,3821,3842,3862,3881,3901,3922,3942,3961,3981,4001,4022,4042,4061,4081,4101,4123,4142,4161,4182,4201,4222,4241,4261,4282,4302,4322,4342,4363,4381,4402,4421,4442,4462,4483,4502,4521,4541,4563,4583,4602,4621,4641,4662,4682,4702,4721,4741,4762,4782,4802,4821,4841,4861,4882,4902,4921,4942,4963,4982,5002,5022,5041,5062,5082,5103,5122,5141,5162,5182,5202,5222,5242,5261,5281,5301,5323,5342,5363,5382,5401,5422,5443,5461,5482,5502,5522,5542,5562,5583,5602,5623,5641,5663,5681,5702,5721,5742,5762,5783,5803,5821,5841,5863,5882,5902,5923,5941,5963,5982,6002,6023,6042,6062,6081,6102,6123,6142,6163,6181,6201,6221,6241,6263,6282,6302,6322,6342,6362,6381,6401,6422,6442,6462,6482,6501,6521,6543,6562,6581,6601,6621,6641,6661,6683,6701,6721,6741,6762,6783,6802,6821,6841,6862,6882,6902,6922,6942,6962,6982,7003,7022,7042,7062,7082,7101,7121,7142,7162,7182,7203,7222,7241,7262,7282,7302,7323,7341,7363,7383,7403,7422,7441,7462,7483,7502,7521,7543,7563,7582,7603,7621,7641,7662,7682,7701,7722,7742,7762,7782,7802,7822,7841,7863,7882,7902,7923,7941,7962,7982,8001,8021,8041,8062,8083,8102,8123,8141,8161,8183,8203,8222,8241,8262,8282,8303,8322,8342,8363,8382,8402,8422,8441,8463,8483,8503,8522,8542,8561,8581,8602,8622,8642,8662,8681,8702,8723,8742,8762,8782,8801,8822,8842,8862,8882,8901,8922,8942,8963,8982,9001,9021,9043,9061,9081,9101,9122,9141,9162,9182,9202,9222,9243,9261,9282,9302,9322,9342,9362,9382,9403,9421,9441,9462,9483,9503,9523,9541,9561,9582,9603,9622,9641,9661,9682,9702,9722,9741,9762,9782,9802,9821,9843,9861,9882,9903,9922,9942,9961,9983,10003,10022,10043,10062,10082,10102,10122,10143,10163,10182,10202,10222,10242,10261,10282,10301,10323,10342,10362,10382,10401,10422,10441,10461,10482,10502,10522,10542,10561,10582,10602,10622,10642,10661,10682,10702,10721,10741,10762,10782,10802,10821,10842,10863,10882,10902,10921,10942,10962,10982,11001,11022,11042,11062,11082,11102,11123,11142,11163,11182,11202,11221,11242,11262,11283,11303,11322,11341,11361,11382,11403,11422,11441,11462,11482,11501,11522,11541,11562,11583,11601,11621,11642,11662,11683,11703,11722,11741,11763,11783,11803,11821,11842,11861,11883,11903,11922,11941,11963,11982,12001,12021,12042,12061,12082,12101,12122,12142,12162,12182,12203,12223,12242,12262,12281,12302,12323,12342,12363,12382,12401,12421,12442,12461,12482,12502,12521,12542,12563,12581,12603,12622,12642,12661,12681,12701,12721,12742,12763,12782,12802,12823,12842,12862,12882,12902,12923,12942,12961,12982,13001,13023,13042,13061,13081,13102,13121,13141,13161,13182,13203,13222,13242,13262,13282,13302,13321,13341,13362,13381,13402,13423,13442,13462,13482,13502,13522,13541,13561,13582,13602,13623,13642,13662,13682,13702,13721,13741,13762,13782,13801,13821,13841,13862,13882,13903,13923,13942,13962,13982,14003,14021,14043,14062,14081,14102,14121,14141,14161,14182,14201,14221,14242,14263,14281,14301,14321,14341,14362,14382,14402,14421,14443,14461,14481,14501,14521,14541],"xSR":741.5,"ySR":501.8,"xT1":424.9,"yT1":0,"xT2":1058.1,"yT2":0,"toosoon":0,"cond_shown":"equaldotsize","ratio_trial":250,"smaller_num":"3","larger_num":"12","correct_side":1,"subjID":"JuanPabloRoncancio33","gender":"0","age":"12","school":"6"},{"start_time":1551900898394,"click_time":1551900899743,"finger_time":1551900899103,"fix_duration":250,"trial":42,"RT":709,"MT":640,"sideResp":1,"stimulus":"img/900/equaldotsize/R/11_Ratio_900_L_18_R_20.png","xmouse":[811,811,811,811,811,811,811,811,811,811,811,811,811,811,811,811,811,811,811,811,811,811,811,811,811,811,811,811,811,811,811,811,810,814,824,831,839,851,855,857,857,855,833,811,756,672,574,404,352,302,284,273,269,269,269,269,269,269,269,269,269,269,269,269,269,269,269,446],"ymouse":[563,563,563,563,563,563,563,563,563,563,563,563,563,563,563,563,563,563,563,563,563,563,563,563,563,563,563,563,563,563,563,563,563,549,526,501,475,430,411,389,377,368,347,339,330,321,306,272,246,199,167,133,71,38,13,2,2,2,2,2,2,2,2,2,2,2,2,5],"timestamp_mouse":[11,33,49,69,89,109,130,149,170,189,209,230,250,269,288,308,329,348,370,388,409,428,448,469,489,509,529,549,569,589,609,628,649,669,689,709,729,748,769,789,808,828,850,869,888,910,929,949,969,988,1008,1028,1048,1069,1089,1108,1129,1148,1169,1189,1210,1230,1249,1269,1290,1310,1330,1349],"xSR":741.5,"ySR":501.8,"xT1":424.9,"yT1":0,"xT2":1058.1,"yT2":0,"toosoon":0,"cond_shown":"equaldotsize","ratio_trial":900,"smaller_num":"18","larger_num":"20","correct_side":2,"subjID":"JuanPabloRoncancio33","gender":"0","age":"12","school":"6"},{"start_time":1551900901335,"click_time":1551900902383,"finger_time":1551900901943,"fix_duration":250,"trial":43,"RT":608,"MT":440,"sideResp":2,"stimulus":"img/900/equaldotanddens/R/14_Ratio_900_L_18_R_20.png","xmouse":[796,796,796,795,795,795,795,795,795,795,795,795,795,795,795,795,795,795,795,795,795,795,795,795,795,795,795,797,807,820,868,899,949,974,998,1030,1041,1048,1054,1059,1068,1076,1079,1082,1085,1089,1091,1091,1093,1096,1101,1104,1106],"ymouse":[571,571,571,571,571,571,571,571,571,571,571,571,571,571,571,571,571,571,571,571,571,571,571,571,571,571,571,569,558,539,483,448,397,367,340,297,281,270,257,245,224,211,205,195,186,170,161,152,143,134,114,104,90],"timestamp_mouse":[9,38,48,67,88,109,127,149,167,187,208,229,248,269,289,308,327,348,367,388,408,429,447,469,489,509,528,548,569,589,608,627,647,667,689,708,728,748,767,788,807,827,847,868,887,908,927,947,969,988,1008,1027,1048],"xSR":741.5,"ySR":501.8,"xT1":424.9,"yT1":0,"xT2":1058.1,"yT2":0,"toosoon":0,"cond_shown":"equaldotanddens","ratio_trial":900,"smaller_num":"18","larger_num":"20","correct_side":2,"subjID":"JuanPabloRoncancio33","gender":"0","age":"12","school":"6"},{"start_time":1551900906090,"click_time":1551900907182,"finger_time":1551900906842,"fix_duration":1284.5389600417532,"trial":44,"RT":752,"MT":340,"sideResp":2,"stimulus":"img/250/equaldotanddens/R/4_Ratio_250_L_3_R_12.png","xmouse":[779,779,779,779,779,779,779,779,779,779,779,779,779,779,779,779,779,779,779,779,779,779,779,779,779,779,779,779,779,779,779,779,778,780,790,802,812,841,856,871,891,910,925,949,951,952,952,952,954,958,963,969,1001,1049,1137],"ymouse":[598,600,600,600,600,600,600,600,600,600,600,600,600,600,600,600,600,600,600,600,600,600,600,600,600,600,600,600,600,600,600,600,600,592,569,544,508,412,356,304,255,205,170,113,102,97,96,96,96,96,97,98,98,98,87],"timestamp_mouse":[13,34,53,72,93,113,133,154,173,193,213,232,252,273,293,312,332,354,372,393,414,434,453,472,493,512,533,552,572,592,614,633,653,673,693,712,734,752,773,793,813,832,852,873,893,913,933,954,972,994,1013,1034,1052,1072,1092],"xSR":741.5,"ySR":501.8,"xT1":424.9,"yT1":0,"xT2":1058.1,"yT2":0,"toosoon":0,"cond_shown":"equaldotanddens","ratio_trial":250,"smaller_num":"3","larger_num":"12","correct_side":2,"subjID":"JuanPabloRoncancio33","gender":"0","age":"12","school":"6"},{"start_time":1551900909506,"click_time":1551900915983,"finger_time":1551900914642,"fix_duration":1302.9921650908848,"trial":45,"RT":5136,"MT":1341,"sideResp":2,"stimulus":"img/250/randomdotsizeEA/L/2_Ratio_250_L_16_R_4.png","xmouse":[824,824,824,824,824,824,824,824,824,824,824,824,824,824,824,824,824,824,824,824,824,824,824,824,824,824,824,824,824,824,824,824,824,824,824,824,824,824,824,824,824,824,824,824,824,824,824,824,824,824,824,824,824,824,824,824,824,824,824,824,824,824,824,824,824,824,824,824,824,824,824,824,824,824,824,824,824,824,824,824,824,824,824,824,824,824,824,824,824,824,824,824,824,824,824,824,824,824,824,824,824,824,824,824,824,824,824,824,824,824,824,824,824,824,824,824,824,824,824,824,824,824,824,824,824,824,824,824,824,824,824,824,824,824,824,824,824,824,824,824,824,824,824,824,824,824,824,824,824,824,824,824,824,824,824,824,824,824,824,824,824,824,824,824,824,824,824,824,824,824,824,824,824,824,824,824,824,824,824,824,824,824,824,824,824,824,824,824,824,824,824,824,824,824,824,824,823,819,818,816,815,813,812,812,812,812,812,812,812,812,812,812,812,812,812,812,812,812,810,806,802,794,793,793,793,793,793,793,793,793,794,795,795,795,795,795,795,795,795,795,795,795,795,795,795,795,795,795,795,795,795,795,795,798,804,808,813,813,813,813,813,813,813,809,808,807,805,805,804,804,804,804,804,804,804,804,804,804,804,804,804,804,804,804,804,804,803,801,801,800,800,799,799,799,799,799,799,799,799,799,799,799,801,811,825,845,888,908,929,949,967,1004,1025,1033,1041,1050,1080,1094,1107,1117,1128,1138,1140,1140],"ymouse":[579,579,579,579,579,579,579,579,579,579,579,579,579,579,579,579,579,579,579,579,579,579,579,579,579,579,579,579,579,579,579,579,579,579,579,579,579,579,579,579,579,579,579,579,579,579,579,579,579,579,579,579,579,579,579,579,579,579,579,579,579,579,579,579,579,579,579,579,579,579,579,579,579,579,579,579,579,579,579,579,579,579,579,579,579,579,579,579,579,579,579,579,579,579,579,579,579,579,579,579,579,579,579,579,579,579,579,579,579,579,579,579,579,579,579,579,579,579,579,579,579,579,579,579,579,579,579,579,579,579,579,579,579,579,579,579,579,579,579,579,579,579,579,579,579,579,579,579,579,579,579,579,579,579,579,579,579,579,579,579,579,579,579,579,579,579,579,579,579,579,579,579,579,579,579,579,579,579,579,579,579,579,579,579,579,579,579,579,579,579,579,579,579,579,579,579,579,581,581,585,587,592,594,594,594,594,594,594,594,594,594,594,594,594,594,594,594,594,592,581,566,535,524,520,519,519,519,519,5