[{"start_time":1551899767252,"click_time":1551899775582,"finger_time":1551899767260,"fix_duration":647.8144771878522,"trial":0,"RT":8,"MT":8322,"sideResp":2,"stimulus":[],"xmouse":[794,794,794,794,794,794,794,794,794,794,794,794,794,794,794,794,794,794,794,794,794,794,794,794,794,794,794,795,796,797,798,799,800,801,802,803,803,803,803,803,803,802,798,796,795,795,795,795,795,795,795,795,795,795,795,795,795,795,795,795,795,795,795,795,795,795,795,795,795,795,795,795,795,795,795,795,795,795,795,795,795,795,795,795,795,795,795,795,795,795,795,795,795,795,795,795,795,795,795,795,795,795,795,795,795,795,795,795,795,795,795,795,795,795,795,795,795,795,795,795,795,795,795,795,795,795,795,795,795,795,795,795,795,795,795,795,795,795,795,795,795,795,795,795,795,795,795,795,795,795,795,795,795,795,795,795,795,795,795,795,795,795,795,795,795,795,795,795,795,795,795,795,795,795,795,795,795,795,795,795,795,795,795,795,795,795,795,795,795,795,795,795,795,795,795,795,795,795,795,795,795,795,795,795,795,795,795,795,795,795,795,795,795,795,795,795,795,795,795,795,795,795,795,795,795,795,795,795,795,795,795,795,795,795,795,795,795,795,795,795,795,795,795,795,795,795,795,795,795,795,795,795,795,795,795,795,795,795,795,795,795,795,795,795,795,795,795,795,795,795,795,795,795,795,795,795,795,795,795,795,795,795,795,795,795,795,795,795,795,795,795,795,795,795,795,795,795,795,795,795,795,795,795,795,795,795,795,795,795,795,795,795,795,795,795,795,795,795,795,795,795,795,795,795,795,795,795,795,795,795,795,795,795,795,795,795,795,795,795,795,795,795,795,795,795,795,795,795,795,795,795,795,795,795,795,795,795,795,795,795,795,795,795,795,795,795,795,795,795,804,826,1031,1227,1460,1460,1460,1460,1460,1460,1460,1460,1460,1460,1460,1460,1563,1308,1232,1010,893,825,825,825,825,825,825,825,825,826,833,851,922,969,1010,1038,1050,1053,1053,1053,1053,1053,1053,1053,1053,1053,1053,1061],"ymouse":[523,523,523,523,523,523,523,523,523,523,523,523,523,523,523,523,523,523,523,523,523,523,523,523,523,523,523,523,526,532,536,544,548,551,553,557,558,561,564,567,572,582,594,606,611,613,613,613,613,613,613,613,613,613,613,613,613,613,613,613,613,613,613,613,613,613,613,613,613,613,613,613,613,613,613,613,613,613,613,613,613,613,613,613,613,613,613,613,613,613,613,613,613,613,613,613,613,613,613,613,613,613,613,613,613,613,613,613,613,613,613,613,613,613,613,613,613,613,613,613,613,613,613,613,613,613,613,613,613,613,613,613,613,613,613,613,613,613,613,613,613,613,613,613,613,613,613,613,613,613,613,613,613,613,613,613,613,613,613,613,613,613,613,613,613,613,613,613,613,613,613,613,613,613,613,613,613,613,613,613,613,613,613,613,613,613,613,613,613,613,613,613,613,613,613,613,613,613,613,613,613,613,613,613,613,613,613,613,613,613,613,613,613,613,613,613,613,613,613,613,613,613,613,613,613,613,613,613,613,613,613,613,613,613,613,613,613,613,613,613,613,613,613,613,613,613,613,613,613,613,613,613,613,613,613,613,613,613,613,613,613,613,613,613,613,613,613,613,613,613,613,613,613,613,613,613,613,613,613,613,613,613,613,613,613,613,613,613,613,613,613,613,613,613,613,613,613,613,613,613,613,613,613,613,613,613,613,613,613,613,613,613,613,613,613,613,613,613,613,613,613,613,613,613,613,613,613,613,613,613,613,613,613,613,613,613,613,613,613,613,613,613,613,613,613,613,613,613,613,613,613,613,613,613,613,613,613,613,613,613,613,613,613,613,613,613,613,613,610,590,557,412,340,249,249,249,249,249,249,249,249,249,249,249,249,12,52,58,57,57,57,57,57,57,57,57,57,57,51,50,48,38,31,25,22,20,19,19,19,19,19,19,19,19,19,19,19],"timestamp_mouse":[8,28,48,69,89,109,129,148,169,188,208,229,249,269,288,309,328,348,368,388,409,428,449,468,488,509,528,549,570,589,609,628,650,668,689,709,728,748,768,789,808,830,848,869,889,910,928,948,968,989,1009,1029,1049,1070,1088,1108,1129,1149,1169,1188,1209,1228,1249,1269,1289,1308,1328,1348,1368,1389,1408,1429,1449,1469,1489,1509,1528,1550,1569,1588,1609,1630,1648,1668,1688,1708,1729,1748,1769,1788,1809,1830,1848,1869,1889,1910,1929,1949,1968,1988,2008,2029,2049,2070,2089,2108,2129,2150,2169,2188,2208,2228,2249,2269,2289,2308,2329,2349,2368,2388,2408,2429,2448,2468,2488,2510,2529,2550,2570,2588,2609,2628,2648,2668,2688,2708,2730,2749,2768,2788,2809,2828,2848,2869,2889,2910,2928,2950,2968,2988,3008,3030,3048,3068,3089,3108,3128,3148,3169,3188,3208,3228,3248,3268,3288,3308,3329,3348,3369,3388,3408,3429,3449,3468,3489,3508,3529,3548,3569,3588,3609,3628,3649,3668,3690,3708,3729,3749,3768,3788,3808,3828,3848,3869,3890,3908,3928,3948,3969,3990,4009,4029,4050,4070,4088,4108,4129,4148,4168,4189,4210,4228,4249,4269,4289,4308,4328,4350,4369,4389,4408,4429,4449,4469,4488,4508,4529,4549,4570,4588,4609,4630,4650,4669,4690,4709,4728,4748,4768,4788,4808,4829,4848,4868,4888,4909,4929,4950,4969,4989,5009,5029,5048,5068,5088,5109,5128,5148,5168,5188,5209,5228,5248,5268,5288,5309,5329,5348,5368,5389,5408,5429,5448,5468,5489,5509,5528,5548,5569,5589,5609,5628,5650,5669,5689,5709,5729,5749,5768,5790,5808,5829,5848,5868,5888,5908,5928,5950,5968,5989,6009,6028,6048,6068,6090,6109,6129,6148,6168,6188,6209,6228,6248,6268,6290,6308,6328,6348,6369,6389,6409,6429,6448,6468,6489,6508,6528,6550,6569,6589,6608,6628,6649,6668,6690,6708,6728,6748,6768,6789,6808,6828,6848,6869,6888,6908,6928,6950,6969,6990,7008,7028,7048,7068,7088,7108,7129,7148,7169,7188,7210,7229,7249,7268,7288,7308,7328,7348,7368,7390,7408,7428,7449,7469,7488,7511,7528,7549,7568,7589,7609,7628,7649,7668,7689,7708,7729,7748,7768,7788,7809,7830,7848,7869,7890,7909,7929,7948,7968,7988,8008,8029,8049,8068,8089,8109,8129,8149,8169,8188,8209,8228,8248,8269,8288,8308,8329],"xSR":741.5,"ySR":469.95,"xT1":424.9,"yT1":0,"xT2":1058.1,"yT2":0,"toosoon":0,"cond_shown":"Congruent","ratio_trial":200,"L_num":13,"L_den":26,"R_num":14,"R_den":20,"correct_side":2,"subjID":"JuanPabloRoncancioVasquez33","gender":"0","age":"12","school":"6","test":{"fix_dur":[250,1500],"timestim":1000,"targets_dim":[100,100],"targets_relative_coord":[0.3,0.7],"size_stim":[880,420],"start_dim":[100,100],"size_start":[300,300],"size_fix":60,"samplingrate":20,"img_types":["Congruent","Incongruent"],"ratios":[100,200,300],"rep_conds":19,"nTrials":120,"trials_to_rest":500,"Trials_order":[104,25,114,107,56,60,18,11,50,87,99,61,102,32,21,113,46,27,117,15,73,103,31,44,71,119,1,98,84,26,95,67,3,42,30,110,69,101,45,79,41,100,38,111,47,97,33,17,112,96,105,53,43,75,14,108,16,40,2,6,81,58,23,20,89,82,35,68,49,83,91,76,90,109,55,48,0,78,10,86,51,92,8,24,106,80,118,72,85,37,77,19,66,52,13,116,94,9,39,4,62,65,5,36,93,59,88,54,12,74,64,115,34,29,22,63,57,7,70,28],"cond_shown":["Congruent","Incongruent","Congruent","Incongruent","Congruent","Congruent","Congruent","Incongruent","Congruent","Incongruent","Incongruent","Incongruent","Congruent","Congruent","Incongruent","Incongruent","Congruent","Incongruent","Incongruent","Incongruent","Incongruent","Incongruent","Incongruent","Congruent","Incongruent","Incongruent","Incongruent","Congruent","Congruent","Congruent","Incongruent","Incongruent","Incongruent","Congruent","Congruent","Congruent","Incongruent","Incongruent","Incongruent","Incongruent","Incongruent","Congruent","Congruent","Incongruent","Incongruent","Incongruent","Incongruent","Incongruent","Congruent","Congruent","Incongruent","Incongruent","Incongruent","Incongruent","Congruent","Congruent","Congruent","Congruent","Congruent","Congruent","Incongruent","Congruent","Incongruent","Congruent","Incongruent","Congruent","Incongruent","Congruent","Incongruent","Incongruent","Incongruent","Congruent","Congruent","Incongruent","Incongruent","Congruent","Congruent","Congruent","Congruent","Congruent","Incongruent","Congruent","Congruent","Congruent","Congruent","Congruent","Congruent","Congruent","Incongruent","Incongruent","Incongruent","Incongruent","Congruent","Congruent","Incongruent","Congruent","Congruent","Incongruent","Incongruent","Congruent","Congruent","Incongruent","Incongruent","Congruent","Incongruent","Incongruent","Congruent","Congruent","Congruent","Congruent","Congruent","Incongruent","Congruent","Incongruent","Congruent","Incongruent","Incongruent","Incongruent","Congruent","Congruent"],"ratio_trial":[200,100,100,300,200,100,100,300,200,200,200,100,100,200,200,300,300,200,200,200,100,100,100,200,300,300,100,200,100,200,300,100,200,100,100,200,200,300,200,100,300,300,200,200,300,100,200,300,300,100,200,300,100,200,200,100,300,300,200,100,200,300,300,200,300,300,300,200,100,300,100,300,100,100,100,100,100,100,300,200,200,200,200,100,300,200,300,100,100,100,300,100,100,300,100,200,300,200,200,300,200,300,300,100,200,300,300,100,100,200,300,100,300,300,300,200,200,100,300,300],"left_num":[13,1,7,8,7,4,11,13,4,1,7,13,7,1,6,13,5,7,1,4,9,6,2,14,13,13,12,3,1,3,13,8,3,9,6,9,7,1,1,17,4,5,6,7,3,17,3,1,11,3,9,1,17,7,3,2,20,4,3,9,4,1,8,16,4,2,1,4,3,13,4,3,15,6,3,15,2,11,3,6,14,8,6,7,1,20,5,6,3,12,4,2,15,2,1,5,1,7,7,2,8,3,13,1,1,4,1,6,6,3,5,6,7,1,5,11,1,9,3,20],"right_num":[14,8,15,14,2,6,4,12,3,2,12,6,15,21,3,12,7,6,3,14,6,13,8,6,12,12,2,9,18,7,12,6,1,8,5,13,12,2,2,10,6,7,3,12,4,10,11,3,1,4,8,3,10,14,9,11,13,1,11,8,6,6,9,9,2,12,3,3,11,12,8,11,13,3,7,13,11,6,11,11,6,3,7,15,8,9,7,15,4,2,8,8,13,10,8,14,7,14,14,10,2,4,12,3,3,2,7,15,5,9,6,7,20,3,7,3,2,6,11,8],"left_den":[26,2,14,10,21,8,22,26,10,3,10,26,14,2,20,26,25,15,2,6,18,10,4,28,26,26,30,12,2,10,26,16,10,15,20,30,10,2,3,30,5,25,15,10,6,30,4,2,22,20,15,2,30,10,12,5,25,10,10,15,5,5,10,30,20,10,2,8,5,26,8,12,25,12,9,25,5,22,12,20,30,15,12,14,30,25,25,12,6,30,5,4,25,20,2,10,20,10,10,20,15,6,26,2,2,20,20,12,20,12,25,10,14,2,25,20,3,18,12,25],"right_den":[20,20,25,28,15,10,10,15,15,15,24,10,25,30,6,15,14,9,10,30,10,26,20,20,15,15,4,20,30,14,15,10,2,16,25,26,24,10,15,15,12,14,15,24,20,15,20,15,5,16,10,15,15,28,20,22,26,10,22,16,10,12,18,27,4,24,15,10,22,15,20,20,26,5,30,26,22,15,20,22,9,9,10,25,24,15,14,25,10,4,16,20,26,25,20,20,20,28,28,25,6,20,15,5,10,4,20,25,25,20,12,14,25,15,14,4,15,10,20,16],"correct_side":[2,1,2,1,1,2,1,2,1,1,1,2,2,2,2,2,2,2,1,1,2,1,1,1,2,2,2,2,2,2,2,2,2,1,1,2,1,1,1,2,1,2,1,1,1,2,1,1,1,2,2,1,2,1,2,2,1,1,2,1,1,2,1,1,2,2,1,1,1,2,1,2,1,2,1,1,2,1,2,2,2,1,2,2,2,1,2,2,1,2,1,1,1,2,1,2,2,1,1,2,1,1,2,2,1,2,2,2,1,2,2,1,2,1,2,2,1,2,2,1],"img_shown":["img2/200/Congruent/R/C_Dist_200_LN_13_LD_26_RN_14_RD_20_1.png","img2/100/Incongruent/L/I_Dist_100_LN_1_LD_2_RN_8_RD_20_0.png","img2/100/Congruent/R/C_Dist_100_LN_7_LD_14_RN_15_RD_25_1.png","img2/300/Incongruent/L/I_Dist_300_LN_8_LD_10_RN_14_RD_28_0.png","img2/200/Congruent/L/C_Dist_200_LN_7_LD_21_RN_2_RD_15_0.png","img2/100/Congruent/R/C_Dist_100_LN_4_LD_8_RN_6_RD_10_1.png","img2/100/Congruent/L/C_Dist_100_LN_11_LD_22_RN_4_RD_10_0.png","img2/300/Incongruent/R/I_Dist_300_LN_13_LD_26_RN_12_RD_15_1.png","img2/200/Congruent/L/C_Dist_200_LN_4_LD_10_RN_3_RD_15_0.png","img2/200/Incongruent/L/I_Dist_200_LN_1_LD_3_RN_2_RD_15_0.png","img2/200/Incongruent/L/I_Dist_200_LN_7_LD_10_RN_12_RD_24_0.png","img2/100/Incongruent/R/I_Dist_100_LN_13_LD_26_RN_6_RD_10_1.png","img2/100/Congruent/R/C_Dist_100_LN_7_LD_14_RN_15_RD_25_1.png","img2/200/Congruent/R/C_Dist_200_LN_1_LD_2_RN_21_RD_30_1.png","img2/200/Incongruent/R/I_Dist_200_LN_6_LD_20_RN_3_RD_6_1.png","img2/300/Incongruent/R/I_Dist_300_LN_13_LD_26_RN_12_RD_15_1.png","img2/300/Congruent/R/C_Dist_300_LN_5_LD_25_RN_7_RD_14_1.png","img2/200/Incongruent/R/I_Dist_200_LN_7_LD_15_RN_6_RD_9_1.png","img2/200/Incongruent/L/I_Dist_200_LN_1_LD_2_RN_3_RD_10_0.png","img2/200/Incongruent/L/I_Dist_200_LN_4_LD_6_RN_14_RD_30_0.png","img2/100/Incongruent/R/I_Dist_100_LN_9_LD_18_RN_6_RD_10_1.png","img2/100/Incongruent/L/I_Dist_100_LN_6_LD_10_RN_13_RD_26_0.png","img2/100/Incongruent/L/I_Dist_100_LN_2_LD_4_RN_8_RD_20_0.png","img2/200/Congruent/L/C_Dist_200_LN_14_LD_28_RN_6_RD_20_0.png","img2/300/Incongruent/R/I_Dist_300_LN_13_LD_26_RN_12_RD_15_1.png","img2/300/Incongruent/R/I_Dist_300_LN_13_LD_26_RN_12_RD_15_1.png","img2/100/Incongruent/R/I_Dist_100_LN_12_LD_30_RN_2_RD_4_1.png","img2/200/Congruent/R/C_Dist_200_LN_3_LD_12_RN_9_RD_20_1.png","img2/100/Congruent/R/C_Dist_100_LN_1_LD_2_RN_18_RD_30_1.png","img2/200/Congruent/R/C_Dist_200_LN_3_LD_10_RN_7_RD_14_1.png","img2/300/Incongruent/R/I_Dist_300_LN_13_LD_26_RN_12_RD_15_1.png","img2/100/Incongruent/R/I_Dist_100_LN_8_LD_16_RN_6_RD_10_1.png","img2/200/Incongruent/R/I_Dist_200_LN_3_LD_10_RN_1_RD_2_1.png","img2/100/Congruent/L/C_Dist_100_LN_9_LD_15_RN_8_RD_16_0.png","img2/100/Congruent/L/C_Dist_100_LN_6_LD_20_RN_5_RD_25_0.png","img2/200/Congruent/R/C_Dist_200_LN_9_LD_30_RN_13_RD_26_1.png","img2/200/Incongruent/L/I_Dist_200_LN_7_LD_10_RN_12_RD_24_0.png","img2/300/Incongruent/L/I_Dist_300_LN_1_LD_2_RN_2_RD_10_0.png","img2/200/Incongruent/L/I_Dist_200_LN_1_LD_3_RN_2_RD_15_0.png","img2/100/Incongruent/R/I_Dist_100_LN_17_LD_30_RN_10_RD_15_1.png","img2/300/Incongruent/L/I_Dist_300_LN_4_LD_5_RN_6_RD_12_0.png","img2/300/Congruent/R/C_Dist_300_LN_5_LD_25_RN_7_RD_14_1.png","img2/200/Congruent/L/C_Dist_200_LN_6_LD_15_RN_3_RD_15_0.png","img2/200/Incongruent/L/I_Dist_200_LN_7_LD_10_RN_12_RD_24_0.png","img2/300/Incongruent/L/I_Dist_300_LN_3_LD_6_RN_4_RD_20_0.png","img2/100/Incongruent/R/I_Dist_100_LN_17_LD_30_RN_10_RD_15_1.png","img2/200/Incongruent/L/I_Dist_200_LN_3_LD_4_RN_11_RD_20_0.png","img2/300/Incongruent/L/I_Dist_300_LN_1_LD_2_RN_3_RD_15_0.png","img2/300/Congruent/L/C_Dist_300_LN_11_LD_22_RN_1_RD_5_0.png","img2/100/Congruent/R/C_Dist_100_LN_3_LD_20_RN_4_RD_16_1.png","img2/200/Incongruent/R/I_Dist_200_LN_9_LD_15_RN_8_RD_10_1.png","img2/300/Incongruent/L/I_Dist_300_LN_1_LD_2_RN_3_RD_15_0.png","img2/100/Incongruent/R/I_Dist_100_LN_17_LD_30_RN_10_RD_15_1.png","img2/200/Incongruent/L/I_Dist_200_LN_7_LD_10_RN_14_RD_28_0.png","img2/200/Congruent/R/C_Dist_200_LN_3_LD_12_RN_9_RD_20_1.png","img2/100/Congruent/R/C_Dist_100_LN_2_LD_5_RN_11_RD_22_1.png","img2/300/Congruent/L/C_Dist_300_LN_20_LD_25_RN_13_RD_26_0.png","img2/300/Congruent/L/C_Dist_300_LN_4_LD_10_RN_1_RD_10_0.png","img2/200/Congruent/R/C_Dist_200_LN_3_LD_10_RN_11_RD_22_1.png","img2/100/Congruent/L/C_Dist_100_LN_9_LD_15_RN_8_RD_16_0.png","img2/200/Incongruent/L/I_Dist_200_LN_4_LD_5_RN_6_RD_10_0.png","img2/300/Congruent/R/C_Dist_300_LN_1_LD_5_RN_6_RD_12_1.png","img2/300/Incongruent/L/I_Dist_300_LN_8_LD_10_RN_9_RD_18_0.png","img2/200/Congruent/L/C_Dist_200_LN_16_LD_30_RN_9_RD_27_0.png","img2/300/Incongruent/R/I_Dist_300_LN_4_LD_20_RN_2_RD_4_1.png","img2/300/Congruent/R/C_Dist_300_LN_2_LD_10_RN_12_RD_24_1.png","img2/300/Incongruent/L/I_Dist_300_LN_1_LD_2_RN_3_RD_15_0.png","img2/200/Congruent/L/C_Dist_200_LN_4_LD_8_RN_3_RD_10_0.png","img2/100/Incongruent/L/I_Dist_100_LN_3_LD_5_RN_11_RD_22_0.png","img2/300/Incongruent/R/I_Dist_300_LN_13_LD_26_RN_12_RD_15_1.png","img2/100/Incongruent/L/I_Dist_100_LN_4_LD_8_RN_8_RD_20_0.png","img2/300/Congruent/R/C_Dist_300_LN_3_LD_12_RN_11_RD_20_1.png","img2/100/Congruent/L/C_Dist_100_LN_15_LD_25_RN_13_RD_26_0.png","img2/100/Incongruent/R/I_Dist_100_LN_6_LD_12_RN_3_RD_5_1.png","img2/100/Incongruent/L/I_Dist_100_LN_3_LD_9_RN_7_RD_30_0.png","img2/100/Congruent/L/C_Dist_100_LN_15_LD_25_RN_13_RD_26_0.png","img2/100/Congruent/R/C_Dist_100_LN_2_LD_5_RN_11_RD_22_1.png","img2/100/Congruent/L/C_Dist_100_LN_11_LD_22_RN_6_RD_15_0.png","img2/300/Congruent/R/C_Dist_300_LN_3_LD_12_RN_11_RD_20_1.png","img2/200/Congruent/R/C_Dist_200_LN_6_LD_20_RN_11_RD_22_1.png","img2/200/Incongruent/R/I_Dist_200_LN_14_LD_30_RN_6_RD_9_1.png","img2/200/Congruent/L/C_Dist_200_LN_8_LD_15_RN_3_RD_9_0.png","img2/200/Congruent/R/C_Dist_200_LN_6_LD_12_RN_7_RD_10_1.png","img2/100/Congruent/R/C_Dist_100_LN_7_LD_14_RN_15_RD_25_1.png","img2/300/Congruent/R/C_Dist_300_LN_1_LD_30_RN_8_RD_24_1.png","img2/200/Congruent/L/C_Dist_200_LN_20_LD_25_RN_9_RD_15_0.png","img2/300/Congruent/R/C_Dist_300_LN_5_LD_25_RN_7_RD_14_1.png","img2/100/Congruent/R/C_Dist_100_LN_6_LD_12_RN_15_RD_25_1.png","img2/100/Incongruent/L/I_Dist_100_LN_3_LD_6_RN_4_RD_10_0.png","img2/100/Incongruent/R/I_Dist_100_LN_12_LD_30_RN_2_RD_4_1.png","img2/300/Incongruent/L/I_Dist_300_LN_4_LD_5_RN_8_RD_16_0.png","img2/100/Incongruent/L/I_Dist_100_LN_2_LD_4_RN_8_RD_20_0.png","img2/100/Congruent/L/C_Dist_100_LN_15_LD_25_RN_13_RD_26_0.png","img2/300/Congruent/R/C_Dist_300_LN_2_LD_20_RN_10_RD_25_1.png","img2/100/Incongruent/L/I_Dist_100_LN_1_LD_2_RN_8_RD_20_0.png","img2/200/Congruent/R/C_Dist_200_LN_5_LD_10_RN_14_RD_20_1.png","img2/300/Congruent/R/C_Dist_300_LN_1_LD_20_RN_7_RD_20_1.png","img2/200/Incongruent/L/I_Dist_200_LN_7_LD_10_RN_14_RD_28_0.png","img2/200/Incongruent/L/I_Dist_200_LN_7_LD_10_RN_14_RD_28_0.png","img2/300/Congruent/R/C_Dist_300_LN_2_LD_20_RN_10_RD_25_1.png","img2/200/Congruent/L/C_Dist_200_LN_8_LD_15_RN_2_RD_6_0.png","img2/300/Incongruent/L/I_Dist_300_LN_3_LD_6_RN_4_RD_20_0.png","img2/300/Incongruent/R/I_Dist_300_LN_13_LD_26_RN_12_RD_15_1.png","img2/100/Congruent/R/C_Dist_100_LN_1_LD_2_RN_3_RD_5_1.png","img2/200/Incongruent/L/I_Dist_200_LN_1_LD_2_RN_3_RD_10_0.png","img2/300/Incongruent/R/I_Dist_300_LN_4_LD_20_RN_2_RD_4_1.png","img2/300/Congruent/R/C_Dist_300_LN_1_LD_20_RN_7_RD_20_1.png","img2/100/Congruent/R/C_Dist_100_LN_6_LD_12_RN_15_RD_25_1.png","img2/100/Congruent/L/C_Dist_100_LN_6_LD_20_RN_5_RD_25_0.png","img2/200/Congruent/R/C_Dist_200_LN_3_LD_12_RN_9_RD_20_1.png","img2/300/Congruent/R/C_Dist_300_LN_5_LD_25_RN_6_RD_12_1.png","img2/100/Incongruent/L/I_Dist_100_LN_6_LD_10_RN_7_RD_14_0.png","img2/300/Congruent/R/C_Dist_300_LN_7_LD_14_RN_20_RD_25_1.png","img2/300/Incongruent/L/I_Dist_300_LN_1_LD_2_RN_3_RD_15_0.png","img2/300/Congruent/R/C_Dist_300_LN_5_LD_25_RN_7_RD_14_1.png","img2/200/Incongruent/R/I_Dist_200_LN_11_LD_20_RN_3_RD_4_1.png","img2/200/Incongruent/L/I_Dist_200_LN_1_LD_3_RN_2_RD_15_0.png","img2/100/Incongruent/R/I_Dist_100_LN_9_LD_18_RN_6_RD_10_1.png","img2/300/Congruent/R/C_Dist_300_LN_3_LD_12_RN_11_RD_20_1.png","img2/300/Congruent/L/C_Dist_300_LN_20_LD_25_RN_8_RD_16_0.png"],"dist100_C":[["C_Dist_100_LN_10_LD_25_RN_3_RD_10_0.png","C_Dist_100_LN_11_LD_22_RN_4_RD_10_0.png","C_Dist_100_LN_11_LD_22_RN_6_RD_15_0.png","C_Dist_100_LN_15_LD_25_RN_13_RD_26_0.png","C_Dist_100_LN_3_LD_6_RN_2_RD_5_0.png","C_Dist_100_LN_6_LD_20_RN_5_RD_25_0.png","C_Dist_100_LN_8_LD_16_RN_2_RD_5_0.png","C_Dist_100_LN_9_LD_15_RN_8_RD_16_0.png"],["C_Dist_100_LN_1_LD_2_RN_18_RD_30_1.png","C_Dist_100_LN_1_LD_2_RN_3_RD_5_1.png","C_Dist_100_LN_12_LD_30_RN_13_RD_26_1.png","C_Dist_100_LN_2_LD_5_RN_11_RD_22_1.png","C_Dist_100_LN_2_LD_5_RN_6_RD_12_1.png","C_Dist_100_LN_3_LD_20_RN_4_RD_16_1.png","C_Dist_100_LN_4_LD_10_RN_15_RD_30_1.png","C_Dist_100_LN_4_LD_8_RN_6_RD_10_1.png","C_Dist_100_LN_6_LD_12_RN_15_RD_25_1.png","C_Dist_100_LN_7_LD_14_RN_15_RD_25_1.png","C_Dist_100_LN_7_LD_14_RN_9_RD_15_1.png"]],"dist100_I":[["I_Dist_100_LN_1_LD_2_RN_8_RD_20_0.png","I_Dist_100_LN_2_LD_4_RN_6_RD_15_0.png","I_Dist_100_LN_2_LD_4_RN_8_RD_20_0.png","I_Dist_100_LN_3_LD_5_RN_11_RD_22_0.png","I_Dist_100_LN_3_LD_5_RN_8_RD_16_0.png","I_Dist_100_LN_3_LD_6_RN_4_RD_10_0.png","I_Dist_100_LN_3_LD_9_RN_7_RD_30_0.png","I_Dist_100_LN_4_LD_8_RN_8_RD_20_0.png","I_Dist_100_LN_6_LD_10_RN_11_RD_22_0.png","I_Dist_100_LN_6_LD_10_RN_13_RD_26_0.png","I_Dist_100_LN_6_LD_10_RN_7_RD_14_0.png","I_Dist_100_LN_9_LD_10_RN_20_RD_25_0.png","I_Dist_100_LN_9_LD_15_RN_13_RD_26_0.png","I_Dist_100_LN_9_LD_15_RN_14_RD_28_0.png"],["I_Dist_100_LN_10_LD_25_RN_8_RD_16_1.png","I_Dist_100_LN_10_LD_25_RN_9_RD_18_1.png","I_Dist_100_LN_11_LD_22_RN_9_RD_15_1.png","I_Dist_100_LN_12_LD_24_RN_9_RD_15_1.png","I_Dist_100_LN_12_LD_30_RN_2_RD_4_1.png","I_Dist_100_LN_13_LD_26_RN_12_RD_20_1.png","I_Dist_100_LN_13_LD_26_RN_6_RD_10_1.png","I_Dist_100_LN_17_LD_30_RN_10_RD_15_1.png","I_Dist_100_LN_6_LD_12_RN_3_RD_5_1.png","I_Dist_100_LN_8_LD_16_RN_6_RD_10_1.png","I_Dist_100_LN_8_LD_20_RN_1_RD_2_1.png","I_Dist_100_LN_9_LD_18_RN_6_RD_10_1.png"]],"dist100_S":[["E_Dist_100_LN_2_LD_12_RN_2_RD_30_0.png","E_Dist_100_LN_6_LD_10_RN_6_RD_12_0.png"],["E_Dist_100_LN_6_LD_12_RN_6_RD_10_1.png"]],"dist200_C":[["C_Dist_200_LN_11_LD_22_RN_3_RD_10_0.png","C_Dist_200_LN_12_LD_15_RN_6_RD_10_0.png","C_Dist_200_LN_12_LD_20_RN_6_RD_15_0.png","C_Dist_200_LN_14_LD_28_RN_6_RD_20_0.png","C_Dist_200_LN_15_LD_25_RN_4_RD_10_0.png","C_Dist_200_LN_16_LD_20_RN_12_RD_20_0.png","C_Dist_200_LN_16_LD_30_RN_9_RD_27_0.png","C_Dist_200_LN_20_LD_25_RN_9_RD_15_0.png","C_Dist_200_LN_21_LD_30_RN_2_RD_4_0.png","C_Dist_200_LN_4_LD_10_RN_3_RD_15_0.png","C_Dist_200_LN_4_LD_8_RN_3_RD_10_0.png","C_Dist_200_LN_6_LD_15_RN_3_RD_15_0.png","C_Dist_200_LN_7_LD_21_RN_2_RD_15_0.png","C_Dist_200_LN_8_LD_15_RN_2_RD_6_0.png","C_Dist_200_LN_8_LD_15_RN_3_RD_9_0.png","C_Dist_200_LN_8_LD_15_RN_7_RD_21_0.png","C_Dist_200_LN_9_LD_20_RN_4_RD_16_0.png"],["C_Dist_200_LN_1_LD_2_RN_21_RD_30_1.png","C_Dist_200_LN_13_LD_26_RN_14_RD_20_1.png","C_Dist_200_LN_3_LD_10_RN_11_RD_22_1.png","C_Dist_200_LN_3_LD_10_RN_14_RD_28_1.png","C_Dist_200_LN_3_LD_10_RN_7_RD_14_1.png","C_Dist_200_LN_3_LD_12_RN_9_RD_20_1.png","C_Dist_200_LN_3_LD_6_RN_14_RD_20_1.png","C_Dist_200_LN_5_LD_10_RN_14_RD_20_1.png","C_Dist_200_LN_6_LD_12_RN_7_RD_10_1.png","C_Dist_200_LN_6_LD_20_RN_11_RD_22_1.png","C_Dist_200_LN_7_LD_15_RN_18_RD_27_1.png","C_Dist_200_LN_9_LD_30_RN_13_RD_26_1.png"]],"dist200_I":[["I_Dist_200_LN_1_LD_2_RN_3_RD_10_0.png","I_Dist_200_LN_1_LD_3_RN_2_RD_15_0.png","I_Dist_200_LN_3_LD_4_RN_11_RD_20_0.png","I_Dist_200_LN_4_LD_5_RN_6_RD_10_0.png","I_Dist_200_LN_4_LD_6_RN_14_RD_30_0.png","I_Dist_200_LN_7_LD_10_RN_12_RD_24_0.png","I_Dist_200_LN_7_LD_10_RN_14_RD_28_0.png","I_Dist_200_LN_7_LD_10_RN_8_RD_16_0.png"],["I_Dist_200_LN_11_LD_20_RN_3_RD_4_1.png","I_Dist_200_LN_14_LD_30_RN_12_RD_18_1.png","I_Dist_200_LN_14_LD_30_RN_6_RD_9_1.png","I_Dist_200_LN_3_LD_10_RN_1_RD_2_1.png","I_Dist_200_LN_4_LD_30_RN_1_RD_3_1.png","I_Dist_200_LN_6_LD_20_RN_3_RD_6_1.png","I_Dist_200_LN_7_LD_15_RN_4_RD_6_1.png","I_Dist_200_LN_7_LD_15_RN_6_RD_9_1.png","I_Dist_200_LN_9_LD_15_RN_8_RD_10_1.png"]],"dist200_S":[["E_Dist_200_LN_3_LD_6_RN_3_RD_10_0.png"],["E_Dist_200_LN_3_LD_10_RN_3_RD_6_1.png"]],"dist300_C":[["C_Dist_300_LN_11_LD_22_RN_1_RD_5_0.png","C_Dist_300_LN_11_LD_22_RN_2_RD_10_0.png","C_Dist_300_LN_11_LD_22_RN_4_RD_20_0.png","C_Dist_300_LN_12_LD_24_RN_2_RD_10_0.png","C_Dist_300_LN_18_LD_20_RN_9_RD_15_0.png","C_Dist_300_LN_20_LD_25_RN_13_RD_26_0.png","C_Dist_300_LN_20_LD_25_RN_14_RD_28_0.png","C_Dist_300_LN_20_LD_25_RN_5_RD_10_0.png","C_Dist_300_LN_20_LD_25_RN_8_RD_16_0.png","C_Dist_300_LN_20_LD_25_RN_9_RD_18_0.png","C_Dist_300_LN_24_LD_30_RN_2_RD_4_0.png","C_Dist_300_LN_24_LD_30_RN_8_RD_16_0.png","C_Dist_300_LN_3_LD_6_RN_2_RD_10_0.png","C_Dist_300_LN_4_LD_10_RN_1_RD_10_0.png","C_Dist_300_LN_4_LD_5_RN_2_RD_4_0.png","C_Dist_300_LN_8_LD_16_RN_1_RD_5_0.png","C_Dist_300_LN_9_LD_10_RN_3_RD_5_0.png"],["C_Dist_300_LN_1_LD_20_RN_7_RD_20_1.png","C_Dist_300_LN_1_LD_3_RN_19_RD_30_1.png","C_Dist_300_LN_1_LD_30_RN_8_RD_24_1.png","C_Dist_300_LN_1_LD_5_RN_11_RD_22_1.png","C_Dist_300_LN_1_LD_5_RN_3_RD_6_1.png","C_Dist_300_LN_1_LD_5_RN_6_RD_12_1.png","C_Dist_300_LN_2_LD_10_RN_12_RD_24_1.png","C_Dist_300_LN_2_LD_20_RN_10_RD_25_1.png","C_Dist_300_LN_3_LD_12_RN_11_RD_20_1.png","C_Dist_300_LN_3_LD_6_RN_4_RD_5_1.png","C_Dist_300_LN_4_LD_20_RN_13_RD_26_1.png","C_Dist_300_LN_5_LD_25_RN_6_RD_12_1.png","C_Dist_300_LN_5_LD_25_RN_7_RD_14_1.png","C_Dist_300_LN_7_LD_14_RN_20_RD_25_1.png","C_Dist_300_LN_8_LD_15_RN_10_RD_12_1.png"]],"dist300_I":[["I_Dist_300_LN_1_LD_2_RN_2_RD_10_0.png","I_Dist_300_LN_1_LD_2_RN_3_RD_15_0.png","I_Dist_300_LN_2_LD_4_RN_6_RD_30_0.png","I_Dist_300_LN_3_LD_6_RN_4_RD_20_0.png","I_Dist_300_LN_4_LD_5_RN_6_RD_12_0.png","I_Dist_300_LN_4_LD_5_RN_8_RD_16_0.png","I_Dist_300_LN_7_LD_10_RN_8_RD_20_0.png","I_Dist_300_LN_8_LD_10_RN_14_RD_28_0.png","I_Dist_300_LN_8_LD_10_RN_9_RD_18_0.png"],["I_Dist_300_LN_13_LD_26_RN_12_RD_15_1.png","I_Dist_300_LN_4_LD_20_RN_2_RD_4_1.png"]],"dist300_S":[["E_Dist_300_LN_9_LD_12_RN_9_RD_20_0.png"],["E_Dist_300_LN_18_LD_30_RN_18_RD_20_1.png","E_Dist_300_LN_3_LD_10_RN_3_RD_5_1.png","E_Dist_300_LN_9_LD_20_RN_9_RD_12_1.png"]],"dist500_C":[["C_Dist_500_LN_10_LD_13_RN_7_RD_26_0.png","C_Dist_500_LN_10_LD_15_RN_4_RD_24_0.png","C_Dist_500_LN_12_LD_16_RN_3_RD_12_0.png","C_Dist_500_LN_12_LD_18_RN_4_RD_24_0.png","C_Dist_500_LN_15_LD_18_RN_5_RD_15_0.png","C_Dist_500_LN_15_LD_20_RN_1_RD_4_0.png","C_Dist_500_LN_18_LD_27_RN_1_RD_6_0.png","C_Dist_500_LN_20_LD_24_RN_1_RD_3_0.png","C_Dist_500_LN_20_LD_24_RN_3_RD_9_0.png","C_Dist_500_LN_20_LD_24_RN_7_RD_21_0.png","C_Dist_500_LN_20_LD_28_RN_3_RD_14_0.png","C_Dist_500_LN_21_LD_28_RN_6_RD_24_0.png","C_Dist_500_LN_22_LD_28_RN_2_RD_7_0.png","C_Dist_500_LN_25_LD_30_RN_9_RD_27_0.png","C_Dist_500_LN_4_LD_6_RN_1_RD_6_0.png","C_Dist_500_LN_5_LD_6_RN_2_RD_6_0.png","C_Dist_500_LN_6_LD_9_RN_1_RD_6_0.png","C_Dist_500_LN_7_LD_10_RN_1_RD_5_0.png","C_Dist_500_LN_8_LD_12_RN_1_RD_6_0.png","C_Dist_500_LN_8_LD_12_RN_4_RD_24_0.png"],["C_Dist_500_LN_1_LD_4_RN_12_RD_16_1.png","C_Dist_500_LN_1_LD_4_RN_9_RD_12_1.png","C_Dist_500_LN_1_LD_9_RN_11_RD_18_1.png","C_Dist_500_LN_10_LD_24_RN_22_RD_24_1.png","C_Dist_500_LN_2_LD_12_RN_10_RD_15_1.png","C_Dist_500_LN_2_LD_12_RN_12_RD_18_1.png","C_Dist_500_LN_2_LD_12_RN_4_RD_6_1.png","C_Dist_500_LN_2_LD_24_RN_7_RD_12_1.png","C_Dist_500_LN_2_LD_5_RN_18_RD_20_1.png","C_Dist_500_LN_2_LD_5_RN_9_RD_10_1.png","C_Dist_500_LN_2_LD_8_RN_12_RD_16_1.png","C_Dist_500_LN_2_LD_8_RN_21_RD_28_1.png","C_Dist_500_LN_3_LD_10_RN_4_RD_5_1.png","C_Dist_500_LN_3_LD_12_RN_15_RD_20_1.png","C_Dist_500_LN_3_LD_30_RN_6_RD_10_1.png","C_Dist_500_LN_3_LD_8_RN_14_RD_16_1.png","C_Dist_500_LN_4_LD_16_RN_15_RD_20_1.png","C_Dist_500_LN_4_LD_24_RN_12_RD_18_1.png","C_Dist_500_LN_5_LD_14_RN_6_RD_7_1.png","C_Dist_500_LN_7_LD_21_RN_20_RD_24_1.png","C_Dist_500_LN_7_LD_28_RN_12_RD_16_1.png","C_Dist_500_LN_7_LD_28_RN_9_RD_12_1.png","C_Dist_500_LN_9_LD_27_RN_20_RD_24_1.png"]],"dist500_I":[["I_Dist_500_LN_2_LD_3_RN_4_RD_24_0.png","I_Dist_500_LN_5_LD_6_RN_6_RD_18_0.png","I_Dist_500_LN_7_LD_8_RN_9_RD_24_0.png"],["I_Dist_500_LN_7_LD_21_RN_5_RD_6_1.png"]],"dist500_S":[["E_Dist_500_LN_6_LD_8_RN_6_RD_24_0.png"],["E_Dist_500_LN_2_LD_12_RN_2_RD_3_1.png","E_Dist_500_LN_6_LD_24_RN_6_RD_8_1.png"]]}},{"start_time":1551899777272,"click_time":1551899779721,"finger_time":1551899779580,"fix_duration":250,"trial":1,"RT":2308,"MT":141,"sideResp":2,"stimulus":[],"xmouse":[761,761,761,761,761,761,761,761,761,761,761,761,761,761,761,761,761,761,761,761,761,761,761,761,761,761,761,761,761,761,761,761,761,761,761,761,761,761,761,761,761,761,761,761,761,761,761,761,761,761,761,761,761,761,761,761,761,761,761,761,761,761,761,761,761,761,761,761,761,761,761,761,761,761,761,761,761,761,761,761,761,761,761,761,761,761,761,761,761,761,761,761,761,761,761,761,761,761,761,761,761,761,761,761,761,761,761,761,761,761,761,761,761,762,769,853,957,1021,1073,1108,1136,1143,1147],"ymouse":[611,611,611,611,611,611,611,611,611,611,611,611,611,611,611,611,611,611,611,611,611,611,611,611,611,611,611,611,611,611,611,611,611,611,611,611,611,611,611,611,611,611,611,611,611,611,611,611,611,611,611,611,611,611,611,611,611,611,611,611,611,611,611,611,611,611,611,611,611,611,611,611,611,611,611,611,611,611,611,611,611,611,611,611,611,611,611,611,611,611,613,614,614,614,614,614,614,614,614,614,614,614,614,614,614,614,614,614,614,614,614,614,614,610,600,509,404,335,266,208,132,107,93],"timestamp_mouse":[11,41,49,68,88,109,128,149,168,188,209,228,248,269,288,308,329,349,368,389,408,428,448,468,489,508,528,549,568,588,608,630,648,669,689,708,729,748,769,789,809,828,848,868,890,908,928,948,969,990,1009,1028,1049,1068,1089,1108,1128,1148,1169,1189,1209,1228,1248,1268,1289,1308,1329,1349,1370,1388,1410,1430,1449,1469,1488,1510,1529,1548,1568,1589,1608,1629,1648,1668,1689,1708,1729,1750,1769,1790,1808,1828,1849,1868,1889,1910,1930,1948,1969,1989,2008,2028,2048,2068,2088,2109,2128,2148,2169,2188,2209,2228,2249,2269,2289,2308,2328,2348,2368,2388,2409,2429,2449],"xSR":741.5,"ySR":573.95,"xT1":424.9,"yT1":0,"xT2":1058.1,"yT2":0,"toosoon":0,"cond_shown":"Incongruent","ratio_trial":100,"L_num":1,"L_den":2,"R_num":8,"R_den":20,"correct_side":1,"subjID":"JuanPabloRoncancioVasquez33","gender":"0","school":"6","age":"12"},{"start_time":1551899782492,"click_time":1551899784241,"finger_time":1551899784100,"fix_duration":250,"trial":2,"RT":1608,"MT":141,"sideResp":2,"stimulus":[],"xmouse":[815,815,815,815,815,815,815,815,815,815,815,815,815,815,815,815,815,815,812,810,809,809,809,809,809,809,809,809,809,809,809,809,809,809,809,809,809,809,809,809,809,809,809,809,809,809,809,809,809,809,808,808,807,807,806,806,806,806,806,806,806,806,806,806,806,806,806,806,806,806,806,806,806,806,806,806,806,806,806,821,834,850,865,883,946,1028,1090,1141],"ymouse":[653,653,653,653,653,653,653,653,653,653,653,653,653,653,653,653,653,653,651,650,649,649,649,649,649,649,649,649,649,649,649,649,649,649,649,649,649,649,649,649,649,649,649,649,649,649,649,649,649,649,648,647,646,645,642,642,642,642,642,642,642,642,642,642,642,642,642,642,642,642,642,642,642,642,642,642,640,637,630,592,564,536,513,492,403,271,162,51],"timestamp_mouse":[11,34,50,68,89,108,128,149,168,188,209,228,249,268,288,308,328,348,368,388,408,428,448,468,490,508,529,549,568,590,609,629,649,669,688,709,730,749,769,789,808,828,849,869,889,908,929,948,968,990,1008,1029,1048,1068,1088,1108,1129,1150,1168,1189,1208,1229,1249,1268,1289,1310,1330,1349,1368,1389,1409,1428,1449,1468,1488,1508,1528,1548,1568,1589,1608,1628,1648,1669,1688,1708,1728,1749],"xSR":741.5,"ySR":573.95,"xT1":424.9,"yT1":0,"xT2":1058.1,"yT2":0,"toosoon":0,"cond_shown":"Congruent","ratio_trial":100,"L_num":7,"L_den":14,"R_num":15,"R_den":25,"correct_side":2,"subjID":"JuanPabloRoncancioVasquez33","gender":"0","school":"6","age":"12"},{"start_time":1551899786205,"click_time":1551899788342,"finger_time":1551899788241,"fix_duration":923.6753523287829,"trial":3,"RT":2036,"MT":101,"sideResp":2,"stimulus":[],"xmouse":[758,758,758,757,757,757,757,760,761,761,761,761,761,761,761,761,761,761,761,761,761,761,761,761,761,761,761,761,761,761,761,761,761,762,762,762,763,763,763,763,763,763,763,763,763,763,763,763,763,763,763,763,763,763,763,763,763,764,764,764,764,764,764,764,764,764,764,764,764,764,764,764,764,764,764,764,764,765,765,765,765,765,765,765,765,765,765,765,765,765,765,765,765,765,765,765,765,765,765,765,768,788,818,912,977,1051,1129],"ymouse":[609,609,609,606,600,596,591,588,587,587,587,587,587,587,587,587,587,587,587,587,587,587,587,587,587,587,587,587,587,587,587,587,587,587,587,587,587,587,587,587,587,587,587,587,587,587,587,587,587,587,587,587,587,587,587,587,587,587,587,587,587,587,587,587,587,587,587,587,587,587,587,587,587,587,587,587,587,587,589,592,593,593,593,593,593,593,593,593,593,593,593,593,593,593,593,593,593,593,593,594,591,562,518,368,265,165,56],"timestamp_mouse":[20,36,57,76,97,115,135,155,175,195,215,236,255,275,295,315,335,355,376,395,416,435,455,476,495,516,535,555,577,595,615,635,655,675,695,716,735,755,775,795,815,835,857,875,895,915,935,956,976,995,1016,1035,1055,1076,1097,1115,1136,1156,1175,1195,1215,1235,1255,1275,1295,1316,1335,1355,1376,1396,1416,1436,1455,1475,1496,1515,1535,1556,1576,1595,1615,1637,1657,1675,1696,1716,1736,1756,1776,1796,1816,1836,1856,1875,1895,1917,1936,1955,1975,1997,2015,2036,2055,2075,2096,2117,2137],"xSR":741.5,"ySR":573.95,"xT1":424.9,"yT1":0,"xT2":1058.1,"yT2":0,"toosoon":0,"cond_shown":"Incongruent","ratio_trial":300,"L_num":8,"L_den":10,"R_num":14,"R_den":28,"correct_side":1,"subjID":"JuanPabloRoncancioVasquez33","gender":"0","school":"6","age":"12"},{"start_time":1551899790173,"click_time":1551899792262,"finger_time":1551899791641,"fix_duration":731.637238211643,"trial":4,"RT":1468,"MT":621,"sideResp":1,"stimulus":[],"xmouse":[807,807,807,807,807,807,807,807,807,807,807,807,807,807,807,807,807,807,807,807,807,807,807,807,807,807,807,807,807,807,807,807,807,807,807,807,807,807,807,807,807,807,807,807,807,807,807,807,807,807,807,807,807,807,807,807,807,807,807,807,807,807,807,807,807,807,807,807,807,807,807,802,793,774,747,690,672,654,641,629,618,618,618,618,618,618,618,618,617,617,610,606,599,591,577,550,537,529,527,527,527,527,527,526,513],"ymouse":[628,628,628,628,628,628,628,628,628,628,628,628,628,628,628,628,628,628,628,628,628,628,628,628,628,628,628,628,628,628,628,628,628,628,628,628,628,628,628,628,628,628,628,628,628,628,628,628,628,628,628,628,628,628,628,628,628,628,628,628,628,628,628,628,628,628,628,628,628,628,628,611,580,507,412,184,57,0,0,0,0,0,0,0,0,0,0,0,0,0,6,9,12,14,17,24,28,30,31,31,31,31,31,32,36],"timestamp_mouse":[8,36,47,67,88,108,128,147,169,187,209,229,248,269,287,307,327,347,367,387,408,427,447,467,488,507,528,547,568,587,607,627,648,667,688,709,727,748,767,787,808,827,849,867,888,907,927,948,968,987,1007,1029,1047,1068,1087,1108,1129,1149,1167,1187,1208,1229,1248,1268,1288,1307,1328,1348,1369,1387,1407,1429,1449,1468,1489,1507,1528,1547,1567,1588,1608,1628,1647,1667,1688,1708,1728,1747,1767,1787,1807,1828,1848,1867,1887,1908,1928,1948,1968,1987,2008,2027,2048,2068,2088],"xSR":741.5,"ySR":573.95,"xT1":424.9,"yT1":0,"xT2":1058.1,"yT2":0,"toosoon":0,"cond_shown":"Congruent","ratio_trial":200,"L_num":7,"L_den":21,"R_num":2,"R_den":15,"correct_side":1,"subjID":"JuanPabloRoncancioVasquez33","gender":"0","school":"6","age":"12"},{"start_time":1551899794068,"click_time":1551899795761,"finger_time":1551899795620,"fix_duration":666.4650259202982,"trial":5,"RT":1552,"MT":141,"sideResp":2,"stimulus":[],"xmouse":[775,775,775,775,775,775,775,775,775,775,775,775,775,775,775,775,775,775,775,775,775,775,775,775,775,775,775,775,775,775,775,775,775,775,775,775,775,775,775,775,775,775,775,775,775,775,775,775,775,775,775,775,775,775,775,775,775,775,775,775,775,775,775,775,775,775,775,775,775,775,775,775,775,775,775,777,780,792,808,866,920,981,1034,1084,1124],"ymouse":[597,597,597,597,597,597,597,597,597,597,597,597,597,597,597,597,597,597,597,597,597,597,597,597,597,597,597,597,597,597,597,597,597,597,597,597,597,597,597,597,597,597,597,597,597,597,597,597,597,597,597,597,597,597,597,597,597,597,597,597,597,597,597,597,597,597,597,597,597,597,597,597,597,597,597,595,589,558,518,420,350,278,207,136,79],"timestamp_mouse":[15,42,53,72,94,112,132,152,172,192,212,233,254,272,292,312,332,354,374,392,412,434,453,473,492,512,532,553,572,593,612,632,652,673,693,712,732,753,772,792,813,833,852,873,893,912,932,953,972,993,1012,1033,1053,1073,1094,1112,1132,1153,1172,1192,1213,1232,1252,1272,1292,1313,1332,1352,1373,1392,1412,1433,1453,1472,1492,1512,1533,1552,1574,1593,1612,1633,1652,1672,1693],"xSR":741.5,"ySR":573.95,"xT1":424.9,"yT1":0,"xT2":1058.1,"yT2":0,"toosoon":0,"cond_shown":"Congruent","ratio_trial":100,"L_num":4,"L_den":8,"R_num":6,"R_den":10,"correct_side":2,"subjID":"JuanPabloRoncancioVasquez33","gender":"0","school":"6","age":"12"},{"start_time":1551899798221,"click_time":1551899799380,"finger_time":1551899799221,"fix_duration":1419.6512097255172,"trial":6,"RT":1000,"MT":159,"sideResp":1,"stimulus":[],"xmouse":[779,779,779,779,779,779,779,779,779,779,779,779,779,779,779,779,779,779,779,779,779,779,779,779,779,779,779,779,779,779,779,779,779,779,779,779,779,779,779,779,779,779,779,779,779,779,778,775,769,757,728,681,655,631,606,572,536,472],"ymouse":[622,622,622,622,622,622,622,622,622,622,622,622,622,622,622,622,622,622,622,622,622,622,622,622,622,622,622,622,622,622,622,622,622,622,622,622,622,622,622,622,622,622,622,622,622,622,617,602,579,543,477,367,307,246,189,130,83,10],"timestamp_mouse":[20,39,59,80,100,119,140,159,179,199,220,239,259,279,299,320,341,359,380,399,420,439,459,481,501,520,539,559,580,600,619,640,660,679,699,719,739,760,779,799,819,840,861,879,900,919,941,959,980,1000,1020,1041,1059,1079,1099,1121,1140,1159],"xSR":741.5,"ySR":573.95,"xT1":424.9,"yT1":0,"xT2":1058.1,"yT2":0,"toosoon":0,"cond_shown":"Congruent","ratio_trial":100,"L_num":11,"L_den":22,"R_num":4,"R_den":10,"correct_side":1,"subjID":"JuanPabloRoncancioVasquez33","gender":"0","school":"6","age":"12"},{"start_time":1551899800972,"click_time":1551899802560,"finger_time":1551899802460,"fix_duration":250,"trial":7,"RT":1488,"MT":100,"sideResp":2,"stimulus":[],"xmouse":[800,800,800,800,800,800,800,800,800,800,800,800,800,800,800,800,800,800,800,800,800,800,800,800,800,800,800,800,800,800,800,800,800,800,800,800,800,800,800,800,800,800,800,800,800,800,800,800,800,800,800,800,800,800,800,800,800,800,800,800,800,800,800,800,800,800,800,800,800,800,801,805,810,823,846,927,971,1018,1072,1115],"ymouse":[641,641,641,641,641,641,641,641,641,641,641,641,640,640,640,640,640,640,640,640,640,640,640,640,640,640,640,640,640,640,640,640,640,640,640,640,640,640,640,640,640,640,640,640,640,640,640,640,640,640,640,640,640,640,640,640,640,640,640,640,640,640,640,640,640,640,640,640,640,640,640,633,623,600,560,431,349,271,177,88],"timestamp_mouse":[17,36,48,69,89,108,128,148,169,188,209,228,248,270,288,308,328,349,368,389,409,428,450,468,488,508,528,548,569,589,609,628,648,669,688,709,729,748,768,788,810,829,848,870,888,909,928,949,969,989,1009,1028,1049,1068,1089,1108,1128,1148,1169,1190,1208,1228,1250,1268,1289,1309,1330,1350,1370,1388,1408,1429,1448,1469,1488,1508,1529,1550,1569,1588],"xSR":741.5,"ySR":573.95,"xT1":424.9,"yT1":0,"xT2":1058.1,"yT2":0,"toosoon":0,"cond_shown":"Incongruent","ratio_trial":300,"L_num":13,"L_den":26,"R_num":12,"R_den":15,"correct_side":2,"subjID":"JuanPabloRoncancioVasquez33","gender":"0","school":"6","age":"12"},{"start_time":1551899804738,"click_time":1551899806600,"finger_time":1551899806280,"fix_duration":1354.0420724797702,"trial":8,"RT":1542,"MT":320,"sideResp":1,"stimulus":[],"xmouse":[785,785,785,785,785,785,785,785,785,785,785,785,785,785,785,785,785,785,785,785,785,785,785,785,785,785,785,785,785,785,785,785,785,785,785,785,785,785,785,785,785,785,785,785,785,785,785,785,785,785,785,785,785,785,785,785,785,785,785,785,785,785,785,785,785,785,785,785,785,785,785,785,785,785,785,785,785,762,746,727,710,687,642,619,589,571,556,534,528,523,520,517,516,512],"ymouse":[617,617,617,617,617,617,617,617,617,617,617,617,617,617,617,617,617,617,617,617,617,617,617,617,617,617,617,617,617,617,617,617,617,617,617,617,617,617,617,617,617,617,617,617,617,617,617,617,617,617,617,617,617,617,617,617,617,617,617,617,617,617,617,617,617,617,617,617,617,617,617,617,617,617,614,599,574,479,416,351,289,223,111,52,0,0,0,0,0,0,0,0,0,4],"timestamp_mouse":[8,23,42,63,82,102,124,144,162,183,202,222,242,262,283,303,323,342,362,382,403,423,443,462,483,503,524,543,563,583,602,624,643,662,683,704,724,742,762,782,802,823,843,862,882,903,923,943,962,982,1002,1023,1044,1062,1083,1102,1122,1142,1162,1183,1203,1222,1243,1263,1283,1302,1323,1344,1363,1382,1403,1423,1443,1463,1482,1503,1522,1542,1562,1582,1602,1623,1642,1663,1683,1702,1722,1743,1764,1784,1802,1825,1842,1862],"xSR":741.5,"ySR":573.95,"xT1":424.9,"yT1":0,"xT2":1058.1,"yT2":0,"toosoon":0,"cond_shown":"Congruent","ratio_trial":200,"L_num":4,"L_den":10,"R_num":3,"R_den":15,"correct_side":1,"subjID":"JuanPabloRoncancioVasquez33","gender":"0","school":"6","age":"12"},{"start_time":1551899808227,"click_time":1551899810241,"finger_time":1551899809680,"fix_duration":426.86831276594063,"trial":9,"RT":1453,"MT":561,"sideResp":2,"stimulus":[],"xmouse":[812,812,812,812,812,812,812,812,812,812,812,812,812,812,812,812,812,812,812,812,812,812,812,812,812,812,812,812,812,812,812,812,812,812,812,812,812,812,812,812,812,812,812,812,812,812,812,812,812,812,812,812,812,812,812,812,812,812,812,812,812,812,812,812,812,812,812,812,812,813,819,829,872,904,941,982,1026,1088,1106,1114,1118,1119,1122,1123,1123,1123,1123,1123,1122,1120,1120,1119,1119,1117,1116,1116,1111,1109,1104,1100,1096],"ymouse":[617,617,617,617,617,617,617,617,617,617,617,617,617,617,617,617,617,617,617,617,617,617,617,617,617,617,617,617,617,617,617,617,617,617,617,617,617,617,617,617,617,617,617,617,617,617,617,617,617,617,617,617,617,617,617,615,614,614,613,613,613,613,613,613,613,613,613,613,611,605,595,580,519,475,430,383,339,276,242,225,213,203,191,189,185,182,172,166,162,157,155,150,146,143,140,137,126,120,113,103,97],"timestamp_mouse":[15,37,55,74,93,114,135,154,174,193,213,234,253,273,294,313,333,355,373,393,415,434,454,474,494,513,533,555,573,593,615,635,653,674,693,713,733,753,774,795,813,834,854,873,893,914,935,955,973,993,1014,1033,1053,1073,1094,1113,1133,1153,1174,1193,1214,1234,1253,1274,1294,1315,1333,1354,1374,1393,1413,1435,1453,1474,1494,1515,1533,1554,1574,1594,1613,1633,1654,1673,1695,1713,1735,1754,1773,1793,1815,1835,1853,1873,1893,1914,1935,1953,1973,1993,2014],"xSR":741.5,"ySR":573.95,"xT1":424.9,"yT1":0,"xT2":1058.1,"yT2":0,"toosoon":0,"cond_shown":"Incongruent","ratio_trial":200,"L_num":1,"L_den":3,"R_num":2,"R_den":15,"correct_side":1,"subjID":"JuanPabloRoncancioVasquez33","gender":"0","school":"6","age":"12"},{"start_time":1551899814622,"click_time":1551899816902,"finger_time":1551899816680,"fix_duration":620.8365229811686,"trial":10,"RT":2058,"MT":222,"sideResp":1,"stimulus":[],"xmouse":[776,776,776,776,776,776,776,776,776,776,776,776,776,776,776,776,776,776,776,776,776,776,776,776,776,776,776,776,776,776,776,776,776,776,776,776,776,776,776,776,776,776,776,776,776,776,776,776,776,776,776,776,776,776,776,776,776,776,776,776,776,776,776,776,776,776,776,776,776,776,776,776,776,776,776,776,776,776,776,776,776,776,776,776,776,776,776,776,776,776,776,776,776,776,776,776,776,776,776,775,773,767,741,722,693,656,616,537,513,499,497,497,497,497],"ymouse":[622,622,622,622,622,622,622,622,622,622,622,622,622,622,622,622,622,622,622,622,622,622,622,622,622,622,622,622,622,622,622,622,622,622,622,622,622,622,622,622,622,622,622,622,622,622,622,622,622,622,622,622,622,622,622,622,622,622,622,622,622,622,622,622,622,622,622,622,622,622,622,622,622,622,622,622,622,622,622,622,622,622,622,622,622,622,622,622,622,622,622,622,622,622,622,622,622,622,622,618,612,599,556,526,491,449,398,291,246,197,173,149,101,73],"timestamp_mouse":[19,38,59,78,99,119,138,159,178,199,218,239,259,278,299,319,338,358,379,399,419,438,458,478,499,519,539,560,578,598,620,638,659,679,698,718,739,758,778,798,818,839,859,878,898,919,938,958,979,998,1019,1038,1059,1079,1099,1118,1140,1159,1179,1199,1218,1239,1259,1278,1299,1320,1339,1359,1380,1398,1419,1439,1458,1478,1499,1519,1539,1559,1579,1599,1619,1640,1658,1678,1698,1720,1738,1758,1779,1799,1818,1839,1860,1879,1899,1919,1938,1958,1979,2000,2019,2038,2058,2078,2100,2119,2139,2158,2178,2199,2220,2240,2259,2280],"xSR":741.5,"ySR":573.95,"xT1":424.9,"yT1":0,"xT2":1058.1,"yT2":0,"toosoon":0,"cond_shown":"Incongruent","ratio_trial":200,"L_num":7,"L_den":10,"R_num":12,"R_den":24,"correct_side":1,"subjID":"JuanPabloRoncancioVasquez33","gender":"0","school":"6","age":"12"},{"start_time":1551899818338,"click_time":1551899819700,"finger_time":1551899819200,"fix_duration":516.4735472381494,"trial":11,"RT":862,"MT":500,"sideResp":1,"stimulus":[],"xmouse":[760,760,760,760,760,760,760,760,760,760,760,760,760,760,760,760,760,760,760,760,760,760,760,760,760,760,760,760,760,760,760,760,760,760,760,760,760,760,760,760,760,757,749,741,734,725,712,678,656,631,597,560,495,465,457,455,455,455,455,455,455,455,455,455,455,455,455,455,453],"ymouse":[640,640,640,640,640,640,640,640,640,640,640,640,640,640,640,640,640,640,640,640,640,640,640,640,640,640,640,640,640,640,640,640,640,640,640,640,640,640,638,636,633,624,601,573,551,522,483,368,305,236,155,82,0,0,0,0,0,0,0,0,0,0,0,0,0,0,0,0,3],"timestamp_mouse":[9,23,42,63,83,102,122,143,163,184,203,223,244,263,283,302,323,343,362,384,403,422,442,464,483,502,524,543,562,583,603,624,642,663,682,702,723,743,762,783,802,822,843,862,883,904,922,943,962,982,1003,1023,1042,1063,1082,1104,1122,1142,1162,1183,1202,1223,1243,1263,1283,1302,1323,1343,1362],"xSR":741.5,"ySR":573.95,"xT1":424.9,"yT1":0,"xT2":1058.1,"yT2":0,"toosoon":0,"cond_shown":"Incongruent","ratio_trial":100,"L_num":13,"L_den":26,"R_num":6,"R_den":10,"correct_side":2,"subjID":"JuanPabloRoncancioVasquez33","gender":"0","school":"6","age":"12"},{"start_time":1551899820671,"click_time":1551899822242,"finger_time":1551899821480,"fix_duration":250,"trial":12,"RT":809,"MT":762,"sideResp":2,"stimulus":[],"xmouse":[799,799,799,799,799,799,799,799,799,799,799,799,799,799,799,799,799,799,799,799,799,799,799,799,799,799,799,799,799,799,799,799,799,799,799,799,799,799,799,802,810,811,814,816,816,816,816,816,816,816,816,816,816,816,816,816,816,816,816,816,816,816,816,816,816,816,816,816,816,816,816,818,829,844,870,944,1016,1066,1125],"ymouse":[633,633,633,633,633,633,633,633,633,633,633,633,633,633,633,633,633,633,633,633,633,633,633,633,631,628,623,619,617,615,614,614,614,614,614,614,614,611,607,596,568,558,549,545,544,544,544,544,544,544,544,544,544,544,544,544,544,544,544,544,544,544,544,544,544,544,544,544,544,544,544,538,519,493,443,329,226,145,56],"timestamp_mouse":[9,39,49,69,90,109,129,150,169,189,209,229,250,269,289,309,329,350,370,390,409,429,451,470,490,509,529,549,569,589,610,629,650,670,690,709,731,749,771,789,809,830,849,869,890,909,931,950,970,990,1009,1029,1049,1069,1089,1109,1129,1151,1169,1190,1210,1230,1249,1271,1290,1310,1330,1350,1369,1391,1409,1429,1451,1469,1489,1509,1529,1549,1571],"xSR":741.5,"ySR":573.95,"xT1":424.9,"yT1":0,"xT2":1058.1,"yT2":0,"toosoon":0,"cond_shown":"Congruent","ratio_trial":100,"L_num":7,"L_den":14,"R_num":15,"R_den":25,"correct_side":2,"subjID":"JuanPabloRoncancioVasquez33","gender":"0","school":"6","age":"12"},{"start_time":1551899823732,"click_time":1551899825880,"finger_time":1551899825500,"fix_duration":250,"trial":13,"RT":1768,"MT":380,"sideResp":2,"stimulus":[],"xmouse":[817,817,817,817,817,817,817,817,817,817,817,817,817,817,817,817,817,817,817,817,817,817,817,817,817,817,817,817,817,817,817,817,817,817,817,817,817,817,817,817,817,817,817,817,817,817,817,817,817,817,817,817,817,817,817,817,817,817,817,817,817,817,817,817,817,817,817,817,817,817,817,817,817,817,817,817,817,817,817,817,817,817,817,817,817,817,817,817,848,927,1022,1107,1237,1276,1319,1340,1346,1349,1349,1348,1330,1300,1230,1192,1171,1156,1146,1141],"ymouse":[603,603,603,603,603,603,603,603,603,603,603,603,603,603,603,603,603,603,603,603,603,603,603,603,603,603,603,603,603,603,603,603,603,603,603,603,603,603,603,603,603,603,603,603,603,603,603,603,603,603,603,603,603,603,603,603,603,603,603,603,603,603,603,603,603,603,603,603,603,603,603,603,603,603,603,603,603,603,603,603,603,603,603,603,603,603,603,603,580,543,512,480,354,266,109,20,0,0,0,0,0,0,0,0,0,0,0,3],"timestamp_mouse":[10,33,48,68,88,108,129,149,169,188,208,228,249,269,288,308,328,348,368,388,409,428,449,470,489,508,529,548,568,589,608,629,649,668,688,708,728,749,768,788,808,828,849,868,888,909,928,949,968,988,1008,1029,1048,1070,1088,1108,1129,1148,1169,1188,1209,1229,1249,1269,1289,1309,1329,1349,1368,1389,1408,1430,1448,1469,1489,1510,1529,1549,1570,1590,1609,1628,1649,1668,1688,1708,1728,1749,1768,1788,1809,1828,1848,1869,1890,1909,1928,1949,1969,1988,2009,2029,2049,2069,2089,2109,2129,2148],"xSR":741.5,"ySR":573.95,"xT1":424.9,"yT1":0,"xT2":1058.1,"yT2":0,"toosoon":0,"cond_shown":"Congruent","ratio_trial":200,"L_num":1,"L_den":2,"R_num":21,"R_den":30,"correct_side":2,"subjID":"JuanPabloRoncancioVasquez33","gender":"0","school":"6","age":"12"},{"start_time":1551899832081,"click_time":1551899833980,"finger_time":1551899833640,"fix_duration":460.32398332170857,"trial":14,"RT":1559,"MT":340,"sideResp":1,"stimulus":[],"xmouse":[825,825,825,825,825,825,825,825,825,825,825,825,825,825,825,825,825,825,825,825,825,825,825,825,825,825,825,825,825,825,825,825,825,825,825,825,825,825,825,825,825,825,825,825,825,825,825,825,825,825,825,825,825,825,825,825,825,825,825,825,825,825,825,825,825,825,825,825,825,825,825,825,825,825,824,822,819,806,766,735,699,665,639,614,595,586,547,514,467,466,466,466,466,466,460],"ymouse":[642,642,642,642,642,642,642,642,642,642,642,642,642,642,642,642,642,642,642,642,642,642,642,642,642,642,642,642,642,642,642,642,642,642,642,642,642,642,642,642,642,642,642,642,642,642,642,642,642,642,642,642,642,642,642,642,642,642,642,642,642,642,642,642,642,642,642,642,642,642,642,642,642,642,641,627,603,560,422,347,266,200,148,90,54,42,7,0,0,0,0,0,0,0,5],"timestamp_mouse":[31,39,60,79,100,120,140,160,180,200,219,239,259,279,299,320,341,359,379,400,420,439,460,479,499,519,539,559,579,600,619,639,659,680,699,720,740,759,779,800,820,839,860,879,899,919,939,960,979,999,1019,1039,1059,1080,1099,1120,1140,1159,1180,1201,1220,1241,1260,1280,1299,1319,1339,1360,1379,1400,1419,1439,1459,1479,1499,1521,1539,1559,1580,1599,1620,1639,1660,1680,1699,1720,1740,1759,1780,1799,1820,1840,1859,1879,1899],"xSR":741.5,"ySR":573.95,"xT1":424.9,"yT1":0,"xT2":1058.1,"yT2":0,"toosoon":0,"cond_shown":"Incongruent","ratio_trial":200,"L_num":6,"L_den":20,"R_num":3,"R_den":6,"correct_side":2,"subjID":"JuanPabloRoncancioVasquez33","gender":"0","school":"6","age":"12"},{"start_time":1551899836477,"click_time":1551899838540,"finger_time":1551899838341,"fix_duration":1255.516389083231,"trial":15,"RT":1864,"MT":199,"sideResp":2,"stimulus":[],"xmouse":[803,803,803,803,803,804,804,807,808,809,811,811,811,811,811,811,811,811,811,811,811,811,811,811,811,811,811,811,811,811,811,811,811,811,811,811,811,811,811,811,811,811,811,811,811,811,811,811,811,811,811,811,811,811,811,811,811,811,811,811,811,811,811,811,811,811,811,811,811,811,811,811,811,811,811,811,811,811,811,811,811,811,811,811,811,811,811,811,811,811,814,822,835,852,874,910,932,947,967,989,1034,1067,1094,1113],"ymouse":[617,617,617,617,617,617,617,618,618,619,620,620,620,620,620,620,620,620,620,620,620,620,620,620,620,620,620,620,620,620,620,620,620,620,620,620,620,620,620,620,620,620,620,620,620,620,620,620,620,620,620,620,620,620,620,620,620,620,620,620,620,620,620,620,620,620,620,620,620,620,620,620,620,620,620,620,620,620,620,620,620,620,620,620,620,620,620,620,620,620,619,614,605,593,577,542,501,466,420,371,248,192,145,96],"timestamp_mouse":[10,35,43,63,84,103,123,143,163,184,204,223,243,265,283,303,324,343,363,383,404,423,444,464,483,504,523,543,564,584,604,624,643,663,684,705,723,744,763,784,803,823,844,863,883,904,923,943,964,983,1003,1024,1044,1064,1083,1104,1125,1143,1163,1183,1204,1224,1243,1263,1283,1303,1323,1343,1363,1383,1403,1423,1443,1464,1484,1504,1523,1543,1563,1583,1603,1623,1644,1664,1683,1704,1724,1743,1763,1784,1803,1823,1843,1864,1884,1903,1924,1943,1963,1983,2003,2024,2044,2063],"xSR":741.5,"ySR":573.95,"xT1":424.9,"yT1":0,"xT2":1058.1,"yT2":0,"toosoon":0,"cond_shown":"Incongruent","ratio_trial":300,"L_num":13,"L_den":26,"R_num":12,"R_den":15,"correct_side":2,"subjID":"JuanPabloRoncancioVasquez33","gender":"0","school":"6","age":"12"},{"start_time":1551899842239,"click_time":1551899843940,"finger_time":1551899843661,"fix_duration":1236.5593930820562,"trial":16,"RT":1422,"MT":279,"sideResp":2,"stimulus":[],"xmouse":[781,781,781,781,780,780,780,780,780,780,780,780,780,780,780,780,780,780,780,780,780,780,780,780,780,780,780,780,780,780,780,780,780,780,780,780,780,780,780,780,780,780,780,780,780,780,780,780,780,780,780,780,780,780,780,780,780,780,780,780,780,780,780,780,780,780,780,780,783,791,798,820,831,840,849,856,865,896,927,954,980,997,1029,1041,1052,1063],"ymouse":[631,631,631,631,631,629,627,624,624,624,624,624,624,624,624,624,624,624,624,624,624,624,624,624,624,624,624,624,624,624,624,624,624,624,624,624,624,624,624,624,624,624,624,624,624,624,624,624,624,624,624,624,624,624,624,624,624,624,624,624,624,624,624,624,624,624,624,622,612,596,579,527,502,481,461,440,419,337,284,246,210,182,138,120,101,85],"timestamp_mouse":[8,36,41,61,81,102,121,141,161,181,201,221,241,261,282,301,322,341,362,381,401,421,442,461,482,502,521,541,561,581,602,622,641,661,683,701,723,742,761,782,802,821,841,861,881,901,921,942,963,981,1001,1021,1041,1061,1081,1101,1122,1141,1161,1181,1201,1222,1241,1261,1281,1302,1322,1341,1362,1382,1401,1422,1441,1461,1481,1502,1521,1541,1562,1581,1602,1621,1642,1661,1682,1701],"xSR":741.5,"ySR":573.95,"xT1":424.9,"yT1":0,"xT2":1058.1,"yT2":0,"toosoon":0,"cond_shown":"Congruent","ratio_trial":300,"L_num":5,"L_den":25,"R_num":7,"R_den":14,"correct_side":2,"subjID":"JuanPabloRoncancioVasquez33","gender":"0","school":"6","age":"12"},{"start_time":1551899846322,"click_time":1551899848701,"finger_time":1551899847822,"fix_duration":1298.7419355144282,"trial":17,"RT":1500,"MT":879,"sideResp":2,"stimulus":[],"xmouse":[770,770,770,770,770,770,770,770,770,770,770,770,770,770,770,770,770,770,770,770,770,770,770,770,770,770,770,770,770,770,770,770,770,770,770,770,770,770,770,770,770,770,770,770,770,770,770,770,770,770,770,770,770,770,770,770,770,770,770,770,770,770,770,770,770,770,770,770,770,770,770,770,770,770,763,748,721,674,549,488,441,413,400,394,394,394,394,394,394,394,394,394,394,394,394,407,429,472,601,675,747,814,902,925,940,960,966,976,980,983,985,986,986,986,987,989,999,1012,1055,1070],"ymouse":[600,600,600,600,600,600,600,600,600,600,600,600,600,600,600,600,600,600,600,600,600,600,600,600,600,600,600,600,600,600,600,600,600,600,600,600,600,600,600,600,600,600,600,600,600,600,600,600,600,600,600,600,600,600,600,600,600,600,600,600,600,600,600,600,600,600,600,600,600,600,600,600,600,598,579,553,498,442,313,250,196,160,138,123,122,122,122,122,122,122,122,122,122,123,127,157,196,256,379,420,449,464,461,444,415,326,256,147,118,96,83,75,73,73,72,72,71,71,71,71],"timestamp_mouse":[2,22,40,58,79,99,119,140,158,178,198,218,238,258,278,299,319,339,359,379,399,419,439,459,478,499,518,540,559,579,598,618,638,658,680,699,719,739,758,778,799,819,839,860,878,898,918,938,958,978,998,1018,1038,1058,1078,1099,1118,1138,1159,1178,1199,1220,1239,1260,1279,1299,1319,1338,1358,1378,1399,1419,1440,1458,1478,1500,1519,1539,1558,1578,1598,1619,1638,1658,1679,1699,1719,1739,1759,1779,1798,1819,1839,1858,1878,1898,1918,1938,1958,1979,1999,2018,2039,2058,2079,2099,2119,2139,2158,2180,2200,2219,2240,2258,2278,2298,2318,2340,2358,2378],"xSR":741.5,"ySR":573.95,"xT1":424.9,"yT1":0,"xT2":1058.1,"yT2":0,"toosoon":0,"cond_shown":"Incongruent","ratio_trial":200,"L_num":7,"L_den":15,"R_num":6,"R_den":9,"correct_side":2,"subjID":"JuanPabloRoncancioVasquez33","gender":"0","school":"6","age":"12"},{"start_time":1551899852113,"click_time":1551899854201,"finger_time":1551899853680,"fix_duration":250,"trial":18,"RT":1567,"MT":521,"sideResp":1,"stimulus":[],"xmouse":[759,759,759,759,759,759,759,759,759,759,759,759,759,762,762,762,762,762,762,762,762,762,762,762,762,762,762,762,762,762,762,762,762,762,762,762,762,762,762,762,762,762,762,762,762,762,762,762,762,762,762,762,762,762,762,762,762,762,762,762,762,762,762,762,762,762,762,762,762,762,762,762,762,762,762,762,762,762,746,714,659,583,377,293,243,230,229,229,229,229,229,229,232,266,282,336,359,377,398,400,400,400,410,422,438],"ymouse":[628,628,628,628,628,628,628,628,628,628,626,624,622,617,615,615,615,615,615,615,615,615,615,615,615,615,615,615,615,615,615,615,615,615,615,615,615,615,615,615,615,615,615,615,615,615,615,615,615,615,615,615,615,615,615,615,615,615,615,615,615,615,615,615,615,615,615,615,615,615,615,615,615,615,615,615,615,612,567,509,428,322,73,0,0,0,0,0,0,0,0,0,5,27,36,62,70,76,80,80,80,80,80,80,79],"timestamp_mouse":[9,31,47,67,87,107,128,148,167,187,208,228,247,268,288,307,327,348,367,388,407,428,447,467,487,507,527,547,567,588,607,627,647,668,687,708,728,747,767,788,807,828,849,867,887,908,927,948,968,987,1007,1028,1047,1069,1088,1107,1127,1149,1167,1187,1207,1228,1248,1267,1288,1307,1328,1348,1367,1387,1407,1429,1447,1467,1487,1507,1528,1547,1567,1588,1607,1627,1648,1668,1689,1708,1728,1747,1767,1787,1808,1827,1848,1868,1888,1907,1927,1948,1967,1987,2008,2027,2049,2067,2087],"xSR":741.5,"ySR":573.95,"xT1":424.9,"yT1":0,"xT2":1058.1,"yT2":0,"toosoon":0,"cond_shown":"Incongruent","ratio_trial":200,"L_num":1,"L_den":2,"R_num":3,"R_den":10,"correct_side":1,"subjID":"JuanPabloRoncancioVasquez33","gender":"0","school":"6","age":"12"},{"start_time":1551899855264,"click_time":1551899857201,"finger_time":1551899857080,"fix_duration":282.8776441521679,"trial":19,"RT":1816,"MT":121,"sideResp":2,"stimulus":[],"xmouse":[787,787,787,787,787,787,787,787,787,787,787,787,787,787,787,787,787,787,787,787,787,787,787,787,787,787,787,787,787,787,787,787,787,787,787,787,787,787,787,787,787,787,787,787,787,787,787,787,787,787,787,787,787,787,787,787,787,787,787,787,787,787,787,787,787,787,787,787,787,787,787,787,787,787,787,787,787,787,787,787,787,787,787,787,787,787,787,788,789,797,828,854,886,918,1004,1058,1085],"ymouse":[630,630,630,630,630,630,630,630,630,630,630,630,630,630,630,630,630,630,630,630,630,630,630,630,630,630,630,630,630,630,630,630,630,630,630,630,630,630,630,630,630,630,630,630,630,630,630,630,630,630,630,630,630,630,630,630,630,630,630,630,630,630,630,630,630,630,630,630,630,630,630,630,630,630,630,630,630,630,630,630,630,630,630,630,630,630,630,629,620,596,509,447,379,301,150,59,24],"timestamp_mouse":[16,36,56,76,97,116,136,157,177,196,216,237,257,277,297,317,337,356,377,396,416,436,456,476,509,516,536,556,577,597,616,637,656,676,696,717,736,756,776,796,817,836,856,877,896,916,937,957,976,996,1016,1036,1056,1076,1096,1116,1136,1157,1177,1196,1217,1237,1257,1276,1296,1316,1337,1357,1376,1397,1417,1437,1456,1476,1496,1516,1537,1557,1577,1597,1617,1637,1656,1676,1698,1716,1736,1756,1777,1797,1816,1836,1856,1876,1897,1916,1937],"xSR":741.5,"ySR":573.95,"xT1":424.9,"yT1":0,"xT2":1058.1,"yT2":0,"toosoon":0,"cond_shown":"Incongruent","ratio_trial":200,"L_num":4,"L_den":6,"R_num":14,"R_den":30,"correct_side":1,"subjID":"JuanPabloRoncancioVasquez33","gender":"0","school":"6","age":"12"},{"start_time":1551899860606,"click_time":1551899862181,"finger_time":1551899861862,"fix_duration":904.4141219105743,"trial":20,"RT":1256,"MT":319,"sideResp":1,"stimulus":[],"xmouse":[760,760,764,770,776,784,791,795,797,797,797,797,797,797,797,797,797,797,797,797,797,797,797,797,797,797,797,797,797,797,797,797,797,797,797,797,797,797,797,797,797,797,797,797,797,797,797,797,797,797,797,797,797,797,797,792,784,777,767,762,755,750,739,729,716,699,679,656,603,577,548,537,529,524,524,524,524,524,523],"ymouse":[628,629,631,634,638,640,642,642,642,642,642,642,642,642,642,642,642,642,642,642,642,642,642,642,642,642,642,642,642,642,642,642,642,642,642,642,642,642,642,642,642,642,642,642,642,642,642,642,642,642,642,642,642,642,636,626,614,606,594,590,584,580,570,561,546,527,503,472,389,339,274,241,215,178,160,140,120,101,72],"timestamp_mouse":[24,35,54,75,95,114,134,155,175,195,215,235,254,275,294,315,335,354,375,394,414,434,455,474,494,514,534,554,574,595,614,634,656,674,694,715,735,754,776,794,814,836,855,874,894,915,935,954,975,994,1014,1034,1055,1074,1094,1115,1134,1154,1175,1194,1214,1234,1256,1274,1294,1314,1334,1354,1374,1394,1414,1436,1454,1475,1495,1515,1534,1554,1574],"xSR":741.5,"ySR":573.95,"xT1":424.9,"yT1":0,"xT2":1058.1,"yT2":0,"toosoon":0,"cond_shown":"Incongruent","ratio_trial":100,"L_num":9,"L_den":18,"R_num":6,"R_den":10,"correct_side":2,"subjID":"JuanPabloRoncancioVasquez33","gender":"0","school":"6","age":"12"},{"start_time":1551899864475,"click_time":1551899865981,"finger_time":1551899865821,"fix_duration":1094.804552495034,"trial":21,"RT":1346,"MT":160,"sideResp":2,"stimulus":[],"xmouse":[788,788,788,788,788,788,788,788,788,788,788,788,788,788,788,788,788,788,788,788,788,788,788,788,788,788,788,788,788,788,788,788,788,788,788,788,788,788,788,788,788,788,788,788,788,788,788,788,788,788,788,788,788,788,788,788,788,788,788,788,788,788,788,788,789,800,813,821,860,889,937,960,991,1019,1040,1074],"ymouse":[614,614,614,614,614,614,614,614,614,614,614,614,614,614,614,614,614,614,614,614,614,614,614,614,614,614,614,614,614,614,614,614,614,614,614,614,614,614,614,614,614,614,614,614,614,614,614,614,614,614,614,614,614,614,614,614,614,614,614,614,614,614,614,614,614,598,576,563,507,464,380,333,277,210,139,12],"timestamp_mouse":[9,25,48,65,85,106,125,145,166,186,206,226,246,265,285,305,325,345,365,385,406,426,446,466,487,505,525,545,565,586,605,626,645,665,685,705,725,745,765,786,805,826,845,865,886,907,927,945,965,985,1005,1025,1046,1065,1085,1106,1125,1146,1166,1186,1206,1225,1246,1265,1286,1305,1325,1346,1366,1386,1405,1425,1446,1465,1485,1506],"xSR":741.5,"ySR":573.95,"xT1":424.9,"yT1":0,"xT2":1058.1,"yT2":0,"toosoon":0,"cond_shown":"Incongruent","ratio_trial":100,"L_num":6,"L_den":10,"R_num":13,"R_den":26,"correct_side":1,"subjID":"JuanPabloRoncancioVasquez33","gender":"0","school":"6","age":"12"},{"start_time":1551899867635,"click_time":1551899869301,"finger_time":1551899868861,"fix_duration":293.4984098555732,"trial":22,"RT":1226,"MT":440,"sideResp":1,"stimulus":[],"xmouse":[787,787,787,787,787,787,787,787,787,787,787,787,787,787,787,787,787,787,787,787,787,787,787,787,787,787,787,787,787,787,787,787,787,787,787,787,787,787,787,787,787,787,787,787,787,787,787,787,787,787,787,787,787,787,787,787,787,787,787,787,786,729,677,625,569,514,464,390,383,376,376,379,381,382,383,383,383,385,388,394,404,411,423,429],"ymouse":[593,593,593,593,593,593,593,593,593,593,593,593,593,593,593,593,593,593,593,593,593,593,593,593,593,593,593,593,593,593,593,593,593,593,593,593,593,593,593,593,593,593,593,593,593,593,593,593,593,593,593,593,593,593,593,593,593,593,593,593,590,547,510,475,427,374,326,199,176,137,117,90,82,79,77,75,75,72,70,69,67,65,62,62],"timestamp_mouse":[15,25,45,65,86,105,125,145,166,186,206,225,246,266,286,305,325,345,365,386,406,426,445,466,486,505,525,546,566,586,606,626,645,666,685,705,725,745,766,785,805,825,845,866,886,906,925,946,966,985,1005,1025,1046,1065,1085,1105,1125,1145,1165,1186,1206,1226,1245,1265,1286,1305,1325,1345,1365,1386,1405,1426,1445,1465,1486,1506,1526,1545,1566,1585,1606,1625,1645,1666],"xSR":741.5,"ySR":573.95,"xT1":424.9,"yT1":0,"xT2":1058.1,"yT2":0,"toosoon":0,"cond_shown":"Incongruent","ratio_trial":100,"L_num":2,"L_den":4,"R_num":8,"R_den":20,"correct_side":1,"subjID":"JuanPabloRoncancioVasquez33","gender":"0","school":"6","age":"12"},{"start_time":1551899871319,"click_time":1551899874740,"finger_time":1551899871760,"fix_duration":957.1979946283988,"trial":23,"RT":441,"MT":2980,"sideResp":1,"stimulus":[],"xmouse":[793,793,793,793,793,793,793,795,795,795,795,795,795,795,795,796,797,797,797,797,797,797,797,798,798,798,799,800,800,800,800,800,800,800,800,800,800,800,800,802,806,810,814,822,825,825,825,825,825,825,825,825,825,825,825,825,825,825,825,825,825,825,825,825,825,825,825,825,825,825,825,825,825,825,825,825,825,825,825,825,825,825,825,825,825,825,825,825,825,825,825,825,825,825,825,825,825,825,825,824,824,824,824,824,823,822,821,820,816,815,813,813,813,813,813,813,813,813,813,813,813,814,820,834,840,844,846,846,846,846,846,846,846,846,846,846,846,846,846,846,846,846,846,846,842,829,807,773,691,654,626,599,532,492,449,407,345,315,287,287,288,296,304,311,311,312,316,326,359,380,403,425],"ymouse":[597,597,597,597,597,597,597,590,587,587,587,587,587,587,584,580,578,577,576,576,575,574,573,571,571,570,570,568,566,566,565,565,565,565,565,565,565,565,565,569,581,595,607,624,628,630,630,630,630,630,630,630,630,630,630,630,630,630,630,630,630,630,630,630,630,630,630,630,630,630,630,630,630,630,630,630,630,630,630,630,630,630,630,630,630,630,630,630,630,627,621,609,589,582,575,573,572,570,568,566,564,562,560,557,555,551,548,542,532,526,523,520,520,520,520,520,520,520,520,525,541,560,580,613,623,630,631,631,631,631,631,631,631,631,631,631,631,631,631,631,631,631,631,632,629,617,597,572,514,486,459,431,339,280,219,159,72,16,0,0,0,0,0,0,0,0,0,5,21,29,39,46],"timestamp_mouse":[5,27,41,62,81,102,122,142,161,182,202,221,241,261,281,302,322,341,361,381,403,422,441,461,483,503,521,542,561,582,602,622,641,662,681,701,722,742,762,782,802,822,842,861,882,901,922,942,961,982,1001,1022,1042,1062,1081,1101,1121,1141,1161,1182,1201,1221,1243,1261,1281,1301,1322,1341,1361,1382,1401,1422,1441,1462,1481,1502,1521,1541,1562,1582,1601,1623,1641,1661,1681,1701,1721,1742,1762,1781,1802,1821,1842,1861,1882,1902,1921,1942,1961,1981,2001,2021,2041,2062,2082,2101,2122,2142,2162,2181,2201,2221,2242,2262,2282,2301,2321,2342,2362,2381,2402,2422,2441,2461,2481,2501,2522,2542,2562,2582,2602,2623,2642,2661,2682,2701,2722,2742,2762,2781,2802,2821,2841,2862,2881,2901,2922,2941,2961,2982,3001,3022,3042,3061,3082,3101,3121,3142,3161,3181,3201,3222,3241,3261,3282,3301,3322,3342,3361,3381,3402,3421],"xSR":741.5,"ySR":573.95,"xT1":424.9,"yT1":0,"xT2":1058.1,"yT2":0,"toosoon":0,"cond_shown":"Congruent","ratio_trial":200,"L_num":14,"L_den":28,"R_num":6,"R_den":20,"correct_side":1,"subjID":"JuanPabloRoncancioVasquez33","gender":"0","school":"6","age":"12"},{"start_time":1551899877146,"click_time":1551899879000,"finger_time":1551899878621,"fix_duration":925.2061932413392,"trial":24,"RT":1475,"MT":379,"sideResp":2,"stimulus":[],"xmouse":[812,812,812,812,812,812,812,812,812,812,812,812,812,812,812,812,812,812,812,812,812,812,812,812,812,812,812,812,812,812,812,812,812,812,812,812,812,812,812,812,812,812,812,812,812,812,812,812,812,812,812,812,812,812,812,812,812,812,812,812,812,812,812,812,812,812,812,812,812,812,812,816,836,866,903,993,1024,1037,1041,1041,1041,1039,1037,1035,1033,1028,1021,1020,1020,1021,1026,1051,1070],"ymouse":[623,623,623,623,623,623,623,623,623,623,623,623,623,623,623,623,623,623,623,623,623,623,623,623,623,623,623,623,623,623,623,623,623,623,623,623,623,623,623,623,623,623,623,623,623,623,623,623,623,623,623,623,623,623,623,623,623,623,623,623,623,623,623,623,623,623,623,623,623,623,623,613,575,529,477,384,357,337,318,301,285,256,240,228,216,201,173,162,151,142,130,100,79],"timestamp_mouse":[14,34,56,75,95,115,134,154,174,194,215,234,254,274,294,314,334,354,375,394,415,435,454,474,495,514,534,554,574,595,614,634,654,675,694,715,735,755,774,794,815,834,855,874,894,915,935,954,975,996,1015,1035,1054,1074,1095,1114,1135,1154,1175,1194,1215,1234,1254,1274,1294,1315,1335,1355,1374,1395,1416,1434,1454,1475,1494,1515,1534,1555,1575,1594,1615,1634,1655,1674,1695,1714,1736,1754,1775,1794,1814,1834,1854],"xSR":741.5,"ySR":573.95,"xT1":424.9,"yT1":0,"xT2":1058.1,"yT2":0,"toosoon":0,"cond_shown":"Incongruent","ratio_trial":300,"L_num":13,"L_den":26,"R_num":12,"R_den":15,"correct_side":2,"subjID":"JuanPabloRoncancioVasquez33","gender":"0","school":"6","age":"12"},{"start_time":1551899880730,"click_time":1551899882481,"finger_time":1551899882160,"fix_duration":828.8413350057941,"trial":25,"RT":1430,"MT":321,"sideResp":2,"stimulus":[],"xmouse":[817,817,817,817,817,817,817,817,817,817,817,817,817,817,817,817,817,817,817,817,817,817,817,817,817,817,817,817,817,817,817,817,817,817,817,817,817,817,817,817,817,817,817,817,817,817,817,817,817,817,817,817,817,817,817,817,817,817,817,817,817,817,817,817,817,817,816,818,824,833,841,851,870,877,888,893,899,914,922,930,942,957,983,996,1015,1027,1052,1068],"ymouse":[647,647,647,647,647,647,647,647,647,647,647,647,647,647,647,647,647,647,647,647,647,647,647,647,647,647,647,647,647,647,647,647,647,647,647,647,647,647,647,647,647,647,647,647,647,647,647,647,647,647,647,647,647,647,647,647,647,647,647,647,647,647,647,647,647,647,647,638,624,603,576,531,458,429,371,333,294,237,218,198,180,160,124,108,87,77,60,52],"timestamp_mouse":[11,32,52,72,90,111,132,150,171,192,210,231,251,271,291,312,330,351,371,390,411,430,452,472,491,511,531,551,571,591,611,631,650,670,691,710,731,751,772,790,812,832,850,872,891,912,930,951,971,990,1011,1032,1050,1072,1092,1112,1130,1152,1172,1191,1212,1230,1250,1272,1291,1311,1331,1352,1371,1392,1412,1430,1451,1472,1492,1511,1531,1551,1571,1592,1611,1631,1651,1671,1691,1711,1732,1751],"xSR":741.5,"ySR":573.95,"xT1":424.9,"yT1":0,"xT2":1058.1,"yT2":0,"toosoon":0,"cond_shown":"Incongruent","ratio_trial":300,"L_num":13,"L_den":26,"R_num":12,"R_den":15,"correct_side":2,"subjID":"JuanPabloRoncancioVasquez33","gender":"0","school":"6","age":"12"},{"start_time":1551899883806,"click_time":1551899885681,"finger_time":1551899885061,"fix_duration":384.44804846544065,"trial":26,"RT":1255,"MT":620,"sideResp":2,"stimulus":[],"xmouse":[775,775,775,775,775,775,775,775,775,775,775,775,775,775,775,775,775,775,775,775,775,775,775,775,775,775,775,775,775,775,775,775,775,775,775,775,775,775,775,775,775,775,775,775,775,775,775,775,775,775,775,775,775,775,775,775,775,775,775,777,787,800,818,855,876,897,920,945,988,1005,1021,1027,1035,1035,1039,1046,1053,1061,1066,1066,1066,1066,1066,1066,1066,1066,1066,1066,1066,1066,1066,1066,1066,1066],"ymouse":[652,652,652,652,652,652,652,652,652,652,652,652,652,652,652,652,652,652,652,652,652,652,652,652,652,652,652,652,652,652,652,652,652,652,652,652,652,652,652,652,652,652,652,652,652,652,652,652,652,652,652,652,652,652,652,651,648,647,643,637,617,589,549,462,404,350,296,240,137,102,63,46,23,18,7,0,0,0,0,0,0,0,0,0,0,0,0,0,0,0,0,0,0,2],"timestamp_mouse":[15,38,55,76,94,116,134,156,175,196,214,235,254,276,296,315,336,354,376,395,415,434,455,474,495,514,535,555,576,596,615,636,655,675,694,715,735,755,775,795,816,836,856,874,895,916,935,956,975,995,1016,1034,1055,1074,1096,1116,1135,1156,1174,1195,1216,1236,1255,1275,1295,1315,1335,1355,1375,1395,1416,1435,1456,1474,1495,1514,1534,1554,1574,1594,1614,1634,1655,1674,1694,1715,1735,1754,1775,1796,1815,1835,1855,1875],"xSR":741.5,"ySR":573.95,"xT1":424.9,"yT1":0,"xT2":1058.1,"yT2":0,"toosoon":0,"cond_shown":"Incongruent","ratio_trial":100,"L_num":12,"L_den":30,"R_num":2,"R_den":4,"correct_side":2,"subjID":"JuanPabloRoncancioVasquez33","gender":"0","school":"6","age":"12"},{"start_time":1551899887309,"click_time":1551899888562,"finger_time":1551899888262,"fix_duration":706.4322897725516,"trial":27,"RT":953,"MT":300,"sideResp":1,"stimulus":[],"xmouse":[752,752,752,752,752,752,752,752,752,752,752,752,752,752,752,752,751,751,751,751,751,751,751,751,751,751,751,751,751,751,751,751,751,751,751,751,751,751,751,751,751,751,751,750,749,748,745,738,731,724,717,708,681,667,646,634,618,597,546,526,514,507,499],"ymouse":[633,633,633,633,633,633,633,633,633,633,633,633,633,633,633,632,631,630,630,630,630,630,630,630,630,630,630,630,630,628,628,628,627,627,627,627,627,627,627,627,627,627,626,625,622,620,614,603,594,582,570,553,516,495,456,427,385,334,216,170,138,111,64],"timestamp_mouse":[11,34,53,73,91,113,133,152,173,193,212,232,251,272,292,312,333,352,372,393,411,432,453,472,492,513,532,552,572,591,611,633,652,672,691,713,732,751,771,791,812,831,853,873,892,911,932,953,972,992,1011,1032,1053,1072,1093,1112,1133,1151,1171,1192,1213,1233,1253],"xSR":741.5,"ySR":573.95,"xT1":424.9,"yT1":0,"xT2":1058.1,"yT2":0,"toosoon":0,"cond_shown":"Congruent","ratio_trial":200,"L_num":3,"L_den":12,"R_num":9,"R_den":20,"correct_side":2,"subjID":"JuanPabloRoncancioVasquez33","gender":"0","school":"6","age":"12"},{"start_time":1551899890295,"click_time":1551899892241,"finger_time":1551899891640,"fix_duration":812.9599753512997,"trial":28,"RT":1345,"MT":601,"sideResp":1,"stimulus":[],"xmouse":[806,806,806,806,806,806,806,806,806,806,806,806,806,806,806,806,806,806,806,806,806,806,806,806,806,806,806,806,806,806,806,806,806,806,806,806,806,806,806,806,806,806,806,806,806,806,806,806,806,806,806,806,806,806,806,806,806,806,806,806,806,806,806,806,806,806,788,771,716,694,674,659,644,634,627,627,629,632,632,632,632,632,632,631,629,623,620,614,607,584,571,555,547,542,539,537,532,523],"ymouse":[615,615,615,613,613,613,613,613,613,613,613,613,613,613,613,613,613,613,613,613,613,613,613,613,613,613,613,613,613,613,613,613,613,613,613,613,613,613,613,613,613,613,613,613,613,613,613,613,613,613,613,613,613,613,613,613,613,613,613,613,613,613,613,613,612,608,581,557,480,440,392,333,268,211,139,102,84,73,68,64,63,62,61,61,61,60,59,58,58,56,56,56,56,56,56,57,57,58],"timestamp_mouse":[12,35,46,66,86,106,126,147,167,186,207,226,247,266,285,305,326,347,365,387,407,425,447,467,485,506,527,545,566,586,606,627,647,665,687,706,725,747,767,785,806,827,845,865,887,906,926,946,967,986,1005,1025,1046,1066,1086,1105,1127,1145,1167,1186,1206,1225,1245,1266,1285,1306,1325,1345,1366,1386,1406,1426,1447,1466,1485,1506,1526,1546,1566,1585,1606,1625,1646,1667,1685,1707,1725,1745,1767,1786,1805,1826,1847,1866,1886,1905,1926,1946],"xSR":741.5,"ySR":573.95,"xT1":424.9,"yT1":0,"xT2":1058.1,"yT2":0,"toosoon":0,"cond_shown":"Congruent","ratio_trial":100,"L_num":1,"L_den":2,"R_num":18,"R_den":30,"correct_side":2,"subjID":"JuanPabloRoncancioVasquez33","gender":"0","school":"6","age":"12"},{"start_time":1551899894337,"click_time":1551899896222,"finger_time":1551899895842,"fix_duration":633.6260349852764,"trial":29,"RT":1505,"MT":380,"sideResp":2,"stimulus":[],"xmouse":[794,794,794,794,794,794,794,794,794,794,794,794,794,794,794,794,794,794,794,794,794,794,794,794,794,794,794,794,794,794,794,794,794,794,794,794,794,795,795,795,795,795,795,795,795,795,795,795,795,795,795,795,795,795,795,795,795,795,795,795,795,795,795,795,795,795,795,795,795,795,795,795,795,795,799,850,981,1194,1242,1267,1282,1287,1286,1287,1326,1353,1364,1362,1358,1352,1347,1342,1299,1206,1133],"ymouse":[603,603,603,603,603,603,603,603,603,603,603,603,603,603,603,603,603,603,603,603,603,603,603,603,603,603,603,603,603,603,603,603,603,603,603,603,603,603,603,603,603,603,603,603,603,603,603,603,603,603,603,603,603,603,603,603,603,603,603,603,603,603,603,603,603,603,603,603,603,603,603,603,603,603,602,577,524,431,386,339,277,218,90,16,0,0,0,0,0,0,0,0,0,6,28],"timestamp_mouse":[10,24,44,64,84,103,125,143,163,183,204,225,243,265,283,304,324,344,365,383,404,423,445,464,483,505,523,543,565,585,603,625,643,665,685,704,724,744,764,783,805,824,845,865,884,904,924,945,963,984,1005,1024,1043,1065,1084,1105,1123,1145,1164,1183,1205,1224,1244,1265,1284,1305,1324,1345,1365,1383,1405,1423,1443,1464,1485,1505,1524,1543,1564,1584,1605,1625,1644,1664,1684,1703,1724,1743,1764,1785,1805,1824,1845,1864,1885],"xSR":741.5,"ySR":573.95,"xT1":424.9,"yT1":0,"xT2":1058.1,"yT2":0,"toosoon":0,"cond_shown":"Congruent","ratio_trial":200,"L_num":3,"L_den":10,"R_num":7,"R_den":14,"correct_side":2,"subjID":"JuanPabloRoncancioVasquez33","gender":"0","school":"6","age":"12"},{"start_time":1551899898995,"click_time":1551899900802,"finger_time":1551899900362,"fix_duration":250,"trial":30,"RT":1367,"MT":440,"sideResp":2,"stimulus":[],"xmouse":[801,801,801,803,803,803,803,803,803,803,803,803,803,803,803,803,803,803,803,803,803,803,803,803,803,803,803,803,803,803,803,803,803,803,803,803,803,803,803,803,803,803,803,803,803,803,803,803,803,803,803,803,803,803,803,803,803,803,803,803,803,803,803,803,803,803,804,805,818,826,835,843,851,853,858,863,867,874,894,905,911,918,927,942,953,968,981,996,1012,1042,1062],"ymouse":[636,629,629,618,618,618,618,618,618,618,618,618,618,618,618,618,618,618,618,618,618,618,618,618,618,618,618,618,618,618,618,618,618,618,618,618,618,618,618,618,618,618,618,618,618,618,618,618,618,618,618,618,618,618,618,618,618,618,618,618,618,618,618,618,618,615,612,599,554,527,494,481,472,472,466,456,446,431,402,382,368,350,330,279,245,218,194,173,149,113,88],"timestamp_mouse":[11,34,45,66,87,105,126,146,166,185,205,227,246,265,287,306,326,346,367,386,406,425,446,466,485,506,527,546,567,585,606,625,646,665,686,705,727,747,765,787,806,826,845,867,887,905,926,947,966,987,1006,1026,1045,1066,1087,1106,1126,1147,1166,1185,1207,1227,1246,1267,1287,1305,1325,1346,1367,1385,1405,1426,1446,1467,1486,1507,1526,1547,1567,1586,1607,1626,1646,1667,1686,1706,1726,1747,1766,1786,1807],"xSR":741.5,"ySR":573.95,"xT1":424.9,"yT1":0,"xT2":1058.1,"yT2":0,"toosoon":0,"cond_shown":"Incongruent","ratio_trial":300,"L_num":13,"L_den":26,"R_num":12,"R_den":15,"correct_side":2,"subjID":"JuanPabloRoncancioVasquez33","gender":"0","school":"6","age":"12"},{"start_time":1551899902032,"click_time":1551899903901,"finger_time":1551899903541,"fix_duration":250,"trial":31,"RT":1509,"MT":360,"sideResp":1,"stimulus":[],"xmouse":[789,789,789,789,789,789,789,789,789,789,789,789,789,789,789,789,789,789,789,789,789,789,789,789,789,789,789,789,789,789,789,789,789,789,789,789,789,789,789,789,789,789,789,789,789,789,789,789,789,789,789,789,789,789,789,789,789,789,789,789,789,789,789,789,789,789,789,789,789,789,789,789,789,789,789,787,782,755,719,696,681,677,677,677,677,677,677,677,676,661,633,596,511,486],"ymouse":[604,604,604,604,604,604,604,604,604,604,604,604,604,604,604,604,604,604,604,604,604,604,604,604,604,604,604,604,604,604,604,604,604,604,604,604,604,604,604,604,604,604,604,604,604,604,604,604,604,604,604,604,604,604,604,604,604,604,604,604,604,604,604,604,604,604,604,604,604,604,604,604,604,601,593,569,533,401,268,197,158,144,142,142,142,142,142,142,142,139,135,127,103,92],"timestamp_mouse":[9,31,49,69,89,109,130,150,169,189,209,230,249,269,288,309,328,349,369,389,409,428,449,469,489,509,528,549,570,589,610,629,650,669,689,708,729,748,768,788,810,830,850,870,888,909,929,949,970,989,1010,1029,1050,1069,1089,1109,1128,1150,1169,1189,1209,1228,1250,1269,1289,1309,1330,1349,1369,1388,1408,1428,1449,1469,1489,1509,1529,1550,1568,1589,1610,1629,1650,1670,1689,1710,1730,1749,1769,1789,1809,1830,1849,1869],"xSR":741.5,"ySR":573.95,"xT1":424.9,"yT1":0,"xT2":1058.1,"yT2":0,"toosoon":0,"cond_shown":"Incongruent","ratio_trial":100,"L_num":8,"L_den":16,"R_num":6,"R_den":10,"correct_side":2,"subjID":"JuanPabloRoncancioVasquez33","gender":"0","school":"6","age":"12"},{"start_time":1551899907098,"click_time":1551899909182,"finger_time":1551899908661,"fix_duration":596.8588657191438,"trial":32,"RT":1563,"MT":521,"sideResp":2,"stimulus":[],"xmouse":[787,787,787,787,787,787,787,787,787,787,787,787,787,787,787,787,787,787,787,787,787,787,787,787,787,787,787,787,787,787,787,787,787,787,787,787,787,787,787,787,787,787,787,787,787,787,787,787,787,787,787,787,787,787,787,787,787,787,787,787,787,787,787,787,787,787,787,787,787,787,786,786,786,786,786,786,786,789,794,812,825,836,848,885,907,933,980,1015,1096,1133,1155,1176,1198,1236,1250,1260,1260,1258,1248,1246,1246,1246,1243,1224,1102],"ymouse":[644,644,644,644,644,644,644,644,644,644,644,644,644,644,644,644,644,644,644,644,644,644,644,644,644,644,644,644,644,644,644,644,644,644,644,644,644,644,644,644,644,644,644,644,644,644,644,644,644,644,644,644,644,644,644,644,644,644,644,644,644,644,644,644,644,644,644,644,644,644,642,640,639,636,628,621,610,587,569,530,509,485,465,407,382,362,338,327,311,299,285,263,226,105,33,0,0,0,0,0,0,0,0,9,65],"timestamp_mouse":[9,32,44,63,84,103,123,144,163,183,203,223,242,263,283,302,322,344,363,382,404,423,444,463,483,503,523,542,562,584,602,622,643,663,683,703,723,743,762,782,804,823,844,863,883,904,923,942,963,983,1002,1023,1043,1064,1084,1102,1122,1143,1164,1183,1204,1224,1242,1264,1283,1303,1324,1344,1364,1383,1403,1423,1444,1462,1484,1503,1522,1544,1563,1583,1602,1623,1644,1663,1682,1704,1724,1744,1763,1783,1803,1823,1843,1863,1883,1903,1923,1943,1964,1982,2003,2022,2043,2063,2083],"xSR":741.5,"ySR":573.95,"xT1":424.9,"yT1":0,"xT2":1058.1,"yT2":0,"toosoon":0,"cond_shown":"Incongruent","ratio_trial":200,"L_num":3,"L_den":10,"R_num":1,"R_den":2,"correct_side":2,"subjID":"JuanPabloRoncancioVasquez33","gender":"0","school":"6","age":"12"},{"start_time":1551899911981,"click_time":1551899913462,"finger_time":1551899913321,"fix_duration":1296.4688701670902,"trial":33,"RT":1340,"MT":141,"sideResp":1,"stimulus":[],"xmouse":[749,749,749,749,749,749,749,749,749,749,749,749,749,749,749,749,749,749,749,749,749,749,749,749,749,749,749,749,749,749,749,749,749,749,749,749,749,749,749,749,749,749,749,749,749,749,749,749,749,749,749,749,749,749,749,749,749,749,749,749,749,749,749,749,749,749,746,735,710,624,556,537,494,477,459],"ymouse":[621,621,621,621,621,621,621,621,621,621,621,621,621,621,621,621,621,621,621,621,621,621,621,621,621,621,621,621,621,621,621,621,621,621,621,621,621,621,621,621,621,621,621,621,621,621,621,621,621,621,621,621,621,621,621,621,621,621,621,621,621,621,621,621,621,621,617,603,574,451,331,294,186,124,66],"timestamp_mouse":[10,34,41,61,79,100,120,140,160,181,201,220,239,261,279,300,321,341,360,381,400,421,440,460,479,501,520,541,561,579,601,619,640,660,681,701,721,740,760,779,801,821,840,860,881,899,920,941,959,981,1000,1020,1040,1060,1080,1100,1120,1141,1161,1180,1200,1221,1241,1260,1280,1301,1320,1340,1359,1381,1400,1420,1441,1460,1481],"xSR":741.5,"ySR":573.95,"xT1":424.9,"yT1":0,"xT2":1058.1,"yT2":0,"toosoon":0,"cond_shown":"Congruent","ratio_trial":100,"L_num":9,"L_den":15,"R_num":8,"R_den":16,"correct_side":1,"subjID":"JuanPabloRoncancioVasquez33","gender":"0","school":"6","age":"12"},{"start_time":1551899915032,"click_time":1551899917380,"finger_time":1551899916881,"fix_duration":250,"trial":34,"RT":1849,"MT":499,"sideResp":2,"stimulus":[],"xmouse":[796,796,796,796,796,796,796,796,796,796,796,796,796,796,796,796,796,796,796,796,796,796,796,796,796,796,796,796,796,796,796,796,796,796,796,796,796,796,796,796,796,796,796,796,796,796,796,796,796,796,796,796,796,796,796,796,796,796,796,796,796,796,796,796,796,796,796,796,796,796,796,796,796,796,796,796,796,796,796,796,796,796,796,796,796,796,796,796,796,796,800,806,832,857,892,933,978,1050,1081,1090,1096,1103,1105,1108,1110,1112,1112,1112,1112,1112,1112,1112,1112,1112,1112,1112,1112,1112],"ymouse":[634,634,634,634,634,634,634,634,634,634,634,634,634,634,634,634,634,634,634,634,634,634,634,634,634,634,634,634,634,634,634,634,634,634,634,634,634,634,634,634,634,634,634,634,634,634,634,634,634,634,634,634,634,634,634,634,634,634,634,634,634,634,634,634,634,634,634,634,634,634,634,634,634,634,634,634,634,634,634,634,634,634,634,634,634,634,634,634,634,631,621,600,510,441,343,248,146,0,0,0,0,0,0,0,0,0,0,0,0,0,0,0,0,0,0,0,0,11],"timestamp_mouse":[9,36,50,70,90,110,129,149,169,190,209,230,248,269,289,309,330,348,369,389,409,429,449,468,490,509,528,548,569,588,610,629,649,669,688,710,728,749,768,788,809,829,849,868,888,910,929,948,968,988,1010,1030,1049,1070,1089,1109,1130,1148,1169,1189,1209,1230,1249,1268,1288,1310,1330,1350,1369,1390,1409,1429,1448,1469,1488,1509,1529,1549,1568,1588,1608,1629,1648,1670,1688,1709,1730,1749,1770,1789,1809,1829,1849,1869,1889,1909,1929,1949,1969,1988,2010,2030,2050,2070,2090,2110,2130,2149,2170,2189,2209,2229,2248,2270,2289,2309,2328,2348],"xSR":741.5,"ySR":573.95,"xT1":424.9,"yT1":0,"xT2":1058.1,"yT2":0,"toosoon":0,"cond_shown":"Congruent","ratio_trial":100,"L_num":6,"L_den":20,"R_num":5,"R_den":25,"correct_side":1,"subjID":"JuanPabloRoncancioVasquez33","gender":"0","school":"6","age":"12"},{"start_time":1551899919109,"click_time":1551899922781,"finger_time":1551899920862,"fix_duration":807.5972669260055,"trial":35,"RT":1753,"MT":1919,"sideResp":2,"stimulus":[],"xmouse":[756,756,756,756,756,756,756,756,756,756,756,756,756,756,756,756,756,756,756,756,756,756,756,756,756,756,756,756,756,756,756,756,756,756,756,756,756,756,756,754,753,753,753,752,752,752,752,752,752,752,752,752,752,752,752,752,752,751,751,751,751,751,751,751,751,755,758,769,780,780,780,780,780,780,771,766,765,765,767,775,790,800,805,805,805,806,797,714,660,638,635,635,637,662,743,811,871,924,924,924,924,924,918,832,746,660,582,570,570,571,610,702,834,1124,1238,1309,1339,1340,1340,1340,1337,1305,1089,823,719,432,297,237,231,275,397,589,830,1294,1456,1546,1547,1478,1333,1081,759,409,62,0,0,43,195,479,1282,1282,1282,1282,1282,1478,928,330,0,0,0,0,0,113,843,1234,1533,1533,1533,1533,1533,1533,1533,1533,1533,1533,1533,1533,1533,1533,1533,1533,1533,1552,1336,1084],"ymouse":[626,626,626,626,626,626,626,626,626,626,626,626,626,626,626,626,626,626,626,626,626,626,626,626,626,626,626,626,626,626,626,626,626,626,626,626,626,626,626,626,626,626,626,626,626,626,626,626,626,626,626,626,626,626,626,626,627,629,629,629,629,629,629,629,629,628,626,622,616,616,616,616,616,616,619,621,621,621,620,615,609,604,602,602,602,603,613,641,656,662,663,663,661,648,619,596,580,568,568,568,568,568,573,598,622,645,668,671,671,670,650,623,587,538,522,512,510,510,510,510,510,519,573,617,628,664,668,668,658,621,560,508,459,386,360,348,348,379,417,469,526,574,623,648,640,599,517,407,149,149,149,149,149,0,74,206,340,475,715,736,735,692,542,478,428,428,428,428,428,428,428,428,428,428,428,428,428,428,428,428,428,222,126,42],"timestamp_mouse":[13,37,52,73,92,112,131,151,172,193,212,232,252,273,292,313,331,352,372,392,412,433,451,472,492,513,532,552,571,592,611,632,653,672,691,712,731,751,773,793,811,831,853,872,892,912,933,951,973,991,1011,1033,1052,1071,1093,1113,1133,1151,1172,1193,1212,1232,1251,1272,1292,1311,1331,1352,1373,1391,1412,1432,1452,1471,1492,1513,1533,1553,1572,1592,1613,1633,1653,1672,1692,1712,1732,1753,1772,1792,1811,1831,1853,1872,1892,1911,1932,1953,1971,1993,2012,2032,2052,2072,2093,2111,2132,2152,2172,2193,2212,2232,2253,2271,2292,2313,2331,2351,2372,2392,2412,2432,2452,2472,2492,2513,2533,2551,2571,2592,2612,2633,2652,2672,2692,2711,2732,2753,2772,2791,2812,2832,2852,2871,2891,2913,2933,2952,2971,2991,3013,3031,3053,3072,3092,3113,3131,3151,3172,3193,3213,3233,3253,3272,3292,3312,3332,3352,3372,3392,3412,3432,3453,3473,3492,3512,3532,3552,3572,3591,3613,3632,3652,3672],"xSR":741.5,"ySR":573.95,"xT1":424.9,"yT1":0,"xT2":1058.1,"yT2":0,"toosoon":0,"cond_shown":"Congruent","ratio_trial":200,"L_num":9,"L_den":30,"R_num":13,"R_den":26,"correct_side":2,"subjID":"JuanPabloRoncancioVasquez33","gender":"0","school":"6","age":"12"},{"start_time":1551899929108,"click_time":1551899930862,"finger_time":1551899930381,"fix_duration":1486.3260684766408,"trial":36,"RT":1273,"MT":481,"sideResp":2,"stimulus":[],"xmouse":[787,787,787,787,787,787,787,787,787,787,787,787,787,787,787,787,787,787,787,787,787,787,787,787,787,787,787,787,787,787,787,787,787,787,787,787,787,787,787,787,787,787,787,787,787,787,787,787,787,787,787,787,787,787,787,787,787,787,787,787,787,790,792,815,830,880,929,993,1139,1197,1229,1244,1250,1250,1250,1250,1250,1250,1250,1250,1250,1250,1244,1236,1216,1197,1178,1143],"ymouse":[627,627,627,627,627,627,627,627,627,627,627,627,627,627,627,627,627,627,627,627,627,627,627,627,627,627,627,627,627,627,627,627,627,627,627,627,627,627,627,627,627,627,627,627,627,627,627,627,627,627,627,627,627,627,627,627,627,627,627,627,627,624,617,535,494,339,205,70,0,0,0,0,0,0,0,0,0,0,0,0,1,2,8,15,26,35,45,62],"timestamp_mouse":[12,37,52,74,94,113,134,153,174,194,212,232,253,272,294,312,333,353,373,392,414,433,453,473,494,512,534,552,573,593,613,633,653,673,693,714,732,754,772,793,813,834,854,873,892,913,934,953,973,994,1013,1033,1054,1073,1094,1113,1134,1152,1173,1194,1213,1234,1252,1273,1293,1313,1333,1353,1374,1393,1413,1434,1454,1473,1493,1514,1533,1552,1574,1593,1613,1633,1654,1672,1694,1714,1733,1754],"xSR":741.5,"ySR":573.95,"xT1":424.9,"yT1":0,"xT2":1058.1,"yT2":0,"toosoon":0,"cond_shown":"Incongruent","ratio_trial":200,"L_num":7,"L_den":10,"R_num":12,"R_den":24,"correct_side":1,"subjID":"JuanPabloRoncancioVasquez33","gender":"0","school":"6","age":"12"},{"start_time":1551899933454,"click_time":1551899935521,"finger_time":1551899935022,"fix_duration":250,"trial":37,"RT":1568,"MT":499,"sideResp":1,"stimulus":[],"xmouse":[770,770,770,770,770,770,770,770,770,770,770,770,770,770,770,770,770,770,770,770,770,770,770,770,770,770,770,770,770,770,770,770,770,770,770,770,770,770,770,770,770,770,770,770,770,770,770,770,770,770,770,770,770,770,770,770,770,770,770,770,770,770,770,770,770,770,770,770,770,770,770,770,770,770,770,770,765,763,751,737,719,671,653,631,611,595,565,556,547,545,543,543,543,543,543,543,543,543,543,543,543,538,531,521],"ymouse":[625,622,622,622,622,622,622,622,622,622,622,622,622,622,622,622,622,622,622,622,622,622,622,622,622,622,622,622,622,622,622,622,622,622,622,622,622,622,622,622,622,622,622,622,622,622,622,622,622,622,622,622,622,622,622,622,622,622,622,622,622,622,622,622,622,622,622,622,622,622,622,622,622,622,622,617,601,594,564,534,498,416,380,340,301,266,199,174,141,127,117,112,111,111,111,111,111,111,111,111,110,104,97,89],"timestamp_mouse":[6,26,47,68,86,108,127,146,168,187,207,228,248,267,287,308,327,347,367,386,407,427,448,468,488,506,527,546,568,586,607,627,647,668,687,707,727,747,767,787,806,827,846,867,888,907,927,947,967,988,1007,1028,1046,1067,1087,1108,1126,1147,1167,1187,1207,1226,1247,1267,1287,1308,1327,1346,1367,1386,1408,1427,1448,1467,1488,1506,1527,1547,1568,1588,1606,1626,1646,1667,1687,1707,1728,1748,1767,1787,1808,1827,1846,1868,1888,1908,1928,1946,1968,1987,2007,2028,2046,2067],"xSR":741.5,"ySR":573.95,"xT1":424.9,"yT1":0,"xT2":1058.1,"yT2":0,"toosoon":0,"cond_shown":"Incongruent","ratio_trial":300,"L_num":1,"L_den":2,"R_num":2,"R_den":10,"correct_side":1,"subjID":"JuanPabloRoncancioVasquez33","gender":"0","school":"6","age":"12"},{"start_time":1551899937487,"click_time":1551899940262,"finger_time":1551899938081,"fix_duration":1205.4511117598347,"trial":38,"RT":594,"MT":2181,"sideResp":1,"stimulus":[],"xmouse":[817,817,817,817,817,817,817,817,817,817,817,817,817,817,817,817,817,817,817,817,817,817,817,817,817,817,816,811,804,785,776,768,754,745,730,728,728,728,728,728,728,728,728,728,728,728,728,728,728,727,725,722,718,715,706,702,699,699,700,713,719,724,728,745,756,767,789,803,812,820,821,821,818,810,798,793,787,785,784,784,784,784,784,784,784,784,784,784,784,784,784,784,784,784,784,784,791,800,818,833,853,873,891,914,977,1011,1026,1034,1037,1037,1038,1038,1038,1038,1032,1003,978,954,932,901,890,876,863,847,804,772,750,727,705,658,637,623,614,611,609,595,575,547,488],"ymouse":[637,637,637,637,637,637,637,637,637,637,637,637,637,637,637,637,637,637,637,637,637,637,637,637,632,630,618,607,591,562,548,538,524,515,500,499,499,499,499,499,499,499,499,499,499,499,499,499,499,499,503,511,519,530,563,582,612,632,655,688,698,705,709,714,717,718,721,722,722,719,714,704,689,674,644,630,615,610,607,607,607,607,607,607,607,607,607,607,607,607,607,607,607,606,602,598,583,567,526,491,448,402,354,307,205,158,136,120,116,115,114,114,114,114,114,122,130,138,142,149,149,149,149,149,148,142,135,130,125,110,106,102,102,101,101,101,100,95,86],"timestamp_mouse":[13,41,54,75,93,114,135,155,173,194,215,234,254,275,294,315,335,353,374,394,413,434,453,475,494,514,535,554,574,594,614,634,654,674,694,714,735,755,774,794,815,833,854,874,895,915,933,953,975,993,1015,1035,1054,1074,1095,1114,1133,1153,1174,1194,1214,1235,1254,1275,1294,1313,1334,1354,1374,1394,1414,1435,1455,1474,1495,1514,1533,1553,1575,1594,1614,1634,1655,1673,1695,1714,1734,1755,1775,1795,1814,1833,1854,1874,1894,1915,1935,1954,1974,1993,2015,2035,2055,2075,2094,2114,2134,2155,2174,2193,2213,2234,2255,2275,2294,2315,2334,2353,2375,2394,2413,2434,2455,2474,2494,2514,2533,2555,2574,2594,2614,2634,2655,2675,2694,2714,2734,2755,2775],"xSR":741.5,"ySR":573.95,"xT1":424.9,"yT1":0,"xT2":1058.1,"yT2":0,"toosoon":0,"cond_shown":"Incongruent","ratio_trial":200,"L_num":1,"L_den":3,"R_num":2,"R_den":15,"correct_side":1,"subjID":"JuanPabloRoncancioVasquez33","gender":"0","school":"6","age":"12"},{"start_time":1551899943143,"click_time":1551899968261,"finger_time":1551899945302,"fix_duration":339.61220598707433,"trial":39,"RT":2159,"MT":22959,"sideResp":2,"stimulus":[],"xmouse":[834,834,834,834,832,823,817,814,812,810,810,810,810,810,810,810,810,810,810,810,810,810,810,810,810,810,810,810,810,810,810,810,810,810,810,810,810,810,810,810,810,810,810,810,810,810,810,810,810,810,810,810,810,810,810,810,810,810,810,810,810,810,810,810,810,810,810,810,810,810,810,810,810,810,810,810,810,810,810,810,810,809,808,806,801,798,797,797,797,797,797,797,797,797,797,797,797,797,797,797,797,797,797,797,797,795,788,788,789,794,796,797,797,797,797,797,797,797,797,797,797,797,797,797,797,797,797,797,797,797,797,797,797,797,797,797,797,797,797,797,797,797,797,797,797,797,797,797,796,793,787,770,766,766,766,766,766,766,766,766,766,766,766,765,764,764,764,764,764,764,764,764,764,764,764,764,764,764,764,764,764,764,764,764,764,764,764,764,764,764,764,764,764,764,764,764,764,764,764,764,764,764,764,764,764,764,764,764,764,764,764,764,764,764,764,764,764,764,764,764,764,764,764,764,764,764,764,764,764,764,764,764,764,764,764,764,764,764,764,764,764,764,764,764,764,764,764,764,764,764,764,764,764,764,764,764,764,764,764,764,764,764,764,764,764,764,764,764,764,764,764,764,764,764,764,764,764,764,764,764,764,764,764,764,764,764,764,764,764,764,764,764,764,764,764,764,764,764,764,764,764,764,764,764,764,764,764,764,764,764,764,764,764,764,764,764,764,764,764,764,764,764,764,764,764,764,764,764,764,764,764,764,764,764,764,764,764,764,764,764,764,764,764,764,764,764,764,764,764,764,764,764,764,764,764,764,764,764,764,764,764,764,764,764,764,764,764,764,764,764,764,764,764,764,764,764,764,764,764,764,764,764,764,764,764,764,764,764,764,764,764,764,764,764,764,764,764,764,764,764,764,764,764,764,764,764,764,764,764,764,764,764,764,764,764,764,764,764,764,764,764,764,764,764,764,764,764,764,764,764,764,764,764,764,764,764,764,764,764,764,764,764,764,764,764,764,764,764,764,764,764,764,764,764,764,764,764,764,764,764,764,764,764,764,764,764,764,764,764,764,764,764,764,764,764,764,764,764,764,764,764,764,764,764,764,764,764,764,764,764,764,764,764,764,764,764,764,764,764,764,764,764,764,764,764,764,764,764,764,764,764,764,764,764,764,764,764,764,764,764,764,764,764,764,764,764,764,764,764,764,764,764,764,764,764,764,764,764,764,764,764,764,764,764,764,764,764,764,764,764,764,764,764,764,764,764,764,764,764,764,764,764,764,764,764,764,764,764,764,764,764,764,764,764,764,764,764,764,764,764,764,764,764,764,764,764,764,764,764,764,764,764,764,764,764,764,764,764,764,764,764,764,764,764,764,764,764,764,764,764,764,764,764,764,764,764,764,764,764,764,764,764,764,764,764,764,764,764,764,764,764,764,764,764,764,764,764,764,764,764,764,764,764,764,764,764,764,764,764,764,764,764,764,764,764,764,764,764,764,764,764,764,764,764,764,764,764,764,764,764,764,764,764,764,764,764,764,764,764,764,764,764,764,764,764,764,764,764,764,764,764,764,764,764,764,764,764,764,764,764,764,764,764,764,764,764,764,764,764,764,764,764,764,764,764,764,764,764,764,764,764,764,764,764,764,764,764,764,764,764,764,764,764,764,764,764,764,764,764,764,764,764,764,764,764,764,764,764,764,764,764,764,764,764,764,764,764,764,764,764,764,764,764,764,764,764,764,764,764,764,764,764,764,764,764,764,764,764,764,764,764,764,764,764,764,764,764,764,764,764,764,764,764,764,764,764,764,764,764,764,764,764,764,764,764,764,764,764,764,764,764,764,764,764,764,764,764,764,764,764,764,764,764,764,764,764,764,764,764,764,764,764,764,764,764,764,764,764,764,764,764,764,764,764,764,764,764,764,764,764,764,764,764,764,764,764,764,764,764,764,764,764,764,764,764,764,764,764,764,764,764,764,764,764,764,764,764,764,764,764,764,764,764,764,764,764,764,764,764,764,764,764,764,764,764,764,764,764,764,764,764,764,764,764,764,764,764,764,764,764,764,764,764,764,764,764,764,764,764,764,764,764,764,764,764,764,764,764,764,764,764,764,764,764,764,764,764,764,764,764,764,764,764,764,764,764,764,764,764,764,764,764,764,764,764,764,764,764,764,764,764,764,764,764,764,764,764,764,764,764,764,764,764,764,764,764,764,764,764,764,764,764,764,764,764,764,764,764,764,764,764,764,764,764,764,764,764,764,764,764,764,764,764,764,764,764,764,764,764,764,764,764,764,764,764,764,764,764,764,764,764,764,764,764,764,764,764,764,764,764,764,764,764,764,764,764,764,764,764,764,764,764,764,764,764,764,764,764,764,764,764,764,764,764,764,764,764,764,764,764,764,764,764,764,764,764,764,764,764,764,764,764,764,764,764,764,764,764,764,764,764,764,764,764,764,764,764,764,764,764,764,764,764,764,764,764,764,764,764,764,764,764,764,764,764,764,764,764,764,764,764,764,764,764,764,764,764,764,764,764,764,764,764,764,764,764,764,764,764,764,764,764,764,764,764,764,764,764,764,764,764,764,764,764,764,764,764,764,764,764,764,764,764,764,764,764,764,764,764,764,764,764,764,764,764,764,764,764,764,764,764,764,764,764,764,764,764,764,764,764,764,764,764,764,764,764,764,764,764,764,764,764,764,764,764,764,764,764,764,764,764,764,764,764,764,764,764,764,764,764,764,764,764,764,764,764,764,764,764,758,754,754,754,754,754,754,754,762,774,778,780,780,780,780,780,780,780,788,824,896,1084,1179,1246,1304,1318,1326,1326,1325,1325,1325,1324,1314,1279,1234,1177,1133],"ymouse":[659,659,659,659,658,646,640,636,634,631,631,631,631,631,631,631,631,631,631,631,631,631,631,631,631,631,631,631,631,631,631,631,631,631,631,631,631,631,631,631,631,631,631,631,631,631,631,631,631,631,631,631,631,631,631,631,631,631,631,631,631,631,631,631,631,631,631,631,631,631,631,631,631,631,631,631,631,631,631,631,631,634,637,645,655,664,665,666,666,666,666,666,666,666,666,666,666,666,666,666,666,666,666,666,667,669,673,674,676,678,679,679,679,679,679,679,679,679,679,679,679,679,679,679,679,679,679,679,679,679,679,679,679,679,679,679,679,679,679,679,679,679,679,679,679,679,679,679,679,675,668,650,647,646,646,646,646,646,646,646,646,646,645,644,643,643,643,643,643,643,643,643,643,647,651,651,651,651,651,651,651,651,651,651,651,651,651,651,651,651,651,651,651,651,651,651,651,651,651,651,651,651,651,651,651,651,651,651,651,651,651,651,651,651,651,651,651,651,651,651,651,651,651,651,651,651,651,651,651,651,651,651,651,651,651,651,651,651,651,651,651,651,651,651,651,651,651,651,651,651,651,651,651,651,651,651,651,651,651,651,651,651,651,651,651,651,651,651,651,651,651,651,651,651,651,651,651,651,651,651,651,651,651,651,651,651,651,651,651,651,651,651,651,651,651,651,651,651,651,651,651,651,651,651,651,651,651,651,651,651,651,651,651,651,651,651,651,651,651,651,651,651,651,651,651,651,651,651,651,651,651,651,651,651,651,651,651,651,651,651,651,651,651,651,651,651,651,651,651,651,651,651,651,651,651,651,651,651,651,651,651,651,651,651,651,651,651,651,651,651,651,651,651,651,651,651,651,651,651,651,651,651,651,651,651,651,651,651,651,651,651,651,651,651,651,651,651,651,651,651,651,651,651,651,651,651,651,651,651,651,651,651,651,651,651,651,651,651,651,651,651,651,651,651,651,651,651,651,651,651,651,651,651,651,651,651,651,651,651,651,651,651,651,651,651,651,651,651,651,651,651,651,651,651,651,651,651,651,651,651,651,651,651,651,651,651,651,651,651,651,651,651,651,651,651,651,651,651,651,651,651,651,651,651,651,651,651,651,651,651,651,651,651,651,651,651,651,651,651,651,651,651,651,651,651,651,651,651,651,651,651,651,651,651,651,651,651,651,651,651,651,651,651,651,651,651,651,651,651,651,651,651,651,651,651,651,651,651,651,651,651,651,651,651,651,651,651,651,651,651,651,651,651,651,651,651,651,651,651,651,651,651,651,651,651,651,651,651,651,651,651,651,651,651,651,651,651,651,651,651,651,651,651,651,651,651,651,651,651,651,651,651,651,651,651,651,651,651,651,651,651,651,651,651,651,651,651,651,651,651,651,651,651,651,651,651,651,651,651,651,651,651,651,651,651,651,651,651,651,651,651,651,651,651,651,651,651,651,651,651,651,651,651,651,651,651,651,651,651,651,651,651,651,651,651,651,651,651,651,651,651,651,651,651,651,651,651,651,651,651,651,651,651,651,651,651,651,651,651,651,651,651,651,651,651,651,651,651,651,651,651,651,651,651,651,651,651,651,651,651,651,651,651,651,651,651,651,651,651,651,651,651,651,651,651,651,651,651,651,651,651,651,651,651,651,651,651,651,651,651,651,651,651,651,651,651,651,651,651,651,651,651,651,651,651,651,651,651,651,651,651,651,651,651,651,651,651,651,651,651,651,651,651,651,651,651,651,651,651,651,651,651,651,651,651,651,651,651,651,651,651,651,651,651,651,651,651,651,651,651,651,651,651,651,651,651,651,651,651,651,651,651,651,651,651,651,651,651,651,651,651,651,651,651,651,651,651,651,651,651,651,651,651,651,651,651,651,651,651,651,651,651,651,651,651,651,651,651,651,651,651,651,651,651,651,651,651,651,651,651,651,651,651,651,651,651,651,651,651,651,651,651,651,651,651,651,651,651,651,651,651,651,651,651,651,651,651,651,651,651,651,651,651,651,651,651,651,651,651,651,651,651,651,651,651,651,651,651,651,651,651,651,651,651,651,651,651,651,651,651,651,651,651,651,651,651,651,651,651,651,651,651,651,651,651,651,651,651,651,651,651,651,651,651,651,651,651,651,651,651,651,651,651,651,651,651,651,651,651,651,651,651,651,651,651,651,651,651,651,651,651,651,651,651,651,651,651,651,651,651,651,651,651,651,651,651,651,651,651,651,651,651,651,651,651,651,651,651,651,651,651,651,651,651,651,651,651,651,651,651,651,651,651,651,651,651,651,651,651,651,651,651,651,651,651,651,651,651,651,651,651,651,651,651,651,651,651,651,651,651,651,651,651,651,651,651,651,651,651,651,651,651,651,651,651,651,651,651,651,651,651,651,651,651,651,651,651,651,651,651,651,651,651,651,651,651,651,651,651,651,651,651,651,651,651,651,651,651,651,651,651,651,651,651,651,651,651,651,651,651,651,651,651,651,651,651,651,651,651,651,651,651,651,651,651,651,651,651,651,651,651,651,651,651,651,651,65