[{"start_time":1551899879464,"click_time":1551899883371,"finger_time":1551899879475,"fix_duration":1047.2264444686705,"trial":0,"RT":11,"MT":3896,"sideResp":1,"stimulus":[],"xmouse":[903,912,920,920,924,924,927,928,929,929,929,929,929,929,930,930,930,930,930,930,930,930,930,930,930,930,930,930,930,930,930,930,930,930,930,930,930,930,930,930,930,930,930,930,930,930,930,930,930,930,930,930,930,930,930,930,930,930,930,930,930,930,930,930,930,930,930,930,930,930,930,930,930,930,930,930,930,930,930,930,930,900,811,770,722,702,690,689,689,689,689,689,689,689,689,689,701,738,752,760,763,763,763,763,763,763,763,763,763,763,763,763,763,763,763,763,763,763,763,763,763,763,763,763,763,763,763,763,763,763,763,763,763,763,763,763,763,763,763,763,763,763,763,763,763,763,763,763,763,763,763,763,763,763,763,763,763,763,763,763,763,763,763,763,763,763,763,763,763,763,763,763,763,763,763,763,763,763,763,763,763,763,763,763,763,763,763,763,763,763,763,746,662,557,485,435],"ymouse":[605,605,605,605,603,603,602,601,601,601,600,600,600,600,598,597,597,597,597,597,597,597,597,597,597,597,597,597,597,597,597,597,597,597,597,597,597,597,597,597,597,597,597,597,597,597,597,597,597,597,597,597,597,597,597,597,597,597,597,597,597,597,597,597,597,597,597,597,597,597,597,597,597,597,597,597,597,597,597,597,597,591,581,576,568,562,559,558,558,558,558,558,558,558,558,558,558,558,558,558,558,558,558,558,558,558,558,558,558,558,558,558,558,558,558,558,558,558,558,558,558,558,558,558,558,558,558,558,558,558,558,558,558,558,558,558,558,558,558,558,558,558,558,558,558,558,558,558,558,558,558,558,558,558,558,558,558,558,558,558,558,558,558,558,558,558,558,558,558,558,558,558,558,558,558,558,558,558,558,558,558,558,558,558,558,558,558,558,558,556,548,508,347,193,105,37],"timestamp_mouse":[11,27,57,67,100,108,130,148,167,188,207,228,248,269,288,308,328,347,368,387,408,427,447,467,487,507,527,547,568,588,609,628,649,668,688,707,727,748,768,788,809,828,848,868,887,907,928,948,968,988,1008,1027,1049,1068,1088,1108,1127,1148,1167,1187,1207,1227,1247,1268,1288,1308,1329,1349,1368,1388,1408,1428,1447,1467,1487,1508,1527,1548,1567,1588,1609,1627,1647,1669,1688,1709,1731,1756,1768,1787,1808,1828,1848,1868,1889,1909,1928,1948,1968,1988,2009,2027,2047,2068,2088,2109,2127,2148,2168,2188,2208,2227,2249,2269,2287,2307,2329,2349,2368,2387,2407,2428,2447,2468,2488,2507,2528,2548,2567,2587,2608,2628,2649,2669,2687,2708,2729,2748,2769,2787,2807,2829,2849,2868,2887,2908,2929,2948,2968,2987,3009,3028,3049,3067,3088,3108,3128,3149,3167,3188,3208,3229,3248,3269,3288,3307,3329,3347,3367,3389,3409,3428,3449,3468,3488,3507,3529,3547,3568,3587,3609,3629,3649,3667,3688,3707,3728,3749,3767,3788,3808,3828,3847,3877,3893,3907],"xSR":741.5,"ySR":501.8,"xT1":424.9,"yT1":0,"xT2":1058.1,"yT2":0,"toosoon":0,"cond_shown":"Incongruent","ratio_trial":300,"L_num":8,"L_den":10,"R_num":9,"R_den":18,"correct_side":1,"subjID":"JuanPabloSepulvedaCastro30","gender":"0","age":"11","school":"6","test":{"fix_dur":[250,1500],"timestim":1000,"targets_dim":[100,100],"targets_relative_coord":[0.3,0.7],"size_stim":[880,420],"start_dim":[100,100],"size_start":[300,300],"size_fix":60,"samplingrate":20,"img_types":["Congruent","Incongruent"],"ratios":[100,200,300],"rep_conds":19,"nTrials":120,"trials_to_rest":500,"Trials_order":[17,25,62,5,114,90,66,77,35,39,83,54,33,24,31,48,101,23,91,79,12,10,104,87,55,16,6,73,69,45,32,71,76,65,21,18,1,40,89,3,88,41,96,99,70,57,20,29,58,60,46,30,112,105,119,38,81,82,103,107,2,113,64,106,80,78,117,102,14,34,37,74,43,15,4,100,94,84,7,110,118,61,111,26,8,98,97,95,63,68,44,52,27,86,11,92,13,42,59,109,53,116,51,22,56,0,47,115,67,49,72,19,93,9,108,85,36,28,75,50],"cond_shown":["Incongruent","Incongruent","Congruent","Incongruent","Congruent","Congruent","Congruent","Incongruent","Incongruent","Incongruent","Incongruent","Congruent","Incongruent","Congruent","Incongruent","Congruent","Incongruent","Incongruent","Incongruent","Incongruent","Congruent","Congruent","Congruent","Incongruent","Incongruent","Congruent","Congruent","Incongruent","Incongruent","Incongruent","Congruent","Incongruent","Congruent","Incongruent","Incongruent","Congruent","Incongruent","Congruent","Incongruent","Incongruent","Congruent","Incongruent","Congruent","Incongruent","Congruent","Incongruent","Congruent","Incongruent","Congruent","Congruent","Congruent","Congruent","Congruent","Incongruent","Incongruent","Congruent","Incongruent","Congruent","Incongruent","Incongruent","Congruent","Incongruent","Congruent","Congruent","Congruent","Congruent","Incongruent","Congruent","Congruent","Congruent","Incongruent","Congruent","Incongruent","Incongruent","Congruent","Congruent","Congruent","Congruent","Incongruent","Congruent","Congruent","Incongruent","Incongruent","Congruent","Congruent","Congruent","Incongruent","Incongruent","Incongruent","Congruent","Congruent","Congruent","Incongruent","Congruent","Incongruent","Congruent","Incongruent","Congruent","Incongruent","Incongruent","Incongruent","Congruent","Incongruent","Congruent","Congruent","Congruent","Incongruent","Incongruent","Incongruent","Incongruent","Congruent","Incongruent","Incongruent","Incongruent","Congruent","Incongruent","Congruent","Congruent","Incongruent","Congruent"],"ratio_trial":[300,100,200,300,100,100,100,300,300,200,300,100,200,100,100,100,300,300,100,100,100,300,200,200,100,300,100,100,200,200,200,300,300,300,200,100,100,300,300,200,300,300,100,200,300,200,200,300,300,100,300,100,300,200,300,200,200,300,100,300,200,300,300,300,200,100,200,100,200,300,100,200,100,200,300,300,300,100,100,200,300,100,200,200,200,200,100,300,200,200,200,300,200,200,300,200,100,100,300,100,300,200,200,300,200,100,300,100,100,100,100,100,200,200,100,100,100,300,200,200],"left_num":[8,6,4,2,9,1,3,8,7,7,13,9,4,2,3,9,13,4,6,4,10,1,9,7,9,3,7,13,4,7,3,4,8,1,7,11,3,24,3,1,2,4,11,14,2,14,13,1,20,7,5,2,11,1,7,1,4,24,17,8,9,4,4,5,8,7,7,9,7,7,8,12,2,7,20,1,1,8,8,6,20,6,7,21,6,5,8,8,11,16,11,1,4,12,2,3,1,15,13,11,4,16,7,2,1,6,3,11,13,13,3,9,4,7,7,12,2,20,4,13],"right_num":[9,7,3,6,8,3,4,9,8,8,12,8,14,11,8,8,12,2,11,8,3,6,4,14,13,11,15,12,14,6,11,8,10,3,12,6,7,8,4,2,12,2,4,6,10,12,14,2,14,15,7,11,4,2,8,21,1,2,10,14,13,2,2,7,2,9,14,8,18,20,1,6,6,4,14,3,11,2,1,7,13,3,6,2,7,14,1,14,3,9,3,6,1,6,6,11,8,13,12,9,6,12,12,12,21,5,4,9,12,6,4,13,1,4,9,9,6,13,6,14],"left_den":[10,10,8,4,15,2,20,10,10,10,26,15,6,5,5,15,26,20,10,8,25,5,20,10,15,12,14,26,6,15,10,5,15,2,10,22,9,30,6,3,10,20,22,30,20,30,26,2,25,14,25,5,22,3,10,2,30,30,30,10,30,20,5,25,15,14,10,15,15,14,20,15,4,15,25,5,5,16,20,12,25,12,15,30,12,10,20,10,20,30,22,5,30,15,4,10,2,25,26,22,5,20,10,10,2,20,6,22,26,26,20,15,30,15,14,24,5,25,5,26],"right_den":[18,14,10,30,16,5,16,18,20,16,15,16,30,22,16,16,15,4,22,20,10,12,16,28,26,20,25,20,30,9,22,16,12,15,24,15,30,16,20,15,24,4,10,9,25,18,20,10,28,25,14,22,20,15,20,30,3,4,15,28,26,4,4,14,6,15,28,16,27,25,2,10,15,6,28,6,22,5,2,10,26,5,9,4,10,20,2,28,4,27,10,12,3,10,30,22,20,26,15,15,12,20,24,24,30,25,20,15,20,10,16,26,3,6,15,15,12,26,10,20],"correct_side":[1,1,1,1,1,2,2,1,1,1,2,1,1,2,1,1,2,2,1,1,1,2,1,1,1,2,2,2,1,2,2,1,2,1,1,1,1,1,1,1,2,2,1,2,2,2,2,1,1,2,2,2,1,1,1,2,2,1,2,1,2,2,1,2,1,2,1,1,2,2,2,1,1,2,1,2,2,1,2,2,1,2,2,1,2,2,2,1,2,1,1,2,2,1,1,2,1,1,2,2,1,1,1,2,2,1,1,2,2,2,2,1,2,2,2,2,2,1,1,2],"img_shown":["img2/300/Incongruent/L/I_Dist_300_LN_8_LD_10_RN_9_RD_18_0.png","img2/100/Incongruent/L/I_Dist_100_LN_6_LD_10_RN_7_RD_14_0.png","img2/200/Congruent/L/C_Dist_200_LN_4_LD_8_RN_3_RD_10_0.png","img2/300/Incongruent/L/I_Dist_300_LN_2_LD_4_RN_6_RD_30_0.png","img2/100/Congruent/L/C_Dist_100_LN_9_LD_15_RN_8_RD_16_0.png","img2/100/Congruent/R/C_Dist_100_LN_1_LD_2_RN_3_RD_5_1.png","img2/100/Congruent/R/C_Dist_100_LN_3_LD_20_RN_4_RD_16_1.png","img2/300/Incongruent/L/I_Dist_300_LN_8_LD_10_RN_9_RD_18_0.png","img2/300/Incongruent/L/I_Dist_300_LN_7_LD_10_RN_8_RD_20_0.png","img2/200/Incongruent/L/I_Dist_200_LN_7_LD_10_RN_8_RD_16_0.png","img2/300/Incongruent/R/I_Dist_300_LN_13_LD_26_RN_12_RD_15_1.png","img2/100/Congruent/L/C_Dist_100_LN_9_LD_15_RN_8_RD_16_0.png","img2/200/Incongruent/L/I_Dist_200_LN_4_LD_6_RN_14_RD_30_0.png","img2/100/Congruent/R/C_Dist_100_LN_2_LD_5_RN_11_RD_22_1.png","img2/100/Incongruent/L/I_Dist_100_LN_3_LD_5_RN_8_RD_16_0.png","img2/100/Congruent/L/C_Dist_100_LN_9_LD_15_RN_8_RD_16_0.png","img2/300/Incongruent/R/I_Dist_300_LN_13_LD_26_RN_12_RD_15_1.png","img2/300/Incongruent/R/I_Dist_300_LN_4_LD_20_RN_2_RD_4_1.png","img2/100/Incongruent/L/I_Dist_100_LN_6_LD_10_RN_11_RD_22_0.png","img2/100/Incongruent/L/I_Dist_100_LN_4_LD_8_RN_8_RD_20_0.png","img2/100/Congruent/L/C_Dist_100_LN_10_LD_25_RN_3_RD_10_0.png","img2/300/Congruent/R/C_Dist_300_LN_1_LD_5_RN_6_RD_12_1.png","img2/200/Congruent/L/C_Dist_200_LN_9_LD_20_RN_4_RD_16_0.png","img2/200/Incongruent/L/I_Dist_200_LN_7_LD_10_RN_14_RD_28_0.png","img2/100/Incongruent/L/I_Dist_100_LN_9_LD_15_RN_13_RD_26_0.png","img2/300/Congruent/R/C_Dist_300_LN_3_LD_12_RN_11_RD_20_1.png","img2/100/Congruent/R/C_Dist_100_LN_7_LD_14_RN_15_RD_25_1.png","img2/100/Incongruent/R/I_Dist_100_LN_13_LD_26_RN_12_RD_20_1.png","img2/200/Incongruent/L/I_Dist_200_LN_4_LD_6_RN_14_RD_30_0.png","img2/200/Incongruent/R/I_Dist_200_LN_7_LD_15_RN_6_RD_9_1.png","img2/200/Congruent/R/C_Dist_200_LN_3_LD_10_RN_11_RD_22_1.png","img2/300/Incongruent/L/I_Dist_300_LN_4_LD_5_RN_8_RD_16_0.png","img2/300/Congruent/R/C_Dist_300_LN_8_LD_15_RN_10_RD_12_1.png","img2/300/Incongruent/L/I_Dist_300_LN_1_LD_2_RN_3_RD_15_0.png","img2/200/Incongruent/L/I_Dist_200_LN_7_LD_10_RN_12_RD_24_0.png","img2/100/Congruent/L/C_Dist_100_LN_11_LD_22_RN_6_RD_15_0.png","img2/100/Incongruent/L/I_Dist_100_LN_3_LD_9_RN_7_RD_30_0.png","img2/300/Congruent/L/C_Dist_300_LN_24_LD_30_RN_8_RD_16_0.png","img2/300/Incongruent/L/I_Dist_300_LN_3_LD_6_RN_4_RD_20_0.png","img2/200/Incongruent/L/I_Dist_200_LN_1_LD_3_RN_2_RD_15_0.png","img2/300/Congruent/R/C_Dist_300_LN_2_LD_10_RN_12_RD_24_1.png","img2/300/Incongruent/R/I_Dist_300_LN_4_LD_20_RN_2_RD_4_1.png","img2/100/Congruent/L/C_Dist_100_LN_11_LD_22_RN_4_RD_10_0.png","img2/200/Incongruent/R/I_Dist_200_LN_14_LD_30_RN_6_RD_9_1.png","img2/300/Congruent/R/C_Dist_300_LN_2_LD_20_RN_10_RD_25_1.png","img2/200/Incongruent/R/I_Dist_200_LN_14_LD_30_RN_12_RD_18_1.png","img2/200/Congruent/R/C_Dist_200_LN_13_LD_26_RN_14_RD_20_1.png","img2/300/Incongruent/L/I_Dist_300_LN_1_LD_2_RN_2_RD_10_0.png","img2/300/Congruent/L/C_Dist_300_LN_20_LD_25_RN_14_RD_28_0.png","img2/100/Congruent/R/C_Dist_100_LN_7_LD_14_RN_15_RD_25_1.png","img2/300/Congruent/R/C_Dist_300_LN_5_LD_25_RN_7_RD_14_1.png","img2/100/Congruent/R/C_Dist_100_LN_2_LD_5_RN_11_RD_22_1.png","img2/300/Congruent/L/C_Dist_300_LN_11_LD_22_RN_4_RD_20_0.png","img2/200/Incongruent/L/I_Dist_200_LN_1_LD_3_RN_2_RD_15_0.png","img2/300/Incongruent/L/I_Dist_300_LN_7_LD_10_RN_8_RD_20_0.png","img2/200/Congruent/R/C_Dist_200_LN_1_LD_2_RN_21_RD_30_1.png","img2/200/Incongruent/R/I_Dist_200_LN_4_LD_30_RN_1_RD_3_1.png","img2/300/Congruent/L/C_Dist_300_LN_24_LD_30_RN_2_RD_4_0.png","img2/100/Incongruent/R/I_Dist_100_LN_17_LD_30_RN_10_RD_15_1.png","img2/300/Incongruent/L/I_Dist_300_LN_8_LD_10_RN_14_RD_28_0.png","img2/200/Congruent/R/C_Dist_200_LN_9_LD_30_RN_13_RD_26_1.png","img2/300/Incongruent/R/I_Dist_300_LN_4_LD_20_RN_2_RD_4_1.png","img2/300/Congruent/L/C_Dist_300_LN_4_LD_5_RN_2_RD_4_0.png","img2/300/Congruent/R/C_Dist_300_LN_5_LD_25_RN_7_RD_14_1.png","img2/200/Congruent/L/C_Dist_200_LN_8_LD_15_RN_2_RD_6_0.png","img2/100/Congruent/R/C_Dist_100_LN_7_LD_14_RN_9_RD_15_1.png","img2/200/Incongruent/L/I_Dist_200_LN_7_LD_10_RN_14_RD_28_0.png","img2/100/Congruent/L/C_Dist_100_LN_9_LD_15_RN_8_RD_16_0.png","img2/200/Congruent/R/C_Dist_200_LN_7_LD_15_RN_18_RD_27_1.png","img2/300/Congruent/R/C_Dist_300_LN_7_LD_14_RN_20_RD_25_1.png","img2/100/Incongruent/R/I_Dist_100_LN_8_LD_20_RN_1_RD_2_1.png","img2/200/Congruent/L/C_Dist_200_LN_12_LD_15_RN_6_RD_10_0.png","img2/100/Incongruent/L/I_Dist_100_LN_2_LD_4_RN_6_RD_15_0.png","img2/200/Incongruent/R/I_Dist_200_LN_7_LD_15_RN_4_RD_6_1.png","img2/300/Congruent/L/C_Dist_300_LN_20_LD_25_RN_14_RD_28_0.png","img2/300/Congruent/R/C_Dist_300_LN_1_LD_5_RN_3_RD_6_1.png","img2/300/Congruent/R/C_Dist_300_LN_1_LD_5_RN_11_RD_22_1.png","img2/100/Congruent/L/C_Dist_100_LN_8_LD_16_RN_2_RD_5_0.png","img2/100/Incongruent/R/I_Dist_100_LN_8_LD_20_RN_1_RD_2_1.png","img2/200/Congruent/R/C_Dist_200_LN_6_LD_12_RN_7_RD_10_1.png","img2/300/Congruent/L/C_Dist_300_LN_20_LD_25_RN_13_RD_26_0.png","img2/100/Incongruent/R/I_Dist_100_LN_6_LD_12_RN_3_RD_5_1.png","img2/200/Incongruent/R/I_Dist_200_LN_7_LD_15_RN_6_RD_9_1.png","img2/200/Congruent/L/C_Dist_200_LN_21_LD_30_RN_2_RD_4_0.png","img2/200/Congruent/R/C_Dist_200_LN_6_LD_12_RN_7_RD_10_1.png","img2/200/Congruent/R/C_Dist_200_LN_5_LD_10_RN_14_RD_20_1.png","img2/100/Incongruent/R/I_Dist_100_LN_8_LD_20_RN_1_RD_2_1.png","img2/300/Incongruent/L/I_Dist_300_LN_8_LD_10_RN_14_RD_28_0.png","img2/200/Incongruent/R/I_Dist_200_LN_11_LD_20_RN_3_RD_4_1.png","img2/200/Congruent/L/C_Dist_200_LN_16_LD_30_RN_9_RD_27_0.png","img2/200/Congruent/L/C_Dist_200_LN_11_LD_22_RN_3_RD_10_0.png","img2/300/Congruent/R/C_Dist_300_LN_1_LD_5_RN_6_RD_12_1.png","img2/200/Incongruent/R/I_Dist_200_LN_4_LD_30_RN_1_RD_3_1.png","img2/200/Congruent/L/C_Dist_200_LN_12_LD_15_RN_6_RD_10_0.png","img2/300/Incongruent/L/I_Dist_300_LN_2_LD_4_RN_6_RD_30_0.png","img2/200/Congruent/R/C_Dist_200_LN_3_LD_10_RN_11_RD_22_1.png","img2/100/Incongruent/L/I_Dist_100_LN_1_LD_2_RN_8_RD_20_0.png","img2/100/Congruent/L/C_Dist_100_LN_15_LD_25_RN_13_RD_26_0.png","img2/300/Incongruent/R/I_Dist_300_LN_13_LD_26_RN_12_RD_15_1.png","img2/100/Incongruent/R/I_Dist_100_LN_11_LD_22_RN_9_RD_15_1.png","img2/300/Incongruent/L/I_Dist_300_LN_4_LD_5_RN_6_RD_12_0.png","img2/200/Congruent/L/C_Dist_200_LN_16_LD_20_RN_12_RD_20_0.png","img2/200/Incongruent/L/I_Dist_200_LN_7_LD_10_RN_12_RD_24_0.png","img2/300/Congruent/R/C_Dist_300_LN_2_LD_10_RN_12_RD_24_1.png","img2/200/Congruent/R/C_Dist_200_LN_1_LD_2_RN_21_RD_30_1.png","img2/100/Congruent/L/C_Dist_100_LN_6_LD_20_RN_5_RD_25_0.png","img2/300/Incongruent/L/I_Dist_300_LN_3_LD_6_RN_4_RD_20_0.png","img2/100/Incongruent/R/I_Dist_100_LN_11_LD_22_RN_9_RD_15_1.png","img2/100/Incongruent/R/I_Dist_100_LN_13_LD_26_RN_12_RD_20_1.png","img2/100/Incongruent/R/I_Dist_100_LN_13_LD_26_RN_6_RD_10_1.png","img2/100/Congruent/R/C_Dist_100_LN_3_LD_20_RN_4_RD_16_1.png","img2/100/Incongruent/L/I_Dist_100_LN_9_LD_15_RN_13_RD_26_0.png","img2/200/Incongruent/R/I_Dist_200_LN_4_LD_30_RN_1_RD_3_1.png","img2/200/Incongruent/R/I_Dist_200_LN_7_LD_15_RN_4_RD_6_1.png","img2/100/Congruent/R/C_Dist_100_LN_7_LD_14_RN_9_RD_15_1.png","img2/100/Incongruent/R/I_Dist_100_LN_12_LD_24_RN_9_RD_15_1.png","img2/100/Congruent/R/C_Dist_100_LN_2_LD_5_RN_6_RD_12_1.png","img2/300/Congruent/L/C_Dist_300_LN_20_LD_25_RN_13_RD_26_0.png","img2/200/Incongruent/L/I_Dist_200_LN_4_LD_5_RN_6_RD_10_0.png","img2/200/Congruent/R/C_Dist_200_LN_13_LD_26_RN_14_RD_20_1.png"],"dist100_C":[["C_Dist_100_LN_10_LD_25_RN_3_RD_10_0.png","C_Dist_100_LN_11_LD_22_RN_4_RD_10_0.png","C_Dist_100_LN_11_LD_22_RN_6_RD_15_0.png","C_Dist_100_LN_15_LD_25_RN_13_RD_26_0.png","C_Dist_100_LN_3_LD_6_RN_2_RD_5_0.png","C_Dist_100_LN_6_LD_20_RN_5_RD_25_0.png","C_Dist_100_LN_8_LD_16_RN_2_RD_5_0.png","C_Dist_100_LN_9_LD_15_RN_8_RD_16_0.png"],["C_Dist_100_LN_1_LD_2_RN_18_RD_30_1.png","C_Dist_100_LN_1_LD_2_RN_3_RD_5_1.png","C_Dist_100_LN_12_LD_30_RN_13_RD_26_1.png","C_Dist_100_LN_2_LD_5_RN_11_RD_22_1.png","C_Dist_100_LN_2_LD_5_RN_6_RD_12_1.png","C_Dist_100_LN_3_LD_20_RN_4_RD_16_1.png","C_Dist_100_LN_4_LD_10_RN_15_RD_30_1.png","C_Dist_100_LN_4_LD_8_RN_6_RD_10_1.png","C_Dist_100_LN_6_LD_12_RN_15_RD_25_1.png","C_Dist_100_LN_7_LD_14_RN_15_RD_25_1.png","C_Dist_100_LN_7_LD_14_RN_9_RD_15_1.png"]],"dist100_I":[["I_Dist_100_LN_1_LD_2_RN_8_RD_20_0.png","I_Dist_100_LN_2_LD_4_RN_6_RD_15_0.png","I_Dist_100_LN_2_LD_4_RN_8_RD_20_0.png","I_Dist_100_LN_3_LD_5_RN_11_RD_22_0.png","I_Dist_100_LN_3_LD_5_RN_8_RD_16_0.png","I_Dist_100_LN_3_LD_6_RN_4_RD_10_0.png","I_Dist_100_LN_3_LD_9_RN_7_RD_30_0.png","I_Dist_100_LN_4_LD_8_RN_8_RD_20_0.png","I_Dist_100_LN_6_LD_10_RN_11_RD_22_0.png","I_Dist_100_LN_6_LD_10_RN_13_RD_26_0.png","I_Dist_100_LN_6_LD_10_RN_7_RD_14_0.png","I_Dist_100_LN_9_LD_10_RN_20_RD_25_0.png","I_Dist_100_LN_9_LD_15_RN_13_RD_26_0.png","I_Dist_100_LN_9_LD_15_RN_14_RD_28_0.png"],["I_Dist_100_LN_10_LD_25_RN_8_RD_16_1.png","I_Dist_100_LN_10_LD_25_RN_9_RD_18_1.png","I_Dist_100_LN_11_LD_22_RN_9_RD_15_1.png","I_Dist_100_LN_12_LD_24_RN_9_RD_15_1.png","I_Dist_100_LN_12_LD_30_RN_2_RD_4_1.png","I_Dist_100_LN_13_LD_26_RN_12_RD_20_1.png","I_Dist_100_LN_13_LD_26_RN_6_RD_10_1.png","I_Dist_100_LN_17_LD_30_RN_10_RD_15_1.png","I_Dist_100_LN_6_LD_12_RN_3_RD_5_1.png","I_Dist_100_LN_8_LD_16_RN_6_RD_10_1.png","I_Dist_100_LN_8_LD_20_RN_1_RD_2_1.png","I_Dist_100_LN_9_LD_18_RN_6_RD_10_1.png"]],"dist100_S":[["E_Dist_100_LN_2_LD_12_RN_2_RD_30_0.png","E_Dist_100_LN_6_LD_10_RN_6_RD_12_0.png"],["E_Dist_100_LN_6_LD_12_RN_6_RD_10_1.png"]],"dist200_C":[["C_Dist_200_LN_11_LD_22_RN_3_RD_10_0.png","C_Dist_200_LN_12_LD_15_RN_6_RD_10_0.png","C_Dist_200_LN_12_LD_20_RN_6_RD_15_0.png","C_Dist_200_LN_14_LD_28_RN_6_RD_20_0.png","C_Dist_200_LN_15_LD_25_RN_4_RD_10_0.png","C_Dist_200_LN_16_LD_20_RN_12_RD_20_0.png","C_Dist_200_LN_16_LD_30_RN_9_RD_27_0.png","C_Dist_200_LN_20_LD_25_RN_9_RD_15_0.png","C_Dist_200_LN_21_LD_30_RN_2_RD_4_0.png","C_Dist_200_LN_4_LD_10_RN_3_RD_15_0.png","C_Dist_200_LN_4_LD_8_RN_3_RD_10_0.png","C_Dist_200_LN_6_LD_15_RN_3_RD_15_0.png","C_Dist_200_LN_7_LD_21_RN_2_RD_15_0.png","C_Dist_200_LN_8_LD_15_RN_2_RD_6_0.png","C_Dist_200_LN_8_LD_15_RN_3_RD_9_0.png","C_Dist_200_LN_8_LD_15_RN_7_RD_21_0.png","C_Dist_200_LN_9_LD_20_RN_4_RD_16_0.png"],["C_Dist_200_LN_1_LD_2_RN_21_RD_30_1.png","C_Dist_200_LN_13_LD_26_RN_14_RD_20_1.png","C_Dist_200_LN_3_LD_10_RN_11_RD_22_1.png","C_Dist_200_LN_3_LD_10_RN_14_RD_28_1.png","C_Dist_200_LN_3_LD_10_RN_7_RD_14_1.png","C_Dist_200_LN_3_LD_12_RN_9_RD_20_1.png","C_Dist_200_LN_3_LD_6_RN_14_RD_20_1.png","C_Dist_200_LN_5_LD_10_RN_14_RD_20_1.png","C_Dist_200_LN_6_LD_12_RN_7_RD_10_1.png","C_Dist_200_LN_6_LD_20_RN_11_RD_22_1.png","C_Dist_200_LN_7_LD_15_RN_18_RD_27_1.png","C_Dist_200_LN_9_LD_30_RN_13_RD_26_1.png"]],"dist200_I":[["I_Dist_200_LN_1_LD_2_RN_3_RD_10_0.png","I_Dist_200_LN_1_LD_3_RN_2_RD_15_0.png","I_Dist_200_LN_3_LD_4_RN_11_RD_20_0.png","I_Dist_200_LN_4_LD_5_RN_6_RD_10_0.png","I_Dist_200_LN_4_LD_6_RN_14_RD_30_0.png","I_Dist_200_LN_7_LD_10_RN_12_RD_24_0.png","I_Dist_200_LN_7_LD_10_RN_14_RD_28_0.png","I_Dist_200_LN_7_LD_10_RN_8_RD_16_0.png"],["I_Dist_200_LN_11_LD_20_RN_3_RD_4_1.png","I_Dist_200_LN_14_LD_30_RN_12_RD_18_1.png","I_Dist_200_LN_14_LD_30_RN_6_RD_9_1.png","I_Dist_200_LN_3_LD_10_RN_1_RD_2_1.png","I_Dist_200_LN_4_LD_30_RN_1_RD_3_1.png","I_Dist_200_LN_6_LD_20_RN_3_RD_6_1.png","I_Dist_200_LN_7_LD_15_RN_4_RD_6_1.png","I_Dist_200_LN_7_LD_15_RN_6_RD_9_1.png","I_Dist_200_LN_9_LD_15_RN_8_RD_10_1.png"]],"dist200_S":[["E_Dist_200_LN_3_LD_6_RN_3_RD_10_0.png"],["E_Dist_200_LN_3_LD_10_RN_3_RD_6_1.png"]],"dist300_C":[["C_Dist_300_LN_11_LD_22_RN_1_RD_5_0.png","C_Dist_300_LN_11_LD_22_RN_2_RD_10_0.png","C_Dist_300_LN_11_LD_22_RN_4_RD_20_0.png","C_Dist_300_LN_12_LD_24_RN_2_RD_10_0.png","C_Dist_300_LN_18_LD_20_RN_9_RD_15_0.png","C_Dist_300_LN_20_LD_25_RN_13_RD_26_0.png","C_Dist_300_LN_20_LD_25_RN_14_RD_28_0.png","C_Dist_300_LN_20_LD_25_RN_5_RD_10_0.png","C_Dist_300_LN_20_LD_25_RN_8_RD_16_0.png","C_Dist_300_LN_20_LD_25_RN_9_RD_18_0.png","C_Dist_300_LN_24_LD_30_RN_2_RD_4_0.png","C_Dist_300_LN_24_LD_30_RN_8_RD_16_0.png","C_Dist_300_LN_3_LD_6_RN_2_RD_10_0.png","C_Dist_300_LN_4_LD_10_RN_1_RD_10_0.png","C_Dist_300_LN_4_LD_5_RN_2_RD_4_0.png","C_Dist_300_LN_8_LD_16_RN_1_RD_5_0.png","C_Dist_300_LN_9_LD_10_RN_3_RD_5_0.png"],["C_Dist_300_LN_1_LD_20_RN_7_RD_20_1.png","C_Dist_300_LN_1_LD_3_RN_19_RD_30_1.png","C_Dist_300_LN_1_LD_30_RN_8_RD_24_1.png","C_Dist_300_LN_1_LD_5_RN_11_RD_22_1.png","C_Dist_300_LN_1_LD_5_RN_3_RD_6_1.png","C_Dist_300_LN_1_LD_5_RN_6_RD_12_1.png","C_Dist_300_LN_2_LD_10_RN_12_RD_24_1.png","C_Dist_300_LN_2_LD_20_RN_10_RD_25_1.png","C_Dist_300_LN_3_LD_12_RN_11_RD_20_1.png","C_Dist_300_LN_3_LD_6_RN_4_RD_5_1.png","C_Dist_300_LN_4_LD_20_RN_13_RD_26_1.png","C_Dist_300_LN_5_LD_25_RN_6_RD_12_1.png","C_Dist_300_LN_5_LD_25_RN_7_RD_14_1.png","C_Dist_300_LN_7_LD_14_RN_20_RD_25_1.png","C_Dist_300_LN_8_LD_15_RN_10_RD_12_1.png"]],"dist300_I":[["I_Dist_300_LN_1_LD_2_RN_2_RD_10_0.png","I_Dist_300_LN_1_LD_2_RN_3_RD_15_0.png","I_Dist_300_LN_2_LD_4_RN_6_RD_30_0.png","I_Dist_300_LN_3_LD_6_RN_4_RD_20_0.png","I_Dist_300_LN_4_LD_5_RN_6_RD_12_0.png","I_Dist_300_LN_4_LD_5_RN_8_RD_16_0.png","I_Dist_300_LN_7_LD_10_RN_8_RD_20_0.png","I_Dist_300_LN_8_LD_10_RN_14_RD_28_0.png","I_Dist_300_LN_8_LD_10_RN_9_RD_18_0.png"],["I_Dist_300_LN_13_LD_26_RN_12_RD_15_1.png","I_Dist_300_LN_4_LD_20_RN_2_RD_4_1.png"]],"dist300_S":[["E_Dist_300_LN_9_LD_12_RN_9_RD_20_0.png"],["E_Dist_300_LN_18_LD_30_RN_18_RD_20_1.png","E_Dist_300_LN_3_LD_10_RN_3_RD_5_1.png","E_Dist_300_LN_9_LD_20_RN_9_RD_12_1.png"]],"dist500_C":[["C_Dist_500_LN_10_LD_13_RN_7_RD_26_0.png","C_Dist_500_LN_10_LD_15_RN_4_RD_24_0.png","C_Dist_500_LN_12_LD_16_RN_3_RD_12_0.png","C_Dist_500_LN_12_LD_18_RN_4_RD_24_0.png","C_Dist_500_LN_15_LD_18_RN_5_RD_15_0.png","C_Dist_500_LN_15_LD_20_RN_1_RD_4_0.png","C_Dist_500_LN_18_LD_27_RN_1_RD_6_0.png","C_Dist_500_LN_20_LD_24_RN_1_RD_3_0.png","C_Dist_500_LN_20_LD_24_RN_3_RD_9_0.png","C_Dist_500_LN_20_LD_24_RN_7_RD_21_0.png","C_Dist_500_LN_20_LD_28_RN_3_RD_14_0.png","C_Dist_500_LN_21_LD_28_RN_6_RD_24_0.png","C_Dist_500_LN_22_LD_28_RN_2_RD_7_0.png","C_Dist_500_LN_25_LD_30_RN_9_RD_27_0.png","C_Dist_500_LN_4_LD_6_RN_1_RD_6_0.png","C_Dist_500_LN_5_LD_6_RN_2_RD_6_0.png","C_Dist_500_LN_6_LD_9_RN_1_RD_6_0.png","C_Dist_500_LN_7_LD_10_RN_1_RD_5_0.png","C_Dist_500_LN_8_LD_12_RN_1_RD_6_0.png","C_Dist_500_LN_8_LD_12_RN_4_RD_24_0.png"],["C_Dist_500_LN_1_LD_4_RN_12_RD_16_1.png","C_Dist_500_LN_1_LD_4_RN_9_RD_12_1.png","C_Dist_500_LN_1_LD_9_RN_11_RD_18_1.png","C_Dist_500_LN_10_LD_24_RN_22_RD_24_1.png","C_Dist_500_LN_2_LD_12_RN_10_RD_15_1.png","C_Dist_500_LN_2_LD_12_RN_12_RD_18_1.png","C_Dist_500_LN_2_LD_12_RN_4_RD_6_1.png","C_Dist_500_LN_2_LD_24_RN_7_RD_12_1.png","C_Dist_500_LN_2_LD_5_RN_18_RD_20_1.png","C_Dist_500_LN_2_LD_5_RN_9_RD_10_1.png","C_Dist_500_LN_2_LD_8_RN_12_RD_16_1.png","C_Dist_500_LN_2_LD_8_RN_21_RD_28_1.png","C_Dist_500_LN_3_LD_10_RN_4_RD_5_1.png","C_Dist_500_LN_3_LD_12_RN_15_RD_20_1.png","C_Dist_500_LN_3_LD_30_RN_6_RD_10_1.png","C_Dist_500_LN_3_LD_8_RN_14_RD_16_1.png","C_Dist_500_LN_4_LD_16_RN_15_RD_20_1.png","C_Dist_500_LN_4_LD_24_RN_12_RD_18_1.png","C_Dist_500_LN_5_LD_14_RN_6_RD_7_1.png","C_Dist_500_LN_7_LD_21_RN_20_RD_24_1.png","C_Dist_500_LN_7_LD_28_RN_12_RD_16_1.png","C_Dist_500_LN_7_LD_28_RN_9_RD_12_1.png","C_Dist_500_LN_9_LD_27_RN_20_RD_24_1.png"]],"dist500_I":[["I_Dist_500_LN_2_LD_3_RN_4_RD_24_0.png","I_Dist_500_LN_5_LD_6_RN_6_RD_18_0.png","I_Dist_500_LN_7_LD_8_RN_9_RD_24_0.png"],["I_Dist_500_LN_7_LD_21_RN_5_RD_6_1.png"]],"dist500_S":[["E_Dist_500_LN_6_LD_8_RN_6_RD_24_0.png"],["E_Dist_500_LN_2_LD_12_RN_2_RD_3_1.png","E_Dist_500_LN_6_LD_24_RN_6_RD_8_1.png"]]}},{"start_time":1551899884719,"click_time":1551899890074,"finger_time":1551899887532,"fix_duration":426.0228512785764,"trial":1,"RT":2813,"MT":2542,"sideResp":1,"stimulus":[],"xmouse":[795,795,795,795,795,795,795,795,795,795,795,795,795,795,795,795,795,795,795,795,795,795,795,795,795,795,795,795,795,795,795,795,795,795,795,795,795,795,795,795,795,795,795,795,795,795,795,795,795,795,795,795,795,795,795,795,795,795,795,795,795,795,795,795,795,795,795,795,795,795,795,795,795,795,795,795,795,795,795,795,795,795,795,795,795,795,795,795,795,795,795,795,795,795,795,795,795,795,795,795,795,795,795,795,795,795,795,795,795,795,795,795,795,795,795,795,795,795,795,795,795,795,795,795,795,795,795,795,795,795,795,795,795,795,795,795,795,795,795,797,797,795,789,780,760,751,741,728,714,697,689,689,685,681,669,662,653,644,635,621,614,607,604,602,600,599,597,595,592,587,582,579,577,574,568,565,563,560,558,550,548,546,542,541,539,539,537,536,534,533,532,532,531,531,530,530,529,529,529,529,529,529,528,527,527,526,526,526,525,525,525,525,525,525,525,525,525,525,525,525,525,525,525,525,526,526,526,527,527,532,532,533,533,533,533,533,533,533,533,533,533,533,533,533,534,520,493,469,456,456,456,470,490,515,561,578,591,599,600,600,600,600,600,595,567,546,525,504],"ymouse":[561,561,561,561,561,561,561,561,561,561,561,561,561,561,561,561,561,561,561,561,561,561,561,561,561,561,561,561,561,561,561,561,561,561,561,561,561,561,561,561,561,561,561,561,561,561,561,561,561,561,561,561,561,561,561,561,561,561,561,561,561,561,561,561,561,561,561,561,561,561,561,561,561,561,561,561,561,561,561,561,561,561,561,561,561,561,561,561,561,561,561,561,561,561,561,561,561,561,561,561,561,561,561,561,561,561,561,561,561,561,561,561,561,561,561,561,561,561,561,561,561,561,561,561,561,561,561,561,561,561,561,561,561,561,561,561,561,561,548,521,498,485,457,431,384,363,345,328,311,293,285,284,278,270,249,238,225,214,202,185,178,169,165,162,159,158,154,152,149,145,140,138,136,134,129,126,124,122,121,114,114,111,109,108,107,107,106,105,103,102,101,101,101,100,100,100,100,99,99,99,99,99,98,98,97,97,97,97,96,96,96,96,96,96,96,96,96,96,95,95,95,95,95,95,95,95,95,95,95,95,95,95,95,95,95,95,95,95,95,95,95,95,95,95,95,100,104,108,109,109,109,109,109,109,116,121,127,131,132,132,132,132,133,133,126,115,103,90],"timestamp_mouse":[12,36,53,73,92,112,132,152,174,194,213,233,252,272,293,314,332,352,372,394,413,432,454,472,492,514,534,553,572,592,612,632,652,674,694,712,733,752,773,792,814,833,853,874,893,912,934,954,972,992,1013,1034,1053,1074,1093,1112,1134,1154,1173,1193,1212,1234,1253,1272,1294,1312,1332,1353,1374,1394,1413,1432,1454,1474,1493,1514,1533,1553,1574,1594,1613,1634,1654,1673,1693,1712,1733,1754,1772,1793,1813,1834,1852,1873,1893,1913,1934,1953,1974,1994,2012,2033,2053,2073,2094,2112,2134,2152,2172,2194,2213,2232,2253,2273,2294,2313,2334,2353,2372,2394,2414,2433,2454,2473,2492,2514,2534,2554,2573,2593,2614,2633,2654,2673,2693,2714,2734,2752,2772,2792,2813,2837,2859,2873,2892,2912,2933,2953,2974,2993,3012,3034,3053,3072,3093,3113,3133,3153,3173,3192,3212,3232,3253,3274,3294,3313,3332,3353,3372,3394,3412,3433,3452,3472,3492,3512,3533,3553,3573,3592,3614,3632,3653,3673,3693,3715,3736,3752,3773,3793,3812,3832,3853,3873,3893,3913,3932,3953,3972,3993,4012,4034,4053,4073,4093,4113,4134,4153,4173,4194,4214,4232,4252,4272,4292,4313,4333,4352,4372,4393,4413,4433,4454,4473,4494,4513,4533,4554,4572,4593,4614,4633,4652,4672,4693,4714,4733,4753,4773,4793,4813,4833,4853,4874,4894,4913,4933,4953,4973,4994,5014,5034,5053,5073,5094,5113,5133,5153,5173,5194,5213,5234,5253,5273,5294,5312,5332,5354],"xSR":741.5,"ySR":501.8,"xT1":424.9,"yT1":0,"xT2":1058.1,"yT2":0,"toosoon":0,"cond_shown":"Incongruent","ratio_trial":100,"L_num":6,"L_den":10,"R_num":7,"R_den":14,"correct_side":1,"subjID":"JuanPabloSepulvedaCastro30","gender":"0","school":"6","age":"11"},{"start_time":1551899891284,"click_time":1551899893373,"finger_time":1551899892852,"fix_duration":250,"trial":2,"RT":1568,"MT":521,"sideResp":2,"stimulus":[],"xmouse":[780,780,780,780,780,780,780,780,780,780,780,780,780,780,780,780,780,780,780,780,780,780,780,780,780,780,780,780,780,780,780,780,780,780,780,780,780,780,780,780,780,780,780,780,780,780,780,780,780,780,780,780,780,780,780,780,780,780,780,780,780,780,780,780,780,780,780,780,780,780,780,780,781,783,786,794,813,821,832,843,866,903,934,972,983,990,1001,1003,1005,1008,1011,1024,1032,1041,1048,1055,1067,1074,1080,1084,1086,1091,1093,1095,1095],"ymouse":[533,533,533,533,533,533,533,533,533,533,533,533,533,533,533,533,533,533,533,533,533,533,533,533,533,533,533,533,533,533,533,533,533,533,533,533,533,533,533,533,533,533,533,533,533,533,533,533,533,533,533,533,533,533,533,533,533,533,533,533,533,533,533,533,533,533,533,533,533,533,533,533,534,533,531,525,512,506,495,479,428,378,327,259,239,226,204,197,193,189,186,176,172,166,160,154,144,139,134,130,125,115,110,103,99],"timestamp_mouse":[16,28,56,67,88,108,129,149,168,189,208,228,248,267,287,309,327,349,367,387,409,429,448,469,488,508,527,548,569,587,608,629,647,669,689,709,727,747,768,787,807,829,847,868,888,907,928,949,967,989,1012,1028,1047,1067,1088,1107,1128,1147,1169,1187,1208,1229,1248,1269,1288,1308,1328,1348,1367,1388,1409,1429,1449,1467,1488,1508,1527,1547,1568,1588,1612,1629,1649,1669,1688,1708,1729,1748,1769,1788,1808,1829,1847,1867,1889,1907,1929,1949,1969,1987,2009,2028,2047,2067,2088],"xSR":741.5,"ySR":501.8,"xT1":424.9,"yT1":0,"xT2":1058.1,"yT2":0,"toosoon":0,"cond_shown":"Congruent","ratio_trial":200,"L_num":4,"L_den":8,"R_num":3,"R_den":10,"correct_side":1,"subjID":"JuanPabloSepulvedaCastro30","gender":"0","school":"6","age":"11"},{"start_time":1551899899087,"click_time":1551899901994,"finger_time":1551899901292,"fix_duration":613.9194771146845,"trial":3,"RT":2205,"MT":702,"sideResp":1,"stimulus":[],"xmouse":[767,767,767,767,767,767,767,767,767,767,767,767,767,767,767,767,767,767,767,767,767,767,767,767,767,767,767,767,767,767,767,767,767,767,767,767,767,767,767,767,767,767,767,767,767,767,767,767,767,767,767,767,767,767,767,767,767,767,767,767,767,767,767,767,767,767,767,767,767,767,767,767,767,767,767,767,767,767,767,767,767,767,767,767,767,767,767,767,767,767,767,767,767,767,767,767,767,767,767,767,767,767,767,767,767,767,765,761,755,748,740,714,696,677,649,631,605,595,585,577,570,560,557,555,553,552,548,547,544,542,540,538,538,538,538,538,538,538,537,537,535,534,532,530,525,515],"ymouse":[556,556,556,556,556,556,556,556,556,556,556,556,556,556,556,556,556,556,556,556,556,556,556,556,556,556,556,556,556,556,556,556,556,556,556,556,556,556,556,556,556,556,556,556,556,556,556,556,556,556,556,556,556,556,556,556,556,556,556,556,556,556,556,556,556,556,556,556,556,556,556,556,556,556,556,556,556,555,555,555,555,555,555,555,555,555,555,555,555,555,555,555,555,555,555,555,555,555,555,555,555,555,555,555,555,553,544,536,526,516,502,460,427,393,342,306,249,226,205,188,171,148,141,137,132,131,122,119,114,111,107,104,104,103,103,103,103,103,102,102,100,99,98,98,97,96],"timestamp_mouse":[17,24,58,65,84,106,124,145,164,185,206,226,245,265,284,306,324,344,365,386,405,425,445,464,485,506,524,546,566,586,604,625,645,665,685,704,725,745,766,785,805,825,845,866,885,904,924,946,965,985,1011,1024,1045,1066,1085,1105,1124,1144,1165,1185,1204,1226,1245,1265,1285,1305,1325,1344,1366,1384,1404,1425,1446,1465,1486,1505,1524,1545,1565,1586,1605,1625,1645,1665,1685,1704,1725,1745,1765,1785,1805,1826,1844,1864,1885,1904,1924,1945,1966,1984,2004,2024,2045,2066,2085,2104,2124,2144,2165,2184,2205,2225,2252,2271,2284,2307,2325,2345,2366,2385,2406,2424,2445,2464,2485,2505,2525,2544,2564,2584,2605,2625,2646,2664,2684,2705,2724,2744,2764,2784,2806,2826,2846,2865,2886,2906],"xSR":741.5,"ySR":501.8,"xT1":424.9,"yT1":0,"xT2":1058.1,"yT2":0,"toosoon":0,"cond_shown":"Incongruent","ratio_trial":300,"L_num":2,"L_den":4,"R_num":6,"R_den":30,"correct_side":1,"subjID":"JuanPabloSepulvedaCastro30","gender":"0","school":"6","age":"11"},{"start_time":1551899905523,"click_time":1551899907631,"finger_time":1551899907212,"fix_duration":609.1279071841531,"trial":4,"RT":1689,"MT":419,"sideResp":2,"stimulus":[],"xmouse":[775,775,775,775,775,775,775,775,775,775,775,775,775,775,775,775,775,775,775,775,775,775,775,775,775,775,775,775,775,775,775,775,775,775,775,775,775,775,775,775,775,775,775,775,775,775,775,775,775,775,775,775,775,775,775,775,775,775,775,775,775,775,775,775,775,775,775,775,775,775,775,775,775,775,775,775,775,775,775,777,778,778,778,772,764,755,750,748,748,863,943,1010,1030,1048,1048,1048,1048,1048,1048,1048,1048,1048,1048,1048,1048,1093],"ymouse":[567,567,567,567,567,567,567,567,567,567,567,567,567,567,567,567,567,567,567,567,567,567,567,567,567,567,567,567,567,567,567,567,567,567,567,567,567,567,567,567,567,567,567,567,567,567,567,567,567,567,567,567,567,567,567,567,567,567,567,567,567,567,567,567,567,567,567,567,567,567,567,567,567,567,567,567,567,567,567,567,567,567,557,516,491,467,444,417,417,164,80,26,14,2,2,2,2,2,2,2,2,2,2,2,2,5],"timestamp_mouse":[16,29,56,70,89,109,129,148,169,189,209,229,249,269,290,309,329,350,368,388,408,430,450,468,488,510,529,549,569,589,608,630,650,669,688,709,728,750,770,790,808,828,849,870,889,909,929,948,969,989,1013,1028,1049,1068,1088,1109,1129,1148,1170,1190,1209,1230,1249,1268,1290,1310,1328,1350,1369,1388,1408,1430,1450,1468,1489,1509,1529,1549,1569,1589,1610,1629,1650,1669,1689,1715,1739,1749,1769,1788,1808,1830,1849,1868,1889,1909,1930,1949,1969,1989,2010,2029,2049,2068,2088,2108],"xSR":741.5,"ySR":501.8,"xT1":424.9,"yT1":0,"xT2":1058.1,"yT2":0,"toosoon":0,"cond_shown":"Congruent","ratio_trial":100,"L_num":9,"L_den":15,"R_num":8,"R_den":16,"correct_side":1,"subjID":"JuanPabloSepulvedaCastro30","gender":"0","school":"6","age":"11"},{"start_time":1551899908945,"click_time":1551899910815,"finger_time":1551899909653,"fix_duration":250,"trial":5,"RT":708,"MT":1162,"sideResp":2,"stimulus":[],"xmouse":[782,782,782,782,782,782,782,782,782,782,782,782,782,782,782,782,782,782,782,782,782,782,782,782,782,782,782,782,782,782,782,782,782,773,757,744,736,733,733,733,733,733,733,733,733,733,733,733,733,733,733,733,733,726,720,711,701,684,644,631,619,602,596,589,588,585,583,581,580,579,578,578,578,578,578,578,578,578,578,577,576,575,574,574,574,577,580,591,607,716,748,864,1023,1071],"ymouse":[533,533,533,533,533,533,533,533,533,533,533,533,533,533,533,533,533,533,533,533,533,533,533,533,533,533,533,533,533,533,533,533,533,518,502,488,479,477,477,477,477,477,477,477,477,477,477,477,477,477,477,477,477,467,453,433,407,368,277,246,218,177,159,135,129,124,120,118,115,115,114,114,114,114,114,114,114,114,114,114,114,113,113,113,113,113,113,113,114,114,114,99,57,39],"timestamp_mouse":[16,26,52,67,87,106,128,148,167,187,208,226,248,266,287,306,326,347,367,387,407,427,448,466,487,506,528,547,567,587,606,627,648,667,686,708,727,749,767,787,808,827,847,866,888,907,926,946,967,986,1007,1027,1046,1067,1087,1106,1128,1146,1168,1186,1207,1226,1246,1266,1287,1308,1326,1348,1366,1387,1408,1427,1447,1468,1487,1507,1526,1547,1567,1587,1606,1627,1646,1667,1687,1707,1728,1746,1768,1787,1806,1828,1846,1870],"xSR":741.5,"ySR":501.8,"xT1":424.9,"yT1":0,"xT2":1058.1,"yT2":0,"toosoon":0,"cond_shown":"Congruent","ratio_trial":100,"L_num":1,"L_den":2,"R_num":3,"R_den":5,"correct_side":2,"subjID":"JuanPabloSepulvedaCastro30","gender":"0","school":"6","age":"11"},{"start_time":1551899912837,"click_time":1551899915153,"finger_time":1551899914392,"fix_duration":1483.8363877053757,"trial":6,"RT":1555,"MT":761,"sideResp":1,"stimulus":[],"xmouse":[816,816,816,816,816,816,816,816,816,816,816,816,816,816,816,816,816,816,816,816,816,816,816,816,816,816,816,816,816,816,816,816,816,816,816,815,811,807,806,805,804,804,804,804,804,804,804,804,804,804,804,804,804,804,804,804,804,804,804,804,804,804,804,804,804,804,804,804,804,804,804,802,799,796,793,788,780,757,748,740,735,732,725,722,719,716,705,701,697,690,682,673,655,642,626,612,579,569,562,559,556,550,548,546,544,543,541,539,538,537,536,535,527,521,514],"ymouse":[551,551,551,551,551,551,551,551,551,551,551,551,551,551,551,551,551,551,551,551,551,551,551,551,551,551,551,551,551,551,551,551,551,551,551,550,547,546,545,544,544,544,544,544,544,544,544,544,544,544,544,544,544,544,544,544,544,544,544,544,544,544,544,544,544,544,544,544,544,544,544,542,537,531,525,512,492,449,434,423,415,409,398,394,389,386,369,361,354,344,334,321,296,280,261,245,215,205,198,190,182,173,167,163,159,154,151,143,140,137,134,131,117,107,99],"timestamp_mouse":[20,68,74,95,115,134,156,175,195,215,236,255,274,296,316,335,354,376,395,414,435,454,476,495,515,534,556,575,596,614,636,656,675,695,714,735,754,775,794,816,836,855,875,896,914,934,956,974,994,1016,1035,1055,1076,1094,1115,1134,1155,1175,1194,1214,1235,1254,1275,1296,1315,1335,1355,1375,1395,1414,1435,1456,1474,1494,1515,1534,1555,1576,1599,1615,1636,1655,1675,1695,1715,1735,1754,1775,1794,1814,1834,1854,1874,1896,1916,1935,1954,1975,1995,2014,2035,2054,2077,2095,2114,2134,2154,2174,2195,2214,2234,2255,2274,2294,2316],"xSR":741.5,"ySR":501.8,"xT1":424.9,"yT1":0,"xT2":1058.1,"yT2":0,"toosoon":0,"cond_shown":"Congruent","ratio_trial":100,"L_num":3,"L_den":20,"R_num":4,"R_den":16,"correct_side":2,"subjID":"JuanPabloSepulvedaCastro30","gender":"0","school":"6","age":"11"},{"start_time":1551899916820,"click_time":1551899918191,"finger_time":1551899917592,"fix_duration":687.0157573874242,"trial":7,"RT":772,"MT":599,"sideResp":1,"stimulus":[],"xmouse":[816,816,816,816,816,816,816,816,816,816,816,816,816,816,816,816,816,816,816,816,816,816,816,816,816,816,816,816,816,816,816,816,816,816,816,816,811,806,756,722,697,697,675,660,652,642,628,592,586,582,581,579,578,578,578,578,579,581,582,582,582,582,581,575,571,560,543,501],"ymouse":[516,516,516,516,516,516,516,516,516,516,516,516,516,516,516,516,516,516,516,516,516,516,516,516,516,516,516,516,516,516,516,516,516,516,516,516,505,488,327,259,225,225,198,178,162,145,125,93,89,87,86,86,85,85,85,85,85,86,86,86,86,86,86,85,85,84,84,86],"timestamp_mouse":[19,54,72,92,112,133,152,172,192,211,233,252,272,292,313,333,351,371,391,412,432,453,473,491,512,531,553,571,591,611,632,652,671,692,713,731,751,772,792,819,834,851,871,891,912,932,952,971,992,1011,1032,1051,1072,1091,1112,1131,1151,1172,1192,1212,1232,1251,1272,1292,1312,1333,1352,1371],"xSR":741.5,"ySR":501.8,"xT1":424.9,"yT1":0,"xT2":1058.1,"yT2":0,"toosoon":0,"cond_shown":"Incongruent","ratio_trial":300,"L_num":8,"L_den":10,"R_num":9,"R_den":18,"correct_side":1,"subjID":"JuanPabloSepulvedaCastro30","gender":"0","school":"6","age":"11"},{"start_time":1551899919818,"click_time":1551899921711,"finger_time":1551899920631,"fix_duration":886.5498522217787,"trial":8,"RT":813,"MT":1080,"sideResp":2,"stimulus":[],"xmouse":[772,772,772,772,772,772,772,772,772,772,772,772,772,772,772,772,772,772,772,772,772,772,772,772,772,772,772,772,772,772,772,772,772,772,772,772,772,772,775,796,839,921,1056,1056,1056,1056,1056,1056,1056,1056,1056,1056,1475,1170,992,838,725,652,652,652,697,785,1020,1150,1252,1311,1332,1335,1332,1304,1216,1068,754,685,676,679,738,1007,1007,1007,1007,1007,1201,1047,938,857,855,898,1163,1280,1348,1355,1335,1120],"ymouse":[538,538,538,538,538,538,538,538,538,538,538,538,538,538,538,538,538,538,538,538,538,538,538,538,538,538,538,538,538,538,538,538,538,538,538,538,538,538,528,475,395,271,69,69,69,69,69,69,69,69,69,69,18,248,364,446,495,526,526,526,484,394,210,146,107,79,69,69,69,69,86,107,137,137,132,119,84,0,0,0,0,0,2,52,70,82,83,83,66,63,63,64,70,88],"timestamp_mouse":[17,34,77,93,115,134,154,174,193,214,234,255,275,294,314,335,355,373,395,413,433,455,474,493,515,534,553,575,594,615,634,655,674,693,715,735,755,774,794,813,839,856,873,894,914,933,953,974,994,1013,1034,1053,1073,1094,1114,1134,1155,1173,1194,1213,1234,1254,1273,1294,1314,1335,1353,1374,1394,1414,1434,1454,1473,1494,1514,1533,1554,1574,1594,1615,1634,1655,1674,1693,1713,1733,1754,1773,1793,1814,1833,1853,1874,1893],"xSR":741.5,"ySR":501.8,"xT1":424.9,"yT1":0,"xT2":1058.1,"yT2":0,"toosoon":0,"cond_shown":"Incongruent","ratio_trial":300,"L_num":7,"L_den":10,"R_num":8,"R_den":20,"correct_side":1,"subjID":"JuanPabloSepulvedaCastro30","gender":"0","school":"6","age":"11"},{"start_time":1551899922864,"click_time":1551899925772,"finger_time":1551899924372,"fix_duration":250,"trial":9,"RT":1508,"MT":1400,"sideResp":2,"stimulus":[],"xmouse":[836,836,836,836,836,836,836,836,836,836,836,836,836,836,836,836,836,836,836,836,836,836,836,836,836,836,836,836,836,836,836,836,836,836,836,836,836,836,836,836,836,836,836,836,836,836,836,836,836,836,836,836,836,836,836,836,836,836,836,836,836,836,836,836,836,836,836,836,836,836,836,836,836,835,831,805,719,667,653,647,647,647,647,647,647,647,647,647,647,647,644,639,628,620,615,613,613,612,612,611,610,607,605,602,599,593,587,585,584,582,581,577,574,572,568,562,559,555,554,552,548,541,520,506,489,468,438,423,406,391,376,362,343,337,332,329,317,313,312,314,338,400,400,400,400,1151],"ymouse":[549,549,549,549,549,549,549,549,549,549,549,549,549,549,549,549,549,549,549,549,549,549,549,549,549,549,549,549,549,549,549,549,549,549,549,549,549,549,549,549,549,549,549,549,549,549,549,549,549,549,549,549,549,549,549,549,549,549,549,549,549,549,549,549,549,549,549,549,549,549,549,549,549,545,533,465,264,161,139,132,132,132,132,132,132,132,132,132,132,132,129,126,119,115,112,112,111,111,111,111,111,111,111,111,111,111,111,111,111,111,111,111,111,110,109,107,106,104,104,103,103,103,104,108,113,122,133,135,138,139,141,142,142,142,142,141,126,107,87,65,37,8,8,8,8,7],"timestamp_mouse":[16,28,56,69,88,108,127,149,169,189,207,227,248,269,288,308,329,348,367,388,408,428,447,468,488,509,529,547,567,589,608,629,649,669,689,708,728,748,768,789,809,828,847,869,889,908,928,947,968,989,1013,1028,1049,1069,1089,1107,1127,1149,1168,1188,1207,1229,1247,1268,1287,1307,1328,1349,1369,1387,1409,1429,1448,1468,1487,1508,1528,1557,1571,1589,1609,1627,1648,1670,1689,1709,1728,1749,1769,1788,1808,1828,1849,1867,1889,1908,1928,1948,1968,1988,2008,2027,2048,2068,2088,2108,2127,2149,2168,2189,2208,2227,2250,2269,2290,2308,2328,2349,2367,2389,2409,2428,2448,2468,2488,2509,2527,2548,2567,2588,2608,2627,2647,2668,2689,2708,2727,2750,2768,2788,2807,2827,2847,2867,2889,2908],"xSR":741.5,"ySR":501.8,"xT1":424.9,"yT1":0,"xT2":1058.1,"yT2":0,"toosoon":0,"cond_shown":"Incongruent","ratio_trial":200,"L_num":7,"L_den":10,"R_num":8,"R_den":16,"correct_side":1,"subjID":"JuanPabloSepulvedaCastro30","gender":"0","school":"6","age":"11"},{"start_time":1551899927794,"click_time":1551899928812,"finger_time":1551899928391,"fix_duration":521.6207682397098,"trial":10,"RT":597,"MT":421,"sideResp":1,"stimulus":[],"xmouse":[758,758,758,758,758,758,758,758,758,758,758,758,758,758,759,759,760,760,760,760,760,760,760,760,760,760,757,755,750,733,710,710,666,650,621,616,613,613,613,613,611,608,608,607,606,602,600,590,564,532,515],"ymouse":[551,551,551,551,551,551,551,551,551,551,551,551,551,551,549,545,542,539,537,537,537,537,537,537,537,535,530,526,516,471,402,402,292,253,166,138,123,121,121,121,114,105,98,94,91,86,84,79,69,55,51],"timestamp_mouse":[19,39,67,79,99,118,137,157,178,199,219,237,257,279,299,317,338,357,379,399,419,438,459,478,499,517,538,558,578,597,627,637,658,678,697,718,739,757,777,797,817,838,858,877,898,917,939,958,979,997,1018],"xSR":741.5,"ySR":501.8,"xT1":424.9,"yT1":0,"xT2":1058.1,"yT2":0,"toosoon":0,"cond_shown":"Incongruent","ratio_trial":300,"L_num":13,"L_den":26,"R_num":12,"R_den":15,"correct_side":2,"subjID":"JuanPabloSepulvedaCastro30","gender":"0","school":"6","age":"11"},{"start_time":1551899935642,"click_time":1551899937273,"finger_time":1551899936973,"fix_duration":1027.4416955526958,"trial":11,"RT":1331,"MT":300,"sideResp":1,"stimulus":[],"xmouse":[790,790,790,790,790,790,790,790,790,790,790,790,790,790,790,790,790,790,790,790,790,790,790,790,790,790,790,790,790,790,790,790,790,790,790,790,790,790,790,790,790,790,790,790,790,790,790,790,790,790,790,790,790,790,790,790,790,790,790,790,790,790,790,790,790,790,790,782,772,760,760,735,735,698,683,664,640,558,529,510,498,493],"ymouse":[518,518,518,518,518,518,518,518,518,518,518,518,518,518,518,518,518,517,515,515,515,515,515,515,515,515,515,515,515,515,515,515,515,515,515,515,515,515,515,515,515,515,515,515,515,515,515,515,515,515,515,515,515,515,515,515,515,515,515,515,515,515,515,515,515,509,501,454,434,414,414,372,372,314,295,270,241,165,141,120,104,97],"timestamp_mouse":[18,47,50,71,91,110,130,151,170,190,209,230,249,270,289,309,331,350,370,390,411,429,451,469,490,511,530,550,569,589,611,631,651,669,691,710,731,750,770,791,809,830,851,871,890,910,931,950,970,991,1012,1030,1049,1070,1091,1110,1129,1150,1170,1191,1209,1230,1250,1269,1291,1309,1331,1350,1379,1400,1411,1437,1450,1470,1490,1509,1529,1549,1570,1589,1610,1631],"xSR":741.5,"ySR":501.8,"xT1":424.9,"yT1":0,"xT2":1058.1,"yT2":0,"toosoon":0,"cond_shown":"Congruent","ratio_trial":100,"L_num":9,"L_den":15,"R_num":8,"R_den":16,"correct_side":1,"subjID":"JuanPabloSepulvedaCastro30","gender":"0","school":"6","age":"11"},{"start_time":1551899939387,"click_time":1551899941514,"finger_time":1551899940753,"fix_duration":1235.4520203686152,"trial":12,"RT":1366,"MT":761,"sideResp":1,"stimulus":[],"xmouse":[768,768,768,768,768,768,768,768,768,768,768,768,768,768,768,768,768,768,768,768,768,768,768,768,768,768,768,768,768,768,768,768,768,768,768,768,768,768,768,768,768,768,768,768,768,768,768,768,768,768,768,768,768,768,768,768,768,768,768,768,768,768,768,768,769,781,801,824,867,928,1009,1062,1071,1077,1081,1081,1082,1082,1082,1082,1082,1082,1082,1082,1081,1073,1056,1034,1009,938,891,862,843,821,799,756,733,714,695,662,638,621,607,596,558,504],"ymouse":[542,542,542,542,542,542,542,542,542,542,542,542,542,542,542,542,542,542,542,542,542,542,542,542,542,542,542,542,542,542,542,542,542,542,542,542,542,542,542,542,542,542,542,542,542,542,542,542,542,542,542,542,542,542,542,542,542,542,542,542,542,542,542,542,542,535,521,501,465,420,368,344,343,342,341,341,341,341,341,341,341,341,341,341,339,333,325,314,300,268,248,236,224,214,204,181,169,159,148,129,115,108,102,99,94,89],"timestamp_mouse":[20,49,66,85,107,125,147,167,186,205,226,246,267,286,306,326,346,366,386,407,425,445,467,486,505,526,547,566,586,605,627,646,665,686,706,726,747,765,786,807,826,846,865,885,905,925,945,966,985,1016,1025,1046,1067,1085,1106,1126,1146,1166,1186,1205,1226,1247,1266,1286,1306,1325,1345,1366,1387,1407,1426,1445,1466,1487,1506,1525,1546,1565,1586,1605,1625,1646,1666,1686,1705,1726,1746,1767,1786,1805,1826,1845,1865,1886,1905,1927,1946,1965,1985,2006,2027,2046,2065,2085,2105,2127],"xSR":741.5,"ySR":501.8,"xT1":424.9,"yT1":0,"xT2":1058.1,"yT2":0,"toosoon":0,"cond_shown":"Incongruent","ratio_trial":200,"L_num":4,"L_den":6,"R_num":14,"R_den":30,"correct_side":1,"subjID":"JuanPabloSepulvedaCastro30","gender":"0","school":"6","age":"11"},{"start_time":1551899943112,"click_time":1551899945013,"finger_time":1551899944552,"fix_duration":917.3902057122344,"trial":13,"RT":1440,"MT":461,"sideResp":1,"stimulus":[],"xmouse":[772,772,772,772,772,772,772,772,772,772,772,772,772,772,772,772,772,772,772,772,772,772,772,772,772,772,772,772,772,772,772,772,772,772,772,772,772,772,772,772,772,772,772,772,772,772,772,772,772,772,772,772,772,772,772,772,772,772,772,772,772,772,772,772,772,772,772,772,772,764,754,743,732,724,717,715,715,714,712,704,695,686,675,663,633,622,609,595,583,570,532,524,513,500,489,484],"ymouse":[540,540,540,540,540,540,540,540,540,540,540,540,540,540,540,540,540,540,540,540,540,540,540,540,540,540,540,540,540,540,540,540,540,540,540,540,540,540,540,540,540,540,540,540,540,540,540,540,540,540,540,540,540,540,540,540,540,540,540,540,540,540,540,540,540,540,540,540,540,530,517,505,495,489,483,481,480,477,474,454,439,422,403,382,331,313,296,276,257,240,179,168,152,126,100,87],"timestamp_mouse":[16,22,57,61,81,102,120,142,160,180,201,220,242,261,282,302,320,341,362,380,401,421,440,461,481,500,522,542,561,582,601,621,642,660,681,701,720,741,761,780,800,821,840,860,880,900,921,941,961,980,1013,1020,1040,1060,1081,1101,1120,1140,1161,1180,1201,1220,1242,1262,1281,1301,1320,1341,1360,1381,1400,1421,1440,1461,1481,1504,1521,1541,1561,1580,1601,1620,1641,1660,1681,1701,1720,1741,1761,1782,1801,1821,1841,1861,1881,1901],"xSR":741.5,"ySR":501.8,"xT1":424.9,"yT1":0,"xT2":1058.1,"yT2":0,"toosoon":0,"cond_shown":"Congruent","ratio_trial":100,"L_num":2,"L_den":5,"R_num":11,"R_den":22,"correct_side":2,"subjID":"JuanPabloSepulvedaCastro30","gender":"0","school":"6","age":"11"},{"start_time":1551899947132,"click_time":1551899949874,"finger_time":1551899948014,"fix_duration":1397.0721290606825,"trial":14,"RT":882,"MT":1860,"sideResp":1,"stimulus":[],"xmouse":[821,821,821,821,821,821,821,821,821,821,821,821,821,821,821,821,821,821,821,821,821,821,821,821,821,821,821,821,821,821,821,821,821,821,821,821,821,821,821,821,824,826,835,881,905,923,932,932,940,940,943,947,953,957,959,960,962,966,971,980,992,1000,1009,1017,1018,1019,1019,1020,1020,1020,1020,1020,1020,1020,1012,998,987,984,983,983,981,980,976,974,963,946,925,856,793,731,672,633,587,579,578,574,568,559,559,559,559,559,559,559,559,558,557,550,549,549,549,549,544,538,538,538,537,537,537,537,537,537,537,537,537,537,537,537,537,536,536,534,534,532,529,525,521],"ymouse":[544,544,544,544,544,544,544,544,544,544,544,544,544,544,544,544,544,544,544,544,544,544,544,544,544,544,544,544,544,544,544,544,544,544,544,544,544,544,544,544,539,532,511,421,379,345,326,326,294,290,284,275,256,247,242,238,235,226,215,201,190,184,178,175,173,172,171,168,167,167,167,166,166,165,162,158,151,148,146,142,137,132,126,122,118,114,110,92,84,84,77,72,64,61,61,61,61,56,56,56,56,56,56,56,56,56,56,56,56,56,56,56,58,62,62,62,63,63,63,63,63,63,63,64,64,64,65,66,67,68,69,69,69,69,69,69,69],"timestamp_mouse":[16,20,53,60,80,101,121,141,161,182,201,221,242,261,280,301,322,341,362,410,421,441,461,482,500,520,541,562,581,602,621,641,661,681,702,721,741,760,780,801,820,840,860,882,905,928,941,961,981,1000,1021,1040,1060,1081,1101,1121,1140,1160,1182,1200,1220,1240,1260,1282,1302,1320,1341,1361,1381,1401,1420,1440,1461,1482,1501,1521,1540,1561,1581,1601,1622,1641,1662,1682,1701,1721,1740,1760,1783,1800,1821,1840,1860,1881,1901,1921,1940,1960,1982,2000,2020,2040,2061,2081,2101,2120,2140,2160,2181,2201,2220,2241,2261,2282,2301,2320,2340,2360,2380,2401,2421,2440,2460,2481,2502,2522,2541,2562,2580,2600,2620,2641,2660,2680,2701,2722,2742],"xSR":741.5,"ySR":501.8,"xT1":424.9,"yT1":0,"xT2":1058.1,"yT2":0,"toosoon":0,"cond_shown":"Incongruent","ratio_trial":100,"L_num":3,"L_den":5,"R_num":8,"R_den":16,"correct_side":1,"subjID":"JuanPabloSepulvedaCastro30","gender":"0","school":"6","age":"11"},{"start_time":1551899952762,"click_time":1551899955792,"finger_time":1551899955353,"fix_duration":468.7112399845118,"trial":15,"RT":2591,"MT":439,"sideResp":1,"stimulus":[],"xmouse":[771,771,771,771,771,771,771,771,771,771,771,771,771,771,771,771,771,771,771,771,771,771,771,771,771,771,771,771,771,771,771,771,771,771,771,771,771,771,771,771,771,771,771,771,771,771,771,771,771,771,771,771,771,771,771,771,771,771,771,771,771,771,771,771,771,771,771,771,771,771,771,771,771,771,771,771,771,771,771,771,771,771,771,771,771,771,771,771,771,771,771,771,771,771,771,771,771,771,771,771,771,771,771,771,771,771,771,771,771,771,771,775,781,784,789,811,825,836,838,838,838,838,838,838,838,838,838,818,790,734,613,597,567,566,566,569,569,569,571,571,571,571,571,571,571,571,571,571,571,571,516],"ymouse":[568,568,568,568,568,568,568,568,568,568,568,568,568,568,568,568,568,568,568,568,568,568,568,568,568,568,568,568,568,568,568,568,568,568,568,568,568,568,568,568,568,568,568,568,568,568,568,568,568,568,568,568,568,568,568,568,568,568,568,568,568,568,568,568,568,568,568,568,568,568,568,568,568,568,568,568,568,568,568,568,568,568,568,568,568,568,568,568,568,568,568,568,568,568,568,568,568,568,568,568,568,568,568,568,568,568,568,568,568,568,568,566,565,565,563,549,538,528,526,525,525,525,525,525,525,525,525,512,489,440,314,290,221,188,139,63,39,21,5,5,5,5,5,5,5,5,5,5,5,5,9],"timestamp_mouse":[19,30,88,90,110,131,151,171,191,212,230,250,271,290,310,332,352,370,390,411,432,451,470,491,510,530,550,572,591,611,630,650,672,691,711,732,750,770,792,812,830,850,872,891,911,930,950,970,991,1013,1030,1050,1071,1090,1110,1130,1152,1170,1191,1210,1231,1251,1271,1315,1315,1330,1350,1372,1391,1410,1431,1451,1472,1490,1510,1530,1550,1571,1592,1610,1631,1651,1672,1690,1711,1731,1752,1772,1790,1810,1832,1852,1871,1890,1911,1931,1952,1970,1991,2010,2030,2050,2072,2090,2111,2132,2151,2171,2192,2211,2231,2252,2270,2291,2310,2330,2350,2371,2391,2411,2431,2450,2471,2490,2510,2531,2551,2572,2591,2611,2630,2654,2672,2691,2711,2731,2750,2771,2790,2811,2830,2851,2870,2890,2910,2931,2951,2970,2990,3011,3030],"xSR":741.5,"ySR":501.8,"xT1":424.9,"yT1":0,"xT2":1058.1,"yT2":0,"toosoon":0,"cond_shown":"Congruent","ratio_trial":100,"L_num":9,"L_den":15,"R_num":8,"R_den":16,"correct_side":1,"subjID":"JuanPabloSepulvedaCastro30","gender":"0","school":"6","age":"11"},{"start_time":1551899957429,"click_time":1551899958973,"finger_time":1551899958393,"fix_duration":554.2752182331706,"trial":16,"RT":964,"MT":580,"sideResp":2,"stimulus":[],"xmouse":[813,813,813,813,813,813,813,813,813,813,813,813,813,813,813,813,813,813,813,813,813,813,813,813,813,813,813,813,813,813,813,813,813,813,813,813,813,813,813,813,813,814,821,825,827,832,837,848,850,855,865,873,887,894,901,906,914,932,948,959,969,982,1015,1032,1052,1067,1079,1092,1100,1105,1107,1108,1110,1111,1113,1117,1117],"ymouse":[538,538,538,538,538,538,538,538,538,538,538,538,538,538,538,538,538,538,538,538,538,538,538,538,538,538,538,538,538,538,538,538,538,538,538,538,538,538,538,537,537,534,530,527,524,519,513,507,505,501,491,481,463,454,447,440,431,406,387,373,357,339,294,271,251,235,221,201,182,168,155,154,149,139,124,108,90],"timestamp_mouse":[18,59,63,83,104,125,144,163,183,205,224,244,263,284,303,325,344,364,385,405,423,443,464,485,503,524,543,564,585,603,623,644,663,683,703,724,744,765,783,804,823,844,864,883,905,923,944,964,992,1012,1024,1044,1064,1084,1103,1125,1144,1165,1183,1203,1225,1245,1264,1284,1304,1323,1343,1363,1384,1403,1423,1444,1463,1484,1503,1525,1544],"xSR":741.5,"ySR":501.8,"xT1":424.9,"yT1":0,"xT2":1058.1,"yT2":0,"toosoon":0,"cond_shown":"Incongruent","ratio_trial":300,"L_num":13,"L_den":26,"R_num":12,"R_den":15,"correct_side":2,"subjID":"JuanPabloSepulvedaCastro30","gender":"0","school":"6","age":"11"},{"start_time":1551899961406,"click_time":1551899962992,"finger_time":1551899962173,"fix_duration":1430.2652036382117,"trial":17,"RT":767,"MT":819,"sideResp":1,"stimulus":[],"xmouse":[826,825,824,823,823,823,823,823,823,823,823,823,823,823,823,823,823,823,823,823,823,823,823,823,823,823,823,823,823,823,823,823,823,823,823,823,823,828,832,845,852,862,867,874,887,892,895,898,899,899,899,896,886,870,827,800,774,751,731,697,685,677,672,670,669,667,663,656,645,614,593,581,570,563,555,549,541,531,526,517],"ymouse":[528,528,528,527,527,527,527,527,527,527,527,527,527,527,527,527,527,527,527,527,527,527,527,527,527,527,527,527,527,527,527,527,527,527,527,524,517,506,494,465,449,428,415,398,367,357,346,339,335,334,334,332,332,329,318,307,293,278,261,231,220,213,208,207,206,206,204,200,192,174,155,144,134,128,119,112,105,100,98,96],"timestamp_mouse":[17,26,61,67,87,107,126,146,167,187,206,227,248,267,287,306,327,347,366,386,408,427,447,467,487,507,527,547,566,587,606,627,646,667,687,706,726,747,767,786,815,830,846,868,886,907,926,946,967,986,1006,1027,1046,1066,1086,1107,1127,1148,1168,1187,1207,1226,1247,1266,1286,1306,1328,1347,1368,1387,1407,1426,1447,1466,1486,1506,1527,1547,1567,1586],"xSR":741.5,"ySR":501.8,"xT1":424.9,"yT1":0,"xT2":1058.1,"yT2":0,"toosoon":0,"cond_shown":"Incongruent","ratio_trial":300,"L_num":4,"L_den":20,"R_num":2,"R_den":4,"correct_side":2,"subjID":"JuanPabloSepulvedaCastro30","gender":"0","school":"6","age":"11"},{"start_time":1551899964359,"click_time":1551899965612,"finger_time":1551899965093,"fix_duration":646.9484154886106,"trial":18,"RT":734,"MT":519,"sideResp":1,"stimulus":[],"xmouse":[834,834,834,834,834,834,834,834,834,834,834,834,834,834,834,834,834,834,834,834,834,834,834,834,834,834,834,834,834,832,832,831,830,830,830,827,811,803,791,789,784,775,770,767,762,755,747,744,741,740,738,732,725,708,685,656,621,605,588,570,554,530,508],"ymouse":[520,520,520,520,520,520,520,520,520,520,520,520,520,520,520,520,520,520,520,520,520,520,520,520,520,520,520,520,520,520,520,520,520,520,520,520,499,483,460,455,445,434,429,426,423,415,403,398,391,381,369,336,314,277,244,209,174,163,153,143,131,109,95],"timestamp_mouse":[16,34,62,75,94,113,134,154,173,193,213,234,254,274,294,313,334,354,374,393,414,435,454,475,493,514,534,555,573,594,614,634,655,673,694,714,734,761,780,794,815,835,853,875,895,914,934,954,974,994,1015,1035,1054,1073,1095,1114,1134,1153,1173,1194,1214,1235,1253],"xSR":741.5,"ySR":501.8,"xT1":424.9,"yT1":0,"xT2":1058.1,"yT2":0,"toosoon":0,"cond_shown":"Incongruent","ratio_trial":100,"L_num":6,"L_den":10,"R_num":11,"R_den":22,"correct_side":1,"subjID":"JuanPabloSepulvedaCastro30","gender":"0","school":"6","age":"11"},{"start_time":1551899968061,"click_time":1551899969933,"finger_time":1551899969432,"fix_duration":1426.4499682533083,"trial":19,"RT":1371,"MT":501,"sideResp":1,"stimulus":[],"xmouse":[810,810,810,810,810,810,810,810,810,810,810,810,810,810,810,810,810,810,810,810,810,810,810,810,810,810,810,810,810,810,810,810,810,810,810,810,810,810,810,810,810,810,810,810,810,810,810,810,810,810,810,810,810,810,810,810,810,810,810,810,810,810,810,810,810,810,810,804,779,759,742,730,721,719,718,718,709,704,695,689,684,679,677,676,673,671,661,649,626,612,596,552,528,514],"ymouse":[540,540,540,540,540,540,540,540,540,540,540,540,540,540,540,540,540,540,540,540,540,540,540,540,540,540,540,540,540,540,540,540,540,540,540,540,540,540,540,540,540,540,540,540,540,540,540,540,540,540,540,540,540,540,540,540,540,540,540,540,540,540,540,540,540,540,540,524,465,419,388,366,337,324,309,295,260,244,227,218,214,209,208,206,204,203,194,185,172,162,150,112,95,85],"timestamp_mouse":[15,32,65,73,93,113,131,152,171,192,211,233,251,273,291,312,331,352,373,392,412,431,452,473,492,511,531,552,572,593,612,633,652,671,691,711,732,752,772,792,811,831,852,873,893,912,931,951,971,991,1012,1031,1053,1071,1092,1111,1132,1153,1172,1191,1211,1232,1251,1273,1292,1312,1331,1352,1371,1392,1417,1432,1452,1471,1492,1512,1533,1551,1571,1592,1612,1631,1652,1672,1691,1711,1731,1751,1771,1792,1812,1832,1851,1872],"xSR":741.5,"ySR":501.8,"xT1":424.9,"yT1":0,"xT2":1058.1,"yT2":0,"toosoon":0,"cond_shown":"Incongruent","ratio_trial":100,"L_num":4,"L_den":8,"R_num":8,"R_den":20,"correct_side":1,"subjID":"JuanPabloSepulvedaCastro30","gender":"0","school":"6","age":"11"},{"start_time":1551899971106,"click_time":1551899972473,"finger_time":1551899972373,"fix_duration":250,"trial":20,"RT":1267,"MT":100,"sideResp":1,"stimulus":[],"xmouse":[799,799,799,799,799,799,799,799,799,799,799,799,799,799,799,799,799,799,799,799,799,799,799,799,799,799,799,799,799,799,799,799,799,799,799,799,799,799,799,799,799,799,799,799,799,799,799,799,799,799,799,799,799,799,799,799,799,799,799,799,787,781,768,746,609,561,530,521],"ymouse":[527,527,527,527,527,527,527,527,527,527,527,527,527,527,527,527,527,527,527,527,527,527,527,527,527,527,527,527,527,527,527,527,527,527,527,527,527,527,527,527,527,527,527,527,527,527,527,527,527,527,527,527,527,527,527,527,527,527,527,527,523,517,496,444,184,96,36,19],"timestamp_mouse":[18,48,67,87,108,127,147,167,187,208,227,247,266,287,308,328,347,366,387,407,427,446,468,487,508,527,547,566,587,606,628,648,667,687,707,728,746,767,786,807,827,847,867,887,908,927,946,967,986,1013,1026,1047,1068,1087,1107,1126,1147,1168,1187,1206,1227,1247,1267,1287,1307,1329,1348,1366],"xSR":741.5,"ySR":501.8,"xT1":424.9,"yT1":0,"xT2":1058.1,"yT2":0,"toosoon":0,"cond_shown":"Congruent","ratio_trial":100,"L_num":10,"L_den":25,"R_num":3,"R_den":10,"correct_side":1,"subjID":"JuanPabloSepulvedaCastro30","gender":"0","school":"6","age":"11"},{"start_time":1551899973719,"click_time":1551899974853,"finger_time":1551899974653,"fix_duration":305.8300982809049,"trial":21,"RT":934,"MT":200,"sideResp":2,"stimulus":[],"xmouse":[824,824,824,824,824,824,824,824,824,824,824,824,824,824,824,824,824,824,824,824,824,824,824,824,824,824,824,824,824,822,820,817,816,816,816,816,816,816,816,816,816,816,816,816,816,819,834,866,892,918,944,987,1003,1029,1048,1070],"ymouse":[562,562,562,562,562,562,562,562,562,562,562,562,562,562,562,562,562,562,562,562,562,562,562,562,562,562,562,562,562,559,558,555,554,553,553,553,553,553,553,553,553,553,553,546,534,466,399,290,240,195,159,108,89,66,49,30],"timestamp_mouse":[17,64,73,94,115,134,155,174,194,214,234,253,274,294,314,334,354,374,393,415,433,454,474,494,514,533,553,574,593,614,634,654,673,694,715,735,754,774,794,813,833,853,875,894,913,934,954,973,993,1013,1033,1054,1076,1098,1114,1134],"xSR":741.5,"ySR":501.8,"xT1":424.9,"yT1":0,"xT2":1058.1,"yT2":0,"toosoon":0,"cond_shown":"Congruent","ratio_trial":300,"L_num":1,"L_den":5,"R_num":6,"R_den":12,"correct_side":2,"subjID":"JuanPabloSepulvedaCastro30","gender":"0","school":"6","age":"11"},{"start_time":1551899977293,"click_time":1551899978193,"finger_time":1551899978094,"fix_duration":1379.9607359845313,"trial":22,"RT":801,"MT":99,"sideResp":1,"stimulus":[],"xmouse":[797,797,797,797,797,797,797,797,797,797,797,797,797,797,797,797,797,797,797,797,797,797,797,797,797,797,797,797,797,797,797,797,797,797,797,797,797,797,796,720,683,638,574,514,436],"ymouse":[528,528,528,528,528,528,528,528,528,528,528,528,528,528,528,528,528,528,528,528,528,528,528,528,528,528,528,528,528,528,528,528,528,528,528,528,528,528,527,454,395,315,223,148,76],"timestamp_mouse":[15,21,77,90,99,119,139,159,179,200,221,240,259,279,299,320,341,360,380,400,419,439,460,479,499,521,539,560,579,599,619,640,659,680,699,720,739,761,780,801,827,840,860,880,899],"xSR":741.5,"ySR":501.8,"xT1":424.9,"yT1":0,"xT2":1058.1,"yT2":0,"toosoon":0,"cond_shown":"Congruent","ratio_trial":200,"L_num":9,"L_den":20,"R_num":4,"R_den":16,"correct_side":1,"subjID":"JuanPabloSepulvedaCastro30","gender":"0","school":"6","age":"11"},{"start_time":1551899980302,"click_time":1551899981332,"finger_time":1551899981072,"fix_duration":726.0120466809844,"trial":23,"RT":770,"MT":260,"sideResp":2,"stimulus":[],"xmouse":[768,768,768,768,768,768,768,768,768,768,768,768,768,768,768,768,768,768,768,768,768,768,768,768,768,768,768,768,768,768,768,768,768,768,768,768,794,888,1143,1254,1368,1381,1388,1389,1389,1389,1388,1343,1265,1165,1061],"ymouse":[560,560,560,560,560,560,560,560,560,560,560,560,560,560,560,560,560,560,560,560,560,560,560,560,560,560,560,560,560,560,560,560,560,560,560,560,545,465,203,94,18,11,5,5,5,5,5,21,41,56,60],"timestamp_mouse":[16,60,70,91,111,130,151,171,192,211,230,250,271,291,310,332,352,370,391,411,432,450,470,492,512,530,551,570,591,611,632,650,671,691,712,730,750,770,790,813,833,850,871,891,910,931,950,972,994,1010,1030],"xSR":741.5,"ySR":501.8,"xT1":424.9,"yT1":0,"xT2":1058.1,"yT2":0,"toosoon":0,"cond_shown":"Incongruent","ratio_trial":200,"L_num":7,"L_den":10,"R_num":14,"R_den":28,"correct_side":1,"subjID":"JuanPabloSepulvedaCastro30","gender":"0","school":"6","age":"11"},{"start_time":1551899986422,"click_time":1551899988192,"finger_time":1551899987693,"fix_duration":1308.492201797984,"trial":24,"RT":1271,"MT":499,"sideResp":1,"stimulus":[],"xmouse":[803,803,803,803,803,803,803,803,803,803,803,803,803,803,803,803,803,803,803,803,803,803,803,803,803,803,803,803,803,803,803,803,803,803,805,806,806,806,806,806,806,806,806,806,806,806,806,806,806,806,806,806,806,806,806,806,806,805,801,794,779,771,754,746,734,723,702,702,674,657,638,628,614,608,604,601,601,599,597,593,588,578,573,567,560,553,543,509],"ymouse":[574,574,574,574,574,574,574,574,574,574,574,574,574,574,574,574,574,574,574,574,574,574,574,574,574,574,574,574,574,574,574,574,574,574,571,570,570,570,570,570,570,570,570,570,570,570,570,570,570,570,570,570,570,570,570,570,568,558,550,539,523,512,486,474,453,433,399,399,357,322,277,256,232,222,212,206,201,195,192,186,178,167,160,152,142,132,123,97],"timestamp_mouse":[16,57,71,91,110,131,150,171,192,210,231,251,271,292,311,331,350,370,391,412,432,452,470,491,510,532,551,571,590,610,630,651,671,690,712,730,751,771,792,810,830,850,871,890,911,932,952,971,990,1012,1031,1051,1071,1090,1110,1130,1151,1171,1190,1210,1232,1251,1271,1297,1319,1335,1362,1371,1390,1410,1431,1450,1471,1491,1511,1531,1551,1572,1590,1611,1630,1651,1675,1691,1711,1730,1750,1770],"xSR":741.5,"ySR":501.8,"xT1":424.9,"yT1":0,"xT2":1058.1,"yT2":0,"toosoon":0,"cond_shown":"Incongruent","ratio_trial":100,"L_num":9,"L_den":15,"R_num":13,"R_den":26,"correct_side":1,"subjID":"JuanPabloSepulvedaCastro30","gender":"0","school":"6","age":"11"},{"start_time":1551899990182,"click_time":1551899991713,"finger_time":1551899991473,"fix_duration":1269.3224082735578,"trial":25,"RT":1291,"MT":240,"sideResp":2,"stimulus":[],"xmouse":[795,795,795,795,795,795,795,795,795,795,795,795,795,795,795,795,795,795,795,795,795,795,795,795,795,795,795,795,795,795,795,795,795,795,795,795,795,795,795,795,795,795,795,795,795,795,795,795,795,796,804,811,815,820,820,820,820,820,820,820,820,821,826,829,836,849,861,887,897,918,964,991,1027,1041,1048,1056,1063],"ymouse":[531,531,531,531,531,531,531,531,531,531,531,531,531,531,531,531,531,531,531,531,531,531,531,531,531,531,531,531,531,531,531,531,531,531,531,531,531,531,531,531,531,531,531,531,531,531,531,531,531,532,532,527,524,521,521,521,521,521,521,521,521,521,513,507,488,461,440,377,347,294,196,157,115,100,93,79,68],"timestamp_mouse":[10,35,51,71,91,110,130,150,170,190,210,230,250,270,290,311,330,350,370,390,410,430,450,470,490,510,530,550,570,590,610,630,650,670,690,710,731,750,770,790,810,830,851,870,890,910,930,950,970,990,1013,1031,1051,1070,1090,1110,1130,1152,1172,1191,1211,1231,1251,1270,1291,1310,1332,1354,1370,1391,1410,1431,1451,1472,1492,1512,1531],"xSR":741.5,"ySR":501.8,"xT1":424.9,"yT1":0,"xT2":1058.1,"yT2":0,"toosoon":0,"cond_shown":"Congruent","ratio_trial":300,"L_num":3,"L_den":12,"R_num":11,"R_den":20,"correct_side":2,"subjID":"JuanPabloSepulvedaCastro30","gender":"0","school":"6","age":"11"},{"start_time":1551899992924,"click_time":1551899994472,"finger_time":1551899994133,"fix_duration":250,"trial":26,"RT":1209,"MT":339,"sideResp":1,"stimulus":[],"xmouse":[836,836,836,836,836,836,836,836,836,836,836,836,836,836,836,836,836,836,836,836,836,836,836,836,836,834,834,834,834,834,834,833,833,833,833,833,833,833,833,833,832,832,832,832,832,832,832,832,832,832,832,832,832,832,832,832,831,826,816,801,783,762,721,710,666,651,646,642,627,614,602,591,565,555,545,533,525,513],"ymouse":[552,552,552,552,552,552,552,552,552,552,552,552,552,552,552,552,552,552,552,552,552,552,552,552,552,551,551,550,550,550,550,550,550,550,550,550,550,550,550,550,549,549,549,549,549,549,549,549,549,549,549,549,549,549,549,549,549,546,536,517,493,460,391,376,326,312,301,290,251,228,207,188,152,133,115,87,70,45],"timestamp_mouse":[19,28,53,69,88,110,128,148,169,189,208,229,250,269,288,308,329,350,370,389,408,429,450,468,488,509,528,549,569,588,608,629,648,669,690,710,728,749,768,788,808,830,849,868,888,909,930,948,969,989,1013,1029,1048,1068,1090,1108,1129,1149,1169,1188,1209,1228,1250,1269,1292,1309,1329,1350,1370,1389,1408,1429,1449,1469,1490,1509,1530,1548],"xSR":741.5,"ySR":501.8,"xT1":424.9,"yT1":0,"xT2":1058.1,"yT2":0,"toosoon":0,"cond_shown":"Congruent","ratio_trial":100,"L_num":7,"L_den":14,"R_num":15,"R_den":25,"correct_side":2,"subjID":"JuanPabloSepulvedaCastro30","gender":"0","school":"6","age":"11"},{"start_time":1551899995520,"click_time":1551899997313,"finger_time":1551899996032,"fix_duration":325.61820451543457,"trial":27,"RT":512,"MT":1281,"sideResp":1,"stimulus":[],"xmouse":[798,798,798,798,798,798,798,798,798,798,798,798,798,798,798,798,798,798,798,798,798,798,796,791,784,773,751,730,694,680,666,651,636,618,609,608,603,599,591,587,585,584,584,584,584,584,584,582,579,578,578,572,566,565,565,565,565,564,563,563,561,558,558,557,557,557,555,549,538,536,536,536,536,535,533,531,531,531,529,528,527,527,527,526,525,525,525,525,525,524],"ymouse":[538,538,538,538,538,538,538,538,538,538,538,538,538,538,538,538,538,538,538,538,538,538,534,527,515,494,455,420,346,306,276,243,213,181,166,161,151,141,124,117,114,113,113,113,113,113,113,112,111,111,111,108,106,105,105,105,105,105,105,105,105,105,105,105,105,105,104,99,92,91,91,91,91,90,90,89,88,88,88,88,87,87,87,87,86,86,86,86,86,86],"timestamp_mouse":[18,49,52,73,93,113,133,152,173,193,213,233,254,272,292,313,334,352,372,394,413,432,453,473,494,512,533,553,572,592,613,632,652,672,692,712,732,752,772,793,813,832,853,873,892,913,934,953,974,995,1016,1034,1052,1073,1094,1113,1133,1152,1174,1194,1213,1232,1252,1272,1292,1312,1333,1352,1372,1394,1412,1432,1453,1474,1492,1513,1534,1554,1573,1593,1612,1633,1653,1674,1694,1713,1733,1753,1773,1793],"xSR":741.5,"ySR":501.8,"xT1":424.9,"yT1":0,"xT2":1058.1,"yT2":0,"toosoon":0,"cond_shown":"Incongruent","ratio_trial":100,"L_num":13,"L_den":26,"R_num":12,"R_den":20,"correct_side":2,"subjID":"JuanPabloSepulvedaCastro30","gender":"0","school":"6","age":"11"},{"start_time":1551900002494,"click_time":1551900003734,"finger_time":1551900002853,"fix_duration":899.6388020622018,"trial":28,"RT":359,"MT":881,"sideResp":1,"stimulus":[],"xmouse":[773,773,773,773,773,773,773,773,773,773,773,773,773,773,773,773,765,712,530,340,340,340,340,340,1112,1487,1487,1487,1487,1113,711,444,351,354,596,826,1015,1078,1073,861,702,571,551,667,756,793,793,793,793,793,793,793,793,834,1280,1418,1461,1385,1299,947,645,439],"ymouse":[535,535,535,535,535,535,535,535,535,535,535,535,535,535,535,534,520,446,235,45,45,45,45,45,114,189,189,189,189,241,177,130,113,113,138,179,229,249,248,186,141,94,81,40,15,1,1,1,1,1,1,1,1,42,157,199,219,219,206,144,92,56],"timestamp_mouse":[11,57,60,80,99,119,138,158,179,199,218,238,259,279,300,320,338,359,378,399,423,438,459,479,498,518,539,558,579,598,619,639,658,678,698,719,739,758,778,798,819,838,858,878,899,918,939,958,978,1002,1019,1038,1058,1079,1098,1119,1138,1163,1179,1199,1219,1239],"xSR":741.5,"ySR":501.8,"xT1":424.9,"yT1":0,"xT2":1058.1,"yT2":0,"toosoon":0,"cond_shown":"Incongruent","ratio_trial":200,"L_num":4,"L_den":6,"R_num":14,"R_den":30,"correct_side":1,"subjID":"JuanPabloSepulvedaCastro30","gender":"0","school":"6","age":"11"},{"start_time":1551900005556,"click_time":1551900010272,"finger_time":1551900006273,"fix_duration":461.3044871439709,"trial":29,"RT":717,"MT":3999,"sideResp":1,"stimulus":[],"xmouse":[799,799,799,797,797,797,797,797,797,797,797,797,797,797,797,797,797,796,794,793,793,791,791,791,791,791,791,791,791,791,791,788,785,785,870,980,1095,1178,1227,1251,1257,1257,1257,1256,1224,1019,1019,1019,1019,1019,1019,1019,1019,1019,1019,1019,1019,1019,1019,1019,1019,1019,1019,1019,1019,1019,1019,1019,1019,1019,1019,1019,1019,1019,1019,1019,529,660,718,761,781,787,784,780,776,767,746,733,721,716,715,715,720,725,731,740,756,769,770,770,770,770,770,770,770,770,770,770,770,770,770,770,770,770,770,770,770,770,770,770,770,769,740,700,646,542,433,411,406,405,405,405,406,408,412,424,460],"ymouse":[543,543,543,543,543,543,543,543,543,543,543,543,543,543,543,543,543,543,542,542,542,542,542,542,542,542,542,542,542,542,542,538,529,525,445,350,251,184,150,138,134,134,134,130,113,34,34,34,34,34,34,34,34,34,34,34,34,34,34,34,34,34,34,34,34,34,34,34,34,34,34,34,34,34,34,34,21,209,288,341,368,389,394,397,398,397,393,392,394,400,407,417,447,469,491,510,533,550,551,551,551,551,551,551,551,551,551,551,551,551,551,551,551,551,551,551,551,551,551,551,549,540,481,422,345,223,123,106,101,100,100,98,97,95,93,89,78],"timestamp_mouse":[17,37,79,97,116,137,157,177,197,216,237,256,278,297,317,336,357,377,396,417,436,457,476,497,517,537,556,577,596,618,636,656,676,697,717,747,765,777,796,816,837,857,876,896,916,936,956,1796,1796,2794,2796,3018,3054,3056,3076,3096,3116,3137,3156,3176,3197,3217,3237,3256,3276,3296,3318,3337,3356,3376,3397,3417,3437,3457,3476,3498,3518,3538,3556,3578,3597,3616,3638,3656,3678,3698,3716,3736,3757,3777,3796,3816,3836,3856,3878,3897,3916,3936,3958,3977,3996,4017,4037,4057,4078,4098,4117,4137,4156,4177,4197,4216,4238,4257,4276,4296,4317,4337,4358,4377,4396,4417,4436,4464,4483,4498,4517,4536,4556,4577,4596,4616,4637,4656,4678,4698,4716],"xSR":741.5,"ySR":501.8,"xT1":424.9,"yT1":0,"xT2":1058.1,"yT2":0,"toosoon":0,"cond_shown":"Incongruent","ratio_trial":200,"L_num":7,"L_den":15,"R_num":6,"R_den":9,"correct_side":2,"subjID":"JuanPabloSepulvedaCastro30","gender":"0","school":"6","age":"11"},{"start_time":1551900012290,"click_time":1551900013773,"finger_time":1551900013372,"fix_duration":914.4655990892322,"trial":30,"RT":1082,"MT":401,"sideResp":1,"stimulus":[],"xmouse":[786,786,786,786,786,786,786,786,786,786,786,786,786,786,786,786,786,786,786,786,786,786,786,786,786,786,786,786,786,786,786,786,786,786,786,786,786,786,786,786,786,786,786,786,786,786,786,786,786,786,786,786,786,786,783,781,772,767,758,744,735,720,701,673,648,612,583,550,516,502,492,481,472,460],"ymouse":[507,507,507,507,507,507,507,507,507,507,507,507,507,507,507,507,507,507,507,507,507,507,507,507,507,507,507,507,507,507,507,507,507,507,507,507,507,507,507,507,507,507,507,507,507,507,507,507,507,507,507,507,507,498,480,460,430,408,390,368,361,342,326,301,283,260,238,201,153,136,123,113,106,95],"timestamp_mouse":[15,23,80,84,103,123,142,162,183,203,224,243,262,283,304,323,343,362,382,403,423,443,463,484,502,523,544,564,582,602,622,643,662,682,703,724,742,763,783,804,822,842,862,883,904,924,943,962,982,1011,1023,1043,1063,1082,1113,1133,1150,1164,1182,1202,1223,1242,1264,1282,1303,1322,1343,1362,1382,1403,1422,1442,1462,1483],"xSR":741.5,"ySR":501.8,"xT1":424.9,"yT1":0,"xT2":1058.1,"yT2":0,"toosoon":0,"cond_shown":"Congruent","ratio_trial":200,"L_num":3,"L_den":10,"R_num":11,"R_den":22,"correct_side":2,"subjID":"JuanPabloSepulvedaCastro30","gender":"0","school":"6","age":"11"},{"start_time":1551900015616,"click_time":1551900016592,"finger_time":1551900016192,"fix_duration":1043.2903249601375,"trial":31,"RT":576,"MT":400,"sideResp":1,"stimulus":[],"xmouse":[794,794,794,794,795,795,795,795,795,795,795,795,795,795,795,795,795,795,795,795,795,795,795,795,795,795,795,795,795,793,791,788,786,783,778,770,756,719,703,683,667,631,620,603,589,573,550,482],"ymouse":[532,532,532,531,530,529,529,528,528,528,528,528,528,528,528,527,521,519,517,515,514,513,512,511,510,509,504,501,497,491,487,484,478,470,460,443,421,368,345,325,309,275,264,242,228,216,173,52],"timestamp_mouse":[16,59,77,96,117,137,156,177,197,217,236,256,277,296,317,337,356,376,398,416,436,457,477,497,517,537,556,576,602,624,640,656,677,696,717,736,756,777,797,816,838,856,876,897,917,937,957,976],"xSR":741.5,"ySR":501.8,"xT1":424.9,"yT1":0,"xT2":1058.1,"yT2":0,"toosoon":0,"cond_shown":"Incongruent","ratio_trial":300,"L_num":4,"L_den":5,"R_num":8,"R_den":16,"correct_side":1,"subjID":"JuanPabloSepulvedaCastro30","gender":"0","school":"6","age":"11"},{"start_time":1551900017624,"click_time":1551900019873,"finger_time":1551900018233,"fix_duration":250,"trial":32,"RT":609,"MT":1640,"sideResp":2,"stimulus":[],"xmouse":[817,817,817,817,817,817,817,817,817,817,817,817,817,817,817,817,817,816,814,812,809,807,807,807,807,807,807,807,807,806,806,805,804,803,803,803,803,803,803,803,803,803,803,803,803,803,803,802,802,802,802,802,800,799,798,798,797,797,798,807,818,885,928,968,1000,1021,1038,1043,1045,1046,1047,1050,1052,1053,1054,1055,1059,1062,1065,1067,1068,1069,1069,1070,1070,1070,1070,1070,1070,1070,1070,1070,1070,1070,1070,1071,1072,1072,1072,1072,1072,1072,1072,1072,1072,1072,1072,1072,1072,1072,1073,1075],"ymouse":[511,511,511,511,511,511,511,511,511,511,511,511,511,511,511,511,511,512,511,509,505,502,502,502,502,502,502,502,502,501,500,497,491,487,486,485,484,483,483,483,483,482,482,482,482,482,481,480,480,480,479,478,474,472,470,468,460,455,447,431,412,342,295,245,205,177,147,137,134,132,130,127,124,123,121,120,116,114,111,108,107,106,106,105,105,105,105,105,105,105,105,105,105,105,104,102,102,102,102,102,102,102,102,102,102,102,102,102,102,102,100,97],"timestamp_mouse":[15,58,69,88,108,129,149,168,188,208,228,249,269,288,310,330,350,369,389,408,429,449,469,488,508,529,548,569,588,609,629,648,670,689,709,730,748,768,788,809,828,848,869,888,908,930,949,970,988,1008,1028,1048,1068,1089,1108,1128,1149,1170,1189,1208,1229,1249,1269,1291,1308,1328,1349,1370,1388,1408,1428,1449,1469,1490,1512,1528,1549,1570,1588,1608,1628,1649,1669,1689,1709,1728,1748,1768,1789,1808,1829,1848,1869,1889,1909,1928,1949,1968,1990,2009,2029,2049,2069,2088,2108,2128,2148,2168,2189,2209,2228,2249],"xSR":741.5,"ySR":501.8,"xT1":424.9,"yT1":0,"xT2":1058.1,"yT2":0,"toosoon":0,"cond_shown":"Congruent","ratio_trial":300,"L_num":8,"L_den":15,"R_num":10,"R_den":12,"correct_side":2,"subjID":"JuanPabloSepulvedaCastro30","gender":"0","school":"6","age":"11"},{"start_time":1551900022319,"click_time":1551900023714,"finger_time":1551900023432,"fix_duration":1424.137714469744,"trial":33,"RT":1113,"MT":282,"sideResp":2,"stimulus":[],"xmouse":[820,820,820,820,820,820,820,820,820,820,820,820,820,820,820,820,820,820,820,820,820,820,820,820,820,820,820,820,820,820,820,820,820,820,820,820,820,820,820,820,820,820,820,820,820,820,820,820,820,820,820,821,828,833,838,843,852,862,899,926,948,968,989,1003,1034,1046,1059,1070,1077,1083],"ymouse":[528,528,528,528,528,528,528,528,528,528,528,528,528,528,528,528,528,528,528,528,528,528,528,528,528,528,528,528,528,528,528,528,528,528,528,528,528,528,528,528,528,528,528,528,528,528,528,528,528,528,528,526,516,509,503,493,471,446,364,327,303,284,267,253,213,192,168,131,115,99],"timestamp_mouse":[17,33,59,74,94,113,133,154,175,193,213,233,254,274,294,314,334,353,374,394,414,435,453,474,493,515,534,553,574,594,615,635,654,673,694,714,734,753,774,794,815,834,854,873,894,914,933,954,973,993,1014,1033,1054,1073,1094,1113,1133,1153,1173,1193,1213,1233,1253,1273,1294,1313,1333,1353,1377,1395],"xSR":741.5,"ySR":501.8,"xT1":424.9,"yT1":0,"xT2":1058.1,"yT2":0,"toosoon":0,"cond_shown":"Incongruent","ratio_trial":300,"L_num":1,"L_den":2,"R_num":3,"R_den":15,"correct_side":1,"subjID":"JuanPabloSepulvedaCastro30","gender":"0","school":"6","age":"11"},{"start_time":1551900024899,"click_time":1551900026194,"finger_time":1551900025533,"fix_duration":405.47770542923945,"trial":34,"RT":634,"MT":661,"sideResp":1,"stimulus":[],"xmouse":[755,755,755,755,755,755,755,755,755,755,756,756,756,756,756,756,756,755,753,751,751,750,750,750,750,750,750,750,750,748,742,728,705,630,601,577,549,530,494,478,473,476,480,487,500,503,507,510,521,530,537,543,546,548,548,548,548,548,548,548,548,546,541,530,522],"ymouse":[551,551,551,551,551,551,551,551,551,551,549,544,541,539,539,539,539,537,534,532,531,531,531,531,531,531,531,531,531,530,528,517,497,461,448,428,395,372,322,298,267,246,230,212,182,174,167,159,125,102,83,67,57,52,52,51,51,51,51,51,50,50,52,55,57],"timestamp_mouse":[16,51,54,74,94,114,133,154,174,194,213,233,253,273,294,313,334,354,373,393,413,434,453,475,494,514,535,555,573,594,613,634,653,674,697,715,733,755,774,794,814,834,854,873,894,913,933,953,973,995,1013,1034,1054,1074,1095,1114,1134,1154,1175,1194,1214,1233,1253,1274,1295],"xSR":741.5,"ySR":501.8,"xT1":424.9,"yT1":0,"xT2":1058.1,"yT2":0,"toosoon":0,"cond_shown":"Incongruent","ratio_trial":200,"L_num":7,"L_den":10,"R_num":12,"R_den":24,"correct_side":1,"subjID":"JuanPabloSepulvedaCastro30","gender":"0","school":"6","age":"11"},{"start_time":1551900030115,"click_time":1551900032152,"finger_time":1551900031092,"fix_duration":441.2225198240836,"trial":35,"RT":977,"MT":1060,"sideResp":2,"stimulus":[],"xmouse":[777,777,777,777,777,777,777,777,777,777,777,777,777,777,777,777,777,777,777,777,777,777,777,777,777,777,777,777,777,777,777,777,777,777,777,777,777,777,777,777,777,777,777,777,777,777,778,782,790,796,807,807,835,840,859,871,886,935,957,977,992,1002,1014,1019,1024,1032,1036,1042,1043,1043,1043,1043,1043,1043,1043,1043,1043,1043,1043,1043,1043,1043,1043,1043,1043,1043,1043,1043,1043,1043,1043,1043,1050,1053,1054,1055,1057,1058,1058,1058,1058,1060],"ymouse":[532,532,532,532,532,532,532,532,532,532,532,532,532,532,532,532,532,532,532,532,532,532,532,532,532,532,532,532,532,532,532,532,532,532,532,532,532,532,532,532,532,532,532,532,532,532,528,521,501,482,462,462,419,414,392,378,360,303,268,236,210,190,162,148,133,115,99,77,74,74,74,74,74,74,74,74,74,74,74,74,74,74,74,74,74,74,74,74,74,74,74,74,70,70,70,70,70,70,70,70,70,70],"timestamp_mouse":[17,51,59,78,97,117,138,157,177,198,217,237,257,278,298,319,337,358,378,398,419,437,459,478,499,518,537,557,578,597,617,637,657,678,697,717,738,758,778,797,817,838,857,878,897,917,937,958,977,1003,1022,1037,1058,1078,1097,1118,1137,1158,1178,1197,1217,1237,1258,1277,1298,1317,1337,1357,1380,1397,1418,1437,1458,1477,1497,1517,1538,1558,1577,1597,1618,1638,1657,1677,1697,1717,1737,1757,1777,1798,1817,1838,1857,1880,1897,1918,1938,1957,1978,1997,2017,2037],"xSR":741.5,"ySR":501.8,"xT1":424.9,"yT1":0,"xT2":1058.1,"yT2":0,"toosoon":0,"cond_shown":"Congruent","ratio_trial":100,"L_num":11,"L_den":22,"R_num":6,"R_den":15,"correct_side":1,"subjID":"JuanPabloSepulvedaCastro30","gender":"0","school":"6","age":"11"},{"start_time":1551900039060,"click_time":1551900040134,"finger_time":1551900039076,"fix_duration":846.9619564519032,"trial":36,"RT":16,"MT":1058,"sideResp":1,"stimulus":[],"xmouse":[901,917,919,913,868,859,859,859,859,859,859,937,926,910,881,872,866,860,856,845,839,830,823,817,809,808,806,806,806,806,806,806,806,806,806,806,806,806,806,806,806,806,806,806,806,806,801,792,773,742,659,538,511],"ymouse":[216,158,160,197,529,719,719,719,719,719,719,758,735,715,689,682,673,665,657,638,629,614,600,587,562,555,550,547,546,546,546,545,545,545,545,545,545,545,545,545,545,545,545,545,545,540,530,508,467,397,243,47,9],"timestamp_mouse":[16,54,73,92,112,133,152,172,192,213,232,252,273,293,312,333,352,373,393,412,432,452,472,493,512,532,552,574,593,612,634,653,672,692,713,733,752,772,793,812,833,853,874,892,913,932,952,973,993,1013,1033,1053,1073],"xSR":741.5,"ySR":501.8,"xT1":424.9,"yT1":0,"xT2":1058.1,"yT2":0,"toosoon":0,"cond_shown":"Incongruent","ratio_trial":100,"L_num":3,"L_den":9,"R_num":7,"R_den":30,"correct_side":1,"subjID":"JuanPabloSepulvedaCastro30","gender":"0","school":"6","age":"11"},{"start_time":1551900041445,"click_time":1551900043213,"finger_time":1551900042814,"fix_duration":250,"trial":37,"RT":1369,"MT":399,"sideResp":1,"stimulus":[],"xmouse":[759,759,759,759,759,759,759,759,759,759,759,759,759,759,759,759,759,759,759,759,759,759,759,759,759,759,759,759,759,759,759,759,759,759,759,759,759,759,759,759,759,759,759,759,759,759,759,759,759,759,759,759,759,759,759,759,759,759,759,759,759,759,759,759,759,759,760,756,746,730,696,682,678,673,666,637,626,618,614,611,603,600,597,591,586,553,512,461],"ymouse":[507,507,507,507,507,507,507,507,507,507,507,507,507,507,507,507,507,507,507,507,507,507,507,507,507,507,507,507,507,507,507,507,507,507,507,507,507,507,507,507,507,507,507,507,507,507,507,507,507,507,507,507,507,507,507,507,507,507,507,507,507,507,507,507,507,507,506,497,473,438,377,347,332,317,299,251,233,221,215,211,205,204,201,195,189,160,117,62],"timestamp_mouse":[15,27,76,88,108,128,147,168,187,207,229,249,267,287,307,327,348,367,388,407,429,448,467,488,507,529,549,568,588,607,628,647,668,687,707,728,748,768,789,807,827,847,867,889,908,928,948,967,988,1013,1028,1047,1068,1087,1108,1127,1149,1167,1187,1208,1228,1247,1269,1289,1307,1327,1348,1369,1390,1409,1428,1447,1467,1487,1508,1527,1547,1567,1588,1607,1627,1648,1668,1687,1707,1727,1747,1768],"xSR":741.5,"ySR":501.8,"xT1":424.9,"yT1":0,"xT2":1058.1,"yT2":0,"toosoon":0,"cond_shown":"Congruent","ratio_trial":300,"L_num":24,"L_den":30,"R_num":8,"R_den":16,"correct_side":1,"subjID":"JuanPabloSepulvedaCastro30","gender":"0","school":"6","age":"11"},{"start_time":1551900046462,"click_time":1551900048133,"finger_time":1551900047733,"fix_duration":961.6382694179069,"trial":38,"RT":1271,"MT":400,"sideResp":1,"stimulus":[],"xmouse":[784,784,784,784,784,784,784,784,784,784,784,784,784,784,784,784,784,784,784,784,784,784,784,784,784,784,784,784,784,784,784,784,784,784,784,784,784,784,784,784,784,784,784,784,784,784,784,784,784,784,784,784,784,784,784,784,784,784,783,778,762,748,728,702,643,621,609,602,599,590,587,586,586,586,586,586,582,579,576,556,543,533,521],"ymouse":[546,546,546,546,546,546,546,546,546,546,546,546,546,546,546,546,546,546,546,546,546,546,546,546,546,546,546,546,546,546,546,546,546,546,546,546,546,546,546,546,546,546,546,546,546,546,546,546,546,546,546,546,546,546,546,546,546,546,546,544,536,527,514,500,458,430,393,352,319,254,235,222,215,211,202,196,189,184,177,141,125,110,96],"timestamp_mouse":[15,60,71,92,111,131,150,170,190,210,230,251,271,290,312,330,350,370,392,410,431,450,471,492,512,532,551,570,590,610,632,651,670,690,711,731,751,770,792,812,830,850,870,890,911,930,952,972,991,1011,1030,1050,1071,1092,1110,1131,1152,1172,1191,1210,1230,1250,1271,1290,1310,1331,1351,1370,1390,1410,1432,1451,1470,1490,1510,1531,1551,1570,1590,1610,1632,1651,1670],"xSR":741.5,"ySR":501.8,"xT1":424.9,"yT1":0,"xT2":1058.1,"yT2":0,"toosoon":0,"cond_shown":"Incongruent","ratio_trial":300,"L_num":3,"L_den":6,"R_num":4,"R_den":20,"correct_side":1,"subjID":"JuanPabloSepulvedaCastro30","gender":"0","school":"6","age":"11"},{"start_time":1551900049285,"click_time":1551900051352,"finger_time":1551900050733,"fix_duration":250,"trial":39,"RT":1448,"MT":619,"sideResp":1,"stimulus":[],"xmouse":[767,767,767,767,767,767,767,767,767,767,767,767,767,767,767,767,767,767,767,767,767,768,768,768,768,768,768,768,768,768,768,768,768,768,768,768,768,768,768,768,768,768,768,768,768,768,768,768,768,768,768,768,768,768,768,768,768,768,768,768,768,768,768,768,768,768,768,768,767,758,744,725,705,670,662,657,651,643,633,633,633,631,626,610,602,593,582,569,554,550,541,539,538,538,538,538,538,538,538,538,536,528,520],"ymouse":[565,565,565,565,565,565,565,565,565,565,565,565,565,565,565,565,565,565,565,565,565,565,565,565,565,565,565,565,565,565,565,565,565,565,565,565,565,565,565,565,565,565,565,565,565,565,565,565,565,565,565,565,565,565,565,565,565,565,565,565,565,565,565,565,565,565,565,565,563,546,515,474,428,335,278,222,188,165,144,141,135,126,116,95,88,81,79,76,69,66,64,64,63,63,63,63,63,63,63,63,63,64,65],"timestamp_mouse":[16,28,54,67,87,107,128,147,168,187,207,228,249,268,313,327,347,369,388,407,427,448,468,489,508,527,549,567,588,609,628,648,667,688,709,728,748,769,788,808,827,849,869,888,909,927,948,969,987,1013,1027,1047,1068,1088,1107,1128,1149,1168,1188,1209,1227,1247,1268,1289,1307,1328,1349,1367,1388,1407,1428,1448,1468,1488,1508,1528,1548,1568,1588,1608,1628,1648,1668,1687,1708,1728,1747,1768,1787,1807,1827,1847,1868,1888,1907,1928,1947,1967,1987,2008,2027,2049,2067],"xSR":741.5,"ySR":501.8,"xT1":424.9,"yT1":0,"xT2":1058.1,"yT2":0,"toosoon":0,"cond_shown":"Incongruent","ratio_trial":200,"L_num":1,"L_den":3,"R_num":2,"R_den":15,"correct_side":1,"subjID":"JuanPabloSepulvedaCastro30","gender":"0","school":"6","age":"11"},{"start_time":1551900053633,"click_time":1551900055432,"finger_time":1551900054932,"fix_duration":1358.641209643088,"trial":40,"RT":1299,"MT":500,"sideResp":2,"stimulus":[],"xmouse":[784,784,784,784,784,784,784,785,785,785,785,785,785,785,785,785,785,785,785,785,785,785,785,785,785,785,785,785,785,785,785,785,785,785,785,785,785,785,785,785,785,785,785,785,785,785,785,785,785,785,785,785,785,785,785,785,785,785,785,785,785,785,786,793,828,860,898,932,988,1001,1025,1086,1131,1149,1160,1173,1178,1182,1184,1187,1191,1203,1203,1190,1178,1173,1172,1171,1164,1157],"ymouse":[528,528,528,528,528,528,528,528,528,528,528,528,528,528,528,528,528,528,528,528,528,528,528,528,528,528,528,528,528,528,528,528,528,528,528,528,528,528,528,528,528,528,528,528,528,528,528,528,528,528,528,528,528,528,528,528,528,528,528,528,528,528,528,523,497,467,428,394,357,350,334,285,255,242,233,221,216,211,203,195,181,138,103,84,70,60,57,56,56,55],"timestamp_mouse":[12,19,65,79,100,121,139,161,181,200,220,241,259,280,301,320,339,361,381,400,420,440,459,481,501,520,539,561,580,600,619,639,661,681,700,719,740,761,779,800,820,841,860,880,899,919,939,960,979,999,1019,1040,1061,1080,1101,1119,1140,1161,1179,1199,1219,1240,1261,1279,1299,1319,1340,1359,1379,1400,1420,1439,1460,1479,1499,1520,1542,1559,1580,1599,1620,1639,1660,1680,1699,1719,1740,1759,1779,1799],"xSR":741.5,"ySR":501.8,"xT1":424.9,"yT1":0,"xT2":1058.1,"yT2":0,"toosoon":0,"cond_shown":"Congruent","ratio_trial":300,"L_num":2,"L_den":10,"R_num":12,"R_den":24,"correct_side":2,"subjID":"JuanPabloSepulvedaCastro30","gender":"0","school":"6","age":"11"},{"start_time":1551900057791,"click_time":1551900059692,"finger_time":1551900058832,"fix_duration":1477.5432951131481,"trial":41,"RT":1041,"MT":860,"sideResp":2,"stimulus":[],"xmouse":[782,782,782,782,782,782,782,782,782,782,782,782,782,782,782,782,782,782,782,782,782,782,782,782,782,782,782,782,782,782,782,782,782,782,782,782,782,782,782,783,784,784,784,784,784,784,784,785,793,799,802,801,793,782,736,710,683,657,627,616,604,592,579,570,569,569,569,569,570,577,588,601,625,786,874,1004,1074,1113,1140,1142,1146,1157,1165,1168,1171,1172,1172,1170,1166,1160,1151,1143,1140,1132,1131],"ymouse":[548,548,548,548,548,548,548,548,548,548,548,548,548,548,548,548,548,548,548,548,548,548,548,548,548,548,548,548,548,548,548,548,548,548,548,548,548,548,548,548,548,548,548,548,548,548,548,548,540,526,504,481,454,423,323,274,224,176,118,98,79,67,58,51,50,50,50,50,50,51,54,59,72,137,165,203,221,226,225,221,213,200,192,188,182,178,169,160,155,151,146,143,130,104,86],"timestamp_mouse":[19,53,62,81,101,121,143,162,182,201,222,242,262,282,302,322,343,362,381,401,422,443,461,481,502,522,542,562,583,602,621,642,662,683,701,722,742,761,783,802,822,842,862,882,902,922,942,961,981,1002,1026,1041,1063,1081,1101,1121,1141,1162,1181,1201,1221,1241,1262,1281,1301,1322,1341,1362,1382,1401,1421,1441,1461,1481,1501,1521,1541,1562,1581,1601,1622,1642,1662,1681,1701,1722,1741,1763,1785,1803,1822,1843,1862,1884,1901],"xSR":741.5,"ySR":501.8,"xT1":424.9,"yT1":0,"xT2":1058.1,"yT2":0,"toosoon":0,"cond_shown":"Incongruent","ratio_trial":300,"L_num":4,"L_den":20,"R_num":2,"R_den":4,"correct_side":2,"subjID":"JuanPabloSepulvedaCastro30","gender":"0","school":"6","age":"11"},{"start_time":1551900061745,"click_time":1551900063492,"finger_time":1551900063113,"fix_duration":1010.9717339486234,"trial":42,"RT":1368,"MT":379,"sideResp":2,"stimulus":[],"xmouse":[816,816,816,816,816,816,816,816,816,816,816,816,816,816,816,816,816,816,816,816,816,816,816,816,816,816,816,816,816,816,816,816,816,816,816,816,816,816,816,816,816,816,816,816,816,816,816,816,816,816,816,816,816,816,816,816,816,816,816,816,816,816,816,816,816,816,821,844,889,968,1120,1161,1188,1205,1231,1239,1239,1239,1239,1239,1239,1239,1239,1239,1239,1170,1151],"ymouse":[507,507,507,507,507,507,507,507,507,507,507,507,507,507,507,507,507,507,507,507,507,507,507,507,507,507,507,507,507,507,507,507,507,507,507,507,507,507,507,507,507,507,507,507,507,507,507,507,507,507,507,507,507,507,507,507,507,507,507,507,507,507,507,507,507,507,507,503,486,446,299,222,155,100,29,2,2,2,2,2,2,2,2,2,2,11,38],"timestamp_mouse":[15,58,68,88,108,128,148,167,188,207,229,248,268,287,307,328,349,368,387,407,427,449,468,488,507,527,548,567,588,607,628,649,667,687,707,729,749,767,788,807,828,847,869,887,907,928,948,967,987,1012,1027,1048,1067,1087,1107,1128,1149,1168,1188,1207,1227,1249,1267,1288,1308,1328,1349,1368,1388,1409,1428,1447,1467,1489,1508,1531,1548,1568,1588,1608,1627,1648,1668,1688,1707,1727,1747],"xSR":741.5,"ySR":501.8,"xT1":424.9,"yT1":0,"xT2":1058.1,"yT2":0,"toosoon":0,"cond_shown":"Congruent","ratio_trial":100,"L_num":11,"L_den":22,"R_num":4,"R_den":10,"correct_side":1,"subjID":"JuanPabloSepulvedaCastro30","gender":"0","school":"6","age":"11"},{"start_time":1551900065196,"click_time":1551900066232,"finger_time":1551900065972,"fix_duration":982.8048286314687,"trial":43,"RT":776,"MT":260,"sideResp":2,"stimulus":[],"xmouse":[802,802,802,802,802,802,802,802,802,802,802,802,802,802,802,802,802,802,802,802,802,802,802,802,802,802,802,802,802,802,802,802,802,802,802,805,807,820,829,838,848,859,900,921,943,956,979,987,1006,1039,1076],"ymouse":[543,543,543,543,543,543,543,543,543,543,543,543,543,543,543,543,543,543,543,543,543,543,543,543,543,543,543,543,543,543,543,543,543,543,541,534,525,501,481,463,441,414,317,273,229,207,167,153,132,100,70],"timestamp_mouse":[17,61,77,96,116,138,156,176,196,216,237,256,278,297,317,337,357,377,397,417,437,458,478,498,517,536,557,577,597,616,636,658,676,696,716,737,756,776,805,824,836,857,876,897,917,937,957,979,996,1017,1036],"xSR":741.5,"ySR":501.8,"xT1":424.9,"yT1":0,"xT2":1058.1,"yT2":0,"toosoon":0,"cond_shown":"Incongruent","ratio_trial":200,"L_num":14,"L_den":30,"R_num":6,"R_den":9,"correct_side":2,"subjID":"JuanPabloSepulvedaCastro30","gender":"0","school":"6","age":"11"},{"start_time":1551900067933,"click_time":1551900071076,"finger_time":1551900070612,"fix_duration":838.8339607708441,"trial":44,"RT":2679,"MT":464,"sideResp":2,"stimulus":[],"xmouse":[804,804,804,804,804,804,804,804,804,804,804,804,804,804,804,804,804,804,804,804,804,804,804,804,804,804,804,804,804,804,804,804,804,804,804,804,804,804,804,804,804,804,804,804,804,804,804,804,804,804,804,804,804,804,804,804,804,804,804,804,804,804,804,804,804,804,804,804,804,804,804,804,804,804,804,804,804,804,804,804,804,804,804,804,804,804,804,804,804,804,804,804,804,804,804,804,804,804,804,804,804,804,804,804,804,804,804,804,804,804,804,804,804,804,804,804,804,804,804,804,804,804,804,804,804,804,804,804,804,804,804,804,803,818,843,905,963,1062,1091,1118,1138,1158,1185,1192,1197,1204,1210,1211,1211,1211,1209,1207,1200,1197,1191,1185,1161,1146],"ymouse":[519,519,519,519,519,519,519,519,519,519,519,519,519,519,519,519,519,519,519,519,519,519,519,519,519,519,519,519,519,519,519,519,519,519,519,519,519,519,519,519,519,519,519,519,519,519,519,519,519,519,519,519,519,519,519,519,519,519,519,519,519,519,519,519,519,519,519,519,519,519,519,519,519,519,519,519,519,519,519,519,519,519,519,519,519,519,519,519,519,519,519,519,519,519,519,519,519,519,519,519,519,519,519,519,519,519,519,519,519,519,519,519,519,519,519,519,519,519,519,519,519,519,519,519,519,519,519,519,519,519,519,519,519,503,475,424,376,268,227,188,160,135,102,91,84,75,65,62,62,61,61,61,60,60,60,60,60,58],"timestamp_mouse":[11,19,54,60,79,99,119,141,160,179,199,219,241,260,279,301,320,339,359,381,400,421,441,460,481,501,520,540,560,580,599,620,639,660,679,700,721,739,759,780,801,820,840,860,879,901,920,939,959,980,999,1020,1040,1059,1080,1099,1120,1141,1160,1179,1200,1219,1241,1259,1280,1300,1320,1340,1360,1381,1400,1421,1441,1460,1480,1499,1519,1540,1560,1580,1600,1620,1639,1660,1680,1699,1720,1739,1759,1780,1799,1819,1839,1859,1881,1900,1920,1939,1961,1980,2000,2019,2039,2061,2079,2100,2120,2139,2159,2180,2199,2220,2241,2260,2280,2299,2320,2340,2360,2380,2401,2420,2440,2459,2480,2501,2519,2539,2560,2579,2599,2619,2639,2659,2679,2700,2719,2739,2761,2780,2799,2819,2839,2860,2879,2899,2920,2943,2961,2980,2999,3019,3040,3060,3080,3099,3120,3143],"xSR":741.5,"ySR":501.8,"xT1":424.9,"yT1":0,"xT2":1058.1,"yT2":0,"toosoon":0,"cond_shown":"Congruent","ratio_trial":300,"L_num":2,"L_den":20,"R_num":10,"R_den":25,"correct_side":2,"subjID":"JuanPabloSepulvedaCastro30","gender":"0","school":"6","age":"11"},{"start_time":1551900074333,"click_time":1551900087633,"finger_time":1551900087112,"fix_duration":753.1966441022294,"trial":45,"RT":12779,"MT":521,"sideResp":2,"stimulus":[],"xmouse":[758,758,758,758,758,758,758,758,758,758,758,758,758,758,758,758,758,758,758,758,758,758,758,758,758,758,758,758,758,758,758,758,758,758,758,758,758,758,758,758,758,758,758,758,758,758,758,758,758,758,758,758,758,758,758,758,758,758,758,758,758,758,758,758,758,758,758,758,758,758,758,758,758,758,758,758,758,758,758,758,758,758,758,758,758,758,758,758,758,758,758,758,758,758,758,758,758,758,758,758,758,758,758,758,758,758,758,758,758,758,758,758,758,758,758,758,758,758,758,758,758,758,758,758,758,758,758,758,758,758,758,758,758,758,758,758,758,758,758,758,758,758,758,758,758,758,758,758,758,758,758,758,758,758,758,758,758,758,758,758,758,758,758,758,758,758,758,758,758,758,758,758,758,758,758,758,758,758,758,758,758,758,758,758,758,758,758,758,758,758,758,758,758,758,758,758,758,758,758,758,758,758,758,758,758,758,758,758,758,758,758,758,758,758,758,758,758,758,758,758,758,758,758,758,758,758,758,758,758,758,758,758,758,758,758,758,758,758,758,758,758,758,758,758,758,758,758,758,758,758,758,758,758,758,758,758,758,758,758,758,758,758,758,758,758,758,758,758,758,758,758,758,758,758,758,758,758,758,758,758,758,758,758,758,758,758,758,758,758,758,758,758,758,758,758,758,758,758,758,758,758,758,758,758,758,758,758,758,758,758,758,758,758,758,758,758,758,758,758,758,758,758,758,758,758,758,758,758,758,758,758,758,758,758,758,758,758,758,758,758,758,758,758,758,758,758,758,758,758,758,758,758,758,758,758,758,758,758,758,758,758,758,758,758,758,758,758,758,758,758,758,758,758,758,758,758,758,758,758,758,758,758,758,758,758,758,758,758,758,758,758,758,758,758,758,758,758,758,758,758,758,758,758,758,758,758,758,758,758,758,758,758,758,758,758,758,758,758,758,758,758,758,758,758,758,758,758,758,758,758,758,758,758,758,758,758,758,758,758,758,758,758,758,758,758,758,758,758,758,758,758,758,758,758,758,758,758,758,758,758,758,758,758,758,758,758,758,758,758,758,758,758,758,758,758,758,758,758,758,758,758,758,758,758,758,758,758,758,758,758,758,758,758,758,758,758,758,758,758,758,758,758,758,758,758,758,758,758,758,758,758,758,758,758,758,758,758,758,758,758,758,758,758,758,758,758,758,758,758,758,758,758,758,758,758,758,758,758,758,758,758,758,758,758,758,758,758,758,758,758,758,758,758,758,758,758,758,758,758,758,758,758,758,758,758,758,758,758,758,758,758,758,758,758,758,758,758,758,758,758,758,758,758,758,758,758,758,758,758,758,758,758,758,758,758,758,758,758,758,758,758,758,758,758,758,758,758,758,758,758,758,758,758,758,758,758,758,758,758,758,758,758,758,758,758,758,758,758,758,758,758,758,758,758,758,757,779,907,1112,1112,1112,1282,1282,1282,1282,1282,1282,1282,1282,1282,1282,1344,1337,1324,1310,1305,1301,1298,1291,1280,1227,1194,1165,1142],"ymouse":[525,525,525,525,525,525,525,525,525,525,525,525,525,525,525,525,525,525,525,525,525,525,525,525,525,525,525,525,525,525,525,525,525,525,525,525,525,525,525,525,525,525,525,525,525,525,525,525,525,525,525,525,525,525,525,525,525,525,525,525,525,525,525,525,525,525,525,525,525,525,525,525,525,525,525,525,525,525,525,525,525,525,525,525,525,525,525,525,525,525,525,525,525,525,525,525,525,525,525,525,525,525,525,525,525,525,525,525,525,525,525,525,525,525,525,525,525,525,525,525,525,525,525,525,525,525,525,525,525,525,525,525,525,525,525,525,525,525,525,525,525,525,525,525,525,525,525,525,525,525,525,525,525,525,525,525,525,525,525,525,525,525,525,525,525,525,525,525,525,525,525,525,525,525,525,525,525,525,525,525,525,525,525,525,525,525,525,525,525,525,525,525,525,525,525,525,525,525,525,525,525,525,525,525,525,525,525,525,525,525,525,525,525,525,525,525,525,525,525,525,525,525,525,525,525,525,525,525,525,525,525,525,525,525,525,525,525,525,525,525,525,525,525,525,525,525,525,525,525,525,525,525,525,525,525,525,525,525,525,525,525,525,525,525,525,525,525,525,525,525,525,525,525,525,525,525,525,525,525,525,525,525,525,525,525,525,525,525,525,525,525,525,525,525,525,525,525,525,525,525,525,525,525,525,525,525,525,525,525,525,525,525,525,525,525,525,525,525,525,525,525,525,525,525,525,525,525,525,525,525,525,525,525,525,525,525,525,525,525,525,525,525,525,525,525,525,525,525,525,525,525,525,525,525,525,525,525,525,525,525,525,525,525,525,525,525,525,525,525,525,525,525,525,525,525,525,525,525,525,525,525,525,525,525,525,525,525,525,525,525,525,525,525,525,525,525,525,525,525,525,525,525,525,525,525,525,525,525,525,525,525,525,525,525,525,525,525,525,525,525,525,525,525,525,525,525,525,525,525,525,525,525,525,525,525,525,525,525,525,525,525,525,525,525,525,525,525,525,525,525,525,525,525,525,525,525,525,525,525,525,525,525,525,525,525,525,525,525,525,525,525,525,525,525,525,525,525,525,525,525,525,525,525,525,525,525,525,525,525,525,525,525,525,525,525,525,525,525,525,525,525,525,525,525,525,525,525,525,525,525,525,525,525,525,525,525,525,525,525,525,525,525,525,525,525,525,525,525,525,525,525,525,525,525,525,525,525,525,525,525,525,525,525,525,525,525,525,525,525,525,525,525,525,525,525,525,525,525,525,525,525,525,525,525,525,525,525,525,525,525,525,525,525,525,525,525,525,525,525,525,525,525,525,525,525,525,525,525,525,525,525,525,525,525,525,525,525,525,525,525,525,525,525,525,525,525,525,525,525,525,525,525,525,525,525,525,525,525,525,525,525,525,525,525,525,525,525,525,525,525,525,525,525,525,525,525,508,412,273,273,273,9,9,9,9,9,9,9