[{"start_time":1551900573490,"click_time":1551900574744,"finger_time":1551900574244,"fix_duration":400.6764038970969,"trial":0,"RT":754,"MT":500,"sideResp":2,"stimulus":"img/500/equaldotanddens/R/2_Ratio_500_L_3_R_6.png","xmouse":[764,764,764,764,764,764,764,764,764,764,764,764,764,764,764,764,764,764,764,764,764,764,764,764,764,764,764,764,764,764,764,764,764,764,764,764,804,881,949,995,1003,1026,1026,1026,1026,1026,1026,1026,1026,1026,1026,1026,1026,1026,1026,1026,1026,1026,1026,1026,1026,1116,1117],"ymouse":[552,552,552,552,552,552,552,552,552,552,552,552,552,552,552,552,552,552,552,552,552,552,552,552,552,552,552,552,552,552,552,552,552,552,552,552,477,346,223,109,80,8,8,8,8,8,8,8,8,8,8,8,8,8,8,8,8,8,8,8,8,0,4],"timestamp_mouse":[19,35,65,75,95,113,134,155,174,195,214,234,255,275,294,314,335,355,375,395,414,434,455,475,494,513,535,555,575,594,615,634,655,674,694,715,735,754,774,795,815,836,854,874,894,917,934,954,974,994,1015,1035,1055,1075,1094,1115,1134,1154,1174,1194,1214,1234,1254],"xSR":741.5,"ySR":501.8,"xT1":424.9,"yT1":0,"xT2":1058.1,"yT2":0,"toosoon":0,"cond_shown":"equaldotanddens","ratio_trial":500,"smaller_num":"3","larger_num":"6","correct_side":2,"subjID":"JuanPabloSepulvedaCastro30","gender":"0","age":"11","school":"6","test":{"fix_dur":[250,1500],"timestim":300,"targets_dim":[100,100],"targets_relative_coord":[0.3,0.7],"size_stim":[880,420],"start_dim":[100,100],"size_start":[300,300],"size_fix":60,"samplingrate":20,"img_types":["equaldotsize","equaldotanddens","randomdotsizeEA"],"ratios":[250,500,750,900],"rep_conds":9,"nTrials":120,"trials_to_rest":500,"Trials_order":[28,81,98,67,6,100,108,73,80,76,22,75,4,42,105,26,99,34,112,53,8,2,17,116,21,19,43,15,74,0,49,107,83,32,11,69,44,86,18,1,106,24,50,64,87,62,46,16,85,95,88,89,102,30,35,25,72,54,84,117,10,52,20,31,47,14,5,114,48,23,57,58,90,104,13,55,37,33,3,101,91,65,59,63,93,29,39,51,94,113,118,71,92,60,78,77,115,7,70,111,96,82,41,66,68,56,9,36,40,110,12,38,45,27,79,61,109,97,119,103],"cond_shown":["equaldotanddens","equaldotsize","randomdotsizeEA","equaldotanddens","equaldotsize","equaldotanddens","equaldotsize","equaldotanddens","randomdotsizeEA","equaldotanddens","equaldotanddens","equaldotsize","equaldotanddens","equaldotsize","equaldotsize","randomdotsizeEA","equaldotsize","equaldotanddens","equaldotanddens","randomdotsizeEA","randomdotsizeEA","randomdotsizeEA","randomdotsizeEA","randomdotsizeEA","equaldotsize","equaldotanddens","equaldotanddens","equaldotsize","randomdotsizeEA","equaldotsize","equaldotanddens","randomdotsizeEA","randomdotsizeEA","randomdotsizeEA","randomdotsizeEA","equaldotsize","randomdotsizeEA","randomdotsizeEA","equaldotsize","equaldotanddens","equaldotanddens","equaldotsize","randomdotsizeEA","equaldotanddens","equaldotsize","randomdotsizeEA","equaldotanddens","equaldotanddens","equaldotanddens","randomdotsizeEA","equaldotanddens","randomdotsizeEA","equaldotsize","equaldotsize","randomdotsizeEA","equaldotanddens","equaldotsize","equaldotsize","equaldotsize","equaldotsize","equaldotanddens","equaldotanddens","randomdotsizeEA","equaldotanddens","randomdotsizeEA","randomdotsizeEA","randomdotsizeEA","equaldotsize","equaldotsize","randomdotsizeEA","equaldotsize","equaldotanddens","equaldotsize","randomdotsizeEA","equaldotanddens","equaldotanddens","equaldotanddens","equaldotsize","equaldotsize","randomdotsizeEA","equaldotanddens","randomdotsizeEA","randomdotsizeEA","equaldotsize","equaldotsize","randomdotsizeEA","equaldotsize","equaldotsize","equaldotanddens","randomdotsizeEA","equaldotanddens","randomdotsizeEA","randomdotsizeEA","equaldotsize","equaldotsize","randomdotsizeEA","equaldotanddens","equaldotanddens","equaldotanddens","equaldotsize","equaldotsize","equaldotanddens","randomdotsizeEA","equaldotsize","randomdotsizeEA","randomdotsizeEA","equaldotsize","equaldotsize","equaldotanddens","randomdotsizeEA","equaldotsize","randomdotsizeEA","equaldotsize","equaldotsize","equaldotanddens","equaldotanddens","equaldotanddens","equaldotanddens","randomdotsizeEA","equaldotanddens"],"ratio_trial":[500,900,250,750,750,500,250,250,750,500,900,500,500,750,900,250,500,900,500,500,750,250,500,750,900,750,750,500,250,250,250,900,900,750,900,900,750,250,750,250,900,250,250,500,500,250,900,500,250,900,500,500,750,750,900,250,250,750,250,900,900,500,750,750,900,250,500,750,250,900,900,900,750,750,250,750,250,900,500,500,750,500,900,500,900,500,500,500,900,500,900,900,750,250,750,500,750,750,900,500,250,900,500,750,750,750,900,250,500,250,250,250,900,500,750,250,250,250,900,750],"smaller_num":["3","18","3","3","9","4","6","3","15","3","18","2","2","3","18","5","1","18","9","2","3","3","2","6","18","3","3","2","6","3","6","9","9","9","9","9","15","6","15","3","9","2","4","9","9","4","18","2","6","18","9","1","6","6","9","3","3","6","2","18","18","2","12","3","9","2","9","15","6","9","18","18","15","6","1","12","2","18","2","4","6","1","18","9","18","2","1","9","18","5","18","9","18","2","3","4","12","6","18","1","6","18","9","15","12","9","9","2","9","3","3","2","18","9","3","1","2","6","18","18"],"larger_num":["6","20","12","4","12","8","24","12","20","6","20","4","4","4","20","20","2","20","18","4","4","12","4","8","20","4","4","4","24","12","24","10","10","12","10","10","20","24","20","12","10","8","16","18","18","16","20","4","24","20","18","2","8","8","10","12","12","8","8","20","20","4","16","4","10","8","18","20","24","10","20","20","20","8","4","16","8","20","4","8","8","2","20","18","20","4","2","18","20","10","20","10","24","8","4","8","16","8","20","2","24","20","18","20","16","12","10","8","18","12","12","8","20","18","4","4","8","24","20","24"],"correct_side":[2,1,1,2,2,1,2,2,2,2,2,1,1,2,1,2,2,2,1,1,1,2,2,1,1,1,1,1,1,2,2,1,2,2,2,2,2,1,2,2,1,1,1,1,2,2,2,1,2,1,2,2,1,1,2,1,2,2,1,2,1,1,2,1,2,1,2,2,2,1,2,2,2,1,2,2,1,1,1,1,1,2,1,2,1,1,2,2,2,2,2,2,1,1,1,1,2,1,1,2,2,1,2,1,2,2,1,1,2,2,2,1,1,2,1,2,1,1,2,1],"img_shown":["img/500/equaldotanddens/R/2_Ratio_500_L_3_R_6.png","img/900/equaldotsize/L/10_Ratio_900_L_20_R_18.png","img/250/randomdotsizeEA/L/15_Ratio_250_L_12_R_3.png","img/750/equaldotanddens/R/12_Ratio_750_L_3_R_4.png","img/750/equaldotsize/R/15_Ratio_750_L_9_R_12.png","img/500/equaldotanddens/L/8_Ratio_500_L_8_R_4.png","img/250/equaldotsize/R/6_Ratio_250_L_6_R_24.png","img/250/equaldotanddens/R/4_Ratio_250_L_3_R_12.png","img/750/randomdotsizeEA/R/4_Ratio_750_L_15_R_20.png","img/500/equaldotanddens/R/2_Ratio_500_L_3_R_6.png","img/900/equaldotanddens/R/14_Ratio_900_L_18_R_20.png","img/500/equaldotsize/L/5_Ratio_500_L_4_R_2.png","img/500/equaldotanddens/L/10_Ratio_500_L_4_R_2.png","img/750/equaldotsize/R/12_Ratio_750_L_3_R_4.png","img/900/equaldotsize/L/2_Ratio_900_L_20_R_18.png","img/250/randomdotsizeEA/R/12_Ratio_250_L_5_R_20.png","img/500/equaldotsize/R/12_Ratio_500_L_1_R_2.png","img/900/equaldotanddens/R/13_Ratio_900_L_18_R_20.png","img/500/equaldotanddens/L/4_Ratio_500_L_18_R_9.png","img/500/randomdotsizeEA/L/10_Ratio_500_L_4_R_2.png","img/750/randomdotsizeEA/L/8_Ratio_750_L_4_R_3.png","img/250/randomdotsizeEA/R/11_Ratio_250_L_3_R_12.png","img/500/randomdotsizeEA/R/9_Ratio_500_L_2_R_4.png","img/750/randomdotsizeEA/L/14_Ratio_750_L_8_R_6.png","img/900/equaldotsize/L/10_Ratio_900_L_20_R_18.png","img/750/equaldotanddens/L/8_Ratio_750_L_4_R_3.png","img/750/equaldotanddens/L/10_Ratio_750_L_4_R_3.png","img/500/equaldotsize/L/10_Ratio_500_L_4_R_2.png","img/250/randomdotsizeEA/L/5_Ratio_250_L_24_R_6.png","img/250/equaldotsize/R/4_Ratio_250_L_3_R_12.png","img/250/equaldotanddens/R/6_Ratio_250_L_6_R_24.png","img/900/randomdotsizeEA/L/1_Ratio_900_L_10_R_9.png","img/900/randomdotsizeEA/R/7_Ratio_900_L_9_R_10.png","img/750/randomdotsizeEA/R/15_Ratio_750_L_9_R_12.png","img/900/randomdotsizeEA/R/15_Ratio_900_L_9_R_10.png","img/900/equaldotsize/R/15_Ratio_900_L_9_R_10.png","img/750/randomdotsizeEA/R/4_Ratio_750_L_15_R_20.png","img/250/randomdotsizeEA/L/5_Ratio_250_L_24_R_6.png","img/750/equaldotsize/R/5_Ratio_750_L_15_R_20.png","img/250/equaldotanddens/R/11_Ratio_250_L_3_R_12.png","img/900/equaldotanddens/L/1_Ratio_900_L_10_R_9.png","img/250/equaldotsize/L/1_Ratio_250_L_8_R_2.png","img/250/randomdotsizeEA/L/2_Ratio_250_L_16_R_4.png","img/500/equaldotanddens/L/4_Ratio_500_L_18_R_9.png","img/500/equaldotsize/R/6_Ratio_500_L_9_R_18.png","img/250/randomdotsizeEA/R/10_Ratio_250_L_4_R_16.png","img/900/equaldotanddens/R/9_Ratio_900_L_18_R_20.png","img/500/equaldotanddens/L/5_Ratio_500_L_4_R_2.png","img/250/equaldotanddens/R/6_Ratio_250_L_6_R_24.png","img/900/randomdotsizeEA/L/4_Ratio_900_L_20_R_18.png","img/500/equaldotanddens/R/1_Ratio_500_L_9_R_18.png","img/500/randomdotsizeEA/R/12_Ratio_500_L_1_R_2.png","img/750/equaldotsize/L/13_Ratio_750_L_8_R_6.png","img/750/equaldotsize/L/13_Ratio_750_L_8_R_6.png","img/900/randomdotsizeEA/R/6_Ratio_900_L_9_R_10.png","img/250/equaldotanddens/L/15_Ratio_250_L_12_R_3.png","img/250/equaldotsize/R/4_Ratio_250_L_3_R_12.png","img/750/equaldotsize/R/2_Ratio_750_L_6_R_8.png","img/250/equaldotsize/L/7_Ratio_250_L_8_R_2.png","img/900/equaldotsize/R/9_Ratio_900_L_18_R_20.png","img/900/equaldotanddens/L/2_Ratio_900_L_20_R_18.png","img/500/equaldotanddens/L/10_Ratio_500_L_4_R_2.png","img/750/randomdotsizeEA/R/11_Ratio_750_L_12_R_16.png","img/750/equaldotanddens/L/9_Ratio_750_L_4_R_3.png","img/900/randomdotsizeEA/R/3_Ratio_900_L_9_R_10.png","img/250/randomdotsizeEA/L/3_Ratio_250_L_8_R_2.png","img/500/randomdotsizeEA/R/1_Ratio_500_L_9_R_18.png","img/750/equaldotsize/R/4_Ratio_750_L_15_R_20.png","img/250/equaldotsize/R/6_Ratio_250_L_6_R_24.png","img/900/randomdotsizeEA/L/1_Ratio_900_L_10_R_9.png","img/900/equaldotsize/R/9_Ratio_900_L_18_R_20.png","img/900/equaldotanddens/R/12_Ratio_900_L_18_R_20.png","img/750/equaldotsize/R/5_Ratio_750_L_15_R_20.png","img/750/randomdotsizeEA/L/13_Ratio_750_L_8_R_6.png","img/250/equaldotanddens/R/8_Ratio_250_L_1_R_4.png","img/750/equaldotanddens/R/11_Ratio_750_L_12_R_16.png","img/250/equaldotanddens/L/3_Ratio_250_L_8_R_2.png","img/900/equaldotsize/L/4_Ratio_900_L_20_R_18.png","img/500/equaldotsize/L/5_Ratio_500_L_4_R_2.png","img/500/randomdotsizeEA/L/8_Ratio_500_L_8_R_4.png","img/750/equaldotanddens/L/14_Ratio_750_L_8_R_6.png","img/500/randomdotsizeEA/R/15_Ratio_500_L_1_R_2.png","img/900/randomdotsizeEA/L/4_Ratio_900_L_20_R_18.png","img/500/equaldotsize/R/6_Ratio_500_L_9_R_18.png","img/900/equaldotsize/L/4_Ratio_900_L_20_R_18.png","img/500/randomdotsizeEA/L/10_Ratio_500_L_4_R_2.png","img/500/equaldotsize/R/12_Ratio_500_L_1_R_2.png","img/500/equaldotsize/R/1_Ratio_500_L_9_R_18.png","img/900/equaldotanddens/R/9_Ratio_900_L_18_R_20.png","img/500/randomdotsizeEA/R/14_Ratio_500_L_5_R_10.png","img/900/equaldotanddens/R/14_Ratio_900_L_18_R_20.png","img/900/randomdotsizeEA/R/15_Ratio_900_L_9_R_10.png","img/750/randomdotsizeEA/L/6_Ratio_750_L_24_R_18.png","img/250/equaldotsize/L/3_Ratio_250_L_8_R_2.png","img/750/equaldotsize/L/9_Ratio_750_L_4_R_3.png","img/500/randomdotsizeEA/L/8_Ratio_500_L_8_R_4.png","img/750/equaldotanddens/R/11_Ratio_750_L_12_R_16.png","img/750/equaldotanddens/L/13_Ratio_750_L_8_R_6.png","img/900/equaldotanddens/L/4_Ratio_900_L_20_R_18.png","img/500/equaldotsize/R/12_Ratio_500_L_1_R_2.png","img/250/equaldotsize/R/6_Ratio_250_L_6_R_24.png","img/900/equaldotanddens/L/10_Ratio_900_L_20_R_18.png","img/500/randomdotsizeEA/R/6_Ratio_500_L_9_R_18.png","img/750/equaldotsize/L/1_Ratio_750_L_20_R_15.png","img/750/randomdotsizeEA/R/11_Ratio_750_L_12_R_16.png","img/750/randomdotsizeEA/R/15_Ratio_750_L_9_R_12.png","img/900/equaldotsize/L/1_Ratio_900_L_10_R_9.png","img/250/equaldotsize/L/7_Ratio_250_L_8_R_2.png","img/500/equaldotanddens/R/6_Ratio_500_L_9_R_18.png","img/250/randomdotsizeEA/R/9_Ratio_250_L_3_R_12.png","img/250/equaldotsize/R/9_Ratio_250_L_3_R_12.png","img/250/randomdotsizeEA/L/7_Ratio_250_L_8_R_2.png","img/900/equaldotsize/L/4_Ratio_900_L_20_R_18.png","img/500/equaldotsize/R/1_Ratio_500_L_9_R_18.png","img/750/equaldotanddens/L/9_Ratio_750_L_4_R_3.png","img/250/equaldotanddens/R/8_Ratio_250_L_1_R_4.png","img/250/equaldotanddens/L/1_Ratio_250_L_8_R_2.png","img/250/equaldotanddens/L/5_Ratio_250_L_24_R_6.png","img/900/randomdotsizeEA/R/13_Ratio_900_L_18_R_20.png","img/750/equaldotanddens/L/6_Ratio_750_L_24_R_18.png"],"Rat0":[["12_Ratio_0_L_9_R_0.png","13_Ratio_0_L_6_R_0.png","5_Ratio_0_L_2_R_0.png","6_Ratio_0_L_4_R_0.png","8_Ratio_0_L_6_R_0.png"],["1_Ratio_0_L_0_R_17.png","10_Ratio_0_L_0_R_22.png","11_Ratio_0_L_0_R_1.png","14_Ratio_0_L_0_R_24.png","15_Ratio_0_L_0_R_4.png","2_Ratio_0_L_0_R_5.png","3_Ratio_0_L_0_R_17.png","4_Ratio_0_L_0_R_7.png","7_Ratio_0_L_0_R_19.png","9_Ratio_0_L_0_R_15.png"]],"Rat250":[["1_Ratio_250_L_8_R_2.png","14_Ratio_250_L_12_R_3.png","15_Ratio_250_L_12_R_3.png","2_Ratio_250_L_16_R_4.png","3_Ratio_250_L_8_R_2.png","5_Ratio_250_L_24_R_6.png","7_Ratio_250_L_8_R_2.png"],["10_Ratio_250_L_4_R_16.png","11_Ratio_250_L_3_R_12.png","12_Ratio_250_L_5_R_20.png","13_Ratio_250_L_2_R_8.png","4_Ratio_250_L_3_R_12.png","6_Ratio_250_L_6_R_24.png","8_Ratio_250_L_1_R_4.png","9_Ratio_250_L_3_R_12.png"]],"Rat500":[["10_Ratio_500_L_4_R_2.png","11_Ratio_500_L_12_R_6.png","13_Ratio_500_L_12_R_6.png","4_Ratio_500_L_18_R_9.png","5_Ratio_500_L_4_R_2.png","7_Ratio_500_L_10_R_5.png","8_Ratio_500_L_8_R_4.png"],["1_Ratio_500_L_9_R_18.png","12_Ratio_500_L_1_R_2.png","14_Ratio_500_L_5_R_10.png","15_Ratio_500_L_1_R_2.png","2_Ratio_500_L_3_R_6.png","3_Ratio_500_L_10_R_20.png","6_Ratio_500_L_9_R_18.png","9_Ratio_500_L_2_R_4.png"]],"Rat750":[["1_Ratio_750_L_20_R_15.png","10_Ratio_750_L_4_R_3.png","13_Ratio_750_L_8_R_6.png","14_Ratio_750_L_8_R_6.png","6_Ratio_750_L_24_R_18.png","8_Ratio_750_L_4_R_3.png","9_Ratio_750_L_4_R_3.png"],["11_Ratio_750_L_12_R_16.png","12_Ratio_750_L_3_R_4.png","15_Ratio_750_L_9_R_12.png","2_Ratio_750_L_6_R_8.png","3_Ratio_750_L_15_R_20.png","4_Ratio_750_L_15_R_20.png","5_Ratio_750_L_15_R_20.png","7_Ratio_750_L_3_R_4.png"]],"Rat900":[["1_Ratio_900_L_10_R_9.png","10_Ratio_900_L_20_R_18.png","2_Ratio_900_L_20_R_18.png","4_Ratio_900_L_20_R_18.png","8_Ratio_900_L_20_R_18.png"],["11_Ratio_900_L_18_R_20.png","12_Ratio_900_L_18_R_20.png","13_Ratio_900_L_18_R_20.png","14_Ratio_900_L_18_R_20.png","15_Ratio_900_L_9_R_10.png","3_Ratio_900_L_9_R_10.png","5_Ratio_900_L_9_R_10.png","6_Ratio_900_L_9_R_10.png","7_Ratio_900_L_9_R_10.png","9_Ratio_900_L_18_R_20.png"]],"Rat1000":[["10_Ratio_1000_L_16_R_16.png","11_Ratio_1000_L_6_R_6.png","12_Ratio_1000_L_14_R_14.png","13_Ratio_1000_L_20_R_20.png","15_Ratio_1000_L_15_R_15.png","2_Ratio_1000_L_17_R_17.png","4_Ratio_1000_L_9_R_9.png","5_Ratio_1000_L_6_R_6.png","6_Ratio_1000_L_19_R_19.png","8_Ratio_1000_L_14_R_14.png","9_Ratio_1000_L_25_R_25.png"],["1_Ratio_1000_L_1_R_1.png","14_Ratio_1000_L_17_R_17.png","3_Ratio_1000_L_17_R_17.png","7_Ratio_1000_L_6_R_6.png"]]}},{"start_time":1551900575958,"click_time":1551900577204,"finger_time":1551900576684,"fix_duration":250,"trial":1,"RT":726,"MT":520,"sideResp":1,"stimulus":"img/900/equaldotsize/L/10_Ratio_900_L_20_R_18.png","xmouse":[789,789,789,789,789,788,788,788,787,785,783,783,783,782,782,782,782,782,782,782,782,782,782,782,782,782,782,782,782,780,780,780,778,777,770,737,697,607,549,492,426,413,396,391,390,390,390,398,421,441,498,511,515,515,515,515,512,508,503,499,493,491],"ymouse":[548,548,548,548,548,548,548,548,548,548,547,547,546,546,546,546,546,546,546,546,546,546,546,546,546,546,546,543,542,539,538,538,537,534,527,503,478,426,393,359,297,273,241,232,229,227,226,220,201,184,149,141,137,136,132,130,127,124,117,112,100,96],"timestamp_mouse":[15,27,65,86,106,126,147,166,186,206,226,247,267,286,307,326,346,367,386,407,426,447,467,487,506,526,546,566,586,606,626,646,666,686,706,726,754,773,786,807,826,848,866,887,906,926,945,966,986,1006,1026,1048,1066,1087,1106,1126,1146,1166,1187,1207,1227,1246],"xSR":741.5,"ySR":469.95,"xT1":424.9,"yT1":0,"xT2":1058.1,"yT2":0,"toosoon":0,"cond_shown":"equaldotsize","ratio_trial":900,"smaller_num":"18","larger_num":"20","correct_side":1,"subjID":"JuanPabloSepulvedaCastro30","gender":"0","age":"11","school":"6"},{"start_time":1551900579755,"click_time":1551900581165,"finger_time":1551900580525,"fix_duration":1448.3751203389013,"trial":2,"RT":770,"MT":640,"sideResp":1,"stimulus":"img/250/randomdotsizeEA/L/15_Ratio_250_L_12_R_3.png","xmouse":[808,808,808,808,808,808,808,808,808,808,808,808,808,808,808,808,808,808,808,808,808,808,808,808,808,808,808,808,808,808,808,808,801,796,788,776,773,773,773,784,821,848,883,910,930,951,951,951,951,951,932,897,839,767,693,554,518,496,495,494,493,492,491,491,491,490,489,489,489,489],"ymouse":[515,515,515,515,515,515,515,515,515,515,515,515,515,515,515,515,515,515,515,515,515,515,515,515,515,515,515,515,515,515,515,515,512,508,503,492,482,466,448,409,299,251,202,165,141,119,118,118,118,118,120,130,152,175,189,201,201,199,195,188,177,173,169,166,162,149,139,128,117,97],"timestamp_mouse":[15,29,49,97,109,131,149,169,190,210,230,249,270,289,312,330,350,370,390,410,429,450,469,490,510,529,550,570,589,610,629,650,669,690,710,729,750,770,789,812,829,853,872,889,909,929,950,969,990,1010,1030,1049,1069,1088,1109,1128,1152,1169,1190,1209,1229,1250,1269,1289,1310,1329,1349,1370,1390,1410],"xSR":741.5,"ySR":469.95,"xT1":424.9,"yT1":0,"xT2":1058.1,"yT2":0,"toosoon":0,"cond_shown":"randomdotsizeEA","ratio_trial":250,"smaller_num":"3","larger_num":"12","correct_side":1,"subjID":"JuanPabloSepulvedaCastro30","gender":"0","age":"11","school":"6"},{"start_time":1551900582963,"click_time":1551900584005,"finger_time":1551900583684,"fix_duration":1076.4822899938117,"trial":3,"RT":721,"MT":321,"sideResp":2,"stimulus":"img/750/equaldotanddens/R/12_Ratio_750_L_3_R_4.png","xmouse":[776,776,776,776,776,776,776,776,776,776,776,776,776,776,776,776,776,776,776,776,776,776,776,776,776,776,776,776,776,776,776,776,776,776,776,777,796,812,833,847,862,885,896,906,915,922,934,943,957,978,1002,1053,1061],"ymouse":[510,510,510,510,510,510,510,510,510,510,510,510,510,510,510,510,510,510,510,510,510,510,510,510,510,510,510,510,510,510,510,510,510,510,510,510,468,430,380,352,312,253,236,223,212,205,193,185,174,159,143,103,93],"timestamp_mouse":[16,22,41,80,81,101,121,141,161,181,201,221,242,261,282,312,322,341,361,381,401,422,441,462,481,502,522,542,562,581,602,622,641,661,681,701,721,749,770,787,802,821,841,861,881,902,921,941,962,982,1002,1021,1041],"xSR":741.5,"ySR":469.95,"xT1":424.9,"yT1":0,"xT2":1058.1,"yT2":0,"toosoon":0,"cond_shown":"equaldotanddens","ratio_trial":750,"smaller_num":"3","larger_num":"4","correct_side":2,"subjID":"JuanPabloSepulvedaCastro30","gender":"0","age":"11","school":"6"},{"start_time":1551900586408,"click_time":1551900587165,"finger_time":1551900586984,"fix_duration":1123.2481593481343,"trial":4,"RT":576,"MT":181,"sideResp":1,"stimulus":"img/750/equaldotsize/R/15_Ratio_750_L_9_R_12.png","xmouse":[810,810,810,810,810,810,810,810,810,809,808,808,808,808,806,806,806,806,806,806,806,806,806,806,805,805,805,804,783,761,733,685,631,512,462,445,439,439],"ymouse":[484,484,484,484,484,484,484,484,484,485,485,485,484,484,484,484,484,483,483,483,483,483,483,483,483,483,482,482,467,444,408,356,299,180,139,119,103,85],"timestamp_mouse":[16,36,68,76,96,117,136,157,176,196,217,237,257,277,296,320,336,356,376,397,416,435,456,477,497,517,537,556,576,603,621,639,656,676,695,717,737,757],"xSR":741.5,"ySR":469.95,"xT1":424.9,"yT1":0,"xT2":1058.1,"yT2":0,"toosoon":0,"cond_shown":"equaldotsize","ratio_trial":750,"smaller_num":"9","larger_num":"12","correct_side":2,"subjID":"JuanPabloSepulvedaCastro30","gender":"0","age":"11","school":"6"},{"start_time":1551900589212,"click_time":1551900590464,"finger_time":1551900589964,"fix_duration":905.0922224651971,"trial":5,"RT":752,"MT":500,"sideResp":1,"stimulus":"img/500/equaldotanddens/L/8_Ratio_500_L_8_R_4.png","xmouse":[786,786,786,786,786,786,786,786,786,786,786,786,786,786,786,786,786,786,786,787,787,787,787,787,787,787,787,787,787,787,787,787,787,787,787,780,771,761,757,755,755,755,755,755,743,722,691,562,481,411,368,352,350,352,354,354,355,365,380,397,419,446],"ymouse":[470,470,470,470,470,470,470,470,470,470,470,470,470,470,470,470,470,472,476,481,482,482,482,482,482,482,482,482,482,482,482,482,482,482,482,473,462,449,441,438,438,438,438,438,435,427,413,303,230,169,125,95,74,70,69,69,69,69,69,74,81,88],"timestamp_mouse":[15,33,52,92,113,133,153,173,193,212,232,253,273,292,312,333,352,372,392,413,433,453,472,492,513,532,553,572,592,613,632,652,672,692,712,732,752,773,799,815,832,853,873,892,912,932,952,973,993,1013,1033,1053,1072,1092,1113,1132,1152,1173,1192,1212,1233,1252],"xSR":741.5,"ySR":469.95,"xT1":424.9,"yT1":0,"xT2":1058.1,"yT2":0,"toosoon":0,"cond_shown":"equaldotanddens","ratio_trial":500,"smaller_num":"4","larger_num":"8","correct_side":1,"subjID":"JuanPabloSepulvedaCastro30","gender":"0","age":"11","school":"6"},{"start_time":1551900591470,"click_time":1551900592105,"finger_time":1551900592024,"fix_duration":383.5142958356756,"trial":6,"RT":554,"MT":81,"sideResp":2,"stimulus":"img/250/equaldotsize/R/6_Ratio_250_L_6_R_24.png","xmouse":[820,820,820,820,820,820,820,820,820,820,820,820,820,820,820,820,820,820,820,820,820,820,820,820,820,820,853,912,986,986,1156],"ymouse":[517,517,517,517,517,517,517,517,517,517,517,517,517,517,517,517,517,517,517,517,517,517,517,517,517,518,466,377,281,281,22],"timestamp_mouse":[16,59,75,94,115,134,155,175,195,214,234,254,274,295,314,335,354,374,395,414,435,455,475,495,514,534,554,574,596,613,634],"xSR":741.5,"ySR":469.95,"xT1":424.9,"yT1":0,"xT2":1058.1,"yT2":0,"toosoon":0,"cond_shown":"equaldotsize","ratio_trial":250,"smaller_num":"6","larger_num":"24","correct_side":2,"subjID":"JuanPabloSepulvedaCastro30","gender":"0","age":"11","school":"6"},{"start_time":1551900593489,"click_time":1551900594205,"finger_time":1551900594105,"fix_duration":504.7406944357609,"trial":7,"RT":616,"MT":100,"sideResp":2,"stimulus":"img/250/equaldotanddens/R/4_Ratio_250_L_3_R_12.png","xmouse":[759,759,759,759,759,759,759,759,759,759,759,759,759,759,759,759,759,759,759,759,759,759,759,759,759,759,759,759,759,764,782,810,877,935,1073,1125],"ymouse":[484,484,484,484,484,484,484,484,484,484,484,484,484,484,484,484,484,484,484,484,484,484,484,484,484,484,484,484,484,482,462,432,344,267,113,60],"timestamp_mouse":[16,36,60,76,96,114,135,155,176,195,216,235,255,276,295,317,335,355,375,396,416,435,455,476,496,516,536,555,575,596,616,638,661,676,695,716],"xSR":741.5,"ySR":469.95,"xT1":424.9,"yT1":0,"xT2":1058.1,"yT2":0,"toosoon":0,"cond_shown":"equaldotanddens","ratio_trial":250,"smaller_num":"3","larger_num":"12","correct_side":2,"subjID":"JuanPabloSepulvedaCastro30","gender":"0","age":"11","school":"6"},{"start_time":1551900595035,"click_time":1551900595944,"finger_time":1551900595885,"fix_duration":250,"trial":8,"RT":850,"MT":59,"sideResp":2,"stimulus":"img/750/randomdotsizeEA/R/4_Ratio_750_L_15_R_20.png","xmouse":[774,774,774,774,774,774,774,774,774,774,774,774,774,774,774,774,774,774,774,774,774,774,774,774,774,774,774,774,774,774,774,774,774,774,774,774,774,774,774,775,786,873,944,1038,1063],"ymouse":[546,546,546,546,546,546,546,546,546,546,546,546,546,546,546,546,546,546,546,546,546,546,546,546,546,546,546,546,546,546,546,546,546,546,546,546,546,546,546,545,523,366,255,87,47],"timestamp_mouse":[16,30,50,92,110,129,149,169,189,210,230,249,270,289,311,329,350,369,389,409,430,449,468,490,510,530,550,569,590,609,629,650,670,689,710,730,749,769,790,810,830,850,876,897,909],"xSR":741.5,"ySR":469.95,"xT1":424.9,"yT1":0,"xT2":1058.1,"yT2":0,"toosoon":0,"cond_shown":"randomdotsizeEA","ratio_trial":750,"smaller_num":"15","larger_num":"20","correct_side":2,"subjID":"JuanPabloSepulvedaCastro30","gender":"0","age":"11","school":"6"},{"start_time":1551900599628,"click_time":1551900600625,"finger_time":1551900600284,"fix_duration":1321.6848392573684,"trial":9,"RT":656,"MT":341,"sideResp":2,"stimulus":"img/500/equaldotanddens/R/2_Ratio_500_L_3_R_6.png","xmouse":[830,830,830,830,830,830,830,830,830,830,830,830,830,830,830,830,830,830,830,830,830,830,830,830,830,830,830,830,830,834,857,883,930,962,975,1015,1021,1025,1028,1029,1034,1036,1036,1036,1036,1047,1057,1064],"ymouse":[513,515,515,515,515,515,515,515,515,515,515,515,515,515,515,515,515,515,515,515,515,515,515,515,515,515,515,515,515,509,432,370,273,217,193,139,128,123,120,117,111,110,110,110,109,99,91,84],"timestamp_mouse":[58,77,96,116,136,158,177,197,218,237,257,278,297,318,336,357,377,398,417,437,456,478,497,518,537,556,576,598,618,637,656,683,706,719,738,758,777,797,817,837,857,876,897,916,937,958,977,997],"xSR":741.5,"ySR":469.95,"xT1":424.9,"yT1":0,"xT2":1058.1,"yT2":0,"toosoon":0,"cond_shown":"equaldotanddens","ratio_trial":500,"smaller_num":"3","larger_num":"6","correct_side":2,"subjID":"JuanPabloSepulvedaCastro30","gender":"0","age":"11","school":"6"},{"start_time":1551900601974,"click_time":1551900603284,"finger_time":1551900602645,"fix_duration":886.6597637748959,"trial":10,"RT":671,"MT":639,"sideResp":2,"stimulus":"img/900/equaldotanddens/R/14_Ratio_900_L_18_R_20.png","xmouse":[796,796,796,796,796,796,796,796,796,796,796,796,796,796,796,796,796,796,796,796,796,796,796,796,796,796,796,796,796,796,796,791,770,742,671,624,592,572,556,554,552,547,544,543,542,542,542,544,552,656,733,810,880,938,969,970,973,975,981,1001,1007,1011,1020,1038,1082],"ymouse":[513,513,513,513,513,513,513,513,513,513,513,513,513,513,513,513,513,513,513,513,513,513,513,513,513,513,513,513,513,513,513,502,434,371,251,204,177,166,160,160,158,152,147,145,145,145,144,144,144,179,195,199,199,190,172,169,161,152,143,120,113,108,97,80,51],"timestamp_mouse":[15,32,77,91,110,131,150,170,191,212,230,250,270,290,312,330,352,371,390,412,431,451,471,491,512,532,551,571,591,611,631,650,671,691,711,730,751,772,791,811,832,852,871,890,910,930,951,971,990,1010,1031,1050,1071,1090,1111,1134,1151,1171,1192,1212,1230,1251,1271,1292,1310],"xSR":741.5,"ySR":469.95,"xT1":424.9,"yT1":0,"xT2":1058.1,"yT2":0,"toosoon":0,"cond_shown":"equaldotanddens","ratio_trial":900,"smaller_num":"18","larger_num":"20","correct_side":2,"subjID":"JuanPabloSepulvedaCastro30","gender":"0","age":"11","school":"6"},{"start_time":1551900605140,"click_time":1551900605885,"finger_time":1551900605766,"fix_duration":1112.7985942840078,"trial":11,"RT":626,"MT":119,"sideResp":1,"stimulus":"img/500/equaldotsize/L/5_Ratio_500_L_4_R_2.png","xmouse":[798,798,798,798,798,798,798,798,798,798,798,798,798,798,798,798,798,798,798,798,798,798,798,798,798,798,798,798,798,794,742,675,618,566,508,508,473],"ymouse":[518,518,518,518,518,518,518,518,518,518,518,518,518,518,518,518,518,518,518,518,518,518,518,518,518,518,518,518,518,514,429,343,266,200,118,118,52],"timestamp_mouse":[15,25,45,93,105,124,146,164,185,204,226,246,265,285,312,325,345,366,384,405,425,445,464,484,506,525,544,565,586,605,626,654,675,692,713,724,745],"xSR":741.5,"ySR":469.95,"xT1":424.9,"yT1":0,"xT2":1058.1,"yT2":0,"toosoon":0,"cond_shown":"equaldotsize","ratio_trial":500,"smaller_num":"2","larger_num":"4","correct_side":1,"subjID":"JuanPabloSepulvedaCastro30","gender":"0","age":"11","school":"6"},{"start_time":1551900608000,"click_time":1551900608725,"finger_time":1551900608605,"fix_duration":1331.0265160871234,"trial":12,"RT":605,"MT":120,"sideResp":1,"stimulus":"img/500/equaldotanddens/L/10_Ratio_500_L_4_R_2.png","xmouse":[818,818,818,818,818,818,818,818,818,818,818,818,818,818,818,818,818,818,818,818,818,818,818,818,818,818,818,817,787,756,721,670,613,503,459,432],"ymouse":[518,518,518,518,518,518,518,518,518,518,518,518,518,518,518,518,518,518,518,518,518,518,518,518,518,518,518,518,480,434,387,335,279,162,123,99],"timestamp_mouse":[15,26,67,85,105,124,144,164,185,205,224,245,266,286,311,326,346,365,385,404,426,444,465,485,506,525,544,564,584,605,628,649,665,684,704,725],"xSR":741.5,"ySR":469.95,"xT1":424.9,"yT1":0,"xT2":1058.1,"yT2":0,"toosoon":0,"cond_shown":"equaldotanddens","ratio_trial":500,"smaller_num":"2","larger_num":"4","correct_side":1,"subjID":"JuanPabloSepulvedaCastro30","gender":"0","age":"11","school":"6"},{"start_time":1551900609935,"click_time":1551900611265,"finger_time":1551900610505,"fix_duration":250,"trial":13,"RT":570,"MT":760,"sideResp":2,"stimulus":"img/750/equaldotsize/R/12_Ratio_750_L_3_R_4.png","xmouse":[745,745,745,745,745,745,745,745,745,745,745,745,745,745,745,745,745,745,745,745,745,745,745,745,745,758,781,815,874,889,957,957,957,957,957,957,957,957,957,957,1009,1010,1012,1012,1012,1012,1012,1011,1011,1011,1011,1011,1011,1011,1011,1011,1011,1011,1012,1022,1050,1054,1056,1057,1060],"ymouse":[525,525,525,525,525,525,525,525,525,525,525,525,525,525,525,525,525,525,525,525,525,525,525,525,525,496,427,339,203,162,9,9,9,9,9,9,9,9,9,9,26,47,57,61,62,68,75,79,80,80,80,80,80,80,80,80,80,80,80,76,63,61,60,59,58],"timestamp_mouse":[16,51,70,89,111,131,150,198,210,229,249,271,289,313,330,350,369,390,409,429,450,471,491,509,529,550,570,592,614,631,650,669,689,710,729,749,769,789,810,829,849,869,889,910,929,950,970,989,1009,1031,1050,1070,1090,1110,1130,1150,1169,1190,1209,1230,1249,1270,1289,1310,1330],"xSR":741.5,"ySR":469.95,"xT1":424.9,"yT1":0,"xT2":1058.1,"yT2":0,"toosoon":0,"cond_shown":"equaldotsize","ratio_trial":750,"smaller_num":"3","larger_num":"4","correct_side":2,"subjID":"JuanPabloSepulvedaCastro30","gender":"0","age":"11","school":"6"},{"start_time":1551900614278,"click_time":1551900615444,"finger_time":1551900614945,"fix_duration":1007.4929445656469,"trial":14,"RT":667,"MT":499,"sideResp":1,"stimulus":"img/900/equaldotsize/L/2_Ratio_900_L_20_R_18.png","xmouse":[816,816,816,816,816,816,816,816,816,816,816,816,816,816,816,816,816,816,816,816,816,816,816,816,816,816,816,816,816,814,809,792,770,730,682,524,489,476,472,472,474,475,479,491,522,539,562,570,574,575,575,575,575,575,571,562,549,531,508],"ymouse":[515,515,515,515,515,515,515,515,515,515,515,515,515,515,515,515,515,513,510,510,510,510,510,510,510,510,510,510,509,507,502,491,475,442,402,265,236,223,214,202,196,192,185,169,134,113,74,56,44,37,36,36,34,34,34,35,40,45,48],"timestamp_mouse":[16,26,59,66,88,107,127,148,167,187,207,226,246,267,287,312,327,347,367,387,408,428,447,467,487,506,526,547,567,586,606,627,647,667,687,707,727,747,768,787,810,826,847,866,887,909,934,948,966,986,1009,1027,1046,1066,1086,1109,1126,1146,1166],"xSR":741.5,"ySR":469.95,"xT1":424.9,"yT1":0,"xT2":1058.1,"yT2":0,"toosoon":0,"cond_shown":"equaldotsize","ratio_trial":900,"smaller_num":"18","larger_num":"20","correct_side":1,"subjID":"JuanPabloSepulvedaCastro30","gender":"0","age":"11","school":"6"},{"start_time":1551900618382,"click_time":1551900619664,"finger_time":1551900619204,"fix_duration":250,"trial":15,"RT":822,"MT":460,"sideResp":2,"stimulus":"img/250/randomdotsizeEA/R/12_Ratio_250_L_5_R_20.png","xmouse":[783,783,783,783,783,783,783,783,783,783,783,783,783,783,783,783,783,782,782,782,782,782,781,781,780,780,780,780,780,780,780,780,780,779,778,776,774,772,769,769,783,810,845,877,918,937,960,975,987,990,990,990,990,990,990,990,990,990,990,1015,1030,1041,1051,1063],"ymouse":[500,500,500,500,500,500,500,500,500,500,500,500,500,500,500,500,500,499,499,499,499,499,499,499,499,499,499,499,499,499,499,499,499,499,498,497,496,495,493,483,446,386,322,269,162,99,55,28,5,0,0,0,0,0,0,0,0,0,0,17,36,50,58,61],"timestamp_mouse":[15,23,62,83,102,123,144,163,183,204,224,243,263,282,311,323,343,363,382,403,423,444,462,482,503,524,542,562,583,604,624,642,663,682,703,724,744,763,783,803,822,844,866,882,903,923,943,963,982,1005,1023,1042,1063,1083,1102,1122,1142,1162,1183,1203,1222,1242,1262,1282],"xSR":741.5,"ySR":469.95,"xT1":424.9,"yT1":0,"xT2":1058.1,"yT2":0,"toosoon":0,"cond_shown":"randomdotsizeEA","ratio_trial":250,"smaller_num":"5","larger_num":"20","correct_side":2,"subjID":"JuanPabloSepulvedaCastro30","gender":"0","age":"11","school":"6"},{"start_time":1551900621626,"click_time":1551900622565,"finger_time":1551900622165,"fix_duration":1160.5265082682458,"trial":16,"RT":539,"MT":400,"sideResp":2,"stimulus":"img/500/equaldotsize/R/12_Ratio_500_L_1_R_2.png","xmouse":[761,761,761,761,761,761,761,761,761,761,761,761,761,761,761,761,761,761,761,761,761,761,761,761,761,761,767,779,798,823,853,877,911,928,947,958,969,971,973,976,980,983,987,996,1012,1034,1078],"ymouse":[474,474,474,474,474,474,474,474,474,474,474,474,474,474,474,474,474,474,474,474,474,474,474,474,474,474,469,452,427,395,356,323,255,226,199,183,166,163,160,156,152,151,148,141,131,117,86],"timestamp_mouse":[18,57,58,79,99,119,139,158,180,198,219,240,260,279,298,318,339,360,379,399,418,438,460,478,498,520,539,568,586,600,618,638,659,678,698,718,738,760,779,799,819,840,859,879,898,918,938],"xSR":741.5,"ySR":469.95,"xT1":424.9,"yT1":0,"xT2":1058.1,"yT2":0,"toosoon":0,"cond_shown":"equaldotsize","ratio_trial":500,"smaller_num":"1","larger_num":"2","correct_side":2,"subjID":"JuanPabloSepulvedaCastro30","gender":"0","age":"11","school":"6"},{"start_time":1551900623813,"click_time":1551900624925,"finger_time":1551900624465,"fix_duration":586.7439017911174,"trial":17,"RT":652,"MT":460,"sideResp":1,"stimulus":"img/900/equaldotanddens/R/13_Ratio_900_L_18_R_20.png","xmouse":[796,796,796,796,796,796,796,796,796,796,796,796,796,796,796,796,796,796,796,796,796,796,796,796,796,796,796,791,782,765,751,723,702,672,662,647,625,615,607,599,590,581,579,578,575,574,573,572,570,566,559,551,537,530,520],"ymouse":[545,545,545,545,545,545,545,545,545,545,545,545,545,545,545,545,545,545,545,545,545,545,545,545,545,545,545,535,521,496,475,421,367,303,282,245,195,158,133,115,99,82,78,76,73,72,72,71,71,70,70,70,70,70,70],"timestamp_mouse":[15,59,72,92,112,132,151,173,192,211,231,251,272,292,313,331,352,373,391,411,431,451,472,491,512,531,552,572,592,612,631,652,680,702,714,732,751,772,792,811,833,851,872,891,911,932,952,972,992,1012,1032,1051,1071,1092,1112],"xSR":741.5,"ySR":469.95,"xT1":424.9,"yT1":0,"xT2":1058.1,"yT2":0,"toosoon":0,"cond_shown":"equaldotanddens","ratio_trial":900,"smaller_num":"18","larger_num":"20","correct_side":2,"subjID":"JuanPabloSepulvedaCastro30","gender":"0","age":"11","school":"6"},{"start_time":1551900626057,"click_time":1551900627164,"finger_time":1551900626805,"fix_duration":270.125367795197,"trial":18,"RT":748,"MT":359,"sideResp":1,"stimulus":"img/500/equaldotanddens/L/4_Ratio_500_L_18_R_9.png","xmouse":[784,784,784,784,784,784,784,784,784,784,784,784,784,784,784,784,784,784,784,784,784,784,784,784,784,784,784,784,784,784,784,784,784,784,784,774,740,607,454,314,238,236,236,236,236,236,236,239,249,284,312,339,365,392,444],"ymouse":[500,500,500,500,500,500,500,500,500,500,500,500,500,500,500,500,500,500,500,500,500,500,500,500,500,500,500,500,500,500,500,500,500,500,500,486,445,367,253,151,76,58,44,41,41,41,41,37,30,12,4,0,0,1,17],"timestamp_mouse":[16,48,67,88,108,128,147,168,188,207,228,247,269,289,312,329,348,367,388,407,427,449,468,488,509,528,547,567,588,608,628,649,668,687,707,727,748,769,790,808,829,849,868,888,908,927,948,967,988,1008,1028,1048,1067,1087,1107],"xSR":741.5,"ySR":469.95,"xT1":424.9,"yT1":0,"xT2":1058.1,"yT2":0,"toosoon":0,"cond_shown":"equaldotanddens","ratio_trial":500,"smaller_num":"9","larger_num":"18","correct_side":1,"subjID":"JuanPabloSepulvedaCastro30","gender":"0","age":"11","school":"6"},{"start_time":1551900629137,"click_time":1551900630405,"finger_time":1551900629885,"fix_duration":949.539883206647,"trial":19,"RT":748,"MT":520,"sideResp":1,"stimulus":"img/500/randomdotsizeEA/L/10_Ratio_500_L_4_R_2.png","xmouse":[815,815,815,815,815,815,815,815,815,815,815,815,815,815,815,815,815,815,815,815,815,815,815,815,815,815,815,815,815,815,815,815,815,814,811,801,789,774,757,747,738,735,733,732,726,714,699,670,640,614,580,562,553,550,550,550,550,549,547,547,547,544,512],"ymouse":[509,509,509,509,509,509,509,509,509,509,509,509,509,509,509,509,509,509,509,509,509,509,509,509,509,509,509,509,509,509,509,509,509,507,503,481,456,425,393,376,359,354,349,344,336,319,303,252,187,137,61,35,26,25,25,25,25,24,24,24,24,24,33],"timestamp_mouse":[16,28,48,86,87,109,127,147,168,188,208,229,248,268,289,308,328,347,367,387,408,427,448,468,489,508,529,548,568,587,645,648,668,687,707,727,748,773,797,813,827,847,868,888,909,927,948,968,987,1007,1027,1048,1069,1087,1109,1129,1149,1169,1187,1208,1227,1249,1268],"xSR":741.5,"ySR":469.95,"xT1":424.9,"yT1":0,"xT2":1058.1,"yT2":0,"toosoon":0,"cond_shown":"randomdotsizeEA","ratio_trial":500,"smaller_num":"2","larger_num":"4","correct_side":1,"subjID":"JuanPabloSepulvedaCastro30","gender":"0","age":"11","school":"6"},{"start_time":1551900632435,"click_time":1551900633465,"finger_time":1551900633046,"fix_duration":1168.5997350305558,"trial":20,"RT":611,"MT":419,"sideResp":1,"stimulus":"img/750/randomdotsizeEA/L/8_Ratio_750_L_4_R_3.png","xmouse":[762,762,762,762,762,762,763,764,764,764,765,765,765,765,765,765,765,765,765,765,765,765,765,765,765,765,765,765,751,735,701,687,670,649,640,600,583,565,561,557,555,547,541,538,538,537,536,532,527,518,508],"ymouse":[518,518,518,518,518,518,516,515,515,515,514,514,514,514,514,514,514,514,514,514,514,514,514,514,514,514,512,508,483,458,405,387,363,322,308,237,208,178,170,162,154,134,123,118,118,116,116,113,109,104,95],"timestamp_mouse":[16,29,73,91,109,130,150,170,189,209,231,249,269,291,311,330,350,370,391,409,430,450,470,491,509,530,550,571,590,611,629,652,673,692,711,730,750,769,789,810,829,849,869,889,910,929,950,970,990,1010,1030],"xSR":741.5,"ySR":469.95,"xT1":424.9,"yT1":0,"xT2":1058.1,"yT2":0,"toosoon":0,"cond_shown":"randomdotsizeEA","ratio_trial":750,"smaller_num":"3","larger_num":"4","correct_side":1,"subjID":"JuanPabloSepulvedaCastro30","gender":"0","age":"11","school":"6"},{"start_time":1551900635087,"click_time":1551900635944,"finger_time":1551900635806,"fix_duration":1100.4210695378902,"trial":21,"RT":719,"MT":138,"sideResp":2,"stimulus":"img/250/randomdotsizeEA/R/11_Ratio_250_L_3_R_12.png","xmouse":[773,773,773,773,773,773,773,773,773,773,773,773,773,773,773,773,773,773,773,773,773,773,773,773,773,773,773,773,773,773,773,773,773,785,806,853,891,924,990,1040,1049,1059],"ymouse":[496,496,496,496,496,496,496,496,496,496,496,496,496,496,496,496,496,496,496,496,496,496,496,496,496,496,496,496,496,496,496,496,497,474,437,366,297,217,116,80,73,67],"timestamp_mouse":[46,59,78,98,119,139,158,179,199,218,238,258,279,298,319,337,357,378,397,418,437,458,477,498,517,538,557,579,597,618,637,657,678,698,719,739,761,778,805,822,838,857],"xSR":741.5,"ySR":469.95,"xT1":424.9,"yT1":0,"xT2":1058.1,"yT2":0,"toosoon":0,"cond_shown":"randomdotsizeEA","ratio_trial":250,"smaller_num":"3","larger_num":"12","correct_side":2,"subjID":"JuanPabloSepulvedaCastro30","gender":"0","age":"11","school":"6"},{"start_time":1551900637472,"click_time":1551900638564,"finger_time":1551900638085,"fix_duration":624.6480500422936,"trial":22,"RT":613,"MT":479,"sideResp":2,"stimulus":"img/500/randomdotsizeEA/R/9_Ratio_500_L_2_R_4.png","xmouse":[812,812,813,813,813,813,814,815,817,817,817,817,817,817,817,817,817,817,817,817,817,817,817,817,817,817,817,817,817,827,843,863,889,922,995,1026,1088,1122,1140,1150,1159,1163,1170,1177,1182,1186,1186,1186,1186,1186,1186,1185,1183,1175,1133],"ymouse":[494,494,494,494,494,495,495,496,497,497,497,497,497,497,497,497,497,497,497,497,497,497,497,497,497,497,497,497,497,490,472,456,433,405,329,299,199,152,129,116,103,99,90,73,54,36,36,36,36,35,34,34,34,36,57],"timestamp_mouse":[12,34,71,73,93,112,132,153,173,193,213,233,254,273,294,313,333,353,373,393,412,434,453,472,492,514,532,552,573,592,613,638,658,673,692,712,733,753,773,792,812,832,854,873,892,913,933,953,973,992,1013,1032,1052,1072,1092],"xSR":741.5,"ySR":469.95,"xT1":424.9,"yT1":0,"xT2":1058.1,"yT2":0,"toosoon":0,"cond_shown":"randomdotsizeEA","ratio_trial":500,"smaller_num":"2","larger_num":"4","correct_side":2,"subjID":"JuanPabloSepulvedaCastro30","gender":"0","age":"11","school":"6"},{"start_time":1551900641099,"click_time":1551900641925,"finger_time":1551900641485,"fix_duration":250,"trial":23,"RT":386,"MT":440,"sideResp":2,"stimulus":"img/750/randomdotsizeEA/L/14_Ratio_750_L_8_R_6.png","xmouse":[810,810,810,810,810,810,811,811,811,811,811,811,810,808,806,806,803,798,791,788,788,786,786,786,786,786,786,786,785,784,779,778,775,768,768,768,780,799,882,948,1027,1095],"ymouse":[519,519,519,519,520,520,521,521,521,521,521,521,521,520,519,518,508,496,478,469,464,458,457,456,455,455,455,455,445,436,429,423,417,401,389,383,352,326,226,177,119,87],"timestamp_mouse":[16,25,62,65,86,107,126,146,167,186,206,227,245,266,286,305,326,346,366,386,410,432,445,465,485,505,525,545,566,585,606,626,645,665,687,705,725,746,766,785,805,826],"xSR":741.5,"ySR":469.95,"xT1":424.9,"yT1":0,"xT2":1058.1,"yT2":0,"toosoon":0,"cond_shown":"randomdotsizeEA","ratio_trial":750,"smaller_num":"6","larger_num":"8","correct_side":1,"subjID":"JuanPabloSepulvedaCastro30","gender":"0","age":"11","school":"6"},{"start_time":1551900643245,"click_time":1551900644285,"finger_time":1551900643986,"fix_duration":537.1011489537996,"trial":24,"RT":741,"MT":299,"sideResp":1,"stimulus":"img/900/equaldotsize/L/10_Ratio_900_L_20_R_18.png","xmouse":[769,769,769,769,769,769,769,769,769,769,769,769,769,769,769,769,769,769,769,769,769,769,769,769,769,769,769,769,769,769,769,769,769,769,768,767,751,724,701,699,690,684,677,670,664,629,563,550,520,504,485,483],"ymouse":[501,501,501,501,501,501,501,501,501,501,501,501,501,501,501,501,501,501,501,501,501,501,501,501,501,501,501,501,501,501,501,501,501,501,501,498,450,358,275,267,255,249,245,241,238,218,189,182,161,145,100,55],"timestamp_mouse":[11,50,60,80,100,121,140,160,180,201,219,240,260,280,311,319,340,360,380,399,419,440,459,479,499,519,541,560,581,601,620,639,660,679,701,719,741,763,781,801,820,839,860,881,900,919,941,960,980,1000,1020,1040],"xSR":741.5,"ySR":469.95,"xT1":424.9,"yT1":0,"xT2":1058.1,"yT2":0,"toosoon":0,"cond_shown":"equaldotsize","ratio_trial":900,"smaller_num":"18","larger_num":"20","correct_side":1,"subjID":"JuanPabloSepulvedaCastro30","gender":"0","age":"11","school":"6"},{"start_time":1551900645907,"click_time":1551900647045,"finger_time":1551900646546,"fix_duration":839.8641859182285,"trial":25,"RT":639,"MT":499,"sideResp":1,"stimulus":"img/750/equaldotanddens/L/8_Ratio_750_L_4_R_3.png","xmouse":[795,795,795,795,795,795,795,795,795,795,795,795,795,795,795,795,795,795,795,795,795,795,795,795,795,795,795,793,790,785,777,760,743,736,710,694,663,651,637,634,632,622,610,603,596,589,570,550,541,534,526,516,509,502,496,486],"ymouse":[524,524,524,524,524,524,524,524,524,524,524,524,524,524,524,524,524,524,524,524,524,524,524,524,524,524,523,509,495,476,455,411,370,350,294,269,236,221,212,209,207,193,179,171,162,156,144,134,131,127,124,119,114,110,104,92],"timestamp_mouse":[19,38,58,78,121,137,158,178,199,219,238,258,277,299,318,339,357,377,399,419,438,457,479,498,518,537,557,578,598,618,639,659,679,699,718,738,759,779,798,818,838,857,880,898,918,938,957,977,997,1018,1038,1058,1079,1098,1118,1138],"xSR":741.5,"ySR":469.95,"xT1":424.9,"yT1":0,"xT2":1058.1,"yT2":0,"toosoon":0,"cond_shown":"equaldotanddens","ratio_trial":750,"smaller_num":"3","larger_num":"4","correct_side":1,"subjID":"JuanPabloSepulvedaCastro30","gender":"0","age":"11","school":"6"},{"start_time":1551900647956,"click_time":1551900649046,"finger_time":1551900648726,"fix_duration":388.74982388904533,"trial":26,"RT":770,"MT":320,"sideResp":1,"stimulus":"img/750/equaldotanddens/L/10_Ratio_750_L_4_R_3.png","xmouse":[820,820,820,820,820,820,820,820,820,820,820,820,820,820,820,820,820,820,820,820,820,820,820,820,820,820,820,820,820,820,820,820,820,820,820,820,817,802,758,649,621,613,610,610,613,613,613,613,613,611,596,574,550,507],"ymouse":[513,513,513,513,513,513,513,513,513,513,513,513,513,513,513,513,513,513,513,513,513,513,513,513,513,513,513,513,513,513,513,513,513,513,513,513,495,451,369,226,192,170,151,119,97,95,94,93,90,85,79,77,77,79],"timestamp_mouse":[16,28,48,89,109,128,148,169,188,208,228,249,269,288,312,328,349,369,389,410,428,449,469,489,510,530,548,568,588,610,630,648,669,688,709,729,749,770,789,808,830,850,868,889,909,930,950,969,989,1008,1030,1049,1068,1089],"xSR":741.5,"ySR":469.95,"xT1":424.9,"yT1":0,"xT2":1058.1,"yT2":0,"toosoon":0,"cond_shown":"equaldotanddens","ratio_trial":750,"smaller_num":"3","larger_num":"4","correct_side":1,"subjID":"JuanPabloSepulvedaCastro30","gender":"0","age":"11","school":"6"},{"start_time":1551900650392,"click_time":1551900651345,"finger_time":1551900651045,"fix_duration":605.9908864920839,"trial":27,"RT":653,"MT":300,"sideResp":1,"stimulus":"img/500/equaldotsize/L/10_Ratio_500_L_4_R_2.png","xmouse":[784,784,784,784,784,784,784,784,784,784,784,784,784,784,784,784,784,784,784,784,784,784,784,784,784,784,784,784,784,784,780,743,683,596,571,564,564,564,565,565,565,563,555,546,539,533,520],"ymouse":[481,481,481,481,481,481,481,481,481,481,481,481,481,481,481,481,481,481,481,481,481,481,481,481,481,481,481,481,481,481,475,422,357,266,245,239,238,236,229,220,212,205,177,158,139,121,97],"timestamp_mouse":[16,60,72,92,113,134,153,172,193,214,233,254,273,292,313,333,354,373,392,413,433,452,474,492,512,533,553,572,594,614,634,653,674,693,713,733,754,773,793,813,833,854,872,897,916,933,953],"xSR":741.5,"ySR":469.95,"xT1":424.9,"yT1":0,"xT2":1058.1,"yT2":0,"toosoon":0,"cond_shown":"equaldotsize","ratio_trial":500,"smaller_num":"2","larger_num":"4","correct_side":1,"subjID":"JuanPabloSepulvedaCastro30","gender":"0","age":"11","school":"6"},{"start_time":1551900654917,"click_time":1551900656087,"finger_time":1551900655565,"fix_duration":311.78382490873156,"trial":28,"RT":648,"MT":522,"sideResp":1,"stimulus":"img/250/randomdotsizeEA/L/5_Ratio_250_L_24_R_6.png","xmouse":[794,794,794,794,794,794,794,794,794,794,794,794,794,794,794,794,794,794,794,794,794,794,794,794,794,794,794,794,794,794,794,772,738,712,699,699,692,692,692,691,691,687,683,678,658,637,597,581,574,566,559,546,542,541,537,534,515,505],"ymouse":[524,524,524,524,524,524,524,524,524,524,524,524,524,524,524,524,524,524,524,524,524,524,524,524,524,524,524,524,524,524,523,468,402,322,264,264,179,142,133,131,129,122,119,117,116,114,115,119,122,124,126,129,130,130,130,129,109,93],"timestamp_mouse":[16,27,68,88,107,127,147,169,189,208,227,247,267,288,313,327,348,369,387,408,429,449,468,487,507,529,547,568,589,608,628,648,675,698,714,729,748,768,788,809,829,847,867,887,907,927,948,967,988,1008,1028,1047,1068,1088,1108,1127,1147,1170],"xSR":741.5,"ySR":469.95,"xT1":424.9,"yT1":0,"xT2":1058.1,"yT2":0,"toosoon":0,"cond_shown":"randomdotsizeEA","ratio_trial":250,"smaller_num":"6","larger_num":"24","correct_side":1,"subjID":"JuanPabloSepulvedaCastro30","gender":"0","age":"11","school":"6"},{"start_time":1551900659192,"click_time":1551900659865,"finger_time":1551900659765,"fix_duration":999.868455134207,"trial":29,"RT":573,"MT":100,"sideResp":2,"stimulus":"img/250/equaldotsize/R/4_Ratio_250_L_3_R_12.png","xmouse":[784,784,784,784,784,784,784,784,784,784,784,784,784,784,784,784,784,784,784,784,784,784,784,784,784,784,785,836,884,949,1041,1078,1127],"ymouse":[533,533,533,533,533,533,533,533,533,533,533,533,533,533,533,533,533,533,533,533,533,533,533,533,533,533,530,448,378,295,174,110,30],"timestamp_mouse":[16,54,73,92,112,132,152,172,192,212,233,252,273,293,312,333,353,372,392,413,432,452,472,492,511,532,552,573,601,619,638,652,672],"xSR":741.5,"ySR":469.95,"xT1":424.9,"yT1":0,"xT2":1058.1,"yT2":0,"toosoon":0,"cond_shown":"equaldotsize","ratio_trial":250,"smaller_num":"3","larger_num":"12","correct_side":2,"subjID":"JuanPabloSepulvedaCastro30","gender":"0","age":"11","school":"6"},{"start_time":1551900662972,"click_time":1551900663924,"finger_time":1551900663605,"fix_duration":621.9545671041277,"trial":30,"RT":633,"MT":319,"sideResp":2,"stimulus":"img/250/equaldotanddens/R/6_Ratio_250_L_6_R_24.png","xmouse":[777,777,777,777,777,777,777,777,777,777,777,777,777,777,777,777,777,777,777,777,777,777,777,777,777,777,777,777,777,784,802,826,862,925,957,1010,1022,1030,1032,1034,1035,1042,1046,1057,1077,1088,1099,1115],"ymouse":[523,523,523,523,523,523,523,523,523,523,523,523,523,523,523,523,523,523,523,523,523,523,523,523,523,523,523,523,523,519,495,469,426,365,335,297,288,281,279,277,275,262,258,234,188,163,136,84],"timestamp_mouse":[16,33,60,71,93,112,132,152,173,193,212,232,251,272,292,312,332,352,373,393,413,431,452,473,493,513,533,553,572,592,612,633,652,676,692,713,731,752,773,791,812,833,852,873,892,913,931,952],"xSR":741.5,"ySR":469.95,"xT1":424.9,"yT1":0,"xT2":1058.1,"yT2":0,"toosoon":0,"cond_shown":"equaldotanddens","ratio_trial":250,"smaller_num":"6","larger_num":"24","correct_side":2,"subjID":"JuanPabloSepulvedaCastro30","gender":"0","age":"11","school":"6"},{"start_time":1551900665683,"click_time":1551900668104,"finger_time":1551900666363,"fix_duration":996.5504473867564,"trial":31,"RT":680,"MT":1741,"sideResp":1,"stimulus":"img/900/randomdotsizeEA/L/1_Ratio_900_L_10_R_9.png","xmouse":[800,800,800,800,800,800,800,800,800,800,800,800,800,800,800,800,800,800,800,800,800,800,800,800,800,800,800,800,800,799,798,798,798,796,792,789,788,788,788,788,788,786,782,778,762,749,743,734,727,703,689,677,669,660,652,652,652,652,652,652,652,652,652,652,652,652,652,652,652,652,652,652,652,652,652,652,652,652,652,652,652,652,652,652,652,652,652,652,652,652,652,652,652,652,659,659,659,659,659,657,657,656,656,654,647,642,633,625,615,596,588,580,570,564,564,563,563,563,562,546,536,510],"ymouse":[528,528,528,528,528,528,528,528,528,528,528,528,528,528,528,528,528,528,528,528,528,528,528,528,528,528,528,528,528,527,523,516,503,484,446,432,425,419,415,411,408,402,394,384,360,350,347,344,342,330,324,316,307,291,273,272,272,272,272,272,272,272,272,272,272,272,272,272,272,272,272,272,272,272,272,272,272,272,272,272,272,272,272,272,272,272,272,272,272,272,272,272,272,272,273,273,273,273,273,268,266,264,264,257,241,229,204,184,164,132,121,112,100,92,92,91,91,90,89,86,85,84],"timestamp_mouse":[16,21,40,60,90,101,121,141,160,180,202,222,242,261,281,310,322,342,361,382,402,421,442,461,482,501,520,540,562,582,601,622,642,662,680,709,724,742,761,782,801,822,841,861,881,901,921,940,961,980,1001,1021,1041,1060,1081,1101,1120,1141,1161,1180,1200,1221,1241,1260,1281,1300,1321,1342,1362,1382,1402,1421,1442,1462,1481,1502,1521,1542,1561,1581,1601,1621,1641,1661,1681,1701,1720,1740,1762,1781,1801,1822,1842,1862,1882,1902,1922,1942,1961,1982,2000,2020,2040,2061,2081,2101,2121,2142,2161,2181,2201,2220,2241,2261,2280,2301,2322,2342,2362,2381,2401,2421],"xSR":741.5,"ySR":469.95,"xT1":424.9,"yT1":0,"xT2":1058.1,"yT2":0,"toosoon":0,"cond_shown":"randomdotsizeEA","ratio_trial":900,"smaller_num":"9","larger_num":"10","correct_side":1,"subjID":"JuanPabloSepulvedaCastro30","gender":"0","age":"11","school":"6"},{"start_time":1551900669176,"click_time":1551900670265,"finger_time":1551900669845,"fix_duration":250,"trial":32,"RT":669,"MT":420,"sideResp":2,"stimulus":"img/900/randomdotsizeEA/R/7_Ratio_900_L_9_R_10.png","xmouse":[776,776,775,775,775,775,775,775,775,775,775,775,775,775,775,775,775,775,775,775,775,775,775,775,775,775,775,775,775,775,775,785,808,852,875,891,907,921,940,947,956,964,975,986,994,1005,1013,1017,1022,1023,1026,1033,1048,1060],"ymouse":[488,488,488,488,488,488,488,488,488,488,488,488,488,488,488,488,488,488,488,488,488,488,488,488,488,488,488,488,488,488,488,470,437,367,329,300,265,230,169,144,127,113,101,93,90,87,85,85,85,85,84,82,78,75],"timestamp_mouse":[15,28,76,89,108,128,149,167,189,209,228,247,267,288,311,328,348,369,388,407,429,447,469,488,507,527,548,569,589,609,628,648,669,690,712,730,750,768,788,809,828,847,868,888,908,928,948,967,988,1007,1028,1049,1069,1088],"xSR":741.5,"ySR":469.95,"xT1":424.9,"yT1":0,"xT2":1058.1,"yT2":0,"toosoon":0,"cond_shown":"randomdotsizeEA","ratio_trial":900,"smaller_num":"9","larger_num":"10","correct_side":2,"subjID":"JuanPabloSepulvedaCastro30","gender":"0","age":"11","school":"6"},{"start_time":1551900672492,"click_time":1551900673686,"finger_time":1551900673204,"fix_duration":1085.6684480924707,"trial":33,"RT":712,"MT":482,"sideResp":2,"stimulus":"img/750/randomdotsizeEA/R/15_Ratio_750_L_9_R_12.png","xmouse":[799,795,793,793,793,793,793,793,793,793,793,793,793,793,793,793,793,793,793,793,793,793,793,793,793,793,793,793,793,793,793,793,793,793,793,811,824,869,948,970,988,999,1003,1008,1014,1018,1024,1029,1034,1034,1034,1034,1035,1035,1035,1035,1035,1037,1057,1064],"ymouse":[500,496,495,495,495,495,495,495,495,495,495,495,495,495,495,495,495,495,495,495,495,495,495,495,495,495,495,495,495,495,495,495,495,495,495,447,414,308,149,107,78,58,50,44,38,31,23,16,10,10,10,10,9,9,9,9,9,9,25,32],"timestamp_mouse":[16,32,51,79,92,112,133,151,173,192,211,232,253,273,292,312,333,352,373,391,412,433,452,471,491,512,532,553,573,593,613,633,652,673,693,712,732,752,773,793,812,832,851,872,893,913,931,953,973,993,1015,1032,1052,1072,1093,1112,1131,1151,1172,1194],"xSR":741.5,"ySR":469.95,"xT1":424.9,"yT1":0,"xT2":1058.1,"yT2":0,"toosoon":0,"cond_shown":"randomdotsizeEA","ratio_trial":750,"smaller_num":"9","larger_num":"12","correct_side":2,"subjID":"JuanPabloSepulvedaCastro30","gender":"0","age":"11","school":"6"},{"start_time":1551900676238,"click_time":1551900677024,"finger_time":1551900676823,"fix_duration":1491.4910162964895,"trial":34,"RT":585,"MT":201,"sideResp":2,"stimulus":"img/900/randomdotsizeEA/R/15_Ratio_900_L_9_R_10.png","xmouse":[785,785,785,785,785,785,785,785,785,785,785,785,785,785,785,785,785,785,785,785,785,785,785,785,785,785,785,785,801,814,856,953,1003,1031,1040,1043,1051,1056,1061,1070],"ymouse":[504,504,504,504,504,504,504,504,504,504,504,504,504,504,504,504,504,504,504,504,504,504,504,504,504,504,504,504,482,465,405,276,208,158,139,133,121,115,108,95],"timestamp_mouse":[18,26,51,65,86,107,127,147,165,186,207,226,246,265,287,313,326,347,365,387,406,427,446,467,486,507,527,547,567,585,605,626,645,665,687,707,726,747,766,786],"xSR":741.5,"ySR":469.95,"xT1":424.9,"yT1":0,"xT2":1058.1,"yT2":0,"toosoon":0,"cond_shown":"randomdotsizeEA","ratio_trial":900,"smaller_num":"9","larger_num":"10","correct_side":2,"subjID":"JuanPabloSepulvedaCastro30","gender":"0","age":"11","school":"6"},{"start_time":1551900678017,"click_time":1551900678985,"finger_time":1551900678865,"fix_duration":250,"trial":35,"RT":848,"MT":120,"sideResp":2,"stimulus":"img/900/equaldotsize/R/15_Ratio_900_L_9_R_10.png","xmouse":[813,813,813,813,812,812,812,812,812,812,812,812,812,812,812,812,812,812,812,812,812,812,812,812,812,812,812,812,812,812,812,812,812,812,812,812,812,812,812,812,815,856,877,908,944,978,1054,1076],"ymouse":[496,496,496,496,496,496,496,496,496,496,496,496,496,496,496,496,496,496,496,496,496,496,496,496,496,496,496,496,496,496,496,496,496,496,496,496,496,496,496,496,487,396,354,303,240,181,48,6],"timestamp_mouse":[16,26,78,88,107,126,147,168,188,208,227,246,268,287,310,327,347,367,387,408,427,447,468,486,508,528,546,567,588,607,627,647,667,688,708,728,748,766,788,808,827,848,873,894,908,927,947,968],"xSR":741.5,"ySR":469.95,"xT1":424.9,"yT1":0,"xT2":1058.1,"yT2":0,"toosoon":0,"cond_shown":"equaldotsize","ratio_trial":900,"smaller_num":"9","larger_num":"10","correct_side":2,"subjID":"JuanPabloSepulvedaCastro30","gender":"0","age":"11","school":"6"},{"start_time":1551900680161,"click_time":1551900681064,"finger_time":1551900680745,"fix_duration":250,"trial":36,"RT":584,"MT":319,"sideResp":1,"stimulus":"img/750/randomdotsizeEA/R/4_Ratio_750_L_15_R_20.png","xmouse":[778,778,778,778,778,778,778,778,778,778,778,778,778,778,778,778,778,778,778,778,778,778,778,778,778,778,778,778,776,758,743,726,723,717,708,681,662,643,625,605,579,563,547,526,484,459],"ymouse":[502,502,502,502,503,503,503,503,503,503,503,503,503,503,503,503,503,503,503,503,503,503,503,503,503,503,503,503,492,454,428,407,404,397,384,349,327,303,280,260,232,216,196,161,105,77],"timestamp_mouse":[10,25,43,63,82,104,124,143,162,183,203,223,244,262,285,303,323,342,363,382,402,424,443,463,484,503,523,544,563,584,613,635,644,664,684,704,724,744,763,783,802,823,843,863,883,903],"xSR":741.5,"ySR":469.95,"xT1":424.9,"yT1":0,"xT2":1058.1,"yT2":0,"toosoon":0,"cond_shown":"randomdotsizeEA","ratio_trial":750,"smaller_num":"15","larger_num":"20","correct_side":2,"subjID":"JuanPabloSepulvedaCastro30","gender":"0","age":"11","school":"6"},{"start_time":1551900685056,"click_time":1551900689367,"finger_time":1551900685075,"fix_duration":1070.107451926218,"trial":37,"RT":19,"MT":4292,"sideResp":2,"stimulus":"img/250/randomdotsizeEA/L/5_Ratio_250_L_24_R_6.png","xmouse":[833,838,849,850,850,850,850,850,850,850,850,850,850,850,850,850,850,850,850,850,850,850,850,850,850,850,850,850,850,843,833,815,790,768,745,745,745,745,745,745,745,764,778,813,874,894,917,926,931,943,952,957,958,958,958,958,958,958,958,958,958,958,958,958,949,943,936,931,930,930,929,929,926,924,916,914,913,913,913,913,913,913,913,913,913,913,913,913,913,913,913,913,913,913,913,913,913,913,913,913,913,913,913,913,913,913,913,913,913,913,913,913,913,913,913,913,913,913,913,912,907,882,827,706,706,706,706,706,706,706,706,706,706,706,706,706,706,706,706,706,706,706,706,554,543,537,533,530,530,530,530,530,530,530,530,530,530,530,530,530,530,530,530,530,530,530,536,541,554,582,586,587,587,587,589,615,690,786,839,873,888,888,888,888,888,889,888,888,886,883,880,878,874,832,801,749,684,581,360,53,0,0,1,29,406,689,689,689,689,689,689,689,689,689,1081],"ymouse":[436,430,414,413,413,413,413,413,413,413,413,413,413,413,413,413,413,413,413,413,413,413,413,413,413,413,413,413,413,419,430,453,483,509,528,528,528,528,528,528,528,515,506,475,409,383,350,337,319,280,262,256,255,255,255,255,255,255,255,255,255,255,255,255,262,269,274,278,279,279,279,279,280,283,293,295,296,296,296,296,296,296,296,296,296,296,296,296,296,296,296,296,296,296,296,296,296,296,296,296,296,296,296,296,296,296,296,296,296,296,296,296,296,296,296,296,296,296,296,297,294,241,155,19,19,19,19,19,19,19,19,19,19,19,19,19,19,19,19,19,19,19,19,9,39,50,58,61,61,61,61,61,61,61,61,61,61,61,61,61,61,61,61,61,61,61,61,60,57,54,54,54,54,54,54,57,70,74,72,66,61,61,61,61,61,60,59,58,56,54,53,52,51,51,51,51,51,51,71,81,91,93,94,95,47,9,9,9,9,9,9,9,9,9,23],"timestamp_mouse":[19,48,68,88,108,128,148,169,189,208,229,249,268,288,310,328,348,368,388,408,429,448,468,487,508,528,548,569,588,608,627,648,669,688,707,728,749,769,788,808,829,848,869,888,908,935,958,968,988,1008,1028,1049,1069,1088,1108,1127,1147,1168,1188,1209,1229,1248,1268,1287,1308,1329,1348,1368,1388,1408,1428,1448,1468,1488,1508,1528,1548,1569,1588,1608,1629,1649,1668,1688,1708,1730,1751,1767,1788,1809,1828,1847,1868,1888,1909,1928,1947,1968,1988,2008,2029,2047,2067,2088,2109,2128,2148,2169,2188,2209,2227,2248,2268,2288,2308,2327,2347,2367,2388,2408,2428,2448,2468,2488,2508,2528,2548,2568,2588,2608,2629,2647,2668,2688,2708,2729,2749,2768,2788,2808,2828,2848,2868,2888,2908,2928,2948,2967,2988,3008,3029,3049,3068,3088,3108,3129,3149,3169,3190,3208,3229,3248,3267,3288,3308,3328,3348,3368,3388,3408,3427,3448,3467,3487,3507,3528,3547,3568,3588,3608,3629,3648,3668,3689,3708,3727,3748,3768,3788,3807,3828,3848,3868,3889,3910,3927,3947,3967,3989,4007,4028,4048,4069,4088,4108,4128,4148,4169,4188,4208,4228,4247,4269,4289,4311],"xSR":741.5,"ySR":469.95,"xT1":424.9,"yT1":0,"xT2":1058.1,"yT2":0,"toosoon":0,"cond_shown":"randomdotsizeEA","ratio_trial":250,"smaller_num":"6","larger_num":"24","correct_side":1,"subjID":"JuanPabloSepulvedaCastro30","gender":"0","age":"11","school":"6"},{"start_time":1551900692638,"click_time":1551900693344,"finger_time":1551900693245,"fix_duration":713.6579632367543,"trial":38,"RT":607,"MT":99,"sideResp":2,"stimulus":"img/750/equaldotsize/R/5_Ratio_750_L_15_R_20.png","xmouse":[784,784,784,784,784,784,784,784,784,784,784,784,784,784,784,784,784,784,784,784,784,784,784,784,784,784,784,789,795,811,849,929,1036,1069,1084,1094],"ymouse":[525,525,525,525,525,525,525,525,525,525,525,525,525,525,525,525,525,525,525,525,525,525,525,525,525,525,525,524,513,487,431,328,193,144,123,99],"timestamp_mouse":[15,26,60,67,87,106,126,146,167,186,207,226,247,267,286,312,326,347,366,385,407,426,447,466,486,506,526,547,566,586,607,627,647,667,687,706],"xSR":741.5,"ySR":469.95,"xT1":424.9,"yT1":0,"xT2":1058.1,"yT2":0,"toosoon":0,"cond_shown":"equaldotsize","ratio_trial":750,"smaller_num":"15","larger_num":"20","correct_side":2,"subjID":"JuanPabloSepulvedaCastro30","gender":"0","age":"11","school":"6"},{"start_time":1551900695247,"click_time":1551900696124,"finger_time":1551900695824,"fix_duration":701.879444221438,"trial":39,"RT":577,"MT":300,"sideResp":2,"stimulus":"img/250/equaldotanddens/R/11_Ratio_250_L_3_R_12.png","xmouse":[801,801,801,801,801,801,801,801,801,801,801,801,801,801,801,801,801,801,801,801,801,801,801,801,801,800,809,816,830,850,907,931,953,963,975,978,979,982,986,989,1000,1012,1039,1075],"ymouse":[527,527,527,527,527,527,527,527,527,527,527,527,527,527,527,527,527,527,527,527,527,527,527,527,527,523,506,490,463,419,286,224,176,155,136,133,132,127,120,115,100,87,76,56],"timestamp_mouse":[18,37,60,77,98,118,137,158,178,197,218,236,257,278,298,317,337,356,378,397,417,437,458,478,496,518,536,557,577,597,618,637,658,677,697,719,739,757,778,797,818,836,856,877],"xSR":741.5,"ySR":469.95,"xT1":424.9,"yT1":0,"xT2":1058.1,"yT2":0,"toosoon":0,"cond_shown":"equaldotanddens","ratio_trial":250,"smaller_num":"3","larger_num":"12","correct_side":2,"subjID":"JuanPabloSepulvedaCastro30","gender":"0","age":"11","school":"6"},{"start_time":1551900697719,"click_time":1551900699065,"finger_time":1551900698605,"fix_duration":1013.5275071845467,"trial":40,"RT":886,"MT":460,"sideResp":2,"stimulus":"img/900/equaldotanddens/L/1_Ratio_900_L_10_R_9.png","xmouse":[826,826,826,826,826,826,826,826,826,826,826,826,826,826,826,826,826,826,826,826,826,826,826,826,826,826,826,826,826,826,826,826,826,826,826,826,826,826,826,826,826,826,827,831,838,847,860,869,888,903,916,927,949,963,980,994,1010,1015,1015,1015,1015,1015,1015,1015,1016,1026,1037,1077],"ymouse":[497,497,497,497,497,497,497,497,497,497,497,497,497,497,497,497,497,497,497,497,497,497,497,497,497,497,497,497,497,497,497,497,497,497,497,497,497,497,497,497,497,497,485,473,460,443,419,402,369,350,332,315,284,262,242,226,210,205,205,205,205,205,205,205,203,188,168,88],"timestamp_mouse":[16,24,56,64,85,106,125,144,165,186,204,225,245,266,285,313,326,345,366,386,405,426,444,465,486,505,525,545,565,586,605,624,646,666,685,704,725,745,764,786,804,826,845,866,886,905,924,945,966,986,1005,1025,1046,1064,1084,1105,1126,1145,1166,1186,1204,1224,1246,1266,1285,1306,1326,1346],"xSR":741.5,"ySR":469.95,"xT1":424.9,"yT1":0,"xT2":1058.1,"yT2":0,"toosoon":0,"cond_shown":"equaldotanddens","ratio_trial":900,"smaller_num":"9","larger_num":"10","correct_side":1,"subjID":"JuanPabloSepulvedaCastro30","gender":"0","age":"11","school":"6"},{"start_time":1551900702813,"click_time":1551900703485,"finger_time":1551900703245,"fix_duration":1226.5880309890013,"trial":41,"RT":432,"MT":240,"sideResp":1,"stimulus":"img/250/equaldotsize/L/1_Ratio_250_L_8_R_2.png","xmouse":[778,778,778,778,778,778,778,778,778,778,778,778,778,778,778,778,778,778,778,778,777,772,755,729,714,702,691,660,636,612,587,578,532,522],"ymouse":[488,488,488,488,488,488,488,488,488,488,488,488,488,488,488,488,488,488,488,488,471,460,412,363,332,310,290,237,197,161,112,96,34,21],"timestamp_mouse":[15,31,59,71,91,110,132,152,172,192,210,232,252,271,291,312,331,352,372,390,410,432,451,472,491,511,531,551,571,590,610,631,651,672],"xSR":741.5,"ySR":469.95,"xT1":424.9,"yT1":0,"xT2":1058.1,"yT2":0,"toosoon":0,"cond_shown":"equaldotsize","ratio_trial":250,"smaller_num":"2","larger_num":"8","correct_side":1,"subjID":"JuanPabloSepulvedaCastro30","gender":"0","age":"11","school":"6"},{"start_time":1551900705032,"click_time":1551900706304,"finger_time":1551900705883,"fix_duration":666.1152870572963,"trial":42,"RT":851,"MT":421,"sideResp":1,"stimulus":"img/250/randomdotsizeEA/L/2_Ratio_250_L_16_R_4.png","xmouse":[756,756,756,756,756,756,756,756,756,756,756,756,756,756,757,757,757,758,760,760,760,760,760,760,760,760,760,760,760,760,760,760,760,763,765,766,766,767,768,770,772,772,772,767,764,763,754,745,733,704,680,664,651,633,603,591,579,570,560,539,526,514,497],"ymouse":[515,515,515,515,515,515,515,515,515,515,515,515,515,515,515,515,515,515,510,508,508,508,508,508,508,508,508,508,508,508,508,508,504,500,496,493,492,491,487,478,472,468,464,460,457,456,446,434,417,390,366,351,335,314,274,257,239,222,202,166,137,112,87],"timestamp_mouse":[18,53,72,93,111,132,153,173,192,213,233,253,272,293,313,332,352,372,393,413,433,451,472,491,512,532,552,571,591,613,632,652,671,691,712,733,752,771,793,812,833,851,874,895,911,932,952,971,992,1012,1032,1052,1072,1092,1112,1132,1152,1171,1192,1211,1232,1252,1272],"xSR":741.5,"ySR":469.95,"xT1":424.9,"yT1":0,"xT2":1058.1,"yT2":0,"toosoon":0,"cond_shown":"randomdotsizeEA","ratio_trial":250,"smaller_num":"4","larger_num":"16","correct_side":1,"subjID":"JuanPabloSepulvedaCastro30","gender":"0","age":"11","school":"6"},{"start_time":1551900708503,"click_time":1551900709363,"finger_time":1551900709085,"fix_duration":277.35285065667716,"trial":43,"RT":582,"MT":278,"sideResp":1,"stimulus":"img/500/equaldotanddens/L/4_Ratio_500_L_18_R_9.png","xmouse":[777,777,777,777,777,777,777,777,777,777,777,777,777,777,777,777,777,777,777,777,777,777,776,773,768,766,765,762,758,756,753,748,738,735,734,734,733,724,706,674,617,533,427],"ymouse":[520,520,520,520,520,520,520,520,520,520,520,520,520,520,520,520,520,520,520,520,520,520,519,504,495,490,487,479,461,439,420,399,372,364,361,356,337,319,296,263,200,108,4],"timestamp_mouse":[18,54,62,82,102,120,142,162,182,200,220,241,262,282,312,321,341,362,381,402,421,441,462,482,502,521,541,561,581,602,625,642,661,682,701,721,740,762,781,800,821,841,860],"xSR":741.5,"ySR":469.95,"xT1":424.9,"yT1":0,"xT2":1058.1,"yT2":0,"toosoon":0,"cond_shown":"equaldotanddens","ratio_trial":500,"smaller_num":"9","larger_num":"18","correct_side":1,"subjID":"JuanPabloSepulvedaCastro30","gender":"0","age":"11","school":"6"},{"start_time":1551900711153,"click_time":1551900712386,"finger_time":1551900711824,"fix_duration":506.98847171287787,"trial":44,"RT":671,"MT":562,"sideResp":2,"stimulus":"img/500/equaldotsize/R/6_Ratio_500_L_9_R_18.png","xmouse":[780,780,780,780,780,780,780,780,780,780,780,780,780,780,780,780,780,780,780,780,780,780,780,780,780,780,780,780,780,781,794,815,851,904,1045,1104,1175,1236,1291,1343,1347,1347,1347,1347,1347,1345,1339,1327,1300,1291,1285,1282,1281,1274,1268,1261,1254,1238,1187,1165,1151],"ymouse":[511,511,511,511,511,511,511,511,511,511,511,511,511,511,511,511,511,511,511,511,511,511,511,511,511,511,511,511,511,511,496,479,453,420,340,304,241,193,151,112,109,109,109,109,109,108,106,101,92,89,88,87,87,85,84,82,82,82,82,81,78],"timestamp_mouse":[14,32,51,72,129,132,151,170,191,211,231,252,272,292,312,332,350,371,392,412,431,451,470,492,512,532,551,571,592,611,631,652,671,691,712,730,750,771,791,811,831,851,870,890,911,931,952,972,990,1011,1032,1052,1071,1091,1111,1131,1151,1171,1190,1211,1232],"xSR":741.5,"ySR":469.95,"xT1":424.9,"yT1":0,"xT2":1058.1,"yT2":0,"toosoon":0,"cond_shown":"equaldotsize","ratio_trial":500,"smaller_num":"9","larger_num":"18","correct_side":2,"subjID":"JuanPabloSepulvedaCastro30","gender":"0","age":"11","school":"6"},{"start_time":1551900716878,"click_time":1551900717705,"finger_time":1551900717305,"fix_duration":1071.09998345585,"trial":45,"RT":427,"MT":400,"sideResp":2,"stimulus":"img/250/randomdotsizeEA/R/10_Ratio_250_L_4_R_16.png","xmouse":[812,812,812,812,812,812,812,812,812,812,812,812,812,812,812,812,812,810,808,808,804,804,808,838,873,912,956,1007,1102,1134,1171,1192,1208,1230,1234,1235,1235,1235,1234,1229,1190,1154],"ymouse":[510,510,510,510,510,510,510,510,510,510,510,510,510,510,510,510,510,510,510,509,484,465,441,353,308,262,211,171,135,124,108,97,88,76,74,73,73,73,71,69,69,76],"timestamp_mouse":[15,26,62,65,86,107,125,147,167,185,207,227,247,266,285,311,326,346,366,386,405,427,446,466,488,506,526,547,566,590,609,627,646,666,685,705,727,746,765,787,805,827],"xSR":741.5,"ySR":469.95,"xT1":424.9,"yT1":0,"xT2":1058.1,"yT2":0,"toosoon":0,"cond_shown":"randomdotsizeEA","ratio_trial":250,"smaller_num":"4","larger_num":"16","correct_side":2,"subjID":"JuanPabloSepulvedaCastro30","gender":"0","age":"11","school":"6"},{"start_time":1551900721226,"click_time":1551900722084,"finger_time":1551900721744,"fix_duration":1314.8054367057964,"trial":46,"RT":518,"MT":340,"sideResp":1,"stimulus":"img/900/equaldotanddens/R/9_Ratio_900_L_18_R_20.png","xmouse":[768,768,768,768,768,768,768,768,768,768,768,768,768,768,768,768,768,768,768,768,768,768,768,769,768,756,746,738,731,715,701,681,648,631,618,603,596,589,586,582,571,557,475],"ymouse":[505,505,505,505,505,505,505,505,505,505,505,505,505,505,505,505,505,505,505,505,505,505,505,502,495,467,451,438,425,401,383,364,337,318,299,268,256,246,240,232,211,190,46],"timestamp_mouse":[11,19,75,78,98,118,138,158,178,199,218,238,258,278,300,318,340,359,378,398,419,438,458,479,498,518,546,570,585,606,623,639,659,678,699,719,738,758,779,798,818,839,858],"xSR":741.5,"ySR":469.95,"xT1":424.9,"yT1":0,"xT2":1058.1,"yT2":0,"toosoon":0,"cond_shown":"equaldotanddens","ratio_trial":900,"smaller_num":"18","larger_num":"20","correct_side":2,"subjID":"JuanPabloSepulvedaCastro30","gender":"0","age":"11","school":"6"},{"start_time":1551900723562,"click_time":1551900724724,"finger_time":1551900723945,"fix_duration":716.1233671210261,"trial":47,"RT":383,"MT":779,"sideResp":1,"stimulus":"img/500/equaldotanddens/L/5_Ratio_500_L_4_R_2.png","xmouse":[755,755,755,755,755,755,755,755,755,755,755,755,755,755,755,755,755,759,768,784,793,805,821,838,867,881,893,911,916,917,917,917,917,917,917,917,917,915,901,851,825,779,759,713,585,539,512,511,511,511,510,508,505,505,504,504,505,505,507],"ymouse":[501,501,501,501,501,501,501,501,501,501,501,501,501,501,501,501,501,494,481,450,431,409,383,361,320,296,275,249,244,243,242,242,242,242,242,242,242,241,244,249,249,238,231,211,148,128,115,115,115,115,114,112,108,107,107,105,103,100,97],"timestamp_mouse":[16,24,53,62,83,103,122,143,163,182,202,222,242,263,282,313,322,342,363,383,410,429,443,464,482,502,523,542,562,584,602,622,642,662,684,704,722,742,763,782,807,827,842,862,882,903,923,944,962,982,1002,1023,1042,1065,1082,1102,1123,1142,1162],"xSR":741.5,"ySR":469.95,"xT1":424.9,"yT1":0,"xT2":1058.1,"yT2":0,"toosoon":0,"cond_shown":"equaldotanddens","ratio_trial":500,"smaller_num":"2","larger_num":"4","correct_side":1,"subjID":"JuanPabloSepulvedaCastro30","gender":"0","age":"11","school":"6"},{"start_time":1551900725759,"click_time":1551900726493,"finger_time":1551900726349,"fix_duration":512.0912435555367,"trial":48,"RT":590,"MT":144,"sideResp":2,"stimulus":"img/250/equaldotanddens/R/6_Ratio_250_L_6_R_24.png","xmouse":[830,830,830,830,830,830,830,830,830,830,830,830,830,830,830,830,830,830,830,830,829,829,829,829,829,831,892,905,929,958,988,1034,1062,1100],"ymouse":[508,508,508,508,508,508,508,508,508,508,508,508,508,508,508,508,508,508,508,508,507,507,507,507,500,493,392,373,337,296,250,177,144,98],"timestamp_mouse":[17,52,66,86,106,126,145,165,186,205,226,246,266,286,312,325,345,366,386,405,426,445,465,486,506,525,590,605,626,646,667,685,712,734],"xSR":741.5,"ySR":469.95,"xT1":424.9,"yT1":0,"xT2":1058.1,"yT2":0,"toosoon":0,"cond_shown":"equaldotanddens","ratio_trial":250,"smaller_num":"6","larger_num":"24","correct_side":2,"subjID":"JuanPabloSepulvedaCastro30","gender":"0","age":"11","school":"6"},{"start_time":1551900728456,"click_time":1551900729364,"finger_time":1551900729044,"fix_duration":928.1737268180664,"trial":49,"RT":588,"MT":320,"sideResp":1,"stimulus":"img/900/randomdotsizeEA/L/4_Ratio_900_L_20_R_18.png","xmouse":[745,745,745,745,745,745,745,745,745,745,745,745,745,745,745,745,745,745,745,745,745,745,745,745,745,745,745,745,745,732,714,683,654,637,599,583,578,570,565,564,563,561,554,543,526,494],"ymouse":[497,497,497,497,497,497,497,497,497,497,497,497,497,497,497,497,497,497,497,497,497,497,497,497,497,497,497,497,496,471,446,394,351,324,239,211,201,191,186,184,183,174,156,133,102,63],"timestamp_mouse":[15,28,60,69,89,108,129,148,168,189,208,228,249,268,288,311,328,349,368,388,408,428,448,468,488,509,529,549,568,588,616,640,651,670,688,709,728,750,770,788,808,829,849,869,888,908],"xSR":741.5,"ySR":469.95,"xT1":424.9,"yT1":0,"xT2":1058.1,"yT2":0,"toosoon":0,"cond_shown":"randomdotsizeEA","ratio_trial":900,"smaller_num":"18","larger_num":"20","correct_side":1,"subjID":"JuanPabloSepulvedaCastro30","gender":"0","age":"11","school":"6"},{"start_time":1551900732622,"click_time":1551900733644,"finger_time":1551900733345,"fix_duration":1148.5555097284828,"trial":50,"RT":723,"MT":299,"sideResp":2,"stimulus":"img/500/equaldotanddens/R/1_Ratio_500_L_9_R_18.png","xmouse":[833,833,833,833,833,833,833,833,833,833,833,833,833,833,833,833,833,833,833,833,833,833,833,833,833,833,833,833,833,833,833,833,833,833,833,833,856,879,913,945,972,1012,1024,1030,1032,1032,1032,1032,1036,1039,1046,1073],"ymouse":[521,521,521,521,521,521,521,521,521,521,521,521,521,521,521,521,521,521,521,521,521,521,521,521,521,521,521,521,521,521,521,521,521,521,521,521,438,379,314,243,198,132,115,105,104,103,103,103,99,96,89,68],"timestamp_mouse":[16,22,59,62,83,103,122,143,162,182,203,222,243,262,283,310,323,343,363,382,403,423,442,463,482,503,522,543,563,583,602,622,643,663,682,703,723,750,769,782,802,823,844,862,883,903,923,942,962,982,1002,1022],"xSR":741.5,"ySR":469.95,"xT1":424.9,"yT1":0,"xT2":1058.1,"yT2":0,"toosoon":0,"cond_shown":"equaldotanddens","ratio_trial":500,"smaller_num":"9","larger_num":"18","correct_side":2,"subjID":"JuanPabloSepulvedaCastro30","gender":"0","age":"11","school":"6"},{"start_time":1551900735745,"click_time":1551900736424,"finger_time":1551900736265,"fix_duration":1339.2975142028858,"trial":51,"RT":520,"MT":159,"sideResp":2,"stimulus":"img/500/randomdotsizeEA/R/12_Ratio_500_L_1_R_2.png","xmouse":[789,789,789,789,789,789,789,789,789,789,789,789,789,789,789,789,789,789,789,789,789,789,789,789,808,822,870,913,974,999,1023,1042,1060],"ymouse":[486,486,486,486,486,486,486,486,486,486,486,486,486,486,486,486,486,486,486,486,486,486,486,486,448,428,364,302,183,138,112,93,79],"timestamp_mouse":[20,66,80,99,119,140,160,180,199,220,240,260,280,299,320,340,359,380,399,420,439,459,479,499,520,543,561,579,599,622,640,660,679],"xSR":741.5,"ySR":469.95,"xT1":424.9,"yT1":0,"xT2":1058.1,"yT2":0,"toosoon":0,"cond_shown":"randomdotsizeEA","ratio_trial":500,"smaller_num":"1","larger_num":"2","correct_side":2,"subjID":"JuanPabloSepulvedaCastro30","gender":"0","age":"11","school":"6"},{"start_time":1551900739935,"click_time":1551900740624,"finger_time":1551900740444,"fix_duration":1384.970955376266,"trial":52,"RT":509,"MT":180,"sideResp":2,"stimulus":"img/750/equaldotsize/L/13_Ratio_750_L_8_R_6.png","xmouse":[786,786,786,786,786,786,786,786,786,786,786,786,786,786,786,786,786,786,786,786,786,786,801,812,835,924,956,995,1015,1055,1055,1107,1133,1151,1157],"ymouse":[526,526,526,526,526,526,526,526,526,526,526,526,526,526,526,526,526,526,526,526,526,526,510,498,483,418,390,348,322,265,265,170,134,107,94],"timestamp_mouse":[15,29,66,70,89,110,129,149,169,190,211,230,249,270,290,311,330,349,371,390,409,429,450,470,490,509,537,558,571,601,610,630,650,670,689],"xSR":741.5,"ySR":469.95,"xT1":424.9,"yT1":0,"xT2":1058.1,"yT2":0,"toosoon":0,"cond_shown":"equaldotsize","ratio_trial":750,"smaller_num":"6","larger_num":"8","correct_side":1,"subjID":"JuanPabloSepulvedaCastro30","gender":"0","age":"11","school":"6"},{"start_time":1551900742668,"click_time":1551900743324,"finger_time":1551900743225,"fix_duration":1321.2366595237195,"trial":53,"RT":557,"MT":99,"sideResp":1,"stimulus":"img/750/equaldotsize/L/13_Ratio_750_L_8_R_6.png","xmouse":[808,808,808,808,808,808,808,808,808,808,808,808,808,808,808,808,808,808,808,808,808,808,808,808,806,801,786,743,695,617,587,501,458],"ymouse":[487,487,487,487,487,487,487,487,487,487,487,487,487,487,487,487,487,487,487,487,487,487,487,487,488,484,474,427,384,309,270,140,80],"timestamp_mouse":[31,36,57,77,97,117,136,156,177,196,217,237,257,276,296,317,337,357,376,396,417,436,457,476,496,516,537,557,577,596,617,636,656],"xSR":741.5,"ySR":469.95,"xT1":424.9,"yT1":0,"xT2":1058.1,"yT2":0,"toosoon":0,"cond_shown":"equaldotsize","ratio_trial":750,"smaller_num":"6","larger_num":"8","correct_side":1,"subjID":"JuanPabloSepulvedaCastro30","gender":"0","age":"11","school":"6"},{"start_time":1551900744437,"click_time":1551900745144,"finger_time":1551900745045,"fix_duration":250,"trial":54,"RT":608,"MT":99,"sideResp":2,"stimulus":"img/900/randomdotsizeEA/R/6_Ratio_900_L_9_R_10.png","xmouse":[805,805,805,805,805,805,805,805,805,805,805,805,805,805,805,805,805,805,805,805,805,805,805,805,805,805,805,805,808,843,881,964,1012,1054,1092],"ymouse":[497,497,497,497,497,497,497,497,497,497,497,497,497,497,497,497,497,497,497,497,497,497,497,497,497,497,497,497,497,415,348,226,167,123,90],"timestamp_mouse":[18,59,68,87,108,127,147,168,188,207,227,247,268,288,310,329,348,368,387,408,427,447,467,487,508,528,547,567,588,608,635,656,667,688,707],"xSR":741.5,"ySR":469.95,"xT1":424.9,"yT1":0,"xT2":1058.1,"yT2":0,"toosoon":0,"cond_shown":"randomdotsizeEA","ratio_trial":900,"smaller_num":"9","larger_num":"10","correct_side":2,"subjID":"JuanPabloSepulvedaCastro30","gender":"0","age":"11","school":"6"},{"start_time":1551900746864,"click_time":1551900747724,"finger_time":1551900747405,"fix_duration":837.7372780830577,"trial":55,"RT":541,"MT":319,"sideResp":1,"stimulus":"img/250/equaldotanddens/L/15_Ratio_250_L_12_R_3.png","xmouse":[804,804,804,804,804,804,804,804,804,804,804,804,804,804,804,804,804,804,811,813,815,815,815,815,815,812,801,780,670,589,482,441,429,428,428,428,428,428,428,428,428,430,432],"ymouse":[502,502,502,502,502,502,502,502,502,502,502,502,502,502,502,502,502,502,490,484,480,480,480,480,478,474,466,450,370,301,188,142,124,120,119,119,119,119,116,114,111,104,99],"timestamp_mouse":[16,57,61,81,100,121,140,160,180,201,220,240,260,281,312,321,341,360,380,400,421,440,460,482,500,520,541,560,582,605,623,641,660,680,700,720,740,760,780,801,821,841,860],"xSR":741.5,"ySR":469.95,"xT1":424.9,"yT1":0,"xT2":1058.1,"yT2":0,"toosoon":0,"cond_shown":"equaldotanddens","ratio_trial":250,"smaller_num":"3","larger_num":"12","correct_side":1,"subjID":"JuanPabloSepulvedaCastro30","gender":"0","age":"11","school":"6"},{"start_time":1551900748717,"click_time":1551900749666,"finger_time":1551900749265,"fix_duration":250,"trial":56,"RT":548,"MT":401,"sideResp":2,"stimulus":"img/250/equaldotsize/R/4_Ratio_250_L_3_R_12.png","xmouse":[766,766,766,766,766,766,766,766,766,766,766,766,766,766,766,766,767,767,767,767,767,767,767,768,768,768,769,792,815,883,927,1014,1034,1048,1062,1066,1067,1067,1067,1067,1067,1067,1067,1067,1067,1067,1068,1078],"ymouse":[490,490,490,490,490,490,490,490,490,490,490,490,490,490,490,490,492,492,492,492,492,492,492,492,492,492,493,463,431,349,291,213,187,163,130,118,117,117,117,117,117,117,117,117,117,117,115,98],"timestamp_mouse":[16,47,47,68,87,108,127,147,167,187,207,228,248,268,288,311,327,348,368,388,408,428,448,469,488,508,527,548,571,596,607,628,647,667,688,707,728,747,767,788,807,828,848,867,888,908,927,949],"xSR":741.5,"ySR":469.95,"xT1":424.9,"yT1":0,"xT2":1058.1,"yT2":0,"toosoon":0,"cond_shown":"equaldotsize","ratio_trial":250,"smaller_num":"3","larger_num":"12","correct_side":2,"subjID":"JuanPabloSepulvedaCastro30","gender":"0","age":"11","school":"6"},{"start_time":1551900751549,"click_time":1551900752544,"finger_time":1551900752185,"fix_duration":1383.6667742659001,"trial":57,"RT":636,"MT":359,"sideResp":1,"stimulus":"img/750/equaldotsize/R/2_Ratio_750_L_6_R_8.png","xmouse":[803,803,803,803,803,803,803,803,803,803,803,803,803,803,803,803,803,803,803,803,803,803,802,801,799,798,796,796,794,787,778,739,681,580,446,423,385,380,380,380,380,381,382,382,387,389,391,393,397,431],"ymouse":[514,514,514,514,514,514,514,514,514,514,514,514,514,514,514,514,514,514,514,514,514,514,514,514,513,512,512,511,510,504,497,447,389,284,143,112,49,31,23,21,19,19,19,19,19,20,20,22,24,42],"timestamp_mouse":[18,46,56,77,95,115,136,156,175,196,215,236,256,276,295,315,336,355,377,396,415,435,455,475,495,516,535,555,576,597,616,636,655,677,695,717,737,756,775,796,815,835,855,875,895,916,936,956,975,995],"xSR":741.5,"ySR":469.95,"xT1":424.9,"yT1":0,"xT2":1058.1,"yT2":0,"toosoon":0,"cond_shown":"equaldotsize","ratio_trial":750,"smaller_num":"6","larger_num":"8","correct_side":2,"subjID":"JuanPabloSepulvedaCastro30","gender":"0","age":"11","school":"6"},{"start_time":1551900754339,"click_time":1551900755285,"finger_time":1551900754965,"fix_duration":573.9939121782413,"trial":58,"RT":626,"MT":320,"sideResp":1,"stimulus":"img/250/equaldotsize/L/7_Ratio_250_L_8_R_2.png","xmouse":[776,776,776,776,776,776,776,776,776,776,776,776,776,776,776,776,776,776,776,776,776,776,776,776,776,776,776,776,775,771,748,728,704,686,672,631,631,624,621,616,610,605,595,567,551,528,525,524],"ymouse":[513,513,513,513,513,513,513,513,513,513,513,513,513,513,513,513,513,513,513,513,513,513,513,513,513,513,513,512,511,509,475,450,423,400,377,302,302,280,274,258,233,211,178,118,89,51,45,43],"timestamp_mouse":[15,25,57,65,86,105,125,146,166,186,205,226,247,266,285,313,326,345,365,386,405,425,447,467,485,506,526,545,566,587,606,626,650,670,688,718,725,745,765,785,805,825,847,866,885,905,927,945],"xSR":741.5,"ySR":469.95,"xT1":424.9,"yT1":0,"xT2":1058.1,"yT2":0,"toosoon":0,"cond_shown":"equaldotsize","ratio_trial":250,"smaller_num":"2","larger_num":"8","correct_side":1,"subjID":"JuanPabloSepulvedaCastro30","gender":"0","age":"11","school":"6"},{"start_time":1551900756978,"click_time":1551900757764,"finger_time":1551900757545,"fix_duration":652.1336827112119,"trial":59,"RT":567,"MT":219,"sideResp":2,"stimulus":"img/900/equaldotsize/R/9_Ratio_900_L_18_R_20.png","xmouse":[774,774,774,774,774,774,774,774,774,774,774,774,774,774,774,774,774,774,774,774,774,774,774,774,774,774,777,783,808,826,855,892,923,990,1006,1028,1039,1050,1070,1083],"ymouse":[492,492,492,492,492,492,492,492,492,492,492,492,492,492,492,492,492,492,492,492,492,492,492,492,492,492,488,481,450,428,403,364,311,210,187,158,145,134,107,89],"timestamp_mouse":[15,27,62,66,86,106,126,148,167,187,207,228,248,268,287,311,327,346,368,387,408,428,448,467,486,506,527,547,567,592,617,628,646,666,686,706,726,746,766,786],"xSR":741.5,"ySR":469.95,"xT1":424.9,"yT1":0,"xT2":1058.1,"yT2":0,"toosoon":0,"cond_shown":"equaldotsize","ratio_trial":900,"smaller_num":"18","larger_num":"20","correct_side":2,"subjID":"JuanPabloSepulvedaCastro30","gender":"0","age":"11","school":"6"},{"start_time":1551900759545,"click_time":1551900760146,"finger_time":1551900760104,"fix_duration":1058.7021816174922,"trial":60,"RT":559,"MT":42,"sideResp":1,"stimulus":"img/900/equaldotanddens/L/2_Ratio_900_L_20_R_18.png","xmouse":[781,781,781,781,781,781,781,781,781,781,781,781,781,781,781,781,781,781,781,781,781,781,781,781,781,781,766,649,547,430],"ymouse":[502,502,502,502,502,502,502,502,502,502,502,502,502,502,502,502,502,502,502,502,502,502,502,502,502,500,477,329,198,44],"timestamp_mouse":[10,47,60,80,99,120,140,161,179,200,219,239,260,280,311,319,340,359,381,400,419,440,461,481,500,520,540,559,580,600],"xSR":741.5,"ySR":469.95,"xT1":424.9,"yT1":0,"xT2":1058.1,"yT2":0,"toosoon":0,"cond_shown":"equaldotanddens","ratio_trial":900,"smaller_num":"18","larger_num":"20","correct_side":1,"subjID":"JuanPabloSepulvedaCastro30","gender":"0","age":"11","school":"6"},{"start_time":1551900761909,"click_time":1551900762765,"finger_time":1551900762445,"fix_duration":1103.9241679355132,"trial":61,"RT":536,"MT":320,"sideResp":1,"stimulus":"img/500/equaldotanddens/L/10_Ratio_500_L_4_R_2.png","xmouse":[815,815,815,815,815,815,815,815,815,815,815,815,815,815,815,815,815,815,816,816,816,816,816,816,809,799,693,652,601,589,583,581,580,576,574,573,567,560,553,546,530,518,498],"ymouse":[497,497,497,497,497,497,497,497,497,497,497,497,497,497,497,497,497,497,498,498,498,498,498,498,493,485,432,411,369,340,323,259,243,227,220,217,194,180,167,157,132,118,92],"timestamp_mouse":[17,50,55,76,95,116,136,155,175,196,216,235,256,277,296,315,335,356,376,395,416,436,456,476,495,515,536,562,584,595,616,637,655,675,695,715,735,756,776,795,816,836,856],"xSR":741.5,"ySR":469.95,"xT1":424.9,"yT1":0,"xT2":1058.1,"yT2":0,"toosoon":0,"cond_shown":"equaldotanddens","ratio_trial":500,"smaller_num":"2","larger_num":"4","correct_side":1,"subjID":"JuanPabloSepulvedaCastro30","gender":"0","age":"11","school":"6"},{"start_time":1551900764313,"click_time":1551900765184,"finger_time":1551900764944,"fix_duration":987.8709243956296,"trial":62,"RT":631,"MT":240,"sideResp":2,"stimulus":"img/750/randomdotsizeEA/R/11_Ratio_750_L_12_R_16.png","xmouse":[766,766,766,766,766,766,766,766,766,766,766,766,766,766,766,766,766,766,766,766,766,766,766,766,766,766,766,766,774,787,816,914,948,984,1026,1067,1104,1113,1119,1122,1122,1122,1122,1125],"ymouse":[549,549,549,549,549,549,549,549,549,549,549,549,549,549,549,549,549,549,549,549,549,549,549,549,549,549,549,549,546,523,479,352,311,271,220,178,125,113,105,100,100,100,100,93],"timestamp_mouse":[15,33,54,71,91,112,132,153,172,191,211,232,251,272,291,312,332,352,371,392,411,431,451,472,492,511,531,552,572,592,611,631,659,673,692,711,731,751,771,791,811,833,851,871],"xSR":741.5,"ySR":469.95,"xT1":424.9,"yT1":0,"xT2":1058.1,"yT2":0,"toosoon":0,"cond_shown":"randomdotsizeEA","ratio_trial":750,"smaller_num":"12","larger_num":"16","correct_side":2,"subjID":"JuanPabloSepulvedaCastro30","gender":"0","age":"11","school":"6"},{"start_time":1551900767433,"click_time":1551900769584,"finger_time":1551900768025,"fix_duration":1387.1680444039728,"trial":63,"RT":592,"MT":1559,"sideResp":2,"stimulus":"img/750/equaldotanddens/L/9_Ratio_750_L_4_R_3.png","xmouse":[765,765,765,765,765,765,765,765,765,765,765,765,765,765,765,765,765,765,765,765,765,765,765,765,765,765,769,778,784,791,799,800,801,801,801,804,814,829,848,903,934,965,983,1006,1042,1049,1053,1056,1060,1060,1060,1060,1060,1060,1060,1060,1060,1060,1060,1060,1060,1060,1060,1060,1060,1060,1060,1060,1060,1060,1060,1060,1060,1060,1060,1060,1060,1060,1060,1060,1060,1060,1060,1060,1060,1060,1060,1060,1060,1060,1060,1060,1060,1060,1060,1060,1060,1060,1060,1060,1060,1060,1060,1060,1060,1060,1063],"ymouse":[544,544,544,544,544,544,544,544,544,544,544,544,544,544,544,544,544,544,544,544,544,544,544,544,544,544,518,483,465,442,408,398,395,395,393,381,363,337,302,205,163,121,92,65,17,10,7,4,0,0,0,0,0,0,0,0,0,0,0,0,0,0,0,0,0,0,0,0,0,0,0,0,0,0,0,0,0,0,0,0,0,0,0,0,0,0,0,0,0,0,0,0,0,0,0,0,0,0,0,0,0,0,0,0,0,0,1],"timestamp_mouse":[14,69,71,91,112,131,152,172,191,212,232,252,271,291,312,332,351,371,391,411,431,451,471,491,511,532,552,571,592,611,631,652,671,692,711,731,752,772,791,811,831,851,871,891,912,932,952,972,992,1011,1032,1052,1071,1092,1111,1131,1151,1171,1192,1211,1232,1252,1272,1291,1313,1332,1352,1371,1392,1411,1431,1453,1471,1491,1511,1531,1551,1571,1592,1611,1631,1651,1672,1692,1711,1731,1751,1771,1792,1811,1832,1851,1871,1892,1911,1932,1952,1972,1992,2013,2031,2052,2072,2093,2112,2131,2151],"xSR":741.5,"ySR":469.95,"xT1":424.9,"yT1":0,"xT2":1058.1,"yT2":0,"toosoon":0,"cond_shown":"equaldotanddens","ratio_trial":750,"smaller_num":"3","larger_num":"4","correct_side":1,"subjID":"JuanPabloSepulvedaCastro30","gender":"0","age":"11","school":"6"},{"start_time":1551900772053,"click_time":1551900772848,"finger_time":1551900772745,"fix_duration":1446.169262959678,"trial":64,"RT":692,"MT":103,"sideResp":1,"stimulus":"img/900/randomdotsizeEA/R/3_Ratio_900_L_9_R_10.png","xmouse":[829,829,829,829,829,829,829,829,829,829,829,829,829,829,829,829,829,829,829,829,829,829,829,829,829,829,829,829,829,829,824,815,797,773,698,644,581,542,515,508],"ymouse":[557,557,557,557,557,557,557,557,557,557,557,557,557,557,557,557,557,557,557,557,557,557,557,557,557,557,557,557,557,557,557,548,517,483,385,291,192,137,104,94],"timestamp_mouse":[15,31,59,71,91,112,132,152,172,191,212,232,253,272,293,312,331,352,372,392,411,431,451,471,491,512,532,551,571,591,612,633,651,671,692,717,735,752,777,795],"xSR":741.5,"ySR":469.95,"xT1":424.9,"yT1":0,"xT2":1058.1,"yT2":0,"toosoon":0,"cond_shown":"randomdotsizeEA","ratio_trial":900,"smaller_num":"9","larger_num":"10","correct_side":2,"subjID":"JuanPabloSepulvedaCastro30","gender":"0","age":"11","school":"6"},{"start_time":1551900774375,"click_time":1551900775265,"finger_time":1551900775025,"fix_duration":508.7103187681272,"trial":65,"RT":650,"MT":240,"sideResp":1,"stimulus":"img/250/randomdotsizeEA/L/3_Ratio_250_L_8_R_2.png","xmouse":[820,820,820,820,820,820,820,820,820,820,820,820,820,820,820,820,820,820,820,820,820,820,820,820,820,820,820,820,820,820,817,796,769,696,628,628,527,476,472,472,472,466,453,442],"ymouse":[476,476,476,476,476,476,476,476,476,476,476,476,476,476,476,476,476,476,476,476,476,476,476,476,476,476,476,476,476,476,474,456,426,342,275,275,181,142,140,140,140,132,115,98],"timestamp_mouse":[15,50,69,90,110,130,150,169,190,209,229,250,271,290,313,329,350,370,389,409,430,449,469,489,510,530,549,569,589,609,629,650,679,704,718,729,749,769,790,809,829,850,871,890],"xSR":741.5,"ySR":469.95,"xT1":424.9,"yT1":0,"xT2":1058.1,"yT2":0,"toosoon":0,"cond_shown":"randomdotsizeEA","ratio_trial":250,"smaller_num":"2","larger_num":"8","correct_side":1,"subjID":"JuanPabloSepulvedaCastro30","gender":"0","age":"11","school":"6"},{"start_time":1551900776562,"click_time":1551900777325,"finger_time":1551900777145,"fix_duration":555.9566609254609,"trial":66,"RT":583,"MT":180,"sideResp":2,"stimulus":"img/500/randomdotsizeEA/R/1_Ratio_500_L_9_R_18.png","xmouse":[824,824,824,824,824,824,824,824,824,824,824,824,824,824,824,824,824,824,824,824,824,824,824,824,824,824,824,824,827,843,861,888,916,939,988,1017,1042,1063,1096],"ymouse":[562,562,562,562,562,562,562,562,562,562,562,562,562,562,562,562,562,562,562,562,562,562,562,562,562,562,562,556,531,495,463,425,386,355,288,249,211,167,67],"timestamp_mouse":[16,22,55,63,82,102,122,142,162,182,203,224,243,262,282,311,322,343,363,382,402,423,442,462,483,503,522,543,563,583,608,629,642,662,684,702,722,742,763],"xSR":741.5,"ySR":469.95,"xT1":424.9,"yT1":0,"xT2":1058.1,"yT2":0,"toosoon":0,"cond_shown":"randomdotsizeEA","ratio_trial":500,"smaller_num":"9","larger_num":"18","correct_side":2,"subjID":"JuanPabloSepulvedaCastro30","gender":"0","age":"11","school":"6"},{"start_time":1551900778982,"click_time":1551900779686,"finger_time":1551900779565,"fix_duration":1054.9377921663215,"trial":67,"RT":583,"MT":121,"sideResp":1,"stimulus":"img/750/equaldotsize/R/4_Ratio_750_L_15_R_20.png","xmouse":[838,838,838,838,838,838,838,838,838,838,838,838,838,838,838,838,838,838,838,838,838,838,838,834,831,828,815,805,794,782,752,703,559,510,475],"ymouse":[538,538,538,538,538,538,538,538,538,538,538,538,538,538,538,538,538,538,538,538,538,538,538,533,528,521,501,482,462,442,402,339,159,116,85],"timestamp_mouse":[15,23,71,83,103,124,142,163,184,203,222,242,263,283,311,323,344,362,382,403,424,442,463,483,503,522,543,563,583,604,627,643,663,683,703],"xSR":741.5,"ySR":469.95,"xT1":424.9,"yT1":0,"xT2":1058.1,"yT2":0,"toosoon":0,"cond_shown":"equaldotsize","ratio_trial":750,"smaller_num":"15","larger_num":"20","correct_side":2,"subjID":"JuanPabloSepulvedaCastro30","gender":"0","age":"11","school":"6"},{"start_time":1551900781495,"click_time":1551900782085,"finger_time":1551900781885,"fix_duration":649.1560070786393,"trial":68,"RT":390,"MT":200,"sideResp":2,"stimulus":"img/250/equaldotsize/R/6_Ratio_250_L_6_R_24.png","xmouse":[762,762,762,762,762,762,762,762,762,762,762,762,762,762,762,762,762,762,764,771,793,839,873,919,966,1005,1042,1053,1061],"ymouse":[479,479,479,479,479,479,479,479,479,479,479,479,479,479,479,479,479,471,452,433,388,287,229,161,104,61,24,14,6],"timestamp_mouse":[18,52,70,90,110,131,150,171,191,209,229,250,270,289,313,330,350,371,390,410,433,449,472,491,509,530,550,571,590],"xSR":741.5,"ySR":469.95,"xT1":424.9,"yT1":0,"xT2":1058.1,"yT2":0,"toosoon":0,"cond_shown":"equaldotsize","ratio_trial":250,"smaller_num":"6","larger_num":"24","correct_side":2,"subjID":"JuanPabloSepulvedaCastro30","gender":"0","age":"11","school":"6"},{"start_time":1551900783787,"click_time":1551900785225,"finger_time":1551900784406,"fix_duration":1059.7590977188725,"trial":69,"RT":619,"MT":819,"sideResp":1,"stimulus":"img/900/randomdotsizeEA/L/1_Ratio_900_L_10_R_9.png","xmouse":[757,757,757,757,757,757,757,757,757,757,757,757,757,757,757,757,757,757,757,757,757,757,757,757,757,757,757,756,751,746,739,732,715,707,697,684,674,642,635,628,622,613,602,597,592,587,577,559,557,551,543,516,504,503,503,503,503,503,503,503,503,503,503,503,503,503,503,503,503,503,502,501],"ymouse":[507,507,507,507,507,507,507,507,507,507,507,507,507,507,507,507,507,507,507,507,507,507,507,507,507,507,507,507,506,500,486,474,443,426,407,378,358,301,288,275,261,242,222,213,203,192,177,153,148,141,129,109,102,101,101,101,101,101,101,101,101,101,101,101,101,101,101,101,101,101,100,99],"timestamp_mouse":[19,49,57,77,99,118,138,158,177,197,217,237,259,279,298,318,337,359,379,398,418,439,457,477,497,517,537,559,578,598,619,639,658,680,698,718,738,758,778,798,818,837,857,878,898,918,938,957,978,998,1018,1038,1060,1078,1098,1118,1137,1157,1177,1198,1217,1238,1258,1278,1298,1319,1338,1359,1378,1398,1419,1438],"xSR":741.5,"ySR":469.95,"xT1":424.9,"yT1":0,"xT2":1058.1,"yT2":0,"toosoon":0,"cond_shown":"randomdotsizeEA","ratio_trial":900,"smaller_num":"9","larger_num":"10","correct_side":1,"subjID":"JuanPabloSepulvedaCastro30","gender":"0","age":"11","school":"6"},{"start_time":1551900786421,"click_time":1551900787244,"finger_time":1551900786965,"fix_duration":335.7733884018812,"trial":70,"RT":544,"MT":279,"sideResp":2,"stimulus":"img/900/equaldotsize/R/9_Ratio_900_L_18_R_20.png","xmouse":[758,758,758,758,758,758,758,758,758,758,758,758,758,758,758,758,758,758,758,758,758,758,758,758,758,760,776,799,834,865,945,977,1006,1026,1045,1048,1051,1054,1058,1061,1071],"ymouse":[481,481,481,481,481,481,481,481,481,481,481,481,481,481,481,481,481,481,481,481,481,481,481,481,481,481,462,439,410,373,268,224,182,150,126,122,118,113,109,106,98],"timestamp_mouse":[19,51,63,83,104,123,145,164,185,203,225,244,264,285,314,323,344,364,384,404,424,444,465,484,503,523,544,566,584,603,624,643,663,683,703,724,744,764,784,804,823],"xSR":741.5,"ySR":469.95,"xT1":424.9,"yT1":0,"xT2":1058.1,"yT2":0,"toosoon":0,"cond_shown":"equaldotsize","ratio_trial":900,"smaller_num":"18","larger_num":"20","correct_side":2,"subjID":"JuanPabloSepulvedaCastro30","gender":"0","age":"11","school":"6"},{"start_time":1551900788176,"click_time":1551900788925,"finger_time":1551900788786,"fix_duration":250,"trial":71,"RT":610,"MT":139,"sideResp":2,"stimulus":"img/900/equaldotanddens/R/12_Ratio_900_L_18_R_20.png","xmouse":[775,775,775,775,775,775,775,775,775,775,775,775,775,775,775,775,775,775,775,775,775,775,775,775,775,775,775,775,786,812,846,885,940,1001,1026,1048,1067],"ymouse":[547,547,547,547,547,547,547,547,547,547,547,547,547,547,547,547,547,547,547,547,547,547,547,547,547,547,547,547,518,466,410,343,271,179,141,110,87],"timestamp_mouse":[15,28,78,88,109,130,148,169,188,210,229,250,268,289,313,329,349,370,388,409,429,450,468,489,509,530,550,570,589,610,629,651,669,688,709,729,749],"xSR":741.5,"ySR":469.95,"xT1":424.9,"yT1":0,"xT2":1058.1,"yT2":0,"toosoon":0,"cond_shown":"equaldotanddens","ratio_trial":900,"smaller_num":"18","larger_num":"20","correct_side":2,"subjID":"JuanPabloSepulvedaCastro30","gender":"0","age":"11","school":"6"},{"start_time":1551900790676,"click_time":1551900791685,"finger_time":1551900791285,"fix_duration":808.4701189321861,"trial":72,"RT":609,"MT":400,"sideResp":2,"stimulus":"img/750/equaldotsize/R/5_Ratio_750_L_15_R_20.png","xmouse":[767,767,767,767,767,767,767,767,767,767,767,767,767,767,767,767,767,767,767,768,769,772,772,772,772,772,773,773,789,817,869,991,1086,1133,1163,1180,1197,1202,1206,1209,1211,1212,1212,1212,1212,1212,1210,1196,1169,1137],"ymouse":[497,497,497,497,497,497,497,497,497,497,497,497,497,497,497,497,497,497,499,501,502,506,506,506,506,506,507,507,494,460,415,287,189,131,103,87,61,52,45,40,36,35,35,35,35,34,32,31,46,63],"timestamp_mouse":[17,61,69,89,108,129,150,169,189,210,229,250,269,290,311,329,348,368,389,409,429,449,468,488,508,529,549,569,590,609,628,649,670,688,708,730,748,771,789,808,828,848,868,889,909,929,949,968,989,1009],"xSR":741.5,"ySR":469.95,"xT1":424.9,"yT1":0,"xT2":1058.1,"yT2":0,"toosoon":0,"cond_shown":"equaldotsize","ratio_trial":750,"smaller_num":"15","larger_num":"20","correct_side":2,"subjID":"JuanPabloSepulvedaCastro30","gender":"0","age":"11","school":"6"},{"start_time":1551900793519,"click_time":1551900794445,"finger_time":1551900794145,"fix_duration":971.5048715235098,"trial":73,"RT":626,"MT":300,"sideResp":1,"stimulus":"img/750/randomdotsizeEA/L/13_Ratio_750_L_8_R_6.png","xmouse":[787,787,787,787,787,787,787,787,787,787,787,787,787,787,787,787,787,787,787,787,787,787,787,787,788,796,796,796,796,796,796,796,788,769,769,681,611,601,586,579,570,554,546,541,538,531,514],"ymouse":[486,486,486,486,486,486,486,486,486,486,486,486,486,486,486,486,486,486,486,486,486,486,486,486,486,475,475,474,474,474,474,462,429,395,395,289,238,230,216,209,195,169,154,145,142,126,88],"timestamp_mouse":[16,25,58,65,85,106,127,147,165,186,206,226,246,266,286,312,326,346,365,386,405,425,446,466,491,505,527,546,566,587,605,626,652,670,686,705,726,747,765,786,806,826,845,866,886,906,926],"xSR":741.5,"ySR":469.95,"xT1":424.9,"yT1":0,"xT2":1058.1,"yT2":0,"toosoon":0,"cond_shown":"randomdotsizeEA","ratio_trial":750,"smaller_num":"6","larger_num":"8","correct_side":1,"subjID":"JuanPabloSepulvedaCastro30","gender":"0","age":"11","school":"6"},{"start_time":1551900797423,"click_time":1551900798045,"finger_time":1551900797945,"fix_duration":733.2226662962737,"trial":74,"RT":522,"MT":100,"sideResp":2,"stimulus":"img/250/equaldotanddens/R/8_Ratio_250_L_1_R_4.png","xmouse":[799,799,799,799,799,799,799,799,799,799,799,799,799,799,799,799,799,799,799,799,799,799,799,799,825,843,917,965,1014,1096,1131],"ymouse":[550,550,550,550,550,550,550,550,550,550,550,550,550,550,550,550,550,550,550,550,550,550,550,550,506,469,363,294,231,104,45],"timestamp_mouse":[16,22,64,82,101,122,143,162,182,203,222,243,262,282,312,321,342,363,383,402,421,442,463,483,503,522,546,564,582,602,622],"xSR":741.5,"ySR":469.95,"xT1":424.9,"yT1":0,"xT2":1058.1,"yT2":0,"toosoon":0,"cond_shown":"equaldotanddens","ratio_trial":250,"smaller_num":"1","larger_num":"4","correct_side":2,"subjID":"JuanPabloSepulvedaCastro30","gender":"0","age":"11","school":"6"},{"start_time":1551900799573,"click_time":1551900800585,"finger_time":1551900800085,"fix_duration":786.4952345947935,"trial":75,"RT":512,"MT":500,"sideResp":1,"stimulus":"img/750/equaldotanddens/R/11_Ratio_750_L_12_R_16.png","xmouse":[806,806,806,806,806,806,806,806,806,806,806,806,806,806,806,806,806,806,805,803,801,800,793,781,771,760,750,719,691,677,665,654,633,629,626,626,625,610,604,589,577,564,548,544,541,540,539,538,536,532,524],"ymouse":[511,511,511,511,511,511,511,511,511,511,511,511,511,511,511,511,511,511,511,511,510,510,501,485,470,456,441,388,350,327,305,285,248,240,237,235,233,209,200,173,152,134,114,109,106,105,104,103,101,97,91],"timestamp_mouse":[15,32,57,72,93,111,132,151,173,192,213,233,253,272,292,313,331,352,373,392,412,431,451,472,493,512,532,552,575,593,611,631,652,672,691,711,731,752,772,793,814,832,852,873,892,912,931,952,972,992,1012],"xSR":741.5,"ySR":469.95,"xT1":424.9,"yT1":0,"xT2":1058.1,"yT2":0,"toosoon":0,"cond_shown":"equaldotanddens","ratio_trial":750,"smaller_num":"12","larger_num":"16","correct_side":2,"subjID":"JuanPabloSepulvedaCastro30","gender":"0","age":"11","school":"6"},{"start_time":1551900801922,"click_time":1551900803224,"finger_time":1551900802924,"fix_duration":296.5489245373201,"trial":76,"RT":1002,"MT":300,"sideResp":1,"stimulus":"img/250/equaldotanddens/L/3_Ratio_250_L_8_R_2.png","xmouse":[791,791,791,791,791,791,791,791,791,791,791,791,791,791,791,791,791,791,791,791,791,791,791,791,791,791,791,791,791,791,791,791,791,791,791,791,791,791,791,791,791,791,791,791,791,791,791,791,788,784,7