[{"start_time":1551899777761,"click_time":1551899779766,"finger_time":1551899777770,"fix_duration":250,"trial":0,"RT":9,"MT":1996,"sideResp":2,"stimulus":[],"xmouse":[767,767,767,767,767,767,767,767,767,767,767,767,767,767,767,767,767,767,767,767,767,767,767,767,767,767,784,795,795,795,795,795,796,796,796,796,796,796,796,796,796,798,801,802,802,803,803,803,803,802,802,802,802,802,802,802,802,802,802,802,802,802,802,802,802,802,803,809,813,817,820,822,822,822,821,817,810,811,815,818,822,825,833,842,854,864,882,898,909,919,935,953,986,1005,1018,1031,1048,1053,1055,1057,1059],"ymouse":[493,493,493,493,493,493,493,493,493,493,493,493,493,493,493,493,493,493,493,493,493,493,493,493,493,493,499,504,504,504,504,504,505,505,505,505,505,505,505,505,505,510,517,524,528,534,544,549,556,561,564,566,568,568,568,568,568,568,568,568,568,568,568,568,568,568,569,564,558,553,547,542,536,532,524,513,503,497,491,486,482,476,464,448,427,404,357,311,286,261,235,199,145,118,102,84,66,62,61,59,58],"timestamp_mouse":[9,26,43,63,84,105,124,144,163,184,204,224,244,265,284,304,323,344,365,383,404,425,444,463,485,504,523,543,564,585,605,624,645,664,684,703,725,744,764,784,803,824,843,865,884,905,925,943,964,983,1003,1024,1044,1065,1083,1103,1124,1145,1164,1184,1205,1225,1244,1263,1284,1304,1323,1343,1363,1385,1405,1425,1443,1463,1483,1505,1525,1544,1564,1584,1604,1624,1643,1665,1685,1705,1724,1743,1763,1785,1804,1824,1843,1864,1885,1904,1924,1943,1963,1985,2005],"xSR":741.5,"ySR":449.15000000000003,"xT1":424.9,"yT1":0,"xT2":1058.1,"yT2":0,"toosoon":0,"cond_shown":"Incongruent","ratio_trial":100,"L_num":10,"L_den":25,"R_num":9,"R_den":18,"correct_side":2,"subjID":"Juansantiagotochoy28","gender":"0","age":"11","school":"6","test":{"fix_dur":[250,1500],"timestim":1000,"targets_dim":[100,100],"targets_relative_coord":[0.3,0.7],"size_stim":[880,420],"start_dim":[100,100],"size_start":[300,300],"size_fix":60,"samplingrate":20,"img_types":["Congruent","Incongruent"],"ratios":[100,200,300],"rep_conds":19,"nTrials":120,"trials_to_rest":500,"Trials_order":[115,48,108,4,47,102,61,26,117,76,71,9,10,30,28,103,92,56,36,111,62,16,44,52,86,107,78,23,118,106,5,29,113,43,25,24,11,74,58,41,7,0,87,95,119,66,90,101,110,53,96,33,17,20,109,2,97,15,63,100,73,68,60,70,22,114,39,85,27,3,13,31,93,46,80,45,37,83,42,69,94,59,105,88,98,75,99,67,34,51,38,19,77,32,40,50,72,79,112,84,14,65,64,55,21,104,116,91,35,49,12,81,57,54,1,89,6,18,8,82],"cond_shown":["Incongruent","Congruent","Congruent","Congruent","Incongruent","Congruent","Incongruent","Congruent","Incongruent","Congruent","Incongruent","Incongruent","Congruent","Congruent","Congruent","Incongruent","Congruent","Congruent","Congruent","Incongruent","Congruent","Congruent","Congruent","Congruent","Congruent","Incongruent","Congruent","Incongruent","Congruent","Congruent","Incongruent","Incongruent","Incongruent","Incongruent","Incongruent","Congruent","Incongruent","Congruent","Congruent","Incongruent","Incongruent","Congruent","Incongruent","Incongruent","Incongruent","Congruent","Congruent","Incongruent","Congruent","Incongruent","Congruent","Incongruent","Incongruent","Congruent","Incongruent","Congruent","Incongruent","Incongruent","Incongruent","Congruent","Incongruent","Congruent","Congruent","Congruent","Congruent","Congruent","Incongruent","Incongruent","Incongruent","Incongruent","Incongruent","Incongruent","Incongruent","Congruent","Congruent","Incongruent","Incongruent","Incongruent","Congruent","Incongruent","Congruent","Incongruent","Incongruent","Congruent","Congruent","Incongruent","Incongruent","Incongruent","Congruent","Incongruent","Congruent","Incongruent","Incongruent","Congruent","Congruent","Congruent","Congruent","Incongruent","Congruent","Congruent","Congruent","Incongruent","Congruent","Incongruent","Incongruent","Congruent","Congruent","Incongruent","Incongruent","Incongruent","Congruent","Incongruent","Incongruent","Congruent","Incongruent","Incongruent","Congruent","Congruent","Congruent","Congruent"],"ratio_trial":[100,100,100,300,300,100,100,200,200,300,300,200,300,100,300,100,200,200,100,200,200,300,200,300,200,300,100,300,300,300,300,300,300,100,100,100,300,200,300,300,100,100,200,300,300,100,100,300,200,300,100,200,300,200,100,200,100,200,200,300,100,200,100,300,300,100,200,100,200,200,100,100,200,300,200,200,100,300,100,200,300,300,200,300,200,200,200,100,300,200,200,100,300,200,300,200,100,100,300,100,200,300,300,100,200,200,200,100,300,100,100,200,200,100,100,300,100,100,200,300],"left_num":[10,6,3,8,8,9,6,4,7,1,1,14,20,11,1,12,20,7,3,4,3,3,5,8,11,4,11,7,24,5,1,4,8,9,3,1,1,21,20,13,11,9,1,1,4,11,3,1,9,4,9,1,13,12,13,9,13,3,3,3,8,9,1,1,1,3,3,6,11,9,13,6,7,1,3,11,13,13,4,4,20,13,3,3,4,4,11,8,3,7,14,1,13,3,1,6,1,13,2,6,12,1,5,13,7,12,14,6,2,1,11,14,7,3,13,8,11,7,3,1],"right_num":[9,5,2,10,14,8,7,3,4,3,2,6,5,6,11,9,9,18,4,1,7,4,14,10,3,2,6,8,8,6,2,2,9,6,11,18,3,2,8,12,9,8,2,3,2,4,4,3,4,2,8,2,12,6,12,4,12,1,1,4,1,13,3,7,19,2,11,13,3,8,6,11,12,11,7,3,6,12,6,6,9,12,11,4,3,14,3,1,2,8,6,8,12,14,19,11,18,12,12,5,6,3,7,12,8,6,6,3,6,8,4,6,4,2,12,9,4,9,14,6],"left_den":[25,20,6,15,10,15,10,8,15,5,2,30,25,22,5,24,25,15,20,30,10,6,10,15,22,20,22,10,30,25,2,20,10,18,5,2,2,30,25,26,22,15,3,2,20,22,20,2,20,20,15,3,26,15,26,20,26,10,10,6,20,30,2,20,3,6,4,10,20,15,26,10,10,5,10,20,26,26,8,5,25,26,4,6,8,6,20,20,6,10,28,2,26,6,3,20,2,26,10,20,15,2,25,26,10,15,28,12,4,2,22,30,15,6,26,10,22,14,6,5],"right_den":[18,25,5,12,28,16,14,10,6,6,10,9,10,15,22,15,15,27,16,3,14,5,20,12,10,4,15,20,16,12,10,4,18,10,22,30,15,4,16,15,15,16,15,15,4,10,16,15,16,4,16,15,15,10,20,16,20,2,2,5,2,26,5,20,30,5,20,26,4,10,10,22,24,22,14,4,10,15,10,10,18,15,20,5,10,30,4,2,10,16,20,20,15,20,30,22,30,20,24,25,10,15,14,20,16,10,20,5,30,20,10,9,6,5,20,18,10,15,20,12],"correct_side":[2,1,1,2,1,1,1,1,2,2,1,2,1,1,2,2,1,2,2,2,2,2,2,2,1,2,1,1,1,2,1,2,1,2,1,2,1,1,1,2,2,1,1,1,2,1,2,1,1,2,1,1,2,1,2,1,2,2,2,2,2,2,2,2,2,1,1,1,2,2,2,1,1,2,2,2,2,2,2,1,1,2,1,2,1,1,2,2,1,1,1,1,2,2,2,2,2,2,2,1,1,1,2,2,1,1,1,2,1,1,1,2,2,1,2,1,1,2,2,2],"img_shown":["img2/100/Incongruent/R/I_Dist_100_LN_10_LD_25_RN_9_RD_18_1.png","img2/100/Congruent/L/C_Dist_100_LN_6_LD_20_RN_5_RD_25_0.png","img2/100/Congruent/L/C_Dist_100_LN_3_LD_6_RN_2_RD_5_0.png","img2/300/Congruent/R/C_Dist_300_LN_8_LD_15_RN_10_RD_12_1.png","img2/300/Incongruent/L/I_Dist_300_LN_8_LD_10_RN_14_RD_28_0.png","img2/100/Congruent/L/C_Dist_100_LN_9_LD_15_RN_8_RD_16_0.png","img2/100/Incongruent/L/I_Dist_100_LN_6_LD_10_RN_7_RD_14_0.png","img2/200/Congruent/L/C_Dist_200_LN_4_LD_8_RN_3_RD_10_0.png","img2/200/Incongruent/R/I_Dist_200_LN_7_LD_15_RN_4_RD_6_1.png","img2/300/Congruent/R/C_Dist_300_LN_1_LD_5_RN_3_RD_6_1.png","img2/300/Incongruent/L/I_Dist_300_LN_1_LD_2_RN_2_RD_10_0.png","img2/200/Incongruent/R/I_Dist_200_LN_14_LD_30_RN_6_RD_9_1.png","img2/300/Congruent/L/C_Dist_300_LN_20_LD_25_RN_5_RD_10_0.png","img2/100/Congruent/L/C_Dist_100_LN_11_LD_22_RN_6_RD_15_0.png","img2/300/Congruent/R/C_Dist_300_LN_1_LD_5_RN_11_RD_22_1.png","img2/100/Incongruent/R/I_Dist_100_LN_12_LD_24_RN_9_RD_15_1.png","img2/200/Congruent/L/C_Dist_200_LN_20_LD_25_RN_9_RD_15_0.png","img2/200/Congruent/R/C_Dist_200_LN_7_LD_15_RN_18_RD_27_1.png","img2/100/Congruent/R/C_Dist_100_LN_3_LD_20_RN_4_RD_16_1.png","img2/200/Incongruent/R/I_Dist_200_LN_4_LD_30_RN_1_RD_3_1.png","img2/200/Congruent/R/C_Dist_200_LN_3_LD_10_RN_7_RD_14_1.png","img2/300/Congruent/R/C_Dist_300_LN_3_LD_6_RN_4_RD_5_1.png","img2/200/Congruent/R/C_Dist_200_LN_5_LD_10_RN_14_RD_20_1.png","img2/300/Congruent/R/C_Dist_300_LN_8_LD_15_RN_10_RD_12_1.png","img2/200/Congruent/L/C_Dist_200_LN_11_LD_22_RN_3_RD_10_0.png","img2/300/Incongruent/R/I_Dist_300_LN_4_LD_20_RN_2_RD_4_1.png","img2/100/Congruent/L/C_Dist_100_LN_11_LD_22_RN_6_RD_15_0.png","img2/300/Incongruent/L/I_Dist_300_LN_7_LD_10_RN_8_RD_20_0.png","img2/300/Congruent/L/C_Dist_300_LN_24_LD_30_RN_8_RD_16_0.png","img2/300/Congruent/R/C_Dist_300_LN_5_LD_25_RN_6_RD_12_1.png","img2/300/Incongruent/L/I_Dist_300_LN_1_LD_2_RN_2_RD_10_0.png","img2/300/Incongruent/R/I_Dist_300_LN_4_LD_20_RN_2_RD_4_1.png","img2/300/Incongruent/L/I_Dist_300_LN_8_LD_10_RN_9_RD_18_0.png","img2/100/Incongruent/R/I_Dist_100_LN_9_LD_18_RN_6_RD_10_1.png","img2/100/Incongruent/L/I_Dist_100_LN_3_LD_5_RN_11_RD_22_0.png","img2/100/Congruent/R/C_Dist_100_LN_1_LD_2_RN_18_RD_30_1.png","img2/300/Incongruent/L/I_Dist_300_LN_1_LD_2_RN_3_RD_15_0.png","img2/200/Congruent/L/C_Dist_200_LN_21_LD_30_RN_2_RD_4_0.png","img2/300/Congruent/L/C_Dist_300_LN_20_LD_25_RN_8_RD_16_0.png","img2/300/Incongruent/R/I_Dist_300_LN_13_LD_26_RN_12_RD_15_1.png","img2/100/Incongruent/R/I_Dist_100_LN_11_LD_22_RN_9_RD_15_1.png","img2/100/Congruent/L/C_Dist_100_LN_9_LD_15_RN_8_RD_16_0.png","img2/200/Incongruent/L/I_Dist_200_LN_1_LD_3_RN_2_RD_15_0.png","img2/300/Incongruent/L/I_Dist_300_LN_1_LD_2_RN_3_RD_15_0.png","img2/300/Incongruent/R/I_Dist_300_LN_4_LD_20_RN_2_RD_4_1.png","img2/100/Congruent/L/C_Dist_100_LN_11_LD_22_RN_4_RD_10_0.png","img2/100/Congruent/R/C_Dist_100_LN_3_LD_20_RN_4_RD_16_1.png","img2/300/Incongruent/L/I_Dist_300_LN_1_LD_2_RN_3_RD_15_0.png","img2/200/Congruent/L/C_Dist_200_LN_9_LD_20_RN_4_RD_16_0.png","img2/300/Incongruent/R/I_Dist_300_LN_4_LD_20_RN_2_RD_4_1.png","img2/100/Congruent/L/C_Dist_100_LN_9_LD_15_RN_8_RD_16_0.png","img2/200/Incongruent/L/I_Dist_200_LN_1_LD_3_RN_2_RD_15_0.png","img2/300/Incongruent/R/I_Dist_300_LN_13_LD_26_RN_12_RD_15_1.png","img2/200/Congruent/L/C_Dist_200_LN_12_LD_15_RN_6_RD_10_0.png","img2/100/Incongruent/R/I_Dist_100_LN_13_LD_26_RN_12_RD_20_1.png","img2/200/Congruent/L/C_Dist_200_LN_9_LD_20_RN_4_RD_16_0.png","img2/100/Incongruent/R/I_Dist_100_LN_13_LD_26_RN_12_RD_20_1.png","img2/200/Incongruent/R/I_Dist_200_LN_3_LD_10_RN_1_RD_2_1.png","img2/200/Incongruent/R/I_Dist_200_LN_3_LD_10_RN_1_RD_2_1.png","img2/300/Congruent/R/C_Dist_300_LN_3_LD_6_RN_4_RD_5_1.png","img2/100/Incongruent/R/I_Dist_100_LN_8_LD_20_RN_1_RD_2_1.png","img2/200/Congruent/R/C_Dist_200_LN_9_LD_30_RN_13_RD_26_1.png","img2/100/Congruent/R/C_Dist_100_LN_1_LD_2_RN_3_RD_5_1.png","img2/300/Congruent/R/C_Dist_300_LN_1_LD_20_RN_7_RD_20_1.png","img2/300/Congruent/R/C_Dist_300_LN_1_LD_3_RN_19_RD_30_1.png","img2/100/Congruent/L/C_Dist_100_LN_3_LD_6_RN_2_RD_5_0.png","img2/200/Incongruent/L/I_Dist_200_LN_3_LD_4_RN_11_RD_20_0.png","img2/100/Incongruent/L/I_Dist_100_LN_6_LD_10_RN_13_RD_26_0.png","img2/200/Incongruent/R/I_Dist_200_LN_11_LD_20_RN_3_RD_4_1.png","img2/200/Incongruent/R/I_Dist_200_LN_9_LD_15_RN_8_RD_10_1.png","img2/100/Incongruent/R/I_Dist_100_LN_13_LD_26_RN_6_RD_10_1.png","img2/100/Incongruent/L/I_Dist_100_LN_6_LD_10_RN_11_RD_22_0.png","img2/200/Incongruent/L/I_Dist_200_LN_7_LD_10_RN_12_RD_24_0.png","img2/300/Congruent/R/C_Dist_300_LN_1_LD_5_RN_11_RD_22_1.png","img2/200/Congruent/R/C_Dist_200_LN_3_LD_10_RN_7_RD_14_1.png","img2/200/Incongruent/R/I_Dist_200_LN_11_LD_20_RN_3_RD_4_1.png","img2/100/Incongruent/R/I_Dist_100_LN_13_LD_26_RN_6_RD_10_1.png","img2/300/Incongruent/R/I_Dist_300_LN_13_LD_26_RN_12_RD_15_1.png","img2/100/Congruent/R/C_Dist_100_LN_4_LD_8_RN_6_RD_10_1.png","img2/200/Incongruent/L/I_Dist_200_LN_4_LD_5_RN_6_RD_10_0.png","img2/300/Congruent/L/C_Dist_300_LN_20_LD_25_RN_9_RD_18_0.png","img2/300/Incongruent/R/I_Dist_300_LN_13_LD_26_RN_12_RD_15_1.png","img2/200/Incongruent/L/I_Dist_200_LN_3_LD_4_RN_11_RD_20_0.png","img2/300/Congruent/R/C_Dist_300_LN_3_LD_6_RN_4_RD_5_1.png","img2/200/Congruent/L/C_Dist_200_LN_4_LD_8_RN_3_RD_10_0.png","img2/200/Incongruent/L/I_Dist_200_LN_4_LD_6_RN_14_RD_30_0.png","img2/200/Incongruent/R/I_Dist_200_LN_11_LD_20_RN_3_RD_4_1.png","img2/100/Incongruent/R/I_Dist_100_LN_8_LD_20_RN_1_RD_2_1.png","img2/300/Congruent/L/C_Dist_300_LN_3_LD_6_RN_2_RD_10_0.png","img2/200/Incongruent/L/I_Dist_200_LN_7_LD_10_RN_8_RD_16_0.png","img2/200/Congruent/L/C_Dist_200_LN_14_LD_28_RN_6_RD_20_0.png","img2/100/Incongruent/L/I_Dist_100_LN_1_LD_2_RN_8_RD_20_0.png","img2/300/Incongruent/R/I_Dist_300_LN_13_LD_26_RN_12_RD_15_1.png","img2/200/Congruent/R/C_Dist_200_LN_3_LD_6_RN_14_RD_20_1.png","img2/300/Congruent/R/C_Dist_300_LN_1_LD_3_RN_19_RD_30_1.png","img2/200/Congruent/R/C_Dist_200_LN_6_LD_20_RN_11_RD_22_1.png","img2/100/Congruent/R/C_Dist_100_LN_1_LD_2_RN_18_RD_30_1.png","img2/100/Incongruent/R/I_Dist_100_LN_13_LD_26_RN_12_RD_20_1.png","img2/300/Congruent/R/C_Dist_300_LN_2_LD_10_RN_12_RD_24_1.png","img2/100/Congruent/L/C_Dist_100_LN_6_LD_20_RN_5_RD_25_0.png","img2/200/Congruent/L/C_Dist_200_LN_12_LD_15_RN_6_RD_10_0.png","img2/300/Incongruent/L/I_Dist_300_LN_1_LD_2_RN_3_RD_15_0.png","img2/300/Congruent/R/C_Dist_300_LN_5_LD_25_RN_7_RD_14_1.png","img2/100/Incongruent/R/I_Dist_100_LN_13_LD_26_RN_12_RD_20_1.png","img2/200/Incongruent/L/I_Dist_200_LN_7_LD_10_RN_8_RD_16_0.png","img2/200/Congruent/L/C_Dist_200_LN_12_LD_15_RN_6_RD_10_0.png","img2/200/Congruent/L/C_Dist_200_LN_14_LD_28_RN_6_RD_20_0.png","img2/100/Incongruent/R/I_Dist_100_LN_6_LD_12_RN_3_RD_5_1.png","img2/300/Incongruent/L/I_Dist_300_LN_2_LD_4_RN_6_RD_30_0.png","img2/100/Incongruent/L/I_Dist_100_LN_1_LD_2_RN_8_RD_20_0.png","img2/100/Congruent/L/C_Dist_100_LN_11_LD_22_RN_4_RD_10_0.png","img2/200/Incongruent/R/I_Dist_200_LN_14_LD_30_RN_6_RD_9_1.png","img2/200/Incongruent/R/I_Dist_200_LN_7_LD_15_RN_4_RD_6_1.png","img2/100/Congruent/L/C_Dist_100_LN_3_LD_6_RN_2_RD_5_0.png","img2/100/Incongruent/R/I_Dist_100_LN_13_LD_26_RN_12_RD_20_1.png","img2/300/Incongruent/L/I_Dist_300_LN_8_LD_10_RN_9_RD_18_0.png","img2/100/Congruent/L/C_Dist_100_LN_11_LD_22_RN_4_RD_10_0.png","img2/100/Congruent/R/C_Dist_100_LN_7_LD_14_RN_9_RD_15_1.png","img2/200/Congruent/R/C_Dist_200_LN_3_LD_6_RN_14_RD_20_1.png","img2/300/Congruent/R/C_Dist_300_LN_1_LD_5_RN_6_RD_12_1.png"],"dist100_C":[["C_Dist_100_LN_10_LD_25_RN_3_RD_10_0.png","C_Dist_100_LN_11_LD_22_RN_4_RD_10_0.png","C_Dist_100_LN_11_LD_22_RN_6_RD_15_0.png","C_Dist_100_LN_15_LD_25_RN_13_RD_26_0.png","C_Dist_100_LN_3_LD_6_RN_2_RD_5_0.png","C_Dist_100_LN_6_LD_20_RN_5_RD_25_0.png","C_Dist_100_LN_8_LD_16_RN_2_RD_5_0.png","C_Dist_100_LN_9_LD_15_RN_8_RD_16_0.png"],["C_Dist_100_LN_1_LD_2_RN_18_RD_30_1.png","C_Dist_100_LN_1_LD_2_RN_3_RD_5_1.png","C_Dist_100_LN_12_LD_30_RN_13_RD_26_1.png","C_Dist_100_LN_2_LD_5_RN_11_RD_22_1.png","C_Dist_100_LN_2_LD_5_RN_6_RD_12_1.png","C_Dist_100_LN_3_LD_20_RN_4_RD_16_1.png","C_Dist_100_LN_4_LD_10_RN_15_RD_30_1.png","C_Dist_100_LN_4_LD_8_RN_6_RD_10_1.png","C_Dist_100_LN_6_LD_12_RN_15_RD_25_1.png","C_Dist_100_LN_7_LD_14_RN_15_RD_25_1.png","C_Dist_100_LN_7_LD_14_RN_9_RD_15_1.png"]],"dist100_I":[["I_Dist_100_LN_1_LD_2_RN_8_RD_20_0.png","I_Dist_100_LN_2_LD_4_RN_6_RD_15_0.png","I_Dist_100_LN_2_LD_4_RN_8_RD_20_0.png","I_Dist_100_LN_3_LD_5_RN_11_RD_22_0.png","I_Dist_100_LN_3_LD_5_RN_8_RD_16_0.png","I_Dist_100_LN_3_LD_6_RN_4_RD_10_0.png","I_Dist_100_LN_3_LD_9_RN_7_RD_30_0.png","I_Dist_100_LN_4_LD_8_RN_8_RD_20_0.png","I_Dist_100_LN_6_LD_10_RN_11_RD_22_0.png","I_Dist_100_LN_6_LD_10_RN_13_RD_26_0.png","I_Dist_100_LN_6_LD_10_RN_7_RD_14_0.png","I_Dist_100_LN_9_LD_10_RN_20_RD_25_0.png","I_Dist_100_LN_9_LD_15_RN_13_RD_26_0.png","I_Dist_100_LN_9_LD_15_RN_14_RD_28_0.png"],["I_Dist_100_LN_10_LD_25_RN_8_RD_16_1.png","I_Dist_100_LN_10_LD_25_RN_9_RD_18_1.png","I_Dist_100_LN_11_LD_22_RN_9_RD_15_1.png","I_Dist_100_LN_12_LD_24_RN_9_RD_15_1.png","I_Dist_100_LN_12_LD_30_RN_2_RD_4_1.png","I_Dist_100_LN_13_LD_26_RN_12_RD_20_1.png","I_Dist_100_LN_13_LD_26_RN_6_RD_10_1.png","I_Dist_100_LN_17_LD_30_RN_10_RD_15_1.png","I_Dist_100_LN_6_LD_12_RN_3_RD_5_1.png","I_Dist_100_LN_8_LD_16_RN_6_RD_10_1.png","I_Dist_100_LN_8_LD_20_RN_1_RD_2_1.png","I_Dist_100_LN_9_LD_18_RN_6_RD_10_1.png"]],"dist100_S":[["E_Dist_100_LN_2_LD_12_RN_2_RD_30_0.png","E_Dist_100_LN_6_LD_10_RN_6_RD_12_0.png"],["E_Dist_100_LN_6_LD_12_RN_6_RD_10_1.png"]],"dist200_C":[["C_Dist_200_LN_11_LD_22_RN_3_RD_10_0.png","C_Dist_200_LN_12_LD_15_RN_6_RD_10_0.png","C_Dist_200_LN_12_LD_20_RN_6_RD_15_0.png","C_Dist_200_LN_14_LD_28_RN_6_RD_20_0.png","C_Dist_200_LN_15_LD_25_RN_4_RD_10_0.png","C_Dist_200_LN_16_LD_20_RN_12_RD_20_0.png","C_Dist_200_LN_16_LD_30_RN_9_RD_27_0.png","C_Dist_200_LN_20_LD_25_RN_9_RD_15_0.png","C_Dist_200_LN_21_LD_30_RN_2_RD_4_0.png","C_Dist_200_LN_4_LD_10_RN_3_RD_15_0.png","C_Dist_200_LN_4_LD_8_RN_3_RD_10_0.png","C_Dist_200_LN_6_LD_15_RN_3_RD_15_0.png","C_Dist_200_LN_7_LD_21_RN_2_RD_15_0.png","C_Dist_200_LN_8_LD_15_RN_2_RD_6_0.png","C_Dist_200_LN_8_LD_15_RN_3_RD_9_0.png","C_Dist_200_LN_8_LD_15_RN_7_RD_21_0.png","C_Dist_200_LN_9_LD_20_RN_4_RD_16_0.png"],["C_Dist_200_LN_1_LD_2_RN_21_RD_30_1.png","C_Dist_200_LN_13_LD_26_RN_14_RD_20_1.png","C_Dist_200_LN_3_LD_10_RN_11_RD_22_1.png","C_Dist_200_LN_3_LD_10_RN_14_RD_28_1.png","C_Dist_200_LN_3_LD_10_RN_7_RD_14_1.png","C_Dist_200_LN_3_LD_12_RN_9_RD_20_1.png","C_Dist_200_LN_3_LD_6_RN_14_RD_20_1.png","C_Dist_200_LN_5_LD_10_RN_14_RD_20_1.png","C_Dist_200_LN_6_LD_12_RN_7_RD_10_1.png","C_Dist_200_LN_6_LD_20_RN_11_RD_22_1.png","C_Dist_200_LN_7_LD_15_RN_18_RD_27_1.png","C_Dist_200_LN_9_LD_30_RN_13_RD_26_1.png"]],"dist200_I":[["I_Dist_200_LN_1_LD_2_RN_3_RD_10_0.png","I_Dist_200_LN_1_LD_3_RN_2_RD_15_0.png","I_Dist_200_LN_3_LD_4_RN_11_RD_20_0.png","I_Dist_200_LN_4_LD_5_RN_6_RD_10_0.png","I_Dist_200_LN_4_LD_6_RN_14_RD_30_0.png","I_Dist_200_LN_7_LD_10_RN_12_RD_24_0.png","I_Dist_200_LN_7_LD_10_RN_14_RD_28_0.png","I_Dist_200_LN_7_LD_10_RN_8_RD_16_0.png"],["I_Dist_200_LN_11_LD_20_RN_3_RD_4_1.png","I_Dist_200_LN_14_LD_30_RN_12_RD_18_1.png","I_Dist_200_LN_14_LD_30_RN_6_RD_9_1.png","I_Dist_200_LN_3_LD_10_RN_1_RD_2_1.png","I_Dist_200_LN_4_LD_30_RN_1_RD_3_1.png","I_Dist_200_LN_6_LD_20_RN_3_RD_6_1.png","I_Dist_200_LN_7_LD_15_RN_4_RD_6_1.png","I_Dist_200_LN_7_LD_15_RN_6_RD_9_1.png","I_Dist_200_LN_9_LD_15_RN_8_RD_10_1.png"]],"dist200_S":[["E_Dist_200_LN_3_LD_6_RN_3_RD_10_0.png"],["E_Dist_200_LN_3_LD_10_RN_3_RD_6_1.png"]],"dist300_C":[["C_Dist_300_LN_11_LD_22_RN_1_RD_5_0.png","C_Dist_300_LN_11_LD_22_RN_2_RD_10_0.png","C_Dist_300_LN_11_LD_22_RN_4_RD_20_0.png","C_Dist_300_LN_12_LD_24_RN_2_RD_10_0.png","C_Dist_300_LN_18_LD_20_RN_9_RD_15_0.png","C_Dist_300_LN_20_LD_25_RN_13_RD_26_0.png","C_Dist_300_LN_20_LD_25_RN_14_RD_28_0.png","C_Dist_300_LN_20_LD_25_RN_5_RD_10_0.png","C_Dist_300_LN_20_LD_25_RN_8_RD_16_0.png","C_Dist_300_LN_20_LD_25_RN_9_RD_18_0.png","C_Dist_300_LN_24_LD_30_RN_2_RD_4_0.png","C_Dist_300_LN_24_LD_30_RN_8_RD_16_0.png","C_Dist_300_LN_3_LD_6_RN_2_RD_10_0.png","C_Dist_300_LN_4_LD_10_RN_1_RD_10_0.png","C_Dist_300_LN_4_LD_5_RN_2_RD_4_0.png","C_Dist_300_LN_8_LD_16_RN_1_RD_5_0.png","C_Dist_300_LN_9_LD_10_RN_3_RD_5_0.png"],["C_Dist_300_LN_1_LD_20_RN_7_RD_20_1.png","C_Dist_300_LN_1_LD_3_RN_19_RD_30_1.png","C_Dist_300_LN_1_LD_30_RN_8_RD_24_1.png","C_Dist_300_LN_1_LD_5_RN_11_RD_22_1.png","C_Dist_300_LN_1_LD_5_RN_3_RD_6_1.png","C_Dist_300_LN_1_LD_5_RN_6_RD_12_1.png","C_Dist_300_LN_2_LD_10_RN_12_RD_24_1.png","C_Dist_300_LN_2_LD_20_RN_10_RD_25_1.png","C_Dist_300_LN_3_LD_12_RN_11_RD_20_1.png","C_Dist_300_LN_3_LD_6_RN_4_RD_5_1.png","C_Dist_300_LN_4_LD_20_RN_13_RD_26_1.png","C_Dist_300_LN_5_LD_25_RN_6_RD_12_1.png","C_Dist_300_LN_5_LD_25_RN_7_RD_14_1.png","C_Dist_300_LN_7_LD_14_RN_20_RD_25_1.png","C_Dist_300_LN_8_LD_15_RN_10_RD_12_1.png"]],"dist300_I":[["I_Dist_300_LN_1_LD_2_RN_2_RD_10_0.png","I_Dist_300_LN_1_LD_2_RN_3_RD_15_0.png","I_Dist_300_LN_2_LD_4_RN_6_RD_30_0.png","I_Dist_300_LN_3_LD_6_RN_4_RD_20_0.png","I_Dist_300_LN_4_LD_5_RN_6_RD_12_0.png","I_Dist_300_LN_4_LD_5_RN_8_RD_16_0.png","I_Dist_300_LN_7_LD_10_RN_8_RD_20_0.png","I_Dist_300_LN_8_LD_10_RN_14_RD_28_0.png","I_Dist_300_LN_8_LD_10_RN_9_RD_18_0.png"],["I_Dist_300_LN_13_LD_26_RN_12_RD_15_1.png","I_Dist_300_LN_4_LD_20_RN_2_RD_4_1.png"]],"dist300_S":[["E_Dist_300_LN_9_LD_12_RN_9_RD_20_0.png"],["E_Dist_300_LN_18_LD_30_RN_18_RD_20_1.png","E_Dist_300_LN_3_LD_10_RN_3_RD_5_1.png","E_Dist_300_LN_9_LD_20_RN_9_RD_12_1.png"]],"dist500_C":[["C_Dist_500_LN_10_LD_13_RN_7_RD_26_0.png","C_Dist_500_LN_10_LD_15_RN_4_RD_24_0.png","C_Dist_500_LN_12_LD_16_RN_3_RD_12_0.png","C_Dist_500_LN_12_LD_18_RN_4_RD_24_0.png","C_Dist_500_LN_15_LD_18_RN_5_RD_15_0.png","C_Dist_500_LN_15_LD_20_RN_1_RD_4_0.png","C_Dist_500_LN_18_LD_27_RN_1_RD_6_0.png","C_Dist_500_LN_20_LD_24_RN_1_RD_3_0.png","C_Dist_500_LN_20_LD_24_RN_3_RD_9_0.png","C_Dist_500_LN_20_LD_24_RN_7_RD_21_0.png","C_Dist_500_LN_20_LD_28_RN_3_RD_14_0.png","C_Dist_500_LN_21_LD_28_RN_6_RD_24_0.png","C_Dist_500_LN_22_LD_28_RN_2_RD_7_0.png","C_Dist_500_LN_25_LD_30_RN_9_RD_27_0.png","C_Dist_500_LN_4_LD_6_RN_1_RD_6_0.png","C_Dist_500_LN_5_LD_6_RN_2_RD_6_0.png","C_Dist_500_LN_6_LD_9_RN_1_RD_6_0.png","C_Dist_500_LN_7_LD_10_RN_1_RD_5_0.png","C_Dist_500_LN_8_LD_12_RN_1_RD_6_0.png","C_Dist_500_LN_8_LD_12_RN_4_RD_24_0.png"],["C_Dist_500_LN_1_LD_4_RN_12_RD_16_1.png","C_Dist_500_LN_1_LD_4_RN_9_RD_12_1.png","C_Dist_500_LN_1_LD_9_RN_11_RD_18_1.png","C_Dist_500_LN_10_LD_24_RN_22_RD_24_1.png","C_Dist_500_LN_2_LD_12_RN_10_RD_15_1.png","C_Dist_500_LN_2_LD_12_RN_12_RD_18_1.png","C_Dist_500_LN_2_LD_12_RN_4_RD_6_1.png","C_Dist_500_LN_2_LD_24_RN_7_RD_12_1.png","C_Dist_500_LN_2_LD_5_RN_18_RD_20_1.png","C_Dist_500_LN_2_LD_5_RN_9_RD_10_1.png","C_Dist_500_LN_2_LD_8_RN_12_RD_16_1.png","C_Dist_500_LN_2_LD_8_RN_21_RD_28_1.png","C_Dist_500_LN_3_LD_10_RN_4_RD_5_1.png","C_Dist_500_LN_3_LD_12_RN_15_RD_20_1.png","C_Dist_500_LN_3_LD_30_RN_6_RD_10_1.png","C_Dist_500_LN_3_LD_8_RN_14_RD_16_1.png","C_Dist_500_LN_4_LD_16_RN_15_RD_20_1.png","C_Dist_500_LN_4_LD_24_RN_12_RD_18_1.png","C_Dist_500_LN_5_LD_14_RN_6_RD_7_1.png","C_Dist_500_LN_7_LD_21_RN_20_RD_24_1.png","C_Dist_500_LN_7_LD_28_RN_12_RD_16_1.png","C_Dist_500_LN_7_LD_28_RN_9_RD_12_1.png","C_Dist_500_LN_9_LD_27_RN_20_RD_24_1.png"]],"dist500_I":[["I_Dist_500_LN_2_LD_3_RN_4_RD_24_0.png","I_Dist_500_LN_5_LD_6_RN_6_RD_18_0.png","I_Dist_500_LN_7_LD_8_RN_9_RD_24_0.png"],["I_Dist_500_LN_7_LD_21_RN_5_RD_6_1.png"]],"dist500_S":[["E_Dist_500_LN_6_LD_8_RN_6_RD_24_0.png"],["E_Dist_500_LN_2_LD_12_RN_2_RD_3_1.png","E_Dist_500_LN_6_LD_24_RN_6_RD_8_1.png"]]}},{"start_time":1551899783397,"click_time":1551899786426,"finger_time":1551899785565,"fix_duration":250,"trial":1,"RT":2168,"MT":861,"sideResp":1,"stimulus":[],"xmouse":[781,781,781,781,781,781,781,781,781,781,781,781,781,781,781,781,781,781,781,781,781,781,781,781,781,781,781,781,781,781,781,781,781,781,781,781,781,781,781,781,781,781,781,781,781,781,781,781,781,781,781,781,781,781,781,781,781,781,781,781,781,781,781,781,781,781,781,781,781,781,781,781,781,781,781,781,781,781,781,781,781,781,781,781,781,781,781,781,781,781,781,781,781,781,781,781,781,781,781,781,781,781,781,781,783,797,806,813,821,831,857,870,884,899,903,909,909,909,909,909,909,909,909,909,909,909,909,909,909,909,909,886,857,827,781,739,733,730,730,730,730,725,719,704,696,632,605,579,557,543,526,524],"ymouse":[640,640,640,640,640,640,640,640,640,640,640,640,640,640,640,640,640,640,640,640,640,640,640,640,640,640,640,640,640,640,640,640,640,640,640,640,640,640,640,640,640,640,640,640,640,640,640,640,640,640,640,640,640,640,640,640,640,640,640,640,640,640,640,640,640,640,640,640,640,640,640,640,640,640,640,640,640,640,640,640,640,640,640,640,640,640,640,640,640,640,640,640,640,640,640,640,640,640,640,640,640,640,640,640,635,606,590,580,566,549,498,475,454,432,427,419,418,417,417,417,417,417,417,417,417,417,417,417,417,417,405,350,321,299,276,255,251,249,249,249,249,239,223,198,185,114,96,84,78,75,72,72],"timestamp_mouse":[12,42,48,69,88,109,128,148,169,189,208,228,247,269,288,308,327,349,367,388,408,428,447,468,488,509,528,548,569,588,608,628,648,668,687,708,727,748,768,789,808,829,848,868,887,909,927,947,968,988,1007,1027,1048,1068,1087,1109,1128,1147,1168,1189,1208,1229,1249,1268,1289,1309,1328,1348,1368,1387,1408,1429,1449,1468,1487,1509,1528,1547,1567,1588,1608,1628,1648,1668,1688,1709,1727,1748,1768,1789,1808,1828,1848,1869,1887,1909,1928,1947,1968,1989,2008,2027,2048,2068,2089,2109,2128,2147,2168,2188,2208,2228,2248,2268,2288,2308,2328,2348,2368,2388,2409,2428,2448,2468,2488,2509,2527,2548,2568,2588,2608,2627,2649,2669,2687,2707,2727,2749,2768,2789,2808,2828,2848,2868,2888,2908,2927,2947,2968,2987,3007,3028],"xSR":741.5,"ySR":573.95,"xT1":424.9,"yT1":0,"xT2":1058.1,"yT2":0,"toosoon":0,"cond_shown":"Congruent","ratio_trial":100,"L_num":6,"L_den":20,"R_num":5,"R_den":25,"correct_side":1,"subjID":"Juansantiagotochoy28","gender":"0","school":"6","age":"11"},{"start_time":1551899792690,"click_time":1551899797045,"finger_time":1551899796064,"fix_duration":984.9026035697949,"trial":2,"RT":3374,"MT":981,"sideResp":1,"stimulus":[],"xmouse":[779,779,779,779,779,779,779,779,779,779,779,779,779,779,779,779,779,779,779,779,779,779,779,779,779,779,779,779,779,779,779,779,779,779,779,779,779,779,779,779,779,779,779,779,779,779,779,779,779,779,779,779,779,779,779,779,779,779,779,779,779,779,779,779,779,779,779,779,779,779,779,779,779,779,779,779,779,779,779,779,779,779,779,779,779,779,779,779,779,779,779,779,779,779,779,779,779,779,779,779,779,779,779,779,779,779,779,779,779,779,779,779,779,779,779,779,779,779,779,779,779,779,779,779,779,779,779,779,779,779,779,779,779,779,779,779,779,779,779,779,779,779,779,779,779,779,779,779,779,779,779,779,779,779,779,779,779,779,779,779,779,779,779,779,779,779,778,778,781,781,780,780,780,781,781,782,782,782,782,782,782,782,782,782,747,734,720,708,698,688,660,653,648,644,642,637,634,629,623,610,605,602,601,601,601,601,601,600,589,567,541,533,529,526,525,523,523,521],"ymouse":[631,631,631,631,631,631,631,631,631,631,631,631,631,631,631,631,631,631,631,631,631,631,631,631,631,631,631,631,631,631,631,631,631,631,631,631,631,631,631,631,631,631,631,631,631,631,631,631,631,631,631,631,631,631,631,631,631,631,631,631,631,631,631,631,631,631,631,631,631,631,631,631,631,631,631,631,631,631,631,631,631,631,631,631,631,631,631,631,631,631,631,631,631,631,631,631,631,631,631,631,631,631,631,631,631,631,631,631,631,631,631,631,631,631,631,631,631,631,631,631,631,631,631,631,631,631,631,631,631,631,631,631,631,631,631,631,631,631,631,631,631,631,631,631,631,631,631,631,631,631,631,631,631,631,631,631,631,631,631,631,631,631,631,631,631,631,604,591,560,541,524,523,520,518,517,516,516,516,516,516,516,516,516,515,505,500,492,480,468,447,356,330,312,300,289,260,242,225,204,158,147,142,140,140,140,140,140,139,134,125,114,109,107,106,105,102,100,98],"timestamp_mouse":[14,39,56,75,95,115,135,155,176,194,215,235,255,275,296,314,335,355,374,396,415,434,456,474,495,515,536,556,574,594,615,636,654,674,695,714,736,754,774,795,815,836,854,876,895,915,935,956,976,994,1014,1035,1054,1074,1096,1116,1134,1155,1176,1194,1215,1236,1254,1274,1295,1316,1334,1354,1376,1395,1415,1435,1455,1474,1496,1514,1535,1554,1576,1595,1615,1634,1654,1676,1695,1715,1736,1754,1776,1794,1815,1834,1858,1875,1896,1915,1935,1954,1975,1996,2016,2036,2055,2074,2095,2114,2136,2155,2174,2195,2215,2236,2255,2276,2295,2314,2336,2356,2376,2396,2415,2435,2455,2475,2496,2516,2534,2556,2575,2596,2615,2635,2655,2676,2695,2714,2735,2754,2776,2795,2816,2835,2854,2875,2896,2915,2935,2955,2975,2995,3016,3035,3056,3076,3095,3116,3135,3155,3174,3196,3215,3236,3254,3275,3296,3315,3335,3354,3374,3394,3414,3434,3454,3474,3494,3515,3536,3555,3574,3595,3614,3636,3656,3674,3695,3714,3735,3756,3775,3795,3815,3834,3855,3874,3895,3915,3935,3955,3975,3995,4014,4035,4055,4074,4095,4114,4134,4155,4175,4194,4216,4234,4255,4275,4295,4314,4335,4355],"xSR":741.5,"ySR":573.95,"xT1":424.9,"yT1":0,"xT2":1058.1,"yT2":0,"toosoon":0,"cond_shown":"Congruent","ratio_trial":100,"L_num":3,"L_den":6,"R_num":2,"R_den":5,"correct_side":1,"subjID":"Juansantiagotochoy28","gender":"0","school":"6","age":"11"},{"start_time":1551899801587,"click_time":1551899804865,"finger_time":1551899803424,"fix_duration":1101.100314965573,"trial":3,"RT":1837,"MT":1441,"sideResp":2,"stimulus":[],"xmouse":[793,793,793,793,793,793,793,793,793,793,793,793,793,793,793,793,793,793,793,793,793,793,793,793,793,793,793,793,793,793,793,793,793,793,793,793,793,793,793,793,793,793,793,793,793,793,793,793,793,793,793,793,793,793,793,793,793,793,793,793,793,793,793,793,793,793,793,793,793,793,793,793,793,793,793,793,793,793,793,793,793,793,793,793,793,793,793,793,793,793,793,796,798,802,808,810,817,828,842,864,869,870,870,870,881,893,906,911,916,919,925,930,936,942,960,975,987,990,995,995,995,996,997,999,999,999,999,1001,1004,1005,1005,1005,1005,1005,1005,1006,1017,1031,1041,1046,1046,1046,1046,1046,1046,1046,1046,1046,1046,1048,1053,1056,1056,1057,1057,1057,1057,1057,1058,1058,1058,1058,1058,1065],"ymouse":[625,625,625,625,625,625,625,625,625,625,625,625,625,625,625,625,625,625,625,625,625,625,625,625,625,625,625,625,625,625,625,625,625,625,625,625,625,625,625,625,625,625,625,625,625,625,625,625,625,625,625,625,625,625,625,625,625,625,625,625,625,625,625,625,625,625,625,625,625,625,625,625,625,625,625,625,625,625,625,625,625,625,625,625,625,625,625,625,625,625,625,570,535,527,517,515,506,497,486,471,467,466,466,466,388,319,273,244,211,187,154,140,124,110,57,24,8,4,0,0,0,0,0,0,0,0,0,0,4,6,6,6,7,7,7,7,7,9,11,12,12,12,12,12,12,12,12,12,12,13,15,16,16,16,16,16,16,16,17,17,17,17,17,18],"timestamp_mouse":[33,39,58,79,97,119,139,158,178,198,219,237,259,277,299,318,339,357,378,399,418,439,458,479,497,518,539,559,577,599,618,639,659,678,697,719,738,759,779,799,818,838,858,878,899,917,939,958,978,998,1017,1037,1058,1077,1099,1118,1139,1159,1177,1199,1219,1237,1259,1278,1299,1317,1339,1357,1379,1397,1419,1438,1457,1478,1499,1519,1538,1558,1578,1597,1617,1638,1659,1679,1699,1717,1739,1757,1779,1799,1818,1837,1858,1877,1897,1918,1938,1958,1978,1998,2018,2038,2059,2078,2098,2117,2138,2158,2178,2198,2218,2238,2258,2279,2298,2317,2338,2358,2378,2397,2419,2438,2458,2479,2498,2518,2538,2558,2579,2598,2618,2638,2657,2678,2698,2717,2738,2759,2779,2799,2819,2838,2858,2877,2897,2918,2939,2958,2977,2999,3018,3037,3057,3078,3098,3118,3137,3157,3177,3199,3218,3239,3257,3278],"xSR":741.5,"ySR":573.95,"xT1":424.9,"yT1":0,"xT2":1058.1,"yT2":0,"toosoon":0,"cond_shown":"Congruent","ratio_trial":300,"L_num":8,"L_den":15,"R_num":10,"R_den":12,"correct_side":2,"subjID":"Juansantiagotochoy28","gender":"0","school":"6","age":"11"},{"start_time":1551899808894,"click_time":1551899811305,"finger_time":1551899810504,"fix_duration":848.6690811421088,"trial":4,"RT":1610,"MT":801,"sideResp":1,"stimulus":[],"xmouse":[803,803,803,803,803,803,803,803,803,803,803,803,803,803,803,803,803,803,803,803,803,803,803,803,803,803,803,803,803,803,803,803,803,803,803,803,803,803,803,803,803,803,803,803,803,803,803,803,803,803,803,803,803,803,803,803,803,803,803,803,803,803,803,803,803,803,803,803,803,803,803,803,803,803,803,803,803,803,796,762,699,673,646,631,609,586,573,564,562,562,567,573,577,578,578,578,578,578,577,577,566,560,556,553,549,548,546,546,545,544,539,536,531,529,527,525,525,525,525,525,524],"ymouse":[629,629,629,629,629,629,629,629,629,629,629,629,629,629,629,629,629,629,629,629,629,629,629,629,629,629,629,629,629,629,629,629,629,629,629,629,629,629,629,629,629,629,629,629,629,629,629,629,629,629,629,629,629,629,629,629,629,629,629,629,629,629,629,629,629,629,629,629,629,629,629,629,629,629,629,629,629,626,616,592,570,558,545,518,437,240,161,87,66,53,24,6,0,0,0,0,0,0,0,0,10,16,22,25,28,30,30,31,32,32,37,41,43,44,45,45,45,45,45,45,46],"timestamp_mouse":[10,41,51,71,91,111,131,151,171,190,212,232,250,272,291,312,332,351,370,391,411,430,452,470,491,511,531,552,572,592,612,630,651,671,691,710,730,751,770,790,811,832,851,870,892,910,931,951,970,990,1010,1030,1051,1071,1090,1110,1132,1151,1171,1191,1212,1232,1250,1270,1290,1311,1330,1351,1371,1391,1411,1431,1451,1471,1491,1511,1532,1550,1570,1590,1610,1631,1651,1671,1690,1710,1731,1751,1771,1790,1810,1831,1850,1870,1890,1910,1930,1951,1970,1991,2011,2030,2051,2071,2091,2111,2130,2150,2171,2191,2211,2230,2250,2271,2291,2312,2331,2352,2371,2391,2411],"xSR":741.5,"ySR":573.95,"xT1":424.9,"yT1":0,"xT2":1058.1,"yT2":0,"toosoon":0,"cond_shown":"Incongruent","ratio_trial":300,"L_num":8,"L_den":10,"R_num":14,"R_den":28,"correct_side":1,"subjID":"Juansantiagotochoy28","gender":"0","school":"6","age":"11"},{"start_time":1551899813058,"click_time":1551899814845,"finger_time":1551899814565,"fix_duration":250,"trial":5,"RT":1507,"MT":280,"sideResp":1,"stimulus":[],"xmouse":[780,780,780,780,781,783,783,784,785,786,786,787,787,787,787,787,787,787,787,787,787,787,787,787,787,787,787,787,787,787,787,787,787,787,787,787,787,787,787,787,787,787,787,787,787,787,787,787,787,787,787,787,787,789,792,794,795,795,795,795,795,795,795,795,795,795,795,795,795,795,795,795,795,795,792,787,765,695,631,617,595,585,583,582,574,560,544,520,507,495],"ymouse":[587,587,587,587,590,592,593,594,595,596,596,596,596,596,596,596,596,596,596,596,596,596,596,596,596,596,596,596,596,596,596,596,596,596,596,596,596,596,596,596,596,596,596,596,596,596,596,596,596,596,596,596,596,597,600,602,602,602,602,602,602,602,602,602,602,602,602,602,602,602,602,602,602,602,585,570,518,386,282,248,199,184,176,170,157,137,121,105,100,95],"timestamp_mouse":[10,33,47,67,87,106,127,147,167,186,208,226,247,267,286,308,327,346,366,388,407,427,447,467,487,508,528,548,567,587,606,628,647,666,687,707,726,747,767,788,806,828,847,867,886,906,927,947,967,986,1006,1028,1048,1067,1086,1107,1127,1146,1168,1188,1208,1227,1247,1268,1288,1306,1326,1347,1367,1386,1408,1426,1447,1466,1487,1507,1527,1547,1567,1587,1607,1627,1647,1666,1686,1707,1727,1747,1766,1786],"xSR":741.5,"ySR":573.95,"xT1":424.9,"yT1":0,"xT2":1058.1,"yT2":0,"toosoon":0,"cond_shown":"Congruent","ratio_trial":100,"L_num":9,"L_den":15,"R_num":8,"R_den":16,"correct_side":1,"subjID":"Juansantiagotochoy28","gender":"0","school":"6","age":"11"},{"start_time":1551899816595,"click_time":1551899818605,"finger_time":1551899818066,"fix_duration":347.7351005798883,"trial":6,"RT":1471,"MT":539,"sideResp":2,"stimulus":[],"xmouse":[792,792,792,792,792,792,792,792,792,792,792,792,792,792,792,792,792,792,792,792,792,792,792,792,792,792,792,792,792,792,792,792,792,792,792,792,792,792,792,792,792,792,792,792,792,792,792,792,792,792,792,792,792,792,792,792,792,792,792,792,792,792,792,792,792,792,792,792,792,792,792,792,797,806,813,830,840,846,853,857,868,875,887,924,953,999,1012,1021,1023,1023,1025,1026,1028,1031,1034,1038,1040,1043,1045,1049,1060],"ymouse":[639,639,639,639,639,639,639,639,639,639,639,639,639,639,639,639,639,639,639,639,639,639,639,639,639,639,639,639,639,639,639,639,639,639,639,639,639,639,639,639,639,639,639,639,639,639,639,639,639,639,639,639,639,639,639,639,639,639,639,639,639,639,639,639,639,639,639,639,639,639,639,639,606,528,489,410,382,360,344,331,304,284,258,198,161,112,99,94,92,92,92,91,90,87,85,83,81,80,79,76,72],"timestamp_mouse":[10,39,49,70,90,109,129,151,169,191,211,229,251,269,290,310,330,350,371,390,409,430,450,470,491,511,529,550,571,591,609,630,649,671,690,709,729,751,769,790,810,830,851,871,889,909,930,949,970,990,1009,1031,1050,1071,1090,1109,1130,1149,1171,1189,1211,1231,1250,1270,1290,1309,1330,1349,1370,1391,1411,1430,1450,1470,1491,1510,1530,1549,1571,1591,1610,1631,1650,1670,1689,1709,1730,1749,1769,1790,1810,1831,1850,1869,1889,1909,1930,1951,1970,1990,2010],"xSR":741.5,"ySR":573.95,"xT1":424.9,"yT1":0,"xT2":1058.1,"yT2":0,"toosoon":0,"cond_shown":"Incongruent","ratio_trial":100,"L_num":6,"L_den":10,"R_num":7,"R_den":14,"correct_side":1,"subjID":"Juansantiagotochoy28","gender":"0","school":"6","age":"11"},{"start_time":1551899821177,"click_time":1551899823186,"finger_time":1551899822624,"fix_duration":530.240431764143,"trial":7,"RT":1447,"MT":562,"sideResp":1,"stimulus":[],"xmouse":[761,761,761,761,761,761,761,761,761,761,761,761,761,761,761,761,761,761,761,761,761,761,761,761,761,761,761,761,761,761,761,761,761,761,761,761,761,761,761,761,761,761,761,761,761,761,761,761,761,761,761,761,761,761,761,761,761,761,761,761,761,761,761,761,761,761,761,761,761,761,761,758,755,747,740,726,704,693,678,660,638,588,566,556,551,549,540,538,535,535,533,531,528,523,522,521,516,514,514,509,508],"ymouse":[650,650,650,650,650,650,650,650,650,650,650,650,650,649,646,646,646,646,646,646,646,646,646,646,646,646,646,646,646,646,646,646,646,646,646,646,646,646,646,646,646,646,646,646,646,646,646,646,646,646,646,646,646,646,646,646,646,646,646,646,646,646,646,646,646,646,646,646,646,634,626,591,569,543,516,467,397,359,324,290,258,197,175,165,160,154,141,138,135,134,131,125,121,114,113,111,105,103,103,100,99],"timestamp_mouse":[20,41,49,67,88,108,128,148,168,188,207,227,248,268,288,307,329,347,368,387,407,429,447,468,487,508,529,547,569,588,609,627,647,668,688,709,727,748,769,787,809,829,847,869,889,908,928,948,967,989,1008,1028,1048,1068,1088,1108,1127,1147,1167,1188,1207,1227,1247,1269,1289,1307,1328,1348,1367,1387,1409,1428,1447,1468,1489,1508,1527,1547,1568,1588,1609,1628,1648,1667,1687,1709,1728,1747,1768,1788,1808,1827,1848,1868,1887,1908,1929,1947,1968,1988,2009],"xSR":741.5,"ySR":573.95,"xT1":424.9,"yT1":0,"xT2":1058.1,"yT2":0,"toosoon":0,"cond_shown":"Congruent","ratio_trial":200,"L_num":4,"L_den":8,"R_num":3,"R_den":10,"correct_side":1,"subjID":"Juansantiagotochoy28","gender":"0","school":"6","age":"11"},{"start_time":1551899826119,"click_time":1551899829986,"finger_time":1551899828667,"fix_duration":1371.8802707848427,"trial":8,"RT":2548,"MT":1319,"sideResp":2,"stimulus":[],"xmouse":[792,792,792,792,792,792,792,792,792,792,792,792,792,792,792,792,792,792,792,792,792,792,792,792,792,792,792,792,792,792,792,792,792,792,792,792,792,792,792,792,792,792,792,792,792,792,792,792,792,792,792,792,792,792,792,792,792,792,792,792,792,792,792,792,792,792,792,792,792,792,792,792,792,792,792,792,792,792,792,792,792,792,792,792,792,792,792,792,792,792,792,792,792,792,792,792,792,792,792,792,792,792,792,792,792,792,792,792,792,792,792,792,792,792,792,792,792,792,792,792,792,792,792,792,792,794,805,842,865,907,922,932,940,948,972,982,995,1009,1013,1016,1016,1016,1016,1018,1022,1024,1025,1025,1025,1025,1025,1025,1029,1030,1042,1047,1053,1058,1058,1061,1061,1062,1063,1064,1066,1067,1068,1069,1070,1084,1095,1105,1115,1131,1137,1138,1138,1138,1138,1138,1138,1138,1138,1138,1138,1138,1138,1138,1138,1138,1138,1138,1138,1132],"ymouse":[608,608,608,608,608,608,608,608,608,608,608,608,608,608,608,608,608,608,608,608,608,608,608,608,608,608,608,608,608,608,608,608,608,608,608,608,608,608,608,608,608,608,608,608,608,608,608,608,608,608,608,608,608,608,608,608,608,608,608,608,608,608,608,608,608,608,608,608,608,608,608,608,608,608,608,608,608,608,608,608,608,608,608,608,608,608,608,608,608,608,608,608,608,608,608,608,608,608,608,608,608,608,608,608,608,608,608,608,608,608,608,608,608,608,608,608,608,608,608,608,608,608,608,608,608,607,597,563,546,516,504,494,485,474,445,433,420,408,402,396,396,396,393,389,374,366,364,364,364,364,364,363,353,345,319,305,292,280,277,268,266,263,258,255,250,247,246,245,243,230,210,176,152,132,127,125,125,125,125,125,125,125,125,125,125,125,125,125,125,125,125,125,121,99],"timestamp_mouse":[10,32,47,67,87,106,127,147,166,187,207,228,246,267,287,306,326,347,367,386,407,427,448,466,487,506,526,546,567,586,608,627,647,666,686,707,728,746,766,787,807,826,847,867,886,906,926,946,968,987,1007,1027,1048,1066,1087,1108,1127,1148,1167,1187,1206,1226,1247,1268,1287,1307,1327,1346,1366,1386,1406,1427,1446,1467,1488,1506,1527,1548,1567,1588,1607,1627,1648,1666,1686,1707,1727,1747,1766,1787,1808,1826,1847,1867,1887,1906,1927,1947,1966,1987,2007,2027,2047,2067,2087,2106,2126,2146,2166,2187,2208,2227,2246,2266,2287,2307,2327,2346,2366,2388,2407,2426,2448,2466,2488,2507,2527,2548,2567,2587,2606,2626,2647,2667,2686,2707,2727,2746,2766,2787,2807,2827,2847,2867,2886,2906,2926,2947,2967,2986,3006,3027,3046,3066,3086,3107,3126,3146,3166,3192,3206,3226,3246,3266,3286,3306,3326,3346,3367,3387,3407,3426,3446,3468,3486,3507,3526,3547,3567,3586,3607,3628,3647,3666,3687,3706,3727,3747,3767,3787,3806,3828,3847,3867],"xSR":741.5,"ySR":573.95,"xT1":424.9,"yT1":0,"xT2":1058.1,"yT2":0,"toosoon":0,"cond_shown":"Incongruent","ratio_trial":200,"L_num":7,"L_den":15,"R_num":4,"R_den":6,"correct_side":2,"subjID":"Juansantiagotochoy28","gender":"0","school":"6","age":"11"},{"start_time":1551899832166,"click_time":1551899834406,"finger_time":1551899833805,"fix_duration":960.901750929181,"trial":9,"RT":1639,"MT":601,"sideResp":2,"stimulus":[],"xmouse":[806,806,806,806,806,806,806,806,806,806,806,806,806,806,806,806,806,806,806,806,806,806,806,806,806,806,806,806,806,806,806,806,806,806,806,806,806,806,806,806,806,806,806,806,806,806,806,806,806,806,806,806,806,806,806,806,806,806,806,806,806,806,806,806,806,806,806,806,806,806,806,806,806,806,806,806,806,806,806,806,808,868,917,970,1038,1066,1105,1115,1120,1122,1125,1131,1134,1135,1135,1135,1135,1136,1136,1136,1136,1136,1136,1136,1135,1135,1134,1134,1134,1134,1134,1134],"ymouse":[632,632,632,632,632,632,632,632,632,632,632,632,632,632,632,632,632,632,632,632,632,632,632,632,632,632,632,632,632,632,632,632,632,632,632,632,632,632,632,632,632,632,632,632,632,632,632,632,632,632,632,632,632,632,632,632,632,632,632,632,632,632,632,632,632,632,632,632,632,632,632,632,632,632,632,632,632,632,632,631,625,547,506,463,394,329,270,255,247,241,226,195,180,161,156,147,136,133,133,133,133,132,132,131,130,129,120,111,106,102,100,99],"timestamp_mouse":[19,42,60,80,101,119,139,159,179,199,219,239,259,281,299,319,339,359,379,400,421,439,460,479,501,520,539,561,579,599,620,640,660,679,699,719,739,760,781,799,819,840,860,880,901,920,940,959,979,999,1020,1040,1060,1081,1099,1119,1141,1159,1179,1200,1219,1240,1261,1281,1300,1319,1339,1359,1379,1399,1419,1439,1459,1479,1499,1520,1540,1559,1579,1599,1620,1639,1659,1680,1699,1720,1739,1759,1779,1800,1819,1839,1859,1879,1899,1920,1939,1960,1980,1999,2021,2041,2059,2079,2099,2120,2139,2159,2179,2200,2220,2240],"xSR":741.5,"ySR":573.95,"xT1":424.9,"yT1":0,"xT2":1058.1,"yT2":0,"toosoon":0,"cond_shown":"Congruent","ratio_trial":300,"L_num":1,"L_den":5,"R_num":3,"R_den":6,"correct_side":2,"subjID":"Juansantiagotochoy28","gender":"0","school":"6","age":"11"},{"start_time":1551899836730,"click_time":1551899838665,"finger_time":1551899838105,"fix_duration":1102.6645232382332,"trial":10,"RT":1375,"MT":560,"sideResp":1,"stimulus":[],"xmouse":[809,809,809,809,809,809,809,809,809,809,809,809,809,809,809,809,809,809,809,809,809,809,809,809,809,809,809,809,809,809,809,809,809,809,809,809,809,809,809,809,809,809,809,809,809,809,809,809,809,809,809,809,809,809,809,809,809,809,809,809,809,809,809,809,809,809,809,805,774,728,655,586,472,424,388,356,346,320,292,284,281,280,280,281,282,285,285,285,285,285,285,286,287,319,348,398,435],"ymouse":[609,609,609,609,609,609,609,609,609,609,609,609,609,609,609,609,609,609,609,609,609,609,609,609,609,609,609,609,609,609,609,609,609,609,609,609,609,609,609,609,609,609,609,609,609,609,609,609,609,609,609,609,609,609,609,609,609,609,609,609,609,609,609,609,609,609,609,603,505,397,292,223,143,116,96,82,76,64,46,37,32,27,22,17,15,12,12,12,12,12,12,12,12,12,16,27,35],"timestamp_mouse":[22,37,56,76,95,116,135,155,176,197,217,235,255,275,295,316,335,356,376,397,415,435,455,476,496,515,535,557,575,595,617,635,655,677,695,715,735,755,777,796,815,835,856,876,895,915,935,956,976,997,1016,1035,1055,1077,1095,1116,1135,1156,1177,1195,1217,1235,1256,1277,1295,1315,1336,1355,1375,1395,1415,1436,1457,1475,1495,1515,1535,1555,1577,1595,1615,1635,1655,1675,1695,1715,1735,1755,1776,1795,1816,1835,1855,1875,1895,1915,1935],"xSR":741.5,"ySR":573.95,"xT1":424.9,"yT1":0,"xT2":1058.1,"yT2":0,"toosoon":0,"cond_shown":"Incongruent","ratio_trial":300,"L_num":1,"L_den":2,"R_num":2,"R_den":10,"correct_side":1,"subjID":"Juansantiagotochoy28","gender":"0","school":"6","age":"11"},{"start_time":1551899840377,"click_time":1551899842325,"finger_time":1551899842205,"fix_duration":250,"trial":11,"RT":1828,"MT":120,"sideResp":1,"stimulus":[],"xmouse":[776,776,776,776,776,776,776,776,776,776,776,776,776,776,776,776,776,776,776,776,776,776,776,776,776,776,776,776,776,776,776,776,776,776,776,776,776,776,778,778,779,779,779,779,779,780,781,781,781,781,781,781,781,781,781,781,781,781,781,781,781,781,781,781,781,781,781,781,781,781,781,781,781,781,781,781,781,781,781,781,781,781,781,781,779,777,775,775,775,773,770,752,718,663,640,574,518,495],"ymouse":[622,622,622,622,622,622,622,622,622,622,622,622,622,622,622,622,622,622,622,622,622,622,622,622,622,622,622,622,622,622,622,622,622,622,622,622,622,622,621,621,621,621,621,621,621,621,621,621,621,621,621,621,621,621,621,621,621,621,621,621,621,621,621,621,621,621,621,621,621,621,621,621,621,621,621,621,621,621,621,621,621,621,621,616,608,599,596,593,591,585,576,531,472,376,339,219,137,98],"timestamp_mouse":[10,43,57,69,89,109,128,149,168,189,208,228,248,269,288,309,328,350,369,389,408,428,448,469,488,510,529,548,568,588,609,628,648,668,689,708,728,748,768,788,808,828,848,868,888,909,929,948,969,988,1008,1028,1049,1070,1089,1109,1130,1148,1169,1189,1209,1229,1249,1269,1290,1309,1328,1348,1368,1389,1408,1428,1450,1469,1489,1508,1530,1548,1569,1589,1608,1630,1650,1668,1688,1709,1729,1748,1768,1788,1808,1828,1849,1868,1889,1908,1929,1948],"xSR":741.5,"ySR":573.95,"xT1":424.9,"yT1":0,"xT2":1058.1,"yT2":0,"toosoon":0,"cond_shown":"Incongruent","ratio_trial":200,"L_num":14,"L_den":30,"R_num":6,"R_den":9,"correct_side":2,"subjID":"Juansantiagotochoy28","gender":"0","school":"6","age":"11"},{"start_time":1551899845977,"click_time":1551899847205,"finger_time":1551899847005,"fix_duration":250,"trial":12,"RT":1028,"MT":200,"sideResp":1,"stimulus":[],"xmouse":[780,780,780,780,780,780,780,780,780,780,780,780,780,780,780,780,780,780,780,780,780,780,780,780,780,780,780,780,780,780,780,780,780,780,780,780,780,780,780,780,780,780,780,780,780,780,780,780,780,780,778,743,712,664,601,569,540,536,534,530,529,524],"ymouse":[626,626,626,626,626,626,626,626,626,626,626,626,626,626,626,626,626,626,626,626,626,626,626,626,626,626,626,626,626,626,626,626,626,626,626,626,626,626,626,626,626,626,626,626,626,626,626,626,621,612,590,475,372,274,164,109,57,47,34,21,16,4],"timestamp_mouse":[10,41,49,70,89,109,129,149,169,189,209,230,248,269,288,309,328,348,368,388,409,430,449,468,489,508,529,548,570,589,608,630,648,669,688,708,729,748,768,790,809,828,849,869,888,910,930,949,968,989,1009,1028,1048,1068,1090,1109,1129,1148,1168,1189,1208,1228],"xSR":741.5,"ySR":573.95,"xT1":424.9,"yT1":0,"xT2":1058.1,"yT2":0,"toosoon":0,"cond_shown":"Congruent","ratio_trial":300,"L_num":20,"L_den":25,"R_num":5,"R_den":10,"correct_side":1,"subjID":"Juansantiagotochoy28","gender":"0","school":"6","age":"11"},{"start_time":1551899848958,"click_time":1551899851905,"finger_time":1551899851486,"fix_duration":250,"trial":13,"RT":2528,"MT":419,"sideResp":1,"stimulus":[],"xmouse":[779,779,779,779,779,779,779,779,779,779,779,779,779,779,779,779,779,779,779,779,779,779,779,779,779,779,779,779,779,779,779,779,779,779,779,779,779,779,779,779,779,779,779,779,779,779,779,779,779,779,779,779,779,779,779,779,779,779,779,779,779,779,779,779,779,779,779,779,779,779,779,779,779,779,779,779,779,779,779,779,779,779,779,779,779,779,779,779,779,779,779,779,779,779,779,779,779,779,779,779,779,779,779,779,779,779,779,779,779,779,779,779,779,779,779,779,779,779,779,779,779,779,779,780,780,780,780,780,775,759,738,712,678,668,653,645,638,617,602,580,566,552,536,530,526,523,518,506],"ymouse":[621,621,621,621,621,621,621,621,621,621,621,621,621,621,621,621,621,621,621,621,621,621,621,621,621,621,621,621,621,621,621,621,621,621,621,621,621,621,621,621,621,621,621,621,621,621,621,621,621,621,621,621,621,621,621,621,621,621,621,621,621,621,621,621,621,621,621,621,621,621,621,621,621,621,621,621,621,621,621,621,621,621,621,621,621,621,621,621,621,621,621,621,621,621,621,621,621,621,621,621,621,621,621,621,621,621,621,621,621,621,621,621,621,621,621,621,621,621,621,621,621,621,621,612,600,588,568,518,482,425,364,319,267,255,235,223,212,190,178,161,151,143,133,129,125,119,109,88],"timestamp_mouse":[10,34,48,67,87,107,127,149,169,187,208,227,249,267,288,307,329,348,369,388,407,429,448,469,487,508,527,548,568,588,607,628,647,667,688,708,727,748,767,787,808,827,849,868,887,908,927,948,967,989,1008,1028,1049,1068,1087,1108,1128,1148,1168,1188,1207,1229,1248,1268,1287,1308,1327,1347,1368,1388,1408,1427,1447,1469,1488,1508,1527,1548,1567,1588,1608,1628,1649,1668,1687,1709,1728,1747,1767,1788,1808,1828,1848,1868,1887,1908,1928,1947,1969,1988,2008,2028,2047,2069,2087,2108,2127,2149,2168,2187,2208,2229,2247,2268,2289,2309,2328,2347,2369,2387,2408,2427,2448,2469,2487,2509,2528,2547,2567,2592,2608,2627,2647,2669,2687,2708,2728,2748,2767,2788,2807,2828,2847,2867,2887,2909,2927,2947],"xSR":741.5,"ySR":573.95,"xT1":424.9,"yT1":0,"xT2":1058.1,"yT2":0,"toosoon":0,"cond_shown":"Congruent","ratio_trial":100,"L_num":11,"L_den":22,"R_num":6,"R_den":15,"correct_side":1,"subjID":"Juansantiagotochoy28","gender":"0","school":"6","age":"11"},{"start_time":1551899862439,"click_time":1551899864407,"finger_time":1551899863845,"fix_duration":353.2707764693237,"trial":14,"RT":1406,"MT":562,"sideResp":2,"stimulus":[],"xmouse":[801,801,801,801,801,801,801,801,801,801,801,801,801,801,801,801,801,801,801,801,801,801,801,801,801,801,801,801,801,801,801,801,801,801,801,801,801,801,801,801,801,801,801,801,801,801,801,801,801,801,801,801,801,801,801,801,801,801,801,801,801,801,801,801,801,801,801,801,804,807,815,831,859,880,886,893,901,910,929,939,954,986,1000,1017,1021,1022,1025,1027,1034,1038,1039,1041,1041,1042,1044,1046,1047,1053,1061],"ymouse":[626,626,626,626,626,626,626,626,626,626,626,626,626,626,626,626,626,626,626,626,626,626,626,626,626,626,626,626,626,626,626,626,626,626,626,626,626,626,626,626,626,626,626,626,626,626,626,626,626,626,626,626,626,626,626,626,626,626,626,626,626,626,626,626,626,626,626,622,606,592,570,534,473,422,401,383,364,347,310,286,260,198,165,127,114,108,101,94,76,67,64,62,61,60,59,57,55,52,49],"timestamp_mouse":[11,32,47,67,86,106,128,147,167,187,208,227,247,267,286,306,327,348,366,386,408,427,446,466,486,507,526,546,568,587,606,626,647,666,687,706,727,746,767,787,806,827,846,868,886,907,928,947,968,987,1006,1026,1047,1066,1086,1106,1126,1147,1167,1187,1207,1227,1247,1267,1286,1308,1327,1346,1366,1387,1406,1426,1446,1466,1486,1506,1526,1547,1566,1587,1607,1628,1647,1668,1686,1706,1726,1746,1766,1788,1806,1827,1847,1867,1887,1907,1927,1947,1968],"xSR":741.5,"ySR":573.95,"xT1":424.9,"yT1":0,"xT2":1058.1,"yT2":0,"toosoon":0,"cond_shown":"Congruent","ratio_trial":300,"L_num":1,"L_den":5,"R_num":11,"R_den":22,"correct_side":2,"subjID":"Juansantiagotochoy28","gender":"0","school":"6","age":"11"},{"start_time":1551899865928,"click_time":1551899867525,"finger_time":1551899867387,"fix_duration":480.6562466821929,"trial":15,"RT":1459,"MT":138,"sideResp":1,"stimulus":[],"xmouse":[806,806,806,806,806,806,806,806,806,806,806,806,806,806,806,806,806,806,806,806,806,806,806,806,806,806,806,806,806,806,806,806,806,806,806,806,806,806,806,806,806,806,806,806,806,806,806,806,806,806,806,806,806,806,806,806,806,806,806,806,806,806,806,806,806,806,806,806,806,806,806,806,797,771,738,700,654,608,532,516],"ymouse":[618,618,618,618,618,618,618,618,618,618,618,618,618,618,618,618,618,618,618,618,618,618,618,618,618,618,618,618,618,618,618,618,618,618,618,618,618,618,618,618,618,618,618,618,618,618,618,618,618,618,618,618,618,618,618,618,618,618,618,618,618,618,618,618,618,618,618,618,618,618,618,617,563,476,389,302,225,164,63,42],"timestamp_mouse":[18,41,57,78,97,117,138,159,177,197,219,238,258,277,297,317,337,357,377,397,418,437,457,478,497,517,539,558,578,598,618,637,659,677,697,719,737,758,778,797,818,837,858,879,897,919,937,957,977,997,1017,1037,1057,1078,1099,1118,1137,1159,1179,1197,1219,1239,1258,1277,1297,1318,1337,1357,1378,1397,1419,1437,1459,1478,1499,1517,1537,1558,1577,1597],"xSR":741.5,"ySR":573.95,"xT1":424.9,"yT1":0,"xT2":1058.1,"yT2":0,"toosoon":0,"cond_shown":"Incongruent","ratio_trial":100,"L_num":12,"L_den":24,"R_num":9,"R_den":15,"correct_side":2,"subjID":"Juansantiagotochoy28","gender":"0","school":"6","age":"11"},{"start_time":1551899869086,"click_time":1551899870725,"finger_time":1551899869886,"fix_duration":279.70652421446187,"trial":16,"RT":800,"MT":839,"sideResp":1,"stimulus":[],"xmouse":[783,783,783,783,783,783,783,783,783,783,783,783,783,783,783,783,783,783,783,783,783,783,783,783,783,783,783,783,783,783,783,783,783,783,783,783,783,783,783,783,774,748,738,729,719,705,678,668,658,647,635,623,613,607,602,590,586,582,578,576,576,576,576,576,574,568,554,552,550,549,544,534,530,527,526,525,524,524,524,524,524,517,509],"ymouse":[623,623,623,623,623,623,623,623,623,623,623,623,623,623,623,623,623,623,623,623,623,623,623,623,623,623,623,623,623,623,623,623,623,623,623,623,623,623,622,609,572,522,505,488,463,430,368,345,320,301,277,250,228,213,197,164,149,134,125,122,121,121,121,121,119,115,111,110,109,108,108,106,105,105,105,105,105,105,105,105,105,100,96],"timestamp_mouse":[8,31,40,59,79,101,119,139,160,181,199,220,241,260,281,299,320,339,361,380,399,420,439,460,480,499,520,539,560,580,600,619,639,660,679,700,719,739,759,780,799,820,840,860,880,900,919,939,959,980,999,1021,1039,1061,1079,1101,1119,1140,1160,1179,1200,1220,1240,1259,1280,1301,1320,1340,1359,1380,1399,1420,1439,1461,1480,1501,1521,1541,1559,1580,1599,1620,1639],"xSR":741.5,"ySR":573.95,"xT1":424.9,"yT1":0,"xT2":1058.1,"yT2":0,"toosoon":0,"cond_shown":"Congruent","ratio_trial":200,"L_num":20,"L_den":25,"R_num":9,"R_den":15,"correct_side":1,"subjID":"Juansantiagotochoy28","gender":"0","school":"6","age":"11"},{"start_time":1551899872646,"click_time":1551899874646,"finger_time":1551899873986,"fix_duration":737.9965107033038,"trial":17,"RT":1340,"MT":660,"sideResp":2,"stimulus":[],"xmouse":[794,794,794,794,794,794,794,794,794,794,794,794,794,794,794,794,794,794,794,794,794,794,794,794,794,794,794,794,794,794,794,794,794,794,794,794,794,794,794,794,794,794,794,794,794,794,794,794,794,794,794,794,794,794,794,794,794,794,794,794,794,794,794,794,794,794,794,801,806,809,817,822,827,842,846,853,861,870,907,922,934,952,961,976,981,987,993,999,1004,1005,1005,1005,1008,1011,1013,1017,1020,1025,1043,1053,1065],"ymouse":[622,622,622,622,622,622,622,622,622,622,622,622,622,622,622,622,622,622,622,622,622,622,622,622,622,622,622,622,622,622,622,622,622,622,622,622,622,622,622,622,622,622,622,622,622,622,622,622,622,622,622,622,622,622,622,622,622,622,622,622,622,622,622,622,622,616,605,565,529,511,488,471,460,416,402,390,373,355,291,267,245,214,193,165,154,134,110,100,91,89,87,85,80,73,71,67,62,58,46,39,33],"timestamp_mouse":[1,20,40,60,79,99,119,139,159,179,201,219,240,259,280,300,320,339,361,379,400,419,440,461,479,499,520,540,561,579,599,619,641,660,680,699,720,739,760,779,801,821,840,860,880,901,919,940,961,979,1001,1020,1039,1059,1079,1100,1120,1140,1160,1180,1201,1219,1239,1259,1279,1300,1320,1340,1359,1380,1399,1419,1440,1460,1480,1499,1519,1540,1559,1581,1599,1619,1639,1660,1680,1699,1719,1739,1761,1779,1800,1819,1839,1859,1880,1901,1920,1939,1959,1979,2000],"xSR":741.5,"ySR":573.95,"xT1":424.9,"yT1":0,"xT2":1058.1,"yT2":0,"toosoon":0,"cond_shown":"Congruent","ratio_trial":200,"L_num":7,"L_den":15,"R_num":18,"R_den":27,"correct_side":2,"subjID":"Juansantiagotochoy28","gender":"0","school":"6","age":"11"},{"start_time":1551899876896,"click_time":1551899879526,"finger_time":1551899879166,"fix_duration":1107.576647329342,"trial":18,"RT":2270,"MT":360,"sideResp":2,"stimulus":[],"xmouse":[798,798,798,798,798,798,798,798,798,798,798,798,798,798,798,798,798,798,798,798,798,798,798,798,798,798,798,798,798,798,798,798,798,798,798,798,798,798,798,798,798,798,798,798,798,798,798,798,798,798,798,798,798,798,798,798,798,798,798,798,798,798,798,798,798,798,798,798,798,798,798,798,798,798,798,798,798,798,798,798,798,798,798,798,794,781,767,754,746,744,744,744,744,744,744,744,744,744,744,744,744,744,744,744,744,744,746,747,756,762,766,769,777,787,796,817,828,839,853,872,911,931,948,962,975,989,993,996,1006,1010,1065,1117],"ymouse":[617,617,617,617,617,617,617,617,617,617,617,617,617,617,617,617,617,617,617,617,617,617,617,617,617,617,617,617,617,617,617,617,617,617,617,617,617,617,617,617,617,617,617,617,617,617,617,617,617,617,617,617,617,617,617,617,617,617,617,617,617,617,617,617,617,617,617,617,617,617,617,617,617,617,617,617,617,617,617,617,617,617,617,617,618,615,611,606,603,603,603,603,603,603,603,603,603,603,603,603,603,603,603,603,603,603,603,603,603,601,600,596,586,569,553,521,502,483,459,431,360,330,308,290,276,260,255,251,233,226,149,92],"timestamp_mouse":[10,38,49,70,91,109,129,149,169,190,209,229,250,271,290,310,330,350,371,389,410,431,449,469,490,510,529,549,569,591,609,629,650,669,690,709,729,751,770,789,810,829,850,871,889,910,930,950,969,991,1009,1030,1050,1071,1090,1110,1130,1150,1171,1190,1211,1229,1249,1269,1289,1311,1331,1351,1369,1390,1410,1431,1451,1469,1491,1509,1529,1551,1569,1589,1611,1629,1650,1669,1690,1709,1729,1750,1769,1789,1810,1830,1849,1871,1890,1911,1929,1949,1970,1990,2009,2029,2049,2071,2090,2110,2131,2150,2170,2190,2210,2229,2250,2270,2290,2309,2330,2350,2369,2389,2409,2429,2450,2470,2490,2509,2529,2549,2569,2589,2610,2630],"xSR":741.5,"ySR":573.95,"xT1":424.9,"yT1":0,"xT2":1058.1,"yT2":0,"toosoon":0,"cond_shown":"Congruent","ratio_trial":100,"L_num":3,"L_den":20,"R_num":4,"R_den":16,"correct_side":2,"subjID":"Juansantiagotochoy28","gender":"0","school":"6","age":"11"},{"start_time":1551899881817,"click_time":1551899883906,"finger_time":1551899883466,"fix_duration":1411.4311673386844,"trial":19,"RT":1649,"MT":440,"sideResp":2,"stimulus":[],"xmouse":[795,795,795,795,795,795,795,795,795,795,795,795,795,795,795,795,795,795,795,795,795,795,795,795,795,795,795,795,795,795,795,795,795,795,795,795,795,795,795,795,795,795,795,795,795,795,795,795,795,795,795,795,795,795,795,795,795,795,795,795,795,795,795,795,795,795,795,795,795,795,795,795,795,795,795,795,795,795,795,802,828,838,875,915,986,1011,1028,1040,1049,1061,1069,1076,1084,1089,1094,1095,1097,1099,1100,1103,1103,1103,1101,1098,1094],"ymouse":[640,640,640,640,640,640,640,640,640,640,640,640,640,640,640,640,640,640,640,640,640,640,640,640,640,640,640,640,640,640,640,640,640,640,640,640,640,640,640,640,640,640,640,640,640,640,640,640,640,640,640,640,640,640,640,640,640,640,640,640,640,640,640,640,640,640,640,640,640,640,640,640,640,640,640,640,640,640,640,636,617,609,579,545,467,429,403,381,366,342,323,308,286,274,257,251,243,237,227,204,189,167,135,111,73],"timestamp_mouse":[10,36,48,68,89,108,128,148,169,188,210,228,248,269,289,308,328,348,368,388,408,429,448,468,488,509,528,548,569,588,608,629,648,668,690,708,730,748,768,789,810,828,848,868,890,908,928,948,970,989,1009,1028,1049,1069,1090,1108,1129,1149,1168,1190,1208,1229,1249,1269,1288,1308,1329,1349,1368,1390,1408,1428,1448,1468,1490,1508,1528,1549,1569,1588,1609,1628,1649,1669,1689,1708,1729,1749,1769,1788,1808,1829,1850,1869,1890,1908,1928,1948,1968,1988,2010,2028,2050,2069,2089],"xSR":741.5,"ySR":573.95,"xT1":424.9,"yT1":0,"xT2":1058.1,"yT2":0,"toosoon":0,"cond_shown":"Incongruent","ratio_trial":200,"L_num":4,"L_den":30,"R_num":1,"R_den":3,"correct_side":2,"subjID":"Juansantiagotochoy28","gender":"0","school":"6","age":"11"},{"start_time":1551899885318,"click_time":1551899887286,"finger_time":1551899887005,"fix_duration":250,"trial":20,"RT":1687,"MT":281,"sideResp":1,"stimulus":[],"xmouse":[816,816,815,815,815,815,815,815,815,815,815,815,815,815,815,815,815,815,815,815,815,815,815,815,815,815,815,815,815,815,815,815,815,815,815,815,815,815,815,815,815,815,815,815,815,815,815,815,815,815,815,815,815,815,815,815,815,815,815,815,815,815,815,815,815,815,815,815,815,815,815,815,815,815,815,815,815,815,815,815,815,815,811,798,669,594,543,521,512,511,510,510,510,510,510,510,510,507,504],"ymouse":[622,622,623,624,624,624,624,624,624,624,624,624,624,624,624,624,624,624,624,624,624,624,624,624,624,624,624,624,624,624,624,624,624,624,624,624,624,624,624,624,624,624,624,624,624,624,624,624,624,624,624,624,624,624,624,624,624,624,624,624,624,624,624,624,624,624,624,624,624,624,624,624,624,624,624,624,624,624,624,624,624,624,624,607,365,251,178,147,125,118,116,116,116,116,116,112,107,102,94],"timestamp_mouse":[19,40,49,68,87,108,128,148,168,187,207,229,248,267,287,309,327,349,367,388,407,427,447,467,489,509,527,549,567,587,607,629,648,668,687,708,729,748,767,787,808,829,848,868,888,909,928,947,969,987,1007,1027,1049,1067,1087,1108,1127,1148,1168,1188,1207,1229,1247,1268,1287,1307,1329,1347,1368,1388,1407,1427,1447,1467,1488,1508,1528,1548,1568,1587,1608,1627,1647,1669,1687,1708,1727,1749,1768,1787,1807,1827,1848,1867,1887,1907,1927,1948,1968],"xSR":741.5,"ySR":573.95,"xT1":424.9,"yT1":0,"xT2":1058.1,"yT2":0,"toosoon":0,"cond_shown":"Congruent","ratio_trial":200,"L_num":3,"L_den":10,"R_num":7,"R_den":14,"correct_side":2,"subjID":"Juansantiagotochoy28","gender":"0","school":"6","age":"11"},{"start_time":1551899889174,"click_time":1551899891365,"finger_time":1551899890985,"fix_duration":647.702963857949,"trial":21,"RT":1811,"MT":380,"sideResp":1,"stimulus":[],"xmouse":[807,807,807,807,807,807,807,807,807,807,807,807,807,807,807,807,807,807,807,807,807,807,807,807,807,807,807,807,807,807,807,807,807,807,807,807,807,807,807,807,807,807,807,807,807,807,807,807,807,807,807,807,807,807,807,807,807,807,807,807,807,807,807,807,807,807,807,807,807,807,807,807,807,807,807,807,807,807,807,807,807,807,807,807,807,807,807,807,807,794,779,689,635,588,549,531,506,499,490,481,472,468,467,467,466,466,466,466,466,467],"ymouse":[621,621,621,621,621,621,621,621,621,621,621,621,621,621,621,621,621,621,621,621,621,621,621,621,621,621,621,621,621,621,621,621,621,621,621,621,621,621,621,621,621,621,621,621,621,621,621,621,621,621,621,621,621,621,621,621,621,621,621,621,621,621,621,621,621,621,621,621,621,621,621,621,621,621,621,621,621,621,621,621,621,621,621,621,621,621,621,621,621,584,555,418,354,297,254,233,203,192,180,163,148,133,125,122,116,112,106,104,101,99],"timestamp_mouse":[11,38,51,72,91,112,131,152,173,192,212,232,251,272,293,311,332,353,372,391,412,432,451,471,491,512,532,551,573,592,612,631,653,671,691,711,731,751,771,791,812,831,851,871,892,911,932,951,971,991,1011,1031,1051,1071,1091,1111,1132,1152,1172,1191,1211,1233,1251,1273,1292,1312,1333,1351,1372,1391,1411,1432,1452,1471,1492,1511,1531,1552,1571,1592,1612,1632,1652,1671,1692,1712,1732,1751,1771,1791,1811,1831,1852,1872,1891,1911,1932,1951,1972,1992,2011,2031,2051,2072,2092,2112,2131,2151,2171,2191],"xSR":741.5,"ySR":573.95,"xT1":424.9,"yT1":0,"xT2":1058.1,"yT2":0,"toosoon":0,"cond_shown":"Congruent","ratio_trial":300,"L_num":3,"L_den":6,"R_num":4,"R_den":5,"correct_side":2,"subjID":"Juansantiagotochoy28","gender":"0","school":"6","age":"11"},{"start_time":1551899892614,"click_time":1551899894307,"finger_time":1551899893885,"fix_duration":367.172115585181,"trial":22,"RT":1271,"MT":422,"sideResp":2,"stimulus":[],"xmouse":[768,768,768,768,768,768,768,768,768,768,768,768,768,768,768,768,768,768,768,768,768,768,768,768,768,768,768,768,768,768,768,768,768,768,768,768,768,768,768,768,768,768,768,768,768,768,768,768,768,768,768,768,768,768,768,768,768,768,768,768,777,790,822,953,1159,1229,1268,1291,1299,1302,1302,1302,1302,1299,1280,1267,1250,1230,1204,1195,1185,1176,1165,1159,1156],"ymouse":[623,623,623,623,623,623,623,623,623,623,623,623,623,623,623,623,623,623,623,623,623,623,623,623,623,623,623,623,623,623,623,623,623,623,623,623,623,623,623,623,623,623,623,623,623,623,623,623,623,623,623,623,623,623,623,623,623,623,623,623,616,606,585,513,390,344,313,292,278,254,236,204,193,157,120,105,96,89,82,80,79,77,76,75,74],"timestamp_mouse":[13,36,51,71,91,111,131,152,173,193,211,231,252,271,292,311,333,351,372,391,411,432,451,471,491,511,531,551,573,591,611,632,651,671,691,712,733,752,773,791,811,832,851,871,892,911,931,953,971,991,1011,1031,1052,1072,1091,1111,1131,1151,1172,1192,1212,1231,1253,1271,1292,1311,1332,1352,1372,1391,1412,1431,1452,1472,1491,1512,1531,1552,1573,1591,1612,1632,1652,1672,1693],"xSR":741.5,"ySR":573.95,"xT1":424.9,"yT1":0,"xT2":1058.1,"yT2":0,"toosoon":0,"cond_shown":"Congruent","ratio_trial":200,"L_num":5,"L_den":10,"R_num":14,"R_den":20,"correct_side":2,"subjID":"Juansantiagotochoy28","gender":"0","school":"6","age":"11"},{"start_time":1551899897691,"click_time":1551899899746,"finger_time":1551899899147,"fix_duration":1144.2193822429724,"trial":23,"RT":1456,"MT":599,"sideResp":2,"stimulus":[],"xmouse":[786,786,786,786,786,786,786,786,786,786,786,786,786,786,786,786,786,786,786,786,786,786,786,786,786,786,786,786,786,786,786,786,786,786,786,786,786,786,786,786,786,786,786,786,786,786,786,786,786,786,786,786,786,786,786,786,786,786,786,786,786,786,786,786,786,786,786,786,786,786,786,794,867,967,1072,1263,1326,1355,1365,1373,1380,1380,1380,1374,1369,1355,1342,1298,1263,1227,1179,1170,1167,1167,1167,1167,1167,1167,1167,1167,1166,1162,1154],"ymouse":[618,618,618,618,618,618,618,618,618,618,618,618,618,618,618,618,618,618,618,618,618,618,618,618,618,618,618,618,618,618,618,618,618,618,618,618,618,618,618,618,618,618,618,618,618,618,618,618,618,618,618,618,618,618,618,618,618,618,618,618,618,618,618,618,618,618,618,618,618,618,618,597,519,418,310,137,80,49,32,12,0,0,0,0,0,0,0,2,8,17,30,34,36,36,36,36,36,36,36,36,37,40,45],"timestamp_mouse":[15,34,54,75,94,116,135,155,175,194,215,235,254,276,294,314,334,354,375,395,415,434,454,474,495,514,534,554,574,595,615,634,654,676,695,714,734,755,774,794,815,834,854,874,894,915,935,954,974,994,1015,1034,1055,1076,1095,1114,1134,1154,1174,1194,1214,1234,1254,1274,1294,1315,1336,1354,1375,1395,1414,1434,1456,1474,1495,1515,1534,1554,1574,1594,1614,1635,1654,1674,1695,1714,1735,1754,1775,1795,1815,1834,1855,1875,1895,1915,1934,1955,1975,1995,2015,2034,2055],"xSR":741.5,"ySR":573.95,"xT1":424.9,"yT1":0,"xT2":1058.1,"yT2":0,"toosoon":0,"cond_shown":"Congruent","ratio_trial":300,"L_num":8,"L_den":15,"R_num":10,"R_den":12,"correct_side":2,"subjID":"Juansantiagotochoy28","gender":"0","school":"6","age":"11"},{"start_time":1551899901589,"click_time":1551899905046,"finger_time":1551899904525,"fix_duration":523.5959249761087,"trial":24,"RT":2936,"MT":521,"sideResp":1,"stimulus":[],"xmouse":[772,772,772,772,772,772,772,772,772,772,772,772,772,772,772,772,772,772,772,772,772,772,772,772,772,772,772,772,772,772,772,772,772,772,772,772,772,772,772,772,772,772,772,772,772,772,772,772,772,772,772,772,772,772,772,772,772,772,772,772,772,772,772,772,772,772,772,772,772,772,772,772,772,772,772,772,772,772,772,772,772,772,772,772,772,772,772,772,772,772,772,772,772,772,772,772,772,772,772,772,772,772,772,772,772,772,772,772,772,772,772,772,772,772,772,772,772,772,772,772,772,772,772,772,772,772,772,772,772,772,772,772,772,772,772,772,772,772,772,772,772,772,772,772,772,772,560,560,560,560,560,560,560,560,560,560,560,560,560,560,556,542,537,522,512,503,500,498,498,497,497,497,497],"ymouse":[596,596,596,596,596,596,596,596,596,596,596,596,596,596,596,596,596,596,596,596,596,596,596,596,596,596,596,596,596,596,596,596,596,596,596,596,596,596,596,596,596,596,596,596,596,596,596,596,596,596,596,596,596,596,596,596,596,596,596,596,596,596,596,596,596,596,596,596,596,596,596,596,596,596,596,596,596,596,596,596,596,596,596,596,596,596,596,596,596,596,596,596,596,596,596,596,596,596,596,596,596,596,596,596,596,596,596,596,596,596,596,596,596,596,596,596,596,596,596,596,596,596,596,596,596,596,596,596,596,596,596,596,596,596,596,596,596,596,596,596,596,596,596,596,596,596,213,213,213,213,213,213,213,213,213,213,213,213,213,213,204,183,179,164,154,143,138,132,131,126,117,108,93],"timestamp_mouse":[31,38,56,76,96,118,136,157,176,197,217,236,256,277,296,317,336,357,376,397,417,436,456,476,498,517,537,557,577,597,616,637,657,677,698,716,736,757,776,797,818,836,856,876,897,917,936,957,976,996,1016,1037,1057,1077,1096,1116,1136,1157,1176,1197,1216,1236,1256,1276,1296,1316,1336,1357,1376,1398,1416,1436,1456,1476,1496,1516,1536,1557,1577,1596,1616,1637,1657,1677,1697,1717,1737,1757,1776,1797,1816,1837,1856,1876,1896,1917,1937,1956,1976,1997,2017,2036,2056,2078,2097,2118,2136,2157,2176,2196,2216,2236,2257,2276,2297,2317,2337,2356,2377,2397,2416,2436,2456,2476,2496,2517,2536,2556,2576,2597,2616,2636,2656,2676,2696,2716,2736,2757,2776,2796,2816,2836,2856,2876,2897,2918,2936,2957,2976,2996,3016,3037,3056,3076,3097,3117,3136,3157,3176,3198,3216,3237,3256,3276,3296,3317,3336,3357,3376,3397,3416,3436,3457],"xSR":741.5,"ySR":573.95,"xT1":424.9,"yT1":0,"xT2":1058.1,"yT2":0,"toosoon":0,"cond_shown":"Congruent","ratio_trial":200,"L_num":11,"L_den":22,"R_num":3,"R_den":10,"correct_side":1,"subjID":"Juansantiagotochoy28","gender":"0","school":"6","age":"11"},{"start_time":1551899907495,"click_time":1551899908885,"finger_time":1551899908785,"fix_duration":1467.5710874777972,"trial":25,"RT":1290,"MT":100,"sideResp":2,"stimulus":[],"xmouse":[812,812,812,812,812,812,812,812,812,812,812,812,812,812,812,812,812,812,812,812,812,812,812,812,812,812,812,812,812,812,812,812,812,812,812,812,812,812,812,812,812,812,812,812,812,812,812,812,812,812,812,812,812,812,812,812,812,812,812,812,812,812,816,821,842,906,943,981,1027,1083],"ymouse":[613,613,613,613,613,613,613,613,613,613,613,613,613,613,613,613,613,613,613,613,613,613,613,613,613,613,613,613,613,613,613,613,613,613,613,613,613,613,613,613,613,613,613,613,613,613,613,613,613,613,613,613,613,613,613,613,613,613,613,613,613,613,603,590,554,447,381,302,202,44],"timestamp_mouse":[11,41,52,71,91,110,132,150,172,192,211,232,251,271,291,310,330,351,370,391,410,430,450,471,491,512,530,551,570,591,610,632,651,671,692,710,730,751,770,791,812,830,850,870,891,912,930,950,970,991,1011,1031,1051,1070,1091,1111,1130,1150,1171,1191,1210,1230,1252,1271,1290,1310,1330,1350,1371,1390],"xSR":741.5,"ySR":573.95,"xT1":424.9,"yT1":0,"xT2":1058.1,"yT2":0,"toosoon":0,"cond_shown":"Incongruent","ratio_trial":300,"L_num":4,"L_den":20,"R_num":2,"R_den":4,"correct_side":2,"subjID":"Juansantiagotochoy28","gender":"0","school":"6","age":"11"},{"start_time":1551899910873,"click_time":1551899912505,"finger_time":1551899912205,"fix_duration":1005.3391517525106,"trial":26,"RT":1332,"MT":300,"sideResp":1,"stimulus":[],"xmouse":[794,794,794,794,794,794,794,794,794,794,794,794,794,794,794,794,794,794,794,794,794,794,794,794,794,794,794,794,794,794,794,794,794,794,794,794,794,794,794,794,794,794,794,794,794,794,794,794,794,794,794,794,794,794,794,794,794,794,794,794,794,794,794,794,794,794,781,762,720,699,676,642,641,639,639,636,629,612,594,570,543,507],"ymouse":[647,646,646,646,646,646,646,646,646,645,645,645,645,645,645,645,645,645,645,645,645,645,645,645,645,645,645,645,645,645,645,645,645,645,645,645,645,645,645,645,645,645,645,645,645,645,645,645,645,645,645,645,645,645,645,645,645,645,645,645,645,645,645,641,634,622,558,491,324,178,55,0,0,0,0,0,0,0,0,0,0,10],"timestamp_mouse":[13,32,52,72,93,113,133,152,172,194,212,232,252,273,292,312,332,353,372,394,412,432,452,473,492,513,533,554,572,592,612,633,652,673,692,712,732,752,772,792,814,832,852,872,892,913,932,952,973,992,1012,1033,1054,1072,1092,1112,1132,1152,1173,1192,1214,1232,1253,1273,1292,1313,1332,1353,1372,1393,1413,1432,1453,1472,1492,1513,1532,1553,1573,1593,1612,1632],"xSR":741.5,"ySR":573.95,"xT1":424.9,"yT1":0,"xT2":1058.1,"yT2":0,"toosoon":0,"cond_shown":"Congruent","ratio_trial":100,"L_num":11,"L_den":22,"R_num":6,"R_den":15,"correct_side":1,"subjID":"Juansantiagotochoy28","gender":"0","school":"6","age":"11"},{"start_time":1551899918776,"click_time":1551899920286,"finger_time":1551899920106,"fix_duration":869.0094341773382,"trial":27,"RT":1330,"MT":180,"sideResp":1,"stimulus":[],"xmouse":[784,784,784,784,784,784,784,784,784,784,784,784,784,784,784,784,784,784,784,784,784,784,784,784,784,784,784,784,784,784,784,784,784,784,784,784,784,784,784,784,784,784,784,784,784,784,784,784,784,784,784,784,784,784,784,784,786,790,794,796,797,797,798,801,806,807,810,810,795,767,728,643,606,572,537,513],"ymouse":[608,608,608,608,608,608,608,608,608,608,608,608,608,608,608,608,608,608,608,608,608,608,608,608,608,608,608,608,608,608,608,608,608,608,608,608,608,608,608,608,608,608,608,608,608,608,608,608,608,608,608,608,608,608,608,608,608,606,603,602,601,601,601,598,586,576,546,517,465,401,339,230,185,149,115,92],"timestamp_mouse":[10,33,49,69,90,110,131,149,169,189,209,231,250,270,290,310,330,349,369,391,409,431,450,469,489,509,531,549,569,589,609,630,649,669,689,710,729,749,770,789,809,830,849,870,891,909,929,951,970,990,1009,1029,1049,1070,1091,1110,1130,1149,1171,1190,1209,1230,1250,1270,1289,1309,1329,1349,1369,1389,1409,1429,1451,1470,1491,1510],"xSR":741.5,"ySR":573.95,"xT1":424.9,"yT1":0,"xT2":1058.1,"yT2":0,"toosoon":0,"cond_shown":"Incongruent","ratio_trial":300,"L_num":7,"L_den":10,"R_num":8,"R_den":20,"correct_side":1,"subjID":"Juansantiagotochoy28","gender":"0","school":"6","age":"11"},{"start_time":1551899924177,"click_time":1551899925966,"finger_time":1551899925405,"fix_duration":610.6111146522562,"trial":28,"RT":1228,"MT":561,"sideResp":1,"stimulus":[],"xmouse":[795,795,795,795,795,795,795,795,795,795,795,795,795,795,795,795,795,795,795,795,795,795,795,795,795,795,795,795,795,795,795,795,795,795,795,795,795,795,795,795,795,795,795,795,795,795,795,795,795,795,795,795,795,795,795,795,795,795,795,795,796,777,751,714,682,615,515,477,440,418,406,395,392,392,392,392,392,392,394,397,400,401,401,402,402,402,402,402,411,428],"ymouse":[614,614,614,614,614,614,614,614,614,614,614,614,614,614,614,614,614,614,614,614,614,614,614,614,614,614,614,614,614,614,614,614,614,614,614,614,614,614,614,614,614,614,614,614,614,614,614,614,614,614,614,614,614,614,614,614,614,614,614,614,613,559,509,457,401,305,175,136,108,92,86,82,80,80,80,80,80,62,56,50,45,44,44,43,43,43,43,43,38,32],"timestamp_mouse":[16,41,48,68,88,109,128,149,169,188,210,228,248,269,288,309,329,349,368,388,408,430,448,468,490,510,528,549,569,588,609,629,648,668,688,709,728,749,768,790,808,829,848,869,889,908,928,949,969,989,1008,1028,1048,1068,1088,1108,1130,1148,1169,1189,1208,1228,1248,1268,1288,1308,1328,1349,1368,1389,1409,1428,1448,1468,1489,1510,1528,1548,1568,1588,1610,1628,1648,1669,1688,1708,1728,1748,1768,1789],"xSR":741.5,"ySR":573.95,"xT1":424.9,"yT1":0,"xT2":1058.1,"yT2":0,"toosoon":0,"cond_shown":"Congruent","ratio_trial":300,"L_num":24,"L_den":30,"R_num":8,"R_den":16,"correct_side":1,"subjID":"Juansantiagotochoy28","gender":"0","school":"6","age":"11"},{"start_time":1551899928407,"click_time":1551899930985,"finger_time":1551899930026,"fix_duration":1379.400488144241,"trial":29,"RT":1619,"MT":959,"sideResp":2,"stimulus":[],"xmouse":[800,800,800,800,800,800,800,800,800,800,800,800,800,800,800,800,800,800,800,800,800,800,800,800,800,800,800,800,800,800,800,800,800,800,800,800,800,800,800,800,800,800,800,800,800,800,800,800,800,800,800,800,800,800,800,800,800,800,800,800,800,800,800,800,800,800,800,800,800,800,800,800,800,800,800,800,800,800,799,781,771,761,761,761,761,761,761,761,761,761,761,761,761,761,761,775,794,814,829,838,838,838,838,838,838,838,838,838,838,838,838,838,838,838,838,840,860,891,939,1013,1030,1037,1046,1048,1054,1056,1061,1066,1075],"ymouse":[630,630,630,630,630,630,630,630,630,630,630,630,630,630,630,630,630,630,630,630,630,630,630,630,630,630,630,630,630,630,630,630,630,630,630,630,630,630,630,630,630,630,630,630,630,630,630,630,630,630,630,630,630,630,630,630,630,630,630,630,630,630,630,630,630,630,630,630,630,630,630,630,630,630,630,630,630,629,622,587,571,559,558,558,558,558,558,558,558,558,558,558,558,558,556,545,533,521,511,505,505,505,505,505,505,505,505,505,505,505,505,505,505,505,505,503,482,451,395,272,219,183,143,135,125,121,112,100,80],"timestamp_mouse":[34,38,59,79,100,118,139,160,178,199,219,238,258,278,298,318,338,358,379,398,419,439,459,478,498,518,539,558,578,599,618,638,659,678,699,719,740,759,778,800,818,838,858,878,899,918,938,958,978,998,1018,1038,1059,1080,1099,1119,1139,1158,1179,1199,1218,1239,1258,1279,1298,1318,1340,1360,1378,1398,1419,1438,1460,1478,1498,1518,1538,1558,1578,1598,1619,1638,1658,1680,1698,1719,1738,1758,1778,1798,1818,1838,1859,1880,1898,1918,1938,1958,1979,1999,2018,2038,2058,2080,2099,2118,2138,2159,2180,2198,2218,2238,2258,2279,2299,2318,2338,2358,2378,2398,2419,2439,2459,2479,2498,2518,2538,2558,2578],"xSR":741.5,"ySR":573.95,"xT1":424.9,"yT1":0,"xT2":1058.1,"yT2":0,"toosoon":0,"cond_shown":"Congruent","ratio_trial":300,"L_num":5,"L_den":25,"R_num":6,"R_den":12,"correct_side":2,"subjID":"Juansantiagotochoy28","gender":"0","school":"6","age":"11"},{"start_time":1551899934115,"click_time":1551899936106,"finger_time":1551899935467,"fix_duration":1447.074018652673,"trial":30,"RT":1352,"MT":639,"sideResp":1,"stimulus":[],"xmouse":[780,780,780,780,780,780,780,780,780,780,784,792,797,798,798,798,798,798,798,798,798,798,798,798,798,798,798,798,798,798,798,798,798,798,798,798,798,798,798,798,798,798,798,798,798,798,798,798,798,798,798,798,798,798,798,798,798,798,798,798,798,798,798,798,798,798,790,784,742,651,606,557,502,433,336,311,295,294,294,294,294,294,294,294,301,318,331,338,344,353,354,358,365,375,393,397,399,403,415,436],"ymouse":[613,613,613,613,613,613,613,613,613,613,615,620,622,622,622,622,622,622,622,622,622,622,622,622,622,622,622,622,622,622,622,622,622,622,622,622,622,622,622,622,622,622,622,622,622,622,622,622,622,622,622,622,622,622,622,622,622,622,622,622,622,622,622,622,622,617,588,564,451,238,131,25,0,0,0,0,0,0,0,0,0,0,0,0,0,1,3,4,5,6,7,7,8,10,13,13,13,13,13,13],"timestamp_mouse":[10,36,51,71,90,110,130,150,171,190,210,231,250,270,290,311,332,351,371,390,411,430,450,471,491,510,531,550,571,592,610,630,651,671,690,710,731,750,772,790,810,830,851,870,890,911,930,950,970,992,1011,1030,1050,1071,1090,1111,1130,1150,1170,1190,1210,1232,1251,1270,1290,1310,1330,1352,1371,1391,1410,1431,1450,1471,1490,1511,1530,1550,1570,1590,1612,1631,1651,1671,1690,1711,1731,1751,1770,1791,1810,1831,1852,1871,1890,1910,1930,1950,1970,1991],"xSR":741.5,"ySR":573.95,"xT1":424.9,"yT1":0,"xT2":1058.1,"yT2":0,"toosoon":0,"cond_shown":"Incongruent","ratio_trial":300,"L_num":1,"L_den":2,"R_num":2,"R_den":10,"correct_side":1,"subjID":"Juansantiagotochoy28","gender":"0","school":"6","age":"11"},{"start_time":1551899938113,"click_time":1551899939685,"finger_time":1551899939347,"fix_duration":1046.677294592698,"trial":31,"RT":1234,"MT":338,"sideResp":2,"stimulus":[],"xmouse":[794,794,794,794,794,794,794,794,794,794,794,794,794,794,794,794,794,794,794,794,794,794,794,794,794,794,794,794,794,794,794,794,794,794,794,794,794,794,794,794,794,794,794,794,794,794,794,794,794,794,794,794,794,794,794,794,794,794,794,806,834,864,912,972,1089,1138,1167,1172,1167,1164,1163,1162,1156,1142,1094,1074,1061,1060,1060],"ymouse":[630,630,630,630,630,630,630,630,630,630,630,630,630,630,630,630,630,630,630,630,630,630,630,630,630,630,630,630,630,630,630,630,630,630,630,630,630,630,630,630,630,630,630,630,630,630,630,630,630,630,630,630,630,630,630,630,630,630,630,614,574,534,469,387,223,145,58,0,0,0,0,0,0,0,0,0,0,0,1],"timestamp_mouse":[13,39,53,72,93,112,133,152,172,192,212,234,252,273,292,312,333,352,372,393,412,433,452,472,492,512,534,553,573,594,612,633,653,674,693,712,733,753,774,793,812,832,854,873,894,912,934,953,973,992,1013,1032,1053,1073,1094,1113,1134,1152,1172,1193,1212,1234,1252,1272,1292,1313,1333,1352,1373,1394,1413,1433,1452,1474,1492,1512,1532,1552,1572],"xSR":741.5,"ySR":573.95,"xT1":424.9,"yT1":0,"xT2":1058.1,"yT2":0,"toosoon":0,"cond_shown":"Incongruent","ratio_trial":300,"L_num":4,"L_den":20,"R_num":2,"R_den":4,"correct_side":2,"subjID":"Juansantiagotochoy28","gender":"0","school":"6","age":"11"},{"start_time":1551899941376,"click_time":1551899942945,"finger_time":1551899942725,"fix_duration":410.6626526435699,"trial":32,"RT":1349,"MT":220,"sideResp":1,"stimulus":[],"xmouse":[822,822,822,822,822,822,822,822,822,822,822,822,822,822,822,822,822,822,822,822,822,822,822,822,822,822,822,822,822,822,822,822,822,822,822,822,822,822,822,822,822,822,822,822,822,822,822,822,822,822,822,822,822,822,822,822,822,822,822,822,822,822,822,822,822,823,824,819,810,801,790,764,753,732,712,682,564,488,425],"ymouse":[619,619,619,619,619,619,619,619,619,619,619,619,619,619,619,619,619,619,619,619,619,619,619,619,619,619,619,619,619,619,619,619,619,619,619,619,619,619,619,619,619,619,619,619,619,619,619,619,619,619,619,619,619,619,619,619,619,619,619,619,619,619,619,619,616,610,588,565,543,523,505,464,440,391,343,287,161,106,61],"timestamp_mouse":[9,41,49,69,91,110,129,151,169,189,210,229,249,269,290,309,330,351,369,390,409,431,450,469,490,510,530,549,569,590,609,629,649,670,689,711,729,749,769,789,809,830,851,869,889,911,930,949,970,991,1009,1029,1050,1070,1089,1109,1131,1150,1170,1190,1210,1231,1249,1270,1290,1310,1329,1349,1370,1390,1409,1429,1450,1469,1490,1509,1530,1549,1569],"xSR":741.5,"ySR":573.95,"xT1":424.9,"yT1":0,"xT2":1058.1,"yT2":0,"toosoon":0,"cond_shown":"Incongruent","ratio_trial":300,"L_num":8,"L_den":10,"R_num":9,"R_den":18,"correct_side":1,"subjID":"Juansantiagotochoy28","gender":"0","school":"6","age":"11"},{"start_time":1551899945003,"click_time":1551899946987,"finger_time":1551899946885,"fix_duration":817.2852693675371,"trial":33,"RT":1882,"MT":102,"sideResp":1,"stimulus":[],"xmouse":[798,798,798,798,798,798,798,798,798,798,798,798,798,798,798,798,798,798,798,798,798,798,798,798,798,798,798,798,798,798,798,798,798,798,798,798,798,798,798,798,798,798,798,798,798,798,798,798,798,798,798,798,798,798,798,798,798,798,798,798,798,798,798,798,798,798,798,798,798,798,798,798,798,798,798,798,798,798,798,798,798,798,798,798,798,798,798,798,798,798,798,798,798,797,779,714,672,632,575,437],"ymouse":[641,641,641,641,641,641,641,641,641,641,641,641,641,641,641,641,641,641,641,641,641,641,641,641,641,641,641,641,641,641,641,641,641,641,641,641,641,641,641,641,641,641,641,641,641,641,641,641,641,641,641,641,641,641,641,641,641,641,641,641,641,641,641,641,641,641,641,641,641,641,641,641,641,641,641,641,641,641,641,641,641,641,641,641,641,641,641,641,641,641,641,641,641,635,569,431,349,260,178,53],"timestamp_mouse":[10,34,42,62,83,103,123,143,163,182,202,222,244,262,282,304,322,342,362,382,403,424,443,462,482,503,523,542,562,583,603,622,643,662,683,703,724,742,762,782,803,822,843,862,883,903,923,942,963,983,1002,1023,1044,1062,1083,1102,1122,1143,1162,1182,1203,1222,1242,1263,1282,1303,1322,1342,1363,1382,1402,1422,1442,1464,1483,1502,1523,1544,1562,1583,1603,1622,1643,1663,1682,1704,1723,1742,1762,1783,1802,1822,1842,1862,1882,1902,1923,1943,1963,1984],"xSR":741.5,"ySR":573.95,"xT1":424.9,"yT1":0,"xT2":1058.1,"yT2":0,"toosoon":0,"cond_shown":"Incongruent","ratio_trial":100,"L_num":9,"L_den":18,"R_num":6,"R_den":10,"correct_side":2,"subjID":"Juansantiagotochoy28","gender":"0","school":"6","age":"11"},{"start_time":1551899950360,"click_time":1551899951945,"finger_time":1551899951605,"fix_duration":1493.5872318733063,"trial":34,"RT":1245,"MT":340,"sideResp":2,"stimulus":[],"xmouse":[814,814,814,814,814,814,814,810,808,807,805,804,803,803,803,803,802,802,802,802,802,802,802,802,802,802,802,802,802,802,802,802,802,802,802,802,802,802,802,802,802,802,802,802,802,802,802,802,802,802,802,802,802,802,802,802,802,802,803,803,806,809,836,873,924,1027,1090,1169,1179,1183,1184,1187,1192,1192,1192,1192,1192,1178,1165,1145],"ymouse":[605,605,605,605,605,605,605,610,612,615,616,617,619,619,619,619,620,620,620,620,620,620,620,620,620,620,620,620,620,620,620,620,620,620,620,620,620,620,620,620,620,620,620,620,620,620,620,620,620,620,620,620,620,620,620,620,618,603,600,598,590,577,538,493,438,335,278,207,194,187,179,164,125,111,103,91,88,82,79,74],"timestamp_mouse":[10,25,45,65,85,105,125,145,165,185,205,225,246,265,286,305,325,346,365,385,405,425,446,466,486,505,525,546,565,585,605,625,645,665,685,705,725,745,765,785,805,825,845,865,885,906,926,945,965,985,1005,1027,1045,1065,1086,1105,1125,1145,1166,1186,1205,1225,1245,1265,1285,1305,1325,1345,1365,1386,1405,1425,1445,1467,1486,1505,1525,1546,1565,1585],"xSR":741.5,"ySR":573.95,"xT1":424.9,"yT1":0,"xT2":1058.1,"yT2":0,"toosoon":0,"cond_shown":"Incongruent","ratio_trial":100,"L_num":3,"L_den":5,"R_num":11,"R_den":22,"correct_side":1,"subjID":"Juansantiagotochoy28","gender":"0","school":"6","age":"11"},{"start_time":1551899955039,"click_time":1551899956805,"finger_time":1551899956206,"fix_duration":1072.8719401108638,"trial":35,"RT":1167,"MT":599,"sideResp":2,"stimulus":[],"xmouse":[812,812,812,812,812,812,812,812,812,812,812,812,812,812,812,812,812,812,812,812,812,812,812,812,812,812,812,812,812,812,812,812,812,812,812,812,812,812,812,812,812,812,812,812,812,812,812,812,812,812,812,812,812,812,812,812,812,825,844,877,920,999,1057,1148,1184,1207,1224,1233,1240,1242,1244,1246,1246,1243,1238,1230,1219,1192,1183,1177,1173,1173,1172,1172,1172,1171,1170,1166,1158],"ymouse":[639,639,639,639,639,639,639,639,639,639,639,639,639,639,639,639,639,639,639,639,639,639,639,639,639,639,639,639,639,639,639,639,639,639,639,639,639,639,639,639,639,639,639,639,639,639,639,639,639,639,639,639,639,639,639,639,628,601,568,516,451,347,277,172,137,117,103,95,86,82,75,65,58,50,49,47,46,46,46,46,46,46,46,46,46,46,46,47,49],"timestamp_mouse":[10,34,46,68,86,107,127,146,167,186,207,226,246,267,286,306,327,347,367,386,407,426,447,466,486,506,526,547,566,587,606,626,646,666,686,707,726,746,767,787,807,826,847,866,886,906,926,946,966,987,1006,1027,1046,1066,1086,1107,1126,1148,1167,1187,1206,1226,1247,1266,1286,1307,1326,1347,1367,1386,1406,1426,1446,1466,1486,1506,1526,1547,1566,1586,1606,1627,1646,1667,1687,1706,1726,1747,1766],"xSR":741.5,"ySR":573.95,"xT1":424.9,"yT1":0,"xT2":1058.1,"yT2":0,"toosoon":0,"cond_shown":"Congruent","ratio_trial":100,"L_num":1,"L_den":2,"R_num":18,"R_den":30,"correct_side":2,"subjID":"Juansantiagotochoy28","gender":"0","school":"6","age":"11"},{"start_time":1551899960396,"click_time":1551899962125,"finger_time":1551899961705,"fix_duration":1267.771584186243,"trial":36,"RT":1309,"MT":420,"sideResp":1,"stimulus":[],"xmouse":[803,803,803,803,803,803,803,803,803,803,803,803,803,803,803,803,803,803,803,803,803,803,803,803,803,803,803,803,803,803,803,803,803,803,803,803,803,803,803,803,803,803,803,803,803,803,803,803,803,803,803,803,803,803,803,803,803,803,803,803,803,803,803,802,800,791,779,766,756,746,746,745,745,745,743,733,725,716,701,690,665,650,631,602,578,534,519],"ymouse":[621,621,621,621,621,621,621,621,621,621,621,621,621,621,621,621,621,621,621,621,621,621,621,621,621,621,621,621,621,621,621,621,621,621,621,621,621,621,621,621,621,621,621,621,621,621,621,621,621,621,621,621,621,621,621,621,621,621,621,621,621,621,621,616,605,559,524,490,469,448,447,446,445,443,428,393,367,337,304,278,231,208,184,155,135,101,93],"timestamp_mouse":[10,37,49,69,90,109,129,149,169,190,209,229,251,269,290,309,330,350,371,389,409,429,450,469,489,509,529,551,569,589,611,629,651,669,690,709,729,750,769,790,811,829,850,869,891,910,930,951,970,989,1009,1029,1051,1070,1089,1109,1129,1149,1169,1189,1210,1229,1249,1269,1289,1309,1329,1350,1369,1390,1410,1430,1449,1470,1489,1509,1529,1550,1569,1590,1609,1629,1649,1669,1690,1709,1729],"xSR":741.5,"ySR":573.95,"xT1":424.9,"yT1":0,"xT2":1058.1,"yT2":0,"toosoon":0,"cond_shown":"Incongruent","ratio_trial":300,"L_num":1,"L_den":2,"R_num":3,"R_den":15,"correct_side":1,"subjID":"Juansantiagotochoy28","gender":"0","school":"6","age":"11"},{"start_time":1551899965110,"click_time":1551899966666,"finger_time":1551899966165,"fix_duration":1364.4759410054614,"trial":37,"RT":1055,"MT":501,"sideResp":1,"stimulus":[],"xmouse":[768,768,768,768,768,768,768,768,768,768,768,768,768,768,768,768,768,768,768,768,768,768,768,768,768,768,768,768,768,768,768,768,768,768,768,768,768,768,768,768,768,768,768,768,768,768,768,768,768,765,761,754,747,726,721,719,717,716,716,713,708,703,693,683,657,640,626,610,587,563,552,542,537,532,528,521,517,508],"ymouse":[604,604,604,604,604,604,604,604,604,604,604,604,604,604,604,604,604,604,604,604,604,604,604,604,604,604,604,604,604,604,604,604,604,604,604,604,604,604,604,604,604,604,604,604,604,604,604,604,604,599,590,582,573,545,537,531,524,511,509,498,486,472,453,433,383,354,329,300,260,219,201,184,172,151,138,117,108,90],"timestamp_mouse":[22,43,56,75,95,115,135,155,175,195,215,236,255,275,295,315,336,356,375,396,416,435,456,476,496,515,536,555,576,595,615,637,656,676,696,715,736,755,777,796,816,835,855,876,895,916,936,956,977,995,1015,1036,1055,1076,1095,1116,1135,1155,1175,1195,1215,1236,1255,1275,1295,1315,1335,1355,1375,1395,1415,1435,1455,1476,1495,1516,1535,1556],"xSR":741.5,"ySR":573.95,"xT1":424.9,"yT1":0,"xT2":1058.1,"yT2":0,"toosoon":0,"cond_shown":"Congruent","ratio_trial":200,"L_num":21,"L_den":30,"R_num":2,"R_den":4,"correct_side":1,"subjID":"Juansantiagotochoy28","gender":"0","school":"6","age":"11"},{"start_time":1551899967857,"click_time":1551899969885,"finger_time":1551899969405,"fix_duration":250,"trial":38,"RT":1548,"MT":480,"sideResp":1,"stimulus":[],"xmouse":[783,783,783,783,783,783,783,783,783,783,783,783,783,783,783,783,783,783,783,783,783,783,783,783,783,783,783,783,783,783,783,783,783,783,783,783,783,783,783,783,783,783,783,783,783,783,783,783,783,783,783,783,783,783,783,783,783,783,783,783,783,783,783,783,783,783,783,783,783,783,783,783,783,783,783,778,776,761,751,730,718,707,694,690,686,682,678,660,643,612,589,566,515,494,483,478,477,477,477,477,477,477],"ymouse":[610,612,619,619,623,624,624,625,625,625,625,625,625,625,625,625,625,625,625,625,625,625,625,625,625,625,625,625,625,625,625,625,625,625,625,625,625,625,625,625,625,625,625,625,625,625,625,625,625,625,625,625,625,625,625,625,625,625,625,625,625,625,625,625,625,625,625,625,625,625,625,625,625,625,625,616,609,568,545,508,488,472,450,439,428,415,397,337,280,182,111,39,0,0,0,0,0,0,0,0,0,3],"timestamp_mouse":[10,28,62,69,88,108,129,148,168,188,208,229,250,268,289,308,328,348,369,389,409,428,449,469,489,508,528,548,568,588,608,629,649,668,689,710,729,748,770,788,808,830,848,868,889,908,930,948,968,989,1009,1028,1049,1069,1089,1109,1129,1148,1168,1188,1208,1228,1248,1268,1289,1309,1329,1348,1368,1389,1408,1428,1448,1468,1488,1508,1528,1548,1569,1588,1609,1629,1648,1669,1688,1708,1728,1749,1768,1788,1809,1829,1848,1869,1888,1909,1929,1949,1969,1988,2008,2028],"xSR":741.5,"ySR":573.95,"xT1":424.9,"yT1":0,"xT2":1058.1,"yT2":0,"toosoon":0,"cond_shown":"Congruent","ratio_trial":300,"L_num":20,"L_den":25,"R_num":8,"R_den":16,"correct_side":1,"subjID":"Juansantiagotochoy28","gender":"0","school":"6","age":"11"},{"start_time":1551899971779,"click_time":1551899973505,"finger_time":1551899973325,"fix_duration":632.507918186536,"trial":39,"RT":1546,"MT":180,"sideResp":2,"stimulus":[],"xmouse":[791,791,791,791,791,791,791,791,791,791,791,791,791,791,791,791,791,791,791,791,791,791,791,791,791,791,791,791,791,791,791,791,791,791,791,791,791,791,791,791,791,791,791,791,791,791,791,791,791,791,791,791,791,791,791,791,791,791,791,791,791,791,791,791,791,791,791,791,791,791,791,791,791,791,796,801,826,840,857,876,920,939,963,987,1027,1054,1093],"ymouse":[640,640,640,640,640,640,640,640,640,640,640,640,640,640,640,640,640,640,640,640,640,640,640,640,640,640,640,640,640,640,640,640,640,640,640,640,640,640,640,640,640,640,640,640,640,640,640,640,640,640,640,640,640,640,640,640,640,640,640,640,640,640,640,640,640,640,640,640,640,640,640,640,640,640,634,628,592,568,541,507,437,407,372,332,260,203,77],"timestamp_mouse":[15,41,47,66,86,106,126,146,167,186,206,226,247,266,287,308,326,346,367,386,408,426,446,468,486,506,526,547,566,586,607,627,648,666,687,706,726,746,766,787,806,826,847,867,886,907,926,948,967,988,1006,1026,1046,1066,1087,1107,1126,1146,1166,1188,1207,1226,1246,1266,1287,1306,1326,1346,1366,1387,1407,1427,1446,1466,1487,1506,1526,1546,1566,1586,1607,1626,1647,1666,1686,1706,1726],"xSR":741.5,"ySR":573.95,"xT1":424.9,"yT1":0,"xT2":1058.1,"yT2":0,"toosoon":0,"cond_shown":"Incongruent","ratio_trial":300,"L_num":13,"L_den":26,"R_num":12,"R_den":15,"correct_side":2,"subjID":"Juansantiagotochoy28","gender":"0","school":"6","age":"11"},{"start_time":1551899975073,"click_time":1551899977305,"finger_time":1551899976985,"fix_duration":666.5305933112509,"trial":40,"RT":1912,"MT":320,"sideResp":1,"stimulus":[],"xmouse":[803,803,803,803,803,803,803,803,803,803,803,803,803,803,802,801,800,800,799,799,799,799,799,799,799,799,799,799,799,799,799,799,799,799,799,799,799,799,799,799,799,799,799,799,799,799,799,799,799,799,799,799,799,799,799,799,799,799,799,799,799,799,799,799,799,799,799,799,799,799,799,799,799,799,799,799,799,799,799,799,799,799,799,799,799,799,799,799,799,798,797,791,787,783,776,770,751,735,729,708,694,666,652,633,614,594,558,549,545,541,537,522],"ymouse":[657,657,657,657,657,657,657,657,657,657,657,657,657,657,658,654,651,650,649,649,649,649,649,649,649,649,649,649,649,649,649,649,649,649,649,649,649,649,649,649,649,649,649,649,649,649,649,649,649,649,649,649,649,649,649,649,649,649,649,649,649,649,649,649,649,649,649,649,649,649,649,649,649,649,649,649,649,649,649,649,649,649,649,649,646,645,640,636,634,629,624,610,602,590,575,552,477,405,383,315,266,163,109,46,0,0,0,0,0,0,1,18],"timestamp_mouse":[13,32,53,72,93,113,132,152,174,193,212,232,252,272,292,314,332,352,374,393,412,432,453,472,492,512,532,552,572,594,612,633,652,672,692,712,732,752,772,793,812,833,853,873,893,912,932,953,972,993,1013,1032,1052,1072,1092,1113,1133,1154,1173,1192,1212,1234,1252,1273,1292,1313,1332,1352,1372,1393,1414,1433,1453,1472,1492,1513,1532,1553,1573,1593,1613,1633,1654,1672,1692,1712,1733,1752,1772,1793,1813,1834,1852,1873,1893,1912,1932,1953,1972,1993,2012,2032,2053,2073,2093,2113,2132,2154,2173,2192,2212,2232],"xSR":741.5,"ySR":573.95,"xT1":424.9,"yT1":0,"xT2":1058.1,"yT2":0,"toosoon":0,"cond_shown":"Incongruent","ratio_trial":100,"L_num":11,"L_den":22,"R_num":9,"R_den":15,"correct_side":2,"subjID":"Juansantiagotochoy28","gender":"0","school":"6","age":"11"},{"start_time":1551899979133,"click_time":1551899981945,"finger_time":1551899981325,"fix_duration":266.3104920089659,"trial":41,"RT":2192,"MT":620,"sideResp":2,"stimulus":[],"xmouse":[828,828,828,825,824,820,816,814,811,811,811,811,811,809,809,809,809,809,809,809,809,809,809,809,809,809,809,809,809,809,809,809,809,809,809,809,809,809,809,809,809,809,809,809,809,809,809,809,809,809,809,809,809,809,809,809,809,809,809,809,809,809,809,809,809,809,809,809,809,809,809,809,809,809,809,809,809,809,809,809,809,809,809,809,809,809,809,809,809,809,809,809,809,809,809,809,809,809,809,809,809,809,809,816,819,822,827,831,839,843,845,848,848,856,859,863,871,877,889,895,903,913,927,964,983,1008,1021,1028,1033,1034,1034,1034,1034,1034,1034,1034,1034,1035,1048,1057,1063],"ymouse":[607,607,607,607,607,605,604,602,602,602,602,601,601,601,601,601,601,601,601,601,601,601,601,601,601,601,601,601,601,601,601,601,601,601,601,601,601,601,601,601,601,601,601,601,601,601,601,601,601,601,601,601,601,601,601,601,601,601,601,601,601,601,601,601,601,601,601,601,601,601,601,601,601,601,601,601,601,601,601,601,601,601,601,601,601,601,601,601,601,601,601,601,601,601,601,601,601,601,601,601,601,601,601,598,596,593,588,585,576,569,564,555,543,514,498,482,458,444,416,403,386,362,330,234,186,128,99,82,66,64,63,63,63,63,63,63,63,63,60,60,59],"timestamp_mouse":[15,38,52,72,93,112,133,154,174,192,213,233,252,272,293,312,333,353,372,392,412,434,452,473,493,512,532,554,572,593,614,633,652,673,692,713,732,752,772,792,812,832,852,873,892,912,933,952,974,992,1012,1032,1052,1072,1093,1112,1132,1152,1173,1192,1212,1233,1252,1272,1292,1312,1332,1352,1373,1393,1412,1433,1453,1473,1492,1512,1533,1553,1572,1593,1612,1633,1654,1672,1692,1714,1733,1753,1772,1792,1812,1833,1852,1873,1892,1914,1932,1952,1973,1993,2012,2032,2053,2073,2092,2113,2133,2152,2173,2192,2212,2233,2252,2272,2292,2312,2333,2352,2372,2392,2412,2432,2452,2472,2493,2512,2532,2553,2573,2592,2612,2632,2653,2673,2692,2713,2733,2752,2773,2793,2812],"xSR":741.5,"ySR":573.95,"xT1":424.9,"yT1":0,"xT2":1058.1,"yT2":0,"toosoon":0,"cond_shown":"Congruent","ratio_trial":100,"L_num":9,"L_den":15,"R_num":8,"R_den":16,"correct_side":1,"subjID":"Juansantiagotochoy28","gender":"0","school":"6","age":"11"},{"start_time":1551899984491,"click_time":1551899986565,"finger_time":1551899986065,"fix_duration":1085.9765228086096,"trial":42,"RT":1574,"MT":500,"sideResp":1,"stimulus":[],"xmouse":[799,799,799,799,799,799,798,798,798,798,798,798,798,798,798,798,798,798,798,798,798,797,797,797,797,797,797,797,797,797,797,797,797,797,797,797,797,797,797,797,797,797,797,797,797,797,797,797,797,797,797,797,797,797,797,797,797,797,797,797,797,797,797,797,797,797,797,797,797,797,797,797,797,797,797,793,788,770,755,734,671,643,624,611,602,601,601,601,601,605,611,615,618,620,620,617,609,604,590,583,559,546,532,521],"ymouse":[635,635,635,635,635,635,635,635,635,635,635,635,635,635,635,635,635,635,635,635,635,635,635,635,635,634,634,634,634,634,634,634,634,634,634,634,634,634,634,634,634,634,634,634,634,634,634,634,634,634,634,634,634,634,634,634,634,634,634,634,634,634,634,634,634,634,634,634,634,634,634,634,634,634,634,627,616,589,572,550,494,466,444,424,394,381,368,359,342,332,311,299,289,278,268,236,203,192,161,144,120,111,103,98],"timestamp_mouse":[15,35,54,74,95,114,134,154,175,196,214,234,255,274,294,314,335,354,375,395,414,434,455,475,494,515,534,556,575,595,615,634,654,674,696,715,734,754,774,794,814,835,856,875,894,914,935,954,975,995,1016,1034,1055,1075,1096,1114,1134,1154,1176,1194,1215,1234,1254,1275,1296,1314,1336,1355,1374,1394,1414,1434,1455,1474,1495,1514,1535,1555,1574,1594,1615,1635,1655,1674,1695,1715,1735,1754,1775,1794,1814,1834,1854,1875,1896,1914,1935,1954,1974,1995,2014,2034,2054,2074],"xSR":741.5,"ySR":573.95,"xT1":424.9,"yT1":0,"xT2":1058.1,"yT2":0,"toosoon":0,"cond_shown":"Incongruent","ratio_trial":200,"L_num":1,"L_den":3,"R_num":2,"R_den":15,"correct_side":1,"subjID":"Juansantiagotochoy28","gender":"0","school":"6","age":"11"},{"start_time":1551899987877,"click_time":1551899989787,"finger_time":1551899989405,"fix_duration":250,"trial":43,"RT":1528,"MT":382,"sideResp":1,"stimulus":[],"xmouse":[795,795,795,795,795,795,795,795,795,795,795,795,795,795,795,795,795,795,796,796,796,796,796,796,796,796,796,796,796,796,796,796,796,796,797,798,800,800,800,800,800,800,800,800,800,800,800,800,800,800,800,800,800,800,800,800,800,800,800,800,800,800,800,800,800,800,800,799,799,799,798,794,788,783,776,768,744,729,716,695,679,652,640,631,620,611,595,585,575,560,547,520,509,496,485,475],"ymouse":[669,669,669,669,669,669,669,669,669,669,669,669,669,669,669,669,669,669,669,669,669,669,669,669,669,669,669,669,669,669,669,669,669,668,666,664,658,656,656,656,656,656,656,655,655,655,655,655,655,654,653,652,652,651,651,651,651,651,649,648,647,647,647,647,647,647,647,643,642,638,634,622,612,602,592,580,555,540,524,494,472,436,419,404,388,373,341,319,300,263,236,174,150,129,112,96],"timestamp_mouse":[11,42,48,69,89,109,128,149,168,189,210,228,249,268,288,308,328,348,369,388,408,429,448,469,488,508,529,549,569,588,608,628,648,668,688,708,728,748,768,789,810,828,848,868,888,909,928,948,969,988,1008,1028,1048,1069,1088,1108,1129,1148,1168,1188,1208,1229,1249,1269,1289,1309,1328,1348,1369,1390,1408,1428,1448,1468,1489,1508,1528,1548,1568,1589,1608,1629,1648,1669,1689,1710,1728,1748,1768,1788,1808,1828,1849,1868,1888,1909],"xSR":741.5,"ySR":573.95,"xT1":424.9,"yT1":0,"xT2":1058.1,"yT2":0,"toosoon":0,"cond_shown":"Incongruent","ratio_trial":300,"L_num":1,"L_den":2,"R_num":3,"R_den":15,"correct_side":1,"subjID":"Juansantiagotochoy28","gender":"0","school":"6","age":"11"},{"start_time":1551899991826,"click_time":1551899993505,"finger_time":1551899993065,"fix_duration":718.6256292331875,"trial":44,"RT":1239,"MT":440,"sideResp":2,"stimulus":[],"xmouse":[758,758,758,758,758,758,758,758,758,758,758,758,758,758,758,758,758,758,758,758,758,758,758,759,759,760,760,760,761,761,761,761,761,761,763,768,778,789,797,802,802,802,802,802,803,805,806,808,816,820,824,826,829,830,830,830,830,830,830,830,833,837,875,918,1037,1089,1130,1149,1159,1165,1169,1170,1173,1174,1174,1174,1174,1169,1164,1164,1164,1164,1164,1164,1154],"ymouse":[619,619,619,619,619,619,619,619,619,619,619,619,619,619,619,619,619,619,619,619,619,619,619,619,619,620,620,620,620,620,620,620,620,620,620,621,623,626,627,627,627,627,627,627,627,627,626,622,610,603,596,593,590,588,588,588,588,588,588,588,584,575,512,437,283,224,180,157,141,128,116,112,95,82,42,18,7,0,0,0,0,0,0,0,12],"timestamp_mouse":[1,19,40,60,79,99,120,