[{"start_time":1551900466451,"click_time":1551900467996,"finger_time":1551900466466,"fix_duration":449.52281380518275,"trial":0,"RT":15,"MT":1530,"sideResp":2,"stimulus":"img/900/equaldotsize/L/4_Ratio_900_L_20_R_18.png","xmouse":[774,774,774,774,774,774,774,774,774,774,774,774,774,774,774,774,774,774,774,774,774,774,774,774,774,774,774,774,774,774,774,774,774,774,774,774,774,774,774,774,774,774,774,774,774,774,774,774,774,774,774,774,774,774,774,774,774,792,830,969,1027,1072,1085,1091,1096,1097,1099,1102,1105,1107,1108,1108,1108,1108,1108,1109,1112,1117],"ymouse":[513,513,513,513,513,513,513,513,513,513,513,513,513,513,513,513,513,513,513,513,513,513,513,513,513,513,513,513,513,513,513,513,513,513,513,513,513,513,513,513,513,513,513,513,513,513,513,513,513,513,513,513,513,513,513,513,509,478,430,286,228,179,162,151,145,143,142,138,135,130,126,124,122,120,112,107,101,94],"timestamp_mouse":[15,40,46,66,84,105,125,146,165,185,204,226,245,266,285,305,325,346,365,386,406,425,446,465,486,504,526,545,566,585,606,625,645,665,686,706,725,746,765,786,806,824,846,866,885,904,926,945,964,984,1006,1025,1045,1065,1084,1106,1125,1144,1166,1185,1205,1225,1244,1264,1285,1306,1325,1346,1365,1384,1406,1426,1446,1466,1485,1505,1525,1545],"xSR":741.5,"ySR":449.15000000000003,"xT1":424.9,"yT1":0,"xT2":1058.1,"yT2":0,"toosoon":0,"cond_shown":"equaldotsize","ratio_trial":900,"smaller_num":"18","larger_num":"20","correct_side":1,"subjID":"juansantiagotochoy.28","gender":"0","age":"11","school":"6","test":{"fix_dur":[250,1500],"timestim":300,"targets_dim":[100,100],"targets_relative_coord":[0.3,0.7],"size_stim":[880,420],"start_dim":[100,100],"size_start":[300,300],"size_fix":60,"samplingrate":20,"img_types":["equaldotsize","equaldotanddens","randomdotsizeEA"],"ratios":[250,500,750,900],"rep_conds":9,"nTrials":120,"trials_to_rest":500,"Trials_order":[57,35,62,114,40,102,42,17,45,105,6,38,111,48,33,96,31,83,10,101,56,1,26,80,16,21,106,22,75,90,88,50,34,63,37,116,41,47,66,94,76,36,7,49,39,69,117,108,19,71,0,70,89,109,5,53,115,100,24,9,8,77,14,86,118,110,85,18,98,93,11,27,61,113,79,13,92,64,97,54,15,52,107,81,104,29,84,67,28,58,32,43,4,78,99,103,60,2,65,74,46,20,73,51,91,12,3,25,55,44,30,23,59,72,112,119,82,87,68,95],"cond_shown":["equaldotsize","randomdotsizeEA","randomdotsizeEA","equaldotsize","equaldotanddens","equaldotsize","equaldotsize","randomdotsizeEA","equaldotsize","equaldotsize","equaldotsize","randomdotsizeEA","equaldotsize","equaldotsize","equaldotsize","equaldotsize","equaldotanddens","randomdotsizeEA","equaldotanddens","randomdotsizeEA","randomdotsizeEA","equaldotanddens","randomdotsizeEA","randomdotsizeEA","equaldotanddens","equaldotsize","equaldotanddens","equaldotanddens","equaldotsize","equaldotsize","equaldotanddens","randomdotsizeEA","equaldotanddens","equaldotsize","equaldotanddens","randomdotsizeEA","randomdotsizeEA","randomdotsizeEA","equaldotsize","equaldotanddens","equaldotanddens","equaldotsize","equaldotanddens","equaldotanddens","equaldotsize","equaldotsize","equaldotsize","equaldotsize","equaldotanddens","randomdotsizeEA","equaldotsize","equaldotanddens","randomdotsizeEA","equaldotanddens","randomdotsizeEA","randomdotsizeEA","equaldotanddens","equaldotanddens","equaldotsize","equaldotsize","randomdotsizeEA","randomdotsizeEA","randomdotsizeEA","randomdotsizeEA","equaldotanddens","randomdotsizeEA","equaldotanddens","equaldotsize","randomdotsizeEA","equaldotsize","randomdotsizeEA","equaldotsize","equaldotanddens","randomdotsizeEA","equaldotanddens","equaldotanddens","randomdotsizeEA","equaldotanddens","equaldotanddens","equaldotsize","equaldotsize","equaldotanddens","randomdotsizeEA","equaldotsize","randomdotsizeEA","randomdotsizeEA","equaldotsize","equaldotanddens","equaldotanddens","equaldotanddens","randomdotsizeEA","equaldotanddens","equaldotanddens","equaldotsize","equaldotsize","equaldotanddens","equaldotsize","randomdotsizeEA","randomdotsizeEA","randomdotsizeEA","equaldotanddens","randomdotsizeEA","equaldotanddens","equaldotsize","equaldotanddens","equaldotsize","equaldotsize","equaldotanddens","equaldotanddens","randomdotsizeEA","equaldotsize","randomdotsizeEA","randomdotsizeEA","equaldotsize","equaldotanddens","randomdotsizeEA","equaldotanddens","equaldotsize","randomdotsizeEA","randomdotsizeEA"],"ratio_trial":[900,900,250,750,500,750,750,500,900,900,750,250,500,250,900,250,750,900,900,500,750,250,250,750,500,900,900,900,500,750,500,250,900,500,250,750,500,900,750,900,500,250,750,250,500,900,900,250,750,900,250,900,500,250,500,500,750,500,250,900,750,500,250,250,900,250,250,750,250,900,900,500,250,500,750,250,750,500,250,750,500,500,900,900,750,500,250,750,500,900,750,750,500,750,500,750,250,250,500,250,900,750,250,500,750,250,500,250,750,750,750,900,900,250,500,900,900,500,750,900],"smaller_num":["18","18","5","3","5","3","6","6","9","18","12","6","9","6","9","5","15","9","18","5","3","3","3","3","6","18","18","18","2","3","5","4","18","3","2","3","6","18","15","9","3","6","6","3","1","18","18","2","3","9","1","18","9","6","2","5","3","2","1","9","12","9","6","2","18","5","4","3","3","9","9","3","6","2","6","4","3","9","3","3","6","5","18","18","3","9","1","3","2","18","9","12","1","15","5","15","3","2","1","2","18","12","3","9","15","2","5","3","6","15","15","18","18","2","1","9","9","4","15","18"],"larger_num":["20","20","20","4","10","4","8","12","10","20","16","24","18","24","10","20","20","10","20","10","4","12","12","4","12","20","20","20","4","4","10","16","20","6","8","4","12","20","20","10","6","24","8","12","2","20","20","8","4","10","4","20","18","24","4","10","4","4","4","10","16","18","24","8","20","20","16","4","12","10","10","6","24","4","8","16","4","18","12","4","12","10","20","20","4","18","4","4","4","20","12","16","2","20","10","20","12","8","2","8","20","16","12","18","20","8","10","12","8","20","20","20","20","8","2","10","10","8","20","20"],"correct_side":[1,2,2,1,2,1,2,1,2,1,2,1,1,1,2,2,1,2,1,1,1,2,1,1,1,1,2,2,1,1,1,1,2,2,1,1,1,1,2,2,2,2,2,2,2,2,2,1,2,1,2,1,2,2,1,2,1,2,2,1,2,2,1,1,1,2,2,2,2,2,2,2,2,1,1,2,1,1,2,1,1,1,2,1,1,2,2,1,1,1,2,2,2,2,2,2,1,1,2,1,1,2,1,1,1,1,1,2,1,1,1,2,2,1,2,2,2,1,1,1],"img_shown":["img/900/equaldotsize/L/4_Ratio_900_L_20_R_18.png","img/900/randomdotsizeEA/R/13_Ratio_900_L_18_R_20.png","img/250/randomdotsizeEA/R/12_Ratio_250_L_5_R_20.png","img/750/equaldotsize/L/10_Ratio_750_L_4_R_3.png","img/500/equaldotanddens/R/14_Ratio_500_L_5_R_10.png","img/750/equaldotsize/L/9_Ratio_750_L_4_R_3.png","img/750/equaldotsize/R/2_Ratio_750_L_6_R_8.png","img/500/randomdotsizeEA/L/13_Ratio_500_L_12_R_6.png","img/900/equaldotsize/R/15_Ratio_900_L_9_R_10.png","img/900/equaldotsize/L/8_Ratio_900_L_20_R_18.png","img/750/equaldotsize/R/11_Ratio_750_L_12_R_16.png","img/250/randomdotsizeEA/L/5_Ratio_250_L_24_R_6.png","img/500/equaldotsize/L/4_Ratio_500_L_18_R_9.png","img/250/equaldotsize/L/5_Ratio_250_L_24_R_6.png","img/900/equaldotsize/R/6_Ratio_900_L_9_R_10.png","img/250/equaldotsize/R/12_Ratio_250_L_5_R_20.png","img/750/equaldotanddens/L/1_Ratio_750_L_20_R_15.png","img/900/randomdotsizeEA/R/3_Ratio_900_L_9_R_10.png","img/900/equaldotanddens/L/8_Ratio_900_L_20_R_18.png","img/500/randomdotsizeEA/L/7_Ratio_500_L_10_R_5.png","img/750/randomdotsizeEA/L/10_Ratio_750_L_4_R_3.png","img/250/equaldotanddens/R/4_Ratio_250_L_3_R_12.png","img/250/randomdotsizeEA/L/14_Ratio_250_L_12_R_3.png","img/750/randomdotsizeEA/L/8_Ratio_750_L_4_R_3.png","img/500/equaldotanddens/L/11_Ratio_500_L_12_R_6.png","img/900/equaldotsize/L/8_Ratio_900_L_20_R_18.png","img/900/equaldotanddens/R/12_Ratio_900_L_18_R_20.png","img/900/equaldotanddens/R/12_Ratio_900_L_18_R_20.png","img/500/equaldotsize/L/5_Ratio_500_L_4_R_2.png","img/750/equaldotsize/L/9_Ratio_750_L_4_R_3.png","img/500/equaldotanddens/L/7_Ratio_500_L_10_R_5.png","img/250/randomdotsizeEA/L/2_Ratio_250_L_16_R_4.png","img/900/equaldotanddens/R/11_Ratio_900_L_18_R_20.png","img/500/equaldotsize/R/2_Ratio_500_L_3_R_6.png","img/250/equaldotanddens/L/3_Ratio_250_L_8_R_2.png","img/750/randomdotsizeEA/L/9_Ratio_750_L_4_R_3.png","img/500/randomdotsizeEA/L/11_Ratio_500_L_12_R_6.png","img/900/randomdotsizeEA/L/10_Ratio_900_L_20_R_18.png","img/750/equaldotsize/R/5_Ratio_750_L_15_R_20.png","img/900/equaldotanddens/R/15_Ratio_900_L_9_R_10.png","img/500/equaldotanddens/R/2_Ratio_500_L_3_R_6.png","img/250/equaldotsize/R/6_Ratio_250_L_6_R_24.png","img/750/equaldotanddens/R/2_Ratio_750_L_6_R_8.png","img/250/equaldotanddens/R/11_Ratio_250_L_3_R_12.png","img/500/equaldotsize/R/15_Ratio_500_L_1_R_2.png","img/900/equaldotsize/R/9_Ratio_900_L_18_R_20.png","img/900/equaldotsize/R/11_Ratio_900_L_18_R_20.png","img/250/equaldotsize/L/1_Ratio_250_L_8_R_2.png","img/750/equaldotanddens/R/12_Ratio_750_L_3_R_4.png","img/900/randomdotsizeEA/L/1_Ratio_900_L_10_R_9.png","img/250/equaldotsize/R/8_Ratio_250_L_1_R_4.png","img/900/equaldotanddens/L/10_Ratio_900_L_20_R_18.png","img/500/randomdotsizeEA/R/1_Ratio_500_L_9_R_18.png","img/250/equaldotanddens/R/6_Ratio_250_L_6_R_24.png","img/500/randomdotsizeEA/L/10_Ratio_500_L_4_R_2.png","img/500/randomdotsizeEA/R/14_Ratio_500_L_5_R_10.png","img/750/equaldotanddens/L/10_Ratio_750_L_4_R_3.png","img/500/equaldotanddens/R/9_Ratio_500_L_2_R_4.png","img/250/equaldotsize/R/8_Ratio_250_L_1_R_4.png","img/900/equaldotsize/L/1_Ratio_900_L_10_R_9.png","img/750/randomdotsizeEA/R/11_Ratio_750_L_12_R_16.png","img/500/randomdotsizeEA/R/1_Ratio_500_L_9_R_18.png","img/250/randomdotsizeEA/L/5_Ratio_250_L_24_R_6.png","img/250/randomdotsizeEA/L/7_Ratio_250_L_8_R_2.png","img/900/equaldotanddens/L/8_Ratio_900_L_20_R_18.png","img/250/randomdotsizeEA/R/12_Ratio_250_L_5_R_20.png","img/250/equaldotanddens/R/10_Ratio_250_L_4_R_16.png","img/750/equaldotsize/R/12_Ratio_750_L_3_R_4.png","img/250/randomdotsizeEA/R/11_Ratio_250_L_3_R_12.png","img/900/equaldotsize/R/3_Ratio_900_L_9_R_10.png","img/900/randomdotsizeEA/R/6_Ratio_900_L_9_R_10.png","img/500/equaldotsize/R/2_Ratio_500_L_3_R_6.png","img/250/equaldotanddens/R/6_Ratio_250_L_6_R_24.png","img/500/randomdotsizeEA/L/10_Ratio_500_L_4_R_2.png","img/750/equaldotanddens/L/13_Ratio_750_L_8_R_6.png","img/250/equaldotanddens/R/10_Ratio_250_L_4_R_16.png","img/750/randomdotsizeEA/L/10_Ratio_750_L_4_R_3.png","img/500/equaldotanddens/L/4_Ratio_500_L_18_R_9.png","img/250/equaldotanddens/R/11_Ratio_250_L_3_R_12.png","img/750/equaldotsize/L/9_Ratio_750_L_4_R_3.png","img/500/equaldotsize/L/13_Ratio_500_L_12_R_6.png","img/500/equaldotanddens/L/7_Ratio_500_L_10_R_5.png","img/900/randomdotsizeEA/R/12_Ratio_900_L_18_R_20.png","img/900/equaldotsize/L/8_Ratio_900_L_20_R_18.png","img/750/randomdotsizeEA/L/10_Ratio_750_L_4_R_3.png","img/500/randomdotsizeEA/R/1_Ratio_500_L_9_R_18.png","img/250/equaldotsize/R/8_Ratio_250_L_1_R_4.png","img/750/equaldotanddens/L/9_Ratio_750_L_4_R_3.png","img/500/equaldotanddens/L/10_Ratio_500_L_4_R_2.png","img/900/equaldotanddens/L/10_Ratio_900_L_20_R_18.png","img/750/randomdotsizeEA/R/15_Ratio_750_L_9_R_12.png","img/750/equaldotanddens/R/11_Ratio_750_L_12_R_16.png","img/500/equaldotanddens/R/12_Ratio_500_L_1_R_2.png","img/750/equaldotsize/R/5_Ratio_750_L_15_R_20.png","img/500/equaldotsize/R/14_Ratio_500_L_5_R_10.png","img/750/equaldotanddens/R/4_Ratio_750_L_15_R_20.png","img/250/equaldotsize/L/14_Ratio_250_L_12_R_3.png","img/250/randomdotsizeEA/L/3_Ratio_250_L_8_R_2.png","img/500/randomdotsizeEA/R/12_Ratio_500_L_1_R_2.png","img/250/randomdotsizeEA/L/1_Ratio_250_L_8_R_2.png","img/900/equaldotanddens/L/2_Ratio_900_L_20_R_18.png","img/750/randomdotsizeEA/R/11_Ratio_750_L_12_R_16.png","img/250/equaldotanddens/L/15_Ratio_250_L_12_R_3.png","img/500/equaldotsize/L/4_Ratio_500_L_18_R_9.png","img/750/equaldotanddens/L/1_Ratio_750_L_20_R_15.png","img/250/equaldotsize/L/7_Ratio_250_L_8_R_2.png","img/500/equaldotsize/L/7_Ratio_500_L_10_R_5.png","img/250/equaldotanddens/R/4_Ratio_250_L_3_R_12.png","img/750/equaldotanddens/L/13_Ratio_750_L_8_R_6.png","img/750/randomdotsizeEA/L/1_Ratio_750_L_20_R_15.png","img/750/equaldotsize/L/1_Ratio_750_L_20_R_15.png","img/900/randomdotsizeEA/R/13_Ratio_900_L_18_R_20.png","img/900/randomdotsizeEA/R/13_Ratio_900_L_18_R_20.png","img/250/equaldotsize/L/3_Ratio_250_L_8_R_2.png","img/500/equaldotanddens/R/15_Ratio_500_L_1_R_2.png","img/900/randomdotsizeEA/R/3_Ratio_900_L_9_R_10.png","img/900/equaldotanddens/R/5_Ratio_900_L_9_R_10.png","img/500/equaldotsize/L/8_Ratio_500_L_8_R_4.png","img/750/randomdotsizeEA/L/1_Ratio_750_L_20_R_15.png","img/900/randomdotsizeEA/L/8_Ratio_900_L_20_R_18.png"],"Rat0":[["12_Ratio_0_L_9_R_0.png","13_Ratio_0_L_6_R_0.png","5_Ratio_0_L_2_R_0.png","6_Ratio_0_L_4_R_0.png","8_Ratio_0_L_6_R_0.png"],["1_Ratio_0_L_0_R_17.png","10_Ratio_0_L_0_R_22.png","11_Ratio_0_L_0_R_1.png","14_Ratio_0_L_0_R_24.png","15_Ratio_0_L_0_R_4.png","2_Ratio_0_L_0_R_5.png","3_Ratio_0_L_0_R_17.png","4_Ratio_0_L_0_R_7.png","7_Ratio_0_L_0_R_19.png","9_Ratio_0_L_0_R_15.png"]],"Rat250":[["1_Ratio_250_L_8_R_2.png","14_Ratio_250_L_12_R_3.png","15_Ratio_250_L_12_R_3.png","2_Ratio_250_L_16_R_4.png","3_Ratio_250_L_8_R_2.png","5_Ratio_250_L_24_R_6.png","7_Ratio_250_L_8_R_2.png"],["10_Ratio_250_L_4_R_16.png","11_Ratio_250_L_3_R_12.png","12_Ratio_250_L_5_R_20.png","13_Ratio_250_L_2_R_8.png","4_Ratio_250_L_3_R_12.png","6_Ratio_250_L_6_R_24.png","8_Ratio_250_L_1_R_4.png","9_Ratio_250_L_3_R_12.png"]],"Rat500":[["10_Ratio_500_L_4_R_2.png","11_Ratio_500_L_12_R_6.png","13_Ratio_500_L_12_R_6.png","4_Ratio_500_L_18_R_9.png","5_Ratio_500_L_4_R_2.png","7_Ratio_500_L_10_R_5.png","8_Ratio_500_L_8_R_4.png"],["1_Ratio_500_L_9_R_18.png","12_Ratio_500_L_1_R_2.png","14_Ratio_500_L_5_R_10.png","15_Ratio_500_L_1_R_2.png","2_Ratio_500_L_3_R_6.png","3_Ratio_500_L_10_R_20.png","6_Ratio_500_L_9_R_18.png","9_Ratio_500_L_2_R_4.png"]],"Rat750":[["1_Ratio_750_L_20_R_15.png","10_Ratio_750_L_4_R_3.png","13_Ratio_750_L_8_R_6.png","14_Ratio_750_L_8_R_6.png","6_Ratio_750_L_24_R_18.png","8_Ratio_750_L_4_R_3.png","9_Ratio_750_L_4_R_3.png"],["11_Ratio_750_L_12_R_16.png","12_Ratio_750_L_3_R_4.png","15_Ratio_750_L_9_R_12.png","2_Ratio_750_L_6_R_8.png","3_Ratio_750_L_15_R_20.png","4_Ratio_750_L_15_R_20.png","5_Ratio_750_L_15_R_20.png","7_Ratio_750_L_3_R_4.png"]],"Rat900":[["1_Ratio_900_L_10_R_9.png","10_Ratio_900_L_20_R_18.png","2_Ratio_900_L_20_R_18.png","4_Ratio_900_L_20_R_18.png","8_Ratio_900_L_20_R_18.png"],["11_Ratio_900_L_18_R_20.png","12_Ratio_900_L_18_R_20.png","13_Ratio_900_L_18_R_20.png","14_Ratio_900_L_18_R_20.png","15_Ratio_900_L_9_R_10.png","3_Ratio_900_L_9_R_10.png","5_Ratio_900_L_9_R_10.png","6_Ratio_900_L_9_R_10.png","7_Ratio_900_L_9_R_10.png","9_Ratio_900_L_18_R_20.png"]],"Rat1000":[["10_Ratio_1000_L_16_R_16.png","11_Ratio_1000_L_6_R_6.png","12_Ratio_1000_L_14_R_14.png","13_Ratio_1000_L_20_R_20.png","15_Ratio_1000_L_15_R_15.png","2_Ratio_1000_L_17_R_17.png","4_Ratio_1000_L_9_R_9.png","5_Ratio_1000_L_6_R_6.png","6_Ratio_1000_L_19_R_19.png","8_Ratio_1000_L_14_R_14.png","9_Ratio_1000_L_25_R_25.png"],["1_Ratio_1000_L_1_R_1.png","14_Ratio_1000_L_17_R_17.png","3_Ratio_1000_L_17_R_17.png","7_Ratio_1000_L_6_R_6.png"]]}},{"start_time":1551900469868,"click_time":1551900470956,"finger_time":1551900470617,"fix_duration":250,"trial":1,"RT":749,"MT":339,"sideResp":1,"stimulus":"img/900/randomdotsizeEA/R/13_Ratio_900_L_18_R_20.png","xmouse":[802,802,802,802,802,802,802,802,802,802,802,802,802,802,802,802,802,802,802,802,802,802,802,802,802,802,802,802,802,802,802,802,802,802,802,793,783,753,690,644,625,609,583,580,578,577,574,567,555,551,546,545,541,531,524],"ymouse":[635,635,635,635,635,635,635,635,635,635,635,635,635,635,635,635,635,635,635,635,635,635,635,635,635,635,635,635,635,635,635,635,635,635,635,620,599,532,328,174,106,51,0,0,0,0,0,0,0,0,1,2,5,11,16],"timestamp_mouse":[10,31,48,69,89,107,127,148,168,189,208,228,249,268,289,307,328,349,367,389,408,428,447,469,488,509,528,549,568,589,609,628,648,668,688,709,728,749,768,789,808,828,849,870,887,908,929,948,967,989,1007,1027,1049,1068,1088],"xSR":741.5,"ySR":573.95,"xT1":424.9,"yT1":0,"xT2":1058.1,"yT2":0,"toosoon":0,"cond_shown":"randomdotsizeEA","ratio_trial":900,"smaller_num":"18","larger_num":"20","correct_side":2,"subjID":"juansantiagotochoy.28","gender":"0","age":"11","school":"6"},{"start_time":1551900473118,"click_time":1551900474337,"finger_time":1551900474076,"fix_duration":1240.5410814971087,"trial":2,"RT":958,"MT":261,"sideResp":2,"stimulus":"img/250/randomdotsizeEA/R/12_Ratio_250_L_5_R_20.png","xmouse":[813,813,813,813,813,813,813,813,813,813,813,813,813,813,813,813,813,813,813,813,813,813,813,813,813,813,813,813,813,813,813,813,813,813,813,813,813,813,813,813,813,813,813,813,813,822,834,845,855,865,895,913,942,970,994,1044,1058,1067,1075,1079,1085],"ymouse":[604,604,604,604,604,604,604,604,604,604,604,604,604,604,604,604,604,604,604,604,604,604,604,604,604,604,604,604,604,604,604,604,604,604,604,604,604,604,604,604,604,604,604,604,604,598,587,570,546,514,413,353,295,252,212,140,124,115,105,100,93],"timestamp_mouse":[19,42,59,77,97,118,138,158,178,198,218,239,259,279,298,318,338,359,377,398,419,438,459,477,498,518,538,558,577,598,618,639,657,678,698,718,737,758,779,799,819,837,858,877,899,918,939,958,978,997,1018,1038,1058,1078,1099,1118,1138,1157,1178,1198,1218],"xSR":741.5,"ySR":573.95,"xT1":424.9,"yT1":0,"xT2":1058.1,"yT2":0,"toosoon":0,"cond_shown":"randomdotsizeEA","ratio_trial":250,"smaller_num":"5","larger_num":"20","correct_side":2,"subjID":"juansantiagotochoy.28","gender":"0","age":"11","school":"6"},{"start_time":1551900475734,"click_time":1551900476897,"finger_time":1551900476636,"fix_duration":496.5846401253194,"trial":3,"RT":902,"MT":261,"sideResp":2,"stimulus":"img/750/equaldotsize/L/10_Ratio_750_L_4_R_3.png","xmouse":[788,788,788,788,788,788,787,785,784,784,784,784,784,784,784,784,784,784,784,784,784,784,783,783,783,783,783,783,783,783,783,783,783,783,783,783,783,783,783,783,783,788,792,802,816,881,923,974,1030,1085,1133,1137,1138,1138,1137,1136,1136,1136,1135],"ymouse":[621,621,621,621,621,622,622,622,622,622,622,622,622,622,622,622,622,622,622,622,622,622,622,622,622,622,622,622,622,622,622,622,622,622,622,622,622,622,622,622,622,618,614,603,585,493,414,336,259,192,128,121,117,115,113,106,102,100,99],"timestamp_mouse":[8,23,45,62,82,102,123,142,162,182,202,223,241,262,282,302,321,342,363,382,403,423,441,462,482,501,523,542,561,582,601,621,642,663,682,702,723,742,763,782,802,822,842,862,882,902,922,941,962,982,1002,1022,1042,1062,1082,1101,1123,1142,1163],"xSR":741.5,"ySR":573.95,"xT1":424.9,"yT1":0,"xT2":1058.1,"yT2":0,"toosoon":0,"cond_shown":"equaldotsize","ratio_trial":750,"smaller_num":"3","larger_num":"4","correct_side":1,"subjID":"juansantiagotochoy.28","gender":"0","age":"11","school":"6"},{"start_time":1551900477869,"click_time":1551900478956,"finger_time":1551900478817,"fix_duration":250,"trial":4,"RT":948,"MT":139,"sideResp":2,"stimulus":"img/500/equaldotanddens/R/14_Ratio_500_L_5_R_10.png","xmouse":[773,773,773,773,773,773,773,773,773,773,773,773,773,773,773,773,773,773,773,773,773,773,773,773,773,773,773,773,773,773,773,773,773,773,773,773,773,773,773,773,773,773,773,775,784,797,819,851,967,1014,1045,1067,1083,1097,1121],"ymouse":[637,637,637,637,637,637,637,637,637,637,637,637,637,637,637,637,637,637,637,637,637,637,637,637,637,637,637,637,637,637,637,637,637,637,637,637,637,637,637,637,637,637,637,636,629,618,604,579,442,354,264,188,131,101,69],"timestamp_mouse":[6,33,48,67,88,108,128,148,167,188,207,226,248,267,288,307,328,346,367,388,406,428,448,466,488,507,527,548,566,587,608,627,647,667,688,708,726,748,768,786,806,828,846,867,887,908,926,948,967,987,1006,1027,1047,1067,1087],"xSR":741.5,"ySR":573.95,"xT1":424.9,"yT1":0,"xT2":1058.1,"yT2":0,"toosoon":0,"cond_shown":"equaldotanddens","ratio_trial":500,"smaller_num":"5","larger_num":"10","correct_side":2,"subjID":"juansantiagotochoy.28","gender":"0","age":"11","school":"6"},{"start_time":1551900482168,"click_time":1551900483256,"finger_time":1551900482996,"fix_duration":1109.8190069089069,"trial":5,"RT":828,"MT":260,"sideResp":1,"stimulus":"img/750/equaldotsize/L/9_Ratio_750_L_4_R_3.png","xmouse":[811,806,806,805,805,805,805,805,805,805,805,805,805,805,805,805,805,805,805,805,805,805,805,805,805,805,805,805,805,805,805,805,805,805,805,805,805,805,802,790,776,754,722,645,589,564,553,549,549,549,548,545,539,530,505],"ymouse":[637,635,635,635,635,635,635,635,635,635,635,635,635,635,635,635,635,635,635,635,635,635,635,635,635,635,635,635,635,635,635,635,635,635,635,635,635,635,631,614,593,559,503,347,217,148,110,92,83,81,79,72,64,56,47],"timestamp_mouse":[14,35,49,69,88,108,129,149,167,188,208,229,249,269,288,308,328,349,369,389,408,427,448,468,488,508,528,548,567,588,608,629,648,667,689,707,727,748,769,788,809,828,848,868,888,907,928,948,968,989,1008,1028,1048,1068,1088],"xSR":741.5,"ySR":573.95,"xT1":424.9,"yT1":0,"xT2":1058.1,"yT2":0,"toosoon":0,"cond_shown":"equaldotsize","ratio_trial":750,"smaller_num":"3","larger_num":"4","correct_side":1,"subjID":"juansantiagotochoy.28","gender":"0","age":"11","school":"6"},{"start_time":1551900484798,"click_time":1551900486316,"finger_time":1551900485556,"fix_duration":961.7885184655657,"trial":6,"RT":758,"MT":760,"sideResp":2,"stimulus":"img/750/equaldotsize/R/2_Ratio_750_L_6_R_8.png","xmouse":[817,817,817,817,817,817,817,817,817,817,817,817,817,817,817,817,817,817,817,817,817,817,817,817,817,817,817,817,817,817,817,817,817,817,817,818,830,844,868,903,942,976,970,958,950,947,945,945,945,945,946,949,970,982,994,1001,1022,1029,1038,1048,1056,1064,1072,1072,1072,1072,1072,1074,1075,1076,1078,1081,1082,1083,1084,1086],"ymouse":[635,635,635,635,635,635,635,635,635,635,635,635,635,635,635,635,635,635,635,635,635,635,635,635,635,635,635,635,635,635,635,635,635,635,635,635,620,603,576,533,472,334,301,289,285,282,276,271,267,262,254,249,226,216,208,202,186,178,167,155,144,133,121,120,120,120,120,118,116,112,109,106,105,103,101,98],"timestamp_mouse":[17,38,59,78,98,119,137,158,178,198,218,238,258,277,298,319,339,357,378,399,418,439,458,478,498,519,537,559,578,599,618,638,657,678,698,718,738,758,778,798,819,838,858,878,897,918,938,957,978,997,1018,1038,1059,1078,1098,1118,1138,1159,1178,1197,1219,1237,1259,1278,1298,1319,1338,1358,1378,1399,1419,1438,1459,1478,1498,1518],"xSR":741.5,"ySR":573.95,"xT1":424.9,"yT1":0,"xT2":1058.1,"yT2":0,"toosoon":0,"cond_shown":"equaldotsize","ratio_trial":750,"smaller_num":"6","larger_num":"8","correct_side":2,"subjID":"juansantiagotochoy.28","gender":"0","age":"11","school":"6"},{"start_time":1551900487648,"click_time":1551900490736,"finger_time":1551900490157,"fix_duration":250,"trial":7,"RT":2509,"MT":579,"sideResp":1,"stimulus":"img/500/randomdotsizeEA/L/13_Ratio_500_L_12_R_6.png","xmouse":[774,774,774,774,774,774,774,774,774,774,774,774,774,774,774,774,774,774,774,774,774,774,774,774,774,774,774,774,774,774,774,774,774,774,774,774,774,774,774,774,774,774,774,774,774,774,774,774,774,774,774,774,774,774,774,774,774,774,774,774,774,774,774,774,774,774,774,774,774,774,774,774,774,774,774,774,774,774,774,774,774,774,774,774,774,774,774,774,774,774,774,774,774,774,774,774,779,781,783,785,785,785,785,785,785,785,785,785,785,785,785,785,785,785,785,785,785,785,785,785,785,785,785,782,758,735,712,690,667,627,599,581,566,548,508,490,476,469,466,465,465,465,465,469,475,499,519,533,537,539,539,538,536,532,513],"ymouse":[608,608,608,608,608,608,608,608,608,608,608,608,608,608,608,608,608,608,608,608,608,608,608,608,608,608,608,608,608,608,608,608,608,608,608,608,608,608,608,608,608,608,608,609,609,609,609,609,609,609,609,609,609,609,609,609,609,609,609,609,609,609,609,609,609,609,609,609,609,609,609,609,609,609,609,609,609,609,609,609,609,609,609,609,609,609,609,609,609,609,609,609,609,609,609,609,609,609,608,607,607,607,607,607,607,607,607,607,607,607,607,607,607,607,607,607,607,607,607,607,607,607,607,605,592,580,570,560,548,531,514,498,483,462,417,400,387,379,373,367,359,353,341,325,308,236,165,109,82,60,58,53,47,38,14],"timestamp_mouse":[14,32,49,67,88,108,128,149,167,188,209,229,247,268,288,308,328,348,368,388,408,429,448,468,488,508,528,549,568,589,608,628,649,669,688,709,728,747,768,789,808,828,848,868,889,908,928,949,968,989,1008,1028,1049,1068,1088,1108,1128,1147,1168,1188,1209,1228,1247,1269,1288,1307,1329,1347,1368,1389,1408,1429,1447,1468,1489,1508,1528,1547,1567,1588,1608,1628,1647,1668,1688,1709,1728,1748,1768,1788,1807,1828,1847,1867,1888,1909,1928,1948,1967,1988,2009,2029,2047,2068,2088,2109,2127,2148,2169,2188,2209,2227,2247,2268,2288,2309,2328,2348,2368,2387,2408,2427,2447,2467,2488,2509,2528,2548,2568,2587,2608,2627,2648,2668,2688,2707,2727,2748,2769,2787,2808,2827,2849,2868,2888,2908,2928,2948,2967,2988,3008,3027,3049,3068,3087],"xSR":741.5,"ySR":573.95,"xT1":424.9,"yT1":0,"xT2":1058.1,"yT2":0,"toosoon":0,"cond_shown":"randomdotsizeEA","ratio_trial":500,"smaller_num":"6","larger_num":"12","correct_side":1,"subjID":"juansantiagotochoy.28","gender":"0","age":"11","school":"6"},{"start_time":1551900492809,"click_time":1551900494556,"finger_time":1551900494236,"fix_duration":1231.57979486421,"trial":8,"RT":1427,"MT":320,"sideResp":2,"stimulus":"img/900/equaldotsize/R/15_Ratio_900_L_9_R_10.png","xmouse":[761,761,761,761,761,761,761,761,761,761,761,761,761,761,761,761,761,761,761,761,761,761,761,761,761,761,761,761,761,761,761,761,761,761,761,761,761,761,761,761,761,761,761,761,761,761,761,761,761,761,761,761,761,761,761,761,761,761,761,761,761,761,761,761,759,755,754,754,754,754,755,771,787,818,855,898,963,984,999,1015,1021,1034,1039,1044,1049,1055,1064,1073],"ymouse":[618,618,618,618,618,618,618,618,618,618,618,618,618,618,618,618,618,618,618,618,618,618,618,618,618,618,618,618,618,618,618,618,618,618,618,618,618,618,618,618,618,618,618,618,618,618,618,618,618,618,618,618,618,618,618,618,618,618,618,618,618,618,618,618,617,611,606,606,604,602,596,558,525,479,426,364,266,229,203,176,160,138,131,124,117,112,103,96],"timestamp_mouse":[9,43,48,67,87,107,128,147,168,186,208,228,246,268,288,306,328,348,368,387,407,426,447,468,487,508,527,547,567,588,606,628,648,666,687,706,728,748,767,788,806,826,847,867,886,908,926,948,968,987,1007,1028,1048,1066,1087,1107,1127,1148,1168,1187,1208,1227,1247,1266,1288,1307,1327,1348,1367,1387,1408,1427,1447,1467,1488,1507,1526,1546,1567,1587,1607,1627,1648,1666,1687,1707,1727,1747],"xSR":741.5,"ySR":573.95,"xT1":424.9,"yT1":0,"xT2":1058.1,"yT2":0,"toosoon":0,"cond_shown":"equaldotsize","ratio_trial":900,"smaller_num":"9","larger_num":"10","correct_side":2,"subjID":"juansantiagotochoy.28","gender":"0","age":"11","school":"6"},{"start_time":1551900496433,"click_time":1551900497317,"finger_time":1551900497217,"fix_duration":755.6516470657594,"trial":9,"RT":784,"MT":100,"sideResp":2,"stimulus":"img/900/equaldotsize/L/8_Ratio_900_L_20_R_18.png","xmouse":[805,805,805,805,805,805,805,805,805,805,805,805,805,805,805,805,805,805,805,805,805,805,805,805,805,805,805,805,805,805,805,805,805,805,805,805,804,815,830,856,956,1018,1082,1121,1136],"ymouse":[631,631,631,631,631,631,631,631,631,631,631,631,631,631,631,631,631,631,631,631,631,631,631,631,631,631,631,631,631,631,631,631,631,631,631,631,630,614,592,555,352,243,151,103,87],"timestamp_mouse":[8,34,43,63,83,103,123,143,163,183,202,224,244,264,284,303,324,343,364,382,402,423,442,463,483,504,522,543,562,584,603,624,644,663,684,704,722,743,763,784,802,822,843,863,884],"xSR":741.5,"ySR":573.95,"xT1":424.9,"yT1":0,"xT2":1058.1,"yT2":0,"toosoon":0,"cond_shown":"equaldotsize","ratio_trial":900,"smaller_num":"18","larger_num":"20","correct_side":1,"subjID":"juansantiagotochoy.28","gender":"0","age":"11","school":"6"},{"start_time":1551900499405,"click_time":1551900500536,"finger_time":1551900500237,"fix_duration":968.1910816434134,"trial":10,"RT":832,"MT":299,"sideResp":2,"stimulus":"img/750/equaldotsize/R/11_Ratio_750_L_12_R_16.png","xmouse":[759,759,759,759,759,759,759,759,759,759,759,759,759,759,759,759,759,759,759,759,759,759,759,759,759,759,759,759,759,759,759,759,759,759,759,759,759,759,767,781,818,875,927,981,1035,1086,1171,1205,1229,1235,1235,1230,1210,1181,1156,1131,1107],"ymouse":[650,650,650,650,650,650,650,650,650,650,650,650,650,650,650,650,650,650,650,650,650,650,650,650,650,650,650,650,650,650,650,650,650,650,650,650,650,650,657,662,664,634,591,540,473,409,286,246,217,208,203,187,167,145,129,116,98],"timestamp_mouse":[11,34,51,72,90,111,131,151,172,190,210,230,251,272,291,311,332,352,372,390,411,430,452,471,490,511,532,552,571,591,611,632,652,672,692,711,732,751,772,791,813,832,851,871,891,911,931,951,972,991,1012,1031,1052,1072,1091,1111,1131],"xSR":741.5,"ySR":573.95,"xT1":424.9,"yT1":0,"xT2":1058.1,"yT2":0,"toosoon":0,"cond_shown":"equaldotsize","ratio_trial":750,"smaller_num":"12","larger_num":"16","correct_side":2,"subjID":"juansantiagotochoy.28","gender":"0","age":"11","school":"6"},{"start_time":1551900502140,"click_time":1551900520116,"finger_time":1551900502336,"fix_duration":602.6448479930539,"trial":11,"RT":196,"MT":17780,"sideResp":2,"stimulus":"img/250/randomdotsizeEA/L/5_Ratio_250_L_24_R_6.png","xmouse":[813,813,813,813,813,813,813,813,813,813,813,813,813,812,808,806,806,806,806,806,806,806,806,806,806,806,806,806,806,806,806,806,806,806,806,806,806,806,806,806,806,806,806,806,806,806,806,806,806,806,806,806,806,806,806,806,806,806,806,806,806,806,806,806,806,806,806,806,806,806,806,806,806,806,806,806,806,806,806,806,806,806,806,806,806,806,806,806,806,806,806,806,806,806,806,806,806,806,806,806,806,806,806,806,806,806,806,806,806,806,806,806,806,806,806,806,806,806,806,806,806,806,806,806,806,806,806,806,806,806,806,806,806,806,806,806,806,806,806,806,806,806,806,806,806,806,806,806,806,806,806,806,806,806,806,806,806,806,806,806,806,806,806,806,806,806,806,806,806,806,806,806,806,806,806,806,806,806,806,806,806,806,806,806,806,806,806,806,806,806,806,806,806,806,806,806,806,806,806,806,806,806,806,806,806,806,806,806,806,806,806,806,806,806,806,806,806,806,806,806,806,806,806,806,806,806,806,806,806,806,806,806,806,806,806,806,806,806,806,806,806,806,806,806,806,806,806,806,806,806,806,806,806,806,806,806,806,806,806,806,806,806,806,806,806,806,806,806,806,806,806,806,806,806,806,806,806,806,806,806,806,806,806,806,806,806,806,806,806,806,806,806,806,806,806,806,806,806,806,806,806,806,806,806,806,806,806,806,806,806,806,806,806,806,806,806,806,806,806,806,806,806,806,806,806,806,806,806,806,806,806,806,806,806,806,806,806,806,806,806,806,806,806,806,806,806,806,806,806,806,806,806,806,806,806,806,806,806,806,806,806,806,806,806,806,806,806,806,806,806,806,806,806,806,806,806,806,806,806,806,806,806,806,806,806,806,806,806,806,806,806,806,806,806,806,806,806,806,806,806,806,806,806,806,806,806,806,806,806,806,806,806,806,806,806,806,806,806,806,806,806,806,806,806,806,806,806,806,806,806,806,806,806,806,806,806,806,806,806,806,806,806,806,806,806,806,806,806,806,806,806,806,806,806,806,806,806,806,806,806,806,806,806,806,806,806,806,806,806,806,806,806,806,806,806,806,806,806,806,806,806,806,806,806,806,806,806,806,806,806,806,806,806,806,806,806,806,806,806,806,806,806,806,806,806,806,806,806,806,806,806,806,806,806,806,806,806,806,806,806,806,806,806,806,806,806,806,806,806,806,806,806,806,806,806,806,806,806,806,806,806,806,806,806,806,806,806,806,806,806,806,806,806,806,806,806,806,806,806,806,806,806,806,806,806,806,806,806,806,806,806,806,806,806,806,806,806,806,806,806,806,806,806,806,806,806,806,806,806,806,806,806,806,806,806,806,806,806,806,806,806,806,806,806,806,806,806,806,806,806,806,806,806,806,806,806,806,806,806,806,806,806,806,806,806,806,806,806,806,806,806,806,806,806,806,806,806,806,806,806,806,806,806,806,806,806,806,806,806,806,806,806,806,806,806,806,806,806,806,806,806,806,806,806,806,806,806,806,806,806,806,806,806,806,806,806,806,806,806,806,806,806,806,806,806,806,806,806,806,806,806,806,806,806,806,806,806,806,806,806,806,806,806,806,806,806,806,806,806,806,806,806,806,806,806,806,806,806,806,806,806,806,806,806,806,806,806,806,806,806,806,806,806,806,806,806,806,806,806,806,806,806,806,806,806,806,806,806,806,806,806,806,806,806,806,806,806,806,806,806,806,806,806,806,806,806,806,806,806,806,806,806,806,806,806,806,806,806,806,806,806,806,806,806,806,806,806,806,806,806,806,806,806,806,806,806,806,806,806,806,806,806,806,806,806,806,806,806,806,806,806,806,806,806,806,806,806,806,806,806,806,806,806,806,806,806,806,806,806,806,806,806,806,806,806,806,806,806,806,806,806,806,806,806,806,806,806,806,806,806,806,806,806,806,806,806,806,806,806,806,806,806,806,806,806,806,806,806,806,806,806,806,806,806,806,806,806,806,806,806,806,816,851,923,968,969,973,976,978,981,982,982,984,986,993,1006,1022,1048,1061],"ymouse":[574,574,574,574,574,574,574,574,574,573,573,573,573,575,581,583,583,583,583,583,583,583,583,583,583,583,583,583,583,583,583,583,583,583,583,583,583,583,583,583,583,583,583,583,583,583,583,583,583,583,583,583,583,583,583,583,583,583,583,583,583,583,583,583,583,583,583,583,583,583,583,583,583,583,583,583,583,583,583,583,583,583,583,583,583,583,583,583,583,583,583,583,583,583,583,583,583,583,583,583,583,583,583,583,583,583,583,583,583,583,583,583,583,583,583,583,583,583,583,583,583,583,583,583,583,583,583,583,583,583,583,583,583,583,583,583,583,583,583,583,583,583,583,583,583,583,583,583,583,583,583,583,583,583,583,583,583,583,583,583,583,583,583,583,583,583,583,583,583,583,583,583,583,583,583,583,583,583,583,583,583,583,583,583,583,583,583,583,583,583,583,583,583,583,583,583,583,583,583,583,583,583,583,583,583,583,583,583,583,583,583,583,583,583,583,583,583,583,583,583,583,583,583,583,583,583,583,583,583,583,583,583,583,583,583,583,583,583,583,583,583,583,583,583,583,583,583,583,583,583,583,583,583,583,583,583,583,583,583,583,583,583,583,583,583,583,583,583,583,583,583,583,583,583,583,583,583,583,583,583,583,583,583,583,583,583,583,583,583,583,583,583,583,583,583,583,583,583,583,583,583,583,583,583,583,583,583,583,583,583,583,583,583,583,583,583,583,583,583,583,583,583,583,583,583,583,583,583,583,583,583,583,583,583,583,583,583,583,583,583,583,583,583,583,583,583,583,583,583,583,583,583,583,583,583,583,583,583,583,583,583,583,583,583,583,583,583,583,583,583,583,583,583,583,583,583,583,583,583,583,583,583,583,583,583,583,583,583,583,583,583,583,583,583,583,583,583,583,583,583,583,583,583,583,583,583,583,583,583,583,583,583,583,583,583,583,583,583,583,583,583,583,583,583,583,583,583,583,583,583,583,583,583,583,583,583,583,583,583,583,583,583,583,583,583,583,583,583,583,583,583,583,583,583,583,583,583,583,583,583,583,583,583,583,583,583,583,583,583,583,583,583,583,583,583,583,583,583,583,583,583,583,583,583,583,583,583,583,583,583,583,583,583,583,583,583,583,583,583,583,583,583,583,583,583,583,583,583,583,583,583,583,583,583,583,583,583,583,583,583,583,583,583,583,583,583,583,583,583,583,583,583,583,583,583,583,583,583,583,583,583,583,583,583,583,583,583,583,583,583,583,583,583,583,583,583,583,583,583,583,583,583,583,583,583,583,583,583,583,583,583,583,583,583,583,583,583,583,583,583,583,583,583,583,583,583,583,583,583,583,583,583,583,583,583,583,583,583,583,583,583,583,583,583,583,583,583,583,583,583,583,583,583,583,583,583,583,583,583,583,583,583,583,583,583,583,583,583,583,583,583,583,583,583,583,583,583,583,583,583,583,583,583,583,583,583,583,583,583,583,583,583,583,583,583,583,583,583,583,583,583,583,583,583,583,583,583,583,583,583,583,583,583,583,583,583,583,583,583,583,583,583,583,583,583,583,583,583,583,583,583,583,583,583,583,583,583,583,583,583,583,583,583,583,583,583,583,583,583,583,583,583,583,583,583,583,583,583,583,583,583,583,583,583,583,583,583,583,583,583,583,583,583,583,583,583,583,583,583,583,583,583,583,583,583,583,583,583,583,583,583,583,583,583,583,583,583,583,583,583,583,583,583,583,583,583,583,583,583,583,583,583,583,583,583,583,583,583,583,583,583,583,583,583,583,583,583,583,583,583,583,583,583,583,583,583,583,583,583,583,583,583,583,583,583,583,583,583,583,583,583,583,583,583,583,583,583,583,583,583,583,583,583,583,583,583,583,583,583,583,583,583,583,583,583,583,583,583,583,583,583,583,583,583,583,583,583,583,583,583,583,583,583,583,583,583,583,583,583,583,583,583,583,583,583,583,583,583,583,583,583,583,583,583,583,583,583,583,583,583,583,579,555,514,490,482,467,458,452,442,439,435,427,418,366,269,189,92,41],"timestamp_mouse":[16,37,56,76,96,117,137,156,176,196,216,237,256,276,297,316,337,356,376,396,416,436,456,476,496,517,536,556,577,596,616,637,657,677,696,717,737,757,777,796,816,836,857,876,896,916,937,956,976,996,1016,1036,1057,1076,1097,1116,1136,1156,1177,1196,1216,1236,1256,1277,1296,1316,1337,1356,1376,1396,1417,1437,1457,1477,1498,1516,1536,1557,1576,1596,1617,1636,1657,1676,1696,1718,1736,1756,1776,1796,1816,1836,1857,1877,1897,1916,1937,1957,1977,1996,2017,2036,2056,2077,2097,2117,2136,2156,2177,2197,2217,2237,2257,2277,2297,2317,2338,2356,2376,2396,2418,2437,2457,2477,2497,2516,2537,2557,2576,2596,2617,2636,2658,2677,2697,2717,2736,2756,2777,2797,2816,2837,2857,2876,2896,2916,2937,2957,2976,2997,3017,3036,3057,3077,3096,3117,3136,3157,3177,3197,3217,3236,3257,3276,3296,3316,3338,3357,3377,3397,3416,3437,3457,3477,3496,3517,3537,3556,3576,3596,3617,3636,3656,3677,3696,3717,3736,3757,3777,3797,3817,3836,3857,3876,3897,3916,3937,3956,3976,3996,4017,4036,4057,4077,4097,4116,4136,4156,4177,4196,4216,4236,4256,4277,4296,4316,4337,4357,4377,4396,4417,4437,4457,4477,4497,4516,4537,4557,4577,4597,4616,4636,4656,4677,4696,4717,4736,4756,4777,4796,4817,4837,4856,4876,4897,4917,4936,4956,4976,4997,5016,5036,5057,5077,5096,5117,5137,5156,5176,5196,5217,5236,5256,5277,5296,5316,5337,5356,5378,5397,5416,5437,5457,5476,5496,5517,5536,5557,5576,5596,5617,5636,5657,5676,5696,5717,5736,5756,5777,5798,5816,5836,5857,5876,5897,5917,5936,5956,5976,5996,6016,6037,6056,6076,6096,6117,6138,6157,6177,6197,6217,6237,6256,6277,6296,6317,6337,6356,6376,6396,6417,6436,6457,6477,6496,6516,6536,6556,6577,6597,6617,6636,6656,6676,6697,6718,6736,6757,6777,6796,6817,6837,6858,6876,6897,6916,6938,6957,6976,6996,7016,7036,7056,7076,7096,7116,7136,7156,7176,7196,7217,7236,7256,7277,7296,7316,7337,7356,7376,7397,7416,7437,7456,7476,7496,7518,7536,7556,7576,7596,7616,7636,7656,7677,7697,7716,7736,7757,7776,7796,7818,7836,7856,7876,7896,7917,7936,7956,7976,7997,8018,8036,8056,8076,8096,8117,8136,8156,8176,8197,8217,8248,8256,8276,8297,8317,8337,8356,8376,8396,8416,8436,8456,8477,8496,8517,8536,8556,8576,8596,8617,8636,8657,8676,8696,8717,8736,8756,8777,8796,8816,8837,8857,8876,8896,8916,8936,8957,8977,8997,9017,9036,9057,9076,9096,9117,9137,9156,9177,9196,9217,9237,9256,9277,9296,9317,9336,9356,9377,9396,9417,9436,9457,9477,9496,9517,9537,9556,9576,9597,9617,9636,9656,9676,9697,9717,9736,9756,9777,9797,9816,9837,9856,9876,9896,9916,9937,9957,9976,9996,10017,10036,10057,10076,10096,10117,10136,10156,10177,10197,10217,10237,10256,10276,10297,10316,10336,10357,10376,10397,10417,10436,10456,10476,10496,10517,10536,10556,10576,10596,10616,10636,10656,10677,10696,10716,10737,10756,10776,10797,10817,10836,10856,10876,10896,10917,10937,10957,10977,10996,11016,11036,11056,11076,11097,11117,11136,11156,11176,11196,11217,11237,11257,11276,11296,11316,11337,11356,11377,11396,11416,11437,11456,11476,11497,11517,11536,11556,11576,11596,11616,11636,11657,11676,11696,11717,11737,11756,11776,11798,11816,11837,11857,11876,11897,11916,11937,11956,11976,11996,12016,12037,12057,12077,12096,12116,12136,12156,12177,12197,12217,12237,12256,12276,12296,12316,12336,12357,12376,12396,12416,12436,12456,12476,12496,12516,12536,12557,12576,12596,12617,12637,12657,12677,12696,12717,12737,12756,12776,12796,12817,12837,12856,12876,12896,12916,12937,12956,12976,12997,13016,13037,13056,13076,13096,13116,13136,13156,13177,13197,13216,13237,13256,13277,13296,13316,13336,13357,13376,13396,13417,13436,13457,13476,13498,13516,13536,13556,13576,13597,13616,13636,13656,13676,13697,13717,13736,13756,13777,13796,13816,13837,13856,13876,13896,13916,13937,13956,13976,13997,14016,14037,14057,14076,14096,14116,14136,14156,14177,14197,14216,14237,14257,14277,14296,14317,14337,14357,14376,14396,14417,14437,14456,14476,14496,14517,14536,14557,14576,14596,14616,14636,14658,14677,14698,14716,14737,14757,14776,14796,14816,14837,14856,14877,14896,14916,14936,14957,14977,14997,15016,15036,15056,15076,15096,15116,15136,15156,15177,15196,15216,15236,15257,15277,15296,15316,15337,15357,15377,15397,15416,15436,15456,15476,15497,15516,15537,15557,15576,15596,15618,15637,15656,15676,15697,15717,15737,15757,15776,15797,15816,15836,15856,15876,15897,15916,15936,15956,15976,15996,16016,16037,16057,16076,16097,16116,16137,16156,16176,16197,16216,16237,16257,16276,16296,16318,16337,16356,16377,16397,16416,16437,16457,16477,16497,16517,16537,16556,16576,16596,16616,16636,16657,16678,16696,16717,16737,16756,16777,16796,16817,16838,16857,16876,16896,16917,16936,16956,16977,16996,17016,17037,17057,17076,17097,17117,17136,17156,17176,17197,17216,17238,17257,17277,17296,17317,17337,17356,17377,17397,17416,17437,17456,17477,17496,17516,17536,17556,17576,17596,17617,17637,17656,17677,17696,17716,17737,17756,17776,17796,17817,17836,17856,17876,17896,17916,17936,17956,17976],"xSR":741.5,"ySR":573.95,"xT1":424.9,"yT1":0,"xT2":1058.1,"yT2":0,"toosoon":0,"cond_shown":"randomdotsizeEA","ratio_trial":250,"smaller_num":"6","larger_num":"24","correct_side":1,"subjID":"juansantiagotochoy.28","gender":"0","age":"11","school":"6"},{"start_time":1551900521968,"click_time":1551900522956,"finger_time":1551900522716,"fix_duration":731.1665559000883,"trial":12,"RT":748,"MT":240,"sideResp":1,"stimulus":"img/500/equaldotsize/L/4_Ratio_500_L_18_R_9.png","xmouse":[798,798,798,798,798,798,798,798,798,798,798,798,798,798,798,798,798,798,798,798,798,798,798,798,798,798,798,798,798,798,798,798,798,798,796,791,784,776,764,730,717,708,703,668,647,626,599,565,503,485],"ymouse":[634,634,634,634,634,634,634,634,634,634,634,634,634,634,634,634,634,634,634,634,634,634,634,634,634,634,634,634,634,634,634,634,634,632,620,602,582,555,521,440,410,385,364,272,236,210,180,146,101,84],"timestamp_mouse":[10,34,48,69,88,108,129,148,168,188,209,228,249,268,288,309,328,348,369,389,408,428,449,469,489,509,528,548,568,589,608,628,649,668,689,708,728,748,768,788,809,828,848,868,889,908,929,950,968,988],"xSR":741.5,"ySR":573.95,"xT1":424.9,"yT1":0,"xT2":1058.1,"yT2":0,"toosoon":0,"cond_shown":"equaldotsize","ratio_trial":500,"smaller_num":"9","larger_num":"18","correct_side":1,"subjID":"juansantiagotochoy.28","gender":"0","age":"11","school":"6"},{"start_time":1551900526630,"click_time":1551900527756,"finger_time":1551900527536,"fix_duration":871.1191657055047,"trial":13,"RT":906,"MT":220,"sideResp":1,"stimulus":"img/250/equaldotsize/L/5_Ratio_250_L_24_R_6.png","xmouse":[800,800,800,800,800,800,800,800,800,800,800,800,800,800,800,800,800,800,800,800,800,800,800,800,800,800,800,800,800,800,800,800,800,800,800,800,800,800,800,800,800,800,800,800,794,765,748,718,680,627,492,453,438,435,435,434,433],"ymouse":[618,618,618,618,618,618,618,618,618,618,618,618,618,618,618,618,618,618,618,618,618,618,618,618,618,618,618,618,618,618,618,618,618,618,618,618,618,618,618,618,618,618,618,616,611,498,416,310,173,0,0,0,0,0,0,0,4],"timestamp_mouse":[8,39,46,66,87,108,126,146,167,187,206,227,247,266,287,306,327,348,367,387,407,427,446,467,486,506,526,547,566,587,606,626,646,666,686,708,727,747,766,786,806,827,846,866,886,906,926,946,966,986,1008,1026,1046,1067,1087,1106,1126],"xSR":741.5,"ySR":573.95,"xT1":424.9,"yT1":0,"xT2":1058.1,"yT2":0,"toosoon":0,"cond_shown":"equaldotsize","ratio_trial":250,"smaller_num":"6","larger_num":"24","correct_side":1,"subjID":"juansantiagotochoy.28","gender":"0","age":"11","school":"6"},{"start_time":1551900529398,"click_time":1551900530757,"finger_time":1551900530296,"fix_duration":581.9805992804767,"trial":14,"RT":898,"MT":461,"sideResp":2,"stimulus":"img/900/equaldotsize/R/6_Ratio_900_L_9_R_10.png","xmouse":[782,782,782,782,782,782,782,782,782,782,782,782,782,782,782,782,782,780,775,774,774,774,774,774,774,774,774,774,774,774,774,774,774,774,774,774,774,774,774,774,774,774,773,797,842,891,1025,1133,1278,1439,1569,1569,1569,1569,1569,1569,1559,1520,1479,1427,1372,1223,1174,1134,1109,1091,1082,1081],"ymouse":[640,640,640,640,640,640,640,640,640,640,640,640,640,640,640,640,640,640,640,640,640,640,640,640,640,640,640,640,640,640,640,640,640,640,640,640,640,640,640,640,640,640,638,599,536,460,271,173,74,10,0,0,0,0,0,0,0,0,0,0,0,0,0,0,0,0,0,1],"timestamp_mouse":[18,38,59,79,99,118,138,158,178,199,218,239,258,278,298,318,339,358,379,399,418,438,459,478,500,518,539,558,578,598,618,638,658,678,698,718,738,758,778,799,819,840,858,878,898,918,938,959,979,999,1019,1038,1059,1078,1099,1118,1141,1158,1179,1198,1219,1240,1258,1278,1298,1318,1338,1359],"xSR":741.5,"ySR":573.95,"xT1":424.9,"yT1":0,"xT2":1058.1,"yT2":0,"toosoon":0,"cond_shown":"equaldotsize","ratio_trial":900,"smaller_num":"9","larger_num":"10","correct_side":2,"subjID":"juansantiagotochoy.28","gender":"0","age":"11","school":"6"},{"start_time":1551900533248,"click_time":1551900534556,"finger_time":1551900534036,"fix_duration":250,"trial":15,"RT":788,"MT":520,"sideResp":2,"stimulus":"img/250/equaldotsize/R/12_Ratio_250_L_5_R_20.png","xmouse":[788,788,788,780,777,777,777,777,777,777,777,777,777,777,777,777,777,777,777,777,777,777,779,780,782,782,783,783,783,783,783,783,783,783,784,789,793,802,820,910,959,1019,1080,1139,1189,1196,1198,1199,1200,1216,1228,1239,1243,1245,1244,1243,1241,1237,1228,1215,1199,1189,1182,1175,1161,1152],"ymouse":[654,654,654,654,653,653,653,653,653,653,655,657,658,658,658,658,658,658,658,658,658,660,661,661,663,663,664,664,664,664,664,664,664,664,664,661,656,642,617,498,452,400,349,301,263,257,255,254,253,228,208,189,171,158,146,143,140,136,126,114,98,88,79,65,38,27],"timestamp_mouse":[10,36,49,68,89,109,129,150,168,189,208,229,249,268,289,309,328,348,368,389,409,429,449,468,488,509,528,549,569,589,609,628,649,670,689,708,728,748,769,788,808,828,848,868,888,908,928,948,969,988,1008,1028,1048,1068,1088,1109,1128,1148,1168,1188,1209,1228,1248,1268,1288,1308],"xSR":741.5,"ySR":573.95,"xT1":424.9,"yT1":0,"xT2":1058.1,"yT2":0,"toosoon":0,"cond_shown":"equaldotsize","ratio_trial":250,"smaller_num":"5","larger_num":"20","correct_side":2,"subjID":"juansantiagotochoy.28","gender":"0","age":"11","school":"6"},{"start_time":1551900536251,"click_time":1551900537456,"finger_time":1551900537116,"fix_duration":634.7352892573217,"trial":16,"RT":865,"MT":340,"sideResp":1,"stimulus":"img/750/equaldotanddens/L/1_Ratio_750_L_20_R_15.png","xmouse":[779,779,779,779,779,779,779,779,779,779,779,779,779,779,779,779,779,779,779,779,779,779,779,779,779,779,779,779,779,779,779,779,779,779,779,779,779,779,779,779,779,779,779,775,750,730,713,698,683,652,647,619,596,578,563,561,558,553,547,527,519],"ymouse":[629,629,629,629,629,629,629,629,629,629,629,629,629,629,629,629,629,629,629,629,629,629,629,629,629,629,629,629,629,629,629,629,629,629,629,629,629,629,629,629,629,607,592,558,471,428,387,338,276,76,36,0,0,0,0,0,0,0,3,10,14],"timestamp_mouse":[14,34,46,66,85,106,125,145,165,185,206,225,245,265,285,305,325,345,367,386,405,425,446,466,486,506,525,545,565,586,605,625,645,666,685,705,727,746,766,785,805,825,845,865,885,905,925,945,966,986,1005,1025,1046,1065,1085,1107,1125,1145,1165,1185,1205],"xSR":741.5,"ySR":573.95,"xT1":424.9,"yT1":0,"xT2":1058.1,"yT2":0,"toosoon":0,"cond_shown":"equaldotanddens","ratio_trial":750,"smaller_num":"15","larger_num":"20","correct_side":1,"subjID":"juansantiagotochoy.28","gender":"0","age":"11","school":"6"},{"start_time":1551900539165,"click_time":1551900540776,"finger_time":1551900539956,"fix_duration":507.661005445056,"trial":17,"RT":791,"MT":820,"sideResp":2,"stimulus":"img/900/randomdotsizeEA/R/3_Ratio_900_L_9_R_10.png","xmouse":[798,798,799,799,799,799,799,799,799,799,799,799,799,799,799,799,799,799,799,799,799,799,799,799,799,799,799,799,799,799,799,799,799,799,799,799,807,813,831,835,837,838,838,845,854,864,872,872,848,833,819,805,790,750,733,717,703,687,660,646,638,633,631,630,630,630,629,629,629,629,629,629,629,640,657,677,705,759,909,1004,1107],"ymouse":[645,644,643,643,643,643,643,643,643,643,643,643,643,643,643,643,643,643,643,643,643,643,643,643,643,643,643,643,643,643,643,643,643,643,643,643,622,612,575,560,550,538,524,455,384,313,259,223,152,122,98,77,56,5,0,0,0,0,0,0,0,1,3,4,4,4,5,5,5,5,5,6,7,13,20,27,34,46,69,82,96],"timestamp_mouse":[11,35,51,72,91,111,131,152,172,191,212,231,252,271,292,311,332,352,371,391,412,432,451,472,491,512,532,552,571,592,612,632,652,671,692,711,732,751,771,791,811,831,852,872,891,911,931,951,971,991,1012,1032,1051,1071,1091,1112,1131,1151,1171,1191,1211,1231,1252,1271,1291,1312,1331,1351,1371,1392,1411,1431,1452,1472,1491,1512,1532,1551,1572,1591,1611],"xSR":741.5,"ySR":573.95,"xT1":424.9,"yT1":0,"xT2":1058.1,"yT2":0,"toosoon":0,"cond_shown":"randomdotsizeEA","ratio_trial":900,"smaller_num":"9","larger_num":"10","correct_side":2,"subjID":"juansantiagotochoy.28","gender":"0","age":"11","school":"6"},{"start_time":1551900543221,"click_time":1551900544616,"finger_time":1551900544236,"fix_duration":1423.682531368351,"trial":18,"RT":1015,"MT":380,"sideResp":1,"stimulus":"img/900/equaldotanddens/L/8_Ratio_900_L_20_R_18.png","xmouse":[779,779,779,779,779,779,779,779,779,779,779,779,779,779,779,779,779,779,779,779,779,779,779,779,779,779,779,779,779,779,782,790,795,799,801,803,803,803,803,803,803,803,803,803,803,803,803,803,796,785,728,706,692,684,675,653,645,637,626,611,570,561,555,549,546,539,535,532,526,522],"ymouse":[621,621,621,621,621,621,621,621,621,621,621,621,621,621,621,621,621,621,621,621,621,621,621,621,621,621,621,621,621,621,620,615,611,608,607,606,605,605,605,605,605,605,605,605,605,605,605,605,601,600,581,570,557,544,522,427,367,310,262,210,114,93,81,71,64,53,49,46,45,43],"timestamp_mouse":[20,37,55,75,95,115,135,155,176,195,215,235,255,276,296,316,335,355,376,396,416,436,455,476,495,515,536,555,575,596,615,635,655,675,696,715,736,756,775,795,817,835,856,875,896,916,935,955,975,995,1015,1035,1055,1075,1095,1116,1135,1157,1175,1195,1215,1236,1255,1276,1295,1315,1336,1355,1375,1395],"xSR":741.5,"ySR":573.95,"xT1":424.9,"yT1":0,"xT2":1058.1,"yT2":0,"toosoon":0,"cond_shown":"equaldotanddens","ratio_trial":900,"smaller_num":"18","larger_num":"20","correct_side":1,"subjID":"juansantiagotochoy.28","gender":"0","age":"11","school":"6"},{"start_time":1551900547316,"click_time":1551900549236,"finger_time":1551900548836,"fix_duration":1279.0908501965382,"trial":19,"RT":1520,"MT":400,"sideResp":1,"stimulus":"img/500/randomdotsizeEA/L/7_Ratio_500_L_10_R_5.png","xmouse":[780,780,780,780,780,780,780,780,780,780,780,780,780,780,780,780,780,780,780,780,780,780,780,780,780,780,780,780,780,780,780,780,780,780,780,780,780,780,780,780,780,780,780,780,780,780,780,780,780,780,780,780,780,780,780,780,780,780,780,780,780,780,780,780,780,780,780,780,780,780,779,772,769,766,761,758,752,752,752,752,752,751,749,748,747,743,740,739,737,735,729,710,696,678,651,600,513],"ymouse":[632,632,632,632,632,632,632,632,632,632,632,632,632,632,632,632,632,632,632,632,632,632,632,632,632,632,632,632,632,632,632,632,632,632,632,632,632,632,632,632,632,632,632,632,632,632,632,632,632,632,632,632,632,632,632,632,632,632,632,632,632,632,632,632,632,632,632,632,632,632,631,624,618,609,596,581,517,489,465,448,432,400,388,378,372,361,351,346,341,332,322,299,284,268,250,202,95],"timestamp_mouse":[9,33,41,60,81,100,121,140,160,180,200,220,240,261,280,301,320,341,360,380,401,421,441,461,480,501,520,540,560,580,601,620,640,661,680,700,721,740,761,780,800,820,840,861,881,900,921,940,960,980,1000,1020,1040,1060,1080,1101,1120,1140,1161,1180,1200,1220,1240,1261,1281,1300,1321,1341,1360,1380,1402,1420,1440,1461,1480,1501,1520,1540,1561,1581,1600,1621,1641,1661,1681,1701,1720,1740,1761,1780,1801,1820,1840,1860,1880,1900,1920],"xSR":741.5,"ySR":573.95,"xT1":424.9,"yT1":0,"xT2":1058.1,"yT2":0,"toosoon":0,"cond_shown":"randomdotsizeEA","ratio_trial":500,"smaller_num":"5","larger_num":"10","correct_side":1,"subjID":"juansantiagotochoy.28","gender":"0","age":"11","school":"6"},{"start_time":1551900552457,"click_time":1551900554198,"finger_time":1551900553477,"fix_duration":898.4031062607056,"trial":20,"RT":1020,"MT":721,"sideResp":2,"stimulus":"img/750/randomdotsizeEA/L/10_Ratio_750_L_4_R_3.png","xmouse":[802,802,802,802,802,802,802,802,802,802,802,802,802,802,802,802,802,802,802,802,802,802,802,802,802,802,802,802,802,802,802,802,802,802,802,802,802,802,802,802,802,802,802,802,802,802,802,802,802,822,841,865,895,934,1018,1071,1115,1151,1187,1245,1271,1299,1309,1313,1313,1313,1313,1313,1313,1313,1310,1302,1292,1279,1234,1212,1201,1197,1197,1197,1197,1197,1197,1196,1193,1188,1174,1157],"ymouse":[628,628,628,628,628,628,628,628,628,628,628,628,628,628,628,628,628,628,628,628,628,628,628,628,628,628,628,628,628,628,628,628,628,628,628,628,628,628,628,628,628,628,628,628,628,628,628,628,628,609,591,568,535,490,381,317,259,211,164,56,4,0,0,0,0,0,0,0,0,0,1,7,13,21,37,40,42,43,43,43,43,43,43,44,45,47,51,53],"timestamp_mouse":[1,34,39,59,79,100,120,140,160,181,200,219,240,260,280,300,320,339,360,379,400,420,440,460,479,499,520,539,559,579,600,619,639,659,679,700,719,739,759,779,800,819,839,859,880,900,919,939,960,979,1000,1020,1040,1059,1080,1099,1119,1139,1160,1179,1199,1219,1239,1259,1279,1300,1319,1340,1360,1380,1400,1419,1439,1460,1479,1499,1519,1540,1560,1579,1600,1620,1640,1660,1679,1699,1719,1740],"xSR":741.5,"ySR":573.95,"xT1":424.9,"yT1":0,"xT2":1058.1,"yT2":0,"toosoon":0,"cond_shown":"randomdotsizeEA","ratio_trial":750,"smaller_num":"3","larger_num":"4","correct_side":1,"subjID":"juansantiagotochoy.28","gender":"0","age":"11","school":"6"},{"start_time":1551900555693,"click_time":1551900556997,"finger_time":1551900556478,"fix_duration":515.5091639687583,"trial":21,"RT":785,"MT":519,"sideResp":2,"stimulus":"img/250/equaldotanddens/R/4_Ratio_250_L_3_R_12.png","xmouse":[762,762,762,762,762,762,762,762,762,762,762,762,762,762,762,762,762,762,762,762,762,762,762,762,762,762,762,762,762,762,762,762,762,762,762,762,762,761,769,815,881,953,1099,1161,1207,1246,1286,1356,1365,1366,1366,1366,1366,1364,1351,1333,1316,1274,1269,1265,1259,1247,1220,1203,1178,1133],"ymouse":[621,621,621,621,621,621,621,621,621,621,621,621,621,621,621,621,621,621,621,621,621,621,621,621,621,621,621,621,621,621,621,621,621,621,621,621,621,621,606,546,468,382,213,118,33,0,0,0,0,0,0,0,0,0,11,27,42,75,78,80,83,87,91,92,93,94],"timestamp_mouse":[9,24,43,64,84,103,123,143,163,183,204,223,243,264,283,303,323,343,363,383,404,423,444,464,484,503,523,543,563,584,604,623,644,663,683,703,723,743,763,784,804,823,843,863,883,903,924,944,963,984,1005,1024,1044,1063,1084,1104,1123,1143,1163,1183,1203,1225,1244,1263,1284,1304],"xSR":741.5,"ySR":573.95,"xT1":424.9,"yT1":0,"xT2":1058.1,"yT2":0,"toosoon":0,"cond_shown":"equaldotanddens","ratio_trial":250,"smaller_num":"3","larger_num":"12","correct_side":2,"subjID":"juansantiagotochoy.28","gender":"0","age":"11","school":"6"},{"start_time":1551900558207,"click_time":1551900559196,"finger_time":1551900558996,"fix_duration":250,"trial":22,"RT":789,"MT":200,"sideResp":1,"stimulus":"img/250/randomdotsizeEA/L/14_Ratio_250_L_12_R_3.png","xmouse":[807,807,807,807,807,807,807,807,807,807,807,807,807,807,807,807,807,807,807,807,807,807,807,807,807,807,807,807,807,807,807,807,807,807,807,807,807,800,789,773,748,652,611,567,528,508,493,489,484,480],"ymouse":[636,636,636,636,636,636,636,636,636,636,636,636,636,636,636,636,636,636,636,636,636,636,636,636,636,636,636,636,636,636,636,636,636,636,636,636,636,620,592,549,499,353,301,249,199,167,129,115,100,83],"timestamp_mouse":[10,32,49,69,89,109,129,149,169,189,209,229,250,269,290,310,330,350,371,390,410,429,449,471,489,509,529,549,569,590,609,629,650,669,690,709,729,749,769,789,821,829,849,870,889,909,929,949,969,989],"xSR":741.5,"ySR":573.95,"xT1":424.9,"yT1":0,"xT2":1058.1,"yT2":0,"toosoon":0,"cond_shown":"randomdotsizeEA","ratio_trial":250,"smaller_num":"3","larger_num":"12","correct_side":1,"subjID":"juansantiagotochoy.28","gender":"0","age":"11","school":"6"},{"start_time":1551900560068,"click_time":1551900563236,"finger_time":1551900562896,"fix_duration":250,"trial":23,"RT":2828,"MT":340,"sideResp":2,"stimulus":"img/750/randomdotsizeEA/L/8_Ratio_750_L_4_R_3.png","xmouse":[771,771,771,771,771,771,771,771,771,771,771,771,771,771,771,771,771,771,771,771,771,771,771,771,771,771,771,771,771,771,771,771,771,771,771,771,771,771,771,771,771,771,771,771,771,771,771,771,771,771,771,771,771,771,771,771,771,771,771,771,771,771,771,771,771,771,771,771,771,771,771,771,771,771,771,771,771,771,771,771,771,771,771,771,771,771,771,771,771,771,771,771,771,771,771,771,771,771,771,771,771,771,771,771,771,771,771,771,771,771,771,771,771,771,771,771,771,771,771,771,771,771,771,771,772,773,777,783,786,786,786,786,786,786,786,786,786,786,787,801,821,853,892,952,975,990,1002,1014,1038,1060,1077,1099,1118,1134,1139,1143,1147,1149,1149],"ymouse":[619,619,619,619,619,619,619,619,619,619,619,619,619,619,619,619,619,619,619,619,619,619,619,619,619,619,619,619,619,619,619,619,619,619,619,619,619,619,619,619,619,619,619,619,619,619,619,619,619,619,619,619,619,619,619,619,619,619,619,619,619,619,619,619,619,619,619,619,619,619,619,619,619,619,619,619,619,619,619,619,619,619,619,619,619,619,619,619,619,619,619,619,619,619,619,619,619,619,619,619,619,619,619,619,619,619,619,619,619,619,619,619,619,619,619,619,619,619,619,619,619,619,619,619,619,619,618,614,614,614,614,614,614,614,614,614,614,614,613,604,590,567,539,490,471,456,442,427,401,378,356,319,278,221,196,170,143,118,61],"timestamp_mouse":[7,39,48,68,88,108,129,149,168,189,208,228,248,268,288,308,328,348,369,389,408,429,448,468,487,508,528,548,569,588,609,628,649,669,688,709,728,748,769,788,808,828,848,869,889,908,928,949,968,988,1008,1028,1048,1068,1088,1108,1129,1148,1169,1188,1208,1228,1249,1268,1288,1308,1329,1349,1369,1389,1409,1428,1448,1468,1489,1509,1527,1549,1568,1588,1608,1628,1647,1669,1689,1708,1728,1749,1769,1788,1807,1829,1848,1868,1888,1908,1929,1949,1968,1988,2008,2028,2048,2067,2088,2109,2127,2149,2168,2188,2209,2228,2247,2269,2288,2308,2329,2348,2368,2389,2407,2429,2448,2468,2488,2508,2527,2548,2568,2588,2608,2628,2647,2668,2688,2708,2729,2749,2768,2788,2808,2828,2849,2867,2887,2907,2928,2948,2968,2989,3007,3028,3047,3069,3089,3108,3128,3148,3168],"xSR":741.5,"ySR":573.95,"xT1":424.9,"yT1":0,"xT2":1058.1,"yT2":0,"toosoon":0,"cond_shown":"randomdotsizeEA","ratio_trial":750,"smaller_num":"3","larger_num":"4","correct_side":1,"subjID":"juansantiagotochoy.28","gender":"0","age":"11","school":"6"},{"start_time":1551900565146,"click_time":1551900566036,"finger_time":1551900565196,"fix_duration":909.5276987521154,"trial":24,"RT":50,"MT":840,"sideResp":1,"stimulus":"img/500/equaldotanddens/L/11_Ratio_500_L_12_R_6.png","xmouse":[835,846,851,854,854,854,854,854,854,854,854,854,854,854,854,854,854,854,854,854,854,854,854,854,854,850,838,826,815,777,752,721,688,626,606,589,583,578,567,557,547,532,510,488],"ymouse":[655,655,655,655,655,655,655,655,655,655,655,655,655,655,655,655,655,655,655,655,655,655,655,655,655,654,650,643,636,590,540,470,392,204,128,71,37,7,0,0,0,0,0,1],"timestamp_mouse":[32,50,70,89,110,130,151,170,191,209,230,250,270,291,311,331,349,369,389,411,430,450,470,490,511,530,551,571,589,610,630,650,670,691,710,730,751,771,790,809,830,850,871,890],"xSR":741.5,"ySR":573.95,"xT1":424.9,"yT1":0,"xT2":1058.1,"yT2":0,"toosoon":0,"cond_shown":"equaldotanddens","ratio_trial":500,"smaller_num":"6","larger_num":"12","correct_side":1,"subjID":"juansantiagotochoy.28","gender":"0","age":"11","school":"6"},{"start_time":1551900569375,"click_time":1551900570835,"finger_time":1551900570257,"fix_duration":817.9739404872005,"trial":25,"RT":882,"MT":578,"sideResp":1,"stimulus":"img/900/equaldotsize/L/8_Ratio_900_L_20_R_18.png","xmouse":[761,762,762,763,763,763,763,763,763,763,763,763,763,763,763,763,763,763,763,763,763,763,763,763,763,763,763,763,763,763,763,763,763,763,763,763,763,763,763,763,763,763,766,802,840,877,906,923,941,942,942,942,942,942,942,942,942,942,942,939,932,925,919,916,907,890,853,785,635,573,515,482,462,455],"ymouse":[636,636,636,636,636,636,636,636,636,636,636,636,636,636,636,636,636,636,636,636,636,636,636,636,636,636,636,636,636,636,636,636,636,636,636,636,636,636,636,636,636,636,635,586,533,484,442,418,384,381,380,380,380,380,380,380,380,380,380,385,396,403,409,411,411,400,374,326,224,181,141,116,101,96],"timestamp_mouse":[4,37,41,62,81,101,121,141,161,181,201,220,242,260,281,301,322,340,361,381,402,420,442,461,482,502,522,541,562,581,601,622,642,662,680,701,722,741,761,782,800,822,841,860,882,900,922,942,961,980,1001,1021,1042,1062,1082,1101,1121,1141,1161,1181,1201,1222,1241,1261,1281,1301,1322,1341,1361,1381,1401,1422,1442,1460],"xSR":741.5,"ySR":573.95,"xT1":424.9,"yT1":0,"xT2":1058.1,"yT2":0,"toosoon":0,"cond_shown":"equaldotsize","ratio_trial":900,"smaller_num":"18","larger_num":"20","correct_side":1,"subjID":"juansantiagotochoy.28","gender":"0","age":"11","school":"6"},{"start_time":1551900572047,"click_time":1551900573836,"finger_time":1551900572996,"fix_duration":250,"trial":26,"RT":949,"MT":840,"sideResp":2,"stimulus":"img/900/equaldotanddens/R/12_Ratio_900_L_18_R_20.png","xmouse":[817,817,817,817,817,817,817,817,817,817,817,817,817,817,817,817,817,817,817,817,817,817,817,817,817,817,817,817,817,817,817,817,817,817,817,817,817,817,817,817,817,817,817,817,817,822,828,845,868,889,903,914,925,938,962,979,994,1009,1022,1073,1098,1124,1150,1170,1188,1193,1195,1195,1195,1192,1192,1195,1195,1192,1176,1176,1176,1176,1174,1171,1170,1170,1170,1170,1170,1170,1170,1169,1166,1153],"ymouse":[632,632,632,632,632,632,632,632,632,632,632,632,632,632,632,632,632,632,632,632,632,632,632,632,632,632,632,632,632,632,632,632,632,632,632,632,632,632,632,632,632,632,632,632,632,631,626,614,597,578,558,543,527,510,476,456,435,414,391,326,296,263,231,205,163,140,119,100,85,72,57,33,19,0,0,0,0,0,2,26,30,30,30,30,31,31,31,31,31,34],"timestamp_mouse":[10,38,50,69,88,109,130,149,168,189,209,229,250,270,290,309,329,349,369,389,410,429,448,470,489,510,528,549,569,589,609,630,649,670,690,709,729,749,769,789,809,829,850,869,889,909,928,949,969,989,1010,1029,1049,1069,1088,1109,1130,1150,1170,1189,1210,1230,1249,1269,1289,1310,1328,1349,1370,1389,1408,1429,1449,1469,1490,1508,1529,1549,1570,1589,1609,1629,1649,1670,1689,1710,1729,1749,1770,1789],"xSR":741.5,"ySR":573.95,"xT1":424.9,"yT1":0,"xT2":1058.1,"yT2":0,"toosoon":0,"cond_shown":"equaldotanddens","ratio_trial":900,"smaller_num":"18","larger_num":"20","correct_side":2,"subjID":"juansantiagotochoy.28","gender":"0","age":"11","school":"6"},{"start_time":1551900576321,"click_time":1551900577476,"finger_time":1551900577116,"fix_duration":923.37656458039,"trial":27,"RT":795,"MT":360,"sideResp":2,"stimulus":"img/900/equaldotanddens/R/12_Ratio_900_L_18_R_20.png","xmouse":[753,753,753,753,753,753,753,753,753,753,753,753,753,753,753,753,753,753,753,753,753,753,753,753,753,753,753,753,753,753,753,753,753,753,753,753,753,764,783,826,894,922,939,958,968,977,977,978,981,986,997,998,1001,1004,1010,1026,1055,1083],"ymouse":[615,615,615,615,615,615,615,615,615,615,615,615,615,615,615,615,615,615,615,615,615,615,615,615,615,615,615,615,615,615,615,615,615,615,615,615,615,603,580,529,390,325,287,256,231,209,207,205,200,193,178,175,170,166,156,135,111,95],"timestamp_mouse":[18,36,55,75,95,115,134,156,175,195,215,236,255,275,296,316,335,356,376,396,416,435,456,476,496,515,536,555,575,596,616,636,655,675,696,716,735,755,776,795,815,834,855,875,896,915,936,955,975,995,1015,1035,1054,1075,1095,1114,1135,1155],"xSR":741.5,"ySR":573.95,"xT1":424.9,"yT1":0,"xT2":1058.1,"yT2":0,"toosoon":0,"cond_shown":"equaldotanddens","ratio_trial":900,"smaller_num":"18","larger_num":"20","correct_side":2,"subjID":"juansantiagotochoy.28","gender":"0","age":"11","school":"6"},{"start_time":1551900579836,"click_time":1551900580856,"finger_time":1551900580497,"fix_duration":1399.2759681489206,"trial":28,"RT":661,"MT":359,"sideResp":1,"stimulus":"img/500/equaldotsize/L/5_Ratio_500_L_4_R_2.png","xmouse":[791,791,791,791,791,791,791,791,791,791,791,791,791,791,791,791,791,791,791,791,791,791,791,791,791,791,791,791,791,791,791,791,787,780,763,730,707,692,680,670,636,616,588,544,511,467,452,443,442,442,442,442],"ymouse":[637,637,637,637,637,637,637,637,637,637,637,637,637,637,637,637,637,637,637,637,637,637,637,637,637,637,637,637,637,637,637,637,617,560,505,410,359,324,294,271,212,194,171,150,130,111,105,101,100,100,100,98],"timestamp_mouse":[8,30,40,60,82,101,121,139,160,181,200,219,241,259,281,301,321,340,360,381,401,421,440,460,480,501,520,541,560,581,601,619,640,661,680,700,719,740,760,780,800,819,839,860,880,900,921,940,961,981,1000,1020],"xSR":741.5,"ySR":573.95,"xT1":424.9,"yT1":0,"xT2":1058.1,"yT2":0,"toosoon":0,"cond_shown":"equaldotsize","ratio_trial":500,"smaller_num":"2","larger_num":"4","correct_side":1,"subjID":"juansantiagotochoy.28","gender":"0","age":"11","school":"6"},{"start_time":1551900583343,"click_time":1551900584636,"finger_time":1551900584097,"fix_duration":345.7278664491741,"trial":29,"RT":754,"MT":539,"sideResp":1,"stimulus":"img/750/equaldotsize/L/9_Ratio_750_L_4_R_3.png","xmouse":[802,802,802,802,802,802,802,802,802,802,802,802,802,802,802,802,802,802,802,802,802,802,802,802,802,802,802,802,802,802,802,802,802,802,802,802,807,815,819,801,779,762,751,744,739,730,717,694,647,524,478,447,434,427,425,425,425,425,424,424,427,429,431,434,447],"ymouse":[653,653,653,653,653,653,653,653,653,653,653,653,653,653,653,653,653,653,653,653,653,653,653,653,653,653,653,653,653,653,653,653,653,653,653,650,617,557,503,393,351,325,311,305,302,298,292,283,264,218,204,199,198,198,198,198,198,198,196,189,180,164,146,127,80],"timestamp_mouse":[21,42,53,73,93,114,133,154,173,193,214,233,253,274,294,314,333,353,373,393,413,434,453,473,494,513,534,553,574,594,614,633,654,673,693,714,732,754,774,793,812,833,853,873,893,914,932,953,973,992,1012,1033,1053,1073,1094,1114,1133,1153,1173,1193,1213,1232,1252,1273,1293],"xSR":741.5,"ySR":573.95,"xT1":424.9,"yT1":0,"xT2":1058.1,"yT2":0,"toosoon":0,"cond_shown":"equaldotsize","ratio_trial":750,"smaller_num":"3","larger_num":"4","correct_side":1,"subjID":"juansantiagotochoy.28","gender":"0","age":"11","school":"6"},{"start_time":1551900587428,"click_time":1551900588517,"finger_time":1551900588077,"fix_duration":1430.7117964168817,"trial":30,"RT":649,"MT":440,"sideResp":1,"stimulus":"img/500/equaldotanddens/L/7_Ratio_500_L_10_R_5.png","xmouse":[792,792,792,792,792,792,792,792,792,792,792,792,792,792,792,792,792,792,792,792,792,792,792,792,792,792,792,792,792,792,792,792,792,791,789,782,779,777,777,780,772,751,734,721,709,693,684,675,663,648,623,607,588,550,487],"ymouse":[619,619,619,619,619,619,619,619,619,619,619,619,619,619,619,619,619,619,619,619,619,619,619,619,619,619,619,619,619,619,606,585,566,551,533,493,467,436,411,388,322,270,245,228,211,174,157,143,125,109,93,88,85,80,70],"timestamp_mouse":[9,37,49,68,88,108,129,148,169,188,209,228,247,268,287,308,328,348,369,388,408,429,447,468,489,508,529,549,568,588,607,628,649,669,688,708,728,748,768,789,808,829,849,867,887,908,928,948,967,989,1008,1029,1047,1068,1089],"xSR":741.5,"ySR":573.95,"xT1":424.9,"yT1":0,"xT2":1058.1,"yT2":0,"toosoon":0,"cond_shown":"equaldotanddens","ratio_trial":500,"smaller_num":"5","larger_num":"10","correct_side":1,"subjID":"juansantiagotochoy.28","gender":"0","age":"11","school":"6"},{"start_time":1551900590392,"click_time":1551900591637,"finger_time":1551900591276,"fix_duration":815.9503818665542,"trial":31,"RT":884,"MT":361,"sideResp":1,"stimulus":"img/250/randomdotsizeEA/L/2_Ratio_250_L_16_R_4.png","xmouse":[775,778,778,781,782,783,784,788,791,796,800,801,801,801,801,801,801,801,801,801,801,801,801,801,801,801,801,801,801,801,801,801,801,801,801,801,801,801,801,801,800,800,800,797,795,784,767,706,652,588,530,475,427,427,427,427,427,427,427,427,427,427,433],"ymouse":[626,622,622,621,621,621,621,621,621,624,626,627,627,627,627,627,627,627,627,627,628,628,628,628,628,628,628,628,628,628,628,628,628,628,628,628,628,628,628,628,628,624,602,585,562,523,458,275,166,54,0,0,0,0,0,0,0,0,0,0,0,0,1],"timestamp_mouse":[3,24,44,64,85,104,124,144,164,183,204,225,244,263,285,304,324,345,364,384,405,424,444,465,484,504,524,545,564,585,604,625,645,665,685,705,724,745,764,785,804,823,844,863,884,904,924,944,964,984,1005,1024,1044,1065,1083,1105,1124,1144,1164,1184,1204,1225,1245],"xSR":741.5,"ySR":573.95,"xT1":424.9,"yT1":0,"xT2":1058.1,"yT2":0,"toosoon":0,"cond_shown":"randomdotsizeEA","ratio_trial":250,"smaller_num":"4","larger_num":"16","correct_side":1,"subjID":"juansantiagotochoy.28","gender":"0","age":"11","school":"6"},{"start_time":1551900593851,"click_time":1551900595376,"finger_time":1551900594935,"fix_duration":1314.0599051231163,"trial":32,"RT":1084,"MT":441,"sideResp":2,"stimulus":"img/900/equaldotanddens/R/11_Ratio_900_L_18_R_20.png","xmouse":[803,803,803,803,803,803,803,803,803,803,803,803,803,802,802,802,802,802,802,802,802,802,802,802,802,802,802,802,802,802,802,802,802,802,802,802,802,802,802,802,802,802,802,802,802,802,802,802,802,802,802,802,802,802,823,841,861,886,931,1075,1126,1176,1212,1231,1253,1259,1264,1271,1275,1276,1275,1273,1267,1247,1196,1168,1143],"ymouse":[636,636,636,636,636,636,636,636,636,636,636,636,636,637,638,638,638,638,638,638,638,638,638,638,638,638,638,638,638,638,638,638,638,638,638,638,638,638,638,638,638,638,638,638,638,638,638,638,638,638,638,631,627,616,563,527,495,461,410,249,205,168,140,123,96,85,73,58,48,32,29,28,25,21,17,15,14],"timestamp_mouse":[5,25,45,65,85,105,125,145,165,186,205,225,246,265,284,304,324,344,365,384,404,424,444,464,484,506,525,546,566,584,606,625,644,666,685,706,726,746,764,786,805,826,845,865,886,906,926,944,964,986,1005,1025,1044,1065,1084,1105,1125,1144,1166,1185,1205,1225,1246,1266,1284,1306,1325,1345,1365,1385,1405,1425,1445,1466,1485,1505,1524],"xSR":741.5,"ySR":573.95,"xT1":424.9,"yT1":0,"xT2":1058.1,"yT2":0,"toosoon":0,"cond_shown":"equaldotanddens","ratio_trial":900,"smaller_num":"18","larger_num":"20","correct_side":2,"subjID":"juansantiagotochoy.28","gender":"0","age":"11","school":"6"},{"start_time":1551900597158,"click_time":1551900598017,"finger_time":1551900597836,"fix_duration":421.69371409569914,"trial":33,"RT":678,"MT":181,"sideResp":2,"stimulus":"img/500/equaldotsize/R/2_Ratio_500_L_3_R_6.png","xmouse":[787,787,787,789,790,791,792,793,793,793,793,793,793,793,793,793,793,793,793,793,793,793,793,793,793,793,793,793,793,793,793,794,808,846,869,902,941,979,1047,1074,1096,1116,1135],"ymouse":[601,601,601,605,606,607,608,608,609,609,609,609,609,609,609,609,609,609,609,609,609,609,609,609,609,609,609,609,609,609,609,609,604,581,563,527,472,406,254,194,148,102,57],"timestamp_mouse":[21,47,58,78,99,117,138,158,178,199,218,238,259,279,297,318,339,357,378,399,417,438,458,479,498,518,539,557,578,598,618,638,658,678,697,717,738,758,777,798,818,838,859],"xSR":741.5,"ySR":573.95,"xT1":424.9,"yT1":0,"xT2":1058.1,"yT2":0,"toosoon":0,"cond_shown":"equaldotsize","ratio_trial":500,"smaller_num":"3","larger_num":"6","correct_side":2,"subjID":"juansantiagotochoy.28","gender":"0","age":"11","school":"6"},{"start_time":1551900600422,"click_time":1551900601457,"finger_time":1551900600477,"fix_duration":1163.5857903139708,"trial":34,"RT":55,"MT":980,"sideResp":1,"stimulus":"img/250/equaldotanddens/L/3_Ratio_250_L_8_R_2.png","xmouse":[839,839,843,845,846,846,846,847,847,847,847,847,847,847,847,847,847,847,847,847,847,847,847,847,847,847,847,847,847,847,847,842,835,825,803,695,659,640,623,611,586,567,546,520,505,480,475,474,474,474,473,473],"ymouse":[617,617,617,617,617,617,617,617,617,617,617,617,617,617,617,617,617,617,617,617,617,617,617,617,617,617,617,617,617,617,616,610,596,554,444,93,27,3,0,0,0,0,0,0,0,0,0,0,0,0,0,7],"timestamp_mouse":[14,34,55,73,95,115,134,154,174,193,215,234,254,274,294,315,335,354,374,395,414,434,454,474,495,514,535,553,574,594,614,634,654,674,694,714,735,754,774,795,815,834,854,874,893,914,934,953,975,995,1014,1035],"xSR":741.5,"ySR":573.95,"xT1":424.9,"yT1":0,"xT2":1058.1,"yT2":0,"toosoon":0,"cond_shown":"equaldotanddens","ratio_trial":250,"smaller_num":"2","larger_num":"8","correct_side":1,"subjID":"juansantiagotochoy.28","gender":"0","age":"11","school":"6"},{"start_time":1551900603113,"click_time":1551900604616,"finger_time":1551900603976,"fix_duration":594.0719051693272,"trial":35,"RT":863,"MT":640,"sideResp":2,"stimulus":"img/750/randomdotsizeEA/L/9_Ratio_750_L_4_R_3.png","xmouse":[775,775,775,775,775,775,775,775,775,775,775,775,775,775,775,775,775,775,775,775,775,775,775,775,775,775,775,775,775,775,775,775,777,778,778,778,781,783,789,797,805,824,839,852,870,900,939,974,1008,1046,1088,1166,1203,1233,1255,1282,1295,1295,1295,1295,1295,1287,1272,1254,1239,1228,1216,1211,1211,1211,1210,1210,1203,1189,1169,1147],"ymouse":[644,644,644,644,644,644,644,644,644,644,644,644,644,644,644,644,644,644,644,644,644,644,644,644,644,644,644,644,644,644,644,644,640,637,636,636,633,631,628,624,619,603,589,575,550,497,433,374,325,277,229,138,95,62,37,5,0,0,0,0,0,0,0,4,7,11,20,22,22,22,22,23,29,39,47,57],"timestamp_mouse":[14,39,43,63,82,104,124,142,164,183,204,224,243,263,284,303,324,343,364,383,403,424,444,463,483,502,523,543,563,582,604,624,644,663,683,704,722,744,763,784,804,822,844,863,883,903,923,943,963,983,1004,1023,1043,1063,1083,1104,1123,1143,1162,1182,1203,1223,1242,1264,1283,1304,1324,1343,1363,1384,1403,1424,1444,1463,1483,1503],"xSR":741.5,"ySR":573.95,"xT1":424.9,"yT1":0,"xT2":1058.1,"yT2":0,"toosoon":0,"cond_shown":"randomdotsizeEA","ratio_trial":750,"smaller_num":"3","larger_num":"4","correct_side":1,"subjID":"juansantiagotochoy.28","gender":"0","age":"11","school":"6"},{"start_time":1551900606258,"click_time":1551900607216,"finger_time":1551900606857,"fix_duration":520.5493535371107,"trial":36,"RT":599,"MT":359,"sideResp":1,"stimulus":"img/500/randomdotsizeEA/L/11_Ratio_500_L_12_R_6.png","xmouse":[806,806,807,808,808,808,808,808,808,808,808,808,808,808,808,808,808,808,808,808,808,808,808,808,808,808,809,811,811,811,804,795,784,759,746,726,705,692,611,565,530,507,486,456,448,444,442,441],"ymouse":[611,611,612,613,613,614,614,614,614,614,614,614,614,614,614,614,614,614,614,614,614,614,614,614,614,614,614,608,587,573,554,533,508,446,399,327,230,130,0,0,0,0,0,0,0,0,0,2],"timestamp_mouse":[18,41,58,78,99,117,139,158,177,199,218,239,258,278,298,319,338,359,379,398,419,438,458,478,497,518,538,559,578,599,618,638,659,678,697,719,738,759,778,798,818,839,859,879,898,918,938,958],"xSR":741.5,"ySR":573.95,"xT1":424.9,"yT1":0,"xT2":1058.1,"yT2":0,"toosoon":0,"cond_shown":"randomdotsizeEA","ratio_trial":500,"smaller_num":"6","larger_num":"12","correct_side":1,"subjID":"juansantiagotochoy.28","gender":"0","age":"11","school":"6"},{"start_time":1551900609894,"click_time":1551900610936,"finger_time":1551900610496,"fix_duration":316.918917675745,"trial":37,"RT":602,"MT":440,"sideResp":2,"stimulus":"img/900/randomdotsizeEA/L/10_Ratio_900_L_20_R_18.png","xmouse":[770,770,770,770,770,770,770,770,770,770,770,770,770,770,774,777,782,787,787,787,787,787,788,788,789,791,792,802,817,830,848,870,913,938,965,986,1024,1071,1086,1105,1122,1136,1167,1185,1196,1198,1198,1193,1187,1182,1177,1169,1158],"ymouse":[617,617,617,617,617,617,617,617,617,617,617,617,617,617,617,617,618,618,618,618,618,618,618,618,618,618,618,618,618,618,614,608,585,568,543,522,475,410,388,362,340,318,269,236,198,177,163,137,129,122,116,108,99],"timestamp_mouse":[14,22,43,63,81,102,122,143,163,182,203,222,242,263,282,302,322,342,363,382,402,422,443,463,483,502,523,542,562,583,602,622,642,663,682,702,722,742,762,782,802,822,842,861,881,902,922,942,963,982,1003,1022,1042],"xSR":741.5,"ySR":573.95,"xT1":424.9,"yT1":0,"xT2":1058.1,"yT2":0,"toosoon":0,"cond_shown":"randomdotsizeEA","ratio_trial":900,"smaller_num":"18","larger_num":"20","correct_side":1,"subjID":"juansantiagotochoy.28","gender":"0","age":"11","school":"6"},{"start_time":1551900612837,"click_time":1551900613936,"finger_time":1551900613536,"fix_duration":300.2733648708633,"trial":38,"RT":699,"MT":400,"sideResp":2,"stimulus":"img/750/equaldotsize/R/5_Ratio_750_L_15_R_20.png","xmouse":[802,802,802,802,802,802,802,802,802,802,802,802,802,802,802,802,802,802,802,802,802,802,802,802,802,802,802,802,802,802,802,802,807,814,855,877,900,930,973,1097,1146,1181,1210,1232,1246,1246,1235,1224,1211,1185,1177,1164,1153,1142,1127],"ymouse":[600,600,600,600,600,600,600,600,600,600,600,600,600,600,600,600,600,600,600,600,600,600,600,600,600,600,600,600,600,600,600,600,595,590,570,559,542,520,483,367,326,285,237,186,103,72,38,16,0,0,0,0,0,0,4],"timestamp_mouse":[32,39,59,79,100,120,139,158,179,198,220,239,259,279,300,319,338,359,378,399,419,439,459,479,500,519,539,559,580,600,619,640,659,678,699,720,739,760,778,799,819,839,860,879,898,920,940,959,980,999,1019,1039,1060,1079,1099],"xSR":741.5,"ySR":573.95,"xT1":424.9,"yT1":0,"xT2":1058.1,"yT2":0,"toosoon":0,"cond_shown":"equaldotsize","ratio_trial":750,"smaller_num":"15","larger_num":"20","correct_side":2,"subjID":"juansantiagotochoy.28","gender":"0","age":"11","school":"6"},{"start_time":1551900616319,"click_time":1551900617436,"finger_time":1551900616916,"fix_duration":981.4282597526625,"trial":39,"RT":597,"MT":520,"sideResp":2,"stimulus":"img/900/equaldotanddens/R/15_Ratio_900_L_9_R_10.png","xmouse":[782,782,782,782,782,782,782,782,782,782,782,782,782,782,782,782,782,782,782,782,782,782,782,785,794,818,823,828,836,848,897,940,990,1048,1103,1263,1298,1315,1326,1335,1338,1338,1338,1338,1338,1338,1330,1298,1257,1228,1195,1191,1187,1180,1168,1127],"ymouse":[589,589,589,589,589,589,589,589,589,589,589,589,589,589,589,589,589,589,589,589,589,589,588,588,588,584,583,580,574,561,512,449,368,277,171,0,0,0,0,0,0,0,0,0,0,0,1,11,23,32,44,47,50,54,58,64],"timestamp_mouse":[17,41,57,76,97,117,136,158,177,198,217,237,258,277,297,318,336,358,376,397,418,438,458,477,498,517,537,557,577,597,617,638,657,677,698,718,736,757,778,797,817,838,857,877,897,917,938,958,978,997,1017,1037,1056,1076,1097,1117],"xSR":741.5,"ySR":573.95,"xT1":424.9,"yT1":0,"xT2":1058.1,"yT2":0,"toosoon":0,"cond_shown":"equaldotanddens","ratio_trial":900,"smaller_num":"9","larger_num":"10","correct_side":2,"subjID":"juansantiagotochoy.28","gender":"0","age":"11","school":"6"},{"start_time":1551900620895,"click_time":1551900622417,"finger_time":1551900621717,"fix_duration":835.4577066278094,"trial":40,"RT":822,"MT":700,"sideResp":2,"stimulus":"img/500/equaldotanddens/R/2_Ratio_500_L_3_R_6.png","xmouse":[801,801,801,801,801,801,801,801,801,801,801,801,801,801,801,801,801,801,801,801,801,801,801,801,801,801,801,801,801,801,801,801,801,801,801,801,801,801,801,816,825,844,871,882,895,907,921,947,956,967,975,983,1006,1018,1035,1052,1069,1098,1107,1114,1117,1124,1134,1141,1147,1152,1156,1162,1164,1164,1164,1165,1165,1165,1165,1162,1155],"ymouse":[638,638,638,638,638,638,638,638,638,638,638,638,638,638,638,638,638,638,638,638,638,638,638,638,638,638,638,638,638,638,638,638,638,638,638,638,638,638,638,629,621,605,573,557,537,519,502,481,472,459,444,425,371,339,308,283,261,226,215,205,197,187,168,157,146,135,125,110,106,104,103,101,97,93,86,74,64],"timestamp_mouse":[10,24,43,64,83,103,123,142,162,183,204,222,243,263,284,302,323,344,362,383,404,422,444,463,483,504,523,543,562,583,603,623,643,663,682,703,723,742,763,782,803,822,842,864,883,902,922,943,963,983,1002,1023,1043,1062,1082,1102,1123,1142,1162,1182,1202,1222,1242,1263,1283,1302,1322,1343,1362,1382,1403,1422,1442,1463,1482,1502,1522],"xSR":741.5,"ySR":573.95,"xT1":424.9,"yT1":0,"xT2":1058.1,"yT2":0,"toosoon":0,"cond_shown":"equaldotanddens","ratio_trial":500,"smaller_num":"3","larger_num":"6","correct_side":2,"subjID":"juansantiagotochoy.28","gender":"0","age":"11","school":"6"},{"start_time":1551900630207,"click_time":1551900631478,"finger_time":1551900630877,"fix_duration":1367.984790393488,"trial":41,"RT":670,"MT":601,"sideResp":2,"stimulus":"img/250/equaldotsize/R/6_Ratio_250_L_6_R_24.png","xmouse":[804,804,804,804,804,804,804,804,804,805,808,813,814,815,818,820,823,824,824,824,824,824,824,824,824,824,824,824,824,824,824,824,825,842,869,903,954,976,989,997,1004,1006,1002,999,993,990,983,981,981,983,993,1032,1062,1079,1090,1093,1095,1095,1097,1098,1099,1099,1099,1099],"ymouse":[609,609,609,609,609,609,609,609,609,609,608,607,607,607,607,606,606,605,605,605,605,605,605,605,605,605,605,605,605,605,605,605,605,589,565,539,493,466,449,436,425,404,385,368,348,331,305,293,281,267,253,218,196,189,186,185,183,183,182,180,175,153,118,40],"timestamp_mouse":[11,37,50,70,90,110,130,152,171,190,211,231,250,270,292,312,331,352,371,390,410,431,450,470,490,510,531,552,570,590,611,630,651,670,690,712,730,750,770,790,811,830,851,871,891,910,930,951,972,990,1010,1030,1052,1071,1090,1112,1130,1151,1172,1191,1211,1231,1251,1271],"xSR":741.5,"ySR":573.95,"xT1":424.9,"yT1":0,"xT2":1058.1,"yT2":0,"toosoon":0,"cond_shown":"equaldotsize","ratio_trial":250,"smaller_num":"6","larger_num":"24","correct_side":2,"subjID":"juansantiagotochoy.28","gender":"0","age":"11","school":"6"},{"start_time":1551900635160,"click_time":1551900636178,"finger_time":1551900635859,"fix_duration":1441.2846733735234,"trial":42,"RT":699,"MT":319,"sideResp":2,"stimulus":"img/750/equaldotanddens/R/2_Ratio_750_L_6_R_8.png","xmouse":[798,798,798,798,798,798,798,798,798,798,798,798,798,798,798,798,798,798,798,798,798,798,798,798,798,798,798,799,799,801,801,802,807,829,847,868,901,938,997,1014,1026,1030,1031,1035,1040,1046,1055,1063,1083,1091,1099],"ymouse":[644,644,644,644,644,644,644,644,644,644,644,644,644,644,644,644,644,644,644,644,644,644,644,644,644,644,644,644,643,640,638,637,629,599,575,538,479,418,314,287,267,256,247,227,215,200,180,159,119,106,95],"timestamp_mouse":[18,40,58,78,98,117,137,157,179,197,217,238,258,277,297,318,337,358,377,399,417,437,457,477,497,518,537,557,577,597,618,637,657,678,699,717,739,758,777,798,817,838,858,878,898,918,938,959,978,998,1018],"xSR":741.5,"ySR":573.95,"xT1":424.9,"yT1":0,"xT2":1058.1,"yT2":0,"toosoon":0,"cond_shown":"equaldotanddens","ratio_trial":750,"smaller_num":"6","larger_num":"8","correct_side":2,"subjID":"juansantiagotochoy.28","gender":"0","age":"11","school":"6"},{"start_time":1551900640215,"click_time":1551900641598,"finger_time":1551900640819,"fix_duration":1157.0252913325166,"trial":43,"RT":604,"MT":779,"sideResp":2,"stimulus":"img/250/equaldotanddens/R/11_Ratio_250_L_3_R_12.png","xmouse":[791,791,791,791,791,791,791,791,791,791,791,791,791,791,791,791,791,792,792,793,793,795,795,796,798,799,805,810,819,829,839,884,889,883,877,876,876,876,877,883,893,981,1048,1118,1178,1218,1246,1248,1248,1248,1248,1248,1248,1247,1243,1232,1210,1203,1200,1199,1197,1197,1196,1196,1192,1187,1173,1167,1164,1158],"ymouse":[649,649,649,649,649,649,649,649,649,649,649,649,649,649,649,649,649,648,647,646,645,643,642,640,637,633,621,612,599,581,556,408,342,292,270,259,256,254,252,244,234,186,160,129,104,87,75,73,73,73,73,73,73,73,72,70,70,70,70,70,70,70,70,70,70,69,69,69,69,69],"timestamp_mouse":[11,39,42,62,82,103,122,142,162,182,203,223,242,264,282,302,322,342,362,383,403,422,443,462,483,502,522,544,563,583,604,623,643,662,682,704,723,743,762,783,802,822,844,862,883,902,923,943,962,982,1004,1022,1043,1062,1084,1102,1123,1144,1162,1182,1202,1223,1242,1263,1282,1302,1322,1343,1362,1383],"xSR":741.5,"ySR":573.95,"xT1":424.9,"yT1":0,"xT2":1058.1,"yT2":0,"toosoon":0,"cond_shown":"equaldotanddens","ratio_trial":250,"smaller_num":"3","larger_num":"12","correct_side":2,"subjID":"juansantiagotochoy.28","gender":"0","age":"11","school":"6"},{"start_time":1551900642649,"click_time":1551900643477,"finger_time":1551900643337,"fix_duration":250,"trial":44,"RT":688,"MT":140,"sideResp":2,"stimulus":"img/500/equaldotsize/R/15_Ratio_500_L_1_R_2.png","xmouse":[812,813,813,813,813,813,813,814,814,814,814,814,814,814,814,810,808,808,808,808,808,808,808,808,808,808,808,808,808,808,808,808,809,814,833,845,863,894,936,1038,1071,1085],"ymouse":[606,606,606,606,606,606,606,606,606,606,606,606,606,606,606,606,606,606,606,606,606,606,606,606,606,606,606,606,606,606,606,602,596,584,552,529,499,450,390,206,133,82],"timestamp_mouse":[10,28,51,69,89,109,128,148,169,188,208,229,248,268,288,308,328,348,368,389,408,428,448,470,488,508,528,548,569,588,608,629,649,669,688,708,728,748,770,788,810,828],"xSR":741.5,"ySR":573.95,"xT1":424.9,"yT1":0,"xT2":1058.1,"yT2":0,"toosoon":0,"cond_shown":"equaldotsize","ratio_trial":500,"smaller_num":"1","larger_num":"2","correct_side":2,"subjID":"juansantiagotochoy.28","gender":"0","age":"11","school":"6"},{"start_time":1551900645342,"click_time":1551900646558,"finger_time":1551900646017,"fix_duration":904.1135605372448,"trial":45,"RT":675,"MT":541,"sideResp":2,"stimulus":"img/900/equaldotsize/R/9_Ratio_900_L_18_R_20.png","xmouse":[805,805,805,805,805,805,805,805,805,805,805,805,805,804,803,803,802,801,801,801,801,801,801,801,801,801,801,802,805,808,814,820,828,846,858,877,898,920,971,996,1023,1050,1075,1109,1118,1124,1129,1132,1133,1133,1132,1131,1129,1122,1121,1120,1120,1119,1119,1123],"ymouse":[614,614,614,614,614,614,614,614,614,614,614,614,614,616,617,619,619,620,620,620,620,620,620,620,620,620,620,620,619,613,601,587,570,516,490,459,428,400,340,313,285,255,228,186,174,161,145,131,115,112,110,109,109,109,109,109,109,108,102,94],"timestamp_mouse":[35,55,76,95,115,135,155,176,195,215,235,255,275,296,315,335,355,375,397,415,435,455,477,495,515,535,555,575,595,616,635,655,675,695,716,736,755,775,795,817,835,855,876,896,917,935,955,975,995,1015,1036,1055,1077,1095,1116,1136,1156,1175,1195,1215],"xSR":741.5,"ySR":573.95,"xT1":424.9,"yT1":0,"xT2":1058.1,"yT2":0,"toosoon":0,"cond_shown":"equaldotsize","ratio_trial":900,"smaller_num":"18","larger_num":"20","correct_side":2,"subjID":"juansantiagotochoy.28","gender":"0","age":"11","school":"6"},{"start_time":1551900648026,"click_time":1551900649138,"finger_time":1551900648738,"fix_duration":687.2557657413753,"trial":46,"RT":712,"MT":400,"sideResp":2,"stimulus":"img/900/equaldotsize/R/11_Ratio_900_L_18_R_20.png","xmouse":[790,790,790,790,790,790,790,790,789,789,789,789,789,789,789,789,789,789,789,789,789,789,789,789,789,789,789,789,789,789,790,792,795,798,804,829,856,895,951,999,1076,1087,1090,1092,1093,1098,1102,1105,1107,1108,1109,1109,1109,1110,1110,1111],"ymouse":[613,613,613,613,613,613,613,613,614,614,614,614,614,614,614,614,614,614,614,614,614,614,614,614,614,614,614,614,614,614,613,610,607,602,595,563,525,480,415,347,224,205,196,195,190,180,172,165,159,155,148,145,139,132,122,99],"timestamp_mouse":[23,37,52,71,92,112,132,151,172,191,213,232,253,272,291,313,331,352,371,391,411,432,452,471,492,513,532,552,571,592,611,631,652,671,692,712,732,751,772,791,812,832,852,872,892,911,932,951,972,993,1012,1032,1051,1072,1091,1111],"xSR":741.5,"ySR":573.95,"xT1":424.9,"yT1":0,"xT2":1058.1,"yT2":0,"toosoon":0,"cond_shown":"equaldotsize","ratio_trial":900,"smaller_num":"18","larger_num":"20","correct_side":2,"subjID":"juansantiagotochoy.28","gender":"0","age":"11","school":"6"},{"start_time":1551900651175,"click_time":1551900652118,"finger_time":1551900651817,"fix_duration":996.3759666166301,"trial":47,"RT":642,"MT":301,"sideResp":1,"stimulus":"img/250/equaldotsize/L/1_Ratio_250_L_8_R_2.png","xmouse":[812,812,812,812,812,812,812,812,812,812,812,812,812,812,812,812,812,812,812,812,812,812,812,812,812,812,812,812,812,812,812,812,810,795,777,755,729,708,661,650,637,627,618,582,561,544,529,521],"ymouse":[594,594,594,594,594,594,594,594,594,594,594,594,594,594,594,594,594,594,594,594,594,594,594,594,594,594,594,594,594,594,590,586,568,453,373,299,235,198,151,145,140,134,128,102,90,80,72,68],"timestamp_mouse":[10,34,43,63,82,103,123,144,162,182,203,224,242,263,283,303,323,342,364,383,402,422,443,462,482,502,524,544,562,583,603,622,642,663,683,702,723,744,763,784,802,823,842,862,883,903,922,943],"xSR":741.5,"ySR":573.95,"xT1":424.9,"yT1":0,"xT2":1058.1,"yT2":0,"toosoon":0,"cond_shown":"equaldotsize","ratio_trial":250,"smaller_num":"2","larger_num":"8","correct_side":1,"subjID":"juansantiagotochoy.28","gender":"0","age":"11","school":"6"},{"start_time":1551900654481,"click_time":1551900655538,"finger_time":1551900655298,"fix_duration":1242.6016409859799,"trial":48,"RT":817,"MT":240,"sideResp":2,"stimulus":"img/750/equaldotanddens/R/12_Ratio_750_L_3_R_4.png","xmouse":[776,774,774,774,774,774,774,774,774,774,774,774,774,774,774,774,774,774,774,774,774,774,774,774,774,774,774,774,774,774,774,774,774,774,774,774,774,782,788,799,814,835,904,938,973,1012,1045,1099,1122,1133,1143,1149,1154],"ymouse":[622,619,617,617,617,617,617,617,617,617,617,617,617,617,614,614,614,614,614,614,614,614,614,614,614,614,614,614,614,614,614,614,614,614,613,612,610,599,593,582,569,553,513,488,457,422,384,296,238,200,164,137,96],"timestamp_mouse":[19,42,56,78,96,117,136,156,177,197,217,237,257,276,296,316,337,358,376,397,417,436,456,477,498,516,536,558,577,596,616,636,657,678,696,717,736,756,778,796,817,837,857,877,897,916,938,956,976,996,1016,1036,1057],"xSR":741.5,"ySR":573.95,"xT1":424.9,"yT1":0,"xT2":1058.1,"yT2":0,"toosoon":0,"cond_shown":"equaldotanddens","ratio_trial":750,"smaller_num":"3","larger_num":"4","correct_side":2,"subjID":"juansantiagotochoy.28","gender":"0","age":"11","school":"6"},{"start_time":1551900657412,"click_time":1551900658638,"finger_time":1551900658337,"fix_duration":772.0938906001359,"trial":49,"RT":925,"MT":301,"sideResp":1,"stimulus":"img/900/randomdotsizeEA/L/1_Ratio_900_L_10_R_9.png","xmouse":[804,804,804,804,804,804,804,804,804,804,804,804,804,804,804,804,804,804,804,804,804,804,804,804,804,804,804,803,803,803,803,802,801,800,800,799,798,797,796,796,796,796,794,792,789,787,780,780,782,787,792,795,795,795,795,794,760,713,657,591,533,456],"ymouse":[649,649,649,649,649,649,649,649,648,648,648,648,648,648,648,648,648,648,648,648,647,646,645,643,642,640,640,640,640,640,640,640,638,634,632,628,625,623,623,623,623,622,617,610,601,594,564,542,520,497,484,478,478,478,478,473,439,391,331,256,186,65],"timestamp_mouse":[10,40,46,65,85,106,125,146,165,185,206,226,246,267,285,306,325,347,365,385,406,425,446,465,487,505,526,545,565,586,607,625,645,665,685,707,725,745,766,785,806,826,846,865,885,907,925,945,965,987,1007,1027,1045,1065,1085,1105,1125,1146,1165,1185,1205,1226],"xSR":741.5,"ySR":573.95,"xT1":424.9,"yT1":0,"xT2":1058.1,"yT2":0,"toosoon":0,"cond_shown":"randomdotsizeEA","ratio_trial":900,"smaller_num":"9","larger_num":"10","correct_side":1,"subjID":"juansantiagotochoy.28","gender":"0","age":"11","school":"6"},{"start_time":1551900660427,"click_time":1551900661258,"finger_time":1551900661137,"fix_duration":529.750773969648,"trial":50,"RT":710,"MT":121,"sideResp":2,"stimulus":"img/250/equaldotsize/R/8_Ratio_250_L_1_R_4.png","xmouse":[829,827,827,821,819,818,818,818,818,817,814,812,810,809,808,807,807,807,807,807,807,807,807,807,807,807,807,807,807,807,807,807,807,808,812,842,867,900,946,997,1109,1143],"ymouse":[616,611,611,602,599,598,598,598,597,597,597,597,597,597,597,597,597,597,597,597,597,597,597,597,597,597,597,597,597,597,597,597,597,594,587,548,517,477,424,353,153,70],"timestamp_mouse":[19,41,50,70,92,112,131,150,171,190,210,232,250,270,291,310,330,351,371,391,411,430,450,470,491,512,530,551,571,591,611,630,651,671,691,710,732,750,770,791,810,831],"xSR":741.5,"ySR":573.95,"xT1":424.9,"yT1":0,"xT2":1058.1,"yT2":0,"toosoon":0,"cond_shown":"equaldotsize","ratio_trial":250,"smaller_num":"1","larger_num":"4","correct_side":2,"subjID":"juansantiagotochoy.28","gender":"0","age":"11","school":"6"},{"start_time":1551900663455,"click_time":1551900670937,"finger_time":1551900664098,"fix_duration":1236.2489183302243,"trial":51,"RT":643,"MT":6839,"sideResp":1,"stimulus":"img/900/equaldotanddens/L/10_Ratio_900_L_20_R_18.png","xmouse":[779,779,779,779,779,779,779,779,779,779,779,779,779,779,779,779,779,779,779,779,779,779,779,779,779,779,779,779,779,779,781,800,838,899,1037,1112,1197,1290,1380,1489,1547,1549,1549,1549,1486,1425,1345,1259,1170,1146,1145,1145,1145,1149,1158,1161,1161,1161,1161,1159,1159,1159,1159,1158,1151,1143,1133,1114,1097,1071,1071,1071,1071,1071,1071,1071,1071,1073,1078,1101,1115,1134,1151,1165,1169,1168,1161,1143,1086,1008,999,999,999,999,990,966,906,811,684,361,299,285,285,285,285,285,285,290,303,531,701,885,1047,1168,1272,1273,1273,1271,1209,789,562,384,279,264,292,409,598,831,1193,1529,1576,1577,1557,1441,988,723,509,405,400,486,625,801,993,1169,1383,1394,1394,1394,1334,789,547,338,257,256,434,631,857,1066,1282,1307,1235,1056,810,505,136,144,267,495,800,1359,1409,1409,1361,1214,724,511,479,497,689,1369,1461,1459,1357,1111,405,265,287,483,813,1347,1326,1144,822,439,0,0,131,459,983,1481,1481,1533,1323,1053,609,587,588,590,581,481,474,501,618,737,823,834,835,833,819,796,690,663,656,656,936,1161,1293,1308,1286,809,612,554,569,709,1016,1058,1053,971,777,249,250,369,626,918,1280,1289,1255,1113,928,718,744,901,1086,1186,1184,1026,751,428,182,366,535,1295,1295,1295,1542,1322,1000,675,418,327,329,330,330,331,331,331,331,331,333,340,345,349,357,369,383,386,386,386,386,386,386,386,386,386,386,386,386,386,386,386,386,386,386,386,386,387,391,393,395,387,384,384,386,387,388,388,388,388,389,410,433,455,469,474,474,474,474,474,474,474,474,474,474,475,485,488,490,491,491,491,491,491,491,491,491,491,491,491,491,492,492,492,492,492,492,492,492,492,492,492,492,492,492,492,492,492,492,492,492,492,492,492,492,492,492],"ymouse":[615,615,615,615,615,615,615,615,615,615,615,615,615,615,615,615,615,615,615,615,615,615,615,615,615,615,615,615,615,615,606,581,534,464,322,242,143,31,0,0,0,0,0,0,105,209,321,430,534,568,569,569,569,559,523,513,512,512,512,514,514,515,515,515,516,519,525,536,545,557,557,557,557,557,557,557,557,556,550,510,486,449,411,374,336,334,335,347,400,458,463,463,463,463,444,433,415,392,373,330,322,320,320,320,320,320,320,320,320,331,357,382,406,422,438,438,438,438,438,382,348,322,308,306,306,323,347,368,379,405,412,412,410,396,367,350,344,338,338,338,343,350,358,358,358,358,358,358,358,358,358,351,342,341,325,325,325,337,373,390,405,413,420,420,420,420,404,378,378,413,428,430,456,510,572,574,574,573,546,532,538,541,562,575,564,531,508,428,344,272,280,318,354,356,355,352,334,313,313,314,314,455,475,482,509,509,506,502,496,493,496,501,501,501,508,517,519,522,528,534,564,570,572,572,535,499,480,479,483,504,504,501,492,453,400,394,395,408,408,423,425,398,344,292,255,258,269,297,319,334,327,247,170,131,119,111,111,111,100,45,16,0,0,0,203,293,361,390,382,353,346,343,342,342,342,342,342,341,339,332,329,326,321,315,309,308,308,308,308,308,308,308,308,308,308,308,308,308,308,308,308,308,308,308,308,305,298,291,277,231,210,192,179,174,171,171,171,171,170,157,147,137,131,129,129,129,129,129,129,129,129,129,127,124,113,109,105,103,103,103,103,103,103,103,103,103,103,103,103,102,102,102,102,102,102,102,102,102,102,102,102,102,102,102,102,102,102,102,102,102,102,101,100,100,99],"timestamp_mouse":[9,33,42,62,83,102,122,143,162,184,203,222,243,263,284,302,323,343,362,383,402,422,442,463,483,502,523,542,563,583,602,623,643,663,683,703,722,742,763,782,803,822,842,863,883,903,922,943,962,982,1002,1022,1044,1063,1083,1102,1123,1143,1163,1183,1202,1222,1242,1263,1282,1302,1323,1342,1363,1383,1403,1422,1442,1463,1482,1503,1524,1542,1562,1582,1603,1622,1642,1662,1682,1704,1722,1743,1764,1782,1802,1822,1842,1863,1882,1903,1923,1943,1962,1983,2002,2023,2043,2064,2082,2103,2123,2143,2163,2183,2202,2222,2243,2264,2282,2303,2322,2342,2362,2382,2403,2422,2443,2463,2482,2503,2522,2543,2562,2582,2603,2622,2643,2662,2683,2702,2722,2743,2762,2783,2802,2822,2843,2864,2882,2902,2922,2943,2963,2982,3002,3022,3043,3063,3082,3103,3122,3143,3162,3182,3203,3222,3243,3263,3282,3303,3323,3342,3363,3382,3403,3423,3443,3462,3482,3502,3522,3542,3562,3582,3604,3622,3642,3662,3682,3704,3723,3742,3763,3782,3802,3822,3842,3862,3883,3904,3923,3942,3963,3983,4004,4023,4042,4062,4082,4103,4122,4144,4163,4182,4203,4222,4242,4262,4282,4303,4323,4343,4363,4382,4403,4422,4443,4464,4483,4503,4522,4543,4562,4582,4602,4623,4643,4662,4682,4702,4723,4743,4763,4782,4803,4823,4843,4862,4882,4903,4922,4942,4963,4982,5003,5023,5042,5063,5083,5102,5122,5143,5163,5183,5202,5223,5242,5262,5283,5302,5323,5342,5363,5382,5402,5422,5443,5464,5482,5503,5523,5542,5563,5583,5602,5622,5643,5663,5682,5706,5724,5742,5763,5782,5803,5823,5843,5862,5883,5903,5922,5942,5962,5982,6002,6022,6043,6063,6083,6102,6122,6143,6162,6183,6204,6222,6243,6262,6283,6302,6322,6342,6363,6382,6402,6422,6443,6464,6483,6502,6522,6542,6564,6583,6602,6622,6643,6663,6682,6703,6722,6743,6762,6782,6803,6822,6842,6862,6882,6903,6922,6943,6962,6982,7003,7022,7044,7063,7083,7103,7122,7144,7164,7183,7203,7222,7243,7262,7282,7303,7323,7343,7362,7383,7403,7422,7442,7462,7482],"xSR":741.5,"ySR":573.95,"xT1":424.9,"yT1":0,"xT2":1058.1,"yT2":0,"toosoon":0,"cond_shown":"equaldotanddens","ratio_trial":900,"smaller_num":"18","larger_num":"20","correct_side":1,"subjID":"juansantiagotochoy.28","gender":"0","age":"11","school":"6"},{"start_time":1551900673756,"click_time":1551900675437,"finger_time":1551900674418,"fix_duration":1358.218866874985,"trial":52,"RT":662,"MT":1019,"sideResp":1,"stimulus":"img/500/randomdotsizeEA/R/1_Ratio_500_L_9_R_18.png","xmouse":[795,795,795,795,795,795,795,795,795,795,795,795,795,795,795,795,795,795,795,795,795,795,795,795,795,795,795,795,795,795,795,778,761,697,361,178,10,0,0,0,44,217,510,884,1462,1462,1542,1221,673,0,0,67,378,985,1493,1563,1424,1186,1017,1058,1236,1409,1452,1420,961,755,572,456,422,417,435,455,471,483,507,515,523,531,534,544,544,539,535,534,520],"ymouse":[627,627,627,627,627,627,627,627,627,627,627,627,627,627,627,627,627,627,627,627,627,627,627,627,627,627,627,627,627,627,627,619,611,587,480,438,407,380,363,363,363,363,363,363,391,391,511,575,623,624,592,563,486,401,406,438,492,569,613,605,563,535,544,568,672,659,614,563,527,453,403,353,322,298,221,169,109,50,27,0,0,0,0,0,12],"timestamp_mouse":[9,32,41,61,82,101,122,143,161,181,201,222,243,261,282,302,321,341,363,382,403,421,442,463,482,502,521,542,562,583,601,622,641,662,682,703,722,742,761,781,802,822,842,861,882,901,921,941,961,981,1001,1021,1043,1062,1081,1101,1122,1141,1161,1181,1201,1222,1241,1261,1281,1302,1321,1342,1362,1381,1401,1421,1441,1462,1481,1502,1522,1541,1562,1581,1601,1622,1642,1662,1681],"xSR":741.5,"ySR":573.95,"xT1":424.9,"yT1":0,"xT2":1058.1,"yT2":0,"toosoon":0,"cond_shown":"randomdotsizeEA","ratio_trial":500,"smaller_num":"9","larger_num":"18","correct_side":2,"subjID":"juansantiagotochoy.28","gender":"0","age":"11","school":"6"},{"start_time":1551900679650,"click_time":1551900680799,"finger_time":1551900680297,"fix_duration":250,"trial":53,"RT":647,"MT":502,"sideResp":2,"stimulus":"img/250/equaldotanddens/R/6_Ratio_250_L_6_R_24.png","xmouse":[775,775,775,775,775,775,775,775,775,775,775,775,775,775,775,775,775,775,775,775,775,775,775,775,775,775,775,775,775,775,769,758,741,727,706,697,678,656,627,557,541,536,536,536,536,536,536,536,536,540,546,555,571,592,709,819,954,1131],"ymouse":[643,643,643,643,643,643,643,643,643,643,643,643,643,643,643,643,643,643,643,643,643,643,643,643,643,643,643,643,643,643,642,640,638,636,633,630,623,616,608,589,586,585,585,585,585,585,585,585,585,584,583,578,569,552,458,357,236,84],"timestamp_mouse":[10,36,47,67,87,107,127,147,167,187,207,228,247,269,288,308,328,348,368,388,407,427,449,467,488,508,529,548,567,587,607,628,647,667,688,708,727,747,768,787,807,828,849,867,888,907,927,948,967,987,1009,1028,1048,1067,1087,1108,1128,1149],"xSR":741.5,"ySR":573.95,"xT1":424.9,"yT1":0,"xT2":1058.1,"yT2":0,"toosoon":0,"cond_shown":"equaldotanddens","ratio_trial":250,"smaller_num":"6","larger_num":"24","correct_side":2,"subjID":"juansantiagotochoy.28","gender":"0","age":"11","school":"6"},{"start_time":1551900684356,"click_time":1551900685598,"finger_time":1551900685197,"fix_duration":637.9179293850716,"trial":54,"RT":841,"MT":401,"sideResp":1,"stimulus":"img/500/randomdotsizeEA/L/10_Ratio_500_L_4_R_2.png","xmouse":[814,814,814,814,814,814,814,814,814,814,814,814,814,814,814,814,814,814,814,814,814,814,814,814,814,814,814,814,814,814,