[{"start_time":1551800600856,"click_time":1551800603160,"finger_time":1551800600920,"fix_duration":250,"trial":0,"RT":64,"MT":2240,"sideResp":1,"stimulus":[],"xmouse":[791,791,790,789,788,788,788,788,788,769,764,764,764,764,764,764,764,764,764,765,771,771,771,771,771,771,771,771,767,761,754,751,750,750,750,750,750,750,750,751,763,769,771,771,771,771,771,771,771,771,771,771,771,771,771,771,771,771,771,771,771,771,771,771,772,773,773,773,773,773,773,773,773,773,773,773,773,773,773,785,790,791,791,786,782,780,777,774,771,762,754,739,725,713,690,681,674,666,656,598,573,548,519,491,485,496,507,508,508,508,508,508,508,508,504],"ymouse":[558,558,585,586,586,586,586,586,586,570,566,566,566,566,566,566,566,566,566,567,577,582,586,588,588,588,588,588,578,560,537,527,525,525,525,525,525,525,524,521,517,514,513,513,513,513,513,513,513,513,513,513,513,513,513,513,513,513,513,513,513,513,513,513,512,512,511,511,511,511,511,511,511,511,511,511,511,511,505,458,426,399,379,367,360,357,352,344,339,319,308,292,281,273,254,243,232,222,214,198,197,197,197,191,170,147,128,121,119,119,119,119,117,114,95],"timestamp_mouse":[30,43,64,84,104,123,143,164,183,204,223,244,263,284,304,323,343,363,384,403,425,443,464,483,503,523,543,563,583,603,623,643,664,683,703,723,743,763,783,803,823,843,865,884,903,923,943,964,984,1003,1023,1043,1064,1083,1104,1123,1143,1163,1183,1203,1224,1243,1264,1283,1303,1323,1344,1363,1383,1405,1424,1443,1465,1484,1503,1524,1543,1563,1583,1604,1623,1643,1663,1684,1703,1723,1743,1764,1783,1804,1824,1843,1865,1884,1903,1923,1943,1963,1984,2004,2024,2043,2064,2083,2103,2123,2144,2163,2184,2203,2224,2244,2265,2284,2303],"xSR":741.5,"ySR":469.95,"xT1":424.9,"yT1":0,"xT2":1058.1,"yT2":0,"toosoon":0,"cond_shown":"Incongruent","ratio_trial":200,"L_num":7,"L_den":10,"R_num":14,"R_den":28,"correct_side":1,"subjID":"JUANSEBASTIANBELTRANGONZALEZ38","gender":"12","age":"12","school":"COLEGIOCAFAM","test":{"fix_dur":[250,1500],"timestim":1000,"targets_dim":[100,100],"targets_relative_coord":[0.3,0.7],"size_stim":[880,420],"start_dim":[100,100],"size_start":[300,300],"size_fix":60,"samplingrate":20,"img_types":["Congruent","Incongruent"],"ratios":[100,200,300],"rep_conds":19,"nTrials":120,"trials_to_rest":500,"Trials_order":[45,11,114,68,10,13,18,116,102,96,89,0,97,37,85,63,49,58,51,29,22,42,117,112,88,100,79,92,9,59,25,6,87,21,118,108,60,78,43,31,46,110,44,90,2,109,7,15,65,36,115,12,66,107,26,24,105,119,67,95,50,16,61,94,84,30,91,101,62,1,99,81,35,27,98,54,72,75,41,86,73,71,57,104,28,103,23,8,34,74,17,48,5,56,19,76,39,32,38,3,55,80,93,4,53,69,113,20,33,111,14,83,70,82,77,47,52,106,64,40],"cond_shown":["Incongruent","Incongruent","Congruent","Congruent","Congruent","Incongruent","Congruent","Congruent","Congruent","Congruent","Incongruent","Congruent","Incongruent","Incongruent","Incongruent","Incongruent","Incongruent","Congruent","Incongruent","Incongruent","Congruent","Congruent","Incongruent","Congruent","Congruent","Congruent","Incongruent","Congruent","Incongruent","Incongruent","Incongruent","Congruent","Incongruent","Incongruent","Congruent","Congruent","Congruent","Congruent","Incongruent","Incongruent","Congruent","Congruent","Congruent","Congruent","Congruent","Incongruent","Incongruent","Incongruent","Incongruent","Congruent","Incongruent","Congruent","Congruent","Incongruent","Congruent","Congruent","Incongruent","Incongruent","Incongruent","Incongruent","Congruent","Congruent","Incongruent","Congruent","Congruent","Congruent","Incongruent","Incongruent","Congruent","Incongruent","Incongruent","Incongruent","Incongruent","Incongruent","Congruent","Congruent","Congruent","Incongruent","Incongruent","Congruent","Incongruent","Incongruent","Incongruent","Congruent","Congruent","Incongruent","Incongruent","Congruent","Congruent","Congruent","Incongruent","Congruent","Incongruent","Congruent","Incongruent","Congruent","Incongruent","Congruent","Congruent","Incongruent","Incongruent","Congruent","Incongruent","Congruent","Incongruent","Incongruent","Incongruent","Congruent","Incongruent","Incongruent","Congruent","Incongruent","Congruent","Congruent","Incongruent","Incongruent","Congruent","Congruent","Congruent","Congruent"],"ratio_trial":[200,300,100,200,300,100,100,200,100,100,300,100,100,100,100,200,100,300,200,300,300,100,200,300,300,300,100,200,200,300,100,100,200,200,300,100,100,100,100,100,300,200,200,100,200,100,100,200,300,100,100,100,100,300,200,100,200,300,100,300,200,300,100,300,100,100,100,300,200,100,200,200,300,200,200,100,100,200,300,200,100,300,200,200,300,100,300,200,300,200,300,100,300,200,100,300,200,200,200,200,100,200,200,300,300,200,300,200,200,200,200,300,300,300,300,300,300,300,300,300],"left_num":[7,13,3,14,7,17,11,3,11,9,4,3,11,11,10,11,9,1,14,13,5,2,1,3,20,9,13,3,7,13,9,7,9,6,1,4,3,2,13,3,20,21,7,9,16,3,6,4,4,11,10,11,6,4,4,8,14,4,6,13,3,20,6,1,7,11,8,4,7,17,1,6,8,6,4,10,6,4,4,9,8,8,14,3,3,13,4,6,8,6,4,6,4,3,9,3,7,8,20,4,2,5,1,2,4,7,8,6,7,4,3,1,18,2,1,8,8,5,18,24],"right_num":[14,12,4,6,20,10,6,14,4,8,2,4,9,9,8,3,20,6,12,12,6,11,2,11,8,3,12,11,8,12,6,9,8,3,19,6,4,6,12,4,9,2,18,8,9,7,11,14,2,4,8,6,15,2,3,2,12,6,13,12,14,13,3,8,15,6,1,2,2,10,2,3,9,3,3,3,15,14,2,13,1,14,6,11,4,6,2,3,10,11,2,15,2,11,6,2,14,3,9,6,6,14,2,12,2,14,14,11,12,14,9,2,9,10,2,9,10,7,9,8],"left_den":[10,26,20,28,14,30,22,6,22,15,20,20,22,22,25,20,10,5,30,26,25,5,3,12,25,10,26,10,10,26,18,14,15,20,3,8,20,5,26,6,25,30,15,15,30,9,10,6,20,22,25,22,12,20,10,16,30,5,10,26,10,25,12,30,14,22,20,20,21,30,3,20,10,20,8,25,12,6,20,30,20,10,30,10,6,26,20,15,15,20,20,12,20,10,18,6,10,15,25,5,4,10,3,10,20,10,10,20,10,6,12,2,20,20,2,10,15,25,20,30],"right_den":[28,15,16,20,25,15,15,20,10,16,4,16,15,15,16,4,25,12,18,15,12,22,15,20,16,5,20,22,16,15,10,15,10,6,30,10,16,12,20,10,18,4,27,16,27,30,22,30,4,10,16,15,25,4,15,5,18,12,26,15,28,26,5,24,25,15,2,4,15,15,15,6,18,6,10,10,25,30,4,26,2,28,9,22,5,10,4,15,12,22,4,25,4,22,10,10,28,9,15,10,15,20,15,24,4,28,28,22,24,30,20,10,15,25,10,18,12,14,15,16],"correct_side":[1,2,2,1,2,2,1,2,1,1,2,2,2,2,2,2,1,2,2,2,2,2,1,2,1,1,2,2,1,2,2,2,2,2,2,2,2,2,2,1,1,1,2,1,1,1,1,1,2,1,2,1,2,2,1,1,2,1,1,2,2,1,2,2,2,1,2,2,1,2,1,2,1,2,1,1,2,1,2,2,2,1,2,2,2,2,2,1,2,2,2,2,2,2,2,1,1,1,1,1,1,2,1,2,2,1,1,2,1,1,2,1,1,2,1,1,2,2,1,1],"img_shown":["img2/200/Incongruent/L/I_Dist_200_LN_7_LD_10_RN_14_RD_28_0.png","img2/300/Incongruent/R/I_Dist_300_LN_13_LD_26_RN_12_RD_15_1.png","img2/100/Congruent/R/C_Dist_100_LN_3_LD_20_RN_4_RD_16_1.png","img2/200/Congruent/L/C_Dist_200_LN_14_LD_28_RN_6_RD_20_0.png","img2/300/Congruent/R/C_Dist_300_LN_7_LD_14_RN_20_RD_25_1.png","img2/100/Incongruent/R/I_Dist_100_LN_17_LD_30_RN_10_RD_15_1.png","img2/100/Congruent/L/C_Dist_100_LN_11_LD_22_RN_6_RD_15_0.png","img2/200/Congruent/R/C_Dist_200_LN_3_LD_6_RN_14_RD_20_1.png","img2/100/Congruent/L/C_Dist_100_LN_11_LD_22_RN_4_RD_10_0.png","img2/100/Congruent/L/C_Dist_100_LN_9_LD_15_RN_8_RD_16_0.png","img2/300/Incongruent/R/I_Dist_300_LN_4_LD_20_RN_2_RD_4_1.png","img2/100/Congruent/R/C_Dist_100_LN_3_LD_20_RN_4_RD_16_1.png","img2/100/Incongruent/R/I_Dist_100_LN_11_LD_22_RN_9_RD_15_1.png","img2/100/Incongruent/R/I_Dist_100_LN_11_LD_22_RN_9_RD_15_1.png","img2/100/Incongruent/R/I_Dist_100_LN_10_LD_25_RN_8_RD_16_1.png","img2/200/Incongruent/R/I_Dist_200_LN_11_LD_20_RN_3_RD_4_1.png","img2/100/Incongruent/L/I_Dist_100_LN_9_LD_10_RN_20_RD_25_0.png","img2/300/Congruent/R/C_Dist_300_LN_1_LD_5_RN_6_RD_12_1.png","img2/200/Incongruent/R/I_Dist_200_LN_14_LD_30_RN_12_RD_18_1.png","img2/300/Incongruent/R/I_Dist_300_LN_13_LD_26_RN_12_RD_15_1.png","img2/300/Congruent/R/C_Dist_300_LN_5_LD_25_RN_6_RD_12_1.png","img2/100/Congruent/R/C_Dist_100_LN_2_LD_5_RN_11_RD_22_1.png","img2/200/Incongruent/L/I_Dist_200_LN_1_LD_3_RN_2_RD_15_0.png","img2/300/Congruent/R/C_Dist_300_LN_3_LD_12_RN_11_RD_20_1.png","img2/300/Congruent/L/C_Dist_300_LN_20_LD_25_RN_8_RD_16_0.png","img2/300/Congruent/L/C_Dist_300_LN_9_LD_10_RN_3_RD_5_0.png","img2/100/Incongruent/R/I_Dist_100_LN_13_LD_26_RN_12_RD_20_1.png","img2/200/Congruent/R/C_Dist_200_LN_3_LD_10_RN_11_RD_22_1.png","img2/200/Incongruent/L/I_Dist_200_LN_7_LD_10_RN_8_RD_16_0.png","img2/300/Incongruent/R/I_Dist_300_LN_13_LD_26_RN_12_RD_15_1.png","img2/100/Incongruent/R/I_Dist_100_LN_9_LD_18_RN_6_RD_10_1.png","img2/100/Congruent/R/C_Dist_100_LN_7_LD_14_RN_9_RD_15_1.png","img2/200/Incongruent/R/I_Dist_200_LN_9_LD_15_RN_8_RD_10_1.png","img2/200/Incongruent/R/I_Dist_200_LN_6_LD_20_RN_3_RD_6_1.png","img2/300/Congruent/R/C_Dist_300_LN_1_LD_3_RN_19_RD_30_1.png","img2/100/Congruent/R/C_Dist_100_LN_4_LD_8_RN_6_RD_10_1.png","img2/100/Congruent/R/C_Dist_100_LN_3_LD_20_RN_4_RD_16_1.png","img2/100/Congruent/R/C_Dist_100_LN_2_LD_5_RN_6_RD_12_1.png","img2/100/Incongruent/R/I_Dist_100_LN_13_LD_26_RN_12_RD_20_1.png","img2/100/Incongruent/L/I_Dist_100_LN_3_LD_6_RN_4_RD_10_0.png","img2/300/Congruent/L/C_Dist_300_LN_20_LD_25_RN_9_RD_18_0.png","img2/200/Congruent/L/C_Dist_200_LN_21_LD_30_RN_2_RD_4_0.png","img2/200/Congruent/R/C_Dist_200_LN_7_LD_15_RN_18_RD_27_1.png","img2/100/Congruent/L/C_Dist_100_LN_9_LD_15_RN_8_RD_16_0.png","img2/200/Congruent/L/C_Dist_200_LN_16_LD_30_RN_9_RD_27_0.png","img2/100/Incongruent/L/I_Dist_100_LN_3_LD_9_RN_7_RD_30_0.png","img2/100/Incongruent/L/I_Dist_100_LN_6_LD_10_RN_11_RD_22_0.png","img2/200/Incongruent/L/I_Dist_200_LN_4_LD_6_RN_14_RD_30_0.png","img2/300/Incongruent/R/I_Dist_300_LN_4_LD_20_RN_2_RD_4_1.png","img2/100/Congruent/L/C_Dist_100_LN_11_LD_22_RN_4_RD_10_0.png","img2/100/Incongruent/R/I_Dist_100_LN_10_LD_25_RN_8_RD_16_1.png","img2/100/Congruent/L/C_Dist_100_LN_11_LD_22_RN_6_RD_15_0.png","img2/100/Congruent/R/C_Dist_100_LN_6_LD_12_RN_15_RD_25_1.png","img2/300/Incongruent/R/I_Dist_300_LN_4_LD_20_RN_2_RD_4_1.png","img2/200/Congruent/L/C_Dist_200_LN_4_LD_10_RN_3_RD_15_0.png","img2/100/Congruent/L/C_Dist_100_LN_8_LD_16_RN_2_RD_5_0.png","img2/200/Incongruent/R/I_Dist_200_LN_14_LD_30_RN_12_RD_18_1.png","img2/300/Incongruent/L/I_Dist_300_LN_4_LD_5_RN_6_RD_12_0.png","img2/100/Incongruent/L/I_Dist_100_LN_6_LD_10_RN_13_RD_26_0.png","img2/300/Incongruent/R/I_Dist_300_LN_13_LD_26_RN_12_RD_15_1.png","img2/200/Congruent/R/C_Dist_200_LN_3_LD_10_RN_14_RD_28_1.png","img2/300/Congruent/L/C_Dist_300_LN_20_LD_25_RN_13_RD_26_0.png","img2/100/Incongruent/R/I_Dist_100_LN_6_LD_12_RN_3_RD_5_1.png","img2/300/Congruent/R/C_Dist_300_LN_1_LD_30_RN_8_RD_24_1.png","img2/100/Congruent/R/C_Dist_100_LN_7_LD_14_RN_15_RD_25_1.png","img2/100/Congruent/L/C_Dist_100_LN_11_LD_22_RN_6_RD_15_0.png","img2/100/Incongruent/R/I_Dist_100_LN_8_LD_20_RN_1_RD_2_1.png","img2/300/Incongruent/R/I_Dist_300_LN_4_LD_20_RN_2_RD_4_1.png","img2/200/Congruent/L/C_Dist_200_LN_7_LD_21_RN_2_RD_15_0.png","img2/100/Incongruent/R/I_Dist_100_LN_17_LD_30_RN_10_RD_15_1.png","img2/200/Incongruent/L/I_Dist_200_LN_1_LD_3_RN_2_RD_15_0.png","img2/200/Incongruent/R/I_Dist_200_LN_6_LD_20_RN_3_RD_6_1.png","img2/300/Incongruent/L/I_Dist_300_LN_8_LD_10_RN_9_RD_18_0.png","img2/200/Incongruent/R/I_Dist_200_LN_6_LD_20_RN_3_RD_6_1.png","img2/200/Congruent/L/C_Dist_200_LN_4_LD_8_RN_3_RD_10_0.png","img2/100/Congruent/L/C_Dist_100_LN_10_LD_25_RN_3_RD_10_0.png","img2/100/Congruent/R/C_Dist_100_LN_6_LD_12_RN_15_RD_25_1.png","img2/200/Incongruent/L/I_Dist_200_LN_4_LD_6_RN_14_RD_30_0.png","img2/300/Incongruent/R/I_Dist_300_LN_4_LD_20_RN_2_RD_4_1.png","img2/200/Congruent/R/C_Dist_200_LN_9_LD_30_RN_13_RD_26_1.png","img2/100/Incongruent/R/I_Dist_100_LN_8_LD_20_RN_1_RD_2_1.png","img2/300/Incongruent/L/I_Dist_300_LN_8_LD_10_RN_14_RD_28_0.png","img2/200/Incongruent/R/I_Dist_200_LN_14_LD_30_RN_6_RD_9_1.png","img2/200/Congruent/R/C_Dist_200_LN_3_LD_10_RN_11_RD_22_1.png","img2/300/Congruent/R/C_Dist_300_LN_3_LD_6_RN_4_RD_5_1.png","img2/100/Incongruent/R/I_Dist_100_LN_13_LD_26_RN_6_RD_10_1.png","img2/300/Incongruent/R/I_Dist_300_LN_4_LD_20_RN_2_RD_4_1.png","img2/200/Congruent/L/C_Dist_200_LN_6_LD_15_RN_3_RD_15_0.png","img2/300/Congruent/R/C_Dist_300_LN_8_LD_15_RN_10_RD_12_1.png","img2/200/Congruent/R/C_Dist_200_LN_6_LD_20_RN_11_RD_22_1.png","img2/300/Incongruent/R/I_Dist_300_LN_4_LD_20_RN_2_RD_4_1.png","img2/100/Congruent/R/C_Dist_100_LN_6_LD_12_RN_15_RD_25_1.png","img2/300/Incongruent/R/I_Dist_300_LN_4_LD_20_RN_2_RD_4_1.png","img2/200/Congruent/R/C_Dist_200_LN_3_LD_10_RN_11_RD_22_1.png","img2/100/Incongruent/R/I_Dist_100_LN_9_LD_18_RN_6_RD_10_1.png","img2/300/Congruent/L/C_Dist_300_LN_3_LD_6_RN_2_RD_10_0.png","img2/200/Incongruent/L/I_Dist_200_LN_7_LD_10_RN_14_RD_28_0.png","img2/200/Congruent/L/C_Dist_200_LN_8_LD_15_RN_3_RD_9_0.png","img2/200/Congruent/L/C_Dist_200_LN_20_LD_25_RN_9_RD_15_0.png","img2/200/Incongruent/L/I_Dist_200_LN_4_LD_5_RN_6_RD_10_0.png","img2/100/Incongruent/L/I_Dist_100_LN_2_LD_4_RN_6_RD_15_0.png","img2/200/Congruent/R/C_Dist_200_LN_5_LD_10_RN_14_RD_20_1.png","img2/200/Incongruent/L/I_Dist_200_LN_1_LD_3_RN_2_RD_15_0.png","img2/300/Congruent/R/C_Dist_300_LN_2_LD_10_RN_12_RD_24_1.png","img2/300/Incongruent/R/I_Dist_300_LN_4_LD_20_RN_2_RD_4_1.png","img2/200/Incongruent/L/I_Dist_200_LN_7_LD_10_RN_14_RD_28_0.png","img2/300/Incongruent/L/I_Dist_300_LN_8_LD_10_RN_14_RD_28_0.png","img2/200/Congruent/R/C_Dist_200_LN_6_LD_20_RN_11_RD_22_1.png","img2/200/Incongruent/L/I_Dist_200_LN_7_LD_10_RN_12_RD_24_0.png","img2/200/Incongruent/L/I_Dist_200_LN_4_LD_6_RN_14_RD_30_0.png","img2/200/Congruent/R/C_Dist_200_LN_3_LD_12_RN_9_RD_20_1.png","img2/300/Incongruent/L/I_Dist_300_LN_1_LD_2_RN_2_RD_10_0.png","img2/300/Congruent/L/C_Dist_300_LN_18_LD_20_RN_9_RD_15_0.png","img2/300/Congruent/R/C_Dist_300_LN_2_LD_20_RN_10_RD_25_1.png","img2/300/Incongruent/L/I_Dist_300_LN_1_LD_2_RN_2_RD_10_0.png","img2/300/Incongruent/L/I_Dist_300_LN_8_LD_10_RN_9_RD_18_0.png","img2/300/Congruent/R/C_Dist_300_LN_8_LD_15_RN_10_RD_12_1.png","img2/300/Congruent/R/C_Dist_300_LN_5_LD_25_RN_7_RD_14_1.png","img2/300/Congruent/L/C_Dist_300_LN_18_LD_20_RN_9_RD_15_0.png","img2/300/Congruent/L/C_Dist_300_LN_24_LD_30_RN_8_RD_16_0.png"],"dist100_C":[["C_Dist_100_LN_10_LD_25_RN_3_RD_10_0.png","C_Dist_100_LN_11_LD_22_RN_4_RD_10_0.png","C_Dist_100_LN_11_LD_22_RN_6_RD_15_0.png","C_Dist_100_LN_15_LD_25_RN_13_RD_26_0.png","C_Dist_100_LN_3_LD_6_RN_2_RD_5_0.png","C_Dist_100_LN_6_LD_20_RN_5_RD_25_0.png","C_Dist_100_LN_8_LD_16_RN_2_RD_5_0.png","C_Dist_100_LN_9_LD_15_RN_8_RD_16_0.png"],["C_Dist_100_LN_1_LD_2_RN_18_RD_30_1.png","C_Dist_100_LN_1_LD_2_RN_3_RD_5_1.png","C_Dist_100_LN_12_LD_30_RN_13_RD_26_1.png","C_Dist_100_LN_2_LD_5_RN_11_RD_22_1.png","C_Dist_100_LN_2_LD_5_RN_6_RD_12_1.png","C_Dist_100_LN_3_LD_20_RN_4_RD_16_1.png","C_Dist_100_LN_4_LD_10_RN_15_RD_30_1.png","C_Dist_100_LN_4_LD_8_RN_6_RD_10_1.png","C_Dist_100_LN_6_LD_12_RN_15_RD_25_1.png","C_Dist_100_LN_7_LD_14_RN_15_RD_25_1.png","C_Dist_100_LN_7_LD_14_RN_9_RD_15_1.png"]],"dist100_I":[["I_Dist_100_LN_1_LD_2_RN_8_RD_20_0.png","I_Dist_100_LN_2_LD_4_RN_6_RD_15_0.png","I_Dist_100_LN_2_LD_4_RN_8_RD_20_0.png","I_Dist_100_LN_3_LD_5_RN_11_RD_22_0.png","I_Dist_100_LN_3_LD_5_RN_8_RD_16_0.png","I_Dist_100_LN_3_LD_6_RN_4_RD_10_0.png","I_Dist_100_LN_3_LD_9_RN_7_RD_30_0.png","I_Dist_100_LN_4_LD_8_RN_8_RD_20_0.png","I_Dist_100_LN_6_LD_10_RN_11_RD_22_0.png","I_Dist_100_LN_6_LD_10_RN_13_RD_26_0.png","I_Dist_100_LN_6_LD_10_RN_7_RD_14_0.png","I_Dist_100_LN_9_LD_10_RN_20_RD_25_0.png","I_Dist_100_LN_9_LD_15_RN_13_RD_26_0.png","I_Dist_100_LN_9_LD_15_RN_14_RD_28_0.png"],["I_Dist_100_LN_10_LD_25_RN_8_RD_16_1.png","I_Dist_100_LN_10_LD_25_RN_9_RD_18_1.png","I_Dist_100_LN_11_LD_22_RN_9_RD_15_1.png","I_Dist_100_LN_12_LD_24_RN_9_RD_15_1.png","I_Dist_100_LN_12_LD_30_RN_2_RD_4_1.png","I_Dist_100_LN_13_LD_26_RN_12_RD_20_1.png","I_Dist_100_LN_13_LD_26_RN_6_RD_10_1.png","I_Dist_100_LN_17_LD_30_RN_10_RD_15_1.png","I_Dist_100_LN_6_LD_12_RN_3_RD_5_1.png","I_Dist_100_LN_8_LD_16_RN_6_RD_10_1.png","I_Dist_100_LN_8_LD_20_RN_1_RD_2_1.png","I_Dist_100_LN_9_LD_18_RN_6_RD_10_1.png"]],"dist100_S":[["E_Dist_100_LN_2_LD_12_RN_2_RD_30_0.png","E_Dist_100_LN_6_LD_10_RN_6_RD_12_0.png"],["E_Dist_100_LN_6_LD_12_RN_6_RD_10_1.png"]],"dist200_C":[["C_Dist_200_LN_11_LD_22_RN_3_RD_10_0.png","C_Dist_200_LN_12_LD_15_RN_6_RD_10_0.png","C_Dist_200_LN_12_LD_20_RN_6_RD_15_0.png","C_Dist_200_LN_14_LD_28_RN_6_RD_20_0.png","C_Dist_200_LN_15_LD_25_RN_4_RD_10_0.png","C_Dist_200_LN_16_LD_20_RN_12_RD_20_0.png","C_Dist_200_LN_16_LD_30_RN_9_RD_27_0.png","C_Dist_200_LN_20_LD_25_RN_9_RD_15_0.png","C_Dist_200_LN_21_LD_30_RN_2_RD_4_0.png","C_Dist_200_LN_4_LD_10_RN_3_RD_15_0.png","C_Dist_200_LN_4_LD_8_RN_3_RD_10_0.png","C_Dist_200_LN_6_LD_15_RN_3_RD_15_0.png","C_Dist_200_LN_7_LD_21_RN_2_RD_15_0.png","C_Dist_200_LN_8_LD_15_RN_2_RD_6_0.png","C_Dist_200_LN_8_LD_15_RN_3_RD_9_0.png","C_Dist_200_LN_8_LD_15_RN_7_RD_21_0.png","C_Dist_200_LN_9_LD_20_RN_4_RD_16_0.png"],["C_Dist_200_LN_1_LD_2_RN_21_RD_30_1.png","C_Dist_200_LN_13_LD_26_RN_14_RD_20_1.png","C_Dist_200_LN_3_LD_10_RN_11_RD_22_1.png","C_Dist_200_LN_3_LD_10_RN_14_RD_28_1.png","C_Dist_200_LN_3_LD_10_RN_7_RD_14_1.png","C_Dist_200_LN_3_LD_12_RN_9_RD_20_1.png","C_Dist_200_LN_3_LD_6_RN_14_RD_20_1.png","C_Dist_200_LN_5_LD_10_RN_14_RD_20_1.png","C_Dist_200_LN_6_LD_12_RN_7_RD_10_1.png","C_Dist_200_LN_6_LD_20_RN_11_RD_22_1.png","C_Dist_200_LN_7_LD_15_RN_18_RD_27_1.png","C_Dist_200_LN_9_LD_30_RN_13_RD_26_1.png"]],"dist200_I":[["I_Dist_200_LN_1_LD_2_RN_3_RD_10_0.png","I_Dist_200_LN_1_LD_3_RN_2_RD_15_0.png","I_Dist_200_LN_3_LD_4_RN_11_RD_20_0.png","I_Dist_200_LN_4_LD_5_RN_6_RD_10_0.png","I_Dist_200_LN_4_LD_6_RN_14_RD_30_0.png","I_Dist_200_LN_7_LD_10_RN_12_RD_24_0.png","I_Dist_200_LN_7_LD_10_RN_14_RD_28_0.png","I_Dist_200_LN_7_LD_10_RN_8_RD_16_0.png"],["I_Dist_200_LN_11_LD_20_RN_3_RD_4_1.png","I_Dist_200_LN_14_LD_30_RN_12_RD_18_1.png","I_Dist_200_LN_14_LD_30_RN_6_RD_9_1.png","I_Dist_200_LN_3_LD_10_RN_1_RD_2_1.png","I_Dist_200_LN_4_LD_30_RN_1_RD_3_1.png","I_Dist_200_LN_6_LD_20_RN_3_RD_6_1.png","I_Dist_200_LN_7_LD_15_RN_4_RD_6_1.png","I_Dist_200_LN_7_LD_15_RN_6_RD_9_1.png","I_Dist_200_LN_9_LD_15_RN_8_RD_10_1.png"]],"dist200_S":[["E_Dist_200_LN_3_LD_6_RN_3_RD_10_0.png"],["E_Dist_200_LN_3_LD_10_RN_3_RD_6_1.png"]],"dist300_C":[["C_Dist_300_LN_11_LD_22_RN_1_RD_5_0.png","C_Dist_300_LN_11_LD_22_RN_2_RD_10_0.png","C_Dist_300_LN_11_LD_22_RN_4_RD_20_0.png","C_Dist_300_LN_12_LD_24_RN_2_RD_10_0.png","C_Dist_300_LN_18_LD_20_RN_9_RD_15_0.png","C_Dist_300_LN_20_LD_25_RN_13_RD_26_0.png","C_Dist_300_LN_20_LD_25_RN_14_RD_28_0.png","C_Dist_300_LN_20_LD_25_RN_5_RD_10_0.png","C_Dist_300_LN_20_LD_25_RN_8_RD_16_0.png","C_Dist_300_LN_20_LD_25_RN_9_RD_18_0.png","C_Dist_300_LN_24_LD_30_RN_2_RD_4_0.png","C_Dist_300_LN_24_LD_30_RN_8_RD_16_0.png","C_Dist_300_LN_3_LD_6_RN_2_RD_10_0.png","C_Dist_300_LN_4_LD_10_RN_1_RD_10_0.png","C_Dist_300_LN_4_LD_5_RN_2_RD_4_0.png","C_Dist_300_LN_8_LD_16_RN_1_RD_5_0.png","C_Dist_300_LN_9_LD_10_RN_3_RD_5_0.png"],["C_Dist_300_LN_1_LD_20_RN_7_RD_20_1.png","C_Dist_300_LN_1_LD_3_RN_19_RD_30_1.png","C_Dist_300_LN_1_LD_30_RN_8_RD_24_1.png","C_Dist_300_LN_1_LD_5_RN_11_RD_22_1.png","C_Dist_300_LN_1_LD_5_RN_3_RD_6_1.png","C_Dist_300_LN_1_LD_5_RN_6_RD_12_1.png","C_Dist_300_LN_2_LD_10_RN_12_RD_24_1.png","C_Dist_300_LN_2_LD_20_RN_10_RD_25_1.png","C_Dist_300_LN_3_LD_12_RN_11_RD_20_1.png","C_Dist_300_LN_3_LD_6_RN_4_RD_5_1.png","C_Dist_300_LN_4_LD_20_RN_13_RD_26_1.png","C_Dist_300_LN_5_LD_25_RN_6_RD_12_1.png","C_Dist_300_LN_5_LD_25_RN_7_RD_14_1.png","C_Dist_300_LN_7_LD_14_RN_20_RD_25_1.png","C_Dist_300_LN_8_LD_15_RN_10_RD_12_1.png"]],"dist300_I":[["I_Dist_300_LN_1_LD_2_RN_2_RD_10_0.png","I_Dist_300_LN_1_LD_2_RN_3_RD_15_0.png","I_Dist_300_LN_2_LD_4_RN_6_RD_30_0.png","I_Dist_300_LN_3_LD_6_RN_4_RD_20_0.png","I_Dist_300_LN_4_LD_5_RN_6_RD_12_0.png","I_Dist_300_LN_4_LD_5_RN_8_RD_16_0.png","I_Dist_300_LN_7_LD_10_RN_8_RD_20_0.png","I_Dist_300_LN_8_LD_10_RN_14_RD_28_0.png","I_Dist_300_LN_8_LD_10_RN_9_RD_18_0.png"],["I_Dist_300_LN_13_LD_26_RN_12_RD_15_1.png","I_Dist_300_LN_4_LD_20_RN_2_RD_4_1.png"]],"dist300_S":[["E_Dist_300_LN_9_LD_12_RN_9_RD_20_0.png"],["E_Dist_300_LN_18_LD_30_RN_18_RD_20_1.png","E_Dist_300_LN_3_LD_10_RN_3_RD_5_1.png","E_Dist_300_LN_9_LD_20_RN_9_RD_12_1.png"]],"dist500_C":[["C_Dist_500_LN_10_LD_13_RN_7_RD_26_0.png","C_Dist_500_LN_10_LD_15_RN_4_RD_24_0.png","C_Dist_500_LN_12_LD_16_RN_3_RD_12_0.png","C_Dist_500_LN_12_LD_18_RN_4_RD_24_0.png","C_Dist_500_LN_15_LD_18_RN_5_RD_15_0.png","C_Dist_500_LN_15_LD_20_RN_1_RD_4_0.png","C_Dist_500_LN_18_LD_27_RN_1_RD_6_0.png","C_Dist_500_LN_20_LD_24_RN_1_RD_3_0.png","C_Dist_500_LN_20_LD_24_RN_3_RD_9_0.png","C_Dist_500_LN_20_LD_24_RN_7_RD_21_0.png","C_Dist_500_LN_20_LD_28_RN_3_RD_14_0.png","C_Dist_500_LN_21_LD_28_RN_6_RD_24_0.png","C_Dist_500_LN_22_LD_28_RN_2_RD_7_0.png","C_Dist_500_LN_25_LD_30_RN_9_RD_27_0.png","C_Dist_500_LN_4_LD_6_RN_1_RD_6_0.png","C_Dist_500_LN_5_LD_6_RN_2_RD_6_0.png","C_Dist_500_LN_6_LD_9_RN_1_RD_6_0.png","C_Dist_500_LN_7_LD_10_RN_1_RD_5_0.png","C_Dist_500_LN_8_LD_12_RN_1_RD_6_0.png","C_Dist_500_LN_8_LD_12_RN_4_RD_24_0.png"],["C_Dist_500_LN_1_LD_4_RN_12_RD_16_1.png","C_Dist_500_LN_1_LD_4_RN_9_RD_12_1.png","C_Dist_500_LN_1_LD_9_RN_11_RD_18_1.png","C_Dist_500_LN_10_LD_24_RN_22_RD_24_1.png","C_Dist_500_LN_2_LD_12_RN_10_RD_15_1.png","C_Dist_500_LN_2_LD_12_RN_12_RD_18_1.png","C_Dist_500_LN_2_LD_12_RN_4_RD_6_1.png","C_Dist_500_LN_2_LD_24_RN_7_RD_12_1.png","C_Dist_500_LN_2_LD_5_RN_18_RD_20_1.png","C_Dist_500_LN_2_LD_5_RN_9_RD_10_1.png","C_Dist_500_LN_2_LD_8_RN_12_RD_16_1.png","C_Dist_500_LN_2_LD_8_RN_21_RD_28_1.png","C_Dist_500_LN_3_LD_10_RN_4_RD_5_1.png","C_Dist_500_LN_3_LD_12_RN_15_RD_20_1.png","C_Dist_500_LN_3_LD_30_RN_6_RD_10_1.png","C_Dist_500_LN_3_LD_8_RN_14_RD_16_1.png","C_Dist_500_LN_4_LD_16_RN_15_RD_20_1.png","C_Dist_500_LN_4_LD_24_RN_12_RD_18_1.png","C_Dist_500_LN_5_LD_14_RN_6_RD_7_1.png","C_Dist_500_LN_7_LD_21_RN_20_RD_24_1.png","C_Dist_500_LN_7_LD_28_RN_12_RD_16_1.png","C_Dist_500_LN_7_LD_28_RN_9_RD_12_1.png","C_Dist_500_LN_9_LD_27_RN_20_RD_24_1.png"]],"dist500_I":[["I_Dist_500_LN_2_LD_3_RN_4_RD_24_0.png","I_Dist_500_LN_5_LD_6_RN_6_RD_18_0.png","I_Dist_500_LN_7_LD_8_RN_9_RD_24_0.png"],["I_Dist_500_LN_7_LD_21_RN_5_RD_6_1.png"]],"dist500_S":[["E_Dist_500_LN_6_LD_8_RN_6_RD_24_0.png"],["E_Dist_500_LN_2_LD_12_RN_2_RD_3_1.png","E_Dist_500_LN_6_LD_24_RN_6_RD_8_1.png"]]}},{"start_time":1551800605354,"click_time":1551800606399,"finger_time":1551800605759,"fix_duration":933.1127710836091,"trial":1,"RT":405,"MT":640,"sideResp":1,"stimulus":[],"xmouse":[778,778,778,778,778,778,778,778,778,778,778,778,778,778,778,778,778,778,774,768,721,693,667,656,651,644,639,625,617,611,603,600,596,590,574,498,408,378,368,367,366,366,366,366,366,374,395,426,428,428,429,429,431],"ymouse":[528,528,528,528,528,528,528,528,528,528,528,528,528,528,528,528,528,528,524,515,457,425,391,372,359,333,316,277,250,234,218,215,211,206,195,162,123,109,103,102,102,102,102,102,102,102,108,110,110,110,105,103,99],"timestamp_mouse":[10,36,45,65,86,105,125,145,165,185,205,225,245,265,286,306,325,347,365,385,405,425,445,465,487,505,525,545,567,586,605,625,645,665,686,705,725,745,765,785,807,826,845,866,885,905,926,945,966,985,1006,1025,1045],"xSR":741.5,"ySR":469.95,"xT1":424.9,"yT1":0,"xT2":1058.1,"yT2":0,"toosoon":0,"cond_shown":"Incongruent","ratio_trial":300,"L_num":13,"L_den":26,"R_num":12,"R_den":15,"correct_side":2,"subjID":"JUANSEBASTIANBELTRANGONZALEZ38","gender":"12","school":"COLEGIOCAFAM","age":"12"},{"start_time":1551800613313,"click_time":1551800614019,"finger_time":1551800613699,"fix_duration":712.1575980969208,"trial":2,"RT":386,"MT":320,"sideResp":2,"stimulus":[],"xmouse":[786,786,786,786,786,786,786,786,786,786,786,786,786,786,786,786,786,786,834,965,1092,1201,1340,1344,1344,1344,1344,1335,1311,1290,1269,1261,1253,1231,1184,1127],"ymouse":[514,514,514,514,514,514,514,514,514,514,514,514,514,514,514,514,514,514,479,372,258,152,12,1,0,0,0,6,35,52,63,67,65,51,27,9],"timestamp_mouse":[8,28,47,67,86,107,126,147,167,188,206,226,246,267,286,307,326,346,367,386,406,427,447,466,486,506,527,546,567,586,606,626,647,666,687,706],"xSR":741.5,"ySR":469.95,"xT1":424.9,"yT1":0,"xT2":1058.1,"yT2":0,"toosoon":0,"cond_shown":"Congruent","ratio_trial":100,"L_num":3,"L_den":20,"R_num":4,"R_den":16,"correct_side":2,"subjID":"JUANSEBASTIANBELTRANGONZALEZ38","gender":"12","school":"COLEGIOCAFAM","age":"12"},{"start_time":1551800617329,"click_time":1551800617960,"finger_time":1551800617779,"fix_duration":1208.7802538107608,"trial":3,"RT":450,"MT":181,"sideResp":2,"stimulus":[],"xmouse":[813,813,813,813,813,813,813,813,813,813,813,813,813,813,813,813,813,813,813,813,818,837,844,857,880,905,933,981,999,1019,1038,1069],"ymouse":[538,538,538,538,538,538,538,538,538,538,538,538,538,538,538,538,538,538,538,537,525,494,476,449,411,371,321,234,202,165,124,49],"timestamp_mouse":[10,37,51,70,90,110,131,152,170,190,211,231,251,271,290,310,330,351,370,390,410,430,450,470,490,510,530,551,570,590,611,631],"xSR":741.5,"ySR":469.95,"xT1":424.9,"yT1":0,"xT2":1058.1,"yT2":0,"toosoon":0,"cond_shown":"Congruent","ratio_trial":200,"L_num":14,"L_den":28,"R_num":6,"R_den":20,"correct_side":1,"subjID":"JUANSEBASTIANBELTRANGONZALEZ38","gender":"12","school":"COLEGIOCAFAM","age":"12"},{"start_time":1551800619571,"click_time":1551800620339,"finger_time":1551800619959,"fix_duration":250,"trial":4,"RT":388,"MT":380,"sideResp":1,"stimulus":[],"xmouse":[802,802,802,802,802,802,802,802,802,802,802,802,802,802,802,802,802,802,792,747,684,631,604,592,579,563,550,550,550,550,550,550,550,550,550,550,550,550,502],"ymouse":[518,518,518,518,518,518,518,518,518,518,518,518,518,518,518,518,518,518,475,331,204,118,81,67,50,29,10,10,10,10,10,10,10,10,10,10,10,10,23],"timestamp_mouse":[9,40,48,70,88,109,128,148,168,188,208,229,248,268,288,309,328,348,368,388,408,428,449,468,488,509,528,548,569,588,609,628,648,668,689,708,728,748,768],"xSR":741.5,"ySR":469.95,"xT1":424.9,"yT1":0,"xT2":1058.1,"yT2":0,"toosoon":0,"cond_shown":"Congruent","ratio_trial":300,"L_num":7,"L_den":14,"R_num":20,"R_den":25,"correct_side":2,"subjID":"JUANSEBASTIANBELTRANGONZALEZ38","gender":"12","school":"COLEGIOCAFAM","age":"12"},{"start_time":1551800621986,"click_time":1551800622660,"finger_time":1551800622279,"fix_duration":625.6695443527692,"trial":5,"RT":293,"MT":381,"sideResp":1,"stimulus":[],"xmouse":[817,816,816,805,802,801,801,801,791,776,764,762,762,761,735,689,636,583,552,552,552,552,549,535,532,532,532,532,532,532,531,522,508,480],"ymouse":[535,534,534,522,518,518,518,518,507,496,487,486,486,483,438,380,318,266,234,233,230,214,192,158,154,154,154,154,154,152,141,124,103,71],"timestamp_mouse":[19,40,53,73,95,113,134,154,173,193,214,235,253,273,293,313,334,353,373,393,413,434,455,474,493,513,534,555,574,593,613,633,654,673],"xSR":741.5,"ySR":469.95,"xT1":424.9,"yT1":0,"xT2":1058.1,"yT2":0,"toosoon":0,"cond_shown":"Incongruent","ratio_trial":100,"L_num":17,"L_den":30,"R_num":10,"R_den":15,"correct_side":2,"subjID":"JUANSEBASTIANBELTRANGONZALEZ38","gender":"12","school":"COLEGIOCAFAM","age":"12"},{"start_time":1551800626532,"click_time":1551800627379,"finger_time":1551800626959,"fix_duration":1390.7098674621263,"trial":6,"RT":427,"MT":420,"sideResp":1,"stimulus":[],"xmouse":[815,815,815,815,815,815,815,815,815,815,815,815,815,815,815,815,815,815,815,813,799,770,759,751,744,738,720,619,576,561,556,544,534,534,534,534,539,540,540,540,539,534,524],"ymouse":[506,506,506,506,506,506,506,506,506,506,506,506,506,506,506,506,506,506,506,502,487,454,445,439,432,417,375,155,92,68,52,14,1,0,0,0,24,32,46,50,55,63,67],"timestamp_mouse":[9,43,47,67,87,107,127,147,168,187,207,227,247,267,287,307,327,348,367,387,407,427,447,468,488,508,527,547,567,589,608,627,647,667,689,708,727,748,767,788,807,827,847],"xSR":741.5,"ySR":469.95,"xT1":424.9,"yT1":0,"xT2":1058.1,"yT2":0,"toosoon":0,"cond_shown":"Congruent","ratio_trial":100,"L_num":11,"L_den":22,"R_num":6,"R_den":15,"correct_side":1,"subjID":"JUANSEBASTIANBELTRANGONZALEZ38","gender":"12","school":"COLEGIOCAFAM","age":"12"},{"start_time":1551800656231,"click_time":1551800657879,"finger_time":1551800657440,"fix_duration":250,"trial":7,"RT":1209,"MT":439,"sideResp":1,"stimulus":[],"xmouse":[803,803,803,803,803,803,803,803,803,803,803,803,803,803,803,803,803,803,803,803,803,803,803,803,803,803,803,803,803,803,803,803,803,803,803,803,803,803,803,803,803,803,803,803,803,803,803,803,803,803,803,803,803,803,803,803,803,803,801,796,787,770,742,697,642,599,570,570,570,570,564,525,524,524,524,524,524,521,515,502,485,471,471],"ymouse":[531,531,531,531,531,531,531,531,531,531,531,531,531,531,531,531,531,531,531,531,531,531,531,531,531,531,531,531,531,531,531,531,531,531,531,531,531,531,531,531,531,531,531,531,531,531,531,531,531,531,531,531,531,531,531,531,531,531,524,505,455,427,411,394,362,336,306,295,275,249,218,173,172,172,172,172,162,156,147,133,119,104,94],"timestamp_mouse":[9,41,49,68,89,108,128,148,168,188,209,229,249,269,290,309,328,348,369,388,409,428,449,469,489,508,529,549,568,588,609,629,648,669,688,709,728,748,769,789,808,828,850,869,889,908,928,949,969,988,1008,1028,1048,1068,1090,1109,1128,1149,1169,1188,1209,1228,1248,1268,1289,1308,1328,1348,1368,1388,1408,1429,1449,1468,1490,1508,1528,1548,1568,1589,1608,1628,1648],"xSR":741.5,"ySR":469.95,"xT1":424.9,"yT1":0,"xT2":1058.1,"yT2":0,"toosoon":0,"cond_shown":"Congruent","ratio_trial":200,"L_num":3,"L_den":6,"R_num":14,"R_den":20,"correct_side":2,"subjID":"JUANSEBASTIANBELTRANGONZALEZ38","gender":"12","school":"COLEGIOCAFAM","age":"12"},{"start_time":1551800659649,"click_time":1551800660879,"finger_time":1551800660258,"fix_duration":250,"trial":8,"RT":609,"MT":621,"sideResp":2,"stimulus":[],"xmouse":[783,783,783,783,783,783,783,783,783,783,783,783,783,783,783,783,783,783,783,783,783,783,783,783,783,783,783,774,762,758,757,766,781,802,833,919,978,1051,1108,1134,1144,1147,1148,1150,1153,1171,1179,1189,1192,1192,1192,1192,1192,1192,1192,1192,1192,1192,1192,1192,1192,1074],"ymouse":[518,518,518,518,518,518,518,518,518,518,518,518,518,518,518,518,518,518,518,518,518,518,518,518,518,518,518,512,500,486,448,423,406,390,375,347,334,324,316,310,305,301,296,282,258,164,114,43,10,10,10,10,10,10,10,10,10,10,10,10,10,1],"timestamp_mouse":[16,42,50,70,90,110,130,148,169,190,210,230,249,269,288,309,330,350,370,390,409,428,450,470,488,509,529,549,568,589,609,628,648,670,690,708,729,749,769,789,808,829,849,869,889,909,929,949,968,989,1009,1028,1049,1069,1089,1108,1128,1148,1168,1188,1209,1230],"xSR":741.5,"ySR":469.95,"xT1":424.9,"yT1":0,"xT2":1058.1,"yT2":0,"toosoon":0,"cond_shown":"Congruent","ratio_trial":100,"L_num":11,"L_den":22,"R_num":4,"R_den":10,"correct_side":1,"subjID":"JUANSEBASTIANBELTRANGONZALEZ38","gender":"12","school":"COLEGIOCAFAM","age":"12"},{"start_time":1551800664572,"click_time":1551800665718,"finger_time":1551800665657,"fix_duration":652.4764586063646,"trial":9,"RT":1085,"MT":61,"sideResp":1,"stimulus":[],"xmouse":[814,814,817,818,818,818,818,818,818,818,818,818,818,818,818,818,818,818,818,818,818,818,818,818,818,818,818,820,827,837,837,838,838,838,838,838,838,838,838,838,837,834,833,831,825,813,807,806,806,806,801,791,771,748,676,593,539,501],"ymouse":[525,525,525,525,525,525,525,525,525,525,525,525,525,525,525,525,525,525,525,525,525,525,525,525,525,525,525,525,524,523,523,523,523,523,523,523,523,523,523,523,523,523,523,523,524,527,528,528,528,528,528,528,520,508,425,290,179,88],"timestamp_mouse":[11,33,45,67,85,106,126,147,166,186,207,226,246,266,286,307,325,346,366,386,405,427,447,466,486,505,526,546,566,585,606,626,647,665,686,706,727,746,765,786,806,825,846,866,885,905,926,945,966,986,1005,1025,1045,1066,1085,1105,1126,1146],"xSR":741.5,"ySR":469.95,"xT1":424.9,"yT1":0,"xT2":1058.1,"yT2":0,"toosoon":0,"cond_shown":"Congruent","ratio_trial":100,"L_num":9,"L_den":15,"R_num":8,"R_den":16,"correct_side":1,"subjID":"JUANSEBASTIANBELTRANGONZALEZ38","gender":"12","school":"COLEGIOCAFAM","age":"12"},{"start_time":1551800667742,"click_time":1551800668597,"finger_time":1551800668077,"fix_duration":682.2192702857093,"trial":10,"RT":335,"MT":520,"sideResp":1,"stimulus":[],"xmouse":[811,811,811,811,811,811,811,811,811,811,811,811,811,811,808,801,677,600,539,523,523,523,523,523,523,528,530,530,529,529,529,529,529,529,529,529,529,529,529,529,528,528,518],"ymouse":[512,512,512,512,512,512,512,512,512,512,512,512,512,512,508,498,317,235,188,179,179,179,179,178,178,160,141,113,106,105,105,105,105,105,105,105,105,105,105,105,104,104,91],"timestamp_mouse":[17,35,55,76,96,115,136,156,176,196,216,237,257,276,296,316,335,356,376,396,416,436,456,476,496,516,536,556,576,595,617,636,655,677,696,716,737,756,775,796,816,836,855],"xSR":741.5,"ySR":469.95,"xT1":424.9,"yT1":0,"xT2":1058.1,"yT2":0,"toosoon":0,"cond_shown":"Incongruent","ratio_trial":300,"L_num":4,"L_den":20,"R_num":2,"R_den":4,"correct_side":2,"subjID":"JUANSEBASTIANBELTRANGONZALEZ38","gender":"12","school":"COLEGIOCAFAM","age":"12"},{"start_time":1551800670834,"click_time":1551800671658,"finger_time":1551800671158,"fix_duration":1373.464454888022,"trial":11,"RT":324,"MT":500,"sideResp":1,"stimulus":[],"xmouse":[786,784,782,780,779,777,776,776,776,776,776,776,776,781,785,793,834,867,886,886,874,826,726,603,478,377,351,351,361,379,395,399,399,399,399,399,399,399,399,405,419,438],"ymouse":[531,534,536,538,539,540,541,541,541,541,541,536,529,511,505,492,427,352,256,175,141,134,134,124,106,86,78,78,74,68,61,58,58,58,58,58,58,58,57,52,48,44],"timestamp_mouse":[3,30,45,64,85,104,124,144,165,184,203,223,244,264,285,304,324,343,364,383,404,423,444,464,483,505,523,543,564,584,604,624,645,663,683,704,724,745,763,784,804,823],"xSR":741.5,"ySR":469.95,"xT1":424.9,"yT1":0,"xT2":1058.1,"yT2":0,"toosoon":0,"cond_shown":"Congruent","ratio_trial":100,"L_num":3,"L_den":20,"R_num":4,"R_den":16,"correct_side":2,"subjID":"JUANSEBASTIANBELTRANGONZALEZ38","gender":"12","school":"COLEGIOCAFAM","age":"12"},{"start_time":1551800675148,"click_time":1551800675618,"finger_time":1551800675477,"fix_duration":748.5927194379799,"trial":12,"RT":329,"MT":141,"sideResp":2,"stimulus":[],"xmouse":[813,813,813,813,811,806,803,803,802,802,802,802,802,802,802,803,856,904,956,1000,1086,1119,1128,1131],"ymouse":[498,498,498,497,500,514,518,522,522,522,523,523,523,523,523,524,497,459,397,327,178,122,104,97],"timestamp_mouse":[10,43,49,71,91,109,131,150,170,189,210,231,250,270,290,310,329,350,370,389,410,429,450,470],"xSR":741.5,"ySR":469.95,"xT1":424.9,"yT1":0,"xT2":1058.1,"yT2":0,"toosoon":0,"cond_shown":"Incongruent","ratio_trial":100,"L_num":11,"L_den":22,"R_num":9,"R_den":15,"correct_side":2,"subjID":"JUANSEBASTIANBELTRANGONZALEZ38","gender":"12","school":"COLEGIOCAFAM","age":"12"},{"start_time":1551800679323,"click_time":1551800680118,"finger_time":1551800679678,"fix_duration":503.16315871482067,"trial":13,"RT":355,"MT":440,"sideResp":2,"stimulus":[],"xmouse":[812,812,812,812,812,812,812,812,812,812,812,812,812,812,812,812,820,848,872,889,893,884,879,877,874,874,875,884,888,893,894,896,906,929,951,969,981,989,1024,1092],"ymouse":[506,506,506,505,505,505,505,505,505,505,505,505,505,505,505,505,491,451,407,349,280,215,207,204,199,188,153,138,130,124,121,118,111,101,92,88,85,84,84,76],"timestamp_mouse":[14,36,55,75,95,114,135,155,174,195,215,235,256,275,296,314,335,355,375,395,414,435,454,475,495,515,534,555,574,594,616,635,655,675,694,715,735,756,775,795],"xSR":741.5,"ySR":469.95,"xT1":424.9,"yT1":0,"xT2":1058.1,"yT2":0,"toosoon":0,"cond_shown":"Incongruent","ratio_trial":100,"L_num":11,"L_den":22,"R_num":9,"R_den":15,"correct_side":2,"subjID":"JUANSEBASTIANBELTRANGONZALEZ38","gender":"12","school":"COLEGIOCAFAM","age":"12"},{"start_time":1551800687327,"click_time":1551800688158,"finger_time":1551800687737,"fix_duration":1346.7462768550954,"trial":14,"RT":410,"MT":421,"sideResp":2,"stimulus":[],"xmouse":[829,824,815,813,813,813,813,813,813,813,813,812,812,812,812,812,812,812,812,817,856,916,952,980,992,994,995,995,995,995,995,995,995,996,997,998,1003,1013,1022,1035,1047,1065],"ymouse":[480,484,493,495,495,495,495,495,495,495,499,503,504,504,504,504,504,504,504,501,449,330,222,142,106,97,94,94,94,94,94,94,94,94,95,97,97,94,90,89,87,80],"timestamp_mouse":[12,33,51,71,90,112,131,151,172,190,210,231,251,270,290,311,330,352,371,402,410,431,450,471,492,512,531,551,571,590,611,632,652,671,691,712,731,751,771,791,810,831],"xSR":741.5,"ySR":469.95,"xT1":424.9,"yT1":0,"xT2":1058.1,"yT2":0,"toosoon":0,"cond_shown":"Incongruent","ratio_trial":100,"L_num":10,"L_den":25,"R_num":8,"R_den":16,"correct_side":2,"subjID":"JUANSEBASTIANBELTRANGONZALEZ38","gender":"12","school":"COLEGIOCAFAM","age":"12"},{"start_time":1551800705008,"click_time":1551800706618,"finger_time":1551800705597,"fix_duration":429.58328954419454,"trial":15,"RT":589,"MT":1021,"sideResp":2,"stimulus":[],"xmouse":[797,797,797,797,797,797,797,797,797,797,797,797,797,797,797,797,797,797,797,797,797,797,797,797,797,797,797,794,792,792,789,781,764,702,655,629,612,603,600,593,579,572,571,575,609,659,704,765,773,773,773,773,737,665,645,638,636,636,640,659,719,827,1105,1273,1325,1349,1361,1362,1362,1360,1355,1340,1268,1225,1217,1217,1217,1215,1186,1160,1142],"ymouse":[496,496,496,496,496,496,496,496,496,496,496,496,496,496,496,496,496,496,496,496,496,496,496,496,496,496,496,484,472,461,449,439,415,311,228,192,171,160,152,133,99,80,74,67,51,32,22,17,15,15,15,14,14,24,31,33,35,42,53,74,114,161,218,215,207,203,201,201,201,197,192,182,151,135,131,131,130,124,76,50,40],"timestamp_mouse":[11,34,50,70,89,111,129,150,170,190,210,229,250,270,290,310,331,350,369,391,410,429,450,470,490,509,530,550,569,589,609,630,650,670,690,711,730,749,769,789,809,829,850,870,890,911,930,949,971,989,1010,1030,1050,1070,1090,1109,1129,1150,1169,1190,1210,1230,1250,1271,1290,1310,1329,1350,1369,1390,1411,1430,1449,1469,1489,1511,1530,1550,1570,1590,1610],"xSR":741.5,"ySR":469.95,"xT1":424.9,"yT1":0,"xT2":1058.1,"yT2":0,"toosoon":0,"cond_shown":"Incongruent","ratio_trial":200,"L_num":11,"L_den":20,"R_num":3,"R_den":4,"correct_side":2,"subjID":"JUANSEBASTIANBELTRANGONZALEZ38","gender":"12","school":"COLEGIOCAFAM","age":"12"},{"start_time":1551800710309,"click_time":1551800710878,"finger_time":1551800710518,"fix_duration":250,"trial":16,"RT":209,"MT":360,"sideResp":2,"stimulus":[],"xmouse":[807,807,807,807,807,807,807,807,807,811,815,823,851,894,950,1015,1050,1050,1050,1050,1050,1050,1050,1050,1050,1050,1050,1050,1135],"ymouse":[507,507,507,507,507,507,507,507,507,500,462,394,249,159,83,25,1,1,1,1,1,1,1,1,1,1,1,1,2],"timestamp_mouse":[9,33,49,69,88,110,129,149,168,189,209,228,248,268,289,308,329,349,369,389,409,429,449,469,490,510,530,550,569],"xSR":741.5,"ySR":469.95,"xT1":424.9,"yT1":0,"xT2":1058.1,"yT2":0,"toosoon":0,"cond_shown":"Incongruent","ratio_trial":100,"L_num":9,"L_den":10,"R_num":20,"R_den":25,"correct_side":1,"subjID":"JUANSEBASTIANBELTRANGONZALEZ38","gender":"12","school":"COLEGIOCAFAM","age":"12"},{"start_time":1551800713439,"click_time":1551800714018,"finger_time":1551800713818,"fix_duration":1140.6675523093932,"trial":17,"RT":379,"MT":200,"sideResp":1,"stimulus":[],"xmouse":[805,805,805,805,805,805,805,805,805,805,805,805,805,804,804,799,792,783,768,726,584,567,547,546,546,546,546,542,519],"ymouse":[514,514,514,514,514,514,514,514,514,514,514,513,512,512,511,505,496,483,467,406,212,188,160,158,158,155,150,130,88],"timestamp_mouse":[34,39,59,79,99,118,139,159,180,200,218,239,258,280,299,318,338,359,379,399,420,440,458,479,498,519,538,559,579],"xSR":741.5,"ySR":469.95,"xT1":424.9,"yT1":0,"xT2":1058.1,"yT2":0,"toosoon":0,"cond_shown":"Congruent","ratio_trial":300,"L_num":1,"L_den":5,"R_num":6,"R_den":12,"correct_side":2,"subjID":"JUANSEBASTIANBELTRANGONZALEZ38","gender":"12","school":"COLEGIOCAFAM","age":"12"},{"start_time":1551800717251,"click_time":1551800717777,"finger_time":1551800717557,"fix_duration":772.3189092981381,"trial":18,"RT":306,"MT":220,"sideResp":2,"stimulus":[],"xmouse":[800,801,802,802,802,802,802,802,802,802,802,802,802,802,810,851,897,946,983,1006,1017,1019,1020,1021,1024,1048,1069],"ymouse":[490,491,492,492,492,492,492,492,492,492,492,492,492,492,483,435,367,279,198,132,85,78,74,72,68,50,38],"timestamp_mouse":[15,38,47,68,87,106,127,148,167,187,206,226,248,267,286,306,326,347,367,388,407,428,447,467,486,507,526],"xSR":741.5,"ySR":469.95,"xT1":424.9,"yT1":0,"xT2":1058.1,"yT2":0,"toosoon":0,"cond_shown":"Incongruent","ratio_trial":200,"L_num":14,"L_den":30,"R_num":12,"R_den":18,"correct_side":2,"subjID":"JUANSEBASTIANBELTRANGONZALEZ38","gender":"12","school":"COLEGIOCAFAM","age":"12"},{"start_time":1551800730691,"click_time":1551800731157,"finger_time":1551800730977,"fix_duration":770.1308294526962,"trial":19,"RT":286,"MT":180,"sideResp":2,"stimulus":[],"xmouse":[823,823,823,823,823,823,823,823,823,823,823,823,825,835,849,869,894,927,990,1013,1023,1034,1051,1093],"ymouse":[539,539,539,539,539,539,539,539,539,539,539,539,539,527,512,485,440,379,249,193,174,158,141,94],"timestamp_mouse":[10,35,47,67,87,106,126,146,168,186,207,226,246,266,286,307,327,346,366,386,406,426,446,466],"xSR":741.5,"ySR":469.95,"xT1":424.9,"yT1":0,"xT2":1058.1,"yT2":0,"toosoon":0,"cond_shown":"Incongruent","ratio_trial":300,"L_num":13,"L_den":26,"R_num":12,"R_den":15,"correct_side":2,"subjID":"JUANSEBASTIANBELTRANGONZALEZ38","gender":"12","school":"COLEGIOCAFAM","age":"12"},{"start_time":1551800736065,"click_time":1551800736497,"finger_time":1551800736417,"fix_duration":1247.50718401119,"trial":20,"RT":352,"MT":80,"sideResp":2,"stimulus":[],"xmouse":[831,831,831,831,831,831,831,831,831,831,831,831,831,831,831,832,840,853,877,978,1057,1083],"ymouse":[522,522,522,522,522,522,522,522,522,522,522,522,522,522,522,520,494,445,366,185,76,37],"timestamp_mouse":[12,39,52,72,93,113,133,153,173,192,212,232,252,272,293,312,332,352,372,392,412,432],"xSR":741.5,"ySR":469.95,"xT1":424.9,"yT1":0,"xT2":1058.1,"yT2":0,"toosoon":0,"cond_shown":"Congruent","ratio_trial":300,"L_num":5,"L_den":25,"R_num":6,"R_den":12,"correct_side":2,"subjID":"JUANSEBASTIANBELTRANGONZALEZ38","gender":"12","school":"COLEGIOCAFAM","age":"12"},{"start_time":1551800738796,"click_time":1551800739157,"finger_time":1551800739078,"fix_duration":956.0038368355299,"trial":21,"RT":282,"MT":79,"sideResp":1,"stimulus":[],"xmouse":[814,814,814,814,814,814,814,814,814,814,814,814,814,802,754,693,618,545,433],"ymouse":[522,522,522,522,522,522,522,522,522,522,522,522,521,506,450,373,282,204,97],"timestamp_mouse":[9,21,41,62,81,101,121,141,161,181,201,222,241,261,282,301,323,341,361],"xSR":741.5,"ySR":469.95,"xT1":424.9,"yT1":0,"xT2":1058.1,"yT2":0,"toosoon":0,"cond_shown":"Congruent","ratio_trial":100,"L_num":2,"L_den":5,"R_num":11,"R_den":22,"correct_side":2,"subjID":"JUANSEBASTIANBELTRANGONZALEZ38","gender":"12","school":"COLEGIOCAFAM","age":"12"},{"start_time":1551800741527,"click_time":1551800742157,"finger_time":1551800741837,"fix_duration":1288.7241254968715,"trial":22,"RT":310,"MT":320,"sideResp":2,"stimulus":[],"xmouse":[809,809,809,809,809,809,809,809,809,809,809,809,809,809,811,818,843,866,884,899,909,917,940,964,990,1012,1033,1040,1045,1053,1065,1091],"ymouse":[516,516,516,516,515,514,513,510,510,510,509,507,500,494,481,461,398,345,309,286,270,260,244,233,217,200,170,163,160,153,139,98],"timestamp_mouse":[11,31,50,70,90,110,130,150,170,190,210,230,250,270,290,310,331,351,370,391,410,430,450,471,491,510,530,551,570,591,611,630],"xSR":741.5,"ySR":469.95,"xT1":424.9,"yT1":0,"xT2":1058.1,"yT2":0,"toosoon":0,"cond_shown":"Incongruent","ratio_trial":200,"L_num":1,"L_den":3,"R_num":2,"R_den":15,"correct_side":1,"subjID":"JUANSEBASTIANBELTRANGONZALEZ38","gender":"12","school":"COLEGIOCAFAM","age":"12"},{"start_time":1551800746908,"click_time":1551800747697,"finger_time":1551800747377,"fix_duration":250,"trial":23,"RT":469,"MT":320,"sideResp":1,"stimulus":[],"xmouse":[824,824,824,824,824,824,824,824,824,824,824,824,824,824,824,824,824,824,824,824,824,824,824,804,764,718,669,609,603,602,601,596,563,547,536,535,535,535,532,524],"ymouse":[545,545,545,545,545,545,545,545,545,545,545,545,545,545,545,543,542,541,541,541,538,537,507,441,360,287,223,144,131,130,128,120,89,76,68,66,66,66,60,50],"timestamp_mouse":[9,35,50,70,90,110,130,149,169,190,209,229,249,270,289,309,330,349,369,389,409,429,449,469,489,509,529,550,569,589,609,630,649,669,689,709,729,749,769,789],"xSR":741.5,"ySR":469.95,"xT1":424.9,"yT1":0,"xT2":1058.1,"yT2":0,"toosoon":0,"cond_shown":"Congruent","ratio_trial":300,"L_num":3,"L_den":12,"R_num":11,"R_den":20,"correct_side":2,"subjID":"JUANSEBASTIANBELTRANGONZALEZ38","gender":"12","school":"COLEGIOCAFAM","age":"12"},{"start_time":1551800750991,"click_time":1551800751737,"finger_time":1551800751277,"fix_duration":910.9716640167604,"trial":24,"RT":286,"MT":460,"sideResp":2,"stimulus":[],"xmouse":[829,829,829,829,829,829,829,829,829,829,831,832,832,832,842,855,873,902,936,941,944,946,949,977,1010,1026,1035,1039,1040,1041,1044,1053,1068,1092,1103,1108,1114,1124],"ymouse":[551,551,551,551,551,551,551,551,551,551,551,551,551,551,543,525,488,416,304,267,250,236,229,202,182,171,163,157,153,152,150,148,142,127,117,110,105,92],"timestamp_mouse":[8,33,47,66,86,106,126,147,167,186,208,226,247,266,286,306,326,346,368,386,406,426,446,467,487,506,528,546,567,586,606,626,646,666,686,706,727,746],"xSR":741.5,"ySR":469.95,"xT1":424.9,"yT1":0,"xT2":1058.1,"yT2":0,"toosoon":0,"cond_shown":"Congruent","ratio_trial":300,"L_num":20,"L_den":25,"R_num":8,"R_den":16,"correct_side":1,"subjID":"JUANSEBASTIANBELTRANGONZALEZ38","gender":"12","school":"COLEGIOCAFAM","age":"12"},{"start_time":1551800758197,"click_time":1551800759037,"finger_time":1551800758738,"fix_duration":758.1296917759896,"trial":25,"RT":541,"MT":299,"sideResp":1,"stimulus":[],"xmouse":[833,833,833,833,833,833,833,833,833,833,833,833,833,833,833,833,833,833,833,833,833,833,833,833,833,824,791,738,639,608,598,597,597,601,603,603,603,603,595,591,578,555,522],"ymouse":[542,542,542,542,542,542,542,542,542,542,542,542,542,542,542,542,542,542,542,542,542,542,542,542,542,532,492,430,317,275,259,256,252,244,234,215,197,175,145,131,111,83,45],"timestamp_mouse":[8,20,42,60,80,100,120,140,160,181,200,220,241,260,280,301,321,340,360,381,400,420,440,460,480,500,520,541,560,580,600,620,642,660,681,700,720,740,761,780,800,820,840],"xSR":741.5,"ySR":469.95,"xT1":424.9,"yT1":0,"xT2":1058.1,"yT2":0,"toosoon":0,"cond_shown":"Congruent","ratio_trial":300,"L_num":9,"L_den":10,"R_num":3,"R_den":5,"correct_side":1,"subjID":"JUANSEBASTIANBELTRANGONZALEZ38","gender":"12","school":"COLEGIOCAFAM","age":"12"},{"start_time":1551800767101,"click_time":1551800768057,"finger_time":1551800767477,"fix_duration":843.8330873492141,"trial":26,"RT":376,"MT":580,"sideResp":1,"stimulus":[],"xmouse":[787,787,787,787,787,786,785,781,778,778,778,778,778,778,778,778,778,778,789,797,802,803,805,799,772,721,653,588,588,589,587,572,533,523,521,521,521,523,527,527,527,527,527,528,528,528,527,522],"ymouse":[496,496,496,496,496,498,500,504,505,505,505,505,505,505,505,505,505,499,462,441,427,420,401,382,350,308,267,215,208,196,182,163,137,132,131,128,127,125,125,125,125,125,125,124,115,101,87,68],"timestamp_mouse":[17,36,56,76,97,116,137,156,176,196,216,236,256,276,296,317,336,356,376,396,416,436,456,476,496,517,536,556,577,596,616,636,656,676,697,716,736,756,776,796,817,836,856,876,897,916,936,956],"xSR":741.5,"ySR":469.95,"xT1":424.9,"yT1":0,"xT2":1058.1,"yT2":0,"toosoon":0,"cond_shown":"Incongruent","ratio_trial":100,"L_num":13,"L_den":26,"R_num":12,"R_den":20,"correct_side":2,"subjID":"JUANSEBASTIANBELTRANGONZALEZ38","gender":"12","school":"COLEGIOCAFAM","age":"12"},{"start_time":1551800776039,"click_time":1551800776837,"finger_time":1551800776217,"fix_duration":1159.1019496226675,"trial":27,"RT":178,"MT":620,"sideResp":2,"stimulus":[],"xmouse":[813,815,815,813,812,811,811,811,811,808,806,801,799,799,799,799,802,804,804,804,801,793,792,791,786,781,777,780,790,803,821,889,954,992,1013,1022,1048,1078,1090,1109,1120],"ymouse":[523,520,511,494,490,486,486,483,476,462,447,422,415,412,411,407,379,361,342,330,315,298,293,288,273,254,222,212,203,197,192,175,158,143,135,128,120,112,107,101,94],"timestamp_mouse":[1,18,38,58,79,98,118,138,160,178,199,219,238,258,278,298,318,338,358,379,398,419,438,458,478,498,518,539,558,579,598,618,638,658,679,699,718,745,759,779,798],"xSR":741.5,"ySR":469.95,"xT1":424.9,"yT1":0,"xT2":1058.1,"yT2":0,"toosoon":0,"cond_shown":"Congruent","ratio_trial":200,"L_num":3,"L_den":10,"R_num":11,"R_den":22,"correct_side":2,"subjID":"JUANSEBASTIANBELTRANGONZALEZ38","gender":"12","school":"COLEGIOCAFAM","age":"12"},{"start_time":1551800783681,"click_time":1551800784657,"finger_time":1551800784278,"fix_duration":922.5049824237859,"trial":28,"RT":597,"MT":379,"sideResp":1,"stimulus":[],"xmouse":[777,778,778,778,778,778,778,778,778,778,778,778,778,778,778,778,778,778,778,778,778,778,778,779,780,780,780,780,783,782,760,719,660,584,576,569,561,561,561,561,561,561,561,561,561,561,561,561,479],"ymouse":[540,539,539,539,539,539,539,539,539,539,539,539,539,539,539,539,539,539,539,539,539,539,535,533,531,530,530,530,488,417,330,241,167,78,59,28,5,5,5,5,5,5,5,5,5,5,5,5,3],"timestamp_mouse":[16,37,56,76,96,117,136,157,176,197,216,236,257,277,297,316,337,357,376,396,416,436,456,476,497,517,536,556,576,597,616,636,656,676,696,716,736,756,776,797,816,836,857,876,896,916,936,956,976],"xSR":741.5,"ySR":469.95,"xT1":424.9,"yT1":0,"xT2":1058.1,"yT2":0,"toosoon":0,"cond_shown":"Incongruent","ratio_trial":200,"L_num":7,"L_den":10,"R_num":8,"R_den":16,"correct_side":1,"subjID":"JUANSEBASTIANBELTRANGONZALEZ38","gender":"12","school":"COLEGIOCAFAM","age":"12"},{"start_time":1551800802759,"click_time":1551800803738,"finger_time":1551800803598,"fix_duration":399.08715109816484,"trial":29,"RT":839,"MT":140,"sideResp":1,"stimulus":[],"xmouse":[749,749,759,762,762,762,762,762,762,763,763,763,763,763,763,763,763,763,763,763,763,763,763,763,763,763,763,763,763,763,763,763,763,763,763,763,763,763,763,762,751,721,659,589,500,494,492,487,479],"ymouse":[546,546,546,546,546,546,546,546,546,545,545,545,545,545,545,545,545,545,545,545,545,545,545,545,545,545,545,545,545,545,547,547,547,547,547,547,547,547,547,523,488,420,333,245,161,154,144,124,96],"timestamp_mouse":[35,40,59,78,99,118,140,159,178,200,219,239,259,278,299,319,339,360,378,399,418,440,458,480,499,518,540,560,578,599,620,640,659,678,699,720,739,758,778,799,818,839,859,879,899,920,938,959,979],"xSR":741.5,"ySR":469.95,"xT1":424.9,"yT1":0,"xT2":1058.1,"yT2":0,"toosoon":0,"cond_shown":"Incongruent","ratio_trial":300,"L_num":13,"L_den":26,"R_num":12,"R_den":15,"correct_side":2,"subjID":"JUANSEBASTIANBELTRANGONZALEZ38","gender":"12","school":"COLEGIOCAFAM","age":"12"},{"start_time":1551800807339,"click_time":1551800808739,"finger_time":1551800807718,"fix_duration":680.3540606828127,"trial":30,"RT":379,"MT":1021,"sideResp":1,"stimulus":[],"xmouse":[797,790,784,779,777,777,777,777,777,777,777,777,777,777,777,777,777,794,846,914,1031,1031,1031,1031,1031,1031,1031,1031,1031,1031,1031,1031,1031,1031,1031,1031,1031,1031,1031,1031,1031,1031,1031,1031,1031,1031,1031,1031,1031,1031,1031,1031,1031,1031,414,421,423,423,423,423,423,423,423,423,423,423,423,423,424,425],"ymouse":[526,526,526,526,526,526,526,526,526,526,526,526,526,526,526,526,526,509,447,342,52,52,52,52,52,52,52,52,52,52,52,52,52,52,52,52,52,52,52,52,52,52,52,52,52,52,52,52,52,52,52,52,52,52,13,74,84,84,84,84,84,84,84,84,84,84,84,84,83,81],"timestamp_mouse":[33,39,58,78,98,119,140,158,178,199,219,238,258,279,299,319,338,358,379,399,418,439,459,478,498,519,540,559,580,599,619,638,659,678,698,719,739,758,779,800,820,839,860,879,899,920,938,959,980,998,1019,1039,1059,1078,1099,1119,1140,1158,1180,1199,1219,1239,1258,1278,1300,1320,1339,1360,1379,1400],"xSR":741.5,"ySR":469.95,"xT1":424.9,"yT1":0,"xT2":1058.1,"yT2":0,"toosoon":0,"cond_shown":"Incongruent","ratio_trial":100,"L_num":9,"L_den":18,"R_num":6,"R_den":10,"correct_side":2,"subjID":"JUANSEBASTIANBELTRANGONZALEZ38","gender":"12","school":"COLEGIOCAFAM","age":"12"},{"start_time":1551800819854,"click_time":1551800820598,"finger_time":1551800819891,"fix_duration":1116.841871923895,"trial":31,"RT":37,"MT":707,"sideResp":2,"stimulus":[],"xmouse":[802,801,801,798,795,793,793,793,793,793,793,793,793,793,793,793,793,793,793,793,793,810,849,912,974,1074,1110,1148,1182,1195,1201,1198,1196,1196,1196,1186,1171,1156],"ymouse":[470,469,469,475,481,488,488,488,488,488,488,488,488,488,488,488,488,488,488,488,482,432,380,316,265,200,174,142,108,91,66,57,57,57,57,57,57,56],"timestamp_mouse":[9,37,44,64,84,104,123,143,163,183,203,224,245,263,285,303,324,344,364,383,403,423,443,465,484,504,525,544,563,585,604,623,644,663,684,704,723,744],"xSR":741.5,"ySR":469.95,"xT1":424.9,"yT1":0,"xT2":1058.1,"yT2":0,"toosoon":0,"cond_shown":"Congruent","ratio_trial":100,"L_num":7,"L_den":14,"R_num":9,"R_den":15,"correct_side":2,"subjID":"JUANSEBASTIANBELTRANGONZALEZ38","gender":"12","school":"COLEGIOCAFAM","age":"12"},{"start_time":1551800823130,"click_time":1551800824818,"finger_time":1551800824577,"fix_duration":251.86872138329053,"trial":32,"RT":1447,"MT":241,"sideResp":1,"stimulus":[],"xmouse":[817,817,817,817,817,817,817,817,817,817,817,817,817,817,817,817,817,817,817,817,817,817,817,817,817,817,817,817,817,817,817,817,817,817,817,817,817,817,817,817,817,817,817,817,817,817,817,817,817,817,817,817,817,817,817,817,817,817,817,817,817,817,817,817,817,817,817,817,817,817,817,799,739,674,613,584,578,579,579,577,569,542,519,480,442],"ymouse":[534,534,534,534,534,534,534,534,534,534,534,534,534,534,534,534,534,534,534,534,534,534,534,534,534,534,534,534,534,534,534,534,534,534,534,534,534,534,534,534,534,534,534,534,534,534,534,534,534,534,534,534,534,534,534,534,534,534,534,534,534,534,534,534,534,534,534,534,534,534,534,510,443,385,335,302,274,261,250,235,218,177,150,115,89],"timestamp_mouse":[9,41,49,68,88,109,127,147,169,188,207,227,248,267,289,308,328,348,368,389,408,427,449,469,488,508,528,547,568,588,607,629,649,669,688,708,729,749,769,788,808,827,849,867,888,908,928,948,969,988,1009,1027,1048,1068,1088,1109,1128,1147,1167,1188,1209,1228,1249,1268,1288,1308,1328,1348,1369,1387,1407,1428,1447,1467,1488,1507,1528,1549,1567,1588,1608,1628,1648,1669,1688],"xSR":741.5,"ySR":469.95,"xT1":424.9,"yT1":0,"xT2":1058.1,"yT2":0,"toosoon":0,"cond_shown":"Incongruent","ratio_trial":200,"L_num":9,"L_den":15,"R_num":8,"R_den":10,"correct_side":2,"subjID":"JUANSEBASTIANBELTRANGONZALEZ38","gender":"12","school":"COLEGIOCAFAM","age":"12"},{"start_time":1551800828209,"click_time":1551800842018,"finger_time":1551800830558,"fix_duration":250,"trial":33,"RT":2349,"MT":11460,"sideResp":1,"stimulus":[],"xmouse":[772,772,772,772,772,772,772,772,772,772,772,772,772,772,772,772,772,772,772,772,772,772,772,772,772,772,772,772,772,772,772,772,772,772,772,772,772,772,772,772,772,772,772,772,772,772,772,772,772,772,772,772,772,772,772,772,772,772,772,772,772,772,772,772,772,772,772,772,772,772,772,772,772,772,772,772,772,772,772,772,772,772,772,772,772,772,772,772,772,772,772,772,772,772,772,772,772,772,772,772,772,772,772,772,772,772,772,772,772,772,772,771,761,756,754,754,749,738,736,736,736,736,735,736,739,739,739,740,740,740,740,741,743,743,743,744,745,748,750,750,750,750,752,759,762,768,771,772,772,772,772,772,772,772,772,772,772,772,772,772,772,772,772,772,772,772,772,772,772,772,772,772,772,763,747,743,741,741,741,741,741,741,741,741,741,741,741,741,741,741,741,741,741,741,741,741,741,740,740,740,740,739,739,738,740,741,742,744,747,749,750,753,756,756,756,756,759,763,766,768,770,772,772,772,772,772,772,772,772,772,772,772,772,772,772,772,772,772,772,772,772,772,772,772,772,772,772,772,772,772,772,772,772,772,772,772,772,772,772,772,772,772,772,772,772,772,772,772,772,772,772,770,767,767,766,766,766,764,762,761,759,757,756,756,756,756,756,756,756,756,755,755,755,755,757,761,763,764,764,764,766,768,776,779,782,784,786,788,788,790,790,790,790,790,790,790,790,790,790,790,790,790,790,790,790,790,790,790,790,790,790,790,790,790,790,790,790,790,790,790,790,790,790,790,790,790,790,793,795,795,795,795,795,795,795,795,795,792,789,789,789,789,789,789,789,789,789,789,789,789,789,789,788,785,782,781,778,776,776,776,776,776,776,776,776,776,776,776,781,800,848,923,988,991,991,991,991,991,991,990,988,987,979,952,927,899,871,831,831,831,831,831,831,831,833,836,836,824,818,817,812,805,793,791,791,791,791,791,791,791,791,791,791,791,791,791,791,794,794,794,794,795,795,795,795,795,795,795,795,795,795,795,795,795,795,795,795,795,795,795,795,795,795,795,795,796,797,801,806,812,818,820,825,826,827,827,827,827,828,829,832,834,834,834,834,834,834,834,833,831,827,822,819,819,819,819,818,817,817,817,817,817,817,817,817,817,817,817,817,817,817,817,817,817,817,817,817,817,817,817,817,817,817,817,817,817,817,817,817,817,817,817,817,817,815,814,811,811,811,811,811,811,811,811,810,809,809,809,809,810,811,811,811,811,811,811,811,811,811,811,811,811,811,812,812,812,812,812,812,812,812,812,812,812,812,812,812,812,812,812,812,812,812,812,812,812,812,812,812,812,812,812,812,812,812,812,812,812,812,812,812,812,812,812,812,811,811,811,811,811,811,811,811,811,811,811,811,811,811,811,811,811,811,811,811,811,811,811,811,811,811,811,811,811,811,811,811,811,811,811,811,811,811,811,811,811,811,812,812,812,812,812,812,812,812,812,813,802,787,749,700,657,636,630,626,599,571,520,518,518,518,518,508,504,504,504,504,506,507,507,507,507,507,507,507,507,507,507,508,508,508],"ymouse":[536,536,536,536,536,536,536,536,536,536,536,536,536,536,536,536,536,536,536,536,536,536,536,536,536,536,536,536,536,536,536,536,536,536,536,536,536,536,536,536,536,536,536,536,536,536,536,536,536,536,536,536,536,536,536,536,536,536,536,536,536,536,536,536,536,536,536,536,536,536,536,536,536,536,536,536,536,536,536,536,536,536,536,536,536,536,536,536,536,536,536,536,536,536,536,536,536,536,536,536,536,536,536,536,536,536,536,536,536,536,536,535,533,531,531,531,531,530,530,530,530,530,531,535,538,540,541,543,543,543,543,543,543,543,543,543,542,542,542,542,542,542,542,542,543,545,546,547,547,547,547,547,547,547,547,547,547,547,547,547,547,547,547,547,547,547,547,547,547,547,547,547,547,552,559,561,561,561,561,561,561,561,561,561,561,561,561,561,561,561,561,561,561,561,561,561,561,562,562,562,562,562,562,562,560,559,559,557,555,554,554,553,552,552,552,552,550,548,545,544,541,535,522,522,522,522,522,522,522,522,522,522,522,522,522,522,522,522,522,522,522,522,522,522,522,522,522,522,522,522,522,522,522,522,522,522,522,522,522,522,522,522,522,522,522,522,522,522,522,522,522,522,522,522,522,522,522,522,522,522,522,522,522,522,522,522,522,522,522,522,521,521,521,521,520,519,519,519,519,519,517,516,511,510,509,509,508,506,505,505,505,505,505,505,505,505,505,505,505,505,505,505,505,505,505,505,505,505,505,505,505,505,505,505,505,505,505,505,505,505,505,505,505,505,505,505,505,509,512,516,517,517,517,517,517,514,507,482,472,470,470,470,470,470,470,470,471,471,471,471,471,472,476,484,490,495,499,504,504,504,504,504,504,507,510,510,510,510,512,515,515,508,499,499,499,499,499,499,499,500,501,501,503,512,522,538,554,570,570,570,570,570,570,570,566,555,533,490,485,485,485,491,511,515,516,516,516,516,516,516,516,516,516,517,523,531,536,550,562,577,589,603,628,634,641,646,649,652,652,652,652,652,658,660,664,666,666,666,666,666,666,666,666,666,667,667,667,667,667,665,662,660,656,655,654,654,654,654,654,648,636,629,619,609,606,604,602,599,593,584,570,558,551,545,540,532,524,519,519,519,519,519,519,519,519,519,519,519,519,519,519,519,519,519,519,519,519,519,519,519,519,519,519,519,519,519,519,519,519,519,519,519,520,522,526,532,539,541,541,541,541,541,541,541,543,544,544,544,544,542,539,538,538,538,538,538,538,538,538,538,538,538,538,537,537,537,537,537,537,537,537,537,537,537,537,537,537,537,537,537,537,537,537,537,537,537,537,537,537,537,537,537,537,537,537,537,537,537,537,537,537,536,534,531,526,522,519,519,519,519,519,519,519,519,519,519,519,519,519,519,519,519,519,519,519,519,519,519,519,519,519,519,519,519,519,519,519,519,519,519,519,519,519,519,519,521,525,527,527,527,527,527,527,527,527,527,526,512,496,459,416,363,339,315,284,217,178,144,143,143,136,123,110,109,109,109,109,108,108,108,108,108,108,108,108,108,108,108,106,100,95],"timestamp_mouse":[9,35,49,70,88,108,129,149,169,190,209,230,249,270,290,310,330,348,368,390,408,430,449,470,489,508,528,550,569,590,609,628,648,669,689,708,730,749,768,789,809,830,849,868,890,910,928,950,968,989,1009,1030,1048,1068,1089,1110,1129,1148,1169,1188,1210,1230,1249,1269,1290,1309,1330,1349,1369,1388,1409,1428,1449,1470,1488,1509,1530,1549,1570,1590,1608,1630,1649,1670,1688,1710,1729,1749,1769,1789,1810,1830,1848,1869,1890,1909,1930,1949,1970,1990,2008,2029,2049,2070,2088,2108,2129,2148,2170,2189,2208,2229,2249,2268,2289,2308,2328,2349,2370,2389,2410,2428,2449,2470,2488,2508,2529,2549,2569,2589,2609,2629,2649,2669,2689,2710,2729,2749,2769,2788,2809,2829,2848,2869,2888,2909,2929,2948,2970,2989,3009,3028,3049,3068,3089,3110,3128,3149,3169,3190,3208,3229,3249,3269,3289,3308,3330,3348,3369,3390,3409,3429,3448,3469,3488,3508,3530,3549,3570,3589,3609,3628,3649,3669,3689,3709,3728,3750,3769,3789,3808,3829,3850,3869,3888,3908,3930,3949,3970,3989,4010,4028,4049,4068,4090,4109,4128,4149,4168,4189,4209,4230,4249,4270,4289,4309,4328,4349,4368,4389,4409,4429,4448,4469,4488,4508,4529,4549,4570,4589,4608,4629,4649,4670,4690,4709,4734,4749,4770,4788,4808,4828,4848,4869,4888,4910,4928,4949,4970,4989,5009,5029,5049,5068,5089,5109,5129,5148,5169,5189,5208,5229,5248,5268,5289,5308,5329,5349,5369,5389,5409,5429,5448,5469,5490,5509,5528,5549,5569,5590,5609,5629,5650,5669,5690,5708,5730,5749,5769,5789,5810,5828,5848,5869,5888,5908,5928,5949,5970,5989,6008,6029,6049,6070,6088,6109,6128,6149,6168,6189,6210,6229,6248,6268,6288,6310,6329,6348,6369,6389,6408,6429,6449,6469,6490,6510,6528,6548,6569,6588,6609,6628,6649,6668,6688,6709,6729,6749,6770,6788,6809,6829,6849,6870,6888,6908,6928,6949,6968,6990,7010,7029,7049,7068,7088,7110,7129,7149,7168,7189,7209,7228,7248,7270,7289,7309,7329,7349,7369,7388,7410,7430,7448,7468,7488,7510,7529,7549,7569,7589,7609,7629,7649,7670,7690,7708,7729,7748,7768,7788,7809,7828,7848,7869,7888,7908,7930,7949,7969,7990,8008,8030,8049,8070,8088,8109,8128,8149,8168,8188,8209,8228,8249,8269,8288,8309,8329,8349,8369,8389,8408,8429,8448,8468,8490,8508,8530,8549,8570,8589,8608,8629,8649,8669,8688,8709,8729,8748,8768,8789,8809,8829,8848,8869,8888,8909,8930,8949,8968,8989,9009,9030,9048,9068,9088,9110,9129,9149,9170,9189,9208,9230,9249,9270,9288,9309,9330,9349,9369,9390,9408,9430,9449,9468,9488,9509,9530,9549,9568,9588,9609,9629,9648,9670,9688,9709,9728,9748,9768,9789,9808,9830,9848,9869,9888,9909,9929,9949,9968,9989,10009,10029,10049,10069,10089,10110,10128,10148,10168,10189,10209,10230,10249,10268,10289,10310,10329,10348,10369,10390,10408,10429,10449,10469,10490,10509,10528,10550,10570,10590,10609,10630,10649,10669,10688,10709,10730,10749,10769,10789,10809,10829,10849,10869,10888,10909,10930,10949,10969,10989,11008,11029,11049,11069,11089,11108,11129,11149,11169,11189,11210,11229,11248,11270,11290,11308,11329,11349,11370,11389,11409,11430,11449,11470,11489,11510,11528,11549,11570,11589,11609,11630,11649,11668,11688,11709,11728,11749,11769,11790,11808,11828,11849,11869,11890,11909,11930,11949,11969,11988,12009,12029,12049,12069,12088,12109,12129,12149,12170,12190,12208,12230,12248,12268,12289,12310,12328,12350,12370,12388,12409,12429,12449,12469,12490,12510,12530,12548,12569,12589,12609,12629,12649,12669,12689,12710,12730,12749,12768,12788,12808,12830,12849,12870,12888,12910,12929,12949,12968,12989,13010,13029,13049,13069,13090,13108,13129,13149,13170,13189,13209,13230,13248,13270,13288,13310,13329,13348,13368,13389,13409,13429,13448,13468,13489,13510,13528,13549,13570,13589,13608,13629,13649,13670,13689,13708,13729,13749,13769,13788,13808],"xSR":741.5,"ySR":469.95,"xT1":424.9,"yT1":0,"xT2":1058.1,"yT2":0,"toosoon":0,"cond_shown":"Incongruent","ratio_trial":200,"L_num":6,"L_den":20,"R_num":3,"R_den":6,"correct_side":2,"subjID":"JUANSEBASTIANBELTRANGONZALEZ38","gender":"12","school":"COLEGIOCAFAM","age":"12"},{"start_time":1551800862998,"click_time":1551800863639,"finger_time":1551800863519,"fix_duration":479.76095944947673,"trial":34,"RT":521,"MT":120,"sideResp":2,"stimulus":[],"xmouse":[784,784,784,785,786,786,786,786,786,786,786,786,786,786,786,786,786,786,786,786,786,786,786,794,808,825,839,885,934,983,1036,1074],"ymouse":[521,521,514,513,512,512,512,512,512,512,512,512,512,512,512,512,512,512,512,512,512,512,512,500,470,405,334,214,151,99,56,29],"timestamp_mouse":[19,40,59,81,100,120,141,160,180,200,220,239,259,281,299,319,341,360,379,400,419,440,459,481,499,521,540,560,580,599,620,641],"xSR":741.5,"ySR":469.95,"xT1":424.9,"yT1":0,"xT2":1058.1,"yT2":0,"toosoon":0,"cond_shown":"Congruent","ratio_trial":300,"L_num":1,"L_den":3,"R_num":19,"R_den":30,"correct_side":2,"subjID":"JUANSEBASTIANBELTRANGONZALEZ38","gender":"12","school":"COLEGIOCAFAM","age":"12"},{"start_time":1551800869189,"click_time":1551800869798,"finger_time":1551800869498,"fix_duration":1290.585717138021,"trial":35,"RT":309,"MT":300,"sideResp":1,"stimulus":[],"xmouse":[779,779,779,779,779,779,779,779,779,778,776,770,764,758,750,738,727,708,652,622,605,595,591,582,566,545,513,474,440,440,451],"ymouse":[479,479,479,479,479,479,479,479,479,479,480,481,481,481,474,443,404,361,265,228,205,189,182,172,164,156,147,134,114,103,84],"timestamp_mouse":[22,34,49,68,89,109,128,149,168,189,209,228,248,269,289,309,329,349,369,389,409,429,448,468,488,509,529,548,569,588,609],"xSR":741.5,"ySR":469.95,"xT1":424.9,"yT1":0,"xT2":1058.1,"yT2":0,"toosoon":0,"cond_shown":"Congruent","ratio_trial":100,"L_num":4,"L_den":8,"R_num":6,"R_den":10,"correct_side":2,"subjID":"JUANSEBASTIANBELTRANGONZALEZ38","gender":"12","school":"COLEGIOCAFAM","age":"12"},{"start_time":1551800872814,"click_time":1551800873638,"finger_time":1551800873218,"fix_duration":375.1269381039218,"trial":36,"RT":404,"MT":420,"sideResp":2,"stimulus":[],"xmouse":[782,782,782,782,782,782,782,782,782,782,782,782,782,782,782,782,782,788,800,812,833,859,893,903,904,904,905,919,930,947,966,989,1011,1011,1011,1011,1012,1031,1042,1051,1058,1062],"ymouse":[492,493,494,494,494,494,494,494,494,494,494,494,494,494,494,494,494,493,487,478,460,434,385,351,333,320,306,276,263,240,214,189,164,163,163,163,160,132,117,102,92,82],"timestamp_mouse":[3,30,44,63,83,103,123,144,165,184,205,224,244,264,283,304,324,344,364,384,404,424,443,464,484,505,524,543,564,584,604,624,643,663,684,703,723,744,764,784,804,824],"xSR":741.5,"ySR":469.95,"xT1":424.9,"yT1":0,"xT2":1058.1,"yT2":0,"toosoon":0,"cond_shown":"Congruent","ratio_trial":100,"L_num":3,"L_den":20,"R_num":4,"R_den":16,"correct_side":2,"subjID":"JUANSEBASTIANBELTRANGONZALEZ38","gender":"12","school":"COLEGIOCAFAM","age":"12"},{"start_time":1551800884513,"click_time":1551800885479,"finger_time":1551800884958,"fix_duration":334.3134305588539,"trial":37,"RT":445,"MT":521,"sideResp":2,"stimulus":[],"xmouse":[801,801,804,804,804,804,804,804,804,804,804,804,804,804,804,804,804,804,804,804,804,809,849,954,1041,1062,1065,1048,1042,1042,1041,1038,1020,1006,997,994,994,996,1010,1022,1029,1034,1040,1041,1042,1042,1042,1047,1059],"ymouse":[534,534,536,536,536,536,536,536,536,536,536,536,536,536,536,536,536,536,536,536,536,538,538,509,483,463,451,392,379,379,378,374,314,260,227,216,213,205,174,146,126,116,104,100,95,95,95,90,77],"timestamp_mouse":[8,25,44,64,86,105,124,145,164,184,206,225,244,266,284,304,324,344,366,384,405,425,445,464,484,505,525,544,566,585,605,625,645,665,685,705,725,744,765,784,805,825,844,866,885,906,925,945,966],"xSR":741.5,"ySR":469.95,"xT1":424.9,"yT1":0,"xT2":1058.1,"yT2":0,"toosoon":0,"cond_shown":"Congruent","ratio_trial":100,"L_num":2,"L_den":5,"R_num":6,"R_den":12,"correct_side":2,"subjID":"JUANSEBASTIANBELTRANGONZALEZ38","gender":"12","school":"COLEGIOCAFAM","age":"12"},{"start_time":1551800907857,"click_time":1551800908658,"finger_time":1551800908358,"fix_duration":897.1894903263604,"trial":38,"RT":501,"MT":300,"sideResp":1,"stimulus":[],"xmouse":[809,809,809,809,809,809,809,809,809,809,809,809,809,809,809,809,809,809,809,809,809,809,803,790,759,666,606,547,487,446,419,419,420,420,420,420,420,420,420,422,449],"ymouse":[558,558,558,558,558,558,558,555,555,554,552,552,552,552,552,552,552,552,552,552,552,549,541,525,498,401,333,261,184,119,74,72,68,66,64,62,62,62,62,61,61],"timestamp_mouse":[9,31,40,62,81,100,121,142,162,181,201,221,241,261,281,301,320,342,361,381,401,421,440,461,481,501,522,541,561,581,601,621,640,662,681,702,721,741,760,780,800],"xSR":741.5,"ySR":469.95,"xT1":424.9,"yT1":0,"xT2":1058.1,"yT2":0,"toosoon":0,"cond_shown":"Incongruent","ratio_trial":100,"L_num":13,"L_den":26,"R_num":12,"R_den":20,"correct_side":2,"subjID":"JUANSEBASTIANBELTRANGONZALEZ38","gender":"12","school":"COLEGIOCAFAM","age":"12"},{"start_time":1551800910571,"click_time":1551800911559,"finger_time":1551800910918,"fix_duration":713.8663191334052,"trial":39,"RT":347,"MT":641,"sideResp":2,"stimulus":[],"xmouse":[788,788,788,788,788,788,788,788,788,788,788,788,788,788,788,788,786,778,772,776,791,820,857,883,897,898,898,899,900,904,905,921,967,1036,1171,1203,1206,1206,1206,1205,1201,1192,1181,1173,1158,1130,1112,1103,1103,1103],"ymouse":[522,522,522,522,522,522,522,522,522,522,522,522,522,522,522,517,496,468,440,400,380,349,306,263,225,219,215,214,212,205,202,186,166,152,130,120,118,116,113,110,110,107,105,105,104,104,104,103,102,93],"timestamp_mouse":[9,37,47,67,87,106,127,148,166,187,208,226,247,267,287,307,327,347,367,388,406,427,447,468,486,507,526,547,566,587,606,627,647,668,686,707,727,746,767,787,806,827,847,868,886,907,926,946,967,988],"xSR":741.5,"ySR":469.95,"xT1":424.9,"yT1":0,"xT2":1058.1,"yT2":0,"toosoon":0,"cond_shown":"Incongruent","ratio_trial":100,"L_num":3,"L_den":6,"R_num":4,"R_den":10,"correct_side":1,"subjID":"JUANSEBASTIANBELTRANGONZALEZ38","gender":"12","school":"COLEGIOCAFAM","age":"12"},{"start_time":1551800914475,"click_time":1551800915078,"finger_time":1551800914918,"fix_duration":1416.6215777335792,"trial":40,"RT":443,"MT":160,"sideResp":1,"stimulus":[],"xmouse":[776,776,776,776,776,776,776,776,776,776,776,776,776,776,776,776,776,776,776,776,773,758,743,730,675,642,617,597,578,534,490],"ymouse":[528,528,528,528,528,528,528,528,528,528,528,528,528,528,528,528,528,528,528,528,525,493,456,414,258,182,128,96,71,31,9],"timestamp_mouse":[9,33,43,63,84,103,122,142,162,183,203,222,244,263,283,303,322,343,363,383,403,422,443,463,482,503,523,543,563,583,602],"xSR":741.5,"ySR":469.95,"xT1":424.9,"yT1":0,"xT2":1058.1,"yT2":0,"toosoon":0,"cond_shown":"Congruent","ratio_trial":300,"L_num":20,"L_den":25,"R_num":9,"R_den":18,"correct_side":1,"subjID":"JUANSEBASTIANBELTRANGONZALEZ38","gender":"12","school":"COLEGIOCAFAM","age":"12"},{"start_time":1551800921517,"click_time":1551800922318,"finger_time":1551800921858,"fix_duration":436.04651145732686,"trial":41,"RT":341,"MT":460,"sideResp":1,"stimulus":[],"xmouse":[779,779,779,779,779,779,779,779,779,779,779,779,779,779,779,779,777,742,689,625,576,559,556,556,556,556,557,557,557,555,555,555,555,555,555,554,545,529,525,524,522],"ymouse":[514,514,514,514,514,514,514,514,514,514,514,514,514,514,514,511,504,426,350,275,229,216,213,212,212,212,210,204,197,191,189,188,184,179,169,155,142,111,106,103,99],"timestamp_mouse":[8,21,40,60,81,101,121,140,161,180,200,220,240,261,281,301,321,341,360,381,401,421,442,461,480,500,521,540,562,581,600,620,640,661,681,700,720,741,760,781,801],"xSR":741.5,"ySR":469.95,"xT1":424.9,"yT1":0,"xT2":1058.1,"yT2":0,"toosoon":0,"cond_shown":"Congruent","ratio_trial":200,"L_num":21,"L_den":30,"R_num":2,"R_den":4,"correct_side":1,"subjID":"JUANSEBASTIANBELTRANGONZALEZ38","gender":"12","school":"COLEGIOCAFAM","age":"12"},{"start_time":1551800936260,"click_time":1551800937416,"finger_time":1551800937056,"fix_duration":722.3821955880949,"trial":42,"RT":796,"MT":360,"sideResp":2,"stimulus":[],"xmouse":[834,834,834,834,834,835,835,835,835,835,835,835,835,835,835,835,835,835,835,835,835,835,835,835,835,835,835,835,835,835,835,835,835,835,835,835,835,835,837,844,847,849,852,855,863,863,863,865,874,900,937,967,991,1003,1013,1025,1054,1117],"ymouse":[472,472,472,472,472,473,473,473,473,473,473,473,473,473,473,473,473,473,473,473,473,473,473,473,473,473,473,473,473,473,473,473,473,473,473,473,473,473,473,461,454,447,439,428,382,353,325,298,265,196,134,113,104,102,100,95,88,80],"timestamp_mouse":[17,36,57,77,96,116,137,156,178,196,216,236,258,276,296,317,338,356,376,397,417,437,457,476,497,516,536,558,576,596,618,636,658,676,696,718,736,758,777,796,818,837,857,877,897,917,936,956,976,996,1016,1037,1058,1076,1097,1117,1137,1156],"xSR":741.5,"ySR":469.95,"xT1":424.9,"yT1":0,"xT2":1058.1,"yT2":0,"toosoon":0,"cond_shown":"Congruent","ratio_trial":200,"L_num":7,"L_den":15,"R_num":18,"R_den":27,"correct_side":2,"subjID":"JUANSEBASTIANBELTRANGONZALEZ38","gender":"12","school":"COLEGIOCAFAM","age":"12"},{"start_time":1551800939765,"click_time":1551800940157,"finger_time":1551800939937,"fix_duration":707.1531112872412,"trial":43,"RT":172,"MT":220,"sideResp":2,"stimulus":[],"xmouse":[812,812,812,812,812,812,813,826,858,1017,1116,1173,1182,1182,1182,1182,1182,1182,1182,1154],"ymouse":[546,546,546,546,546,546,546,537,508,314,174,87,71,71,71,71,71,71,70,28],"timestamp_mouse":[11,41,51,73,93,113,131,152,172,191,213,232,251,272,291,311,331,353,372,391],"xSR":741.5,"ySR":469.95,"xT1":424.9,"yT1":0,"xT2":1058.1,"yT2":0,"toosoon":0,"cond_shown":"Congruent","ratio_trial":100,"L_num":9,"L_den":15,"R_num":8,"R_den":16,"correct_side":1,"subjID":"JUANSEBASTIANBELTRANGONZALEZ38","gender":"12","school":"COLEGIOCAFAM","age":"12"},{"start_time":1551800942307,"click_time":1551800942977,"finger_time":1551800942597,"fix_duration":669.9851353734305,"trial":44,"RT":290,"MT":380,"sideResp":1,"stimulus":[],"xmouse":[795,795,795,795,795,795,795,795,795,796,796,796,793,776,752,731,719,711,679,662,651,644,631,593,581,572,571,571,568,559,548,541,535,520],"ymouse":[509,509,509,509,508,505,501,499,499,498,498,498,495,479,438,394,368,354,306,274,256,244,223,177,163,152,151,151,144,132,117,108,101,83],"timestamp_mouse":[9,44,51,71,89,110,131,149,169,190,210,231,249,269,290,310,329,349,370,390,411,430,449,470,489,510,530,550,571,590,609,630,649,670],"xSR":741.5,"ySR":469.95,"xT1":424.9,"yT1":0,"xT2":1058.1,"yT2":0,"toosoon":0,"cond_shown":"Congruent","ratio_trial":200,"L_num":16,"L_den":30,"R_num":9,"R_den":27,"correct_side":1,"subjID":"JUANSEBASTIANBELTRANGONZALEZ38","gender":"12","school":"COLEGIOCAFAM","age":"12"},{"start_time":1551800944640,"click_time":1551800945477,"finger_time":1551800944957,"fix_duration":342.304084877337,"trial":45,"RT":317,"MT":520,"sideResp":2,"stimulus":[],"xmouse":[792,792,792,792,791,791,790,789,788,785,781,775,773,773,773,820,861,891,915,933,1023,1102,1119,1119,1119,1119,1110,1057,1029,988,972,973,980,986,988,989,989,989,990,1001,1039,1083],"ymouse":[514,514,514,514,506,506,507,507,508,508,508,494,490,489,487,449,403,345,288,231,168,135,130,130,130,130,123,102,94,81,68,66,63,60,58,56,56,56,55,55,55,57],"timestamp_mouse":[16,36,57,77,97,117,136,156,177,197,216,238,258,276,297,317,337,356,376,398,416,436,456,476,497,517,536,557,576,598,617,637,657,676,698,717,736,757,777,797,817,836],"xSR":741.5,"ySR":469.95,"xT1":424.9,"yT1":0,"xT2":1058.1,"yT2":0,"toosoon":0,"cond_shown":"Incongruent","ratio_trial":100,"L_num":3,"L_den":9,"R_num":7,"R_den":30,"correct_side":1,"subjID":"JUANSEBASTIANBELTRANGONZALEZ38","gender":"12","school":"COLEGIOCAFAM","age":"12"},{"start_time":1551800946834,"click_time":1551800947536,"finger_time":1551800947197,"fix_duration":315.6780287338464,"trial":46,"RT":363,"MT":339,"sideResp":2,"stimulus":[],"xmouse":[800,800,800,800,800,800,801,802,804,804,804,804,804,805,810,810,810,810,916,916,921,940,963,963,963,963,963,963,963,991,1004,1035,1041,1044,1053,1067],"ymouse":[508,508,508,508,508,508,501,498,489,487,487,487,487,486,480,480,480,480,111,98,84,80,80,80,80,80,80,80,80,74,74,80,80,79,75,71],"timestamp_mouse":[11,37,42,62,84,103,124,143,162,183,202,222,244,263,283,303,323,342,363,382,402,422,442,463,483,504,524,543,563,583,603,623,642,663,682,702],"xSR":741.5,"ySR":469.95,"xT1":424.9,"yT1":0,"xT2":1058.1,"yT2":0,"toosoon":0,"cond_shown":"Incongruent","ratio_trial":100,"L_num":6,"L_den":10,"R_num":11,"R_den":22,"correct_side":1,"subjID":"JUANSEBASTIANBELTRANGONZALEZ38","gender":"12","school":"COLEGIOCAFAM","age":"12"},{"start_time":1551800950455,"click_time":1551800951056,"finger_time":1551800950577,"fix_duration":317.5068623744327,"trial":47,"RT":122,"MT":479,"sideResp":2,"stimulus":[],"xmouse":[789,790,790,792,799,831,853,876,907,934,940,940,940,940,943,946,952,960,971,987,997,997,997,999,1012,1026,1041,1051,1053,1053,1076],"ymouse":[534,534,534,534,532,514,498,473,431,371,311,311,311,311,307,243,195,155,131,116,109,109,109,108,92,86,83,83,84,84,68],"timestamp_mouse":[15,35,42,62,82,102,122,141,162,181,201,222,242,262,281,302,321,341,362,382,401,421,442,463,482,501,521,542,563,582,601],"xSR":741.5,"ySR":469.95,"xT1":424.9,"yT1":0,"xT2":1058.1,"yT2":0,"toosoon":0,"cond_shown":"Incongruent","ratio_trial":200,"L_num":4,"L_den":6,"R_num":14,"R_den":30,"correct_side":1,"subjID":"JUANSEBASTIANBELTRANGONZALEZ38","gender":"12","school":"COLEGIOCAFAM","age":"12"},{"start_time":1551800952208,"click_time":1551800952917,"finger_time":1551800952677,"fix_duration":250,"trial":48,"RT":469,"MT":240,"sideResp":2,"stimulus":[],"xmouse":[810,810,817,824,824,824,824,824,824,824,824,824,824,824,824,824,824,825,826,828,828,828,838,853,876,909,946,1009,1028,1044,1053,1058,1068,1086,1104,1113],"ymouse":[483,483,483,478,477,477,477,477,479,480,480,480,480,479,474,473,473,481,486,488,488,489,488,481,467,445,414,304,241,187,160,151,139,125,105,84],"timestamp_mouse":[9,28,48,69,90,109,129,149,168,189,208,229,248,270,288,308,329,349,369,389,408,428,448,469,490,508,529,549,569,589,609,628,648,668,688,709],"xSR":741.5,"ySR":469.95,"xT1":424.9,"yT1":0,"xT2":1058.1,"yT2":0,"toosoon":0,"cond_shown":"Incongruent","ratio_trial":300,"L_num":4,"L_den":20,"R_num":2,"R_den":4,"correct_side":2,"subjID":"JUANSEBASTIANBELTRANGONZALEZ38","gender":"12","school":"COLEGIOCAFAM","age":"12"},{"start_time":1551800956253,"click_time":1551800957456,"finger_time":1551800956857,"fix_duration":316.5088067214885,"trial":49,"RT":604,"MT":599,"sideResp":2,"stimulus":[],"xmouse":[778,778,778,778,778,778,778,778,778,778,778,778,778,778,778,778,778,778,778,778,778,778,779,782,783,792,797,806,820,837,855,855,855,855,855,855,856,856,856,856,857,859,861,864,873,920,954,982,1001,1012,1018,1019,1019,1019,1019,1021,1021,1021,1021,1040,1060],"ymouse":[513,513,513,513,513,513,513,513,513,513,513,513,513,513,513,513,513,513,513,513,513,513,513,515,515,515,515,514,507,499,490,490,490,490,490,490,490,490,490,490,483,475,468,455,436,339,260,191,143,113,93,91,91,90,90,86,86,86,86,71,59],"timestamp_mouse":[8,26,43,63,84,103,125,143,164,185,204,223,245,264,284,304,324,343,365,383,404,424,445,464,484,503,523,543,563,584,604,625,644,663,684,703,723,745,765,785,803,824,844,863,883,903,923,943,963,985,1005,1025,1043,1064,1085,1104,1124,1144,1163,1184,1203],"xSR":741.5,"ySR":469.95,"xT1":424.9,"yT1":0,"xT2":1058.1,"yT2":0,"toosoon":0,"cond_shown":"Congruent","ratio_trial":100,"L_num":11,"L_den":22,"R_num":4,"R_den":10,"correct_side":1,"subjID":"JUANSEBASTIANBELTRANGONZALEZ38","gender":"12","school":"COLEGIOCAFAM","age":"12"},{"start_time":1551800959201,"click_time":1551800960118,"finger_time":1551800959718,"fix_duration":643.9232712377848,"trial":50,"RT":517,"MT":400,"sideResp":1,"stimulus":[],"xmouse":[795,795,795,794,791,790,789,789,789,789,785,784,779,778,777,777,773,767,767,767,767,767,767,766,763,752,726,609,559,538,536,535,533,533,533,533,533,533,533,533,533,533,533,533,530,511],"ymouse":[523,523,523,522,522,522,522,522,522,522,519,516,507,502,500,497,492,481,480,480,480,480,480,479,473,459,425,271,193,133,121,102,78,70,68,68,68,68,68,68,68,68,68,68,64,47],"timestamp_mouse":[17,37,56,76,96,116,135,155,175,197,215,235,256,276,296,316,335,356,376,397,416,436,456,477,495,517,536,556,577,596,616,637,655,676,695,716,737,756,776,795,816,836,856,876,896,917],"xSR":741.5,"ySR":469.95,"xT1":424.9,"yT1":0,"xT2":1058.1,"yT2":0,"toosoon":0,"cond_shown":"Incongruent","ratio_trial":100,"L_num":10,"L_den":25,"R_num":8,"R_den":16,"correct_side":2,"subjID":"JUANSEBASTIANBELTRANGONZALEZ38","gender":"12","school":"COLEGIOCAFAM","age":"12"},{"start_time":1551800963508,"click_time":1551800964216,"finger_time":1551800963837,"fix_duration":250,"trial":51,"RT":329,"MT":379,"sideResp":1,"stimulus":[],"xmouse":[772,774,776,776,776,777,777,777,777,777,777,777,777,776,773,764,745,653,584,563,558,565,591,601,606,606,598,567,564,564,564,564,564,561,540,524],"ymouse":[492,492,492,492,492,492,492,491,491,491,491,491,491,489,486,475,455,348,250,211,188,166,128,110,93,77,60,34,32,32,32,32,32,32,39,41],"timestamp_mouse":[11,41,48,68,89,109,129,148,168,189,208,228,249,269,289,308,329,349,369,388,408,429,449,468,488,508,529,549,570,590,608,629,648,668,688,708],"xSR":741.5,"ySR":469.95,"xT1":424.9,"yT1":0,"xT2":1058.1,"yT2":0,"toosoon":0,"cond_shown":"Congruent","ratio_trial":100,"L_num":11,"L_den":22,"R_num":6,"R_den":15,"correct_side":1,"subjID":"JUANSEBASTIANBELTRANGONZALEZ38","gender":"12","school":"COLEGIOCAFAM","age":"12"},{"start_time":1551800974563,"click_time":1551800976056,"finger_time":1551800975477,"fix_duration":683.2262096867613,"trial":52,"RT":914,"MT":579,"sideResp":2,"stimulus":[],"xmouse":[770,770,770,770,770,770,770,770,770,770,770,770,771,772,772,772,772,772,772,772,772,772,772,772,772,772,772,772,772,772,772,772,772,772,772,772,772,772,772,772,772,772,774,779,788,816,832,847,859,878,892,910,938,972,1021,1044,1051,1052,1054,1057,1057,1057,1057,1057,1057,1057,1057,1057,1057,1058,1059,1060,1063,1069,1089],"ymouse":[560,560,560,560,560,560,560,560,560,560,560,560,560,560,561,561,561,561,561,561,561,561,561,561,561,561,561,561,561,561,561,561,561,561,561,561,561,561,561,561,561,561,561,557,540,413,378,356,337,298,279,259,234,211,183,170,166,161,155,146,146,146,146,146,146,145,144,142,138,128,124,121,116,109,97],"timestamp_mouse":[16,40,55,74,95,113,133,154,174,193,215,233,254,275,294,314,334,355,374,393,414,433,455,473,494,513,534,554,573,593,613,634,654,673,694,714,734,753,774,794,813,833,854,874,893,913,934,954,973,994,1013,1033,1053,1073,1093,1114,1134,1153,1175,1194,1214,1235,1255,1274,1293,1313,1334,1353,1374,1394,1414,1433,1454,1475,1493],"xSR":741.5,"ySR":469.95,"xT1":424.9,"yT1":0,"xT2":1058.1,"yT2":0,"toosoon":0,"cond_shown":"Congruent","ratio_trial":100,"L_num":6,"L_den":12,"R_num":15,"R_den":25,"correct_side":2,"subjID":"JUANSEBASTIANBELTRANGONZALEZ38","gender":"12","school":"COLEGIOCAFAM","age":"12"},{"start_time":1551800979996,"click_time":1551800983656,"finger_time":1551800981657,"fix_duration":718.3278507384796,"trial":53,"RT":1661,"MT":1999,"sideResp":2,"stimulus":[],"xmouse":[776,776,776,776,776,776,776,776,776,776,776,776,776,777,778,778,778,778,778,778,778,778,778,778,778,778,778,778,778,778,778,778,778,778,778,778,778,778,778,778,778,778,778,778,778,778,778,778,778,778,778,778,778,778,778,778,778,778,778,778,778,778,778,778,778,778,778,778,778,778,778,778,778,778,778,778,778,778,778,782,790,813,839,868,869,869,869,869,869,869,869,869,869,869,869,869,869,869,869,869,869,869,869,869,869,869,869,869,869,869,869,869,869,869,869,869,869,869,869,869,869,869,869,869,869,869,869,869,869,869,873,878,882,882,882,882,882,882,882,882,883,884,884,885,885,882,881,881,898,911,920,926,930,935,937,938,941,947,951,951,951,951,951,951,951,951,951,954,964,968,976,979,979,979,992,1005,1024,1046,1082,1086,1086,1086,1089,1105],"ymouse":[511,511,511,511,511,511,511,511,511,511,511,511,511,511,511,511,511,511,511,511,511,511,511,511,511,511,511,511,511,511,511,511,511,511,511,511,511,511,511,511,511,511,511,511,511,511,511,511,511,511,511,511,511,511,511,511,511,511,511,511,511,511,511,511,511,511,511,511,511,511,511,511,511,511,511,511,511,511,511,511,511,518,525,531,531,531,531,531,531,531,531,531,531,531,531,531,531,531,531,531,531,531,531,531,531,531,531,531,531,531,531,531,531,531,531,531,531,531,531,531,531,531,531,531,531,531,531,531,531,531,531,531,531,531,531,531,531,531,531,531,532,528,523,517,512,504,495,476,406,360,331,317,310,299,295,293,289,284,282,282,282,282,282,282,283,283,284,269,200,176,158,151,151,151,139,132,123,114,103,101,101,101,100,90],"timestamp_mouse":[8,22,42,61,81,100,122,140,162,180,201,220,240,261,280,302,320,340,361,380,401,422,441,461,480,500,521,540,561,580,601,620,641,661,681,701,720,741,761,781,801,820,841,860,880,900,921,941,961,980,1001,1022,1042,1061,1080,1100,1122,1140,1161,1180,1200,1221,1240,1260,1281,1302,1320,1341,1361,1381,1400,1421,1442,1461,1481,1500,1522,1540,1561,1580,1600,1620,1640,1661,1681,1700,1721,1741,1761,1782,1800,1821,1842,1860,1881,1900,1921,1940,1961,1981,2002,2021,2040,2061,2081,2100,2121,2141,2160,2181,2201,2222,2241,2260,2282,2301,2321,2341,2360,2381,2400,2421,2441,2461,2480,2500,2522,2542,2561,2581,2601,2620,2642,2661,2680,2700,2720,2741,2761,2782,2801,2820,2840,2860,2881,2901,2920,2941,2960,2981,3000,3020,3041,3060,3081,3101,3120,3140,3161,3182,3201,3221,3240,3261,3280,3301,3321,3341,3360,3381,3400,3421,3440,3460,3481,3501,3521,3541,3560,3580,3601,3620,3641,3660],"xSR":741.5,"ySR":469.95,"xT1":424.9,"yT1":0,"xT2":1058.1,"yT2":0,"toosoon":0,"cond_shown":"Incongruent","ratio_trial":300,"L_num":4,"L_den":20,"R_num":2,"R_den":4,"correct_side":2,"subjID":"JUANSEBASTIANBELTRANGONZALEZ38","gender":"12","school":"COLEGIOCAFAM","age":"12"},{"start_time":1551800995203,"click_time":1551800996356,"finger_time":1551800995856,"fix_duration":984.4427799646988,"trial":54,"RT":653,"MT":500,"sideResp":1,"stimulus":[],"xmouse":[762,762,762,762,762,762,762,762,762,762,762,762,762,762,762,762,762,762,762,762,762,762,762,762,762,762,762,766,765,763,760,759,747,708,679,656,643,637,629,612,586,568,551,550,548,547,543,540,540,540,540,539,537,537,537,534,525,514],"ymouse":[495,495,495,495,495,495,495,495,495,495,495,495,495,495,495,495,495,495,495,495,495,495,495,495,495,495,495,498,498,498,498,491,406,275,208,179,165,160,155,142,128,119,110,109,108,107,106,105,105,105,105,104,102,102,102,97,86,72],"timestamp_mouse":[14,33,53,73,93,115,133,154,174,193,214,234,253,274,295,314,334,353,373,394,415,435,454,475,494,514,535,553,573,595,614,634,653,675,694,713,733,753,773,793,813,834,853,875,894,914,933,953,974,993,1014,1034,1054,1074,1095,1115,1135,1153],"xSR":741.5,"ySR":469.95,"xT1":424.9,"yT1":0,"xT2":1058.1,"yT2":0,"toosoon":0,"cond_shown":"Congruent","ratio_trial":200,"L_num":4,"L_den":10,"R_num":3,"R_den":15,"correct_side":1,"subjID":"JUANSEBASTIANBELTRANGONZALEZ38","gender":"12","school":"COLEGIOCAFAM","age":"12"},{"start_time":1551800998669,"click_time":1551800999436,"finger_time":1551800999077,"fix_duration":250,"trial":55,"RT":408,"MT":359,"sideResp":2,"stimulus":[],"xmouse":[793,793,793,793,793,793,793,793,793,793,793,793,793,793,794,794,795,798,800,812,843,884,915,931,944,950,958,971,985,1011,1025,1031,1034,1035,1035,1035,1038,1050,1067],"ymouse":[523,523,523,523,523,523,523,523,523,523,523,523,523,523,523,523,523,522,521,513,491,464,441,427,408,396,368,317,263,177,137,117,104,90,75,71,67,63,54],"timestamp_mouse":[8,36,47,69,88,107,128,148,169,188,208,227,247,267,287,308,329,347,368,387,408,428,448,467,488,508,528,547,569,587,607,628,648,667,687,707,727,748,767],"xSR":741.5,"ySR":469.95,"xT1":424.9,"yT1":0,"xT2":1058.1,"yT2":0,"toosoon":0,"cond_shown":"Congruent","ratio_trial":100,"L_num":8,"L_den":16,"R_num":2,"R_den":5,"correct_side":1,"subjID":"JUANSEBASTIANBELTRANGONZALEZ38","gender":"12","school":"COLEGIOCAFAM","age":"12"},{"start_time":1551801008468,"click_time":1551801008776,"finger_time":1551801008676,"fix_duration":809.0569644196258,"trial":56,"RT":208,"MT":100,"sideResp":2,"stimulus":[],"xmouse":[820,820,820,820,820,820,820,820,821,824,839,865,906,941,1026,1083],"ymouse":[510,510,510,514,517,517,517,516,510,484,438,376,299,223,101,43],"timestamp_mouse":[11,35,48,68,89,109,130,148,169,188,208,229,250,268,288,308],"xSR":741.5,"ySR":469.95,"xT1":424.9,"yT1":0,"xT2":1058.1,"yT2":0,"toosoon":0,"cond_shown":"Incongruent","ratio_trial":200,"L_num":14,"L_den":30,"R_num":12,"R_den":18,"correct_side":2,"subjID":"JUANSEBASTIANBELTRANGONZALEZ38","gender":"12","school":"COLEGIOCAFAM","age":"12"},{"start_time":1551801013469,"click_time":1551801014057,"finger_time":1551801013818,"fix_duration":250.67901303733464,"trial":57,"RT":349,"MT":239,"sideResp":2,"stimulus":[],"xmouse":[800,800,800,802,811,817,817,817,817,811,810,809,809,809,809,809,807,799,787,774,791,825,857,857,857,857,857,857,857,1149],"ymouse":[474,471,471,473,494,503,504,504,504,508,510,514,514,514,514,498,470,436,387,253,127,48,6,6,6,6,6,6,6,3],"timestamp_mouse":[12,39,47,67,87,107,128,148,168,187,207,228,247,268,287,307,327,349,368,387,408,428,447,467,487,507,527,549,569,587],"xSR":741.5,"ySR":469.95,"xT1":424.9,"yT1":0,"xT2":1058.1,"yT2":0,"toosoon":0,"cond_shown":"Incongruent","ratio_trial":300,"L_num":4,"L_den":5,"R_num":6,"R_den":12,"correct_side":1,"subjID":"JUANSEBASTIANBELTRANGONZALEZ38","gender":"12","school":"COLEGIOCAFAM","age":"12"},{"start_time":1551801022216,"click_time":1551801025557,"finger_time":1551801023838,"fix_duration":1397.621608258109,"trial":58,"RT":1622,"MT":1719,"sideResp":1,"stimulus":[],"xmouse":[788,788,788,788,788,788,788,788,788,788,788,788,788,788,788,788,788,788,788,788,788,788,788,788,788,788,788,788,788,788,788,788,788,788,788,788,788,788,788,788,788,788,788,788,788,788,789,789,789,790,794,796,800,804,807,807,807,807,807,805,803,799,793,793,793,793,793,793,793,794,795,796,801,802,802,802,802,802,802,800,793,787,782,781,781,784,787,803,815,825,833,834,833,832,833,835,838,843,845,846,847,847,847,847,847,847,847,847,847,847,847,847,845,836,831,823,813,792,789,786,782,778,766,756,750,746,742,739,739,739,738,737,734,730,725,717,708,687,676,673,673,673,662,624,595,571,554,542,541,540,540,540,540,540,541,544,550,556,556,556,557,557,557,554,543,536,524,500],"ymouse":[481,481,481,481,481,481,481,481,481,481,481,481,481,481,481,481,481,481,481,481,481,481,481,481,481,481,481,481,481,481,481,481,481,481,481,481,481,481,481,481,481,481,481,481,481,481,481,487,496,504,511,514,524,530,536,539,541,543,543,542,541,536,528,527,526,526,526,526,524,522,521,519,509,504,502,502,502,502,500,494,481,469,453,447,441,431,422,406,398,391,384,382,375,370,368,363,358,350,348,347,346,346,346,346,346,346,346,346,346,346,346,346,345,344,344,344,345,349,349,349,349,349,348,347,347,347,347,347,347,347,346,345,319,291,273,253,236,215,209,208,208,208,208,208,208,207,205,199,199,199,199,199,199,199,199,199,200,200,200,200,199,199,185,171,146,134,121,92],"timestamp_mouse":[8,20,47,60,82,100,121,140,161,180,202,221,240,261,281,301,322,342,362,381,401,420,442,461,481,501,521,540,560,581,601,621,640,660,681,702,720,740,762,780,801,822,840,861,880,902,920,940,960,980,1001,1022,1040,1060,1080,1101,1120,1140,1161,1185,1200,1221,1240,1261,1282,1301,1321,1341,1361,1381,1400,1422,1440,1461,1480,1502,1520,1541,1561,1580,1600,1622,1640,1660,1680,1700,1721,1741,1760,1780,1800,1822,1840,1861,1880,1900,1920,1940,1961,1980,2001,2021,2040,2061,2081,2102,2120,2141,2162,2181,2200,2220,2240,2260,2281,2301,2320,2341,2360,2381,2402,2420,2440,2461,2480,2501,2520,2541,2561,2580,2600,2621,2640,2660,2681,2700,2720,2741,2760,2781,2802,2820,2840,2861,2880,2900,2921,2940,2961,2981,3001,3020,3040,3061,3080,3100,3121,3140,3162,3180,3200,3220,3240,3261,3280,3300,3321,3341],"xSR":741.5,"ySR":469.95,"xT1":424.9,"yT1":0,"xT2":1058.1,"yT2":0,"toosoon":0,"cond_shown":"Incongruent","ratio_trial":100,"L_num":6,"L_den":10,"R_num":13,"R_den":26,"correct_side":1,"subjID":"JUANSEBASTIANBELTRANGONZALEZ38","gender":"12","school":"COLEGIOCAFAM","age":"12"},{"start_time":1551801031547,"click_time":1551801032057,"finger_time":1551801031896,"fix_duration":250,"trial":59,"RT":349,"MT":161,"sideResp":1,"stimulus":[],"xmouse":[792,792,792,792,792,792,792,792,792,792,792,792,792,792,792,787,779,741,697,657,603,589,569,548,531,515],"ymouse":[544,544,544,544,544,544,544,544,544,544,544,544,544,544,543,527,497,409,342,289,219,186,138,87,49,10],"timestamp_mouse":[15,43,50,71,90,109,130,151,171,189,210,229,251,269,289,309,329,349,369,390,409,429,449,469,489,510],"xSR":741.5,"ySR":469.95,"xT1":424.9,"yT1":0,"xT2":1058.1,"yT2":0,"toosoon":0,"cond_shown":"Incongruent","ratio_trial":300,"L_num":13,"L_den":26,"R_num":12,"R_den":15,"correct_side":2,"subjID":"JUANSEBASTIANBELTRANGONZALEZ38","gender":"12","school":"COLEGIOCAFAM","age":"12"},{"start_time":1551801033866,"click_time":1551801034598,"finger_time":1551801034217,"fix_duration":487.0579784483793,"trial":60,"RT":351,"MT":381,"sideResp":2,"stimulus":[],"xmouse":[791,791,791,791,792,792,792,792,792,792,792,792,792,792,792,795,801,826,859,917,938,947,955,964,989,999,1006,1018,1033,1064,1070,1070,1070,1070,1072,1078,1081],"ymouse":[508,508,508,508,508,509,509,509,509,509,509,509,509,509,509,502,490,442,381,289,262,250,238,228,210,204,200,193,183,154,136,134,134,134,129,113,98],"timestamp_mouse":[11,39,50,72,91,110,132,150,170,190,212,232,250,270,290,310,331,351,371,390,411,431,451,470,490,510,530,551,572,590,611,630,652,670,690,711,731],"xSR":741.5,"ySR":469.95,"xT1":424.9,"yT1":0,"xT2":1058.1,"yT2":0,"toosoon":0,"cond_shown":"Congruent","ratio_trial":200,"L_num":3,"L_den":10,"R_num":14,"R_den":28,"correct_side":2,"subjID":"JUANSEBASTIANBELTRANGONZALEZ38","gender":"12","school":"COLEGIOCAFAM","age":"12"},{"start_time":1551801045407,"click_time":1551801046176,"finger_time":1551801045717,"fix_duration":250,"trial":61,"RT":310,"MT":459,"sideResp":2,"stimulus":[],"xmouse":[829,829,829,829,829,829,829,829,829,828,829,832,837,840,841,842,842,848,852,858,865,875,891,891,891,892,894,901,910,928,947,965,981,989,997,1006,1012,1050,1063],"ymouse":[497,497,497,497,497,497,497,497,497,495,493,487,480,478,476,475,474,473,472,469,464,449,370,310,291,284,281,272,254,225,191,158,119,103,92,80,63,28,18],"timestamp_mouse":[9,36,49,69,89,109,130,149,169,190,209,230,249,269,290,310,329,350,370,389,409,430,449,469,489,509,529,549,569,590,609,629,649,669,689,709,729,749,769],"xSR":741.5,"ySR":469.95,"xT1":424.9,"yT1":0,"xT2":1058.1,"yT2":0,"toosoon":0,"cond_shown":"Congruent","ratio_trial":300,"L_num":20,"L_den":25,"R_num":13,"R_den":26,"correct_side":1,"subjID":"JUANSEBASTIANBELTRANGONZALEZ38","gender":"12","school":"COLEGIOCAFAM","age":"12"},{"start_time":1551801051908,"click_time":1551801052536,"finger_time":1551801052316,"fix_duration":1070.1448878238393,"trial":62,"RT":408,"MT":220,"sideResp":1,"stimulus":[],"xmouse":[782,782,782,782,782,782,782,781,775,773,772,772,772,772,772,772,772,770,761,743,707,662,607,603,603,603,603,582,568,544,532,522],"ymouse":[520,520,520,520,520,520,520,514,506,502,501,501,501,501,501,501,501,501,497,484,456,411,289,236,192,167,147,112,97,80,72,65],"timestamp_mouse":[9,32,48,68,89,108,128,148,168,189,209,228,248,269,289,308,328,348,368,389,408,428,448,469,488,508,528,548,569,589,609,628],"xSR":741.5,"ySR":469.95,"xT1":424.9,"yT1":0,"xT2":1058.1,"yT2":0,"toosoon":0,"cond_shown":"Incongruent","ratio_trial":100,"L_num":6,"L_den":12,"R_num":3,"R_den":5,"correct_side":2,"subjID":"JUANSEBASTIANBELTRANGONZALEZ38","gender":"12","school":"COLEGIOCAFAM","age":"12"},{"start_time":1551801058729,"click_time":1551801058996,"finger_time":1551801058876,"fix_duration":571.6028425137521,"trial":63,"RT":147,"MT":120,"sideResp":2,"stimulus":[],"xmouse":[779,779,779,779,780,781,797,851,932,999,1039,1064,1068,1068],"ymouse":[518,518,518,518,517,514,482,409,336,265,208,138,104,83],"timestamp_mouse":[13,37,48,67,87,107,127,147,168,187,207,227,247,267],"xSR":741.5,"ySR":469.95,"xT1":424.9,"yT1":0,"xT2":1058.1,"yT2":0,"toosoon":0,"cond_shown":"Congruent","ratio_trial":300,"L_num":1,"L_den":30,"R_num":8,"R_den":24,"correct_side":2,"subjID":"JUANSEBASTIANBELTRANGONZALEZ38","gender":"12","school":"COLEGIOCAFAM","age":"12"},{"start_time":1551801060452,"click_time":1551801060816,"finger_time":1551801060516,"fix_duration":253.59838950336732,"trial":64,"RT":64,"MT":300,"sideResp":1,"stimulus":[],"xmouse":[794,783,783,734,706,675,670,670,670,670,665,653,632,604,565,522,513,506,494],"ymouse":[506,489,489,427,406,386,384,384,384,384,381,371,351,308,255,161,125,104,86],"timestamp_mouse":[7,36,44,64,84,104,124,144,165,185,204,225,244,265,284,304,325,344,364],"xSR":741.5,"ySR":469.95,"xT1":424.9,"yT1":0,"xT2":1058.1,"yT2":0,"toosoon":0,"cond_shown":"Congruent","ratio_trial":100,"L_num":7,"L_den":14,"R_num":15,"R_den":25,"correct_side":2,"subjID":"JUANSEBASTIANBELTRANGONZALEZ38","gender":"12","school":"COLEGIOCAFAM","age":"12"},{"start_time":1551801062363,"click_time":1551801062796,"finger_time":1551801062392,"fix_duration":306.96764495024775,"trial":65,"RT":29,"MT":404,"sideResp":2,"stimulus":[],"xmouse":[834,834,845,854,895,920,946,965,972,976,977,978,981,987,1007,1015,1017,1018,1018,1026,1043,1062],"ymouse":[468,468,433,405,269,205,157,130,120,113,112,110,104,96,80,79,79,79,79,77,74,71],"timestamp_mouse":[29,33,53,74,93,113,133,153,174,193,214,234,253,274,293,313,333,354,374,393,413,433],"xSR":741.5,"ySR":469.95,"xT1":424.9,"yT1":0,"xT2":1058.1,"yT2":0,"toosoon":0,"cond_shown":"Congruent","ratio_trial":100,"L_num":11,"L_den":22,"R_num":6,"R_den":15,"correct_side":1,"subjID":"JUANSEBASTIANBELTRANGONZALEZ38","gender":"12","school":"COLEGIOCAFAM","age":"12"},{"start_time":1551801065127,"click_time":1551801080278,"finger_time":1551801067056,"fix_duration":250,"trial":66,"RT":1929,"MT":13222,"sideResp":2,"stimulus":[],"xmouse":[794,794,794,794,794,794,794,794,794,794,794,794,794,794,794,794,794,794,794,794,794,794,794,794,794,794,794,794,794,794,794,794,794,794,794,794,794,794,794,794,794,794,794,794,794,794,794,794,794,794,794,794,794,794,794,794,794,794,794,794,794,794,794,794,794,794,794,794,799,800,801,801,801,801,801,801,800,799,799,799,799,798,797,797,797,797,797,797,797,797,796,796,796,796,796,793,779,777,778,781,790,802,802,802,802,802,802,802,802,802,801,801,803,804,807,808,809,808,807,807,807,807,806,806,806,806,806,806,806,806,806,805,803,801,800,800,800,800,800,800,799,799,798,798,797,797,797,796,794,793,793,792,791,791,791,791,791,791,791,791,791,791,791,791,791,791,791,792,794,796,798,799,799,799,799,799,799,799,799,799,799,799,799,799,799,799,799,799,799,799,799,799,799,799,797,796,791,787,786,786,786,786,786,786,785,784,784,784,784,784,784,784,784,784,784,784,784,783,781,780,779,779,779,779,778,778,776,776,776,776,776,776,776,776,776,776,776,776,776,776,776,776,776,776,776,776,776,776,776,776,776,776,776,776,776,776,776,776,775,772,771,770,769,769,769,769,769,769,769,769,769,769,769,769,769,769,769,769,769,769,769,769,769,769,769,770,770,770,770,770,770,770,770,770,770,770,772,774,775,778,780,787,790,792,794,794,794,794,794,794,794,789,787,785,785,785,785,785,784,782,782,781,781,781,781,781,791,808,809,809,809,809,809,809,809,809,809,809,809,809,809,809,809,810,811,816,825,825,825,827,830,844,853,856,859,860,861,858,851,839,824,797,792,785,774,763,760,760,760,759,758,757,752,744,734,725,720,719,718,714,708,692,681,671,659,645,611,597,595,594,591,581,575,570,566,564,560,555,552,550,549,545,543,542,542,542,541,540,539,538,537,537,540,542,544,547,549,549,550,550,550,552,553,554,556,558,563,564,564,566,570,577,580,581,582,583,585,585,585,585,586,587,587,589,589,590,590,590,590,590,589,577,574,575,579,581,583,583,583,583,582,581,580,580,580,580,580,580,580,580,580,580,580,580,580,580,580,584,590,597,605,634,670,759,857,924,951,955,970,1002,1062,1157,1162,1162,1162,1161,1134,1115,1111,1109,1109,1106,1096,1083,1072,1066,1066,1066,1066,1066,1067,1067,1067,1067,1067,1067,1067,1067,1067,1067,1067,1062,1060,1056,1054,1053,1052,1051,1050,1049,1049,1048,1048,1048,1047,1046,1045,1045,1045,1045,1045,1045,1045,1045,1045,1045,1045,1045,1045,1045,1045,1045,1045,1045,1045,1045,1041,1037,1036,1036,1036,1029,1021,1017,1017,1017,1017,1017,1017,1017,1017,1017,1017,1017,1017,1017,1017,1017,1017,1017,1017,1017,1017,1017,1017,1017,1017,1017,1017,1017,1017,1017,1017,1017,1017,1017,1017,1017,1017,1017,1017,1017,1017,1017,1017,1017,1017,1017,1017,1017,1017,1017,1017,1017,1017,1017,1017,1017,1017,1017,1017,1017,1017,1017,1017,1017,1017,1017,1017,1017,1017,1017,1017,1017,1017,1017,1017,1017,1017,1017,1017,1017,1017,10