[{"start_time":1551801889392,"click_time":1551801890914,"finger_time":1551801889396,"fix_duration":1395.2816004308306,"trial":0,"RT":4,"MT":1518,"sideResp":1,"stimulus":"img/250/equaldotsize/R/6_Ratio_250_L_6_R_24.png","xmouse":[1009,1009,1009,1007,1006,1006,1006,1006,1002,993,987,979,950,945,945,945,945,941,917,867,805,759,670,645,629,617,616,613,609,604,599,599,618,624,628,628,628,648,658,665,667,668,668,671,680,693,714,725,743,771,792,797,797,796,790,784,782,782,781,781,781,781,781,781,781,781,781,779,774,764,746,714,582,510,462,447,442],"ymouse":[463,463,463,459,457,457,457,457,457,457,457,460,484,495,495,495,495,493,452,384,316,277,187,158,142,138,138,146,158,180,215,251,412,463,492,513,539,598,612,618,618,618,618,620,620,621,619,613,608,608,608,608,608,609,614,616,617,617,617,617,617,617,617,617,617,617,617,616,606,586,543,475,233,147,109,100,94],"timestamp_mouse":[4,20,40,60,81,102,121,141,160,182,202,221,241,261,280,300,321,341,361,381,401,421,440,460,481,501,522,541,561,581,601,620,641,661,681,701,721,742,761,782,800,820,840,861,880,901,921,940,962,980,1001,1020,1041,1061,1082,1101,1120,1141,1161,1180,1201,1221,1241,1260,1281,1300,1320,1342,1360,1380,1401,1421,1441,1460,1480,1500,1521],"xSR":741.5,"ySR":469.95,"xT1":424.9,"yT1":0,"xT2":1058.1,"yT2":0,"toosoon":0,"cond_shown":"equaldotsize","ratio_trial":250,"smaller_num":"6","larger_num":"24","correct_side":2,"subjID":"JUANSEBASTIANBELTRANGONZALEZ38","gender":"0","age":"12","school":"6","test":{"fix_dur":[250,1500],"timestim":300,"targets_dim":[100,100],"targets_relative_coord":[0.3,0.7],"size_stim":[880,420],"start_dim":[100,100],"size_start":[300,300],"size_fix":60,"samplingrate":20,"img_types":["equaldotsize","equaldotanddens","randomdotsizeEA"],"ratios":[250,500,750,900],"rep_conds":9,"nTrials":120,"trials_to_rest":500,"Trials_order":[12,70,50,107,100,62,109,18,66,44,26,24,116,19,45,23,113,71,34,76,68,29,61,96,111,84,112,33,30,106,82,27,41,74,51,32,77,93,43,79,58,89,37,55,99,11,64,105,95,114,117,1,101,28,39,103,80,119,48,6,59,49,42,13,98,83,52,0,4,7,14,21,94,110,85,102,35,104,60,2,81,8,3,63,25,91,115,40,69,46,108,36,5,75,65,97,90,73,20,54,10,53,87,38,22,17,57,16,88,31,15,67,56,118,78,86,92,47,72,9],"cond_shown":["equaldotsize","equaldotanddens","randomdotsizeEA","randomdotsizeEA","equaldotanddens","randomdotsizeEA","equaldotanddens","equaldotsize","equaldotsize","randomdotsizeEA","randomdotsizeEA","equaldotsize","randomdotsizeEA","equaldotanddens","equaldotsize","randomdotsizeEA","randomdotsizeEA","randomdotsizeEA","equaldotanddens","equaldotanddens","randomdotsizeEA","randomdotsizeEA","equaldotanddens","equaldotsize","equaldotsize","equaldotsize","equaldotanddens","equaldotsize","equaldotsize","equaldotanddens","equaldotanddens","equaldotsize","randomdotsizeEA","randomdotsizeEA","equaldotsize","randomdotsizeEA","randomdotsizeEA","equaldotsize","equaldotanddens","equaldotanddens","equaldotanddens","randomdotsizeEA","equaldotanddens","equaldotanddens","equaldotsize","randomdotsizeEA","equaldotanddens","equaldotsize","randomdotsizeEA","equaldotsize","equaldotsize","equaldotanddens","randomdotsizeEA","equaldotanddens","equaldotsize","equaldotanddens","randomdotsizeEA","randomdotsizeEA","equaldotsize","equaldotsize","randomdotsizeEA","equaldotanddens","equaldotsize","equaldotanddens","randomdotsizeEA","randomdotsizeEA","equaldotanddens","equaldotsize","equaldotanddens","equaldotanddens","randomdotsizeEA","equaldotsize","equaldotanddens","randomdotsizeEA","equaldotanddens","equaldotsize","randomdotsizeEA","randomdotsizeEA","equaldotsize","randomdotsizeEA","equaldotsize","randomdotsizeEA","equaldotsize","equaldotsize","equaldotanddens","equaldotanddens","equaldotanddens","equaldotanddens","equaldotsize","equaldotanddens","equaldotsize","equaldotsize","randomdotsizeEA","equaldotsize","randomdotsizeEA","equaldotanddens","equaldotsize","equaldotanddens","randomdotsizeEA","equaldotsize","equaldotanddens","randomdotsizeEA","equaldotsize","randomdotsizeEA","equaldotanddens","randomdotsizeEA","equaldotsize","equaldotanddens","equaldotanddens","equaldotanddens","equaldotsize","equaldotanddens","randomdotsizeEA","equaldotanddens","equaldotsize","randomdotsizeEA","randomdotsizeEA","randomdotsizeEA","equaldotsize","equaldotsize"],"ratio_trial":[250,900,250,900,500,250,250,750,750,750,250,250,750,750,900,900,500,900,900,500,750,500,250,250,500,250,500,900,750,900,900,500,500,250,500,750,500,900,750,750,900,500,250,750,500,900,500,900,900,750,900,250,500,500,500,750,750,900,250,750,900,250,750,250,250,900,500,250,500,750,250,900,900,250,250,750,900,750,250,250,900,750,500,500,250,750,750,500,900,900,250,250,500,500,500,250,750,250,750,750,900,500,500,250,900,500,900,500,500,750,500,750,750,900,750,250,750,900,250,900],"smaller_num":["6","18","6","18","2","2","6","9","9","12","3","4","6","18","9","9","1","18","18","9","15","6","4","6","5","3","6","18","15","18","9","9","6","3","4","3","2","9","15","3","18","1","1","9","4","18","2","18","18","9","9","3","2","10","3","12","3","9","4","6","9","5","15","1","6","18","10","2","9","6","3","9","9","3","3","6","18","6","2","1","18","3","9","9","3","3","3","3","9","18","3","1","3","3","1","4","3","3","3","12","18","9","6","2","18","6","18","2","6","3","5","15","18","18","3","2","6","9","3","18"],"larger_num":["24","20","24","20","4","8","24","12","12","16","12","16","8","24","10","10","2","20","20","18","20","12","16","24","10","12","12","20","20","20","10","18","12","12","8","4","4","10","20","4","20","2","4","12","8","20","4","20","20","12","10","12","4","20","6","16","4","10","16","8","10","20","20","4","24","20","20","8","18","8","12","10","10","12","12","8","20","8","8","4","20","4","18","18","12","4","4","6","10","20","12","4","6","6","2","16","4","12","4","16","20","18","12","8","20","12","20","4","12","4","10","20","24","20","4","8","8","10","12","20"],"correct_side":[2,1,2,1,2,1,2,2,2,2,2,1,2,1,1,1,2,1,1,2,1,1,1,2,2,2,1,1,1,1,1,1,1,2,1,1,2,1,1,2,1,2,2,2,1,2,1,1,2,2,2,2,1,2,2,2,1,2,1,2,2,2,1,2,1,2,2,2,2,1,2,1,1,1,2,1,2,1,1,2,2,2,2,1,2,1,1,2,1,1,1,2,2,2,2,1,1,1,1,2,2,1,1,2,2,1,1,1,1,1,1,1,1,2,1,1,1,2,2,2],"img_shown":["img/250/equaldotsize/R/6_Ratio_250_L_6_R_24.png","img/900/equaldotanddens/L/8_Ratio_900_L_20_R_18.png","img/250/randomdotsizeEA/R/6_Ratio_250_L_6_R_24.png","img/900/randomdotsizeEA/L/4_Ratio_900_L_20_R_18.png","img/500/equaldotanddens/R/9_Ratio_500_L_2_R_4.png","img/250/randomdotsizeEA/L/1_Ratio_250_L_8_R_2.png","img/250/equaldotanddens/R/6_Ratio_250_L_6_R_24.png","img/750/equaldotsize/R/15_Ratio_750_L_9_R_12.png","img/750/equaldotsize/R/15_Ratio_750_L_9_R_12.png","img/750/randomdotsizeEA/R/11_Ratio_750_L_12_R_16.png","img/250/randomdotsizeEA/R/4_Ratio_250_L_3_R_12.png","img/250/equaldotsize/L/2_Ratio_250_L_16_R_4.png","img/750/randomdotsizeEA/R/2_Ratio_750_L_6_R_8.png","img/750/equaldotanddens/L/6_Ratio_750_L_24_R_18.png","img/900/equaldotsize/L/1_Ratio_900_L_10_R_9.png","img/900/randomdotsizeEA/L/1_Ratio_900_L_10_R_9.png","img/500/randomdotsizeEA/R/15_Ratio_500_L_1_R_2.png","img/900/randomdotsizeEA/L/10_Ratio_900_L_20_R_18.png","img/900/equaldotanddens/L/4_Ratio_900_L_20_R_18.png","img/500/equaldotanddens/R/6_Ratio_500_L_9_R_18.png","img/750/randomdotsizeEA/L/1_Ratio_750_L_20_R_15.png","img/500/randomdotsizeEA/L/13_Ratio_500_L_12_R_6.png","img/250/equaldotanddens/L/2_Ratio_250_L_16_R_4.png","img/250/equaldotsize/R/6_Ratio_250_L_6_R_24.png","img/500/equaldotsize/R/14_Ratio_500_L_5_R_10.png","img/250/equaldotsize/R/9_Ratio_250_L_3_R_12.png","img/500/equaldotanddens/L/11_Ratio_500_L_12_R_6.png","img/900/equaldotsize/L/4_Ratio_900_L_20_R_18.png","img/750/equaldotsize/L/1_Ratio_750_L_20_R_15.png","img/900/equaldotanddens/L/2_Ratio_900_L_20_R_18.png","img/900/equaldotanddens/L/1_Ratio_900_L_10_R_9.png","img/500/equaldotsize/L/4_Ratio_500_L_18_R_9.png","img/500/randomdotsizeEA/L/11_Ratio_500_L_12_R_6.png","img/250/randomdotsizeEA/R/11_Ratio_250_L_3_R_12.png","img/500/equaldotsize/L/8_Ratio_500_L_8_R_4.png","img/750/randomdotsizeEA/L/9_Ratio_750_L_4_R_3.png","img/500/randomdotsizeEA/R/9_Ratio_500_L_2_R_4.png","img/900/equaldotsize/L/1_Ratio_900_L_10_R_9.png","img/750/equaldotanddens/L/1_Ratio_750_L_20_R_15.png","img/750/equaldotanddens/R/7_Ratio_750_L_3_R_4.png","img/900/equaldotanddens/L/4_Ratio_900_L_20_R_18.png","img/500/randomdotsizeEA/R/12_Ratio_500_L_1_R_2.png","img/250/equaldotanddens/R/8_Ratio_250_L_1_R_4.png","img/750/equaldotanddens/R/15_Ratio_750_L_9_R_12.png","img/500/equaldotsize/L/8_Ratio_500_L_8_R_4.png","img/900/randomdotsizeEA/R/9_Ratio_900_L_18_R_20.png","img/500/equaldotanddens/L/10_Ratio_500_L_4_R_2.png","img/900/equaldotsize/L/10_Ratio_900_L_20_R_18.png","img/900/randomdotsizeEA/R/14_Ratio_900_L_18_R_20.png","img/750/equaldotsize/R/15_Ratio_750_L_9_R_12.png","img/900/equaldotsize/R/7_Ratio_900_L_9_R_10.png","img/250/equaldotanddens/R/4_Ratio_250_L_3_R_12.png","img/500/randomdotsizeEA/L/10_Ratio_500_L_4_R_2.png","img/500/equaldotanddens/R/3_Ratio_500_L_10_R_20.png","img/500/equaldotsize/R/2_Ratio_500_L_3_R_6.png","img/750/equaldotanddens/R/11_Ratio_750_L_12_R_16.png","img/750/randomdotsizeEA/L/10_Ratio_750_L_4_R_3.png","img/900/randomdotsizeEA/R/3_Ratio_900_L_9_R_10.png","img/250/equaldotsize/L/2_Ratio_250_L_16_R_4.png","img/750/equaldotsize/R/2_Ratio_750_L_6_R_8.png","img/900/randomdotsizeEA/R/7_Ratio_900_L_9_R_10.png","img/250/equaldotanddens/R/12_Ratio_250_L_5_R_20.png","img/750/equaldotsize/L/1_Ratio_750_L_20_R_15.png","img/250/equaldotanddens/R/8_Ratio_250_L_1_R_4.png","img/250/randomdotsizeEA/L/5_Ratio_250_L_24_R_6.png","img/900/randomdotsizeEA/R/13_Ratio_900_L_18_R_20.png","img/500/equaldotanddens/R/3_Ratio_500_L_10_R_20.png","img/250/equaldotsize/R/13_Ratio_250_L_2_R_8.png","img/500/equaldotanddens/R/6_Ratio_500_L_9_R_18.png","img/750/equaldotanddens/L/13_Ratio_750_L_8_R_6.png","img/250/randomdotsizeEA/R/9_Ratio_250_L_3_R_12.png","img/900/equaldotsize/L/1_Ratio_900_L_10_R_9.png","img/900/equaldotanddens/L/1_Ratio_900_L_10_R_9.png","img/250/randomdotsizeEA/L/15_Ratio_250_L_12_R_3.png","img/250/equaldotanddens/R/4_Ratio_250_L_3_R_12.png","img/750/equaldotsize/L/13_Ratio_750_L_8_R_6.png","img/900/randomdotsizeEA/R/14_Ratio_900_L_18_R_20.png","img/750/randomdotsizeEA/L/13_Ratio_750_L_8_R_6.png","img/250/equaldotsize/L/3_Ratio_250_L_8_R_2.png","img/250/randomdotsizeEA/R/8_Ratio_250_L_1_R_4.png","img/900/equaldotsize/R/13_Ratio_900_L_18_R_20.png","img/750/randomdotsizeEA/R/7_Ratio_750_L_3_R_4.png","img/500/equaldotsize/R/6_Ratio_500_L_9_R_18.png","img/500/equaldotsize/L/4_Ratio_500_L_18_R_9.png","img/250/equaldotanddens/R/11_Ratio_250_L_3_R_12.png","img/750/equaldotanddens/L/9_Ratio_750_L_4_R_3.png","img/750/equaldotanddens/L/10_Ratio_750_L_4_R_3.png","img/500/equaldotanddens/R/2_Ratio_500_L_3_R_6.png","img/900/equaldotsize/L/1_Ratio_900_L_10_R_9.png","img/900/equaldotanddens/L/2_Ratio_900_L_20_R_18.png","img/250/equaldotsize/L/15_Ratio_250_L_12_R_3.png","img/250/equaldotsize/R/8_Ratio_250_L_1_R_4.png","img/500/randomdotsizeEA/R/2_Ratio_500_L_3_R_6.png","img/500/equaldotsize/R/2_Ratio_500_L_3_R_6.png","img/500/randomdotsizeEA/R/15_Ratio_500_L_1_R_2.png","img/250/equaldotanddens/L/2_Ratio_250_L_16_R_4.png","img/750/equaldotsize/L/9_Ratio_750_L_4_R_3.png","img/250/equaldotanddens/L/14_Ratio_250_L_12_R_3.png","img/750/randomdotsizeEA/L/10_Ratio_750_L_4_R_3.png","img/750/equaldotsize/R/11_Ratio_750_L_12_R_16.png","img/900/equaldotanddens/R/14_Ratio_900_L_18_R_20.png","img/500/randomdotsizeEA/L/4_Ratio_500_L_18_R_9.png","img/500/equaldotsize/L/13_Ratio_500_L_12_R_6.png","img/250/randomdotsizeEA/R/13_Ratio_250_L_2_R_8.png","img/900/equaldotanddens/R/9_Ratio_900_L_18_R_20.png","img/500/randomdotsizeEA/L/13_Ratio_500_L_12_R_6.png","img/900/equaldotsize/L/4_Ratio_900_L_20_R_18.png","img/500/equaldotanddens/L/5_Ratio_500_L_4_R_2.png","img/500/equaldotanddens/L/11_Ratio_500_L_12_R_6.png","img/750/equaldotanddens/L/8_Ratio_750_L_4_R_3.png","img/500/equaldotsize/L/7_Ratio_500_L_10_R_5.png","img/750/equaldotanddens/L/1_Ratio_750_L_20_R_15.png","img/750/randomdotsizeEA/L/6_Ratio_750_L_24_R_18.png","img/900/equaldotanddens/R/14_Ratio_900_L_18_R_20.png","img/750/equaldotsize/L/9_Ratio_750_L_4_R_3.png","img/250/randomdotsizeEA/L/3_Ratio_250_L_8_R_2.png","img/750/randomdotsizeEA/L/14_Ratio_750_L_8_R_6.png","img/900/randomdotsizeEA/R/6_Ratio_900_L_9_R_10.png","img/250/equaldotsize/R/9_Ratio_250_L_3_R_12.png","img/900/equaldotsize/R/12_Ratio_900_L_18_R_20.png"],"Rat0":[["12_Ratio_0_L_9_R_0.png","13_Ratio_0_L_6_R_0.png","5_Ratio_0_L_2_R_0.png","6_Ratio_0_L_4_R_0.png","8_Ratio_0_L_6_R_0.png"],["1_Ratio_0_L_0_R_17.png","10_Ratio_0_L_0_R_22.png","11_Ratio_0_L_0_R_1.png","14_Ratio_0_L_0_R_24.png","15_Ratio_0_L_0_R_4.png","2_Ratio_0_L_0_R_5.png","3_Ratio_0_L_0_R_17.png","4_Ratio_0_L_0_R_7.png","7_Ratio_0_L_0_R_19.png","9_Ratio_0_L_0_R_15.png"]],"Rat250":[["1_Ratio_250_L_8_R_2.png","14_Ratio_250_L_12_R_3.png","15_Ratio_250_L_12_R_3.png","2_Ratio_250_L_16_R_4.png","3_Ratio_250_L_8_R_2.png","5_Ratio_250_L_24_R_6.png","7_Ratio_250_L_8_R_2.png"],["10_Ratio_250_L_4_R_16.png","11_Ratio_250_L_3_R_12.png","12_Ratio_250_L_5_R_20.png","13_Ratio_250_L_2_R_8.png","4_Ratio_250_L_3_R_12.png","6_Ratio_250_L_6_R_24.png","8_Ratio_250_L_1_R_4.png","9_Ratio_250_L_3_R_12.png"]],"Rat500":[["10_Ratio_500_L_4_R_2.png","11_Ratio_500_L_12_R_6.png","13_Ratio_500_L_12_R_6.png","4_Ratio_500_L_18_R_9.png","5_Ratio_500_L_4_R_2.png","7_Ratio_500_L_10_R_5.png","8_Ratio_500_L_8_R_4.png"],["1_Ratio_500_L_9_R_18.png","12_Ratio_500_L_1_R_2.png","14_Ratio_500_L_5_R_10.png","15_Ratio_500_L_1_R_2.png","2_Ratio_500_L_3_R_6.png","3_Ratio_500_L_10_R_20.png","6_Ratio_500_L_9_R_18.png","9_Ratio_500_L_2_R_4.png"]],"Rat750":[["1_Ratio_750_L_20_R_15.png","10_Ratio_750_L_4_R_3.png","13_Ratio_750_L_8_R_6.png","14_Ratio_750_L_8_R_6.png","6_Ratio_750_L_24_R_18.png","8_Ratio_750_L_4_R_3.png","9_Ratio_750_L_4_R_3.png"],["11_Ratio_750_L_12_R_16.png","12_Ratio_750_L_3_R_4.png","15_Ratio_750_L_9_R_12.png","2_Ratio_750_L_6_R_8.png","3_Ratio_750_L_15_R_20.png","4_Ratio_750_L_15_R_20.png","5_Ratio_750_L_15_R_20.png","7_Ratio_750_L_3_R_4.png"]],"Rat900":[["1_Ratio_900_L_10_R_9.png","10_Ratio_900_L_20_R_18.png","2_Ratio_900_L_20_R_18.png","4_Ratio_900_L_20_R_18.png","8_Ratio_900_L_20_R_18.png"],["11_Ratio_900_L_18_R_20.png","12_Ratio_900_L_18_R_20.png","13_Ratio_900_L_18_R_20.png","14_Ratio_900_L_18_R_20.png","15_Ratio_900_L_9_R_10.png","3_Ratio_900_L_9_R_10.png","5_Ratio_900_L_9_R_10.png","6_Ratio_900_L_9_R_10.png","7_Ratio_900_L_9_R_10.png","9_Ratio_900_L_18_R_20.png"]],"Rat1000":[["10_Ratio_1000_L_16_R_16.png","11_Ratio_1000_L_6_R_6.png","12_Ratio_1000_L_14_R_14.png","13_Ratio_1000_L_20_R_20.png","15_Ratio_1000_L_15_R_15.png","2_Ratio_1000_L_17_R_17.png","4_Ratio_1000_L_9_R_9.png","5_Ratio_1000_L_6_R_6.png","6_Ratio_1000_L_19_R_19.png","8_Ratio_1000_L_14_R_14.png","9_Ratio_1000_L_25_R_25.png"],["1_Ratio_1000_L_1_R_1.png","14_Ratio_1000_L_17_R_17.png","3_Ratio_1000_L_17_R_17.png","7_Ratio_1000_L_6_R_6.png"]]}},{"start_time":1551801892795,"click_time":1551801893794,"finger_time":1551801893513,"fix_duration":600.3392947052824,"trial":1,"RT":718,"MT":281,"sideResp":1,"stimulus":"img/900/equaldotanddens/L/8_Ratio_900_L_20_R_18.png","xmouse":[788,788,788,788,788,788,788,788,788,788,788,788,788,788,788,788,788,788,788,788,788,788,788,788,788,788,788,788,788,788,788,788,788,789,789,760,727,704,676,640,602,561,552,550,550,549,549,545,534,516],"ymouse":[660,660,660,660,660,660,660,660,660,660,660,660,660,660,660,660,660,660,660,660,660,660,660,660,660,660,660,660,660,660,660,660,660,654,635,548,496,463,430,390,335,246,213,202,195,181,168,142,104,68],"timestamp_mouse":[18,37,58,77,98,118,138,159,177,198,218,239,257,278,299,319,337,358,378,399,417,437,457,478,497,517,537,557,578,597,617,637,658,678,698,718,737,758,777,799,819,837,857,877,897,918,937,958,979,999],"xSR":741.5,"ySR":573.95,"xT1":424.9,"yT1":0,"xT2":1058.1,"yT2":0,"toosoon":0,"cond_shown":"equaldotanddens","ratio_trial":900,"smaller_num":"18","larger_num":"20","correct_side":1,"subjID":"JUANSEBASTIANBELTRANGONZALEZ38","gender":"0","age":"12","school":"6"},{"start_time":1551801895504,"click_time":1551801896353,"finger_time":1551801896093,"fix_duration":790.2515632172389,"trial":2,"RT":589,"MT":260,"sideResp":2,"stimulus":"img/250/randomdotsizeEA/R/6_Ratio_250_L_6_R_24.png","xmouse":[765,765,767,768,768,768,768,768,768,768,768,768,768,768,768,768,768,768,768,768,768,768,768,768,768,768,768,769,789,820,875,1007,1046,1054,1054,1054,1054,1053,1049,1047,1047,1054,1060],"ymouse":[601,602,604,605,605,605,605,605,605,605,605,605,605,605,605,605,605,605,605,605,605,605,605,605,605,605,605,605,586,542,470,270,176,132,116,113,110,101,92,88,86,75,68],"timestamp_mouse":[9,35,48,69,89,109,128,148,168,188,210,228,250,268,288,309,329,349,368,389,409,429,448,468,488,509,529,548,570,589,609,628,649,669,689,709,729,749,769,788,809,829,849],"xSR":741.5,"ySR":573.95,"xT1":424.9,"yT1":0,"xT2":1058.1,"yT2":0,"toosoon":0,"cond_shown":"randomdotsizeEA","ratio_trial":250,"smaller_num":"6","larger_num":"24","correct_side":2,"subjID":"JUANSEBASTIANBELTRANGONZALEZ38","gender":"0","age":"12","school":"6"},{"start_time":1551801897792,"click_time":1551801898733,"finger_time":1551801898354,"fix_duration":737.4321725979488,"trial":3,"RT":562,"MT":379,"sideResp":1,"stimulus":"img/900/randomdotsizeEA/L/4_Ratio_900_L_20_R_18.png","xmouse":[761,761,761,761,761,761,761,761,761,761,761,761,761,761,761,758,751,749,749,749,749,749,749,749,749,749,748,743,730,703,669,630,568,532,514,510,510,510,510,510,510,508,508,508,508,508,507,498],"ymouse":[643,643,643,643,643,643,643,643,643,643,643,643,643,643,643,638,631,626,626,626,626,626,626,626,626,626,622,596,550,478,380,288,177,127,111,108,108,108,108,108,108,107,107,107,107,107,106,87],"timestamp_mouse":[9,21,40,60,82,101,120,141,161,181,200,220,240,260,281,302,320,340,361,381,400,421,440,461,481,500,520,542,562,581,601,620,641,661,682,700,721,741,760,782,800,821,842,862,881,900,920,940],"xSR":741.5,"ySR":573.95,"xT1":424.9,"yT1":0,"xT2":1058.1,"yT2":0,"toosoon":0,"cond_shown":"randomdotsizeEA","ratio_trial":900,"smaller_num":"18","larger_num":"20","correct_side":1,"subjID":"JUANSEBASTIANBELTRANGONZALEZ38","gender":"0","age":"12","school":"6"},{"start_time":1551801900401,"click_time":1551801900973,"finger_time":1551801900833,"fix_duration":706.2818730862444,"trial":4,"RT":432,"MT":140,"sideResp":2,"stimulus":"img/500/equaldotanddens/R/9_Ratio_500_L_2_R_4.png","xmouse":[783,783,783,783,783,783,783,783,783,783,783,783,783,783,783,783,783,783,783,783,799,849,900,940,968,989,1035,1065,1080],"ymouse":[642,642,642,642,642,642,642,642,642,642,642,642,642,642,642,642,642,642,640,638,618,559,506,446,381,318,171,106,73],"timestamp_mouse":[12,32,51,72,92,113,131,151,172,191,212,231,252,273,293,311,331,351,372,391,412,432,451,473,493,512,533,552,572],"xSR":741.5,"ySR":573.95,"xT1":424.9,"yT1":0,"xT2":1058.1,"yT2":0,"toosoon":0,"cond_shown":"equaldotanddens","ratio_trial":500,"smaller_num":"2","larger_num":"4","correct_side":2,"subjID":"JUANSEBASTIANBELTRANGONZALEZ38","gender":"0","age":"12","school":"6"},{"start_time":1551801902086,"click_time":1551801902792,"finger_time":1551801902374,"fix_duration":250,"trial":5,"RT":288,"MT":418,"sideResp":1,"stimulus":"img/250/randomdotsizeEA/L/1_Ratio_250_L_8_R_2.png","xmouse":[789,789,789,789,789,789,789,789,789,789,789,789,788,778,747,682,613,560,559,559,558,533,522,519,519,519,513,506,494,494,497,499,499,497,495,495],"ymouse":[621,621,621,621,621,621,621,621,621,621,621,621,621,601,561,490,417,351,332,318,298,236,220,216,216,216,189,155,122,119,115,112,106,102,100,99],"timestamp_mouse":[7,28,47,66,88,107,128,146,167,188,206,226,247,266,288,307,326,346,366,386,407,428,447,466,487,507,528,546,567,586,607,628,647,667,686,706],"xSR":741.5,"ySR":573.95,"xT1":424.9,"yT1":0,"xT2":1058.1,"yT2":0,"toosoon":0,"cond_shown":"randomdotsizeEA","ratio_trial":250,"smaller_num":"2","larger_num":"8","correct_side":1,"subjID":"JUANSEBASTIANBELTRANGONZALEZ38","gender":"0","age":"12","school":"6"},{"start_time":1551801904083,"click_time":1551801904692,"finger_time":1551801904513,"fix_duration":589.0991291166456,"trial":6,"RT":430,"MT":179,"sideResp":2,"stimulus":"img/250/equaldotanddens/R/6_Ratio_250_L_6_R_24.png","xmouse":[799,799,799,799,799,799,799,799,799,799,799,799,799,799,799,799,801,806,813,821,832,839,831,824,821,820,857,1008,1093,1117,1130],"ymouse":[625,625,625,625,625,625,625,625,625,625,625,625,625,625,625,625,623,620,614,602,581,522,496,473,452,424,353,180,121,102,90],"timestamp_mouse":[10,29,50,71,90,109,129,150,170,189,211,229,250,270,289,311,330,349,369,390,411,430,449,470,491,509,529,549,569,591,609],"xSR":741.5,"ySR":573.95,"xT1":424.9,"yT1":0,"xT2":1058.1,"yT2":0,"toosoon":0,"cond_shown":"equaldotanddens","ratio_trial":250,"smaller_num":"6","larger_num":"24","correct_side":2,"subjID":"JUANSEBASTIANBELTRANGONZALEZ38","gender":"0","age":"12","school":"6"},{"start_time":1551801906413,"click_time":1551801907212,"finger_time":1551801906833,"fix_duration":1037.639707147834,"trial":7,"RT":420,"MT":379,"sideResp":1,"stimulus":"img/750/equaldotsize/R/15_Ratio_750_L_9_R_12.png","xmouse":[808,797,797,794,794,794,794,794,794,794,794,794,794,794,794,794,794,794,790,780,769,744,736,735,734,723,704,677,647,607,557,537,508,488,476,472,472,472,472,471,466],"ymouse":[632,632,632,632,632,632,632,632,632,632,632,632,632,632,632,632,632,632,629,614,601,559,548,546,543,505,438,332,230,146,63,30,0,0,0,0,0,0,0,0,8],"timestamp_mouse":[1,34,40,60,79,101,119,139,160,180,200,220,240,260,279,301,320,339,360,381,401,420,440,461,479,501,519,540,561,580,600,619,641,661,680,701,720,741,760,780,799],"xSR":741.5,"ySR":573.95,"xT1":424.9,"yT1":0,"xT2":1058.1,"yT2":0,"toosoon":0,"cond_shown":"equaldotsize","ratio_trial":750,"smaller_num":"9","larger_num":"12","correct_side":2,"subjID":"JUANSEBASTIANBELTRANGONZALEZ38","gender":"0","age":"12","school":"6"},{"start_time":1551801909071,"click_time":1551801909793,"finger_time":1551801909614,"fix_duration":1054.8951711364973,"trial":8,"RT":543,"MT":179,"sideResp":2,"stimulus":"img/750/equaldotsize/R/15_Ratio_750_L_9_R_12.png","xmouse":[810,810,810,810,810,810,810,810,810,810,810,810,810,810,810,810,809,809,809,809,808,808,807,807,807,807,816,857,919,969,1021,1071,1104,1120,1121,1121,1121],"ymouse":[640,640,640,640,640,640,640,640,640,640,640,640,640,640,640,640,640,640,640,640,639,638,633,627,619,607,585,495,393,322,253,185,142,119,118,111,97],"timestamp_mouse":[8,22,42,62,83,102,121,141,162,182,202,221,242,263,282,301,321,341,362,381,402,423,441,461,482,502,522,543,562,582,602,623,641,662,681,703,722],"xSR":741.5,"ySR":573.95,"xT1":424.9,"yT1":0,"xT2":1058.1,"yT2":0,"toosoon":0,"cond_shown":"equaldotsize","ratio_trial":750,"smaller_num":"9","larger_num":"12","correct_side":2,"subjID":"JUANSEBASTIANBELTRANGONZALEZ38","gender":"0","age":"12","school":"6"},{"start_time":1551801912482,"click_time":1551801913593,"finger_time":1551801913134,"fix_duration":1067.2459066115534,"trial":9,"RT":652,"MT":459,"sideResp":1,"stimulus":"img/750/randomdotsizeEA/R/11_Ratio_750_L_12_R_16.png","xmouse":[797,797,797,797,797,797,797,797,797,797,797,797,797,797,797,797,797,797,797,797,797,797,797,797,797,797,797,797,797,789,773,755,708,674,658,642,626,605,594,582,567,546,506,483,467,465,465,465,464,455,451,451,451,451,451,451],"ymouse":[620,620,620,620,620,620,620,620,620,620,620,620,620,620,620,620,620,620,620,620,620,620,620,620,620,620,620,620,620,615,604,587,492,404,340,280,243,209,197,190,182,170,139,125,117,116,116,116,116,109,105,105,105,103,101,93],"timestamp_mouse":[10,31,50,70,90,112,131,150,170,191,211,231,251,271,290,311,331,350,372,391,411,431,451,471,490,510,531,552,571,591,611,631,652,672,690,711,730,751,770,792,811,831,852,871,890,910,931,951,971,992,1010,1031,1051,1070,1091,1110],"xSR":741.5,"ySR":573.95,"xT1":424.9,"yT1":0,"xT2":1058.1,"yT2":0,"toosoon":0,"cond_shown":"randomdotsizeEA","ratio_trial":750,"smaller_num":"12","larger_num":"16","correct_side":2,"subjID":"JUANSEBASTIANBELTRANGONZALEZ38","gender":"0","age":"12","school":"6"},{"start_time":1551801917336,"click_time":1551801918334,"finger_time":1551801918013,"fix_duration":1343.5014458699043,"trial":10,"RT":677,"MT":321,"sideResp":2,"stimulus":"img/250/randomdotsizeEA/R/4_Ratio_250_L_3_R_12.png","xmouse":[828,828,828,828,828,828,828,828,828,828,828,828,828,828,826,823,820,820,820,820,820,820,820,820,820,820,820,820,820,820,820,821,828,886,928,936,945,949,953,976,1002,1029,1046,1058,1063,1063,1063,1064,1070,1111],"ymouse":[621,621,621,621,621,621,621,621,621,621,621,621,621,621,621,613,608,608,608,608,608,608,608,608,608,608,608,608,608,608,608,603,592,475,365,337,293,280,270,235,198,164,141,125,116,116,116,116,114,94],"timestamp_mouse":[16,43,57,78,97,117,138,156,178,198,217,237,257,276,296,316,338,356,377,398,416,436,456,478,496,516,537,556,576,596,617,637,657,677,696,716,737,756,776,796,816,837,857,877,896,916,937,956,977,997],"xSR":741.5,"ySR":573.95,"xT1":424.9,"yT1":0,"xT2":1058.1,"yT2":0,"toosoon":0,"cond_shown":"randomdotsizeEA","ratio_trial":250,"smaller_num":"3","larger_num":"12","correct_side":2,"subjID":"JUANSEBASTIANBELTRANGONZALEZ38","gender":"0","age":"12","school":"6"},{"start_time":1551801921461,"click_time":1551801922092,"finger_time":1551801921934,"fix_duration":585.0780389421172,"trial":11,"RT":473,"MT":158,"sideResp":1,"stimulus":"img/250/equaldotsize/L/2_Ratio_250_L_16_R_4.png","xmouse":[812,812,812,812,812,812,812,812,812,812,812,812,812,812,812,812,812,812,812,812,812,812,792,748,697,654,623,583,544,529,466,425],"ymouse":[634,634,634,634,634,634,634,634,634,634,634,634,634,634,634,634,634,634,634,634,634,634,606,545,484,428,382,285,200,171,100,64],"timestamp_mouse":[12,33,52,71,92,113,133,152,172,192,212,232,251,272,292,313,332,352,372,392,413,432,452,473,492,513,533,552,571,591,613,631],"xSR":741.5,"ySR":573.95,"xT1":424.9,"yT1":0,"xT2":1058.1,"yT2":0,"toosoon":0,"cond_shown":"equaldotsize","ratio_trial":250,"smaller_num":"4","larger_num":"16","correct_side":1,"subjID":"JUANSEBASTIANBELTRANGONZALEZ38","gender":"0","age":"12","school":"6"},{"start_time":1551801925405,"click_time":1551801926374,"finger_time":1551801926013,"fix_duration":250,"trial":12,"RT":608,"MT":361,"sideResp":1,"stimulus":"img/750/randomdotsizeEA/R/2_Ratio_750_L_6_R_8.png","xmouse":[820,820,820,820,820,820,820,820,820,820,820,820,820,820,820,820,820,820,820,820,820,820,820,820,820,819,817,813,804,792,777,769,762,736,706,620,605,605,605,605,603,593,576,542,524,514,506,495,484],"ymouse":[628,628,628,628,628,628,628,628,628,628,628,628,628,628,628,628,628,628,628,628,628,628,628,628,628,629,627,620,610,597,571,548,498,403,338,205,195,195,195,195,195,187,176,159,150,142,120,102,88],"timestamp_mouse":[15,41,48,68,87,108,128,147,168,187,207,228,248,267,289,309,327,348,367,387,407,428,447,469,487,507,527,547,568,588,608,627,648,668,689,708,727,747,768,787,808,827,848,867,887,908,928,948,969],"xSR":741.5,"ySR":573.95,"xT1":424.9,"yT1":0,"xT2":1058.1,"yT2":0,"toosoon":0,"cond_shown":"randomdotsizeEA","ratio_trial":750,"smaller_num":"6","larger_num":"8","correct_side":2,"subjID":"JUANSEBASTIANBELTRANGONZALEZ38","gender":"0","age":"12","school":"6"},{"start_time":1551801927366,"click_time":1551801928412,"finger_time":1551801927833,"fix_duration":250,"trial":13,"RT":467,"MT":579,"sideResp":1,"stimulus":"img/750/equaldotanddens/L/6_Ratio_750_L_24_R_18.png","xmouse":[799,799,799,799,799,799,799,799,799,799,799,799,799,799,799,799,799,803,807,815,821,823,825,827,828,848,874,897,898,898,898,898,886,803,767,659,618,593,585,572,554,542,526,521,518,518,517,505,495,493,493,492,492],"ymouse":[620,620,620,620,620,620,620,620,620,620,620,620,620,620,620,620,620,620,616,608,597,587,577,553,534,486,429,379,377,377,377,377,377,391,391,391,382,342,312,282,241,212,174,160,150,149,148,140,132,121,108,100,96],"timestamp_mouse":[6,28,47,67,87,106,128,148,167,188,207,227,247,267,286,306,328,346,367,387,408,427,447,467,486,507,526,547,566,586,606,628,647,666,687,707,727,747,766,786,807,826,847,867,887,907,927,947,966,987,1007,1027,1046],"xSR":741.5,"ySR":573.95,"xT1":424.9,"yT1":0,"xT2":1058.1,"yT2":0,"toosoon":0,"cond_shown":"equaldotanddens","ratio_trial":750,"smaller_num":"18","larger_num":"24","correct_side":1,"subjID":"JUANSEBASTIANBELTRANGONZALEZ38","gender":"0","age":"12","school":"6"},{"start_time":1551801930010,"click_time":1551801930813,"finger_time":1551801930512,"fix_duration":717.116367512524,"trial":14,"RT":502,"MT":301,"sideResp":1,"stimulus":"img/900/equaldotsize/L/1_Ratio_900_L_10_R_9.png","xmouse":[791,791,791,791,791,791,791,791,791,791,791,791,791,791,791,791,791,791,791,791,791,791,791,784,773,737,728,722,718,716,713,712,709,692,674,613,581,560,537,520,485],"ymouse":[644,644,644,644,644,644,644,644,644,644,644,644,644,644,644,644,644,644,644,644,644,644,639,619,592,520,502,489,482,477,472,469,466,441,410,324,284,258,223,182,96],"timestamp_mouse":[14,37,42,63,83,102,123,142,162,182,202,222,243,263,282,303,323,343,363,382,402,422,443,463,483,502,522,543,564,584,602,623,643,662,682,703,723,742,763,783,802],"xSR":741.5,"ySR":573.95,"xT1":424.9,"yT1":0,"xT2":1058.1,"yT2":0,"toosoon":0,"cond_shown":"equaldotsize","ratio_trial":900,"smaller_num":"9","larger_num":"10","correct_side":1,"subjID":"JUANSEBASTIANBELTRANGONZALEZ38","gender":"0","age":"12","school":"6"},{"start_time":1551801933998,"click_time":1551801935212,"finger_time":1551801934632,"fix_duration":903.5423647059334,"trial":15,"RT":634,"MT":580,"sideResp":1,"stimulus":"img/900/randomdotsizeEA/L/1_Ratio_900_L_10_R_9.png","xmouse":[785,785,785,785,785,785,785,785,785,785,785,785,785,785,785,785,785,785,785,785,785,785,785,785,785,785,785,785,785,785,779,765,742,721,699,681,666,637,614,584,556,552,550,550,550,539,531,521,519,519,519,518,516,512,511,509,508,508,507,504,493],"ymouse":[620,620,620,620,620,620,620,620,620,620,620,620,620,620,620,620,620,620,620,620,620,620,620,620,620,620,620,620,620,620,598,562,500,440,391,352,330,302,278,253,220,209,204,196,188,157,144,134,132,132,131,129,125,120,118,115,114,112,110,106,99],"timestamp_mouse":[14,34,55,76,94,114,134,154,174,194,214,234,256,275,295,316,335,355,376,394,414,435,454,474,494,514,534,554,574,594,614,634,655,675,696,715,736,754,774,796,815,834,855,874,894,914,934,955,975,995,1014,1034,1055,1075,1094,1114,1134,1155,1176,1195,1214],"xSR":741.5,"ySR":573.95,"xT1":424.9,"yT1":0,"xT2":1058.1,"yT2":0,"toosoon":0,"cond_shown":"randomdotsizeEA","ratio_trial":900,"smaller_num":"9","larger_num":"10","correct_side":1,"subjID":"JUANSEBASTIANBELTRANGONZALEZ38","gender":"0","age":"12","school":"6"},{"start_time":1551801937472,"click_time":1551801938373,"finger_time":1551801938073,"fix_duration":736.2892882139267,"trial":16,"RT":601,"MT":300,"sideResp":2,"stimulus":"img/500/randomdotsizeEA/R/15_Ratio_500_L_1_R_2.png","xmouse":[796,796,796,796,796,796,796,796,796,796,796,796,796,796,796,796,796,796,796,796,796,796,796,796,796,796,796,796,808,819,872,911,1027,1087,1139,1181,1204,1212,1212,1212,1212,1212,1203,1182,1159,1137],"ymouse":[636,636,636,636,636,636,636,636,636,636,636,636,636,636,636,636,636,636,636,636,636,636,636,636,636,636,636,636,627,619,584,551,437,360,267,182,126,108,108,108,108,108,90,73,62,57],"timestamp_mouse":[8,21,40,61,81,101,120,141,161,180,201,221,240,261,280,300,321,341,361,380,401,420,440,460,480,500,520,542,561,580,601,620,641,662,681,700,720,740,760,781,800,820,841,861,881,901],"xSR":741.5,"ySR":573.95,"xT1":424.9,"yT1":0,"xT2":1058.1,"yT2":0,"toosoon":0,"cond_shown":"randomdotsizeEA","ratio_trial":500,"smaller_num":"1","larger_num":"2","correct_side":2,"subjID":"JUANSEBASTIANBELTRANGONZALEZ38","gender":"0","age":"12","school":"6"},{"start_time":1551801939725,"click_time":1551801940632,"finger_time":1551801940212,"fix_duration":250,"trial":17,"RT":487,"MT":420,"sideResp":1,"stimulus":"img/900/randomdotsizeEA/L/10_Ratio_900_L_20_R_18.png","xmouse":[800,800,800,800,800,800,800,800,801,804,804,804,804,804,804,804,804,804,804,804,804,804,804,804,784,777,771,766,753,699,666,644,633,627,626,626,621,615,597,593,593,592,587,573,541,523],"ymouse":[631,627,627,627,627,627,627,625,621,616,615,615,615,615,615,615,615,615,615,615,615,615,611,603,551,529,502,478,436,295,222,177,159,147,136,125,105,80,53,48,48,48,51,59,69,74],"timestamp_mouse":[11,35,47,68,89,108,127,147,168,188,208,227,247,267,289,307,327,348,367,387,407,428,448,469,487,507,528,548,567,587,608,628,647,669,688,709,727,747,769,788,808,827,847,868,887,907],"xSR":741.5,"ySR":573.95,"xT1":424.9,"yT1":0,"xT2":1058.1,"yT2":0,"toosoon":0,"cond_shown":"randomdotsizeEA","ratio_trial":900,"smaller_num":"18","larger_num":"20","correct_side":1,"subjID":"JUANSEBASTIANBELTRANGONZALEZ38","gender":"0","age":"12","school":"6"},{"start_time":1551801941863,"click_time":1551801942693,"finger_time":1551801942373,"fix_duration":250,"trial":18,"RT":510,"MT":320,"sideResp":1,"stimulus":"img/900/equaldotanddens/L/4_Ratio_900_L_20_R_18.png","xmouse":[783,783,783,783,783,783,783,783,783,783,783,783,783,783,783,783,783,783,783,782,780,778,766,756,744,734,730,730,730,730,729,727,711,697,667,630,592,557,546,534,521,508],"ymouse":[619,619,619,619,619,619,619,619,619,619,619,619,619,619,619,619,619,619,619,620,617,614,600,589,580,572,569,568,568,568,567,565,537,508,443,354,268,177,150,127,104,85],"timestamp_mouse":[10,34,50,70,91,109,129,151,170,189,210,229,249,270,289,309,329,349,369,390,410,430,449,471,490,510,529,550,570,590,610,631,650,669,690,710,731,749,771,789,810,830],"xSR":741.5,"ySR":573.95,"xT1":424.9,"yT1":0,"xT2":1058.1,"yT2":0,"toosoon":0,"cond_shown":"equaldotanddens","ratio_trial":900,"smaller_num":"18","larger_num":"20","correct_side":1,"subjID":"JUANSEBASTIANBELTRANGONZALEZ38","gender":"0","age":"12","school":"6"},{"start_time":1551801943885,"click_time":1551801944793,"finger_time":1551801944274,"fix_duration":250,"trial":19,"RT":389,"MT":519,"sideResp":2,"stimulus":"img/500/equaldotanddens/R/6_Ratio_500_L_9_R_18.png","xmouse":[774,776,777,777,777,777,777,777,777,777,777,777,777,777,777,777,777,768,759,745,725,713,711,711,711,711,711,711,714,715,731,804,885,995,1101,1177,1212,1212,1204,1187,1168,1142,1137,1135,1131,1123],"ymouse":[613,614,615,615,615,615,615,615,615,615,615,615,615,615,615,615,614,601,589,569,538,501,494,492,491,491,491,487,483,482,478,469,456,434,398,361,314,298,277,235,204,156,137,118,101,79],"timestamp_mouse":[7,32,49,68,88,107,127,148,169,189,209,228,247,267,287,307,328,347,368,389,408,428,447,467,488,508,528,549,568,588,607,627,648,668,688,708,728,749,768,787,807,827,848,869,887,908],"xSR":741.5,"ySR":573.95,"xT1":424.9,"yT1":0,"xT2":1058.1,"yT2":0,"toosoon":0,"cond_shown":"equaldotanddens","ratio_trial":500,"smaller_num":"9","larger_num":"18","correct_side":2,"subjID":"JUANSEBASTIANBELTRANGONZALEZ38","gender":"0","age":"12","school":"6"},{"start_time":1551801946081,"click_time":1551801946734,"finger_time":1551801946534,"fix_duration":588.877961943989,"trial":20,"RT":453,"MT":200,"sideResp":1,"stimulus":"img/750/randomdotsizeEA/L/1_Ratio_750_L_20_R_15.png","xmouse":[806,806,806,806,806,806,806,806,806,806,806,806,806,806,806,806,801,798,791,785,775,771,764,757,743,718,655,645,635,624,584,532,521],"ymouse":[633,633,633,633,633,633,633,633,633,633,633,633,633,633,633,633,632,627,611,602,588,582,572,563,545,507,396,369,341,298,212,112,90],"timestamp_mouse":[11,33,51,72,91,111,132,152,173,192,211,231,251,271,293,311,331,351,372,392,411,431,453,471,491,511,533,553,571,591,611,631,653],"xSR":741.5,"ySR":573.95,"xT1":424.9,"yT1":0,"xT2":1058.1,"yT2":0,"toosoon":0,"cond_shown":"randomdotsizeEA","ratio_trial":750,"smaller_num":"15","larger_num":"20","correct_side":1,"subjID":"JUANSEBASTIANBELTRANGONZALEZ38","gender":"0","age":"12","school":"6"},{"start_time":1551801948394,"click_time":1551801949651,"finger_time":1551801948872,"fix_duration":681.7610619684154,"trial":21,"RT":478,"MT":779,"sideResp":1,"stimulus":"img/500/randomdotsizeEA/L/13_Ratio_500_L_12_R_6.png","xmouse":[813,812,812,812,812,812,812,812,812,812,812,812,812,812,812,812,814,817,819,819,819,819,823,831,847,864,889,899,907,916,923,932,932,932,932,932,928,925,913,894,855,837,830,825,820,809,746,698,658,643,641,639,629,615,605,602,602,600,598,587,576,532,507],"ymouse":[623,623,623,623,623,623,623,623,623,623,623,623,623,623,623,623,609,591,586,585,585,584,578,562,540,514,453,422,396,374,357,326,317,307,299,291,282,282,282,285,291,291,288,283,274,254,159,117,95,91,90,90,88,83,80,79,79,77,76,71,66,55,49],"timestamp_mouse":[17,37,59,77,98,118,138,157,179,198,218,248,258,277,299,318,339,358,377,398,418,437,458,478,497,517,538,559,578,597,617,637,658,678,699,717,737,758,778,797,818,837,859,877,897,917,938,958,978,998,1019,1038,1057,1078,1097,1118,1137,1157,1178,1198,1218,1238,1257],"xSR":741.5,"ySR":573.95,"xT1":424.9,"yT1":0,"xT2":1058.1,"yT2":0,"toosoon":0,"cond_shown":"randomdotsizeEA","ratio_trial":500,"smaller_num":"6","larger_num":"12","correct_side":1,"subjID":"JUANSEBASTIANBELTRANGONZALEZ38","gender":"0","age":"12","school":"6"},{"start_time":1551801951096,"click_time":1551801951952,"finger_time":1551801951511,"fix_duration":444.32264966096244,"trial":22,"RT":415,"MT":441,"sideResp":1,"stimulus":"img/250/equaldotanddens/L/2_Ratio_250_L_16_R_4.png","xmouse":[818,818,818,818,818,818,818,818,818,818,818,818,818,818,818,818,806,799,798,793,791,769,739,694,646,616,593,587,571,557,539,539,539,538,538,538,538,538,538,538,533,525,514],"ymouse":[629,629,629,629,629,629,629,629,629,629,629,629,629,629,625,621,589,579,578,576,573,542,489,409,326,263,204,180,145,124,103,103,103,102,99,96,96,96,96,96,92,83,76],"timestamp_mouse":[16,35,56,76,96,115,136,157,175,196,216,236,255,276,297,316,335,355,376,395,415,437,456,475,496,516,536,556,575,595,616,635,655,675,696,715,735,756,775,795,817,835,856],"xSR":741.5,"ySR":573.95,"xT1":424.9,"yT1":0,"xT2":1058.1,"yT2":0,"toosoon":0,"cond_shown":"equaldotanddens","ratio_trial":250,"smaller_num":"4","larger_num":"16","correct_side":1,"subjID":"JUANSEBASTIANBELTRANGONZALEZ38","gender":"0","age":"12","school":"6"},{"start_time":1551801953802,"click_time":1551801954452,"finger_time":1551801954211,"fix_duration":1149.7839659257309,"trial":23,"RT":409,"MT":241,"sideResp":2,"stimulus":"img/250/equaldotsize/R/6_Ratio_250_L_6_R_24.png","xmouse":[775,775,775,775,775,775,775,775,775,775,775,775,775,780,785,807,813,815,817,819,829,885,936,976,981,983,989,997,1011,1026,1042,1072,1076],"ymouse":[620,620,620,620,620,620,620,620,620,620,620,620,620,621,619,604,598,595,590,585,572,502,429,351,325,301,286,264,234,213,190,137,91],"timestamp_mouse":[10,40,51,69,90,110,130,151,169,190,209,229,250,270,290,311,329,350,369,389,409,430,450,470,489,510,529,549,570,589,611,630,649],"xSR":741.5,"ySR":573.95,"xT1":424.9,"yT1":0,"xT2":1058.1,"yT2":0,"toosoon":0,"cond_shown":"equaldotsize","ratio_trial":250,"smaller_num":"6","larger_num":"24","correct_side":2,"subjID":"JUANSEBASTIANBELTRANGONZALEZ38","gender":"0","age":"12","school":"6"},{"start_time":1551801956951,"click_time":1551801957932,"finger_time":1551801957571,"fix_duration":356.1384448661563,"trial":24,"RT":620,"MT":361,"sideResp":2,"stimulus":"img/500/equaldotsize/R/14_Ratio_500_L_5_R_10.png","xmouse":[781,781,781,781,781,781,781,781,781,781,781,781,781,781,781,781,781,781,781,781,781,781,781,781,781,781,781,781,781,787,820,887,982,1130,1165,1166,1161,1159,1159,1172,1181,1186,1188,1187,1186,1186,1186,1186,1179,1117],"ymouse":[633,633,633,633,633,633,633,633,633,633,633,633,633,633,633,633,633,633,633,633,633,633,633,633,633,633,633,633,633,633,619,577,515,377,286,274,245,230,214,182,165,145,127,103,101,101,101,101,95,65],"timestamp_mouse":[9,33,41,60,81,101,120,140,161,180,202,220,241,261,280,300,321,342,360,380,401,420,441,462,481,500,520,540,561,581,601,620,641,661,680,700,721,740,760,781,802,820,840,861,880,901,921,940,960,981],"xSR":741.5,"ySR":573.95,"xT1":424.9,"yT1":0,"xT2":1058.1,"yT2":0,"toosoon":0,"cond_shown":"equaldotsize","ratio_trial":500,"smaller_num":"5","larger_num":"10","correct_side":2,"subjID":"JUANSEBASTIANBELTRANGONZALEZ38","gender":"0","age":"12","school":"6"},{"start_time":1551801960161,"click_time":1551801961032,"finger_time":1551801960771,"fix_duration":1427.1313090235801,"trial":25,"RT":610,"MT":261,"sideResp":2,"stimulus":"img/250/equaldotsize/R/9_Ratio_250_L_3_R_12.png","xmouse":[798,798,798,798,798,798,798,798,798,798,798,798,798,798,798,798,798,798,798,798,798,798,798,798,798,798,798,798,802,822,872,924,1005,1048,1120,1159,1178,1183,1183,1183,1180,1173,1161,1150],"ymouse":[631,631,631,631,631,631,631,631,631,631,631,631,631,631,631,631,631,631,631,631,631,631,631,631,631,631,631,631,631,612,561,502,389,326,225,173,141,118,116,115,109,95,57,41],"timestamp_mouse":[13,34,51,72,90,110,132,150,170,191,210,232,250,271,292,310,330,352,371,391,412,430,450,470,490,510,532,550,571,591,610,631,652,670,690,711,730,751,770,791,810,830,852,871],"xSR":741.5,"ySR":573.95,"xT1":424.9,"yT1":0,"xT2":1058.1,"yT2":0,"toosoon":0,"cond_shown":"equaldotsize","ratio_trial":250,"smaller_num":"3","larger_num":"12","correct_side":2,"subjID":"JUANSEBASTIANBELTRANGONZALEZ38","gender":"0","age":"12","school":"6"},{"start_time":1551801962453,"click_time":1551801963131,"finger_time":1551801962931,"fix_duration":539.7678450345912,"trial":26,"RT":478,"MT":200,"sideResp":1,"stimulus":"img/500/equaldotanddens/L/11_Ratio_500_L_12_R_6.png","xmouse":[827,827,827,827,827,827,827,827,827,827,827,827,827,827,827,827,827,827,826,821,813,804,789,755,726,691,650,540,510,506,506,506,506,507],"ymouse":[642,642,642,642,642,642,642,642,642,642,642,642,642,642,642,642,642,642,639,636,630,623,612,573,529,470,396,221,168,138,127,118,102,98],"timestamp_mouse":[19,41,59,80,98,119,138,159,178,199,220,239,258,278,298,318,339,358,378,399,418,438,459,478,498,520,539,559,579,598,620,638,659,678],"xSR":741.5,"ySR":573.95,"xT1":424.9,"yT1":0,"xT2":1058.1,"yT2":0,"toosoon":0,"cond_shown":"equaldotanddens","ratio_trial":500,"smaller_num":"6","larger_num":"12","correct_side":1,"subjID":"JUANSEBASTIANBELTRANGONZALEZ38","gender":"0","age":"12","school":"6"},{"start_time":1551801965321,"click_time":1551801966213,"finger_time":1551801965631,"fix_duration":1328.1766714996522,"trial":27,"RT":310,"MT":582,"sideResp":2,"stimulus":"img/900/equaldotsize/L/4_Ratio_900_L_20_R_18.png","xmouse":[776,776,776,776,776,776,776,776,776,778,782,786,789,792,796,810,819,829,842,849,852,852,852,852,852,857,873,900,937,981,1024,1026,1026,1026,1029,1032,1035,1035,1035,1035,1035,1035,1037,1045,1068],"ymouse":[623,623,623,623,623,623,623,623,623,624,624,623,615,604,590,552,539,524,508,492,478,478,478,478,478,472,449,401,320,223,125,120,120,120,115,106,101,101,101,101,101,101,99,97,91],"timestamp_mouse":[12,39,50,70,90,110,130,151,170,191,211,231,251,270,290,310,331,351,372,391,410,430,450,471,490,512,530,550,570,590,612,630,651,671,691,710,732,751,771,790,810,830,851,870,892],"xSR":741.5,"ySR":573.95,"xT1":424.9,"yT1":0,"xT2":1058.1,"yT2":0,"toosoon":0,"cond_shown":"equaldotsize","ratio_trial":900,"smaller_num":"18","larger_num":"20","correct_side":1,"subjID":"JUANSEBASTIANBELTRANGONZALEZ38","gender":"0","age":"12","school":"6"},{"start_time":1551801968585,"click_time":1551801969391,"finger_time":1551801969073,"fix_duration":512.6833164607131,"trial":28,"RT":488,"MT":318,"sideResp":1,"stimulus":"img/750/equaldotsize/L/1_Ratio_750_L_20_R_15.png","xmouse":[792,792,792,792,792,792,792,792,792,792,792,792,792,792,792,792,792,792,792,792,792,792,792,784,770,744,677,654,638,625,607,575,513,502,502,502,502,501,501,501,497],"ymouse":[603,603,603,603,603,603,603,603,603,603,603,603,603,603,603,603,603,603,603,603,603,603,603,600,573,511,314,238,195,169,133,88,0,0,0,0,0,0,0,0,5],"timestamp_mouse":[9,31,46,67,87,107,126,147,166,186,208,226,248,266,286,306,328,347,366,387,406,428,446,466,488,506,528,546,567,586,606,626,647,666,686,706,727,747,767,787,806],"xSR":741.5,"ySR":573.95,"xT1":424.9,"yT1":0,"xT2":1058.1,"yT2":0,"toosoon":0,"cond_shown":"equaldotsize","ratio_trial":750,"smaller_num":"15","larger_num":"20","correct_side":1,"subjID":"JUANSEBASTIANBELTRANGONZALEZ38","gender":"0","age":"12","school":"6"},{"start_time":1551801970678,"click_time":1551801971612,"finger_time":1551801971331,"fix_duration":384.2566527518124,"trial":29,"RT":653,"MT":281,"sideResp":2,"stimulus":"img/900/equaldotanddens/L/2_Ratio_900_L_20_R_18.png","xmouse":[816,816,816,816,816,816,816,816,816,816,816,816,816,816,816,816,816,816,816,816,816,816,816,816,816,816,816,816,816,816,817,837,881,942,999,1045,1087,1101,1130,1153,1164,1168,1168,1168,1168,1167,1158],"ymouse":[615,615,615,615,615,615,615,615,615,615,615,615,615,615,615,615,615,615,615,615,615,615,615,615,615,615,615,615,615,615,609,587,549,488,417,344,252,212,156,114,80,46,45,45,45,44,41],"timestamp_mouse":[15,35,53,73,94,115,133,154,174,193,214,233,254,275,293,313,335,354,373,393,415,434,453,474,493,513,533,554,574,593,615,634,653,673,694,713,735,753,774,793,814,834,853,873,894,915,934],"xSR":741.5,"ySR":573.95,"xT1":424.9,"yT1":0,"xT2":1058.1,"yT2":0,"toosoon":0,"cond_shown":"equaldotanddens","ratio_trial":900,"smaller_num":"18","larger_num":"20","correct_side":1,"subjID":"JUANSEBASTIANBELTRANGONZALEZ38","gender":"0","age":"12","school":"6"},{"start_time":1551801973045,"click_time":1551801974231,"finger_time":1551801973872,"fix_duration":250,"trial":30,"RT":827,"MT":359,"sideResp":1,"stimulus":"img/900/equaldotanddens/L/1_Ratio_900_L_10_R_9.png","xmouse":[813,813,813,813,813,813,813,813,813,813,813,813,813,813,813,813,813,813,813,813,813,813,813,813,813,813,813,813,813,813,813,813,813,813,813,813,813,813,812,810,791,768,741,666,638,621,613,613,613,613,612,610,604,566,546,532,530,530,530,499],"ymouse":[630,630,630,630,630,630,630,630,630,630,630,630,630,630,630,630,630,630,630,630,630,630,630,630,630,630,630,630,630,630,630,630,630,630,628,628,626,626,625,622,598,529,432,170,59,0,0,0,0,0,1,2,6,35,48,58,61,61,61,61],"timestamp_mouse":[10,33,48,66,87,107,128,146,166,186,206,227,247,266,286,307,327,348,366,387,407,428,447,467,486,506,527,548,567,586,607,626,647,668,686,707,726,746,767,787,807,827,846,867,886,906,926,946,966,987,1007,1026,1046,1067,1087,1107,1128,1147,1167,1186],"xSR":741.5,"ySR":573.95,"xT1":424.9,"yT1":0,"xT2":1058.1,"yT2":0,"toosoon":0,"cond_shown":"equaldotanddens","ratio_trial":900,"smaller_num":"9","larger_num":"10","correct_side":1,"subjID":"JUANSEBASTIANBELTRANGONZALEZ38","gender":"0","age":"12","school":"6"},{"start_time":1551801976222,"click_time":1551801976831,"finger_time":1551801976612,"fix_duration":489.2630003278493,"trial":31,"RT":390,"MT":219,"sideResp":1,"stimulus":"img/500/equaldotsize/L/4_Ratio_500_L_18_R_9.png","xmouse":[777,777,777,777,777,777,777,777,777,777,777,777,777,777,777,776,769,760,748,741,729,724,718,701,674,596,568,553,543,532,480],"ymouse":[626,626,626,626,626,626,626,626,626,626,626,626,626,626,626,627,617,605,586,566,524,506,482,421,334,183,138,111,94,73,20],"timestamp_mouse":[13,36,49,69,90,110,130,151,170,190,209,229,249,269,289,309,329,350,369,390,410,429,451,469,490,509,529,550,571,591,609],"xSR":741.5,"ySR":573.95,"xT1":424.9,"yT1":0,"xT2":1058.1,"yT2":0,"toosoon":0,"cond_shown":"equaldotsize","ratio_trial":500,"smaller_num":"9","larger_num":"18","correct_side":1,"subjID":"JUANSEBASTIANBELTRANGONZALEZ38","gender":"0","age":"12","school":"6"},{"start_time":1551801978084,"click_time":1551801979313,"finger_time":1551801978652,"fix_duration":250,"trial":32,"RT":568,"MT":661,"sideResp":2,"stimulus":"img/500/randomdotsizeEA/L/11_Ratio_500_L_12_R_6.png","xmouse":[804,804,806,806,806,806,806,806,806,806,806,806,806,806,806,806,806,806,806,806,806,806,806,806,806,806,806,827,859,884,899,911,912,912,912,912,935,953,972,985,990,992,995,999,1007,1016,1023,1031,1031,1031,1032,1036,1038,1040,1040,1040,1042,1051,1056,1058,1058,1064],"ymouse":[618,618,618,618,618,618,618,618,618,618,618,618,618,618,618,618,618,618,618,618,618,618,618,618,618,618,618,609,587,560,526,451,433,421,404,376,267,210,169,136,125,121,118,114,101,84,66,51,51,51,51,52,52,52,52,52,53,55,56,56,56,56],"timestamp_mouse":[7,28,47,67,89,108,129,149,169,187,207,228,248,267,288,308,328,348,368,388,407,428,447,467,489,507,528,547,567,587,607,628,647,667,688,709,728,747,767,788,807,828,847,867,888,908,927,947,967,988,1008,1028,1047,1067,1088,1107,1129,1147,1167,1188,1207,1228],"xSR":741.5,"ySR":573.95,"xT1":424.9,"yT1":0,"xT2":1058.1,"yT2":0,"toosoon":0,"cond_shown":"randomdotsizeEA","ratio_trial":500,"smaller_num":"6","larger_num":"12","correct_side":1,"subjID":"JUANSEBASTIANBELTRANGONZALEZ38","gender":"0","age":"12","school":"6"},{"start_time":1551801983764,"click_time":1551801984652,"finger_time":1551801984212,"fix_duration":250,"trial":33,"RT":448,"MT":440,"sideResp":2,"stimulus":"img/250/randomdotsizeEA/R/11_Ratio_250_L_3_R_12.png","xmouse":[797,797,797,797,797,797,797,797,797,797,797,797,797,797,797,797,797,797,795,784,772,760,746,746,746,746,746,746,746,746,746,746,746,754,793,846,897,931,931,927,923,929,1021,1105,1139],"ymouse":[642,642,642,642,642,642,642,642,642,642,642,642,642,642,642,642,642,642,642,630,605,583,556,555,555,555,555,555,555,555,555,555,554,554,552,543,522,477,457,439,420,382,219,111,80],"timestamp_mouse":[9,30,48,68,87,107,127,149,167,188,209,227,247,268,287,309,329,347,368,389,409,428,448,467,487,508,527,548,568,587,609,627,648,668,688,707,728,748,767,788,807,828,848,867,887],"xSR":741.5,"ySR":573.95,"xT1":424.9,"yT1":0,"xT2":1058.1,"yT2":0,"toosoon":0,"cond_shown":"randomdotsizeEA","ratio_trial":250,"smaller_num":"3","larger_num":"12","correct_side":2,"subjID":"JUANSEBASTIANBELTRANGONZALEZ38","gender":"0","age":"12","school":"6"},{"start_time":1551801986492,"click_time":1551801987652,"finger_time":1551801987251,"fix_duration":457.61657842906743,"trial":34,"RT":759,"MT":401,"sideResp":1,"stimulus":"img/500/equaldotsize/L/8_Ratio_500_L_8_R_4.png","xmouse":[820,820,820,820,820,820,820,820,820,820,820,820,820,820,820,820,820,820,820,820,820,820,820,820,820,820,820,820,820,820,820,821,821,821,819,816,809,799,777,752,717,665,661,659,656,649,639,621,615,601,591,577,571,559,547,539,535,525,506],"ymouse":[616,616,616,616,616,616,616,616,616,616,616,616,616,616,616,616,616,616,616,616,615,615,615,615,615,615,615,615,615,615,615,615,608,604,601,598,592,583,561,527,463,354,328,309,294,274,248,209,192,165,154,141,136,128,121,116,112,102,89],"timestamp_mouse":[1,19,40,59,80,100,119,139,159,179,199,220,240,259,279,299,320,339,360,380,399,419,440,459,481,499,519,539,560,579,601,619,640,659,679,700,719,740,759,780,799,820,839,859,880,899,920,941,959,980,999,1021,1039,1059,1080,1099,1120,1139,1160],"xSR":741.5,"ySR":573.95,"xT1":424.9,"yT1":0,"xT2":1058.1,"yT2":0,"toosoon":0,"cond_shown":"equaldotsize","ratio_trial":500,"smaller_num":"4","larger_num":"8","correct_side":1,"subjID":"JUANSEBASTIANBELTRANGONZALEZ38","gender":"0","age":"12","school":"6"},{"start_time":1551801989259,"click_time":1551801990912,"finger_time":1551801989873,"fix_duration":306.18620486844117,"trial":35,"RT":614,"MT":1039,"sideResp":1,"stimulus":"img/750/randomdotsizeEA/L/9_Ratio_750_L_4_R_3.png","xmouse":[813,813,813,813,813,813,813,813,813,813,813,813,813,813,813,813,813,813,813,813,813,813,813,813,810,810,816,831,834,834,843,861,901,908,910,910,910,928,953,956,961,961,961,961,961,960,958,947,946,946,943,932,915,881,861,838,809,736,700,658,611,599,595,595,595,594,591,569,550,546,542,537,531,528,528,528,528,528,528,528,528,528,522],"ymouse":[629,629,629,629,629,629,629,629,629,629,629,629,629,629,629,629,629,629,629,629,629,629,629,629,623,619,611,593,579,575,549,517,425,406,402,402,402,388,360,352,341,341,341,341,341,343,348,364,369,370,372,377,384,390,390,388,376,316,276,208,114,92,82,80,79,78,74,67,66,66,66,69,69,69,69,69,69,69,69,69,69,69,71],"timestamp_mouse":[12,33,52,73,92,112,132,153,172,193,213,232,253,273,294,312,333,353,372,392,413,433,453,472,493,512,533,553,572,592,614,633,653,672,692,714,732,753,772,792,813,833,853,872,892,912,933,953,972,992,1012,1033,1053,1073,1093,1112,1133,1152,1172,1192,1212,1232,1253,1272,1294,1314,1332,1352,1372,1393,1412,1433,1453,1472,1493,1513,1533,1552,1573,1592,1612,1632,1652],"xSR":741.5,"ySR":573.95,"xT1":424.9,"yT1":0,"xT2":1058.1,"yT2":0,"toosoon":0,"cond_shown":"randomdotsizeEA","ratio_trial":750,"smaller_num":"3","larger_num":"4","correct_side":1,"subjID":"JUANSEBASTIANBELTRANGONZALEZ38","gender":"0","age":"12","school":"6"},{"start_time":1551801993561,"click_time":1551801994632,"finger_time":1551801994032,"fix_duration":1367.5397470845116,"trial":36,"RT":471,"MT":600,"sideResp":2,"stimulus":"img/500/randomdotsizeEA/R/9_Ratio_500_L_2_R_4.png","xmouse":[797,797,797,797,797,797,797,797,797,797,797,797,797,797,797,797,797,794,788,783,781,778,772,756,738,727,723,722,722,722,722,722,746,811,893,998,1098,1172,1202,1194,1174,1155,1137,1136,1136,1137,1131,1120,1090,1081,1081,1081,1083,1091],"ymouse":[623,623,623,623,623,623,623,623,623,623,623,623,623,623,623,623,623,617,612,605,602,595,587,562,537,523,512,511,511,511,511,511,510,506,493,463,417,369,318,294,268,249,229,218,201,185,165,151,123,114,114,113,109,94],"timestamp_mouse":[11,34,50,71,92,110,130,150,170,192,212,231,250,271,291,311,330,351,370,392,411,430,450,471,490,511,530,551,570,590,611,631,651,670,690,712,732,751,770,790,811,830,851,870,890,910,932,951,970,991,1012,1031,1051,1071],"xSR":741.5,"ySR":573.95,"xT1":424.9,"yT1":0,"xT2":1058.1,"yT2":0,"toosoon":0,"cond_shown":"randomdotsizeEA","ratio_trial":500,"smaller_num":"2","larger_num":"4","correct_side":2,"subjID":"JUANSEBASTIANBELTRANGONZALEZ38","gender":"0","age":"12","school":"6"},{"start_time":1551801995862,"click_time":1551801996672,"finger_time":1551801996511,"fix_duration":250,"trial":37,"RT":649,"MT":161,"sideResp":1,"stimulus":"img/900/equaldotsize/L/1_Ratio_900_L_10_R_9.png","xmouse":[789,789,789,789,789,789,790,792,796,806,817,825,827,827,827,827,827,827,827,827,827,827,827,827,827,826,826,826,823,814,798,771,669,621,578,552,535,525,502,468,447],"ymouse":[635,634,633,633,633,633,633,633,631,629,626,624,624,624,624,624,624,624,624,624,624,624,624,624,624,624,624,624,624,621,612,592,503,456,391,341,303,277,225,145,99],"timestamp_mouse":[10,36,50,69,90,111,130,149,170,189,209,231,250,270,290,311,330,350,369,391,410,429,449,471,491,510,529,549,571,590,610,630,649,669,690,711,729,749,770,789,809],"xSR":741.5,"ySR":573.95,"xT1":424.9,"yT1":0,"xT2":1058.1,"yT2":0,"toosoon":0,"cond_shown":"equaldotsize","ratio_trial":900,"smaller_num":"9","larger_num":"10","correct_side":1,"subjID":"JUANSEBASTIANBELTRANGONZALEZ38","gender":"0","age":"12","school":"6"},{"start_time":1551801999905,"click_time":1551802001152,"finger_time":1551802000611,"fix_duration":430.6706685538253,"trial":38,"RT":706,"MT":541,"sideResp":1,"stimulus":"img/750/equaldotanddens/L/1_Ratio_750_L_20_R_15.png","xmouse":[769,769,769,769,769,769,769,769,769,769,769,769,769,769,769,769,769,769,769,769,769,769,769,769,769,769,769,769,769,769,769,769,769,761,756,726,710,698,687,675,658,647,638,630,623,605,597,578,548,535,528,528,528,528,528,527,527,527,527,527,527,526,520],"ymouse":[634,634,634,634,634,634,634,634,634,634,634,634,634,634,634,634,634,634,634,634,634,634,634,634,634,634,634,634,634,634,634,634,634,621,609,526,488,464,441,405,356,336,322,309,292,246,216,170,101,76,67,67,67,67,67,66,66,66,66,66,66,66,66],"timestamp_mouse":[21,52,52,68,87,107,126,146,166,188,206,226,247,267,287,306,327,346,366,386,408,427,448,466,486,506,526,547,568,586,606,627,648,666,686,706,726,747,767,786,806,828,846,867,886,907,926,946,966,987,1007,1026,1046,1066,1087,1106,1126,1146,1167,1188,1207,1227,1247],"xSR":741.5,"ySR":573.95,"xT1":424.9,"yT1":0,"xT2":1058.1,"yT2":0,"toosoon":0,"cond_shown":"equaldotanddens","ratio_trial":750,"smaller_num":"15","larger_num":"20","correct_side":1,"subjID":"JUANSEBASTIANBELTRANGONZALEZ38","gender":"0","age":"12","school":"6"},{"start_time":1551802004649,"click_time":1551802005651,"finger_time":1551802005293,"fix_duration":1236.4358107016228,"trial":39,"RT":644,"MT":358,"sideResp":2,"stimulus":"img/750/equaldotanddens/R/7_Ratio_750_L_3_R_4.png","xmouse":[785,785,785,785,785,785,785,785,785,785,785,785,785,785,785,785,785,785,785,785,785,785,785,785,785,785,785,785,785,785,784,803,862,1033,1080,1089,1087,1080,1070,1068,1068,1069,1076,1101,1114,1122,1123,1124,1124,1125,1130],"ymouse":[620,620,620,620,620,620,620,620,620,620,620,620,620,620,620,620,620,620,620,620,620,620,620,620,620,620,620,620,620,620,621,613,580,456,395,367,354,343,326,316,304,282,263,207,166,137,122,119,119,107,75],"timestamp_mouse":[10,28,44,62,82,104,123,142,164,182,202,223,243,262,283,302,322,343,362,382,402,422,442,463,483,503,522,542,562,583,604,622,644,662,682,702,723,744,762,782,802,823,844,862,882,903,923,942,964,983,1002],"xSR":741.5,"ySR":573.95,"xT1":424.9,"yT1":0,"xT2":1058.1,"yT2":0,"toosoon":0,"cond_shown":"equaldotanddens","ratio_trial":750,"smaller_num":"3","larger_num":"4","correct_side":2,"subjID":"JUANSEBASTIANBELTRANGONZALEZ38","gender":"0","age":"12","school":"6"},{"start_time":1551802009583,"click_time":1551802010691,"finger_time":1551802010312,"fix_duration":250,"trial":40,"RT":729,"MT":379,"sideResp":1,"stimulus":"img/900/equaldotanddens/L/4_Ratio_900_L_20_R_18.png","xmouse":[803,803,803,803,803,803,800,799,799,800,801,801,801,801,801,801,801,801,801,801,801,801,801,801,801,801,801,801,801,801,801,801,802,802,805,810,810,784,722,628,551,520,516,516,516,516,515,510,513,519,522,529,532,532,522,511],"ymouse":[615,615,615,615,615,615,613,602,597,595,595,595,595,595,595,595,595,595,595,595,595,595,595,595,595,595,595,595,595,595,595,595,595,595,592,585,549,505,430,344,284,270,268,268,267,263,256,227,215,205,199,188,175,153,118,96],"timestamp_mouse":[10,33,49,68,89,109,128,148,168,188,208,229,248,268,289,309,329,348,369,388,408,429,448,468,488,508,528,548,568,588,608,628,648,668,689,708,729,748,768,788,808,828,848,868,888,908,928,949,968,988,1008,1029,1048,1068,1088,1108],"xSR":741.5,"ySR":573.95,"xT1":424.9,"yT1":0,"xT2":1058.1,"yT2":0,"toosoon":0,"cond_shown":"equaldotanddens","ratio_trial":900,"smaller_num":"18","larger_num":"20","correct_side":1,"subjID":"JUANSEBASTIANBELTRANGONZALEZ38","gender":"0","age":"12","school":"6"},{"start_time":1551802011921,"click_time":1551802013131,"finger_time":1551802012651,"fix_duration":467.83565353343835,"trial":41,"RT":730,"MT":480,"sideResp":2,"stimulus":"img/500/randomdotsizeEA/R/12_Ratio_500_L_1_R_2.png","xmouse":[788,788,789,790,790,790,790,790,790,790,790,790,790,790,790,790,790,790,790,790,788,788,788,788,788,788,788,788,788,788,788,788,788,788,789,809,858,884,894,898,904,909,912,915,919,928,945,956,962,972,980,994,1007,1018,1031,1036,1041,1046,1053,1072,1078],"ymouse":[638,638,637,636,636,635,635,635,634,634,634,634,634,634,634,634,634,634,629,623,618,618,618,618,618,618,618,618,618,618,618,618,618,618,617,614,593,574,553,530,474,438,410,385,361,323,286,260,241,226,221,215,206,192,165,154,147,139,129,104,96],"timestamp_mouse":[10,37,50,71,91,111,130,150,170,190,210,230,251,270,290,310,331,350,370,390,410,430,450,470,491,510,530,550,570,591,610,630,651,670,690,710,730,750,771,790,810,832,850,870,890,910,931,952,971,991,1010,1031,1052,1070,1091,1110,1130,1151,1170,1191,1210],"xSR":741.5,"ySR":573.95,"xT1":424.9,"yT1":0,"xT2":1058.1,"yT2":0,"toosoon":0,"cond_shown":"randomdotsizeEA","ratio_trial":500,"smaller_num":"1","larger_num":"2","correct_side":2,"subjID":"JUANSEBASTIANBELTRANGONZALEZ38","gender":"0","age":"12","school":"6"},{"start_time":1551802014372,"click_time":1551802016131,"finger_time":1551802015311,"fix_duration":378.3354226288338,"trial":42,"RT":939,"MT":820,"sideResp":2,"stimulus":"img/250/equaldotanddens/R/8_Ratio_250_L_1_R_4.png","xmouse":[805,805,809,819,820,827,828,830,830,830,830,830,830,830,830,830,830,830,830,830,830,830,830,830,830,830,830,830,830,830,828,826,824,824,824,824,824,824,824,824,824,824,824,824,824,823,826,828,822,820,820,820,820,820,820,820,827,975,1087,1169,1217,1236,1244,1260,1276,1281,1283,1283,1283,1282,1273,1255,1225,1180,1177,1177,1177,1177,1177,1177,1177,1177,1177,1177,1177,1176,1167,1160,1150],"ymouse":[615,615,615,614,614,613,613,612,612,612,612,612,612,612,612,612,612,612,612,612,612,612,612,612,612,612,612,612,612,612,613,613,614,614,614,614,614,614,614,614,614,614,614,614,614,614,593,539,521,516,516,516,516,516,519,519,519,379,288,227,188,165,150,102,68,60,58,58,58,58,61,71,79,82,80,77,76,76,76,76,76,76,76,76,76,75,75,76,76],"timestamp_mouse":[1,19,39,60,79,100,120,140,159,179,199,220,240,259,279,300,320,339,359,380,401,419,440,459,479,500,519,539,560,579,599,619,639,660,680,700,721,739,759,779,800,819,839,859,880,900,919,939,959,980,999,1019,1039,1060,1080,1100,1120,1140,1159,1179,1200,1220,1239,1260,1280,1299,1321,1340,1360,1379,1400,1419,1439,1459,1479,1499,1519,1539,1560,1580,1599,1620,1639,1660,1679,1699,1720,1739,1759],"xSR":741.5,"ySR":573.95,"xT1":424.9,"yT1":0,"xT2":1058.1,"yT2":0,"toosoon":0,"cond_shown":"equaldotanddens","ratio_trial":250,"smaller_num":"1","larger_num":"4","correct_side":2,"subjID":"JUANSEBASTIANBELTRANGONZALEZ38","gender":"0","age":"12","school":"6"},{"start_time":1551802017991,"click_time":1551802019251,"finger_time":1551802018732,"fix_duration":858.6648016409803,"trial":43,"RT":741,"MT":519,"sideResp":2,"stimulus":"img/750/equaldotanddens/R/15_Ratio_750_L_9_R_12.png","xmouse":[810,816,823,823,823,823,823,823,823,823,823,823,823,823,823,823,823,823,823,823,823,823,823,823,823,823,823,823,823,823,823,823,823,823,824,822,822,822,822,822,828,846,854,859,870,876,880,886,892,900,909,919,919,920,920,920,923,949,968,983,996,1010,1048,1061],"ymouse":[629,629,629,629,629,629,629,629,629,629,629,629,629,629,629,629,629,629,629,629,629,629,629,629,629,629,629,629,629,629,629,629,629,629,627,607,589,559,542,516,467,342,290,257,217,193,170,136,120,107,95,83,82,81,81,81,81,81,81,81,80,77,65,59],"timestamp_mouse":[2,21,41,61,80,100,120,141,160,181,200,220,240,260,280,301,320,340,360,380,401,420,441,460,480,501,520,541,561,580,600,620,640,660,680,700,721,741,761,781,800,820,840,861,881,900,920,940,960,981,1001,1021,1040,1060,1080,1101,1120,1140,1160,1181,1201,1221,1241,1260],"xSR":741.5,"ySR":573.95,"xT1":424.9,"yT1":0,"xT2":1058.1,"yT2":0,"toosoon":0,"cond_shown":"equaldotanddens","ratio_trial":750,"smaller_num":"9","larger_num":"12","correct_side":2,"subjID":"JUANSEBASTIANBELTRANGONZALEZ38","gender":"0","age":"12","school":"6"},{"start_time":1551802021355,"click_time":1551802022312,"finger_time":1551802021812,"fix_duration":1120.9608484076787,"trial":44,"RT":457,"MT":500,"sideResp":1,"stimulus":"img/500/equaldotsize/L/8_Ratio_500_L_8_R_4.png","xmouse":[783,783,783,783,783,783,783,783,783,783,783,783,783,783,783,784,787,796,804,804,801,792,746,674,613,558,519,505,505,502,500,497,488,482,480,480,480,480,480,480,481,482,484,485,485,485,485,485],"ymouse":[652,652,652,652,652,652,652,652,652,652,652,652,652,652,652,652,648,636,619,613,596,581,521,439,366,302,249,202,191,179,172,163,145,135,131,131,127,119,116,113,111,109,106,105,105,105,103,98],"timestamp_mouse":[16,38,56,76,96,117,136,156,176,196,216,237,257,276,296,317,336,356,377,397,416,436,457,476,496,517,536,557,576,597,617,637,657,676,696,718,737,757,776,796,817,837,857,876,896,916,937,957],"xSR":741.5,"ySR":573.95,"xT1":424.9,"yT1":0,"xT2":1058.1,"yT2":0,"toosoon":0,"cond_shown":"equaldotsize","ratio_trial":500,"smaller_num":"4","larger_num":"8","correct_side":1,"subjID":"JUANSEBASTIANBELTRANGONZALEZ38","gender":"0","age":"12","school":"6"},{"start_time":1551802025518,"click_time":1551802026551,"finger_time":1551802026012,"fix_duration":905.6809251606031,"trial":45,"RT":494,"MT":539,"sideResp":1,"stimulus":"img/900/randomdotsizeEA/R/9_Ratio_900_L_18_R_20.png","xmouse":[794,794,794,794,794,794,794,794,794,794,794,794,794,794,794,794,794,794,794,794,794,804,817,837,857,862,866,868,872,887,890,890,887,878,836,788,739,685,656,629,565,549,533,520,511,487,487,496,505,518,518,518],"ymouse":[650,650,650,650,650,650,650,650,650,650,650,650,650,650,650,650,650,650,650,650,650,638,612,577,526,508,494,489,480,439,417,397,381,368,359,359,359,353,349,343,293,280,269,259,251,232,227,214,205,169,122,65],"timestamp_mouse":[18,41,53,74,94,113,133,153,174,194,214,233,253,273,294,313,333,353,374,394,414,433,454,474,494,513,534,554,574,594,613,633,653,673,694,713,733,753,774,793,814,833,853,873,893,913,934,954,973,994,1013,1033],"xSR":741.5,"ySR":573.95,"xT1":424.9,"yT1":0,"xT2":1058.1,"yT2":0,"toosoon":0,"cond_shown":"randomdotsizeEA","ratio_trial":900,"smaller_num":"18","larger_num":"20","correct_side":2,"subjID":"JUANSEBASTIANBELTRANGONZALEZ38","gender":"0","age":"12","school":"6"},{"start_time":1551802030018,"click_time":1551802031013,"finger_time":1551802030592,"fix_duration":324.4134249032643,"trial":46,"RT":574,"MT":421,"sideResp":1,"stimulus":"img/500/equaldotanddens/L/10_Ratio_500_L_4_R_2.png","xmouse":[783,783,783,783,783,783,783,783,783,783,783,783,783,783,783,783,783,783,783,783,783,783,783,783,783,776,767,759,745,719,629,540,473,396,355,338,338,338,338,339,344,349,359,371,385,387,391,398,407,425],"ymouse":[640,640,640,640,640,640,640,640,640,640,640,640,640,640,640,640,640,640,640,640,640,640,640,640,637,613,594,577,553,511,375,252,170,83,37,8,7,7,7,6,3,1,0,0,0,1,4,7,11,17],"timestamp_mouse":[13,33,53,73,94,114,134,153,174,194,213,235,254,273,294,313,333,353,373,393,413,433,454,473,493,514,533,554,574,593,614,633,653,674,694,714,734,753,774,794,813,834,854,874,895,913,935,953,973,994],"xSR":741.5,"ySR":573.95,"xT1":424.9,"yT1":0,"xT2":1058.1,"yT2":0,"toosoon":0,"cond_shown":"equaldotanddens","ratio_trial":500,"smaller_num":"2","larger_num":"4","correct_side":1,"subjID":"JUANSEBASTIANBELTRANGONZALEZ38","gender":"0","age":"12","school":"6"},{"start_time":1551802034348,"click_time":1551802034891,"finger_time":1551802034673,"fix_duration":974.4936705670268,"trial":47,"RT":325,"MT":218,"sideResp":1,"stimulus":"img/900/equaldotsize/L/10_Ratio_900_L_20_R_18.png","xmouse":[791,791,791,791,791,791,791,791,791,791,791,791,791,792,808,809,809,809,788,764,723,675,631,560,542,532,526,513],"ymouse":[638,638,638,638,638,638,638,638,638,638,638,638,638,637,603,583,559,540,501,478,451,424,394,327,294,216,151,93],"timestamp_mouse":[10,31,44,63,84,104,123,143,163,183,203,224,243,263,283,304,325,343,364,383,404,423,444,465,483,503,523,543],"xSR":741.5,"ySR":573.95,"xT1":424.9,"yT1":0,"xT2":1058.1,"yT2":0,"toosoon":0,"cond_shown":"equaldotsize","ratio_trial":900,"smaller_num":"18","larger_num":"20","correct_side":1,"subjID":"JUANSEBASTIANBELTRANGONZALEZ38","gender":"0","age":"12","school":"6"},{"start_time":1551802036956,"click_time":1551802037832,"finger_time":1551802037532,"fix_duration":1023.7104895036615,"trial":48,"RT":576,"MT":300,"sideResp":1,"stimulus":"img/900/randomdotsizeEA/R/14_Ratio_900_L_18_R_20.png","xmouse":[791,791,791,791,791,791,791,791,791,791,791,791,791,791,791,791,791,791,791,791,791,791,791,791,791,791,792,792,746,700,649,609,585,575,553,537,531,531,529,525,518,513,511,511],"ymouse":[650,650,650,650,650,650,650,650,650,650,650,650,650,650,650,650,650,650,650,650,650,650,650,650,650,650,638,632,538,458,385,325,281,257,228,213,206,200,196,188,176,162,147,99],"timestamp_mouse":[15,39,56,75,96,115,136,155,176,196,216,235,255,275,295,315,335,355,375,396,415,436,455,475,496,515,535,555,576,595,616,635,657,675,696,716,735,756,775,795,815,835,855,875],"xSR":741.5,"ySR":573.95,"xT1":424.9,"yT1":0,"xT2":1058.1,"yT2":0,"toosoon":0,"cond_shown":"randomdotsizeEA","ratio_trial":900,"smaller_num":"18","larger_num":"20","correct_side":2,"subjID":"JUANSEBASTIANBELTRANGONZALEZ38","gender":"0","age":"12","school":"6"},{"start_time":1551802039065,"click_time":1551802040112,"finger_time":1551802039431,"fix_duration":511.3982630179501,"trial":49,"RT":366,"MT":681,"sideResp":1,"stimulus":"img/750/equaldotsize/R/15_Ratio_750_L_9_R_12.png","xmouse":[800,800,800,800,800,800,800,800,801,804,806,807,807,807,807,809,813,823,854,878,886,890,893,893,894,894,894,894,894,894,894,894,894,894,894,894,888,867,852,839,833,827,805,780,752,724,700,645,612,583,553,536,523],"ymouse":[627,627,627,627,627,627,627,627,629,629,629,630,630,630,630,631,631,632,627,609,598,589,581,569,565,559,550,533,531,531,531,531,531,531,529,524,505,452,420,388,375,370,369,370,374,375,372,319,272,224,160,122,81],"timestamp_mouse":[9,30,46,67,86,106,127,147,166,186,207,226,247,267,287,306,327,347,366,386,406,427,446,467,486,507,526,548,566,586,608,626,647,666,687,707,727,747,766,786,806,826,846,866,886,906,926,947,966,986,1007,1026,1047],"xSR":741.5,"ySR":573.95,"xT1":424.9,"yT1":0,"xT2":1058.1,"yT2":0,"toosoon":0,"cond_shown":"equaldotsize","ratio_trial":750,"smaller_num":"9","larger_num":"12","correct_side":2,"subjID":"JUANSEBASTIANBELTRANGONZALEZ38","gender":"0","age":"12","school":"6"},{"start_time":1551802042287,"click_time":1551802043311,"finger_time":1551802042991,"fix_duration":1113.184201559621,"trial":50,"RT":704,"MT":320,"sideResp":2,"stimulus":"img/900/equaldotsize/R/7_Ratio_900_L_9_R_10.png","xmouse":[820,820,820,820,820,820,820,820,820,820,820,820,820,820,820,820,820,820,820,820,820,820,820,820,820,820,820,820,820,820,820,820,820,823,831,858,916,948,965,969,972,987,1003,1017,1028,1033,1036,1039,1052,1073,1092,1105],"ymouse":[614,614,614,614,614,614,614,614,614,614,614,614,614,614,614,614,614,614,614,614,614,614,614,614,614,614,614,614,614,614,614,614,614,612,604,568,436,365,316,296,275,218,175,148,128,119,116,116,111,106,100,95],"timestamp_mouse":[8,25,44,64,84,105,125,144,164,184,205,224,244,264,284,304,324,345,364,384,404,424,444,464,484,504,525,544,564,584,604,624,644,664,684,704,725,744,765,785,804,824,844,864,885,904,925,944,965,984,1004,1024],"xSR":741.5,"ySR":573.95,"xT1":424.9,"yT1":0,"xT2":1058.1,"yT2":0,"toosoon":0,"cond_shown":"equaldotsize","ratio_trial":900,"smaller_num":"9","larger_num":"10","correct_side":2,"subjID":"JUANSEBASTIANBELTRANGONZALEZ38","gender":"0","age":"12","school":"6"},{"start_time":1551802044399,"click_time":1551802045152,"finger_time":1551802045011,"fix_duration":265.6395043552434,"trial":51,"RT":612,"MT":141,"sideResp":2,"stimulus":"img/250/equaldotanddens/R/4_Ratio_250_L_3_R_12.png","xmouse":[813,813,813,813,813,813,813,813,813,813,813,813,813,813,813,813,813,813,813,813,813,813,813,813,813,813,813,813,817,823,846,933,989,1070,1090,1095,1113,1144],"ymouse":[656,656,656,656,656,656,656,656,656,656,656,656,656,656,656,656,656,656,656,656,656,656,656,656,656,656,656,656,656,652,633,493,384,242,196,181,142,96],"timestamp_mouse":[13,32,52,72,93,112,132,152,173,192,213,233,253,273,292,313,333,352,372,393,412,432,452,472,492,512,532,553,572,592,612,632,652,673,692,712,732,753],"xSR":741.5,"ySR":573.95,"xT1":424.9,"yT1":0,"xT2":1058.1,"yT2":0,"toosoon":0,"cond_shown":"equaldotanddens","ratio_trial":250,"smaller_num":"3","larger_num":"12","correct_side":2,"subjID":"JUANSEBASTIANBELTRANGONZALEZ38","gender":"0","age":"12","school":"6"},{"start_time":1551802046911,"click_time":1551802047732,"finger_time":1551802047451,"fix_duration":337.4794115410754,"trial":52,"RT":540,"MT":281,"sideResp":1,"stimulus":"img/500/randomdotsizeEA/L/10_Ratio_500_L_4_R_2.png","xmouse":[816,816,816,816,816,816,816,816,816,816,816,819,820,823,824,825,827,829,830,832,833,833,833,833,833,833,828,790,736,679,620,601,588,578,573,568,566,563,559,555,547,517],"ymouse":[598,598,598,598,598,598,598,598,598,598,598,598,598,597,597,597,596,596,596,595,594,594,594,594,593,592,574,534,489,438,350,297,241,189,148,114,83,70,62,55,46,12],"timestamp_mouse":[8,34,40,60,80,100,120,140,160,181,201,220,241,261,280,300,320,340,361,381,401,421,440,461,481,500,520,540,561,581,601,620,640,660,681,701,721,740,761,781,800,821],"xSR":741.5,"ySR":573.95,"xT1":424.9,"yT1":0,"xT2":1058.1,"yT2":0,"toosoon":0,"cond_shown":"randomdotsizeEA","ratio_trial":500,"smaller_num":"2","larger_num":"4","correct_side":1,"subjID":"JUANSEBASTIANBELTRANGONZALEZ38","gender":"0","age":"12","school":"6"},{"start_time":1551802049552,"click_time":1551802050391,"finger_time":1551802050072,"fix_duration":1058.5712718735956,"trial":53,"RT":520,"MT":319,"sideResp":2,"stimulus":"img/500/equaldotanddens/R/3_Ratio_500_L_10_R_20.png","xmouse":[816,816,816,816,816,814,814,814,814,814,814,814,814,814,814,814,814,814,814,814,814,814,813,813,813,817,828,859,897,976,993,1001,1004,1017,1026,1040,1046,1053,1065,1088,1094,1097,1103],"ymouse":[629,629,629,629,629,629,629,629,629,629,629,629,629,629,629,629,629,629,629,629,629,629,629,625,613,591,551,481,395,187,114,65,33,0,0,0,0,0,0,0,0,0,7],"timestamp_mouse":[1,19,40,60,79,99,119,140,159,180,199,219,240,259,279,298,319,339,359,379,399,419,439,460,480,499,520,540,560,579,599,619,639,660,679,700,719,739,759,779,800,819,839],"xSR":741.5,"ySR":573.95,"xT1":424.9,"yT1":0,"xT2":1058.1,"yT2":0,"toosoon":0,"cond_shown":"equaldotanddens","ratio_trial":500,"smaller_num":"10","larger_num":"20","correct_side":2,"subjID":"JUANSEBASTIANBELTRANGONZALEZ38","gender":"0","age":"12","school":"6"},{"start_time":1551802051601,"click_time":1551802052312,"finger_time":1551802052171,"fix_duration":287.0043649732975,"trial":54,"RT":570,"MT":141,"sideResp":2,"stimulus":"img/500/equaldotsize/R/2_Ratio_500_L_3_R_6.png","xmouse":[804,804,804,804,804,804,804,804,804,804,804,804,804,804,804,804,804,804,804,804,804,804,804,804,804,805,810,822,848,885,920,991,1020,1039,1062,1119],"ymouse":[627,627,627,627,627,627,627,627,627,627,627,627,627,627,627,627,627,627,627,627,627,627,627,627,627,625,620,610,591,559,514,363,270,199,128,16],"timestamp_mouse":[10,33,50,70,91,111,130,150,170,190,211,230,250,271,291,310,330,350,370,390,410,431,450,470,490,510,530,550,570,590,610,631,651,670,690,711],"xSR":741.5,"ySR":573.95,"xT1":424.9,"yT1":0,"xT2":1058.1,"yT2":0,"toosoon":0,"cond_shown":"equaldotsize","ratio_trial":500,"smaller_num":"3","larger_num":"6","correct_side":2,"subjID":"JUANSEBASTIANBELTRANGONZALEZ38","gender":"0","age":"12","school":"6"},{"start_time":1551802054569,"click_time":1551802055512,"finger_time":1551802055011,"fix_duration":1197.2691323825643,"trial":55,"RT":442,"MT":501,"sideResp":2,"stimulus":"img/750/equaldotanddens/R/11_Ratio_750_L_12_R_16.png","xmouse":[785,785,785,785,785,785,785,785,785,785,785,785,785,785,785,785,785,785,785,782,776,768,759,753,753,753,753,753,756,775,823,892,958,1049,1050,1049,1047,1047,1059,1066,1072,1074,1074,1074,1075,1078,1083,1104],"ymouse":[610,612,612,612,612,612,612,612,612,612,612,612,612,612,612,612,612,612,612,608,598,582,566,556,556,556,556,556,555,552,544,520,484,334,302,281,257,233,148,128,118,117,117,117,116,113,109,94],"timestamp_mouse":[2,22,42,62,82,103,123,142,163,183,203,223,242,262,282,303,322,343,362,382,402,422,442,462,482,502,522,542,563,582,602,623,643,662,682,702,723,743,762,783,803,822,842,862,882,902,922,943],"xSR":741.5,"ySR":573.95,"xT1":424.9,"yT1":0,"xT2":1058.1,"yT2":0,"toosoon":0,"cond_shown":"equaldotanddens","ratio_trial":750,"smaller_num":"12","larger_num":"16","correct_side":2,"subjID":"JUANSEBASTIANBELTRANGONZALEZ38","gender":"0","age":"12","school":"6"},{"start_time":1551802057601,"click_time":1551802058511,"finger_time":1551802058191,"fix_duration":1009.9679796993167,"trial":56,"RT":590,"MT":320,"sideResp":2,"stimulus":"img/750/randomdotsizeEA/L/10_Ratio_750_L_4_R_3.png","xmouse":[816,816,816,816,816,816,816,816,816,816,816,816,816,816,816,816,816,816,816,816,816,816,816,816,816,816,816,820,825,844,869,900,911,933,970,1039,1162,1183,1187,1187,1187,1187,1184,1175,1163,1145],"ymouse":[625,625,625,625,625,625,625,625,625,625,625,625,625,625,625,625,625,625,625,625,625,625,625,625,625,625,625,621,617,598,570,509,470,424,360,279,142,118,113,113,113,112,107,100,89,81],"timestamp_mouse":[10,43,50,70,90,111,131,150,170,190,211,230,250,270,290,311,330,350,370,390,411,430,451,471,492,510,530,552,571,590,610,631,650,670,691,710,731,751,770,791,811,830,850,870,891,910],"xSR":741.5,"ySR":573.95,"xT1":424.9,"yT1":0,"xT2":1058.1,"yT2":0,"toosoon":0,"cond_shown":"randomdotsizeEA","ratio_trial":750,"smaller_num":"3","larger_num":"4","correct_side":1,"subjID":"JUANSEBASTIANBELTRANGONZALEZ38","gender":"0","age":"12","school":"6"},{"start_time":1551802060290,"click_time":1551802064192,"finger_time":1551802062911,"fix_duration":917.4697971604702,"trial":57,"RT":2621,"MT":1281,"sideResp":2,"stimulus":"img/900/randomdotsizeEA/R/3_Ratio_900_L_9_R_10.png","xmouse":[841,841,841,841,841,841,841,841,841,841,841,841,841,841,841,841,841,841,833,824,822,821,821,821,821,821,821,821,821,821,821,821,821,819,817,815,808,808,808,808,805,803,795,795,795,795,795,795,795,794,790,782,780,778,777,776,759,757,757,757,757,757,760,765,768,770,771,771,771,771,771,771,771,771,771,771,771,771,771,771,771,771,771,771,771,771,771,774,774,775,775,776,776,776,776,776,776,776,776,776,776,776,776,776,776,776,776,776,775,770,769,769,769,769,769,769,769,769,769,769,769,769,769,769,769,769,769,769,769,768,756,729,722,715,711,704,685,574,560,560,560,560,560,560,560,560,560,560,560,560,560,560,560,560,560,560,560,560,560,557,547,540,540,540,540,540,540,538,538,538,538,537,536,534,533,532,532,548,644,722,777,800,821,836,857,880,896,934,958,980,986,987,987,990,1009,1062],"ymouse":[648,648,648,648,648,648,648,648,648,648,647,645,644,644,644,644,644,639,632,626,625,624,624,624,624,624,624,624,624,624,624,624,624,624,624,624,624,624,624,624,624,624,623,623,623,623,623,623,623,623,620,614,613,612,610,609,595,594,594,594,594,594,596,601,604,605,605,605,605,605,605,605,605,605,605,605,605,605,605,605,605,605,605,605,605,605,605,608,608,608,608,609,610,610,610,610,610,610,610,610,610,610,610,610,611,611,611,611,611,611,611,611,611,611,611,611,611,611,611,611,611,611,611,611,611,611,611,611,611,611,603,574,561,544,525,501,456,290,274,271,270,269,269,269,269,269,269,269,269,269,269,269,269,269,269,269,269,269,269,266,259,249,245,242,241,238,234,233,230,228,225,219,214,210,206,203,200,199,199,199,206,207,197,189,182,180,180,164,144,105,85,81,81,80,77,69],"timestamp_mouse":[9,35,42,63,81,101,121,143,162,181,201,221,242,261,281,302,322,342,362,381,401,421,441,463,481,501,522,541,561,581,601,623,642,662,681,702,722,741,762,782,802,821,841,861,881,902,921,941,962,982,1001,1022,1042,1061,1082,1101,1121,1141,1161,1181,1201,1221,1241,1261,1281,1301,1321,1341,1362,1381,1401,1421,1441,1461,1481,1501,1521,1541,1561,1581,1601,1621,1641,1661,1681,1702,1721,1741,1761,1782,1802,1821,1842,1862,1881,1901,1921,1941,1962,1982,2001,2022,2041,2061,2081,2101,2121,2141,2161,2181,2202,2221,2241,2261,2281,2301,2321,2341,2361,2383,2402,2421,2442,2461,2481,2502,2521,2541,2561,2582,2601,2621,2641,2661,2682,2701,2722,2742,2762,2781,2801,2822,2843,2861,2882,2901,2921,2941,2961,2982,3001,3022,3041,3061,3081,3101,3122,3142,3161,3182,3202,3222,3241,3262,3282,3302,3322,3341,3361,3381,3402,3422,3441,3462,3481,3502,3521,3541,3561,3582,3602,3621,3642,3661,3682,3701,3721,3741,3761,3781,3802,3821,3842,3861,3881,3901],"xSR":741.5,"ySR":573.95,"xT1":424.9,"yT1":0,"xT2":1058.1,"yT2":0,"toosoon":0,"cond_shown":"randomdotsizeEA","ratio_trial":900,"smaller_num":"9","larger_num":"10","correct_side":2,"subjID":"JUANSEBASTIANBELTRANGONZALEZ38","gender":"0","age":"12","school":"6"},{"start_time":1551802066747,"click_time":1551802067752,"finger_time":1551802067312,"fix_duration":514.2015342439358,"trial":58,"RT":565,"MT":440,"sideResp":1,"stimulus":"img/250/equaldotsize/L/2_Ratio_250_L_16_R_4.png","xmouse":[815,815,815,815,815,815,815,815,815,815,815,815,815,815,815,815,815,815,815,815,815,815,815,815,815,815,808,793,737,701,669,639,624,613,607,594,576,543,511,509,509,509,509,509,504,496,489,489,489,489,489],"ymouse":[604,604,604,604,604,604,604,604,604,604,604,604,604,604,604,604,604,604,604,604,604,604,604,604,604,604,599,589,529,470,416,363,326,289,274,249,218,173,134,132,132,132,132,131,122,108,100,100,100,100,95],"timestamp_mouse":[10,33,44,65,84,105,125,144,165,185,205,224,244,266,284,304,325,344,365,385,404,424,444,466,484,505,524,545,565,584,605,625,644,665,684,704,725,745,765,784,804,824,844,864,885,905,924,945,965,985,1005],"xSR":741.5,"ySR":573.95,"xT1":424.9,"yT1":0,"xT2":1058.1,"yT2":0,"toosoon":0,"cond_shown":"equaldotsize","ratio_trial":250,"smaller_num":"4","larger_num":"16","correct_side":1,"subjID":"JUANSEBASTIANBELTRANGONZALEZ38","gender":"0","age":"12","school":"6"},{"start_time":1551802069368,"click_time":1551802071053,"finger_time":1551802070211,"fix_duration":695.496751395033,"trial":59,"RT":843,"MT":842,"sideResp":2,"stimulus":"img/750/equaldotsize/R/2_Ratio_750_L_6_R_8.png","xmouse":[748,748,748,748,748,748,748,748,748,748,748,748,748,748,748,748,748,748,748,749,749,749,750,750,750,750,750,750,750,750,750,750,750,755,767,773,776,776,776,776,777,777,777,769,762,762,762,770,785,806,832,855,879,890,910,926,937,948,950,950,951,955,976,986,989,989,989,991,991,994,996,996,997,997,997,997,997,1015,1035,1042,1043,1043,1045,1050,1071],"ymouse":[590,590,590,590,590,590,590,590,590,590,590,590,590,590,590,590,590,590,590,590,590,590,589,589,589,589,589,589,589,589,589,589,589,589,587,584,582,581,581,581,580,576,572,552,534,530,527,517,510,497,479,453,365,327,251,199,161,125,120,119,118,113,96,88,84,84,84,84,84,84,82,82,81,79,77,75,75,74,75,77,77,77,77,77,72],"timestamp_mouse":[9,24,44,63,83,104,123,143,163,183,204,225,245,264,284,303,324,344,364,384,404,424,444,464,484,505,524,543,564,584,605,625,645,664,685,704,724,745,765,784,805,825,843,865,884,904,925,944,963,985,1004,1025,1044,1063,1084,1104,1124,1144,1165,1184,1204,1224,1244,1263,1284,1303,1324,1344,1363,1383,1404,1425,1444,1464,1484,1504,1523,1545,1563,1583,1603,1624,1644,1663,1685],"xSR":741.5,"ySR":573.95,"xT1":424.9,"yT1":0,"xT2":1058.1,"yT2":0,"toosoon":0,"cond_shown":"equaldotsize","ratio_trial":750,"smaller_num":"6","larger_num":"8","correct_side":2,"subjID":"JUANSEBASTIANBELTRANGONZALEZ38","gender":"0","age":"12","school":"6"},{"start_time":1551802073671,"click_time":1551802074512,"finger_time":1551802074412,"fix_duration":1438.6737642233745,"trial":60,"RT":741,"MT":100,"sideResp":1,"stimulus":"img/900/randomdotsizeEA/R/7_Ratio_900_L_9_R_10.png","xmouse":[790,790,790,790,790,790,790,790,792,792,793,793,794,794,794,793,792,792,792,792,792,792,792,792,792,792,792,792,792,792,792,792,792,792,788,784,771,721,688,650,617,579,496],"ymouse":[605,605,605,605,605,605,605,605,606,607,611,612,615,616,618,620,621,621,621,621,621,621,621,621,621,621,621,621,621,621,621,621,621,621,622,621,612,565,516,450,348,250,56],"timestamp_mouse":[12,22,40,61,82,100,122,141,161,181,201,221,241,260,282,302,321,341,361,381,401,421,441,461,481,500,522,540,561,581,602,620,641,661,682,701,721,741,760,782,802,821,841],"xSR":741.5,"ySR":573.95,"xT1":424.9,"yT1":0,"xT2":1058.1,"yT2":0,"toosoon":0,"cond_shown":"randomdotsizeEA","ratio_trial":900,"smaller_num":"9","larger_num":"10","correct_side":2,"subjID":"JUANSEBASTIANBELTRANGONZALEZ38","gender":"0","age":"12","school":"6"},{"start_time":1551802075684,"click_time":1551802076333,"finger_time":1551802076212,"fix_duration":250,"trial":61,"RT":528,"MT":121,"sideResp":2,"stimulus":"img/250/equaldotanddens/R/12_Ratio_250_L_5_R_20.png","xmouse":[808,808,808,808,808,808,808,808,808,808,808,808,808,808,808,804,788,787,789,802,809,827,830,832,834,836,842,871,900,942,979,1014,1071],"ymouse":[634,634,634,634,634,634,634,634,634,634,634,634,634,634,634,632,620,618,617,615,614,613,613,613,612,611,610,588,549,469,347,220,35],"timestamp_mouse":[9,30,48,67,87,109,128,147,169,187,209,228,247,268,287,308,329,349,369,388,408,429,449,468,488,508,528,548,568,589,609,629,649],"xSR":741.5,"ySR":573.95,"xT1":424.9,"yT1":0,"xT2":1058.1,"yT2":0,"toosoon":0,"cond_shown":"equaldotanddens","ratio_trial":250,"smaller_num":"5","larger_num":"20","correct_side":2,"subjID":"JUANSEBASTIANBELTRANGONZALEZ38","gender":"0","age":"12","school":"6"},{"start_time":1551802078273,"click_time":1551802079152,"finger_time":1551802078713,"fix_duration":919.3729845032007,"trial":62,"RT":440,"MT":439,"sideResp":1,"stimulus":"img/750/equaldotsize/L/1_Ratio_750_L_20_R_15.png","xmouse":[817,817,816,815,814,813,812,807,799,793,792,792,792,792,792,792,792,792,792,792,785,771,739,736,736,736,736,730,704,622,568,539,530,530,530,530,526,518,518,519,520,520,520,507,499],"ymouse":[609,610,610,611,612,612,613,614,615,616,616,616,616,616,617,617,617,617,617,614,599,576,534,530,530,530,530,516,479,364,295,256,242,235,229,217,198,173,172,170,168,163,144,100,89],"timestamp_mouse":[1,20,43,59,79,99,119,139,159,180,199,220,240,259,278,299,318,339,359,380,400,420,440,459,480,499,519,540,559,578,599,620,639,659,679,698,719,740,758,780,799,819,839,860,879],"xSR":741.5,"ySR":573.95,"xT1":424.9,"yT1":0,"xT2":1058.1,"yT2":0,"toosoon":0,"cond_shown":"equaldotsize","ratio_trial":750,"smaller_num":"15","larger_num":"20","correct_side":1,"subjID":"JUANSEBASTIANBELTRANGONZALEZ38","gender":"0","age":"12","school":"6"},{"start_time":1551802081050,"click_time":1551802081733,"finger_time":1551802081493,"fix_duration":894.1531866984652,"trial":63,"RT":443,"MT":240,"sideResp":2,"stimulus":"img/250/equaldotanddens/R/8_Ratio_250_L_1_R_4.png","xmouse":[798,798,798,798,798,798,798,799,801,801,801,801,801,801,801,801,801,801,801,804,809,820,842,870,908,917,926,939,957,1012,1041,1051,1062,1065,1064],"ymouse":[597,597,597,597,597,597,597,597,596,596,596,596,596,596,596,596,596,596,596,595,593,589,579,566,532,507,452,396,331,197,144,128,113,104,92],"timestamp_mouse":[9,30,43,62,81,102,123,141,163,182,202,222,243,262,282,303,321,342,362,382,403,423,443,462,483,502,522,542,562,583,602,621,643,661,683],"xSR":741.5,"ySR":573.95,"xT1":424.9,"yT1":0,"xT2":1058.1,"yT2":0,"toosoon":0,"cond_shown":"equaldotanddens","ratio_trial":250,"smaller_num":"1","larger_num":"4","correct_side":2,"subjID":"JUANSEBASTIANBELTRANGONZALEZ38","gender":"0","age":"12","school":"6"},{"start_time":1551802086166,"click_time":1551802086832,"finger_time":1551802086533,"fix_duration":492.72030249932675,"trial":64,"RT":367,"MT":299,"sideResp":1,"stimulus":"img/250/randomdotsizeEA/L/5_Ratio_250_L_24_R_6.png","xmouse":[787,787,787,787,787,787,787,787,787,787,787,787,787,787,787,787,788,788,788,783,770,754,706,684,655,639,604,569,491,476,471,471,471,476],"ymouse":[622,622,622,622,622,622,622,622,622,622,622,622,622,622,622,622,618,583,565,543,522,504,480,471,447,414,336,267,151,129,121,120,117,99],"timestamp_mouse":[9,33,47,65,87,105,127,146,165,186,205,226,247,266,286,306,326,346,367,387,407,426,447,466,486,506,525,547,567,587,607,627,646,666],"xSR":741.5,"ySR":573.95,"xT1":424.9,"yT1":0,"xT2":1058.1,"yT2":0,"toosoon":0,"cond_shown":"randomdotsizeEA","ratio_trial":250,"smaller_num":"6","larger_num":"24","correct_side":1,"subjID":"JUANSEBASTIANBELTRANGONZALEZ38","gender":"0","age":"12","school":"6"},{"start_time":1551802090026,"click_time":1551802090752,"finger_time":1551802090512,"fix_duration":713.2972090700349,"trial":65,"RT":486,"MT":240,"sideResp":1,"stimulus":"img/900/randomdotsizeEA/R/13_Ratio_900_L_18_R_20.png","xmouse":[785,785,785,785,785,785,785,785,786,787,790,791,791,793,797,798,799,800,801,802,802,800,796,793,783,768,744,721,706,701,697,679,650,615,578,530,515],"ymouse":[632,632,632,632,632,632,632,632,632,631,631,630,630,630,627,626,625,624,623,620,614,601,594,589,567,541,507,474,453,445,428,365,296,232,180,115,96],"timestamp_mouse":[9,30,45,65,85,106,126,146,166,187,205,226,246,266,286,305,327,346,366,387,406,427,446,467,486,506,526,546,566,586,605,627,647,667,685,706,726],"xSR":741.5,"ySR":573.95,"xT1":424.9,"yT1":0,"xT2":1058.1,"yT2":0,"toosoon":0,"cond_shown":"randomdotsizeEA","ratio_trial":900,"smaller_num":"18","larger_num":"20","correct_side":2,"subjID":"JUANSEBASTIANBELTRANGONZALEZ38","gender":"0","age":"12","school":"6"},{"start_time":1551802093728,"click_time":1551802094812,"finger_time":1551802094091,"fix_duration":354.94471054342944,"trial":66,"RT":363,"MT":721,"sideResp":2,"stimulus":"img/500/equaldotanddens/R/3_Ratio_500_L_10_R_20.png","xmouse":[783,783,783,783,783,783,783,783,783,783,783,785,786,788,790,790,795,804,815,842,854,864,868,868,868,869,879,893,917,966,995,1029,1062,1090,1104,1115,1115,1115,1115,1114,1109,1108,1107,1107,1107,1107,1107,1107,1107,1107,1107,1107,1107,1107,1107],"ymouse":[615,615,615,615,615,615,615,615,615,615,615,614,614,612,611,609,601,588,572,541,529,521,515,513,513,511,504,490,459,376,337,304,270,244,225,205,203,202,201,182,163,149,141,136,136,133,126,121,118,117,117,117,115,104,82],"timestamp_mouse":[14,39,45,65,83,104,123,143,165,184,205,225,244,264,284,303,325,344,363,384,403,425,445,464,485,504,523,544,564,584,604,624,644,663,684,705,724,744,765,784,803,824,845,865,884,903,925,945,965,985,1004,1024,1044,1064,1083],"xSR":741.5,"ySR":573.95,"xT1":424.9,"yT1":0,"xT2":1058.1,"yT2":0,"toosoon":0,"cond_shown":"equaldotanddens","ratio_trial":500,"smaller_num":"10","larger_num":"20","correct_side":2,"subjID":"JUANSEBASTIANBELTRANGONZALEZ38","gender":"0","age":"12","school":"6"},{"start_time":1551802095863,"click_time":1551802096793,"finger_time":1551802096412,"fix_duration":250,"trial":67,"RT":549,"MT":381,"sideResp":2,"stimulus":"img/250/equaldotsize/R/13_Ratio_250_L_2_R_8.png","xmouse":[784,784,784,784,784,784,783,783,782,781,781,781,781,781,781,781,781,781,781,781,781,780,777,777,777,777,778,796,825,893,944,994,1074,1098,1110,1116,1117,1118,1118,1118,1115,1110,1102,1101,1100,1100,1100],"ymouse":[600,600,600,600,600,600,600,600,600,600,600,600,600,600,600,600,600,600,600,600,600,600,600,600,600,600,598,573,537,453,389,332,234,205,186,176,172,170,169,162,153,143,129,123,114,103,94],"timestamp_mouse":[10,30,49,69,89,109,128,150,169,189,209,230,250,269,288,308,330,349,369,390,410,430,449,469,490,510,530,549,570,589,609,629,649,669,689,708,729,749,769,789,810,829,849,870,890,909,930],"xSR":741.5,"ySR":573.95,"xT1":424.9,"yT1":0,"xT2":1058.1,"yT2":0,"toosoon":0,"cond_shown":"equaldotsize","ratio_trial":250,"smaller_num":"2","larger_num":"8","correct_side":2,"subjID":"JUANSEBASTIANBELTRANGONZALEZ38","gender":"0","age":"12","school":"6"},{"start_time":1551802097744,"click_time":1551802098293,"finger_time":1551802098072,"fix_duration":250,"trial":68,"RT":328,"MT":221,"sideResp":2,"stimulus":"img/500/equaldotanddens/R/6_Ratio_500_L_9_R_18.png","xmouse":[797,797,797,797,797,797,797,797,797,797,797,797,797,799,804,828,882,942,1024,1032,1033,1033,1036,1094,1128,1149,1151,1152],"ymouse":[642,642,642,642,642,642,642,642,642,642,642,642,642,641,638,616,561,491,395,385,385,385,380,271,195,121,101,94],"timestamp_mouse":[10,34,48,68,87,107,128,147,167,188,208,227,249,269,288,308,328,347,368,387,408,428,449,468,488,509,528,549],"xSR":741.5,"ySR":573.95,"xT1":424.9,"yT1":0,"xT2":1058.1,"yT2":0,"toosoon":0,"cond_shown":"equaldotanddens","ratio_trial":500,"smaller_num":"9","larger_num":"18","correct_side":2,"subjID":"JUANSEBASTIANBELTRANGONZALEZ38","gender":"0","age":"12","school":"6"},{"start_time":1551802099464,"click_time":1551802100512,"finger_time":1551802099872,"fix_duration":250,"trial":69,"RT":408,"MT":640,"sideResp":1,"stimulus":"img/750/equaldotanddens/L/13_Ratio_750_L_8_R_6.png","xmouse":[786,786,786,786,786,786,786,787,790,791,792,792,792,792,792,794,805,821,828,841,850,858,866,869,871,873,875,875,875,875,875,864,812,767,738,718,707,702,677,657,614,587,560,560,560,561,561,548,546,546,541,533,523],"ymouse":[628,628,628,628,628,628,628,629,628,627,626,626,626,626,626,625,620,611,603,585,566,544,514,509,504,500,496,494,494,494,493,493,493,483,473,461,449,437,374,325,237,180,104,84,68,48,24,0,0,0,4,15,28],"timestamp_mouse":[8,28,48,69,87,107,128,149,168,187,208,229,249,268,287,307,329,348,368,389,408,428,448,468,488,507,528,549,569,587,607,628,648,667,688,708,729,748,768,788,808,828,848,867,889,908,928,948,968,988,1008,1029,1047],"xSR":741.5,"ySR":573.95,"xT1":424.9,"yT1":0,"xT2":1058.1,"yT2":0,"toosoon":0,"cond_shown":"equaldotanddens","ratio_trial":750,"smaller_num":"6","larger_num":"8","correct_side":1,"subjID":"JUANSEBASTIANBELTRANGONZALEZ38","gender":"0","age":"12","school":"6"},{"start_time":1551802101954,"click_time":1551802102573,"finger_time":1551802102373,"fix_duration":559.3395229413047,"trial":70,"RT":419,"MT":200,"sideResp":2,"stimulus":"img/250/randomdotsizeEA/R/9_Ratio_250_L_3_R_12.png","xmouse":[785,785,785,785,785,785,785,786,786,786,786,786,786,786,786,786,786,786,786,790,799,805,824,845,866,901,959,1025,1111,1125,1129],"ymouse":[611,611,611,611,611,610,609,608,607,607,607,607,607,607,606,604,603,600,598,590,572,549,486,441,411,366,299,221,124,103,96],"timestamp_mouse":[20,41,57,77,97,117,139,157,179,199,217,238,259,278,299,318,337,359,379,398,419,438,459,478,498,519,538,558,578,598,619],"xSR":741.5,"ySR":573.95,"xT1":424.9,"yT1":0,"xT2":1058.1,"yT2":0,"toosoon":0,"cond_shown":"randomdotsizeEA","ratio_trial":250,"smaller_num":"3","larger_num":"12","correct_side":2,"subjID":"JUANSEBASTIANBELTRANGONZALEZ38","gender":"0","age":"12","school":"6"},{"start_time":1551802103504,"click_time":1551802104713,"finger_time":1551802104071,"fix_duration":250,"trial":71,"RT":567,"MT":642,"sideResp":1,"stimulus":"img/900/equaldotsize/L/1_Ratio_900_L_10_R_9.png","xmouse":[796,796,795,795,795,795,795,795,795,795,795,795,795,795,795,795,799,800,801,801,801,801,801,801,801,801,773,755,746,744,744,744,743,732,713,636,583,563,553,547,541,535,532,526,517,497,495,495,495,495,495,493,490,489,489,489,489,489,489,489,486],"ymouse":[644,644,644,644,644,644,644,644,643,643,643,643,643,643,643,643,642,642,641,641,641,641,641,641,641,638,600,579,571,568,568,568,565,549,525,425,349,316,297,281,270,249,237,222,201,160,155,155,155,155,151,127,116,113,113,113,113,113,109,105,96],"timestamp_mouse":[8,27,48,69,89,108,129,149,169,188,208,228,247,267,287,309,328,349,368,387,409,428,449,467,489,508,529,548,567,588,608,628,647,668,687,708,727,748,769,788,808,828,848,868,889,908,928,948,968,987,1008,1028,1048,1069,1088,1109,1127,1147,1168,1189,1208],"xSR":741.5,"ySR":573.95,"xT1":424.9,"yT1":0,"xT2":1058.1,"yT2":0,"toosoon":0,"cond_shown":"equaldotsize","ratio_trial":900,"smaller_num":"9","larger_num":"10","correct_side":1,"subjID":"JUANSEBASTIANBELTRANGONZALEZ38","gender":"0","age":"12","school":"6"},{"start_time":1551802106589,"click_time":1551802107432,"finger_time":1551802107071,"fix_duration":1014.334898584511,"trial":72,"RT":482,"MT":361,"sideResp":2,"stimulus":"img/900/equaldotanddens/L/1_Ratio_900_L_10_R_9.png","xmouse":[806,806,806,806,806,806,806,806,806,806,806,806,806,806,806,806,806,806,806,806,806,806,812,824,846,874,906,975,1010,1044,1068,1077,1084,1085,1086,1086,1087,1087,1087,1087,1087,1088,1090],"ymouse":[636,636,636,636,636,636,636,636,636,636,636,636,636,636,636,636,636,636,633,633,633,632,621,605,575,536,492,393,334,264,205,177,158,154,152,144,128,127,127,126,126,110,95],"timestamp_mouse":[13,23,43,63,84,103,124,142,163,184,202,224,244,262,283,302,324,343,364,383,402,424,443,464,482,504,522,543,563,584,604,623,644,664,682,703,723,742,764,784,803,823,842],"xSR":741.5,"ySR":573.95,"xT1":424.9,"yT1":0,"xT2":1058.1,"yT2":0,"toosoon":0,"cond_shown":"equaldotanddens","ratio_trial":900,"smaller_num":"9","larger_num":"10","correct_side":1,"subjID":"JUANSEBASTIANBELTRANGONZALEZ38","gender":"0","age":"12","school":"6"},{"start_time":1551802108967,"click_time":1551802110112,"finger_time":1551802109312,"fix_duration":752.9443372945688,"trial":73,"RT":345,"MT":800,"sideResp":1,"stimulus":"img/250/randomdotsizeEA/L/15_Ratio_250_L_12_R_3.png","xmouse":[799,799,799,799,799,799,799,799,792,783,773,772,772,772,772,768,762,752,727,720,716,713,711,694,686,654,631,605,596,587,572,558,534,529,527,527,527,520,513,505,502,502,502,502,502,502,502,502,502,502,502,502,502,502,502,502,502,500],"ymouse":[626,626,626,626,626,626,626,626,619,611,605,603,603,603,603,593,576,559,511,493,482,473,464,422,406,352,321,282,263,240,212,188,150,143,140,140,140,124,113,104,100,100,100,100,100,100,100,100,100,100,100,100,100,100,100,100,100,88],"timestamp_mouse":[8,31,45,66,85,106,126,144,165,185,205,226,244,265,285,305,325,345,366,384,405,424,445,465,485,506,526,545,564,584,605,626,645,665,685,706,725,745,766,785,806,825,845,865,885,906,926,944,965,986,1005,1025,1046,1065,1085,1105,1125,1145],"xSR":741.5,"ySR":573.95,"xT1":424.9,"yT1":0,"xT2":1058.1,"yT2":0,"toosoon":0,"cond_shown":"randomdotsizeEA","ratio_trial":250,"smaller_num":"3","larger_num":"12","correct_side":1,"subjID":"JUANSEBASTIANBELTRANGONZALEZ38","gender":"0","age":"12","school":"6"},{"start_time":1551802111764,"click_time":1551802112693,"finger_time":1551802112231,"fix_duration":790.7612639689117,"trial":74,"RT":467,"MT":462,"sideResp":2,"stimulus":"img/250/equaldotanddens/R/4_Ratio_250_L_3_R_12.png","xmouse":[782,782,782,782,782,782,782,782,782,782,782,782,782,782,782,782,782,782,782,782,782,782,807,862,942,983,1015,1034,1060,1068,1076,1087,1100,1103,1105,1106,1106,1105,1105,1106,1109,1112,1112,1112,1112,1112,1107],"ymouse":[613,613,613,613,613,613,613,613,613,613,613,613,613,613,613,613,613,613,613,613,613,613,616,616,607,589,563,529,411,351,294,253,210,197,188,178,173,162,154,141,130,119,116,116,115,104,79],"timestamp_mouse":[15,37,49,68,88,107,129,148,168,189,209,228,247,269,289,308,327,349,369,388,409,428,448,467,488,508,529,549,568,589,608,628,648,668,688,708,729,749,768,789,809,828,849,869,888,909,929],"xSR":741.5,"ySR":573.95,"xT1":424.9,"yT1":0,"xT2":1058.1,"yT2":0,"toosoon":0,"cond_shown":"equaldotanddens","ratio_trial":250,"smaller_num":"3","larger_num":"12","correct_side":2,"subjID":"JUANSEBASTIANBELTRANGONZALEZ38","gender":"0","age":"12","school":"6"},{"start_time":1551802114706,"click_time":1551802115553,"finger_time":1551802115053,"fix_duration":1332.0447018822679,"trial":75,"RT":347,"MT":500,"sideResp":1,"stimulus":"img/750/equaldotsize/L/13_Ratio_750_L_8_R_6.png","xmouse":[777,776,775,775,775,775,775,775,775,775,775,775,775,775,775,775,772,760,745,721,697,667,656,644,634,624,602,591,584,574,561,554,549,549,549,549,549,549,548,547,546,533,519],"ymouse":[596,597,597,597,597,597,597,597,597,597,597,597,597,597,597,598,595,570,545,509,476,424,395,369,342,319,270,236,209,164,88,68,58,58,58,58,58,58,58,58,58,58,58],"timestamp_mouse":[14,37,46,66,86,106,126,145,167,186,206,226,247,266,287,306,327,347,365,386,405,426,446,467,486,506,525,547,567,586,606,625,646,665,686,707,726,747,765,787,806,826,847],"xSR":741.5,"ySR":573.95,"xT1":424.9,"yT1":0,"xT2":1058.1,"yT2":0,"toosoon":0,"cond_shown":"equaldotsize","ratio_trial":750,"smaller_num":"6","larger_num":"8","correct_side":1,"subjID":"JUANSEBASTIANBELTRANGONZALEZ38","gender":"0","age":"12","school":"6"},{"start_time":1551802116966,"click_time":1551802117952,"finger_time":1551802117632,"fix_duration":452.03289239537025,"trial":76,"RT":666,"MT":320,"sideResp":1,"stimulus":"img/900/randomdotsizeEA/R/14_Ratio_900_L_18_R_20.png","xmouse":[798,798,798,798,800,801,802,803,809,811,814,816,818,819,819,821,821,821,821,821,821,821,821,821,821,821,819,810,797,783,774,771,763,755,733,715,699,665,644,623,607,595,588,568,554,536,530,529,527,522],"ymouse":[618,618,618,618,615,613,613,612,609,608,608,607,606,606,606,605,605,605,605,605,605,605,605,605,605,605,605,605,603,599,595,592,578,558,515,478,441,363,321,275,242,219,206,173,153,127,119,115,109,98],"timestamp_mouse":[14,34,45,65,86,106,127,145,166,186,207,226,247,266,286,305,326,347,365,385,405,427,447,466,487,506,527,546,567,587,607,626,646,666,685,706,727,747,766,786,807,825,846,867,887,906,926,947,967,986],"xSR":741.5,"ySR":573.95,"xT1":424.9,"yT1":0,"xT2":1058.1,"yT2":0,"toosoon":0,"cond_shown":"randomdotsizeEA","ratio_trial":900,"smaller_num":"18","larger_num":"20","correct_side":2,"subjID":"JUANSEBASTIANBELTRANGONZALEZ38","gender":"0","age":"12","school":"6"},{"start_time":1551802121206,"click_time":1551802122393,"finger_time":1551802122053,"fix_duration":974.5333983510936,"trial":77,"RT":847,"MT":340,"sideResp":1,"stimulus":"img/750/randomdotsizeEA/L/13_Ratio_750_L_8_R_6.png","xmouse":[808,808,808,808,808,808,808,808,808,808,808,808,808,808,808,808,808,808,808,805,804,804,804,804,804,804,804,804,804,804,804,804,804,804,804,804,804,802,796,783,756,745,737,726,710,679,603,583,571,566,554,548,542,538,530,507,501,498,495,491],"ymouse":[607,607,607,607,607,607,607,607,607,607,607,607,607,607,607,607,607,607,606,606,606,606,606,606,606,606,606,606,606,606,606,606,606,606,606,606,606,606,606,606