[{"start_time":1551886944735,"click_time":1551886947695,"finger_time":1551886945674,"fix_duration":716.2371967294623,"trial":0,"RT":939,"MT":2021,"sideResp":2,"stimulus":[],"xmouse":[831,831,830,830,830,830,830,830,830,830,830,830,830,830,830,830,828,821,808,798,783,781,780,780,780,780,780,780,780,780,780,780,780,780,780,780,780,780,780,780,780,780,777,772,767,757,752,748,747,746,746,746,746,746,746,745,742,739,735,735,736,736,736,736,736,736,736,736,736,736,736,736,737,740,745,755,760,763,764,765,765,765,765,765,765,765,765,765,765,765,765,765,769,771,774,778,778,778,778,778,778,778,778,778,778,778,778,778,778,778,778,778,778,778,778,778,779,780,780,781,782,783,785,788,795,817,833,849,874,890,920,935,948,959,970,983,986,999,1014,1029,1047,1048,1049,1049,1051,1062,1066,1069,1073],"ymouse":[487,487,487,487,488,488,488,488,488,488,488,488,488,488,488,488,490,503,524,537,559,563,565,565,565,565,565,565,565,565,565,565,565,565,565,565,565,565,565,565,565,565,557,543,527,490,476,460,457,456,456,456,456,456,456,456,475,499,535,554,568,568,568,568,568,568,568,568,568,568,568,568,568,566,561,555,553,551,551,551,550,550,550,550,550,550,550,550,550,550,550,550,541,532,520,508,508,508,508,508,508,508,508,508,508,508,508,508,508,508,508,508,508,508,508,508,506,505,503,503,500,497,493,481,462,411,382,360,331,314,287,269,257,244,235,224,221,209,192,173,148,140,136,133,130,115,110,103,95],"timestamp_mouse":[9,19,48,59,79,99,120,139,158,180,199,218,239,260,278,299,319,339,360,378,399,419,439,459,479,499,519,540,558,578,599,619,639,658,679,700,720,740,759,778,800,818,839,859,880,899,919,939,960,980,1000,1019,1040,1060,1079,1099,1119,1139,1160,1179,1199,1218,1239,1259,1278,1298,1318,1338,1359,1379,1398,1419,1440,1459,1480,1498,1518,1539,1559,1578,1598,1619,1638,1660,1678,1698,1720,1738,1758,1780,1798,1819,1839,1859,1879,1898,1919,1940,1959,1980,1999,2019,2039,2058,2080,2098,2119,2140,2159,2179,2198,2220,2240,2259,2279,2299,2319,2339,2360,2379,2399,2419,2439,2459,2479,2499,2519,2540,2560,2580,2599,2619,2640,2659,2680,2698,2719,2738,2759,2780,2799,2819,2838,2859,2880,2899,2919,2939,2959],"xSR":741.5,"ySR":500.5,"xT1":424.9,"yT1":0,"xT2":1058.1,"yT2":0,"toosoon":0,"cond_shown":"Congruent","ratio_trial":100,"L_num":6,"L_den":20,"R_num":5,"R_den":25,"correct_side":1,"subjID":"JUANSEBASTIANHERNANDEZRINCON24","gender":"0","age":"12 AÑOS","school":"sexto g","test":{"fix_dur":[250,1500],"timestim":1000,"targets_dim":[100,100],"targets_relative_coord":[0.3,0.7],"size_stim":[880,420],"start_dim":[100,100],"size_start":[300,300],"size_fix":60,"samplingrate":20,"img_types":["Congruent","Incongruent"],"ratios":[100,200,300],"rep_conds":19,"nTrials":120,"trials_to_rest":500,"Trials_order":[0,1,100,104,61,4,85,19,16,73,69,58,27,116,64,54,103,77,76,8,42,89,98,113,12,17,10,15,63,20,34,29,70,49,39,43,28,91,86,31,79,65,26,95,84,57,62,109,90,6,14,52,23,40,21,32,105,102,75,7,11,111,33,97,35,119,37,44,107,96,48,53,114,18,13,72,66,74,92,60,51,80,88,3,117,36,22,87,71,5,110,118,68,115,55,2,59,93,25,46,50,38,106,94,108,30,101,99,9,67,45,82,78,24,112,41,56,81,47,83],"cond_shown":["Congruent","Incongruent","Congruent","Congruent","Incongruent","Congruent","Incongruent","Incongruent","Congruent","Incongruent","Incongruent","Congruent","Incongruent","Congruent","Congruent","Congruent","Incongruent","Incongruent","Congruent","Congruent","Congruent","Incongruent","Congruent","Incongruent","Congruent","Incongruent","Congruent","Incongruent","Incongruent","Congruent","Congruent","Incongruent","Congruent","Incongruent","Incongruent","Incongruent","Congruent","Incongruent","Congruent","Incongruent","Incongruent","Incongruent","Congruent","Incongruent","Congruent","Incongruent","Congruent","Incongruent","Congruent","Congruent","Congruent","Congruent","Incongruent","Congruent","Incongruent","Congruent","Incongruent","Congruent","Incongruent","Incongruent","Incongruent","Incongruent","Incongruent","Incongruent","Incongruent","Incongruent","Incongruent","Congruent","Incongruent","Congruent","Congruent","Incongruent","Congruent","Congruent","Incongruent","Congruent","Congruent","Congruent","Congruent","Congruent","Incongruent","Congruent","Congruent","Incongruent","Incongruent","Congruent","Congruent","Incongruent","Incongruent","Incongruent","Congruent","Congruent","Congruent","Incongruent","Incongruent","Congruent","Incongruent","Incongruent","Incongruent","Congruent","Congruent","Congruent","Congruent","Congruent","Congruent","Congruent","Incongruent","Incongruent","Incongruent","Incongruent","Incongruent","Congruent","Congruent","Congruent","Congruent","Incongruent","Congruent","Incongruent","Incongruent","Incongruent"],"ratio_trial":[100,100,300,200,100,300,100,100,300,100,200,300,200,200,300,100,100,300,300,200,100,300,200,300,100,300,300,200,200,200,300,300,300,100,200,100,300,100,200,100,100,300,200,300,100,200,200,100,100,100,200,300,300,300,200,200,200,100,200,100,300,200,200,100,300,300,100,200,300,100,100,300,100,100,100,100,100,200,200,100,200,200,300,200,200,100,300,200,300,300,200,300,200,100,100,200,300,200,100,300,200,200,300,300,100,100,300,200,200,100,200,300,100,100,300,300,200,200,300,300],"left_num":[6,9,1,21,11,12,17,3,24,10,1,3,6,7,5,1,9,3,4,3,11,3,1,13,9,1,20,3,14,1,1,2,5,10,14,1,1,13,7,3,13,2,3,4,4,9,8,12,15,6,7,7,1,11,7,4,14,2,7,3,13,1,3,17,3,1,13,4,4,3,4,4,4,6,2,6,4,5,3,10,1,6,1,7,7,3,20,1,2,8,7,5,5,8,9,3,13,7,13,20,8,5,2,4,9,7,3,11,1,6,7,5,8,10,11,13,12,3,4,8],"right_num":[5,6,7,2,9,2,10,7,2,8,2,4,3,2,7,3,13,4,13,14,6,4,21,12,8,3,9,1,12,21,6,6,7,8,6,8,11,12,2,8,12,6,14,6,15,8,2,2,13,15,18,20,2,4,4,3,12,6,12,11,12,3,1,10,4,3,6,3,8,4,6,8,6,5,6,15,15,14,11,3,3,11,6,14,8,2,14,3,6,14,2,6,14,1,13,11,12,4,12,8,7,14,10,1,8,15,4,3,3,11,12,6,2,3,4,12,6,11,6,9],"left_den":[20,18,20,30,22,24,30,9,30,25,3,6,20,21,25,2,15,6,20,6,22,6,2,26,15,2,25,10,30,2,5,4,25,25,30,2,5,26,21,5,26,4,10,5,10,15,15,30,25,12,15,14,2,22,15,10,30,5,10,5,26,2,10,30,6,2,26,10,5,20,8,5,8,20,4,12,10,10,10,25,2,20,5,10,10,6,25,2,4,10,21,25,10,20,15,10,26,15,26,25,15,10,20,10,15,14,6,20,2,10,10,25,16,25,22,26,20,4,5,10],"right_den":[25,10,20,4,15,10,15,30,4,16,15,5,6,15,14,5,26,20,26,20,15,20,30,15,16,15,18,2,18,30,12,30,14,16,9,20,22,20,15,16,20,30,28,12,30,10,6,4,26,25,27,25,10,20,6,15,18,12,24,22,15,10,2,15,20,15,10,15,16,16,10,16,10,25,15,25,30,20,22,10,10,22,12,28,16,5,28,10,30,28,15,12,20,2,26,22,15,6,20,16,21,20,25,10,16,25,20,4,10,22,24,12,5,10,20,15,15,20,12,18],"correct_side":[1,2,2,1,2,1,2,1,1,2,1,2,2,1,2,2,1,1,2,2,1,1,2,2,1,1,1,2,2,2,2,1,2,2,2,1,2,2,1,1,2,1,2,1,2,2,1,2,1,2,2,2,1,1,2,1,2,2,1,1,2,1,2,2,1,1,2,1,1,2,2,1,2,1,1,2,2,2,2,1,1,2,2,1,1,1,1,1,1,1,1,2,2,2,1,2,2,2,2,1,1,2,2,1,1,2,1,2,1,1,1,2,1,1,1,2,1,1,1,1],"img_shown":["img2/100/Congruent/L/C_Dist_100_LN_6_LD_20_RN_5_RD_25_0.png","img2/100/Incongruent/R/I_Dist_100_LN_9_LD_18_RN_6_RD_10_1.png","img2/300/Congruent/R/C_Dist_300_LN_1_LD_20_RN_7_RD_20_1.png","img2/200/Congruent/L/C_Dist_200_LN_21_LD_30_RN_2_RD_4_0.png","img2/100/Incongruent/R/I_Dist_100_LN_11_LD_22_RN_9_RD_15_1.png","img2/300/Congruent/L/C_Dist_300_LN_12_LD_24_RN_2_RD_10_0.png","img2/100/Incongruent/R/I_Dist_100_LN_17_LD_30_RN_10_RD_15_1.png","img2/100/Incongruent/L/I_Dist_100_LN_3_LD_9_RN_7_RD_30_0.png","img2/300/Congruent/L/C_Dist_300_LN_24_LD_30_RN_2_RD_4_0.png","img2/100/Incongruent/R/I_Dist_100_LN_10_LD_25_RN_8_RD_16_1.png","img2/200/Incongruent/L/I_Dist_200_LN_1_LD_3_RN_2_RD_15_0.png","img2/300/Congruent/R/C_Dist_300_LN_3_LD_6_RN_4_RD_5_1.png","img2/200/Incongruent/R/I_Dist_200_LN_6_LD_20_RN_3_RD_6_1.png","img2/200/Congruent/L/C_Dist_200_LN_7_LD_21_RN_2_RD_15_0.png","img2/300/Congruent/R/C_Dist_300_LN_5_LD_25_RN_7_RD_14_1.png","img2/100/Congruent/R/C_Dist_100_LN_1_LD_2_RN_3_RD_5_1.png","img2/100/Incongruent/L/I_Dist_100_LN_9_LD_15_RN_13_RD_26_0.png","img2/300/Incongruent/L/I_Dist_300_LN_3_LD_6_RN_4_RD_20_0.png","img2/300/Congruent/R/C_Dist_300_LN_4_LD_20_RN_13_RD_26_1.png","img2/200/Congruent/R/C_Dist_200_LN_3_LD_6_RN_14_RD_20_1.png","img2/100/Congruent/L/C_Dist_100_LN_11_LD_22_RN_6_RD_15_0.png","img2/300/Incongruent/L/I_Dist_300_LN_3_LD_6_RN_4_RD_20_0.png","img2/200/Congruent/R/C_Dist_200_LN_1_LD_2_RN_21_RD_30_1.png","img2/300/Incongruent/R/I_Dist_300_LN_13_LD_26_RN_12_RD_15_1.png","img2/100/Congruent/L/C_Dist_100_LN_9_LD_15_RN_8_RD_16_0.png","img2/300/Incongruent/L/I_Dist_300_LN_1_LD_2_RN_3_RD_15_0.png","img2/300/Congruent/L/C_Dist_300_LN_20_LD_25_RN_9_RD_18_0.png","img2/200/Incongruent/R/I_Dist_200_LN_3_LD_10_RN_1_RD_2_1.png","img2/200/Incongruent/R/I_Dist_200_LN_14_LD_30_RN_12_RD_18_1.png","img2/200/Congruent/R/C_Dist_200_LN_1_LD_2_RN_21_RD_30_1.png","img2/300/Congruent/R/C_Dist_300_LN_1_LD_5_RN_6_RD_12_1.png","img2/300/Incongruent/L/I_Dist_300_LN_2_LD_4_RN_6_RD_30_0.png","img2/300/Congruent/R/C_Dist_300_LN_5_LD_25_RN_7_RD_14_1.png","img2/100/Incongruent/R/I_Dist_100_LN_10_LD_25_RN_8_RD_16_1.png","img2/200/Incongruent/R/I_Dist_200_LN_14_LD_30_RN_6_RD_9_1.png","img2/100/Incongruent/L/I_Dist_100_LN_1_LD_2_RN_8_RD_20_0.png","img2/300/Congruent/R/C_Dist_300_LN_1_LD_5_RN_11_RD_22_1.png","img2/100/Incongruent/R/I_Dist_100_LN_13_LD_26_RN_12_RD_20_1.png","img2/200/Congruent/L/C_Dist_200_LN_7_LD_21_RN_2_RD_15_0.png","img2/100/Incongruent/L/I_Dist_100_LN_3_LD_5_RN_8_RD_16_0.png","img2/100/Incongruent/R/I_Dist_100_LN_13_LD_26_RN_12_RD_20_1.png","img2/300/Incongruent/L/I_Dist_300_LN_2_LD_4_RN_6_RD_30_0.png","img2/200/Congruent/R/C_Dist_200_LN_3_LD_10_RN_14_RD_28_1.png","img2/300/Incongruent/L/I_Dist_300_LN_4_LD_5_RN_6_RD_12_0.png","img2/100/Congruent/R/C_Dist_100_LN_4_LD_10_RN_15_RD_30_1.png","img2/200/Incongruent/R/I_Dist_200_LN_9_LD_15_RN_8_RD_10_1.png","img2/200/Congruent/L/C_Dist_200_LN_8_LD_15_RN_2_RD_6_0.png","img2/100/Incongruent/R/I_Dist_100_LN_12_LD_30_RN_2_RD_4_1.png","img2/100/Congruent/L/C_Dist_100_LN_15_LD_25_RN_13_RD_26_0.png","img2/100/Congruent/R/C_Dist_100_LN_6_LD_12_RN_15_RD_25_1.png","img2/200/Congruent/R/C_Dist_200_LN_7_LD_15_RN_18_RD_27_1.png","img2/300/Congruent/R/C_Dist_300_LN_7_LD_14_RN_20_RD_25_1.png","img2/300/Incongruent/L/I_Dist_300_LN_1_LD_2_RN_2_RD_10_0.png","img2/300/Congruent/L/C_Dist_300_LN_11_LD_22_RN_4_RD_20_0.png","img2/200/Incongruent/R/I_Dist_200_LN_7_LD_15_RN_4_RD_6_1.png","img2/200/Congruent/L/C_Dist_200_LN_4_LD_10_RN_3_RD_15_0.png","img2/200/Incongruent/R/I_Dist_200_LN_14_LD_30_RN_12_RD_18_1.png","img2/100/Congruent/R/C_Dist_100_LN_2_LD_5_RN_6_RD_12_1.png","img2/200/Incongruent/L/I_Dist_200_LN_7_LD_10_RN_12_RD_24_0.png","img2/100/Incongruent/L/I_Dist_100_LN_3_LD_5_RN_11_RD_22_0.png","img2/300/Incongruent/R/I_Dist_300_LN_13_LD_26_RN_12_RD_15_1.png","img2/200/Incongruent/L/I_Dist_200_LN_1_LD_2_RN_3_RD_10_0.png","img2/200/Incongruent/R/I_Dist_200_LN_3_LD_10_RN_1_RD_2_1.png","img2/100/Incongruent/R/I_Dist_100_LN_17_LD_30_RN_10_RD_15_1.png","img2/300/Incongruent/L/I_Dist_300_LN_3_LD_6_RN_4_RD_20_0.png","img2/300/Incongruent/L/I_Dist_300_LN_1_LD_2_RN_3_RD_15_0.png","img2/100/Incongruent/R/I_Dist_100_LN_13_LD_26_RN_6_RD_10_1.png","img2/200/Congruent/L/C_Dist_200_LN_4_LD_10_RN_3_RD_15_0.png","img2/300/Incongruent/L/I_Dist_300_LN_4_LD_5_RN_8_RD_16_0.png","img2/100/Congruent/R/C_Dist_100_LN_3_LD_20_RN_4_RD_16_1.png","img2/100/Congruent/R/C_Dist_100_LN_4_LD_8_RN_6_RD_10_1.png","img2/300/Incongruent/L/I_Dist_300_LN_4_LD_5_RN_8_RD_16_0.png","img2/100/Congruent/R/C_Dist_100_LN_4_LD_8_RN_6_RD_10_1.png","img2/100/Congruent/L/C_Dist_100_LN_6_LD_20_RN_5_RD_25_0.png","img2/100/Incongruent/L/I_Dist_100_LN_2_LD_4_RN_6_RD_15_0.png","img2/100/Congruent/R/C_Dist_100_LN_6_LD_12_RN_15_RD_25_1.png","img2/100/Congruent/R/C_Dist_100_LN_4_LD_10_RN_15_RD_30_1.png","img2/200/Congruent/R/C_Dist_200_LN_5_LD_10_RN_14_RD_20_1.png","img2/200/Congruent/R/C_Dist_200_LN_3_LD_10_RN_11_RD_22_1.png","img2/100/Congruent/L/C_Dist_100_LN_10_LD_25_RN_3_RD_10_0.png","img2/200/Incongruent/L/I_Dist_200_LN_1_LD_2_RN_3_RD_10_0.png","img2/200/Congruent/R/C_Dist_200_LN_6_LD_20_RN_11_RD_22_1.png","img2/300/Congruent/R/C_Dist_300_LN_1_LD_5_RN_6_RD_12_1.png","img2/200/Incongruent/L/I_Dist_200_LN_7_LD_10_RN_14_RD_28_0.png","img2/200/Incongruent/L/I_Dist_200_LN_7_LD_10_RN_8_RD_16_0.png","img2/100/Congruent/L/C_Dist_100_LN_3_LD_6_RN_2_RD_5_0.png","img2/300/Congruent/L/C_Dist_300_LN_20_LD_25_RN_14_RD_28_0.png","img2/200/Incongruent/L/I_Dist_200_LN_1_LD_2_RN_3_RD_10_0.png","img2/300/Incongruent/L/I_Dist_300_LN_2_LD_4_RN_6_RD_30_0.png","img2/300/Incongruent/L/I_Dist_300_LN_8_LD_10_RN_14_RD_28_0.png","img2/200/Congruent/L/C_Dist_200_LN_7_LD_21_RN_2_RD_15_0.png","img2/300/Congruent/R/C_Dist_300_LN_5_LD_25_RN_6_RD_12_1.png","img2/200/Congruent/R/C_Dist_200_LN_5_LD_10_RN_14_RD_20_1.png","img2/100/Incongruent/R/I_Dist_100_LN_8_LD_20_RN_1_RD_2_1.png","img2/100/Incongruent/L/I_Dist_100_LN_9_LD_15_RN_13_RD_26_0.png","img2/200/Congruent/R/C_Dist_200_LN_3_LD_10_RN_11_RD_22_1.png","img2/300/Incongruent/R/I_Dist_300_LN_13_LD_26_RN_12_RD_15_1.png","img2/200/Incongruent/R/I_Dist_200_LN_7_LD_15_RN_4_RD_6_1.png","img2/100/Incongruent/R/I_Dist_100_LN_13_LD_26_RN_12_RD_20_1.png","img2/300/Congruent/L/C_Dist_300_LN_20_LD_25_RN_8_RD_16_0.png","img2/200/Congruent/L/C_Dist_200_LN_8_LD_15_RN_7_RD_21_0.png","img2/200/Congruent/R/C_Dist_200_LN_5_LD_10_RN_14_RD_20_1.png","img2/300/Congruent/R/C_Dist_300_LN_2_LD_20_RN_10_RD_25_1.png","img2/300/Congruent/L/C_Dist_300_LN_4_LD_10_RN_1_RD_10_0.png","img2/100/Congruent/L/C_Dist_100_LN_9_LD_15_RN_8_RD_16_0.png","img2/100/Congruent/R/C_Dist_100_LN_7_LD_14_RN_15_RD_25_1.png","img2/300/Incongruent/L/I_Dist_300_LN_3_LD_6_RN_4_RD_20_0.png","img2/200/Incongruent/R/I_Dist_200_LN_11_LD_20_RN_3_RD_4_1.png","img2/200/Incongruent/L/I_Dist_200_LN_1_LD_2_RN_3_RD_10_0.png","img2/100/Incongruent/L/I_Dist_100_LN_6_LD_10_RN_11_RD_22_0.png","img2/200/Incongruent/L/I_Dist_200_LN_7_LD_10_RN_12_RD_24_0.png","img2/300/Congruent/R/C_Dist_300_LN_5_LD_25_RN_6_RD_12_1.png","img2/100/Congruent/L/C_Dist_100_LN_8_LD_16_RN_2_RD_5_0.png","img2/100/Congruent/L/C_Dist_100_LN_10_LD_25_RN_3_RD_10_0.png","img2/300/Congruent/L/C_Dist_300_LN_11_LD_22_RN_4_RD_20_0.png","img2/300/Incongruent/R/I_Dist_300_LN_13_LD_26_RN_12_RD_15_1.png","img2/200/Congruent/L/C_Dist_200_LN_12_LD_20_RN_6_RD_15_0.png","img2/200/Incongruent/L/I_Dist_200_LN_3_LD_4_RN_11_RD_20_0.png","img2/300/Incongruent/L/I_Dist_300_LN_4_LD_5_RN_6_RD_12_0.png","img2/300/Incongruent/L/I_Dist_300_LN_8_LD_10_RN_9_RD_18_0.png"],"dist100_C":[["C_Dist_100_LN_10_LD_25_RN_3_RD_10_0.png","C_Dist_100_LN_11_LD_22_RN_4_RD_10_0.png","C_Dist_100_LN_11_LD_22_RN_6_RD_15_0.png","C_Dist_100_LN_15_LD_25_RN_13_RD_26_0.png","C_Dist_100_LN_3_LD_6_RN_2_RD_5_0.png","C_Dist_100_LN_6_LD_20_RN_5_RD_25_0.png","C_Dist_100_LN_8_LD_16_RN_2_RD_5_0.png","C_Dist_100_LN_9_LD_15_RN_8_RD_16_0.png"],["C_Dist_100_LN_1_LD_2_RN_18_RD_30_1.png","C_Dist_100_LN_1_LD_2_RN_3_RD_5_1.png","C_Dist_100_LN_12_LD_30_RN_13_RD_26_1.png","C_Dist_100_LN_2_LD_5_RN_11_RD_22_1.png","C_Dist_100_LN_2_LD_5_RN_6_RD_12_1.png","C_Dist_100_LN_3_LD_20_RN_4_RD_16_1.png","C_Dist_100_LN_4_LD_10_RN_15_RD_30_1.png","C_Dist_100_LN_4_LD_8_RN_6_RD_10_1.png","C_Dist_100_LN_6_LD_12_RN_15_RD_25_1.png","C_Dist_100_LN_7_LD_14_RN_15_RD_25_1.png","C_Dist_100_LN_7_LD_14_RN_9_RD_15_1.png"]],"dist100_I":[["I_Dist_100_LN_1_LD_2_RN_8_RD_20_0.png","I_Dist_100_LN_2_LD_4_RN_6_RD_15_0.png","I_Dist_100_LN_2_LD_4_RN_8_RD_20_0.png","I_Dist_100_LN_3_LD_5_RN_11_RD_22_0.png","I_Dist_100_LN_3_LD_5_RN_8_RD_16_0.png","I_Dist_100_LN_3_LD_6_RN_4_RD_10_0.png","I_Dist_100_LN_3_LD_9_RN_7_RD_30_0.png","I_Dist_100_LN_4_LD_8_RN_8_RD_20_0.png","I_Dist_100_LN_6_LD_10_RN_11_RD_22_0.png","I_Dist_100_LN_6_LD_10_RN_13_RD_26_0.png","I_Dist_100_LN_6_LD_10_RN_7_RD_14_0.png","I_Dist_100_LN_9_LD_10_RN_20_RD_25_0.png","I_Dist_100_LN_9_LD_15_RN_13_RD_26_0.png","I_Dist_100_LN_9_LD_15_RN_14_RD_28_0.png"],["I_Dist_100_LN_10_LD_25_RN_8_RD_16_1.png","I_Dist_100_LN_10_LD_25_RN_9_RD_18_1.png","I_Dist_100_LN_11_LD_22_RN_9_RD_15_1.png","I_Dist_100_LN_12_LD_24_RN_9_RD_15_1.png","I_Dist_100_LN_12_LD_30_RN_2_RD_4_1.png","I_Dist_100_LN_13_LD_26_RN_12_RD_20_1.png","I_Dist_100_LN_13_LD_26_RN_6_RD_10_1.png","I_Dist_100_LN_17_LD_30_RN_10_RD_15_1.png","I_Dist_100_LN_6_LD_12_RN_3_RD_5_1.png","I_Dist_100_LN_8_LD_16_RN_6_RD_10_1.png","I_Dist_100_LN_8_LD_20_RN_1_RD_2_1.png","I_Dist_100_LN_9_LD_18_RN_6_RD_10_1.png"]],"dist100_S":[["E_Dist_100_LN_2_LD_12_RN_2_RD_30_0.png","E_Dist_100_LN_6_LD_10_RN_6_RD_12_0.png"],["E_Dist_100_LN_6_LD_12_RN_6_RD_10_1.png"]],"dist200_C":[["C_Dist_200_LN_11_LD_22_RN_3_RD_10_0.png","C_Dist_200_LN_12_LD_15_RN_6_RD_10_0.png","C_Dist_200_LN_12_LD_20_RN_6_RD_15_0.png","C_Dist_200_LN_14_LD_28_RN_6_RD_20_0.png","C_Dist_200_LN_15_LD_25_RN_4_RD_10_0.png","C_Dist_200_LN_16_LD_20_RN_12_RD_20_0.png","C_Dist_200_LN_16_LD_30_RN_9_RD_27_0.png","C_Dist_200_LN_20_LD_25_RN_9_RD_15_0.png","C_Dist_200_LN_21_LD_30_RN_2_RD_4_0.png","C_Dist_200_LN_4_LD_10_RN_3_RD_15_0.png","C_Dist_200_LN_4_LD_8_RN_3_RD_10_0.png","C_Dist_200_LN_6_LD_15_RN_3_RD_15_0.png","C_Dist_200_LN_7_LD_21_RN_2_RD_15_0.png","C_Dist_200_LN_8_LD_15_RN_2_RD_6_0.png","C_Dist_200_LN_8_LD_15_RN_3_RD_9_0.png","C_Dist_200_LN_8_LD_15_RN_7_RD_21_0.png","C_Dist_200_LN_9_LD_20_RN_4_RD_16_0.png"],["C_Dist_200_LN_1_LD_2_RN_21_RD_30_1.png","C_Dist_200_LN_13_LD_26_RN_14_RD_20_1.png","C_Dist_200_LN_3_LD_10_RN_11_RD_22_1.png","C_Dist_200_LN_3_LD_10_RN_14_RD_28_1.png","C_Dist_200_LN_3_LD_10_RN_7_RD_14_1.png","C_Dist_200_LN_3_LD_12_RN_9_RD_20_1.png","C_Dist_200_LN_3_LD_6_RN_14_RD_20_1.png","C_Dist_200_LN_5_LD_10_RN_14_RD_20_1.png","C_Dist_200_LN_6_LD_12_RN_7_RD_10_1.png","C_Dist_200_LN_6_LD_20_RN_11_RD_22_1.png","C_Dist_200_LN_7_LD_15_RN_18_RD_27_1.png","C_Dist_200_LN_9_LD_30_RN_13_RD_26_1.png"]],"dist200_I":[["I_Dist_200_LN_1_LD_2_RN_3_RD_10_0.png","I_Dist_200_LN_1_LD_3_RN_2_RD_15_0.png","I_Dist_200_LN_3_LD_4_RN_11_RD_20_0.png","I_Dist_200_LN_4_LD_5_RN_6_RD_10_0.png","I_Dist_200_LN_4_LD_6_RN_14_RD_30_0.png","I_Dist_200_LN_7_LD_10_RN_12_RD_24_0.png","I_Dist_200_LN_7_LD_10_RN_14_RD_28_0.png","I_Dist_200_LN_7_LD_10_RN_8_RD_16_0.png"],["I_Dist_200_LN_11_LD_20_RN_3_RD_4_1.png","I_Dist_200_LN_14_LD_30_RN_12_RD_18_1.png","I_Dist_200_LN_14_LD_30_RN_6_RD_9_1.png","I_Dist_200_LN_3_LD_10_RN_1_RD_2_1.png","I_Dist_200_LN_4_LD_30_RN_1_RD_3_1.png","I_Dist_200_LN_6_LD_20_RN_3_RD_6_1.png","I_Dist_200_LN_7_LD_15_RN_4_RD_6_1.png","I_Dist_200_LN_7_LD_15_RN_6_RD_9_1.png","I_Dist_200_LN_9_LD_15_RN_8_RD_10_1.png"]],"dist200_S":[["E_Dist_200_LN_3_LD_6_RN_3_RD_10_0.png"],["E_Dist_200_LN_3_LD_10_RN_3_RD_6_1.png"]],"dist300_C":[["C_Dist_300_LN_11_LD_22_RN_1_RD_5_0.png","C_Dist_300_LN_11_LD_22_RN_2_RD_10_0.png","C_Dist_300_LN_11_LD_22_RN_4_RD_20_0.png","C_Dist_300_LN_12_LD_24_RN_2_RD_10_0.png","C_Dist_300_LN_18_LD_20_RN_9_RD_15_0.png","C_Dist_300_LN_20_LD_25_RN_13_RD_26_0.png","C_Dist_300_LN_20_LD_25_RN_14_RD_28_0.png","C_Dist_300_LN_20_LD_25_RN_5_RD_10_0.png","C_Dist_300_LN_20_LD_25_RN_8_RD_16_0.png","C_Dist_300_LN_20_LD_25_RN_9_RD_18_0.png","C_Dist_300_LN_24_LD_30_RN_2_RD_4_0.png","C_Dist_300_LN_24_LD_30_RN_8_RD_16_0.png","C_Dist_300_LN_3_LD_6_RN_2_RD_10_0.png","C_Dist_300_LN_4_LD_10_RN_1_RD_10_0.png","C_Dist_300_LN_4_LD_5_RN_2_RD_4_0.png","C_Dist_300_LN_8_LD_16_RN_1_RD_5_0.png","C_Dist_300_LN_9_LD_10_RN_3_RD_5_0.png"],["C_Dist_300_LN_1_LD_20_RN_7_RD_20_1.png","C_Dist_300_LN_1_LD_3_RN_19_RD_30_1.png","C_Dist_300_LN_1_LD_30_RN_8_RD_24_1.png","C_Dist_300_LN_1_LD_5_RN_11_RD_22_1.png","C_Dist_300_LN_1_LD_5_RN_3_RD_6_1.png","C_Dist_300_LN_1_LD_5_RN_6_RD_12_1.png","C_Dist_300_LN_2_LD_10_RN_12_RD_24_1.png","C_Dist_300_LN_2_LD_20_RN_10_RD_25_1.png","C_Dist_300_LN_3_LD_12_RN_11_RD_20_1.png","C_Dist_300_LN_3_LD_6_RN_4_RD_5_1.png","C_Dist_300_LN_4_LD_20_RN_13_RD_26_1.png","C_Dist_300_LN_5_LD_25_RN_6_RD_12_1.png","C_Dist_300_LN_5_LD_25_RN_7_RD_14_1.png","C_Dist_300_LN_7_LD_14_RN_20_RD_25_1.png","C_Dist_300_LN_8_LD_15_RN_10_RD_12_1.png"]],"dist300_I":[["I_Dist_300_LN_1_LD_2_RN_2_RD_10_0.png","I_Dist_300_LN_1_LD_2_RN_3_RD_15_0.png","I_Dist_300_LN_2_LD_4_RN_6_RD_30_0.png","I_Dist_300_LN_3_LD_6_RN_4_RD_20_0.png","I_Dist_300_LN_4_LD_5_RN_6_RD_12_0.png","I_Dist_300_LN_4_LD_5_RN_8_RD_16_0.png","I_Dist_300_LN_7_LD_10_RN_8_RD_20_0.png","I_Dist_300_LN_8_LD_10_RN_14_RD_28_0.png","I_Dist_300_LN_8_LD_10_RN_9_RD_18_0.png"],["I_Dist_300_LN_13_LD_26_RN_12_RD_15_1.png","I_Dist_300_LN_4_LD_20_RN_2_RD_4_1.png"]],"dist300_S":[["E_Dist_300_LN_9_LD_12_RN_9_RD_20_0.png"],["E_Dist_300_LN_18_LD_30_RN_18_RD_20_1.png","E_Dist_300_LN_3_LD_10_RN_3_RD_5_1.png","E_Dist_300_LN_9_LD_20_RN_9_RD_12_1.png"]],"dist500_C":[["C_Dist_500_LN_10_LD_13_RN_7_RD_26_0.png","C_Dist_500_LN_10_LD_15_RN_4_RD_24_0.png","C_Dist_500_LN_12_LD_16_RN_3_RD_12_0.png","C_Dist_500_LN_12_LD_18_RN_4_RD_24_0.png","C_Dist_500_LN_15_LD_18_RN_5_RD_15_0.png","C_Dist_500_LN_15_LD_20_RN_1_RD_4_0.png","C_Dist_500_LN_18_LD_27_RN_1_RD_6_0.png","C_Dist_500_LN_20_LD_24_RN_1_RD_3_0.png","C_Dist_500_LN_20_LD_24_RN_3_RD_9_0.png","C_Dist_500_LN_20_LD_24_RN_7_RD_21_0.png","C_Dist_500_LN_20_LD_28_RN_3_RD_14_0.png","C_Dist_500_LN_21_LD_28_RN_6_RD_24_0.png","C_Dist_500_LN_22_LD_28_RN_2_RD_7_0.png","C_Dist_500_LN_25_LD_30_RN_9_RD_27_0.png","C_Dist_500_LN_4_LD_6_RN_1_RD_6_0.png","C_Dist_500_LN_5_LD_6_RN_2_RD_6_0.png","C_Dist_500_LN_6_LD_9_RN_1_RD_6_0.png","C_Dist_500_LN_7_LD_10_RN_1_RD_5_0.png","C_Dist_500_LN_8_LD_12_RN_1_RD_6_0.png","C_Dist_500_LN_8_LD_12_RN_4_RD_24_0.png"],["C_Dist_500_LN_1_LD_4_RN_12_RD_16_1.png","C_Dist_500_LN_1_LD_4_RN_9_RD_12_1.png","C_Dist_500_LN_1_LD_9_RN_11_RD_18_1.png","C_Dist_500_LN_10_LD_24_RN_22_RD_24_1.png","C_Dist_500_LN_2_LD_12_RN_10_RD_15_1.png","C_Dist_500_LN_2_LD_12_RN_12_RD_18_1.png","C_Dist_500_LN_2_LD_12_RN_4_RD_6_1.png","C_Dist_500_LN_2_LD_24_RN_7_RD_12_1.png","C_Dist_500_LN_2_LD_5_RN_18_RD_20_1.png","C_Dist_500_LN_2_LD_5_RN_9_RD_10_1.png","C_Dist_500_LN_2_LD_8_RN_12_RD_16_1.png","C_Dist_500_LN_2_LD_8_RN_21_RD_28_1.png","C_Dist_500_LN_3_LD_10_RN_4_RD_5_1.png","C_Dist_500_LN_3_LD_12_RN_15_RD_20_1.png","C_Dist_500_LN_3_LD_30_RN_6_RD_10_1.png","C_Dist_500_LN_3_LD_8_RN_14_RD_16_1.png","C_Dist_500_LN_4_LD_16_RN_15_RD_20_1.png","C_Dist_500_LN_4_LD_24_RN_12_RD_18_1.png","C_Dist_500_LN_5_LD_14_RN_6_RD_7_1.png","C_Dist_500_LN_7_LD_21_RN_20_RD_24_1.png","C_Dist_500_LN_7_LD_28_RN_12_RD_16_1.png","C_Dist_500_LN_7_LD_28_RN_9_RD_12_1.png","C_Dist_500_LN_9_LD_27_RN_20_RD_24_1.png"]],"dist500_I":[["I_Dist_500_LN_2_LD_3_RN_4_RD_24_0.png","I_Dist_500_LN_5_LD_6_RN_6_RD_18_0.png","I_Dist_500_LN_7_LD_8_RN_9_RD_24_0.png"],["I_Dist_500_LN_7_LD_21_RN_5_RD_6_1.png"]],"dist500_S":[["E_Dist_500_LN_6_LD_8_RN_6_RD_24_0.png"],["E_Dist_500_LN_2_LD_12_RN_2_RD_3_1.png","E_Dist_500_LN_6_LD_24_RN_6_RD_8_1.png"]]}},{"start_time":1551886950873,"click_time":1551886952635,"finger_time":1551886952495,"fix_duration":437.6831866259627,"trial":1,"RT":1622,"MT":140,"sideResp":1,"stimulus":[],"xmouse":[772,772,772,772,772,772,772,772,772,772,772,772,772,772,772,772,772,772,772,772,772,772,772,772,772,772,772,772,772,772,772,772,772,772,772,772,772,772,772,772,772,772,772,772,772,772,772,772,772,772,772,772,772,772,772,772,772,772,772,772,772,772,772,772,772,772,772,772,772,772,772,772,772,772,772,772,772,772,772,772,772,730,700,634,612,579,523,482,468],"ymouse":[493,493,493,493,493,493,493,493,493,493,493,493,493,493,493,493,493,493,493,493,493,493,493,493,493,493,493,493,493,493,493,493,493,493,493,493,493,493,493,493,493,493,493,493,493,493,493,493,493,493,493,493,493,493,493,493,493,493,493,493,493,493,493,493,493,493,493,493,493,493,493,493,493,493,493,493,493,493,493,489,472,412,381,312,288,250,168,106,84],"timestamp_mouse":[8,22,40,61,80,101,121,140,161,180,202,221,241,261,282,301,320,341,360,380,401,422,441,460,482,500,522,541,561,581,601,622,641,660,681,702,721,742,760,781,800,822,841,860,881,901,922,941,960,981,1001,1021,1042,1061,1081,1100,1122,1141,1161,1180,1202,1222,1240,1261,1282,1301,1320,1340,1361,1381,1400,1422,1441,1461,1482,1502,1520,1542,1561,1582,1601,1622,1641,1661,1681,1701,1721,1741,1761],"xSR":741.5,"ySR":469.95,"xT1":424.9,"yT1":0,"xT2":1058.1,"yT2":0,"toosoon":0,"cond_shown":"Incongruent","ratio_trial":100,"L_num":9,"L_den":18,"R_num":6,"R_den":10,"correct_side":2,"subjID":"JUANSEBASTIANHERNANDEZRINCON24","gender":"0","school":"sexto g","age":"12 AÑOS"},{"start_time":1551886955883,"click_time":1551886957933,"finger_time":1551886957434,"fix_duration":527.2656606975223,"trial":2,"RT":1551,"MT":499,"sideResp":1,"stimulus":[],"xmouse":[794,794,794,794,794,794,794,794,794,794,794,794,794,794,794,794,794,794,794,794,794,794,794,794,794,794,794,794,794,794,794,794,794,794,794,794,794,794,794,794,794,794,794,794,794,794,794,794,794,794,794,794,794,794,794,794,794,794,794,794,794,794,794,794,794,794,794,794,794,794,794,794,794,794,794,794,791,764,745,731,709,691,667,659,651,645,640,632,626,623,617,611,593,589,585,581,575,566,564,564,555,543,516],"ymouse":[514,514,514,514,514,514,514,514,514,514,514,514,514,514,514,514,514,514,514,514,514,514,514,514,514,514,514,514,514,514,514,514,514,514,514,514,514,514,514,514,514,514,514,514,514,514,514,514,514,514,514,514,514,514,514,514,514,514,514,514,514,514,514,514,514,514,514,514,514,514,514,514,514,514,514,511,492,446,421,405,364,332,287,271,255,241,232,209,189,183,168,150,118,110,103,96,89,76,74,73,65,53,36],"timestamp_mouse":[12,31,50,70,90,112,130,151,172,190,211,231,252,272,292,311,331,350,372,390,412,430,450,472,491,510,531,551,570,591,612,630,651,672,691,711,731,750,771,792,811,831,850,872,892,912,931,951,972,991,1010,1032,1052,1070,1091,1112,1131,1151,1170,1190,1211,1230,1251,1272,1292,1312,1331,1350,1371,1391,1410,1430,1451,1470,1491,1511,1532,1551,1571,1590,1611,1630,1650,1671,1691,1711,1731,1750,1771,1791,1812,1830,1850,1871,1892,1912,1931,1950,1971,1991,2010,2032,2050],"xSR":741.5,"ySR":469.95,"xT1":424.9,"yT1":0,"xT2":1058.1,"yT2":0,"toosoon":0,"cond_shown":"Congruent","ratio_trial":300,"L_num":1,"L_den":20,"R_num":7,"R_den":20,"correct_side":2,"subjID":"JUANSEBASTIANHERNANDEZRINCON24","gender":"0","school":"sexto g","age":"12 AÑOS"},{"start_time":1551886959388,"click_time":1551886962594,"finger_time":1551886961274,"fix_duration":253.11723409557408,"trial":3,"RT":1886,"MT":1320,"sideResp":2,"stimulus":[],"xmouse":[797,797,797,797,797,797,797,797,797,797,797,797,797,797,797,797,797,797,797,797,797,797,797,798,798,798,798,798,798,798,798,798,798,798,798,798,798,798,798,798,798,798,798,798,798,798,798,798,798,798,798,798,798,798,798,798,798,798,798,798,798,798,798,798,798,798,798,798,798,798,798,798,798,798,798,798,798,798,798,798,798,798,798,798,798,798,798,798,798,798,798,798,796,784,767,755,743,720,709,696,685,674,653,638,613,602,591,575,569,562,557,553,548,547,546,545,545,545,545,545,544,543,543,543,540,538,537,536,540,553,562,573,600,631,640,655,671,713,744,782,802,817,850,874,899,936,956,987,993,995,996,996,996,996,996,996,996,1017,1032,1050,1067],"ymouse":[514,514,514,514,514,514,514,514,514,514,514,514,514,514,514,514,514,514,514,514,514,514,514,515,515,515,515,515,515,515,515,515,515,515,515,515,515,515,515,515,515,515,515,515,515,515,515,515,515,515,515,515,515,515,515,515,515,515,515,515,515,515,515,515,515,515,515,515,515,515,515,515,515,515,515,515,515,515,515,515,515,515,515,515,515,515,515,515,515,515,515,515,505,472,433,409,390,352,331,313,296,280,251,240,220,210,201,185,171,157,140,125,100,91,87,84,83,83,83,83,83,83,83,83,84,86,86,93,98,111,115,116,117,104,101,96,93,93,94,99,99,96,84,78,74,63,55,44,41,41,41,41,41,41,41,41,41,41,45,49,54],"timestamp_mouse":[9,25,59,65,85,105,127,145,166,186,205,226,246,265,287,307,325,347,367,386,406,427,447,466,487,507,525,546,566,585,605,625,645,667,687,707,727,746,766,785,806,827,846,866,886,905,927,946,966,985,1006,1026,1046,1067,1086,1107,1125,1146,1165,1185,1206,1227,1245,1265,1287,1307,1325,1346,1369,1386,1405,1426,1445,1467,1486,1506,1526,1546,1566,1585,1606,1625,1647,1666,1687,1706,1727,1745,1766,1786,1805,1825,1846,1866,1886,1905,1926,1946,1966,1986,2006,2026,2045,2065,2086,2105,2125,2145,2165,2186,2206,2226,2245,2266,2286,2307,2325,2347,2366,2387,2406,2427,2447,2466,2486,2506,2526,2546,2565,2586,2605,2626,2645,2667,2687,2706,2726,2747,2765,2787,2806,2827,2845,2865,2886,2906,2926,2946,2966,2986,3006,3027,3046,3066,3085,3106,3126,3146,3166,3186,3206],"xSR":741.5,"ySR":469.95,"xT1":424.9,"yT1":0,"xT2":1058.1,"yT2":0,"toosoon":0,"cond_shown":"Congruent","ratio_trial":200,"L_num":21,"L_den":30,"R_num":2,"R_den":4,"correct_side":1,"subjID":"JUANSEBASTIANHERNANDEZRINCON24","gender":"0","school":"sexto g","age":"12 AÑOS"},{"start_time":1551886967772,"click_time":1551886973895,"finger_time":1551886969314,"fix_duration":838.3997067657381,"trial":4,"RT":1542,"MT":4581,"sideResp":1,"stimulus":[],"xmouse":[750,750,750,750,750,750,750,750,750,750,750,750,750,750,750,750,750,750,750,750,750,750,750,750,750,750,750,750,750,750,750,750,750,750,750,750,750,750,750,750,750,750,750,750,750,750,750,750,750,750,750,750,750,750,750,750,750,750,750,750,750,750,750,750,750,750,750,750,750,750,750,750,750,750,750,750,747,736,724,721,720,712,703,685,673,668,665,663,657,650,648,644,641,636,628,622,615,611,608,607,606,605,603,600,597,595,592,589,587,587,587,587,587,587,587,587,587,590,592,592,593,594,596,599,600,601,601,601,601,601,602,603,605,607,607,607,607,607,607,607,608,610,616,640,653,669,671,671,671,671,671,671,671,671,671,671,671,671,671,671,671,671,671,671,669,671,674,676,683,687,688,688,689,689,689,689,689,689,689,689,689,689,689,689,689,689,689,689,689,689,689,694,700,713,721,722,722,722,721,720,718,718,717,716,715,715,715,715,715,715,714,713,712,712,712,714,715,716,717,718,719,720,721,722,722,724,729,732,736,738,742,746,749,761,765,773,775,776,778,778,778,778,778,778,778,778,782,789,794,795,796,796,794,785,779,767,753,745,733,728,722,716,708,686,673,660,646,636,615,604,592,584,580,575,572,569,561,555,549,547,545,542,540,536,534,534,534,534,534,534,534,534,534,534,534,534,534,534,534,534,534,534,534,534,533,527,517],"ymouse":[536,536,536,536,536,536,536,536,536,536,536,536,536,536,536,536,536,536,536,536,536,536,536,536,536,536,536,536,536,536,536,536,536,536,536,536,536,536,536,536,536,536,536,536,536,536,536,536,536,536,536,536,536,536,536,536,536,536,536,536,536,536,536,536,536,536,536,536,536,536,536,536,536,536,536,536,534,526,516,512,510,505,502,492,481,468,460,452,383,356,346,337,332,322,301,286,270,256,245,243,240,238,234,225,216,210,203,193,160,154,153,153,153,153,153,152,152,151,149,149,149,148,148,145,144,143,142,142,142,142,142,140,139,138,138,138,138,138,138,138,138,139,143,160,174,190,190,190,190,190,190,190,190,190,190,190,190,190,190,190,190,190,190,190,190,189,190,193,210,223,236,255,270,285,287,287,287,287,287,287,287,287,287,287,287,287,287,287,287,287,293,313,336,382,403,406,406,406,412,416,423,425,426,428,429,429,429,429,429,432,437,446,459,479,490,497,502,505,507,509,512,514,517,521,522,522,522,520,518,517,516,516,515,514,513,513,513,513,512,511,511,511,511,511,511,511,510,504,495,493,492,491,486,470,461,447,434,426,419,417,415,414,413,410,405,394,369,348,305,280,256,235,220,196,184,172,150,137,122,118,114,109,106,99,97,97,97,97,97,97,97,97,97,97,97,97,97,97,97,97,97,97,97,97,97,87,74],"timestamp_mouse":[3,22,41,61,81,101,121,141,161,181,201,221,241,261,281,301,321,341,361,381,401,421,441,461,481,501,521,541,561,581,602,621,642,661,681,701,721,741,761,781,801,821,841,862,881,901,921,941,961,981,1001,1021,1041,1061,1081,1101,1121,1141,1161,1181,1201,1221,1243,1263,1283,1303,1323,1342,1363,1383,1402,1422,1442,1462,1482,1502,1522,1542,1562,1583,1602,1622,1643,1661,1683,1702,1722,1742,1762,1781,1802,1823,1842,1861,1883,1902,1922,1942,1962,1982,2002,2022,2043,2061,2082,2102,2123,2143,2162,2181,2202,2223,2243,2263,2282,2301,2321,2341,2362,2381,2401,2422,2442,2461,2481,2502,2521,2541,2562,2582,2602,2622,2641,2662,2682,2701,2722,2742,2761,2782,2801,2822,2842,2862,2882,2902,2922,2942,2961,2983,3002,3023,3043,3063,3083,3102,3123,3143,3163,3182,3203,3222,3242,3263,3283,3302,3322,3342,3362,3381,3403,3422,3443,3462,3483,3502,3523,3542,3562,3582,3602,3623,3642,3662,3682,3702,3722,3743,3762,3783,3802,3823,3843,3862,3883,3902,3923,3942,3962,3981,4003,4022,4042,4062,4081,4101,4122,4141,4162,4181,4201,4221,4242,4261,4281,4302,4321,4341,4361,4382,4403,4422,4442,4462,4482,4502,4523,4541,4561,4582,4602,4622,4643,4662,4681,4702,4723,4743,4761,4781,4802,4822,4841,4861,4882,4901,4923,4942,4962,4981,5003,5022,5042,5062,5082,5102,5123,5142,5161,5182,5202,5223,5243,5262,5282,5302,5321,5342,5363,5382,5402,5422,5442,5461,5481,5501,5522,5543,5562,5582,5602,5622,5642,5662,5681,5702,5721,5742,5762,5783,5802,5823,5841,5862,5882,5902,5922,5942,5962,5982,6001,6021,6043,6062,6083,6101,6122],"xSR":741.5,"ySR":469.95,"xT1":424.9,"yT1":0,"xT2":1058.1,"yT2":0,"toosoon":0,"cond_shown":"Incongruent","ratio_trial":100,"L_num":11,"L_den":22,"R_num":9,"R_den":15,"correct_side":2,"subjID":"JUANSEBASTIANHERNANDEZRINCON24","gender":"0","school":"sexto g","age":"12 AÑOS"},{"start_time":1551886976018,"click_time":1551886979014,"finger_time":1551886977574,"fix_duration":883.652186199235,"trial":5,"RT":1556,"MT":1440,"sideResp":1,"stimulus":[],"xmouse":[828,828,828,828,828,828,828,828,828,828,828,828,828,828,828,828,828,828,828,828,828,828,828,828,828,828,828,828,828,828,828,828,828,828,828,828,828,828,828,828,828,828,828,828,828,828,828,828,828,828,828,828,828,828,828,828,828,828,828,828,828,828,828,828,828,828,828,828,828,828,828,828,828,828,828,828,828,829,831,832,832,832,832,831,831,831,831,831,831,831,831,831,831,831,831,831,831,827,819,810,789,778,773,767,764,760,759,759,759,759,759,759,759,759,759,759,759,759,760,760,764,766,766,768,768,768,768,768,769,769,770,766,755,719,695,641,623,605,586,569,558,558,558,558,558,558,558,558,558,461],"ymouse":[484,484,484,484,484,484,484,484,484,484,484,484,484,484,484,484,484,484,484,484,484,484,484,484,484,484,484,484,484,484,484,484,484,484,484,484,484,484,484,484,484,484,484,484,484,484,484,484,484,484,484,484,484,484,484,484,484,484,484,484,484,484,484,484,484,484,484,484,484,484,484,484,484,484,484,484,471,461,453,448,438,435,434,432,430,428,427,425,423,421,419,418,418,418,418,418,418,417,427,440,465,477,483,489,493,501,503,505,506,506,506,506,506,506,506,506,506,506,504,501,491,486,483,480,479,479,479,479,476,473,437,411,364,270,208,115,84,59,39,20,4,4,4,4,4,4,4,4,4,4],"timestamp_mouse":[16,36,62,77,95,116,136,157,176,196,217,235,256,275,297,317,336,357,375,395,415,436,456,477,496,517,537,557,575,596,616,637,655,676,697,716,736,755,776,797,816,836,857,877,895,915,935,956,976,995,1015,1037,1055,1075,1097,1115,1136,1156,1176,1196,1216,1235,1256,1276,1295,1315,1336,1356,1376,1396,1415,1436,1456,1476,1496,1516,1536,1556,1575,1597,1616,1636,1656,1677,1697,1716,1736,1756,1776,1795,1815,1835,1857,1877,1896,1916,1936,1955,1976,1996,2015,2035,2057,2076,2096,2115,2136,2156,2176,2195,2215,2235,2257,2277,2296,2316,2335,2356,2376,2396,2416,2436,2456,2476,2496,2516,2536,2556,2576,2596,2616,2637,2656,2675,2696,2716,2736,2756,2776,2797,2816,2836,2856,2876,2897,2916,2936,2956,2976,2996],"xSR":741.5,"ySR":469.95,"xT1":424.9,"yT1":0,"xT2":1058.1,"yT2":0,"toosoon":0,"cond_shown":"Congruent","ratio_trial":300,"L_num":12,"L_den":24,"R_num":2,"R_den":10,"correct_side":1,"subjID":"JUANSEBASTIANHERNANDEZRINCON24","gender":"0","school":"sexto g","age":"12 AÑOS"},{"start_time":1551886980767,"click_time":1551886982855,"finger_time":1551886982734,"fix_duration":270.6858906324629,"trial":6,"RT":1967,"MT":121,"sideResp":1,"stimulus":[],"xmouse":[772,772,772,772,772,772,772,772,772,772,772,772,772,772,772,772,772,772,772,772,772,772,772,772,772,772,772,772,772,772,772,772,772,772,772,772,772,772,772,772,772,772,772,772,772,772,772,772,772,772,772,772,772,772,772,772,772,772,772,772,772,772,772,772,772,772,772,772,772,772,772,772,772,772,772,772,772,772,772,772,772,772,772,772,772,772,772,772,772,772,772,772,772,772,772,772,762,757,727,716,703,677,642,550,504],"ymouse":[527,527,527,527,527,527,527,527,527,527,527,527,527,527,527,527,527,527,527,527,527,527,527,527,527,527,527,527,527,527,527,527,527,527,527,527,527,527,527,527,527,527,527,527,527,527,527,527,527,527,527,527,527,527,527,527,527,527,527,527,527,527,527,527,527,527,527,527,527,527,527,527,527,527,527,527,527,527,527,527,527,527,527,527,527,527,527,527,527,527,527,527,527,527,527,527,509,484,393,337,281,219,158,57,1],"timestamp_mouse":[8,27,46,67,88,106,128,148,166,187,208,227,247,268,286,307,327,347,367,388,407,427,447,467,486,508,527,548,566,587,608,627,647,667,686,708,728,748,767,786,806,827,847,868,888,907,928,947,966,987,1007,1027,1046,1066,1088,1107,1128,1147,1166,1186,1208,1226,1246,1267,1287,1307,1327,1346,1367,1386,1407,1427,1446,1467,1487,1507,1526,1548,1568,1587,1607,1626,1647,1668,1687,1707,1727,1747,1766,1787,1807,1828,1847,1867,1887,1907,1927,1946,1967,1986,2006,2026,2048,2066,2088],"xSR":741.5,"ySR":469.95,"xT1":424.9,"yT1":0,"xT2":1058.1,"yT2":0,"toosoon":0,"cond_shown":"Incongruent","ratio_trial":100,"L_num":17,"L_den":30,"R_num":10,"R_den":15,"correct_side":2,"subjID":"JUANSEBASTIANHERNANDEZRINCON24","gender":"0","school":"sexto g","age":"12 AÑOS"},{"start_time":1551886991307,"click_time":1551886993254,"finger_time":1551886992854,"fix_duration":250,"trial":7,"RT":1547,"MT":400,"sideResp":1,"stimulus":[],"xmouse":[755,755,755,755,755,755,755,755,755,755,755,755,755,755,755,755,755,755,755,755,755,755,755,755,755,755,755,755,755,755,755,755,755,755,755,755,755,755,755,755,755,755,755,755,755,755,755,755,755,755,755,755,755,755,755,755,755,755,755,755,755,755,755,755,755,755,755,755,755,755,755,755,755,755,755,755,755,745,732,691,670,636,626,621,616,613,608,608,608,608,608,608,608,608,608,608,608,510],"ymouse":[501,501,501,501,501,501,501,501,501,501,501,501,501,501,501,501,501,501,501,501,501,501,501,501,501,501,501,501,501,501,501,501,501,501,501,501,501,501,501,501,501,501,501,501,501,501,501,501,501,501,501,501,501,501,501,501,501,501,501,501,501,501,501,501,501,501,501,501,501,501,501,501,501,501,501,501,501,458,414,296,226,101,68,47,35,19,4,4,4,4,4,4,4,4,4,4,4,2],"timestamp_mouse":[9,28,47,67,87,107,128,147,167,188,207,226,247,266,288,307,327,348,368,387,407,426,448,468,486,507,528,546,568,586,608,626,647,668,688,707,727,747,768,788,807,826,847,868,886,907,927,947,967,988,1007,1026,1046,1066,1088,1107,1126,1147,1167,1187,1207,1226,1247,1268,1286,1308,1326,1346,1367,1387,1408,1427,1447,1467,1487,1506,1528,1547,1568,1586,1607,1626,1647,1666,1687,1707,1726,1746,1767,1786,1807,1826,1846,1868,1887,1907,1927,1947],"xSR":741.5,"ySR":469.95,"xT1":424.9,"yT1":0,"xT2":1058.1,"yT2":0,"toosoon":0,"cond_shown":"Incongruent","ratio_trial":100,"L_num":3,"L_den":9,"R_num":7,"R_den":30,"correct_side":1,"subjID":"JUANSEBASTIANHERNANDEZRINCON24","gender":"0","school":"sexto g","age":"12 AÑOS"},{"start_time":1551886995711,"click_time":1551886998114,"finger_time":1551886997534,"fix_duration":355.9960499522102,"trial":8,"RT":1823,"MT":580,"sideResp":2,"stimulus":[],"xmouse":[771,771,771,771,771,771,771,771,771,771,771,771,771,771,771,771,771,771,771,771,771,771,771,771,771,771,771,771,771,771,771,771,771,771,771,771,771,771,771,771,771,771,771,771,771,771,771,771,771,771,771,771,771,771,771,771,771,771,771,771,771,771,771,771,771,771,771,771,771,771,771,771,771,771,771,771,771,771,771,771,771,771,771,771,771,771,771,771,771,772,784,812,828,849,867,901,975,1001,1030,1060,1073,1106,1119,1128,1133,1139,1145,1148,1150,1150,1150,1150,1150,1150,1150,1150,1150,1150,1149,1147,1146],"ymouse":[520,520,520,520,520,520,520,520,520,520,520,520,520,520,520,520,520,520,520,520,520,520,520,520,520,520,520,520,520,520,520,520,520,520,520,520,520,520,520,520,520,520,520,520,520,520,520,520,520,520,520,520,520,520,520,520,520,520,520,520,520,520,520,520,520,520,520,520,520,520,520,520,520,520,520,520,520,520,520,520,520,520,520,520,520,520,520,520,520,513,498,466,448,429,410,385,336,320,303,287,277,249,236,225,213,202,182,174,169,167,167,167,167,167,167,166,152,135,120,102,96],"timestamp_mouse":[9,23,44,64,84,103,122,143,162,183,203,223,242,264,282,302,323,343,364,384,402,424,443,463,482,504,523,543,564,583,604,622,642,664,683,704,723,742,763,782,803,822,844,863,882,903,923,942,964,982,1002,1023,1044,1063,1084,1103,1123,1143,1164,1184,1202,1222,1244,1264,1283,1304,1323,1343,1364,1384,1404,1422,1443,1463,1484,1503,1523,1542,1563,1584,1603,1622,1644,1663,1683,1703,1722,1743,1763,1783,1803,1823,1843,1863,1883,1902,1923,1944,1963,1982,2003,2023,2042,2063,2083,2103,2123,2143,2163,2182,2204,2223,2243,2264,2283,2303,2322,2343,2362,2382,2403],"xSR":741.5,"ySR":469.95,"xT1":424.9,"yT1":0,"xT2":1058.1,"yT2":0,"toosoon":0,"cond_shown":"Congruent","ratio_trial":300,"L_num":24,"L_den":30,"R_num":2,"R_den":4,"correct_side":1,"subjID":"JUANSEBASTIANHERNANDEZRINCON24","gender":"0","school":"sexto g","age":"12 AÑOS"},{"start_time":1551887000174,"click_time":1551887003295,"finger_time":1551887001615,"fix_duration":1020.0597719439859,"trial":9,"RT":1441,"MT":1680,"sideResp":1,"stimulus":[],"xmouse":[822,822,822,822,822,822,822,822,822,822,822,822,822,822,822,822,822,822,822,822,822,822,822,822,822,822,822,822,822,822,822,822,822,822,822,822,822,822,822,822,822,822,822,822,822,822,822,822,822,822,822,822,822,822,822,822,822,822,822,822,822,822,822,822,822,822,822,822,822,819,811,782,746,735,718,693,680,654,648,644,643,643,643,643,643,643,643,643,643,643,643,643,643,643,643,643,643,643,643,643,643,643,643,643,643,645,649,666,684,699,716,730,756,772,789,804,825,838,841,843,844,844,844,837,828,801,776,699,632,598,598,598,598,598,598,598,598,598,598,598,598,598,598,598,598,598,598,598,598,598,598,598,598,598,598,433],"ymouse":[527,527,527,527,527,527,527,527,527,527,527,527,527,527,527,527,527,527,527,527,527,527,527,527,527,527,527,527,527,527,527,527,527,527,527,527,527,527,527,527,527,527,527,527,527,527,527,527,527,527,527,527,527,527,527,527,527,527,527,527,527,527,527,527,527,527,527,527,527,527,507,462,423,407,388,364,344,303,293,287,287,287,287,287,287,287,287,287,287,287,287,287,287,287,287,287,287,287,287,287,287,287,287,287,287,287,286,276,265,257,247,239,221,209,195,182,169,158,154,152,148,147,140,132,120,97,83,51,23,9,9,9,9,9,9,9,9,9,9,9,9,9,9,9,9,9,9,9,9,9,9,9,9,9,9,5],"timestamp_mouse":[19,41,60,79,100,119,140,160,180,200,219,241,261,279,300,320,341,361,380,401,421,440,460,481,500,519,540,560,581,601,620,640,660,681,699,721,740,760,779,800,821,840,859,880,901,921,939,960,979,1001,1021,1040,1060,1079,1100,1120,1140,1160,1181,1201,1220,1240,1262,1281,1302,1321,1341,1361,1381,1402,1421,1441,1462,1481,1501,1522,1541,1562,1581,1601,1621,1642,1661,1681,1703,1723,1742,1762,1781,1801,1821,1841,1862,1882,1902,1921,1941,1961,1981,2002,2021,2041,2062,2082,2101,2122,2141,2161,2181,2201,2221,2241,2261,2282,2301,2322,2342,2362,2381,2402,2421,2441,2461,2481,2502,2522,2541,2561,2581,2602,2621,2642,2662,2682,2701,2722,2742,2762,2781,2802,2821,2841,2862,2883,2901,2921,2942,2961,2981,3002,3022,3042,3061,3082,3101,3121],"xSR":741.5,"ySR":469.95,"xT1":424.9,"yT1":0,"xT2":1058.1,"yT2":0,"toosoon":0,"cond_shown":"Incongruent","ratio_trial":100,"L_num":10,"L_den":25,"R_num":8,"R_den":16,"correct_side":2,"subjID":"JUANSEBASTIANHERNANDEZRINCON24","gender":"0","school":"sexto g","age":"12 AÑOS"},{"start_time":1551887007536,"click_time":1551887009996,"finger_time":1551887009496,"fix_duration":757.0171514355557,"trial":10,"RT":1960,"MT":500,"sideResp":1,"stimulus":[],"xmouse":[800,800,800,800,800,800,800,800,800,800,800,800,800,800,800,800,800,800,800,800,800,800,800,800,800,800,800,800,800,800,800,800,800,800,800,800,800,800,800,800,800,800,800,800,800,800,800,800,800,800,800,800,800,800,800,800,800,800,800,800,800,800,800,800,800,800,800,800,800,800,800,800,800,800,800,800,800,800,800,800,800,800,800,800,800,800,800,800,800,800,800,800,800,800,800,800,800,807,815,819,824,824,819,810,804,791,783,778,771,760,729,711,700,689,681,666,650,636,620,606,570,554,533,513],"ymouse":[516,516,516,516,516,516,516,516,516,516,516,516,516,516,516,516,516,516,516,516,516,516,516,516,516,516,516,516,516,516,516,516,516,516,516,516,516,516,516,516,516,516,516,516,516,516,516,516,516,516,516,516,516,516,516,516,516,516,516,516,516,516,516,516,516,516,516,516,516,516,516,516,516,516,516,516,516,516,516,516,516,516,516,516,516,516,516,516,516,516,516,516,516,516,516,516,504,475,438,414,368,339,313,288,275,256,249,244,238,229,201,187,178,168,161,147,132,120,104,94,82,77,69,61],"timestamp_mouse":[1,19,40,59,80,99,119,141,160,179,199,219,239,271,279,300,319,339,359,380,399,419,440,459,479,500,520,539,560,579,600,620,639,660,680,699,720,739,759,779,799,820,840,860,881,899,920,939,960,979,999,1020,1039,1059,1079,1099,1119,1139,1159,1179,1199,1220,1239,1259,1279,1299,1319,1339,1359,1383,1399,1419,1439,1459,1480,1499,1519,1540,1559,1580,1600,1621,1639,1660,1679,1699,1719,1740,1759,1779,1799,1819,1839,1860,1879,1899,1919,1939,1960,1979,2000,2019,2039,2059,2079,2099,2120,2139,2160,2179,2200,2219,2240,2259,2280,2299,2320,2340,2360,2380,2399,2419,2440,2460],"xSR":741.5,"ySR":469.95,"xT1":424.9,"yT1":0,"xT2":1058.1,"yT2":0,"toosoon":0,"cond_shown":"Incongruent","ratio_trial":200,"L_num":1,"L_den":3,"R_num":2,"R_den":15,"correct_side":1,"subjID":"JUANSEBASTIANHERNANDEZRINCON24","gender":"0","school":"sexto g","age":"12 AÑOS"},{"start_time":1551887015513,"click_time":1551887017195,"finger_time":1551887016835,"fix_duration":1477.4920777321454,"trial":11,"RT":1322,"MT":360,"sideResp":1,"stimulus":[],"xmouse":[758,758,758,758,758,758,758,758,758,758,758,758,758,758,758,758,758,758,758,758,758,758,758,758,758,758,758,758,758,758,758,758,758,758,758,758,758,758,758,758,758,758,758,758,758,758,758,758,758,758,758,758,758,758,758,758,758,758,758,758,758,758,758,758,758,758,758,749,721,704,686,653,653,653,653,653,653,653,653,653,653,653,653,653,505],"ymouse":[504,504,504,504,504,504,504,504,504,504,504,504,504,504,504,504,504,504,504,504,504,504,504,504,504,504,504,504,504,504,504,504,504,504,504,504,504,504,504,504,504,504,504,504,504,504,504,504,504,504,504,504,504,504,504,504,504,504,504,504,504,504,504,504,504,497,430,356,254,189,126,15,15,15,15,15,15,15,15,15,15,15,15,15,39],"timestamp_mouse":[8,22,42,63,83,102,122,142,163,182,203,222,243,262,282,302,322,344,363,383,402,422,442,462,483,502,522,542,562,582,604,622,642,662,683,702,722,742,763,783,804,822,842,862,883,902,922,942,962,982,1002,1023,1042,1062,1082,1102,1122,1143,1162,1183,1204,1222,1242,1263,1282,1303,1322,1342,1362,1382,1402,1422,1443,1462,1482,1502,1522,1543,1562,1583,1603,1622,1642,1662,1682],"xSR":741.5,"ySR":469.95,"xT1":424.9,"yT1":0,"xT2":1058.1,"yT2":0,"toosoon":0,"cond_shown":"Congruent","ratio_trial":300,"L_num":3,"L_den":6,"R_num":4,"R_den":5,"correct_side":2,"subjID":"JUANSEBASTIANHERNANDEZRINCON24","gender":"0","school":"sexto g","age":"12 AÑOS"},{"start_time":1551887023601,"click_time":1551887025416,"finger_time":1551887025135,"fix_duration":1245.203342603969,"trial":12,"RT":1534,"MT":281,"sideResp":1,"stimulus":[],"xmouse":[789,789,789,789,789,789,789,789,789,789,789,789,789,789,789,789,789,789,789,789,789,789,789,789,789,789,789,789,789,789,789,789,789,789,789,789,789,789,789,789,789,789,789,789,789,789,789,789,789,789,789,789,789,789,789,789,789,789,789,789,789,789,789,789,789,789,789,789,789,789,789,789,789,789,789,789,777,738,700,655,644,644,642,640,622,605,565,545,519,494,479],"ymouse":[486,486,486,486,486,486,486,486,486,486,486,486,486,486,486,486,486,486,486,486,486,486,486,486,486,486,486,486,486,486,486,486,486,486,486,486,486,486,486,486,486,486,486,486,486,486,486,486,486,486,486,486,486,486,486,486,486,486,486,486,486,486,486,486,486,486,486,486,486,486,486,486,486,486,486,486,429,365,320,282,273,273,272,270,259,248,216,188,146,108,83],"timestamp_mouse":[15,34,65,75,96,114,134,154,174,194,227,235,254,275,294,315,336,354,374,394,415,435,454,474,495,514,534,554,575,595,614,635,655,674,694,714,734,755,775,795,814,834,855,875,895,914,934,956,975,994,1014,1034,1056,1075,1094,1115,1135,1155,1175,1195,1214,1234,1255,1275,1294,1314,1334,1354,1374,1395,1415,1434,1454,1474,1494,1514,1534,1554,1574,1595,1614,1634,1654,1674,1695,1715,1734,1754,1774,1795,1815],"xSR":741.5,"ySR":469.95,"xT1":424.9,"yT1":0,"xT2":1058.1,"yT2":0,"toosoon":0,"cond_shown":"Incongruent","ratio_trial":200,"L_num":6,"L_den":20,"R_num":3,"R_den":6,"correct_side":2,"subjID":"JUANSEBASTIANHERNANDEZRINCON24","gender":"0","school":"sexto g","age":"12 AÑOS"},{"start_time":1551887030075,"click_time":1551887031755,"finger_time":1551887031335,"fix_duration":679.2779041273336,"trial":13,"RT":1260,"MT":420,"sideResp":2,"stimulus":[],"xmouse":[813,813,813,813,813,813,813,813,813,813,813,813,813,813,813,813,813,813,813,813,813,813,813,813,813,813,813,813,813,813,813,813,813,813,813,813,813,813,813,813,813,813,813,813,813,813,813,813,813,813,813,813,813,813,813,813,813,813,813,813,813,813,815,837,857,879,909,944,1020,1052,1100,1119,1136,1149,1156,1162,1166,1169,1172,1172,1170,1166,1161,1159,1158],"ymouse":[491,491,491,491,491,491,491,491,491,491,491,491,491,491,491,491,491,491,491,491,491,491,491,491,491,491,491,491,491,491,491,491,491,491,491,491,491,491,491,491,491,491,491,491,491,491,491,491,491,491,491,491,491,491,491,491,491,491,491,491,491,491,491,467,450,427,402,373,305,277,233,218,199,175,160,143,128,117,108,106,101,95,89,86,86],"timestamp_mouse":[2,20,40,61,81,101,120,140,160,180,200,221,240,262,280,301,320,341,362,380,400,420,441,460,481,500,521,541,560,580,601,620,640,660,680,700,721,740,760,782,800,820,840,860,880,900,920,940,960,980,1000,1020,1041,1060,1082,1100,1122,1140,1160,1180,1201,1221,1242,1260,1280,1300,1320,1341,1360,1380,1400,1421,1440,1460,1480,1501,1520,1541,1560,1581,1600,1621,1640,1660,1680],"xSR":741.5,"ySR":469.95,"xT1":424.9,"yT1":0,"xT2":1058.1,"yT2":0,"toosoon":0,"cond_shown":"Congruent","ratio_trial":200,"L_num":7,"L_den":21,"R_num":2,"R_den":15,"correct_side":1,"subjID":"JUANSEBASTIANHERNANDEZRINCON24","gender":"0","school":"sexto g","age":"12 AÑOS"},{"start_time":1551887035487,"click_time":1551887037075,"finger_time":1551887036976,"fix_duration":250,"trial":14,"RT":1489,"MT":99,"sideResp":1,"stimulus":[],"xmouse":[803,803,803,803,803,803,803,803,803,803,803,803,803,803,803,803,803,803,803,803,803,803,803,803,803,803,803,803,803,803,803,803,803,803,803,803,803,803,803,803,803,803,803,803,803,803,803,803,803,803,803,803,803,803,803,803,803,803,803,803,803,803,803,803,803,803,803,803,803,803,801,797,770,754,721,668,609,505,477,460],"ymouse":[558,558,558,558,558,558,558,558,558,558,558,558,558,558,558,558,558,558,558,558,558,558,558,558,558,558,558,558,558,558,558,558,558,558,558,558,558,558,558,558,558,558,558,558,558,558,558,558,558,558,558,558,558,558,558,558,558,558,558,558,558,558,558,558,558,558,558,558,558,558,556,545,501,479,436,363,273,133,103,88],"timestamp_mouse":[8,28,64,69,88,108,128,149,168,189,208,228,248,269,289,309,329,348,368,389,408,428,448,468,488,508,528,548,568,590,608,628,648,668,690,709,728,748,768,788,809,828,848,869,889,908,929,948,968,989,1008,1028,1048,1069,1088,1109,1128,1148,1169,1188,1208,1228,1248,1268,1288,1308,1328,1348,1368,1388,1408,1428,1448,1468,1489,1508,1528,1548,1569,1588],"xSR":741.5,"ySR":469.95,"xT1":424.9,"yT1":0,"xT2":1058.1,"yT2":0,"toosoon":0,"cond_shown":"Congruent","ratio_trial":300,"L_num":5,"L_den":25,"R_num":7,"R_den":14,"correct_side":2,"subjID":"JUANSEBASTIANHERNANDEZRINCON24","gender":"0","school":"sexto g","age":"12 AÑOS"},{"start_time":1551887039267,"click_time":1551887041635,"finger_time":1551887040695,"fix_duration":470.02210492338924,"trial":15,"RT":1428,"MT":940,"sideResp":1,"stimulus":[],"xmouse":[763,763,763,763,763,763,763,763,763,763,763,763,763,763,763,763,763,763,763,763,763,763,763,763,763,763,763,763,763,763,763,763,763,763,763,763,763,763,763,763,763,763,763,763,763,763,763,763,763,763,763,763,763,763,763,763,763,763,763,763,763,763,763,763,763,763,763,763,763,763,764,764,764,752,746,739,735,731,726,725,725,724,724,722,721,718,713,708,692,683,673,660,653,638,632,628,623,616,600,594,585,574,566,559,555,551,549,547,547,547,547,547,547,547,547,543,536,527,513],"ymouse":[499,499,499,499,499,499,499,499,499,499,499,499,499,499,499,499,499,499,499,499,499,499,499,499,499,499,499,499,499,499,499,499,499,499,499,499,499,499,499,499,499,499,499,499,499,499,499,499,499,499,499,499,499,499,499,499,499,499,499,499,499,499,499,499,499,499,499,499,499,499,487,456,436,395,372,350,332,319,308,306,304,301,299,297,295,292,284,275,250,237,222,205,197,183,180,178,175,172,162,160,155,144,138,133,129,123,118,117,116,116,116,116,116,116,116,104,87,73,50],"timestamp_mouse":[11,28,49,68,88,108,129,149,169,188,209,228,249,278,288,308,330,348,369,388,408,428,448,469,488,508,529,548,568,588,608,628,649,668,688,708,729,749,768,788,809,828,848,868,889,908,929,948,969,989,1008,1029,1049,1068,1088,1109,1130,1149,1168,1188,1208,1228,1248,1268,1288,1308,1328,1348,1368,1388,1408,1428,1448,1469,1488,1508,1528,1548,1568,1588,1609,1628,1648,1669,1688,1709,1728,1749,1768,1789,1808,1829,1848,1869,1888,1908,1928,1948,1969,1988,2009,2028,2048,2069,2088,2109,2128,2148,2168,2190,2208,2228,2249,2268,2288,2309,2328,2349,2368],"xSR":741.5,"ySR":469.95,"xT1":424.9,"yT1":0,"xT2":1058.1,"yT2":0,"toosoon":0,"cond_shown":"Congruent","ratio_trial":100,"L_num":1,"L_den":2,"R_num":3,"R_den":5,"correct_side":2,"subjID":"JUANSEBASTIANHERNANDEZRINCON24","gender":"0","school":"sexto g","age":"12 AÑOS"},{"start_time":1551887045092,"click_time":1551887062996,"finger_time":1551887050035,"fix_duration":1494.4704055226753,"trial":16,"RT":4943,"MT":12961,"sideResp":2,"stimulus":[],"xmouse":[814,814,814,814,814,814,814,814,814,814,814,814,814,814,814,814,814,814,814,814,814,814,814,814,814,814,814,814,814,814,814,814,814,814,814,814,814,814,814,814,814,814,814,814,814,814,814,814,814,814,814,814,814,814,814,814,814,814,814,814,814,814,814,814,814,814,814,814,814,814,814,814,814,814,814,814,814,814,814,814,814,814,814,814,814,814,814,814,814,814,814,814,814,814,814,814,814,814,814,814,814,814,814,814,814,814,814,814,814,814,814,814,814,814,814,814,814,814,814,814,814,814,814,814,814,814,814,814,814,814,814,814,814,814,814,814,814,814,814,814,814,814,814,814,814,814,814,814,814,814,814,814,814,814,814,814,814,814,814,814,814,814,814,814,814,814,814,814,814,814,814,814,814,814,814,814,814,814,814,814,814,814,814,814,814,814,814,814,814,814,814,814,814,814,814,814,814,814,814,814,814,814,814,814,814,814,814,814,814,814,814,814,814,814,814,814,814,814,814,814,814,814,814,814,814,814,814,814,814,814,814,814,814,814,814,814,814,814,814,814,814,814,814,814,814,814,814,828,880,909,909,909,1034,1161,1288,1357,1371,1366,1339,1326,1295,1277,1256,1247,1235,1220,1204,1163,1146,1125,1106,1086,1037,1011,989,970,954,946,952,968,995,1013,1047,1055,1055,1055,1055,1055,1055,1055,1055,1055,1058,1074,1089,1095,1095,1095,1095,1095,1095,1095,1095,1095,1095,1095,1095,1095,1095,1095,1095,1095,1095,1095,1095,1095,1095,1095,1096,1100,1101,1101,1098,1096,1096,1096,1097,1097,1097,1097,1097,1097,1097,1102,1118,1125,1127,1127,1127,1127,1127,1127,1127,1127,1127,1127,1127,1127,1127,1127,1127,1127,1127,1127,1127,1127,1127,1127,1127,1127,1127,1127,1127,1127,1127,1127,1127,1127,1127,1127,1127,1127,1127,1123,1100,1084,1081,1081,1081,1081,1081,1081,1081,1081,1081,1081,1081,1081,1081,1080,1082,1084,1076,1074,1074,1074,1074,1074,1074,1074,1074,1074,1074,1074,1074,1074,1074,1074,1080,1080,1080,1080,1080,1080,1080,1080,1080,1080,1080,1080,1080,1080,1080,1080,1080,1080,1080,1080,1080,1080,1080,1080,1080,1080,1083,1086,1091,1094,1094,1095,1095,1095,1095,1095,1065,1036,1032,1032,1032,1032,1032,1032,1032,1032,1032,1032,1032,1032,1032,1032,1032,1032,1032,1032,1032,1032,1032,1029,1028,1027,1023,1023,1024,1024,1026,1028,1030,1034,1037,1037,1037,1037,1018,1004,1000,1000,1000,1000,1000,1000,1000,1000,1000,1000,1000,1000,1000,1000,1000,1000,1000,1000,1000,1000,1000,1000,1000,1000,1000,1000,1000,1000,1000,1000,1000,1000,1000,1000,1000,1000,1000,1000,1000,1000,1000,1000,1000,1000,1000,1000,1000,1000,1000,1000,1000,1000,1000,1000,1000,1000,1000,1000,1000,1000,1000,1000,1000,1000,1000,1000,1000,1000,1000,1000,1000,1000,1000,1000,1000,1000,1000,1000,1000,1000,1000,1000,1000,1000,1000,1000,1000,1000,1000,1000,1000,1000,1000,1000,1000,1000,1000,1000,1000,1000,1000,1000,1000,1000,1000,1000,1000,1000,1000,1000,1000,1000,1000,1000,1000,1000,1000,1000,1000,1000,1000,1000,1000,1000,1000,1000,1000,1000,1000,1000,1000,1000,1000,1000,1000,1000,1000,1000,1000,1000,1000,1000,1000,1000,1000,1000,1000,1000,1000,1000,1000,1000,1000,1000,1000,1000,1000,1000,1000,1000,1000,1000,1000,1000,1000,1000,1000,1000,1000,1000,1000,1000,1000,1000,1000,1000,1000,1000,1000,1000,1000,173,176,182,187,193,197,197,197,197,197,197,199,229,259,271,279,306,360,372,378,382,382,382,382,382,382,382,382,382,382,382,382,382,382,382,382,382,382,382,382,382,382,382,382,382,382,384,414,437,458,472,479,480,480,485,494,525,639,689,714,724,726,727,727,727,727,727,727,727,727,729,742,762,764,764,764,764,764,764,764,764,764,764,764,764,764,764,768,769,770,770,770,770,770,770,770,770,770,770,770,770,770,770,770,770,770,770,770,770,770,770,770,770,770,770,770,770,770,770,770,770,770,770,770,770,770,770,770,770,770,770,770,770,770,770,770,770,770,770,770,770,770,770,770,770,770,770,770,770,770,770,770,770,770,770,770,770,770,770,770,770,770,770,773,775,789,801,813,815,815,815,815,815,815,815,815,815,815,810,800,790,779,759,753,748,744,743,743,743,743,743,743,743,743,743,743,743,743,743,743,743,743,743,743,743,743,743,743,745,746,746,746,763,791,850,963,1032,1102,1119,1130,1135,1137,1138,1139,1139,1139,1139,1130,1123,1116,1108],"ymouse":[503,503,503,503,503,503,503,503,503,503,503,503,503,503,503,503,503,503,503,503,503,503,503,503,503,503,503,503,503,503,503,503,503,503,503,503,503,503,503,503,503,503,503,503,503,503,503,503,503,503,503,503,503,503,503,503,503,503,503,503,503,503,503,503,503,503,503,503,503,503,503,503,503,503,503,503,503,503,503,503,503,503,503,503,503,503,503,503,503,503,503,503,503,503,503,503,503,503,503,503,503,503,503,503,503,503,503,503,503,503,503,503,503,503,503,503,503,503,503,503,503,503,503,503,503,503,503,503,503,503,503,503,503,503,503,503,503,503,503,503,503,503,503,503,503,503,503,503,503,503,503,503,503,503,503,503,503,503,503,503,503,503,503,503,503,503,503,503,503,503,503,503,503,503,503,503,503,503,503,503,503,503,503,503,503,503,503,503,503,503,503,503,503,503,503,503,503,503,503,503,503,503,503,503,503,503,503,503,503,503,503,503,503,503,503,503,503,503,503,503,503,503,503,503,503,503,503,503,503,503,503,503,503,503,503,503,503,503,503,503,503,503,503,503,503,503,503,442,163,1,1,1,85,146,203,230,237,245,277,299,352,392,442,459,476,495,510,539,546,551,554,555,555,555,555,549,538,500,466,435,401,384,356,346,346,346,346,346,346,346,346,346,349,379,426,472,473,473,473,473,473,473,473,473,473,473,473,473,473,473,473,473,473,473,473,473,473,473,473,474,475,475,478,479,479,481,483,484,484,484,484,484,484,484,472,469,468,468,468,468,468,468,468,468,468,468,468,468,468,468,468,468,468,468,468,468,468,468,468,468,468,468,468,468,468,468,468,468,468,468,468,468,468,471,491,509,511,511,511,511,511,511,511,511,511,511,511,511,511,513,505,495,472,468,468,468,468,468,468,468,468,468,468,468,468,468,473,543,579,579,579,579,579,579,579,579,579,579,579,579,579,579,579,579,579,579,579,579,579,579,579,579,579,579,590,601,609,614,614,614,614,614,614,618,655,696,711,712,712,712,712,712,712,712,712,712,712,712,712,712,712,712,712,712,712,713,714,717,717,717,713,709,706,706,705,703,703,702,700,700,700,700,710,717,720,720,720,720,720,720,720,720,720,720,720,720,720,720,720,720,720,720,720,720,720,720,720,720,720,720,720,720,720,720,720,720,720,720,720,720,720,720,720,720,720,720,720,720,720,720,720,720,720,720,720,720,720,720,720,720,720,720,720,720,720,720,720,720,720,720,720,720,720,720,720,720,720,720,720,720,720,720,720,720,720,720,720,720,720,720,720,720,720,720,720,720,720,720,720,720,720,720,720,720,720,720,720,720,720,720,720,720,720,720,720,720,720,720,720,720,720,720,720,720,720,720,720,720,720,720,720,720,720,720,720,720,720,720,720,720,720,720,720,720,720,720,720,720,720,720,720,720,720,720,720,720,720,720,720,720,720,720,720,720,720,720,720,720,720,720,720,720,720,720,720,720,720,720,720,720,720,720,720,720,720,612,605,591,580,563,549,549,549,549,549,549,542,507,492,490,490,487,465,460,458,457,457,457,457,457,457,457,457,457,457,457,457,457,457,457,457,457,457,457,457,457,457,457,457,457,457,457,475,484,489,492,494,494,494,495,495,495,500,510,519,524,525,525,525,525,525,525,525,525,525,525,522,514,513,513,513,513,513,513,513,513,513,513,513,513,513,513,512,511,510,510,510,510,510,510,510,510,510,510,510,510,510,510,510,510,510,510,510,510,510,510,510,510,510,510,510,510,510,510,510,510,510,510,510,510,510,510,510,510,510,510,510,510,510,510,510,510,510,510,510,510,510,510,510,510,510,510,510,510,510,510,510,510,510,510,510,510,510,510,510,510,510,510,509,508,500,492,480,479,479,479,479,479,479,479,479,479,479,489,504,519,537,571,583,592,599,600,600,600,600,600,600,600,600,600,600,600,600,600,600,600,600,600,600,600,600,600,600,600,599,599,599,590,570,522,396,318,222,196,176,164,157,154,152,149,147,146,132,120,102,82],"timestamp_mouse":[8,24,58,63,83,104,124,144,164,184,203,225,243,264,283,304,324,343,364,384,403,425,444,464,483,504,524,544,563,584,604,625,644,663,683,704,723,743,765,784,804,824,843,864,884,903,924,943,963,983,1004,1024,1044,1064,1083,1103,1123,1145,1163,1184,1203,1224,1243,1264,1283,1304,1324,1343,1363,1383,1404,1424,1443,1464,1483,1503,1523,1543,1564,1584,1604,1623,1643,1664,1683,1703,1723,1743,1763,1783,1804,1823,1843,1863,1883,1904,1923,1944,1963,1984,2005,2024,2043,2063,2084,2104,2123,2143,2163,2184,2205,2224,2243,2264,2284,2305,2323,2343,2363,2385,2404,2424,2443,2463,2483,2503,2523,2543,2563,2584,2605,2624,2643,2663,2683,2704,2724,2743,2763,2783,2804,2823,2843,2863,2884,2903,2924,2943,2963,2984,3003,3024,3043,3063,3083,3104,3124,3143,3163,3184,3204,3223,3245,3264,3284,3305,3324,3343,3363,3383,3403,3424,3443,3463,3483,3504,3525,3543,3563,3584,3604,3625,3643,3664,3684,3703,3724,3743,3763,3784,3805,3824,3843,3863,3885,3904,3924,3943,3963,3983,4004,4023,4043,4063,4084,4103,4124,4143,4163,4185,4204,4224,4243,4265,4283,4304,4324,4343,4363,4383,4403,4423,4443,4463,4484,4503,4523,4543,4563,4583,4603,4624,4643,4664,4684,4703,4723,4744,4764,4784,4803,4823,4843,4863,4884,4904,4923,4943,4964,4984,5003,5023,5044,5063,5084,5103,5124,5143,5163,5184,5203,5223,5244,5263,5284,5304,5323,5343,5363,5383,5403,5423,5443,5463,5483,5504,5524,5543,5563,5584,5603,5624,5643,5663,5684,5703,5723,5743,5763,5783,5804,5824,5843,5863,5883,5903,5924,5943,5964,5983,6003,6023,6043,6064,6083,6103,6123,6144,6163,6184,6203,6223,6243,6263,6284,6304,6323,6344,6363,6383,6404,6424,6443,6464,6484,6503,6524,6543,6564,6584,6603,6623,6643,6663,6683,6704,6723,6744,6763,6784,6804,6824,6844,6863,6884,6903,6924,6944,6963,6983,7004,7024,7043,7064,7084,7104,7124,7144,7163,7185,7204,7224,7243,7263,7284,7304,7323,7344,7364,7384,7403,7423,7443,7464,7483,7504,7523,7543,7564,7584,7603,7624,7644,7664,7683,7704,7724,7744,7764,7783,7803,7824,7843,7864,7884,7903,7924,7944,7964,7984,8003,8023,8044,8064,8083,8103,8123,8143,8164,8184,8203,8224,8244,8263,8284,8304,8323,8344,8363,8384,8404,8423,8443,8464,8483,8503,8524,8543,8565,8583,8604,8624,8644,8663,8683,8703,8724,8743,8763,8783,8804,8824,8843,8864,8884,8903,8923,8943,8963,8983,9003,9023,9043,9063,9083,9103,9124,9143,9163,9184,9203,9224,9243,9264,9283,9303,9324,9343,9363,9383,9404,9423,9443,9463,9483,9503,9523,9543,9564,9583,9604,9623,9643,9663,9683,9703,9724,9743,9765,9783,9803,9823,9844,9864,9883,9904,9923,9943,9964,9984,10004,10024,10044,10063,10083,10104,10123,10143,10164,10183,10204,10224,10243,10264,10284,10304,10324,10344,10363,10384,10403,10424,10443,10463,10483,10503,10523,10543,10564,10583,10605,10624,10643,10664,10684,10704,10724,10744,10763,10783,10805,10824,10843,10864,10883,10903,10923,10943,10963,10985,11003,11024,11044,11063,11083,11103,11124,11144,11164,11183,11203,11224,11243,11264,11283,11303,11324,11343,11363,11383,11403,11423,11443,11464,11484,11504,11524,11544,11564,11583,11604,11623,11643,11664,11684,11704,11723,11743,11764,11783,11804,11824,11844,11863,11883,11904,11923,11943,11963,11984,12003,12023,12044,12063,12085,12104,12123,12144,12164,12183,12203,12223,12244,12264,12283,12303,12324,12343,12364,12383,12403,12424,12443,12464,12483,12503,12524,12544,12563,12584,12604,12624,12643,12663,12683,12703,12724,12743,12764,12783,12803,12824,12843,12864,12883,12903,12923,12944,12963,12983,13004,13024,13044,13064,13083,13103,13124,13144,13163,13185,13205,13224,13243,13264,13283,13303,13324,13343,13363,13383,13404,13423,13443,13464,13484,13503,13524,13543,13564,13584,13603,13623,13644,13663,13683,13704,13724,13743,13763,13783,13803,13824,13843,13863,13884,13904,13924,13944,13963,13984,14003,14024,14043,14063,14084,14103,14123,14143,14164,14183,14204,14223,14243,14263,14283,14303,14324,14344,14363,14383,14403,14423,14444,14463,14484,14503,14524,14543,14564,14584,14603,14624,14643,14663,14683,14703,14723,14743,14763,14783,14805,14823,14843,14863,14884,14904,14923,14943,14964,14984,15003,15023,15043,15064,15083,15104,15124,15143,15163,15183,15203,15223,15243,15263,15283,15304,15324,15343,15363,15383,15404,15423,15443,15464,15484,15503,15524,15544,15563,15584,15603,15623,15643,15663,15684,15703,15723,15744,15765,15783,15803,15824,15843,15864,15884,15903,15923,15943,15964,15983,16003,16023,16043,16063,16083,16103,16123,16143,16163,16183,16204,16223,16244,16263,16283,16303,16323,16343,16364,16384,16403,16424,16443,16464,16483,16504,16523,16544,16565,16583,16605,16623,16644,16663,16683,16704,16723,16744,16764,16783,16805,16824,16844,16863,16883,16903,16924,16943,16964,16984,17005,17024,17043,17064,17085,17104,17124,17144,17163,17184,17204,17225,17244,17265,17283,17304,17324,17344,17364,17383,17403,17425,17444,17463,17483,17504,17524,17544,17564,17583,17604,17624,17644,17663,17684,17704,17724,17743,17764,17783,17803,17824,17844,17863,17883,17904],"xSR":741.5,"ySR":469.95,"xT1":424.9,"yT1":0,"xT2":1058.1,"yT2":0,"toosoon":0,"cond_shown":"Incongruent","ratio_trial":100,"L_num":9,"L_den":15,"R_num":13,"R_den":26,"correct_side":1,"subjID":"JUANSEBASTIANHERNANDEZRINCON24","gender":"0","school":"sexto g","age":"12 AÑOS"},{"start_time":1551887067196,"click_time":1551887070475,"finger_time":1551887068516,"fix_duration":1098.8296278678254,"trial":17,"RT":1320,"MT":1959,"sideResp":1,"stimulus":[],"xmouse":[804,804,804,804,804,804,804,804,804,804,804,804,804,804,804,804,804,804,804,804,804,804,804,804,804,804,804,804,804,804,804,804,804,804,804,804,804,804,804,804,804,804,804,804,804,804,804,804,804,804,804,804,804,804,804,804,805,806,806,806,806,806,806,806,810,815,826,846,851,854,857,857,861,861,861,861,861,861,861,861,862,870,887,894,905,910,922,931,941,949,956,963,970,974,978,981,982,982,982,982,982,982,982,982,982,982,982,982,982,982,982,982,982,982,982,982,982,982,982,982,982,982,982,982,982,982,982,982,982,982,982,977,935,883,823,731,692,653,643,638,632,625,609,605,603,597,592,581,575,570,562,556,546,541,531,528,527,527,527,527,527,527,527,526,516],"ymouse":[501,501,501,501,501,501,501,501,501,501,501,501,501,501,501,501,501,501,501,501,501,501,501,501,501,501,501,501,501,501,501,501,501,501,501,501,501,501,501,501,501,501,501,501,501,501,501,501,501,501,501,501,501,501,501,501,501,501,501,501,501,501,501,501,497,485,460,408,391,380,374,369,363,363,363,363,363,363,363,363,362,350,326,315,296,286,257,238,214,196,181,167,151,143,134,130,128,128,128,128,128,128,128,128,128,128,128,128,128,128,128,128,128,128,128,128,128,128,128,128,128,128,128,128,128,128,128,128,128,128,128,128,113,107,98,93,93,94,98,99,99,99,95,92,91,86,80,71,67,66,63,63,63,63,65,66,66,66,66,66,66,66,66,66,66],"timestamp_mouse":[8,20,44,60,80,100,119,139,159,179,201,219,240,260,280,300,320,341,360,381,401,419,440,461,479,501,519,539,561,580,601,619,640,659,679,699,720,740,760,780,799,820,839,861,879,900,921,939,961,979,1000,1019,1041,1061,1080,1100,1119,1141,1159,1180,1201,1221,1240,1260,1280,1300,1320,1339,1361,1380,1399,1421,1440,1460,1479,1500,1520,1540,1559,1579,1599,1620,1639,1660,1680,1700,1720,1741,1759,1780,1800,1820,1839,1861,1880,1900,1919,1939,1960,1981,1999,2020,2041,2061,2080,2100,2120,2140,2160,2180,2199,2219,2240,2260,2281,2300,2321,2340,2359,2379,2399,2420,2440,2460,2481,2499,2520,2539,2560,2580,2600,2621,2639,2660,2679,2700,2720,2740,2759,2780,2800,2819,2839,2859,2880,2899,2920,2940,2959,2979,2999,3021,3039,3060,3079,3100,3120,3139,3159,3179,3201,3221,3240,3260,3279],"xSR":741.5,"ySR":469.95,"xT1":424.9,"yT1":0,"xT2":1058.1,"yT2":0,"toosoon":0,"cond_shown":"Incongruent","ratio_trial":300,"L_num":3,"L_den":6,"R_num":4,"R_den":20,"correct_side":1,"subjID":"JUANSEBASTIANHERNANDEZRINCON24","gender":"0","school":"sexto g","age":"12 AÑOS"},{"start_time":1551887077073,"click_time":1551887079135,"finger_time":1551887078555,"fix_duration":1435.4815123365224,"trial":18,"RT":1482,"MT":580,"sideResp":1,"stimulus":[],"xmouse":[772,772,772,772,772,772,772,772,772,772,772,772,772,772,772,772,772,772,772,772,772,772,772,772,772,772,772,772,772,772,772,772,772,772,772,772,772,772,772,772,772,772,772,772,772,772,772,772,772,772,772,772,772,772,772,772,772,772,772,772,772,772,772,772,772,772,772,772,772,772,772,772,772,766,733,678,635,605,575,565,555,547,545,542,541,541,540,538,534,525,522,515,511,510,510,510,510,510,510,510,510,510,510,509],"ymouse":[552,552,552,552,552,552,552,552,552,552,552,552,552,552,552,552,552,552,552,552,552,552,552,552,552,552,552,552,552,552,552,552,552,552,552,552,552,552,552,552,552,552,552,552,552,552,552,552,552,552,552,552,552,552,552,552,552,552,552,552,552,552,552,552,552,552,552,552,552,552,552,552,552,540,505,463,427,403,373,359,343,329,326,320,317,314,309,298,265,234,223,195,174,151,142,133,128,124,119,116,113,110,107,96],"timestamp_mouse":[9,23,46,64,84,102,123,144,163,182,204,223,242,264,284,304,322,343,364,382,403,423,443,463,482,504,523,542,562,584,604,622,644,663,683,703,723,743,764,782,802,824,842,864,883,903,922,943,963,982,1002,1024,1042,1062,1083,1104,1122,1143,1163,1184,1204,1223,1243,1263,1283,1303,1324,1342,1362,1383,1403,1422,1443,1462,1482,1503,1523,1544,1562,1582,1602,1622,1643,1664,1682,1704,1722,1744,1763,1784,1802,1824,1843,1862,1882,1903,1923,1942,1962,1984,2003,2022,2042,2062],"xSR":741.5,"ySR":469.95,"xT1":424.9,"yT1":0,"xT2":1058.1,"yT2":0,"toosoon":0,"cond_shown":"Congruent","ratio_trial":300,"L_num":4,"L_den":20,"R_num":13,"R_den":26,"correct_side":2,"subjID":"JUANSEBASTIANHERNANDEZRINCON24","gender":"0","school":"sexto g","age":"12 AÑOS"},{"start_time":1551887082824,"click_time":1551887085137,"finger_time":1551887084297,"fix_duration":1307.3122639192948,"trial":19,"RT":1473,"MT":840,"sideResp":1,"stimulus":[],"xmouse":[802,802,801,798,783,767,762,754,751,750,750,750,750,750,750,750,750,750,750,750,750,750,750,750,750,750,749,749,749,750,750,750,750,750,750,750,750,750,750,750,750,750,750,750,750,750,750,750,750,750,750,750,750,750,750,750,750,750,750,750,750,750,750,750,750,750,750,750,750,750,750,762,769,789,801,816,820,822,825,832,847,850,852,852,852,852,852,852,852,852,852,852,852,852,852,852,852,827,794,754,658,598,554,510,489,467,459,454,450,448,448,448,448,448,448,451],"ymouse":[508,508,509,511,517,524,526,528,529,530,530,530,530,530,530,530,530,530,530,530,530,530,530,530,530,530,530,530,528,528,527,527,527,527,527,527,527,527,527,527,527,527,527,527,527,527,527,527,527,527,527,527,527,527,527,527,527,527,527,527,527,527,527,527,527,527,527,527,527,527,525,493,482,454,439,423,420,418,416,412,403,402,401,401,401,401,401,401,401,401,401,401,401,401,401,401,396,361,323,289,226,195,172,150,138,122,115,110,105,103,103,103,103,103,100,88],"timestamp_mouse":[12,41,51,73,92,113,131,153,172,192,212,233,251,272,293,312,331,353,371,392,411,433,451,473,493,511,532,553,571,592,612,632,651,672,693,711,731,752,773,792,812,832,852,872,891,912,931,952,972,992,1012,1031,1052,1071,1091,1112,1131,1152,1171,1192,1211,1232,1251,1272,1291,1313,1331,1353,1371,1392,1411,1432,1452,1473,1492,1511,1531,1552,1572,1593,1612,1632,1651,1673,1691,1712,1732,1753,1772,1793,1812,1832,1852,1872,1892,1913,1933,1952,1971,1993,2011,2032,2051,2072,2092,2112,2131,2151,2172,2191,2212,2232,2252,2271,2292,2313],"xSR":741.5,"ySR":469.95,"xT1":424.9,"yT1":0,"xT2":1058.1,"yT2":0,"toosoon":0,"cond_shown":"Congruent","ratio_trial":200,"L_num":3,"L_den":6,"R_num":14,"R_den":20,"correct_side":2,"subjID":"JUANSEBASTIANHERNANDEZRINCON24","gender":"0","school":"sexto g","age":"12 AÑOS"},{"start_time":1551887088103,"click_time":1551887089896,"finger_time":1551887089275,"fix_duration":1206.5759715963802,"trial":20,"RT":1172,"MT":621,"sideResp":2,"stimulus":[],"xmouse":[779,779,779,779,779,779,779,779,779,779,779,779,779,779,779,779,779,779,779,779,779,779,779,779,779,779,779,779,779,779,779,779,779,779,779,779,779,779,779,779,779,779,779,779,779,779,779,779,779,779,779,779,779,779,779,779,783,783,783,783,783,783,783,783,783,783,783,783,796,804,808,809,809,810,810,810,810,810,810,810,810,810,810,810,813,824,895,962,1074,1157],"ymouse":[501,501,501,501,501,501,501,501,501,501,501,501,501,501,501,501,501,501,501,501,501,501,501,501,501,501,501,501,501,501,501,501,501,501,501,501,501,501,501,501,501,501,501,501,501,501,501,501,501,501,501,501,501,501,501,501,490,475,469,465,465,465,465,465,465,465,465,464,458,454,452,452,452,451,451,451,451,451,451,451,451,451,451,451,451,442,370,297,172,80],"timestamp_mouse":[13,36,54,74,94,113,134,154,173,193,213,232,252,273,292,313,334,354,372,393,412,433,453,472,494,513,532,552,574,592,613,633,652,673,694,713,732,754,774,794,813,832,853,872,893,913,934,953,974,994,1014,1034,1053,1074,1092,1112,1132,1153,1172,1192,1212,1232,1254,1274,1293,1313,1332,1353,1372,1393,1412,1433,1452,1473,1494,1513,1532,1552,1574,1593,1612,1632,1652,1672,1692,1712,1733,1753,1772,1793],"xSR":741.5,"ySR":469.95,"xT1":424.9,"yT1":0,"xT2":1058.1,"yT2":0,"toosoon":0,"cond_shown":"Congruent","ratio_trial":100,"L_num":11,"L_den":22,"R_num":6,"R_den":15,"correct_side":1,"subjID":"JUANSEBASTIANHERNANDEZRINCON24","gender":"0","school":"sexto g","age":"12 AÑOS"},{"start_time":1551887093686,"click_time":1551887095175,"finger_time":1551887094715,"fix_duration":1329.2877563551135,"trial":21,"RT":1029,"MT":460,"sideResp":2,"stimulus":[],"xmouse":[810,810,810,810,810,810,810,810,810,810,810,810,810,810,810,810,810,810,810,810,810,810,810,810,810,810,810,810,810,810,810,810,810,810,810,810,810,810,810,810,810,810,810,810,810,810,810,810,810,812,828,848,888,905,922,936,945,951,951,951,951,951,951,951,951,951,951,951,951,951,951,969,1024,1101,1148],"ymouse":[506,506,506,506,506,506,506,506,506,506,506,506,506,506,506,506,506,506,506,506,506,506,506,506,506,506,506,506,506,506,506,506,506,506,506,506,506,506,506,506,506,506,506,506,506,506,506,506,506,504,475,443,387,364,343,324,311,302,302,302,302,302,302,302,302,302,302,302,302,302,302,284,195,106,43],"timestamp_mouse":[14,36,49,70,90,110,130,150,170,189,210,230,251,271,290,310,329,349,371,389,409,430,449,471,489,511,529,550,570,591,610,630,650,669,689,711,730,750,771,789,811,829,850,870,889,909,930,950,970,989,1009,1029,1050,1069,1090,1110,1131,1150,1169,1190,1210,1230,1250,1270,1289,1310,1331,1349,1370,1390,1411,1431,1449,1469,1489],"xSR":741.5,"ySR":469.95,"xT1":424.9,"yT1":0,"xT2":1058.1,"yT2":0,"toosoon":0,"cond_shown":"Incongruent","ratio_trial":300,"L_num":3,"L_den":6,"R_num":4,"R_den":20,"correct_side":1,"subjID":"JUANSEBASTIANHERNANDEZRINCON24","gender":"0","school":"sexto g","age":"12 AÑOS"},{"start_time":1551887100046,"click_time":1551887101876,"finger_time":1551887101396,"fix_duration":1308.1506978064938,"trial":22,"RT":1350,"MT":480,"sideResp":1,"stimulus":[],"xmouse":[805,805,805,805,805,805,805,805,805,805,805,805,805,805,805,805,805,805,805,805,805,805,805,805,805,805,805,805,805,805,805,805,805,805,805,805,805,805,805,805,805,805,805,805,805,805,805,805,805,805,805,805,805,805,805,805,805,805,805,805,805,805,805,805,805,800,792,779,758,687,651,621,597,584,572,571,569,568,568,568,568,562,556,553,549,549,549,548,543,534,528,514],"ymouse":[517,517,517,517,517,517,517,517,517,517,517,517,517,517,517,517,517,517,517,517,517,517,517,517,517,517,517,517,517,517,517,517,517,517,517,517,517,517,517,517,517,517,517,517,517,517,517,517,517,517,517,517,517,517,517,517,517,517,517,517,517,517,517,517,517,503,485,465,435,336,287,247,213,197,176,172,170,168,168,165,150,134,121,114,110,109,109,107,104,99,96,92],"timestamp_mouse":[10,30,49,69,89,109,131,149,169,189,209,229,249,270,289,309,329,349,369,389,409,430,449,469,490,509,529,551,570,590,610,629,650,669,689,709,730,749,770,789,810,831,850,870,889,909,931,949,969,989,1009,1031,1050,1070,1090,1110,1130,1149,1170,1189,1209,1229,1251,1270,1289,1309,1330,1350,1371,1389,1410,1429,1450,1470,1491,1510,1531,1551,1570,1591,1609,1630,1650,1670,1691,1710,1729,1750,1770,1790,1809,1830],"xSR":741.5,"ySR":469.95,"xT1":424.9,"yT1":0,"xT2":1058.1,"yT2":0,"toosoon":0,"cond_shown":"Congruent","ratio_trial":200,"L_num":1,"L_den":2,"R_num":21,"R_den":30,"correct_side":2,"subjID":"JUANSEBASTIANHERNANDEZRINCON24","gender":"0","school":"sexto g","age":"12 AÑOS"},{"start_time":1551887108355,"click_time":1551887113496,"finger_time":1551887109956,"fix_duration":638.95642424448,"trial":23,"RT":1601,"MT":3540,"sideResp":1,"stimulus":[],"xmouse":[804,804,804,804,804,804,804,804,804,804,804,804,804,804,804,804,804,804,804,804,804,804,804,804,804,804,804,804,804,804,804,804,804,804,804,804,804,804,804,804,804,804,804,804,804,804,804,804,804,804,804,804,804,804,804,804,804,804,804,804,804,804,804,804,804,804,804,804,804,804,804,804,804,803,803,803,802,801,798,779,764,747,727,712,677,663,652,643,638,621,613,606,603,601,600,600,599,599,599,596,595,593,592,591,591,591,591,591,591,591,591,591,591,591,591,591,591,591,591,591,591,591,591,591,591,591,591,591,591,591,591,591,591,591,591,591,591,591,591,591,591,591,591,591,591,591,591,591,591,591,591,591,591,591,591,591,591,591,591,591,591,591,591,591,591,591,591,591,591,591,591,591,591,591,591,591,591,591,591,591,591,591,591,591,591,591,591,591,591,591,591,591,591,591,591,591,591,591,591,591,591,591,591,591,591,591,591,591,591,591,591,591,591,591,591,591,591,591,591,591,591,591,591,591,591,591,591,591,591,591,591,591,591,591,591,591,591,591,591,591,591,591,591,590,589,587,575,571,570,570,570,568,566,563,557,550,533,508],"ymouse":[544,544,544,544,544,544,544,544,544,544,544,544,544,544,544,544,544,544,544,544,544,544,544,544,544,544,544,544,544,544,544,544,544,544,544,544,544,544,544,544,544,544,544,544,544,544,544,544,544,544,544,544,544,544,544,544,544,544,544,544,544,544,544,544,544,544,544,544,544,544,544,544,544,542,535,532,529,523,520,485,461,440,418,404,372,360,352,343,336,299,280,263,255,251,248,246,246,245,243,234,230,226,222,221,221,221,221,220,220,220,220,220,220,220,220,220,220,220,220,220,220,220,220,220,220,220,220,220,220,220,220,220,220,220,220,220,220,220,220,220,220,220,220,220,220,220,220,220,220,220,220,220,220,220,220,220,220,220,220,220,220,220,220,220,220,220,220,220,220,220,220,220,220,220,220,220,220,220,220,220,220,220,220,220,220,220,220,220,220,220,220,220,220,220,220,220,220,220,220,220,220,220,220,220,220,220,220,220,220,220,220,220,220,220,220,220,220,220,220,220,220,220,220,220,220,220,220,220,220,220,220,220,220,220,220,220,220,220,220,220,220,220,220,220,220,219,204,193,190,186,184,180,172,163,143,128,108,88],"timestamp_mouse":[9,33,40,61,80,102,122,140,161,182,201,222,240,260,281,300,322,342,361,380,401,421,440,462,480,501,522,540,561,581,600,620,641,660,682,700,720,742,761,781,801,821,840,861,880,902,922,940,961,980,1001,1022,1041,1060,1080,1102,1122,1142,1161,1181,1201,1220,1240,1261,1280,1302,1320,1340,1361,1382,1400,1422,1441,1460,1480,1501,1520,1541,1560,1580,1601,1621,1641,1661,1680,1701,1721,1741,1761,1781,1800,1821,1841,1862,1881,1901,1922,1940,1962,1981,2000,2021,2041,2060,2080,2100,2120,2142,2162,2182,2202,2220,2241,2260,2281,2301,2321,2342,2362,2382,2401,2422,2442,2461,2481,2500,2520,2541,2561,2581,2602,2622,2640,2661,2681,2702,2721,2741,2760,2781,2801,2821,2840,2861,2881,2901,2920,2941,2962,2980,3000,3022,3041,3061,3081,3101,3121,3141,3161,3182,3202,3222,3241,3261,3280,3300,3320,3340,3361,3382,3402,3421,3441,3460,3481,3502,3522,3542,3561,3581,3600,3620,3641,3661,3682,3700,3722,3741,3761,3781,3801,3820,3841,3861,3880,3901,3920,3940,3961,3981,4000,4021,4041,4060,4080,4102,4121,4141,4160,4180,4200,4222,4241,4260,4280,4301,4320,4342,4360,4380,4400,4421,4441,4461,4481,4500,4520,4541,4560,4581,4600,4620,4642,4661,4681,4702,4722,4740,4760,4780,4802,4821,4840,4860,4881,4901,4921,4940,4961,4981,5000,5020,5041,5061,5080,5100,5121,5141],"xSR":741.5,"ySR":469.95,"xT1":424.9,"yT1":0,"xT2":1058.1,"yT2":0,"toosoon":0,"cond_shown":"Incongruent","ratio_trial":300,"L_num":13,"L_den":26,"R_num":12,"R_den":15,"correct_side":2,"subjID":"JUANSEBASTIANHERNANDEZRINCON24","gender":"0","school":"sexto g","age":"12 AÑOS"},{"start_time":1551887119327,"click_time":1551887121377,"finger_time":1551887120936,"fix_duration":1410.0008478367731,"trial":24,"RT":1609,"MT":441,"sideResp":1,"stimulus":[],"xmouse":[796,796,796,796,796,796,796,796,796,796,796,796,796,796,796,796,796,796,796,796,796,796,796,796,796,796,796,796,796,796,796,796,796,796,796,796,796,796,796,796,796,796,796,796,796,796,796,796,796,796,796,796,796,796,796,796,796,796,796,796,796,796,796,796,796,796,796,796,796,796,796,796,796,796,796,796,796,793,787,782,768,762,760,756,747,729,718,704,683,671,653,648,642,639,635,626,619,616,609,597,557,538,512],"ymouse":[510,510,510,510,510,510,510,510,510,510,510,510,510,510,510,510,510,510,510,510,510,510,510,510,510,510,510,510,510,510,510,510,510,510,510,510,510,510,510,510,510,510,510,510,510,510,510,510,510,510,510,510,510,510,510,510,510,510,510,510,510,510,510,510,510,510,510,510,510,510,510,510,510,510,510,510,510,504,487,477,452,442,439,429,413,365,336,303,259,236,200,189,178,172,167,153,146,145,144,144,131,112,75],"timestamp_mouse":[9,28,57,69,89,108,129,148,169,190,208,230,248,268,288,310,330,349,369,388,409,429,449,469,489,509,529,550,568,590,608,628,650,670,688,710,728,749,770,788,808,829,848,869,889,908,929,948,969,989,1009,1028,1049,1069,1089,1108,1129,1148,1168,1189,1208,1228,1250,1270,1288,1309,1328,1348,1369,1390,1410,1428,1449,1470,1488,1509,1529,1549,1568,1589,1609,1629,1649,1668,1688,1708,1730,1749,1770,1789,1809,1829,1849,1868,1890,1908,1930,1949,1969,1988,2008,2028,2050],"xSR":741.5,"ySR":469.95,"xT1":424.9,"yT1":0,"xT2":1058.1,"yT2":0,"toosoon":0,"cond_shown":"Congruent","ratio_trial":100,"L_num":9,"L_den":15,"R_num":8,"R_den":16,"correct_side":1,"subjID":"JUANSEBASTIANHERNANDEZRINCON24","gender":"0","school":"sexto g","age":"12 AÑOS"},{"start_time":1551887123315,"click_time":1551887125756,"finger_time":1551887124815,"fix_duration":398.88093183059823,"trial":25,"RT":1500,"MT":941,"sideResp":2,"stimulus":[],"xmouse":[831,831,831,831,831,831,831,831,831,831,831,831,831,831,831,831,831,831,831,831,831,831,831,831,831,831,831,831,831,831,831,831,831,831,831,831,831,831,831,831,831,831,831,831,831,831,831,831,831,831,831,831,831,831,831,831,831,831,831,831,831,831,831,831,831,831,831,831,831,831,831,831,831,834,837,846,868,875,886,892,898,913,920,928,938,947,962,968,971,971,971,971,971,971,971,971,971,971,971,971,971,971,971,971,971,971,971,981,1022,1041,1043,1043,1043,1043,1043,1043,1043,1043,1043,1045,1048,1058,1065],"ymouse":[518,518,518,518,518,518,518,518,518,518,518,518,518,518,518,518,518,518,518,518,518,518,518,518,518,518,518,518,518,518,518,518,518,518,518,518,518,518,518,518,518,518,518,518,518,518,518,518,518,518,518,518,518,518,518,518,518,518,518,518,518,518,518,518,518,518,518,518,518,518,518,518,518,509,488,435,356,335,310,294,281,256,247,237,225,213,192,186,183,182,182,182,182,182,182,182,182,182,182,182,182,182,182,182,182,182,182,175,156,146,145,144,144,144,144,144,144,144,144,141,131,107,93],"timestamp_mouse":[11,21,47,62,82,101,120,141,160,181,201,220,242,262,280,301,322,341,361,382,402,420,442,462,482,501,522,542,562,580,601,621,642,661,681,700,721,742,761,782,802,820,841,862,880,901,921,941,962,981,1000,1021,1040,1062,1082,1102,1122,1140,1161,1182,1200,1222,1240,1262,1282,1302,1320,1341,1361,1381,1400,1421,1441,1462,1481,1500,1521,1542,1561,1581,1601,1622,1642,1661,1681,1701,1720,1741,1762,1783,1801,1821,1841,1861,1880,1901,1921,1941,1961,1981,2001,2021,2041,2061,2081,2101,2120,2141,2161,2182,2201,2221,2241,2260,2280,2300,2321,2342,2360,2381,2401,2420,2441],"xSR":741.5,"ySR":469.95,"xT1":424.9,"yT1":0,"xT2":1058.1,"yT2":0,"toosoon":0,"cond_shown":"Incongruent","ratio_trial":300,"L_num":1,"L_den":2,"R_num":3,"R_den":15,"correct_side":1,"subjID":"JUANSEBASTIANHERNANDEZRINCON24","gender":"0","school":"sexto g","age":"12 AÑOS"},{"start_time":1551887131526,"click_time":1551887133516,"finger_time":1551887132795,"fix_duration":268.9044408099791,"trial":26,"RT":1269,"MT":721,"sideResp":1,"stimulus":[],"xmouse":[791,791,791,791,791,791,791,791,791,791,791,791,791,791,791,791,791,791,791,791,791,791,791,791,791,791,791,791,791,791,791,791,791,791,791,791,791,791,791,791,791,791,791,791,791,791,791,791,791,791,791,791,791,791,791,791,791,791,792,794,796,796,796,791,788,784,781,776,764,759,734,712,689,674,664,640,634,632,627,621,610,604,597,588,573,566,560,556,553,553,552,552,552,552,552,552,552,552,534,515],"ymouse":[520,520,520,520,520,520,520,520,520,520,520,520,520,520,520,520,520,520,520,520,520,520,520,520,520,520,520,520,520,520,520,520,520,520,520,520,520,520,520,520,520,520,520,520,520,520,520,520,520,520,520,520,520,520,520,520,520,520,517,505,489,483,477,468,460,445,433,418,391,380,349,332,313,300,282,245,238,235,230,223,209,199,187,173,150,138,130,125,122,122,122,122,122,122,122,122,122,121,109,96],"timestamp_mouse":[10,45,50,69,90,110,131,150,170,191,209,230,251,269,291,311,330,349,371,389,411,430,449,471,490,511,530,551,569,591,609,631,649,671,691,709,731,750,770,789,811,831,850,870,890,909,931,950,969,991,1010,1029,1051,1071,1091,1111,1130,1151,1170,1190,1211,1230,1250,1269,1290,1310,1330,1350,1370,1390,1410,1429,1449,1470,1491,1509,1530,1550,1569,1590,1610,1629,1650,1670,1691,1709,1730,1751,1771,1790,1810,1830,1850,1870,1891,1911,1930,1950,1971,1990],"xSR":741.5,"ySR":469.95,"xT1":424.9,"yT1":0,"xT2":1058.1,"yT2":0,"toosoon":0,"cond_shown":"Congruent","ratio_trial":300,"L_num":20,"L_den":25,"R_num":9,"R_den":18,"correct_side":1,"subjID":"JUANSEBASTIANHERNANDEZRINCON24","gender":"0","school":"sexto g","age":"12 AÑOS"},{"start_time":1551887139086,"click_time":1551887142157,"finger_time":1551887140436,"fix_duration":588.545591602229,"trial":27,"RT":1350,"MT":1721,"sideResp":1,"stimulus":[],"xmouse":[781,781,781,781,781,781,781,781,781,781,781,781,781,781,781,781,781,781,781,781,781,781,781,781,781,781,781,781,781,781,781,781,781,781,781,781,781,781,781,781,781,781,781,781,781,781,781,781,781,781,781,781,781,781,781,781,781,781,781,781,781,781,781,781,784,790,802,834,846,861,870,879,887,892,895,898,901,904,905,905,905,906,914,925,940,953,965,993,1004,1012,1021,1025,1028,1030,1031,1031,1031,1031,1031,1031,1031,1031,1031,1031,1031,1031,1031,1033,1037,1045,1054,1054,1055,1056,1056,1056,1057,1061,1063,1066,1070,1071,1072,1072,1072,1072,1072,1072,1072,1072,1072,1072,1072,1072,1072,1072,1072,1072,1072,1072,1072,1072,1072,1072,1072,1072,1066,1000,907,867,728,625,479,443],"ymouse":[521,521,521,521,521,521,521,521,521,521,521,521,521,521,521,521,521,521,521,521,521,521,521,521,521,521,521,521,521,521,521,521,521,521,521,521,521,521,521,521,521,521,521,521,521,521,521,521,521,521,521,521,521,521,521,521,521,521,521,521,521,521,521,521,518,509,488,442,424,404,389,377,364,360,356,353,350,346,345,344,344,343,339,333,322,314,303,282,274,270,265,263,261,260,260,260,260,260,260,260,260,260,260,260,260,260,260,257,240,220,202,199,195,193,193,192,191,185,182,178,170,166,163,163,163,163,163,163,163,163,163,163,163,163,163,163,163,163,163,163,163,163,163,163,163,163,162,162,162,162,148,133,105,94],"timestamp_mouse":[10,39,51,70,90,111,131,151,170,191,210,231,250,270,290,311,330,350,371,391,410,430,450,471,489,510,530,551,571,590,611,631,651,671,690,710,731,749,770,791,809,830,851,871,891,910,930,951,971,991,1010,1031,1050,1069,1090,1109,1129,1149,1171,1191,1210,1230,1250,1270,1291,1310,1331,1350,1369,1389,1410,1430,1450,1471,1490,1509,1529,1550,1570,1590,1609,1629,1650,1670,1690,1710,1731,1749,1769,1789,1810,1830,1850,1870,1889,1909,1931,1951,1970,1990,2010,2029,2050,2070,2090,2110,2130,2150,2171,2190,2209,2230,2250,2270,2290,2311,2330,2349,2369,2390,2411,2430,2450,2471,2490,2510,2529,2550,2570,2591,2611,2630,2650,2670,2690,2710,2730,2751,2771,2791,2810,2830,2850,2870,2890,2910,2930,2951,2971,2990,3010,3031,3050,3070],"xSR":741.5,"ySR":469.95,"xT1":424.9,"yT1":0,"xT2":1058.1,"yT2":0,"toosoon":0,"cond_shown":"Incongruent","ratio_trial":200,"L_num":3,"L_den":10,"R_num":1,"R_den":2,"correct_side":2,"subjID":"JUANSEBASTIANHERNANDEZRINCON24","gender":"0","school":"sexto g","age":"12 AÑOS"},{"start_time":1551887145815,"click_time":1551887147296,"finger_time":1551887147116,"fix_duration":597.748551215575,"trial":28,"RT":1301,"MT":180,"sideResp":2,"stimulus":[],"xmouse":[779,779,779,779,779,779,779,779,779,779,779,779,779,779,779,779,779,779,779,779,779,779,779,779,779,779,779,779,779,779,779,779,779,779,779,779,779,779,779,779,779,779,779,779,779,779,779,779,779,779,779,779,779,779,779,779,779,779,779,779,779,779,783,795,814,831,861,881,909,940,986,1010,1036,1073,1090],"ymouse":[510,510,510,510,510,510,510,510,510,510,510,510,510,510,510,510,510,510,510,510,510,510,510,510,510,510,510,510,510,510,510,510,510,510,510,510,510,510,510,510,510,510,510,510,510,510,510,510,510,510,510,510,510,510,510,510,510,510,510,510,510,510,509,500,487,469,427,388,345,284,209,173,140,106,92],"timestamp_mouse":[9,22,51,62,80,101,122,141,162,181,201,220,240,261,282,302,320,342,361,382,401,421,442,461,481,501,520,542,561,581,601,622,640,662,681,701,721,740,762,782,800,820,841,862,882,901,921,942,962,981,1000,1021,1042,1060,1082,1100,1121,1140,1162,1181,1200,1222,1240,1260,1281,1301,1321,1340,1361,1381,1402,1420,1440,1460,1481],"xSR":741.5,"ySR":469.95,"xT1":424.9,"yT1":0,"xT2":1058.1,"yT2":0,"toosoon":0,"cond_shown":"Incongruent","ratio_trial":200,"L_num":14,"L_den":30,"R_num":12,"R_den":18,"correct_side":2,"subjID":"JUANSEBASTIANHERNANDEZRINCON24","gender":"0","school":"sexto g","age":"12 AÑOS"},{"start_time":1551887151152,"click_time":1551887152816,"finger_time":1551887152636,"fix_duration":1314.7363523231259,"trial":29,"RT":1484,"MT":180,"sideResp":2,"stimulus":[],"xmouse":[780,780,780,780,780,780,780,780,780,780,780,780,780,780,780,780,780,780,780,780,780,780,780,780,780,780,780,780,780,780,780,780,780,780,780,780,780,780,780,780,780,780,780,780,780,780,780,780,780,780,780,780,780,780,780,780,780,780,780,780,780,780,780,780,780,780,780,780,780,780,780,780,783,793,861,917,979,1057,1087,1117,1125,1129,1130,1131],"ymouse":[526,526,526,526,526,526,526,526,526,526,526,526,526,526,526,526,526,526,526,526,526,526,526,526,526,526,526,526,526,526,526,526,526,526,526,526,526,526,526,526,526,526,526,526,526,526,526,526,526,526,526,526,526,526,526,526,526,526,526,526,526,526,526,526,526,526,526,526,526,526,526,526,521,511,450,387,310,208,162,119,108,102,100,99],"timestamp_mouse":[10,32,43,65,84,104,125,144,164,184,203,224,245,264,285,304,324,345,364,385,403,424,445,465,484,504,524,545,565,583,604,625,644,664,683,704,724,745,764,784,804,823,844,865,883,905,924,944,964,983,1005,1025,1043,1065,1085,1103,1125,1145,1164,1184,1203,1225,1244,1265,1284,1304,1323,1343,1365,1385,1405,1424,1443,1465,1484,1503,1523,1545,1564,1584,1604,1624,1644,1664],"xSR":741.5,"ySR":469.95,"xT1":424.9,"yT1":0,"xT2":1058.1,"yT2":0,"toosoon":0,"cond_shown":"Congruent","ratio_trial":200,"L_num":1,"L_den":2,"R_num":21,"R_den":30,"correct_side":2,"subjID":"JUANSEBASTIANHERNANDEZRINCON24","gender":"0","school":"sexto g","age":"12 AÑOS"},{"start_time":1551887156070,"click_time":1551887157876,"finger_time":1551887157497,"fix_duration":673.265902971166,"trial":30,"RT":1427,"MT":379,"sideResp":2,"stimulus":[],"xmouse":[793,793,794,794,794,794,794,794,794,794,794,794,794,794,794,794,794,794,794,794,794,794,794,794,794,794,794,794,794,794,794,794,794,794,794,794,794,794,794,794,794,794,794,794,794,794,794,794,794,794,794,794,794,794,794,794,794,794,794,794,794,794,794,794,794,794,794,794,794,794,801,844,873,893,903,913,923,934,957,968,975,990,1000,1012,1015,1019,1020,1021,1034,1051,1090],"ymouse":[546,542,539,536,536,536,536,536,536,536,536,536,536,536,536,536,536,536,536,536,536,536,536,536,536,536,536,536,536,536,536,536,536,536,536,536,536,536,536,536,536,536,536,536,536,536,536,536,536,536,536,536,536,536,536,536,536,536,536,536,536,536,536,536,536,536,536,536,536,536,523,460,412,370,347,322,299,278,242,224,208,183,169,153,150,146,144,142,124,106,64],"timestamp_mouse":[6,27,49,66,85,106,126,146,167,187,206,226,246,266,285,307,326,346,365,387,407,427,445,467,487,506,525,546,567,586,605,627,647,665,686,706,727,746,767,786,806,825,845,866,886,905,927,946,967,986,1007,1026,1046,1067,1086,1106,1125,1147,1167,1187,1206,1226,1245,1267,1287,1307,1327,1347,1367,1385,1406,1427,1446,1466,1485,1506,1526,1547,1565,1586,1605,1626,1646,1666,1687,1706,1727,1746,1765,1786,1805],"xSR":741.5,"ySR":469.95,"xT1":424.9,"yT1":0,"xT2":1058.1,"yT2":0,"toosoon":0,"cond_shown":"Congruent","ratio_trial":300,"L_num":1,"L_den":5,"R_num":6,"R_den":12,"correct_side":2,"subjID":"JUANSEBASTIANHERNANDEZRINCON24","gender":"0","school":"sexto g","age":"12 AÑOS"},{"start_time":1551887159982,"click_time":1551887161896,"finger_time":1551887161416,"fix_duration":825.3544712214627,"trial":31,"RT":1434,"MT":480,"sideResp":1,"stimulus":[],"xmouse":[820,820,820,820,820,820,820,820,820,820,820,820,820,820,820,820,820,820,820,820,820,820,820,820,820,820,820,820,820,820,820,820,820,820,820,820,820,820,820,820,820,820,820,820,820,820,820,820,820,820,820,820,820,820,820,820,820,820,820,820,820,820,820,820,820,820,820,820,825,827,828,825,808,801,789,766,752,716,691,674,662,650,625,605,597,589,582,572,565,556,545,535,524,522,515,498],"ymouse":[546,546,546,546,546,546,546,546,546,546,546,546,546,546,546,546,546,546,546,546,546,546,546,546,546,546,546,546,546,546,546,546,546,546,546,546,546,546,546,546,546,546,546,546,546,546,546,546,546,546,546,546,546,546,546,546,546,546,546,546,546,546,546,546,546,546,546,546,538,527,497,454,390,364,339,309,296,262,234,211,195,181,155,141,135,130,126,118,114,109,106,104,101,101,100,92],"timestamp_mouse":[14,42,55,74,95,113,134,155,173,194,214,234,254,275,293,314,334,353,375,394,415,433,455,475,495,514,533,554,574,594,613,634,653,675,695,715,734,754,775,795,815,835,854,875,895,914,934,955,974,995,1015,1034,1053,1075,1093,1114,1135,1154,1174,1194,1215,1233,1254,1275,1294,1315,1335,1354,1374,1395,1414,1434,1454,1474,1494,1513,1534,1554,1573,1594,1614,1635,1653,1674,1694,1714,1734,1753,1774,1793,1814,1834,1853,1874,1894,1914],"xSR":741.5,"ySR":469.95,"xT1":424.9,"yT1":0,"xT2":1058.1,"yT2":0,"toosoon":0,"cond_shown":"Incongruent","ratio_trial":300,"L_num":2,"L_den":4,"R_num":6,"R_den":30,"correct_side":1,"subjID":"JUANSEBASTIANHERNANDEZRINCON24","gender":"0","school":"sexto g","age":"12 AÑOS"},{"start_time":1551887164541,"click_time":1551887165956,"finger_time":1551887165816,"fix_duration":1362.2499859960205,"trial":32,"RT":1275,"MT":140,"sideResp":2,"stimulus":[],"xmouse":[783,783,783,783,783,783,783,783,783,783,783,783,783,783,783,783,783,783,783,783,783,783,783,783,783,783,783,783,783,782,780,780,780,780,780,780,780,780,780,780,780,780,780,780,780,780,780,780,780,780,780,780,780,780,780,782,786,789,791,796,799,804,814,828,883,930,944,984,1010,1050,1062],"ymouse":[538,538,538,538,538,538,538,538,538,538,538,538,538,538,538,538,538,538,538,538,538,538,538,538,538,538,538,538,538,538,538,538,538,538,538,538,538,538,538,538,538,538,538,538,538,538,538,538,538,538,538,538,538,538,536,533,525,520,514,505,500,491,476,454,356,274,252,187,142,81,63],"timestamp_mouse":[20,44,54,75,95,115,136,156,176,194,216,236,256,274,295,316,334,356,376,396,416,434,455,476,496,515,536,555,575,595,615,635,656,676,695,716,735,756,776,796,814,835,856,875,896,916,936,956,975,994,1015,1036,1056,1076,1095,1116,1135,1155,1174,1195,1215,1235,1255,1275,1294,1316,1335,1355,1374,1395,1415],"xSR":741.5,"ySR":469.95,"xT1":424.9,"yT1":0,"xT2":1058.1,"yT2":0,"toosoon":0,"cond_shown":"Congruent","ratio_trial":300,"L_num":5,"L_den":25,"R_num":7,"R_den":14,"correct_side":2,"subjID":"JUANSEBASTIANHERNANDEZRINCON24","gender":"0","school":"sexto g","age":"12 AÑOS"},{"start_time":1551887171149,"click_time":1551887172736,"finger_time":1551887172636,"fix_duration":1451.640768293374,"trial":33,"RT":1487,"MT":100,"sideResp":2,"stimulus":[],"xmouse":[798,798,798,798,798,798,798,798,798,798,798,798,798,798,798,798,798,798,798,798,798,798,798,798,798,798,798,798,798,798,798,798,798,798,798,798,798,798,798,798,798,798,798,798,798,798,798,798,798,798,798,798,798,798,798,798,798,798,798,798,798,798,798,798,798,798,798,798,798,798,798,798,808,833,848,872,938,985,1050,1064],"ymouse":[513,513,513,513,513,513,513,513,513,513,513,513,513,513,513,513,513,513,513,513,513,513,513,513,513,513,513,513,513,513,513,513,513,513,513,513,513,513,513,513,513,513,513,513,513,513,513,513,513,513,513,513,513,513,513,513,513,513,513,513,513,513,513,513,513,513,513,513,513,513,513,513,507,479,456,404,249,159,74,58],"timestamp_mouse":[10,33,47,66,88,107,128,148,168,188,207,228,247,267,286,306,327,348,368,387,407,428,448,467,486,508,527,546,568,588,607,627,648,667,688,707,728,747,768,787,806,828,848,866,888,907,927,947,967,988,1007,1026,1047,1066,1088,1107,1128,1148,1167,1187,1206,1227,1246,1268,1288,1307,1328,1348,1368,1387,1408,1426,1447,1468,1487,1507,1528,1548,1568,1587],"xSR":741.5,"ySR":469.95,"xT1":424.9,"yT1":0,"xT2":1058.1,"yT2":0,"toosoon":0,"cond_shown":"Incongruent","ratio_trial":100,"L_num":10,"L_den":25,"R_num":8,"R_den":16,"correct_side":2,"subjID":"JUANSEBASTIANHERNANDEZRINCON24","gender":"0","school":"sexto g","age":"12 AÑOS"},{"start_time":1551887179519,"click_time":1551887182137,"finger_time":1551887181636,"fix_duration":262.15803039901954,"trial":34,"RT":2117,"MT":501,"sideResp":2,"stimulus":[],"xmouse":[794,794,794,794,795,795,795,795,796,796,797,798,798,798,798,798,798,798,798,798,798,798,798,798,798,798,798,798,798,798,798,798,798,798,798,798,798,798,798,798,798,798,798,798,798,798,798,798,798,798,798,798,798,798,798,798,798,798,798,798,798,798,798,798,798,798,798,798,798,798,798,798,798,798,798,798,798,797,793,786,776,774,773,773,772,770,769,769,769,769,769,769,769,769,769,769,769,769,769,769,771,773,775,780,788,824,844,868,882,891,913,924,936,948,959,976,982,984,984,986,991,996,1001,1009,1019,1049,1062,1074,1076,1077,1080],"ymouse":[530,527,525,525,521,520,519,519,519,518,516,515,514,514,514,514,514,514,514,514,514,514,514,514,514,514,514,514,514,514,514,514,514,514,514,514,514,514,514,514,514,514,514,514,514,514,514,514,514,514,514,514,514,514,514,514,514,514,514,514,514,514,514,514,514,514,514,514,514,514,514,514,514,514,514,514,514,514,516,526,543,548,551,553,555,558,559,559,559,559,559,559,559,559,559,559,559,560,560,554,538,533,527,520,509,467,443,414,396,377,340,322,298,272,250,222,214,209,207,204,198,194,187,177,166,137,124,107,103,100,88],"timestamp_mouse":[18,37,67,78,98,117,136,156,178,197,216,237,257,277,297,316,337,357,376,398,417,437,458,478,496,518,537,557,577,596,618,637,658,677,696,717,737,757,776,797,816,838,857,877,896,918,936,958,976,997,1017,1037,1058,1076,1097,1118,1137,1158,1177,1197,1217,1236,1257,1276,1298,1317,1338,1358,1376,1397,1417,1437,1458,1478,1498,1516,1536,1557,1577,1597,1617,1637,1656,1677,1697,1717,1737,1757,1777,1798,1817,1838,1857,1878,1897,1918,1936,1957,1978,1997,2018,2037,2058,2077,2097,2117,2136,2157,2178,2197,2217,2237,2257,2277,2297,2316,2337,2357,2378,2397,2417,2437,2456,2476,2498,2516,2538,2557,2577,2597,2618],"xSR":741.5,"ySR":469.95,"xT1":424.9,"yT1":0,"xT2":1058.1,"yT2":0,"toosoon":0,"cond_shown":"Incongruent","ratio_trial":200,"L_num":14,"L_den":30,"R_num":6,"R_den":9,"correct_side":2,"subjID":"JUANSEBASTIANHERNANDEZRINCON24","gender":"0","school":"sexto g","age":"12 AÑOS"},{"start_time":1551887186596,"click_time":1551887188197,"finger_time":1551887188017,"fix_duration":699.81827735