[{"start_time":1551887702150,"click_time":1551887708806,"finger_time":1551887702164,"fix_duration":361.1696180728091,"trial":0,"RT":14,"MT":6642,"sideResp":2,"stimulus":"img/500/equaldotsize/L/11_Ratio_500_L_12_R_6.png","xmouse":[741,741,741,741,741,741,741,741,741,741,741,741,741,741,741,741,741,741,741,741,741,741,741,741,741,741,741,741,741,741,741,741,741,741,742,742,742,742,742,742,742,742,742,742,742,742,742,742,742,742,742,742,742,742,742,742,742,742,742,742,742,742,742,742,742,742,742,742,742,742,742,742,742,742,742,742,742,742,742,742,742,742,742,742,742,742,742,742,742,742,742,742,742,742,742,742,742,742,742,742,742,742,742,742,742,742,742,742,742,742,742,742,742,742,742,742,742,742,742,742,742,742,742,742,742,742,742,742,742,742,742,742,742,742,742,742,742,742,742,742,742,742,742,742,742,742,742,742,742,742,742,742,742,742,742,742,742,742,742,742,742,742,742,742,742,742,742,742,742,742,742,742,742,742,742,742,742,742,742,742,742,742,742,742,742,742,742,742,742,742,742,742,742,742,742,742,742,742,742,742,742,742,742,742,742,742,742,742,742,742,742,742,742,742,742,742,742,742,742,742,742,742,742,742,742,742,742,742,742,742,742,742,742,742,742,742,742,742,742,742,742,742,743,743,743,744,744,746,748,751,756,760,763,766,769,777,784,791,796,800,801,801,801,801,801,801,801,801,801,801,801,801,801,801,801,801,801,801,801,801,806,812,813,814,814,814,814,814,813,808,796,789,782,777,772,768,762,759,753,747,737,703,685,670,655,637,631,628,627,626,626,626,626,637,664,704,791,830,862,900,985,1018,1043,1066,1090,1119,1120,1120,1120,1120,1120,1126,1131],"ymouse":[221,221,221,221,221,221,221,221,221,221,221,221,221,221,221,221,221,221,221,221,221,221,221,221,221,221,221,221,221,221,221,221,226,235,247,248,248,248,248,248,248,248,248,248,248,248,248,248,248,248,248,248,248,248,248,248,248,248,248,248,248,248,248,248,248,248,248,248,248,248,248,248,248,248,248,248,248,248,248,248,248,248,248,248,248,248,248,248,248,248,248,248,248,248,248,248,248,248,248,248,248,248,248,248,248,248,248,248,248,248,248,248,248,248,248,248,248,248,248,248,248,248,248,248,248,248,248,248,248,248,248,248,248,248,248,248,248,248,248,248,248,248,248,248,248,248,248,248,248,248,248,248,248,248,248,248,248,248,248,248,248,248,248,248,248,248,248,248,248,248,248,248,248,248,248,248,248,248,248,248,248,248,248,248,248,248,248,248,248,248,248,248,248,248,248,248,248,248,248,248,248,248,248,248,248,248,248,248,248,248,248,248,248,248,248,248,248,248,248,248,248,248,248,248,248,248,248,248,248,248,248,248,248,248,248,248,248,248,248,248,253,281,306,326,341,377,393,408,423,433,454,462,469,476,481,497,507,515,520,523,524,524,524,524,524,524,524,524,524,524,524,524,524,524,524,524,524,524,524,524,519,501,479,456,439,400,389,378,367,351,318,303,291,282,275,270,262,257,251,242,230,194,175,160,147,130,124,122,119,119,119,119,118,104,91,76,62,61,61,62,79,90,96,100,102,105,105,105,105,105,105,102,95],"timestamp_mouse":[14,34,56,75,95,115,134,154,175,195,215,236,255,275,294,314,336,355,375,395,415,434,455,474,495,516,535,556,575,596,614,635,654,674,695,716,736,755,774,795,814,834,856,875,895,915,935,954,975,995,1015,1034,1054,1074,1094,1115,1135,1156,1176,1194,1215,1235,1255,1275,1296,1315,1336,1356,1374,1394,1414,1435,1455,1475,1495,1515,1534,1554,1574,1595,1615,1635,1655,1675,1694,1715,1736,1755,1775,1794,1815,1836,1856,1876,1895,1915,1936,1955,1974,1995,2014,2035,2056,2075,2094,2115,2134,2154,2176,2196,2215,2236,2255,2274,2294,2315,2335,2356,2375,2395,2416,2434,2454,2474,2494,2515,2535,2556,2575,2594,2615,2635,2655,2675,2696,2714,2735,2755,2776,2795,2815,2834,2855,2875,2896,2915,2935,2955,2974,2994,3015,3035,3055,3075,3095,3115,3135,3155,3176,3195,3214,3235,3254,3275,3294,3314,3336,3355,3374,3394,3416,3436,3455,3474,3494,3514,3536,3555,3575,3594,3614,3635,3656,3674,3695,3715,3736,3755,3775,3796,3814,3834,3854,3875,3895,3915,3934,3956,3974,3994,4015,4035,4056,4076,4094,4115,4135,4154,4174,4195,4216,4235,4256,4275,4294,4315,4336,4355,4376,4395,4414,4435,4454,4476,4494,4515,4536,4555,4574,4595,4615,4634,4655,4676,4696,4716,4734,4755,4775,4794,4814,4836,4854,4875,4895,4915,4934,4954,4975,4995,5015,5034,5055,5075,5094,5115,5135,5155,5174,5195,5215,5234,5255,5276,5294,5316,5335,5355,5375,5396,5415,5435,5456,5474,5495,5515,5534,5556,5576,5595,5615,5634,5656,5675,5694,5716,5734,5754,5774,5794,5816,5834,5855,5875,5894,5914,5936,5955,5976,5995,6014,6035,6055,6076,6095,6115,6134,6155,6175,6195,6214,6234,6255,6275,6294,6314,6335,6354,6375,6395,6415,6434,6455,6475,6496,6515,6534,6555,6574,6596,6615,6635,6656],"xSR":741.5,"ySR":501.8,"xT1":424.9,"yT1":0,"xT2":1058.1,"yT2":0,"toosoon":0,"cond_shown":"equaldotsize","ratio_trial":500,"smaller_num":"6","larger_num":"12","correct_side":1,"subjID":"JUANSEBASTIANHERNANDEZRINCON24","gender":"0","age":"12","school":"6","test":{"fix_dur":[250,1500],"timestim":300,"targets_dim":[100,100],"targets_relative_coord":[0.3,0.7],"size_stim":[880,420],"start_dim":[100,100],"size_start":[300,300],"size_fix":60,"samplingrate":20,"img_types":["equaldotsize","equaldotanddens","randomdotsizeEA"],"ratios":[250,500,750,900],"rep_conds":9,"nTrials":120,"trials_to_rest":500,"Trials_order":[51,15,38,105,70,27,17,106,9,62,74,24,19,115,29,108,55,22,43,111,114,47,26,10,69,78,72,5,4,99,71,6,21,116,88,37,97,103,60,68,76,14,119,65,41,0,44,54,40,104,34,8,28,61,49,98,56,92,82,2,36,66,18,86,94,58,59,75,3,102,87,1,12,73,93,64,7,25,110,90,89,11,101,35,113,118,81,77,84,83,16,45,107,52,20,57,100,109,50,42,63,112,33,48,117,80,79,95,67,96,46,85,91,32,23,53,13,31,39,30],"cond_shown":["equaldotsize","equaldotsize","randomdotsizeEA","equaldotsize","equaldotanddens","equaldotsize","randomdotsizeEA","equaldotanddens","equaldotsize","randomdotsizeEA","randomdotsizeEA","equaldotsize","equaldotanddens","equaldotanddens","randomdotsizeEA","equaldotsize","equaldotanddens","equaldotanddens","equaldotanddens","equaldotsize","equaldotsize","randomdotsizeEA","randomdotsizeEA","equaldotanddens","equaldotsize","equaldotsize","equaldotsize","randomdotsizeEA","equaldotanddens","equaldotsize","randomdotsizeEA","equaldotsize","equaldotsize","randomdotsizeEA","equaldotanddens","equaldotanddens","equaldotanddens","equaldotanddens","equaldotsize","randomdotsizeEA","equaldotanddens","randomdotsizeEA","randomdotsizeEA","randomdotsizeEA","randomdotsizeEA","equaldotsize","randomdotsizeEA","equaldotsize","equaldotanddens","randomdotsizeEA","equaldotanddens","randomdotsizeEA","equaldotanddens","equaldotanddens","equaldotanddens","randomdotsizeEA","randomdotsizeEA","randomdotsizeEA","equaldotanddens","randomdotsizeEA","equaldotsize","equaldotsize","equaldotsize","randomdotsizeEA","equaldotanddens","equaldotanddens","randomdotsizeEA","equaldotsize","equaldotsize","equaldotsize","equaldotsize","equaldotanddens","equaldotsize","equaldotanddens","equaldotsize","equaldotanddens","equaldotanddens","equaldotanddens","randomdotsizeEA","equaldotsize","randomdotsizeEA","randomdotsizeEA","randomdotsizeEA","randomdotsizeEA","randomdotsizeEA","equaldotanddens","equaldotsize","randomdotsizeEA","equaldotsize","randomdotsizeEA","equaldotanddens","equaldotsize","randomdotsizeEA","equaldotanddens","randomdotsizeEA","equaldotsize","equaldotanddens","equaldotanddens","randomdotsizeEA","equaldotsize","equaldotsize","equaldotanddens","equaldotsize","equaldotsize","equaldotsize","randomdotsizeEA","equaldotanddens","randomdotsizeEA","equaldotanddens","equaldotsize","equaldotanddens","equaldotanddens","equaldotanddens","randomdotsizeEA","randomdotsizeEA","randomdotsizeEA","equaldotanddens","equaldotanddens","equaldotsize","equaldotsize"],"ratio_trial":[500,500,250,900,900,500,500,900,900,250,250,250,750,750,500,250,750,900,750,500,750,900,250,900,900,750,250,500,500,500,900,750,900,750,500,250,250,750,250,750,500,250,900,500,500,250,750,750,500,750,900,750,500,250,250,250,750,750,900,250,250,750,750,250,900,900,900,500,500,750,500,250,250,250,900,500,750,250,250,750,500,900,500,900,500,900,900,500,250,900,500,900,900,500,750,900,500,250,250,750,500,500,900,250,900,750,750,900,750,250,900,250,750,750,900,500,250,750,500,750],"smaller_num":["6","5","2","18","18","9","1","18","18","1","3","4","18","3","3","3","6","18","3","9","15","18","2","18","18","6","3","2","10","10","18","6","18","15","4","3","6","12","1","9","1","3","18","5","9","3","12","15","3","15","18","12","1","4","4","3","3","3","18","1","2","3","3","6","18","18","9","6","2","3","6","6","3","2","18","5","3","4","6","9","2","18","9","9","10","18","9","9","3","18","3","18","18","1","15","9","3","1","2","6","2","1","18","2","18","18","15","18","3","2","18","3","18","18","18","10","3","6","5","18"],"larger_num":["12","10","8","20","20","18","2","20","20","4","12","16","24","4","6","12","8","20","4","18","20","20","8","20","20","8","12","4","20","20","20","8","20","20","8","12","24","16","4","12","2","12","20","10","18","12","16","20","6","20","20","16","2","16","16","12","4","4","20","4","8","4","4","24","20","20","10","12","4","4","12","24","12","8","20","10","4","16","24","12","4","20","18","10","20","20","10","18","12","20","6","20","20","2","20","10","6","4","8","8","4","2","20","8","20","24","20","20","4","8","20","12","24","24","20","20","12","8","10","24"],"correct_side":[1,1,1,1,2,2,2,2,2,2,1,2,1,1,2,2,1,1,1,2,2,2,2,1,2,1,2,2,2,2,1,2,1,2,1,1,1,2,2,2,2,2,2,2,1,1,2,2,2,1,2,2,2,1,2,2,1,1,1,2,1,1,1,2,2,1,2,1,1,1,1,1,2,1,1,1,2,2,2,2,1,1,1,2,2,2,1,1,2,2,2,1,1,2,2,2,2,2,1,2,1,2,2,1,1,1,1,1,2,1,2,1,1,1,2,2,1,1,1,1],"img_shown":["img/500/equaldotsize/L/11_Ratio_500_L_12_R_6.png","img/500/equaldotsize/L/7_Ratio_500_L_10_R_5.png","img/250/randomdotsizeEA/L/7_Ratio_250_L_8_R_2.png","img/900/equaldotsize/L/10_Ratio_900_L_20_R_18.png","img/900/equaldotanddens/R/14_Ratio_900_L_18_R_20.png","img/500/equaldotsize/R/6_Ratio_500_L_9_R_18.png","img/500/randomdotsizeEA/R/15_Ratio_500_L_1_R_2.png","img/900/equaldotanddens/R/13_Ratio_900_L_18_R_20.png","img/900/equaldotsize/R/9_Ratio_900_L_18_R_20.png","img/250/randomdotsizeEA/R/8_Ratio_250_L_1_R_4.png","img/250/randomdotsizeEA/L/14_Ratio_250_L_12_R_3.png","img/250/equaldotsize/R/10_Ratio_250_L_4_R_16.png","img/750/equaldotanddens/L/6_Ratio_750_L_24_R_18.png","img/750/equaldotanddens/L/8_Ratio_750_L_4_R_3.png","img/500/randomdotsizeEA/R/2_Ratio_500_L_3_R_6.png","img/250/equaldotsize/R/11_Ratio_250_L_3_R_12.png","img/750/equaldotanddens/L/13_Ratio_750_L_8_R_6.png","img/900/equaldotanddens/L/2_Ratio_900_L_20_R_18.png","img/750/equaldotanddens/L/9_Ratio_750_L_4_R_3.png","img/500/equaldotsize/R/1_Ratio_500_L_9_R_18.png","img/750/equaldotsize/R/5_Ratio_750_L_15_R_20.png","img/900/randomdotsizeEA/R/11_Ratio_900_L_18_R_20.png","img/250/randomdotsizeEA/R/13_Ratio_250_L_2_R_8.png","img/900/equaldotanddens/L/10_Ratio_900_L_20_R_18.png","img/900/equaldotsize/R/11_Ratio_900_L_18_R_20.png","img/750/equaldotsize/L/13_Ratio_750_L_8_R_6.png","img/250/equaldotsize/R/4_Ratio_250_L_3_R_12.png","img/500/randomdotsizeEA/R/9_Ratio_500_L_2_R_4.png","img/500/equaldotanddens/R/3_Ratio_500_L_10_R_20.png","img/500/equaldotsize/R/3_Ratio_500_L_10_R_20.png","img/900/randomdotsizeEA/L/4_Ratio_900_L_20_R_18.png","img/750/equaldotsize/R/2_Ratio_750_L_6_R_8.png","img/900/equaldotsize/L/2_Ratio_900_L_20_R_18.png","img/750/randomdotsizeEA/R/3_Ratio_750_L_15_R_20.png","img/500/equaldotanddens/L/8_Ratio_500_L_8_R_4.png","img/250/equaldotanddens/L/15_Ratio_250_L_12_R_3.png","img/250/equaldotanddens/L/5_Ratio_250_L_24_R_6.png","img/750/equaldotanddens/R/11_Ratio_750_L_12_R_16.png","img/250/equaldotsize/R/8_Ratio_250_L_1_R_4.png","img/750/randomdotsizeEA/R/15_Ratio_750_L_9_R_12.png","img/500/equaldotanddens/R/12_Ratio_500_L_1_R_2.png","img/250/randomdotsizeEA/R/4_Ratio_250_L_3_R_12.png","img/900/randomdotsizeEA/R/12_Ratio_900_L_18_R_20.png","img/500/randomdotsizeEA/R/14_Ratio_500_L_5_R_10.png","img/500/randomdotsizeEA/L/4_Ratio_500_L_18_R_9.png","img/250/equaldotsize/L/15_Ratio_250_L_12_R_3.png","img/750/randomdotsizeEA/R/11_Ratio_750_L_12_R_16.png","img/750/equaldotsize/R/5_Ratio_750_L_15_R_20.png","img/500/equaldotanddens/R/2_Ratio_500_L_3_R_6.png","img/750/randomdotsizeEA/L/1_Ratio_750_L_20_R_15.png","img/900/equaldotanddens/R/9_Ratio_900_L_18_R_20.png","img/750/randomdotsizeEA/R/11_Ratio_750_L_12_R_16.png","img/500/equaldotanddens/R/15_Ratio_500_L_1_R_2.png","img/250/equaldotanddens/L/2_Ratio_250_L_16_R_4.png","img/250/equaldotanddens/R/10_Ratio_250_L_4_R_16.png","img/250/randomdotsizeEA/R/9_Ratio_250_L_3_R_12.png","img/750/randomdotsizeEA/L/10_Ratio_750_L_4_R_3.png","img/750/randomdotsizeEA/L/10_Ratio_750_L_4_R_3.png","img/900/equaldotanddens/L/10_Ratio_900_L_20_R_18.png","img/250/randomdotsizeEA/R/8_Ratio_250_L_1_R_4.png","img/250/equaldotsize/L/3_Ratio_250_L_8_R_2.png","img/750/equaldotsize/L/8_Ratio_750_L_4_R_3.png","img/750/equaldotsize/L/8_Ratio_750_L_4_R_3.png","img/250/randomdotsizeEA/R/6_Ratio_250_L_6_R_24.png","img/900/equaldotanddens/R/13_Ratio_900_L_18_R_20.png","img/900/equaldotanddens/L/2_Ratio_900_L_20_R_18.png","img/900/randomdotsizeEA/R/6_Ratio_900_L_9_R_10.png","img/500/equaldotsize/L/13_Ratio_500_L_12_R_6.png","img/500/equaldotsize/L/5_Ratio_500_L_4_R_2.png","img/750/equaldotsize/L/10_Ratio_750_L_4_R_3.png","img/500/equaldotsize/L/13_Ratio_500_L_12_R_6.png","img/250/equaldotanddens/L/5_Ratio_250_L_24_R_6.png","img/250/equaldotsize/R/4_Ratio_250_L_3_R_12.png","img/250/equaldotanddens/L/3_Ratio_250_L_8_R_2.png","img/900/equaldotsize/L/8_Ratio_900_L_20_R_18.png","img/500/equaldotanddens/L/7_Ratio_500_L_10_R_5.png","img/750/equaldotanddens/R/7_Ratio_750_L_3_R_4.png","img/250/equaldotanddens/R/10_Ratio_250_L_4_R_16.png","img/250/randomdotsizeEA/R/6_Ratio_250_L_6_R_24.png","img/750/equaldotsize/R/15_Ratio_750_L_9_R_12.png","img/500/randomdotsizeEA/L/10_Ratio_500_L_4_R_2.png","img/900/randomdotsizeEA/L/8_Ratio_900_L_20_R_18.png","img/500/randomdotsizeEA/L/4_Ratio_500_L_18_R_9.png","img/900/randomdotsizeEA/R/15_Ratio_900_L_9_R_10.png","img/500/randomdotsizeEA/R/3_Ratio_500_L_10_R_20.png","img/900/equaldotanddens/R/9_Ratio_900_L_18_R_20.png","img/900/equaldotsize/L/1_Ratio_900_L_10_R_9.png","img/500/randomdotsizeEA/L/4_Ratio_500_L_18_R_9.png","img/250/equaldotsize/R/11_Ratio_250_L_3_R_12.png","img/900/randomdotsizeEA/R/12_Ratio_900_L_18_R_20.png","img/500/equaldotanddens/R/2_Ratio_500_L_3_R_6.png","img/900/equaldotsize/L/10_Ratio_900_L_20_R_18.png","img/900/randomdotsizeEA/L/4_Ratio_900_L_20_R_18.png","img/500/equaldotanddens/R/15_Ratio_500_L_1_R_2.png","img/750/randomdotsizeEA/R/4_Ratio_750_L_15_R_20.png","img/900/equaldotsize/R/15_Ratio_900_L_9_R_10.png","img/500/equaldotanddens/R/2_Ratio_500_L_3_R_6.png","img/250/equaldotanddens/R/8_Ratio_250_L_1_R_4.png","img/250/randomdotsizeEA/L/1_Ratio_250_L_8_R_2.png","img/750/equaldotsize/R/2_Ratio_750_L_6_R_8.png","img/500/equaldotsize/L/10_Ratio_500_L_4_R_2.png","img/500/equaldotanddens/R/12_Ratio_500_L_1_R_2.png","img/900/equaldotsize/R/12_Ratio_900_L_18_R_20.png","img/250/equaldotsize/L/3_Ratio_250_L_8_R_2.png","img/900/equaldotsize/L/8_Ratio_900_L_20_R_18.png","img/750/randomdotsizeEA/L/6_Ratio_750_L_24_R_18.png","img/750/equaldotanddens/L/1_Ratio_750_L_20_R_15.png","img/900/randomdotsizeEA/L/8_Ratio_900_L_20_R_18.png","img/750/equaldotanddens/R/7_Ratio_750_L_3_R_4.png","img/250/equaldotsize/L/1_Ratio_250_L_8_R_2.png","img/900/equaldotanddens/R/14_Ratio_900_L_18_R_20.png","img/250/equaldotanddens/L/15_Ratio_250_L_12_R_3.png","img/750/equaldotanddens/L/6_Ratio_750_L_24_R_18.png","img/750/randomdotsizeEA/L/6_Ratio_750_L_24_R_18.png","img/900/randomdotsizeEA/R/14_Ratio_900_L_18_R_20.png","img/500/randomdotsizeEA/R/3_Ratio_500_L_10_R_20.png","img/250/equaldotanddens/L/14_Ratio_250_L_12_R_3.png","img/750/equaldotanddens/L/14_Ratio_750_L_8_R_6.png","img/500/equaldotsize/L/7_Ratio_500_L_10_R_5.png","img/750/equaldotsize/L/6_Ratio_750_L_24_R_18.png"],"Rat0":[["12_Ratio_0_L_9_R_0.png","13_Ratio_0_L_6_R_0.png","5_Ratio_0_L_2_R_0.png","6_Ratio_0_L_4_R_0.png","8_Ratio_0_L_6_R_0.png"],["1_Ratio_0_L_0_R_17.png","10_Ratio_0_L_0_R_22.png","11_Ratio_0_L_0_R_1.png","14_Ratio_0_L_0_R_24.png","15_Ratio_0_L_0_R_4.png","2_Ratio_0_L_0_R_5.png","3_Ratio_0_L_0_R_17.png","4_Ratio_0_L_0_R_7.png","7_Ratio_0_L_0_R_19.png","9_Ratio_0_L_0_R_15.png"]],"Rat250":[["1_Ratio_250_L_8_R_2.png","14_Ratio_250_L_12_R_3.png","15_Ratio_250_L_12_R_3.png","2_Ratio_250_L_16_R_4.png","3_Ratio_250_L_8_R_2.png","5_Ratio_250_L_24_R_6.png","7_Ratio_250_L_8_R_2.png"],["10_Ratio_250_L_4_R_16.png","11_Ratio_250_L_3_R_12.png","12_Ratio_250_L_5_R_20.png","13_Ratio_250_L_2_R_8.png","4_Ratio_250_L_3_R_12.png","6_Ratio_250_L_6_R_24.png","8_Ratio_250_L_1_R_4.png","9_Ratio_250_L_3_R_12.png"]],"Rat500":[["10_Ratio_500_L_4_R_2.png","11_Ratio_500_L_12_R_6.png","13_Ratio_500_L_12_R_6.png","4_Ratio_500_L_18_R_9.png","5_Ratio_500_L_4_R_2.png","7_Ratio_500_L_10_R_5.png","8_Ratio_500_L_8_R_4.png"],["1_Ratio_500_L_9_R_18.png","12_Ratio_500_L_1_R_2.png","14_Ratio_500_L_5_R_10.png","15_Ratio_500_L_1_R_2.png","2_Ratio_500_L_3_R_6.png","3_Ratio_500_L_10_R_20.png","6_Ratio_500_L_9_R_18.png","9_Ratio_500_L_2_R_4.png"]],"Rat750":[["1_Ratio_750_L_20_R_15.png","10_Ratio_750_L_4_R_3.png","13_Ratio_750_L_8_R_6.png","14_Ratio_750_L_8_R_6.png","6_Ratio_750_L_24_R_18.png","8_Ratio_750_L_4_R_3.png","9_Ratio_750_L_4_R_3.png"],["11_Ratio_750_L_12_R_16.png","12_Ratio_750_L_3_R_4.png","15_Ratio_750_L_9_R_12.png","2_Ratio_750_L_6_R_8.png","3_Ratio_750_L_15_R_20.png","4_Ratio_750_L_15_R_20.png","5_Ratio_750_L_15_R_20.png","7_Ratio_750_L_3_R_4.png"]],"Rat900":[["1_Ratio_900_L_10_R_9.png","10_Ratio_900_L_20_R_18.png","2_Ratio_900_L_20_R_18.png","4_Ratio_900_L_20_R_18.png","8_Ratio_900_L_20_R_18.png"],["11_Ratio_900_L_18_R_20.png","12_Ratio_900_L_18_R_20.png","13_Ratio_900_L_18_R_20.png","14_Ratio_900_L_18_R_20.png","15_Ratio_900_L_9_R_10.png","3_Ratio_900_L_9_R_10.png","5_Ratio_900_L_9_R_10.png","6_Ratio_900_L_9_R_10.png","7_Ratio_900_L_9_R_10.png","9_Ratio_900_L_18_R_20.png"]],"Rat1000":[["10_Ratio_1000_L_16_R_16.png","11_Ratio_1000_L_6_R_6.png","12_Ratio_1000_L_14_R_14.png","13_Ratio_1000_L_20_R_20.png","15_Ratio_1000_L_15_R_15.png","2_Ratio_1000_L_17_R_17.png","4_Ratio_1000_L_9_R_9.png","5_Ratio_1000_L_6_R_6.png","6_Ratio_1000_L_19_R_19.png","8_Ratio_1000_L_14_R_14.png","9_Ratio_1000_L_25_R_25.png"],["1_Ratio_1000_L_1_R_1.png","14_Ratio_1000_L_17_R_17.png","3_Ratio_1000_L_17_R_17.png","7_Ratio_1000_L_6_R_6.png"]]}},{"start_time":1551887711379,"click_time":1551887712405,"finger_time":1551887712065,"fix_duration":1111.8512880653504,"trial":1,"RT":686,"MT":340,"sideResp":1,"stimulus":"img/500/equaldotsize/L/7_Ratio_500_L_10_R_5.png","xmouse":[779,779,779,779,779,779,779,779,779,779,779,779,779,779,779,779,779,779,779,779,779,779,779,779,779,779,779,779,779,779,779,779,776,739,719,690,660,625,583,498,463,447,444,444,444,444,444,444,444,444,447],"ymouse":[503,503,503,503,503,503,503,503,503,503,503,503,503,503,503,503,503,503,503,503,503,503,503,503,503,503,503,503,503,503,503,503,497,398,361,317,285,249,216,146,116,103,101,101,101,101,101,101,101,101,90],"timestamp_mouse":[10,52,66,85,107,126,145,167,185,207,226,245,265,287,305,326,345,366,385,406,426,446,465,486,505,526,545,567,586,607,626,645,666,686,705,725,747,766,785,805,826,845,865,886,906,926,946,967,987,1005,1025],"xSR":741.5,"ySR":469.95,"xT1":424.9,"yT1":0,"xT2":1058.1,"yT2":0,"toosoon":0,"cond_shown":"equaldotsize","ratio_trial":500,"smaller_num":"5","larger_num":"10","correct_side":1,"subjID":"JUANSEBASTIANHERNANDEZRINCON24","gender":"0","age":"12","school":"6"},{"start_time":1551887713472,"click_time":1551887717905,"finger_time":1551887714266,"fix_duration":306.2061137465256,"trial":2,"RT":794,"MT":3639,"sideResp":1,"stimulus":"img/250/randomdotsizeEA/L/7_Ratio_250_L_8_R_2.png","xmouse":[763,763,763,763,763,763,763,763,763,763,763,763,763,763,763,763,763,763,763,763,763,763,763,763,763,763,763,763,763,763,763,763,763,763,763,763,765,765,780,843,874,914,940,974,1015,1032,1047,1059,1070,1077,1077,1077,1077,1077,1070,1068,1068,1068,1068,1068,1067,1057,1044,1029,987,962,940,921,908,877,865,853,837,822,808,804,799,789,770,691,670,655,645,639,635,626,621,615,612,603,598,591,585,581,580,580,580,580,580,580,580,580,581,603,650,661,664,666,669,669,671,671,671,671,671,671,671,671,671,671,671,671,671,671,671,671,671,671,671,671,671,671,671,671,671,671,671,671,671,671,671,671,671,671,671,671,671,671,671,671,671,671,671,671,671,671,671,671,671,671,671,671,671,671,671,671,671,671,671,671,671,671,671,671,671,671,671,671,671,671,671,671,671,671,671,671,671,671,671,671,671,671,671,671,671,671,671,671,671,671,671,671,671,671,671,671,671,671,670,644,632,618,609,599,595,595,594,590,576,546,532,523],"ymouse":[507,507,507,507,507,507,507,507,507,507,507,507,507,507,507,507,507,507,507,507,507,507,507,507,507,507,507,507,507,507,507,507,507,507,507,507,504,503,485,391,354,322,304,288,266,249,231,211,186,161,160,160,160,160,161,162,162,162,162,162,166,183,202,222,276,304,322,338,348,367,372,377,384,390,396,397,396,378,343,230,204,186,174,166,160,151,145,139,136,128,123,114,108,103,101,101,101,101,101,101,101,101,112,146,206,221,227,231,234,234,235,235,235,235,235,235,235,235,235,235,235,235,235,235,235,235,235,235,235,235,235,235,235,235,235,235,235,235,235,235,235,235,235,235,235,235,235,235,235,235,235,235,235,235,235,235,235,235,235,235,235,235,235,235,235,235,235,235,235,235,235,235,235,235,235,235,235,235,235,235,235,235,235,235,235,235,235,235,235,235,235,235,235,235,235,235,235,235,235,235,235,235,235,235,235,235,235,235,235,214,203,192,185,180,177,177,177,174,164,130,111,97],"timestamp_mouse":[12,32,53,72,93,112,133,154,172,194,212,234,253,272,293,313,332,352,372,393,413,432,452,472,492,514,533,553,572,594,612,633,653,672,692,713,732,753,772,794,814,833,853,872,893,912,932,953,972,993,1012,1033,1053,1073,1093,1112,1134,1152,1173,1193,1214,1232,1252,1272,1293,1312,1333,1352,1373,1393,1413,1432,1453,1473,1493,1512,1533,1553,1573,1593,1612,1632,1654,1673,1692,1712,1733,1753,1772,1794,1812,1832,1853,1873,1894,1913,1932,1952,1972,1992,2014,2033,2053,2072,2093,2112,2134,2153,2172,2192,2213,2233,2252,2273,2294,2314,2334,2353,2373,2392,2414,2433,2453,2473,2493,2512,2532,2553,2572,2593,2612,2632,2652,2673,2693,2714,2733,2754,2773,2794,2813,2833,2854,2874,2893,2912,2932,2953,2974,2993,3014,3033,3053,3072,3093,3112,3133,3153,3172,3194,3214,3233,3253,3273,3294,3312,3333,3354,3373,3393,3414,3434,3453,3473,3493,3513,3534,3554,3573,3593,3613,3633,3653,3673,3693,3714,3733,3752,3773,3794,3813,3833,3852,3872,3893,3913,3932,3953,3973,3992,4013,4033,4054,4072,4093,4113,4133,4153,4173,4193,4212,4232,4253,4273,4293,4313,4332,4353,4372,4394,4412,4433],"xSR":741.5,"ySR":469.95,"xT1":424.9,"yT1":0,"xT2":1058.1,"yT2":0,"toosoon":0,"cond_shown":"randomdotsizeEA","ratio_trial":250,"smaller_num":"2","larger_num":"8","correct_side":1,"subjID":"JUANSEBASTIANHERNANDEZRINCON24","gender":"0","age":"12","school":"6"},{"start_time":1551887721028,"click_time":1551887722085,"finger_time":1551887721785,"fix_duration":822.1510689431234,"trial":3,"RT":757,"MT":300,"sideResp":1,"stimulus":"img/900/equaldotsize/L/10_Ratio_900_L_20_R_18.png","xmouse":[795,795,795,796,796,796,796,796,796,796,796,796,796,796,796,796,796,796,796,796,796,796,796,796,796,796,796,796,796,796,796,796,796,796,796,796,787,774,761,744,730,699,684,675,667,660,642,630,615,593,571,527,518],"ymouse":[533,533,527,525,523,522,521,521,521,521,521,521,521,521,521,521,521,521,521,521,521,521,521,521,521,521,521,521,521,521,521,521,521,521,521,521,481,437,396,358,325,260,239,225,214,203,178,161,144,124,106,78,74],"timestamp_mouse":[17,43,56,76,97,116,136,156,177,197,218,236,257,278,297,316,337,357,377,398,416,437,457,478,496,518,536,558,576,596,616,638,657,676,696,716,737,757,777,796,817,837,856,877,898,917,937,956,977,997,1016,1038,1057],"xSR":741.5,"ySR":469.95,"xT1":424.9,"yT1":0,"xT2":1058.1,"yT2":0,"toosoon":0,"cond_shown":"equaldotsize","ratio_trial":900,"smaller_num":"18","larger_num":"20","correct_side":1,"subjID":"JUANSEBASTIANHERNANDEZRINCON24","gender":"0","age":"12","school":"6"},{"start_time":1551887724221,"click_time":1551887725105,"finger_time":1551887724904,"fix_duration":1396.2110884182323,"trial":4,"RT":683,"MT":201,"sideResp":2,"stimulus":"img/900/equaldotanddens/R/14_Ratio_900_L_18_R_20.png","xmouse":[805,805,805,805,805,805,805,805,805,805,805,805,805,805,805,805,805,805,805,805,805,805,805,805,805,805,805,805,805,805,805,805,805,813,841,876,923,1007,1039,1058,1074,1083,1103,1112,1121],"ymouse":[509,509,509,509,509,509,509,509,509,509,509,509,509,509,509,509,509,509,509,509,509,509,509,509,509,509,509,509,509,509,509,509,509,495,442,390,336,244,207,181,159,142,114,104,96],"timestamp_mouse":[9,25,43,65,85,103,123,143,164,184,203,225,245,264,285,304,323,343,364,384,405,424,443,464,484,503,523,544,564,585,604,625,645,664,683,703,724,744,764,783,803,824,844,863,884],"xSR":741.5,"ySR":469.95,"xT1":424.9,"yT1":0,"xT2":1058.1,"yT2":0,"toosoon":0,"cond_shown":"equaldotanddens","ratio_trial":900,"smaller_num":"18","larger_num":"20","correct_side":2,"subjID":"JUANSEBASTIANHERNANDEZRINCON24","gender":"0","age":"12","school":"6"},{"start_time":1551887727228,"click_time":1551887728126,"finger_time":1551887727825,"fix_duration":1261.6928294079091,"trial":5,"RT":597,"MT":301,"sideResp":2,"stimulus":"img/500/equaldotsize/R/6_Ratio_500_L_9_R_18.png","xmouse":[804,803,803,803,803,803,803,803,803,803,803,803,803,803,803,803,803,803,803,803,803,803,803,803,803,803,803,801,801,800,800,806,824,846,873,897,923,952,963,980,998,1032,1039,1049,1063],"ymouse":[547,536,536,536,536,536,536,536,536,536,536,536,536,536,536,536,536,536,536,536,536,536,536,536,536,536,536,525,500,466,425,316,275,236,201,170,140,122,109,93,79,61,59,58,56],"timestamp_mouse":[17,37,56,76,108,118,137,157,177,198,216,237,257,276,297,317,337,357,377,397,418,437,456,477,497,518,537,556,578,597,617,637,656,676,696,716,736,757,777,797,816,838,856,876,898],"xSR":741.5,"ySR":469.95,"xT1":424.9,"yT1":0,"xT2":1058.1,"yT2":0,"toosoon":0,"cond_shown":"equaldotsize","ratio_trial":500,"smaller_num":"9","larger_num":"18","correct_side":2,"subjID":"JUANSEBASTIANHERNANDEZRINCON24","gender":"0","age":"12","school":"6"},{"start_time":1551887732317,"click_time":1551887733445,"finger_time":1551887732944,"fix_duration":269.4993442544624,"trial":6,"RT":627,"MT":501,"sideResp":2,"stimulus":"img/500/randomdotsizeEA/R/15_Ratio_500_L_1_R_2.png","xmouse":[801,801,801,801,801,801,801,801,801,801,801,801,801,801,801,801,801,801,801,801,801,801,801,801,801,801,801,801,801,801,801,804,809,813,815,816,817,819,819,819,819,819,819,819,819,823,839,873,890,902,916,932,973,999,1031,1050,1061],"ymouse":[476,476,476,476,476,476,476,476,476,476,476,476,476,476,476,476,476,476,476,476,476,476,476,476,476,476,476,476,476,476,476,459,432,422,414,408,404,400,400,400,400,400,400,400,398,389,367,319,293,274,254,233,174,145,112,96,84],"timestamp_mouse":[8,27,52,69,87,108,128,149,167,187,208,227,249,267,288,308,327,349,368,388,407,429,447,469,488,507,529,549,567,587,608,627,648,667,688,708,729,748,767,787,807,828,848,869,887,908,927,948,967,987,1009,1028,1048,1067,1087,1108,1128],"xSR":741.5,"ySR":469.95,"xT1":424.9,"yT1":0,"xT2":1058.1,"yT2":0,"toosoon":0,"cond_shown":"randomdotsizeEA","ratio_trial":500,"smaller_num":"1","larger_num":"2","correct_side":2,"subjID":"JUANSEBASTIANHERNANDEZRINCON24","gender":"0","age":"12","school":"6"},{"start_time":1551887734617,"click_time":1551887735504,"finger_time":1551887735286,"fix_duration":250,"trial":7,"RT":669,"MT":218,"sideResp":1,"stimulus":"img/900/equaldotanddens/R/13_Ratio_900_L_18_R_20.png","xmouse":[820,820,820,820,820,820,820,820,820,820,820,820,820,820,820,820,820,820,820,820,820,820,820,820,820,820,820,820,820,820,820,820,808,776,739,696,656,601,586,571,557,547,529,525,523],"ymouse":[507,507,507,507,507,507,507,507,507,507,507,507,507,507,507,507,507,507,507,507,507,507,507,507,507,507,507,507,507,507,507,507,482,426,362,297,242,169,148,131,115,102,82,79,77],"timestamp_mouse":[9,34,48,68,88,107,128,147,168,187,208,227,249,268,287,307,329,348,367,388,407,427,447,468,488,509,528,549,569,589,608,627,647,669,687,708,727,748,768,789,808,827,849,867,887],"xSR":741.5,"ySR":469.95,"xT1":424.9,"yT1":0,"xT2":1058.1,"yT2":0,"toosoon":0,"cond_shown":"equaldotanddens","ratio_trial":900,"smaller_num":"18","larger_num":"20","correct_side":2,"subjID":"JUANSEBASTIANHERNANDEZRINCON24","gender":"0","age":"12","school":"6"},{"start_time":1551887738258,"click_time":1551887739884,"finger_time":1551887739566,"fix_duration":250,"trial":8,"RT":1308,"MT":318,"sideResp":2,"stimulus":"img/900/equaldotsize/R/9_Ratio_900_L_18_R_20.png","xmouse":[793,793,793,793,793,793,793,793,793,793,793,793,793,793,793,793,793,793,793,793,793,793,793,793,793,793,793,793,793,793,793,793,793,793,793,793,793,793,793,793,793,793,793,792,792,792,792,792,792,792,792,792,792,792,792,792,792,793,795,797,799,799,799,799,801,837,870,908,941,961,985,990,995,998,1000,1003,1006,1008,1011,1021,1052,1062],"ymouse":[534,534,534,534,534,534,534,534,534,534,534,534,534,534,534,534,534,534,534,534,534,534,534,534,534,534,534,534,534,534,534,534,534,534,534,534,534,534,534,534,534,534,534,532,530,529,529,529,529,529,529,529,529,529,529,529,529,522,515,511,508,508,508,507,504,456,407,359,308,269,211,200,185,176,170,161,156,151,145,135,107,98],"timestamp_mouse":[9,42,46,67,87,106,127,146,168,187,206,227,247,267,287,307,328,346,367,386,407,427,447,468,486,507,526,547,566,587,607,626,648,666,686,707,727,746,768,787,806,826,846,866,886,906,928,947,967,987,1006,1026,1047,1066,1086,1108,1126,1148,1166,1187,1207,1227,1247,1266,1287,1308,1326,1347,1367,1386,1408,1426,1446,1468,1487,1507,1526,1547,1567,1587,1607,1626],"xSR":741.5,"ySR":469.95,"xT1":424.9,"yT1":0,"xT2":1058.1,"yT2":0,"toosoon":0,"cond_shown":"equaldotsize","ratio_trial":900,"smaller_num":"18","larger_num":"20","correct_side":2,"subjID":"JUANSEBASTIANHERNANDEZRINCON24","gender":"0","age":"12","school":"6"},{"start_time":1551887742457,"click_time":1551887743626,"finger_time":1551887743145,"fix_duration":990.1607571142468,"trial":9,"RT":688,"MT":481,"sideResp":2,"stimulus":"img/250/randomdotsizeEA/R/8_Ratio_250_L_1_R_4.png","xmouse":[801,801,801,801,801,801,801,801,801,801,801,801,801,801,801,801,801,801,801,801,801,801,801,801,801,801,801,801,801,801,801,801,801,815,826,889,926,956,986,1006,1037,1063,1086,1109,1129,1153,1159,1168,1181,1191,1204,1207,1207,1207,1207,1207,1197,1159,1133],"ymouse":[511,511,511,511,511,511,511,511,511,511,511,511,511,511,511,511,511,511,511,511,511,511,511,511,511,511,511,511,511,511,511,511,511,484,458,361,318,285,258,242,218,198,179,164,152,143,139,123,92,63,31,23,17,16,16,16,16,30,38],"timestamp_mouse":[8,28,47,74,89,108,128,147,167,188,207,228,248,269,287,307,328,348,367,387,408,427,449,468,488,509,528,547,568,588,608,627,649,668,688,709,727,748,768,787,808,827,847,868,888,908,927,948,967,988,1008,1027,1048,1068,1089,1108,1128,1149,1169],"xSR":741.5,"ySR":469.95,"xT1":424.9,"yT1":0,"xT2":1058.1,"yT2":0,"toosoon":0,"cond_shown":"randomdotsizeEA","ratio_trial":250,"smaller_num":"1","larger_num":"4","correct_side":2,"subjID":"JUANSEBASTIANHERNANDEZRINCON24","gender":"0","age":"12","school":"6"},{"start_time":1551887744637,"click_time":1551887745965,"finger_time":1551887745345,"fix_duration":250,"trial":10,"RT":708,"MT":620,"sideResp":1,"stimulus":"img/250/randomdotsizeEA/L/14_Ratio_250_L_12_R_3.png","xmouse":[778,778,778,778,778,778,778,778,778,778,778,778,778,778,778,778,778,778,778,778,778,778,778,778,778,778,778,778,778,778,778,778,778,778,770,755,709,700,690,684,674,650,646,642,639,636,613,595,575,558,545,545,545,545,545,545,545,545,545,545,545,545,545,545,545,545,508],"ymouse":[494,494,494,494,494,494,494,494,494,494,494,494,494,494,494,494,494,494,494,494,494,494,494,494,494,494,494,494,494,494,494,494,494,494,484,441,333,310,288,270,245,188,182,175,171,168,138,103,57,21,0,0,0,0,0,0,0,0,0,0,0,0,0,0,0,0,30],"timestamp_mouse":[9,40,48,67,88,109,129,147,168,187,207,228,249,268,288,308,328,348,369,388,408,427,447,469,488,507,528,547,569,587,609,627,648,667,688,708,729,747,768,787,809,828,847,867,889,908,928,947,968,987,1007,1028,1047,1068,1088,1107,1128,1149,1168,1188,1208,1227,1247,1267,1287,1307,1328],"xSR":741.5,"ySR":469.95,"xT1":424.9,"yT1":0,"xT2":1058.1,"yT2":0,"toosoon":0,"cond_shown":"randomdotsizeEA","ratio_trial":250,"smaller_num":"3","larger_num":"12","correct_side":1,"subjID":"JUANSEBASTIANHERNANDEZRINCON24","gender":"0","age":"12","school":"6"},{"start_time":1551887749185,"click_time":1551887750466,"finger_time":1551887749886,"fix_duration":859.9162107947615,"trial":11,"RT":701,"MT":580,"sideResp":2,"stimulus":"img/250/equaldotsize/R/10_Ratio_250_L_4_R_16.png","xmouse":[821,821,821,821,821,821,821,821,821,821,821,821,821,821,821,821,821,821,821,821,821,821,821,821,821,821,821,821,821,821,821,821,821,821,824,845,851,852,852,857,862,871,876,879,890,893,894,897,907,950,968,987,1002,1016,1042,1043,1043,1043,1043,1043,1043,1047,1052,1058,1072],"ymouse":[511,511,511,511,511,511,511,511,511,511,511,511,511,511,511,511,511,511,511,511,511,511,511,511,511,511,511,511,511,511,511,511,511,504,490,422,392,355,325,278,251,215,186,166,131,125,122,118,111,95,91,87,87,89,98,98,98,98,98,98,98,98,97,95,88],"timestamp_mouse":[8,20,39,61,80,101,120,139,159,180,200,221,240,259,280,299,319,341,359,379,399,421,440,459,481,499,521,540,560,579,600,619,640,660,679,701,719,740,760,781,800,819,839,860,880,899,920,940,960,980,999,1020,1040,1059,1080,1099,1119,1141,1159,1180,1199,1221,1240,1259,1280],"xSR":741.5,"ySR":469.95,"xT1":424.9,"yT1":0,"xT2":1058.1,"yT2":0,"toosoon":0,"cond_shown":"equaldotsize","ratio_trial":250,"smaller_num":"4","larger_num":"16","correct_side":2,"subjID":"JUANSEBASTIANHERNANDEZRINCON24","gender":"0","age":"12","school":"6"},{"start_time":1551887752755,"click_time":1551887753846,"finger_time":1551887753365,"fix_duration":250,"trial":12,"RT":610,"MT":481,"sideResp":1,"stimulus":"img/750/equaldotanddens/L/6_Ratio_750_L_24_R_18.png","xmouse":[761,761,761,761,761,761,761,761,761,761,761,761,761,761,761,761,761,761,761,761,761,761,761,761,761,761,761,761,762,758,710,671,630,601,565,555,518,504,488,476,468,468,468,468,468,467,467,467,467,467,467,467,467,467,467],"ymouse":[542,542,542,542,542,542,542,542,542,542,542,542,542,542,542,542,542,542,542,542,542,542,542,542,542,542,542,542,517,488,363,301,248,215,178,169,142,135,127,120,117,117,117,117,117,116,116,116,116,116,116,116,115,102,98],"timestamp_mouse":[9,30,49,71,90,109,129,151,170,191,209,229,250,271,291,310,330,350,369,391,410,431,449,470,491,511,529,551,571,590,610,629,650,670,690,709,729,749,771,790,810,829,850,870,890,909,931,950,970,990,1010,1030,1050,1070,1091],"xSR":741.5,"ySR":469.95,"xT1":424.9,"yT1":0,"xT2":1058.1,"yT2":0,"toosoon":0,"cond_shown":"equaldotanddens","ratio_trial":750,"smaller_num":"18","larger_num":"24","correct_side":1,"subjID":"JUANSEBASTIANHERNANDEZRINCON24","gender":"0","age":"12","school":"6"},{"start_time":1551887757228,"click_time":1551887759085,"finger_time":1551887758145,"fix_duration":1242.4691854125397,"trial":13,"RT":917,"MT":940,"sideResp":1,"stimulus":"img/750/equaldotanddens/L/8_Ratio_750_L_4_R_3.png","xmouse":[829,829,829,829,829,829,829,829,829,829,829,829,829,829,829,829,829,829,829,829,829,829,829,829,829,828,818,814,812,812,812,812,812,811,811,811,811,811,808,807,806,806,806,806,793,772,722,696,675,660,654,651,650,650,650,650,650,650,650,649,643,615,601,588,575,567,556,549,547,543,539,530,530,530,530,530,529,513,506,499,494,490,489,489,489,486,483,480,479,479,479,475,474],"ymouse":[492,492,492,492,492,492,492,492,492,492,492,492,492,492,492,492,492,492,492,492,492,492,492,492,492,492,499,500,502,502,502,502,502,502,502,502,502,502,501,497,496,496,496,496,480,448,346,310,286,270,264,260,256,255,255,255,255,255,255,254,245,215,206,198,188,183,175,170,168,166,163,157,156,156,156,156,155,140,135,130,127,123,123,123,122,118,112,109,107,107,107,101,98],"timestamp_mouse":[16,43,57,77,98,118,136,157,176,198,216,236,257,277,296,318,337,357,376,396,416,436,458,477,497,517,538,556,576,596,617,636,658,676,697,716,737,756,778,796,817,836,856,876,898,917,937,957,976,996,1016,1036,1057,1077,1096,1117,1137,1157,1177,1197,1217,1237,1256,1276,1297,1317,1337,1363,1377,1397,1416,1436,1456,1477,1497,1516,1537,1556,1577,1597,1617,1637,1656,1677,1697,1717,1737,1757,1776,1796,1816,1838,1857],"xSR":741.5,"ySR":469.95,"xT1":424.9,"yT1":0,"xT2":1058.1,"yT2":0,"toosoon":0,"cond_shown":"equaldotanddens","ratio_trial":750,"smaller_num":"3","larger_num":"4","correct_side":1,"subjID":"JUANSEBASTIANHERNANDEZRINCON24","gender":"0","age":"12","school":"6"},{"start_time":1551887760833,"click_time":1551887761784,"finger_time":1551887761485,"fix_duration":366.92331044668344,"trial":14,"RT":652,"MT":299,"sideResp":2,"stimulus":"img/500/randomdotsizeEA/R/2_Ratio_500_L_3_R_6.png","xmouse":[802,802,802,802,802,802,802,802,802,802,802,802,802,802,802,802,802,802,802,802,802,802,802,802,802,802,802,802,802,802,802,801,799,803,807,811,818,827,833,843,849,864,874,891,926,992,1053,1060],"ymouse":[496,496,496,496,496,496,496,496,496,496,496,496,496,496,496,496,496,496,496,496,496,496,496,496,496,496,496,496,496,496,496,490,439,421,406,393,368,351,332,309,294,272,258,239,208,161,84,66],"timestamp_mouse":[11,34,53,71,91,112,132,152,172,192,213,231,251,271,292,311,331,352,372,391,411,431,453,472,493,513,532,552,571,591,613,632,652,671,693,712,732,752,771,792,812,832,851,871,893,912,932,951],"xSR":741.5,"ySR":469.95,"xT1":424.9,"yT1":0,"xT2":1058.1,"yT2":0,"toosoon":0,"cond_shown":"randomdotsizeEA","ratio_trial":500,"smaller_num":"3","larger_num":"6","correct_side":2,"subjID":"JUANSEBASTIANHERNANDEZRINCON24","gender":"0","age":"12","school":"6"},{"start_time":1551887765157,"click_time":1551887766184,"finger_time":1551887765784,"fix_duration":871.3141976305678,"trial":15,"RT":627,"MT":400,"sideResp":2,"stimulus":"img/250/equaldotsize/R/11_Ratio_250_L_3_R_12.png","xmouse":[789,790,790,810,818,822,828,830,830,830,830,830,830,830,830,830,830,830,830,827,819,807,798,790,786,785,785,784,784,784,784,802,818,831,845,866,872,878,883,888,892,895,898,902,907,945,965,986,999,1011,1027,1067],"ymouse":[541,540,540,519,508,502,498,497,497,497,497,497,497,497,497,497,497,497,497,499,503,513,521,526,529,530,530,530,530,530,501,441,396,352,315,259,236,213,193,177,163,156,148,142,132,97,85,74,68,62,52,34],"timestamp_mouse":[9,41,47,67,88,108,128,147,167,187,208,228,249,268,288,309,327,348,369,388,408,428,447,468,487,507,527,549,568,587,608,627,647,668,688,708,727,747,768,787,808,827,848,868,888,908,928,947,968,988,1008,1027],"xSR":741.5,"ySR":469.95,"xT1":424.9,"yT1":0,"xT2":1058.1,"yT2":0,"toosoon":0,"cond_shown":"equaldotsize","ratio_trial":250,"smaller_num":"3","larger_num":"12","correct_side":2,"subjID":"JUANSEBASTIANHERNANDEZRINCON24","gender":"0","age":"12","school":"6"},{"start_time":1551887768611,"click_time":1551887769584,"finger_time":1551887769286,"fix_duration":1345.5047504689885,"trial":16,"RT":675,"MT":298,"sideResp":1,"stimulus":"img/750/equaldotanddens/L/13_Ratio_750_L_8_R_6.png","xmouse":[787,787,787,787,787,787,787,787,787,787,787,787,787,787,787,787,787,787,787,787,787,787,787,787,787,787,787,787,787,787,787,787,786,706,652,602,556,495,477,466,456,446,420,412,412,412,412,420,426],"ymouse":[503,503,503,503,503,503,503,503,503,503,503,503,503,503,503,503,503,503,503,503,503,503,503,503,503,503,503,503,503,503,503,503,498,406,344,296,251,196,177,165,155,146,126,118,118,117,108,75,61],"timestamp_mouse":[14,36,54,74,94,114,133,155,173,195,213,233,254,273,294,315,334,355,374,393,415,433,454,474,495,514,534,554,573,595,613,634,653,675,693,714,733,754,774,793,814,833,853,873,894,915,934,954,973],"xSR":741.5,"ySR":469.95,"xT1":424.9,"yT1":0,"xT2":1058.1,"yT2":0,"toosoon":0,"cond_shown":"equaldotanddens","ratio_trial":750,"smaller_num":"6","larger_num":"8","correct_side":1,"subjID":"JUANSEBASTIANHERNANDEZRINCON24","gender":"0","age":"12","school":"6"},{"start_time":1551887770535,"click_time":1551887771485,"finger_time":1551887771164,"fix_duration":269.6743675582068,"trial":17,"RT":629,"MT":321,"sideResp":1,"stimulus":"img/900/equaldotanddens/L/2_Ratio_900_L_20_R_18.png","xmouse":[793,793,793,793,793,793,793,793,793,793,793,793,793,793,793,793,793,793,793,793,793,793,793,793,793,793,793,793,793,793,794,809,833,853,881,896,901,901,901,901,901,889,853,803,737,631,543,521],"ymouse":[508,508,508,508,508,508,508,508,508,508,508,508,508,508,508,508,508,508,508,508,508,508,508,508,508,508,508,508,508,508,508,466,410,359,308,278,268,268,268,268,268,235,178,128,82,33,7,4],"timestamp_mouse":[9,29,62,70,90,110,130,151,170,190,209,230,249,271,290,311,330,350,370,389,409,429,451,470,489,511,529,551,571,590,610,629,650,670,690,709,731,750,770,790,809,830,850,869,890,910,930,950],"xSR":741.5,"ySR":469.95,"xT1":424.9,"yT1":0,"xT2":1058.1,"yT2":0,"toosoon":0,"cond_shown":"equaldotanddens","ratio_trial":900,"smaller_num":"18","larger_num":"20","correct_side":1,"subjID":"JUANSEBASTIANHERNANDEZRINCON24","gender":"0","age":"12","school":"6"},{"start_time":1551887772418,"click_time":1551887773504,"finger_time":1551887773164,"fix_duration":250,"trial":18,"RT":746,"MT":340,"sideResp":1,"stimulus":"img/750/equaldotanddens/L/9_Ratio_750_L_4_R_3.png","xmouse":[816,816,816,816,816,816,816,816,816,816,816,816,816,816,816,816,816,816,816,816,816,816,816,816,816,816,816,816,816,816,816,816,816,816,816,817,816,811,776,753,733,720,683,672,659,644,625,589,574,561,548,541,533,526,516],"ymouse":[481,481,481,481,481,481,481,481,481,481,481,481,481,481,481,481,481,481,481,481,481,481,481,481,481,481,481,481,481,481,481,481,481,481,481,481,473,449,355,313,274,249,186,170,154,138,118,79,62,51,42,39,38,43,51],"timestamp_mouse":[7,37,48,67,88,107,126,148,168,186,207,227,247,267,287,307,326,347,367,386,406,427,448,467,488,508,528,546,567,588,606,627,648,667,688,707,726,746,766,787,807,827,847,866,886,907,927,947,966,987,1007,1027,1047,1067,1086],"xSR":741.5,"ySR":469.95,"xT1":424.9,"yT1":0,"xT2":1058.1,"yT2":0,"toosoon":0,"cond_shown":"equaldotanddens","ratio_trial":750,"smaller_num":"3","larger_num":"4","correct_side":1,"subjID":"JUANSEBASTIANHERNANDEZRINCON24","gender":"0","age":"12","school":"6"},{"start_time":1551887776985,"click_time":1551887777886,"finger_time":1551887777606,"fix_duration":1259.6436376413526,"trial":19,"RT":621,"MT":280,"sideResp":2,"stimulus":"img/500/equaldotsize/R/1_Ratio_500_L_9_R_18.png","xmouse":[799,799,799,799,799,799,799,799,799,799,799,799,799,799,799,799,799,799,799,799,799,799,799,799,799,799,799,799,799,799,799,802,812,833,881,895,909,922,936,959,977,998,1012,1020,1033,1117],"ymouse":[505,505,505,505,505,505,505,505,505,505,505,505,505,505,505,505,505,505,505,505,505,505,505,505,505,505,505,505,505,505,475,438,370,307,195,170,146,127,111,93,87,82,78,77,75,53],"timestamp_mouse":[1,19,44,59,80,101,120,139,160,180,199,221,240,259,280,300,321,340,360,381,400,419,440,460,479,501,519,540,560,579,600,621,640,660,680,699,719,741,760,781,799,819,840,860,879,900],"xSR":741.5,"ySR":469.95,"xT1":424.9,"yT1":0,"xT2":1058.1,"yT2":0,"toosoon":0,"cond_shown":"equaldotsize","ratio_trial":500,"smaller_num":"9","larger_num":"18","correct_side":2,"subjID":"JUANSEBASTIANHERNANDEZRINCON24","gender":"0","age":"12","school":"6"},{"start_time":1551887779612,"click_time":1551887780746,"finger_time":1551887780244,"fix_duration":946.600266061687,"trial":20,"RT":632,"MT":502,"sideResp":2,"stimulus":"img/750/equaldotsize/R/5_Ratio_750_L_15_R_20.png","xmouse":[797,797,797,797,797,797,797,797,797,797,797,797,797,797,797,797,797,797,797,797,797,797,797,797,797,797,797,797,797,796,794,788,779,777,776,771,764,737,724,715,708,707,706,701,695,690,688,688,693,712,764,830,949,976,1013,1054,1091],"ymouse":[512,512,512,512,512,512,512,512,512,512,512,512,512,512,512,512,512,512,512,512,512,512,512,512,512,512,512,512,512,508,495,469,440,435,432,422,402,311,281,263,253,250,249,233,215,197,186,177,171,157,131,97,45,39,35,35,42],"timestamp_mouse":[17,33,59,73,94,112,133,152,172,193,212,232,254,273,293,314,332,352,372,393,412,433,454,472,493,512,533,553,574,592,613,632,653,672,692,713,733,752,773,793,813,832,852,873,893,913,932,953,972,994,1013,1032,1054,1073,1092,1114,1134],"xSR":741.5,"ySR":469.95,"xT1":424.9,"yT1":0,"xT2":1058.1,"yT2":0,"toosoon":0,"cond_shown":"equaldotsize","ratio_trial":750,"smaller_num":"15","larger_num":"20","correct_side":2,"subjID":"JUANSEBASTIANHERNANDEZRINCON24","gender":"0","age":"12","school":"6"},{"start_time":1551887782442,"click_time":1551887783384,"finger_time":1551887783065,"fix_duration":1057.7255068011264,"trial":21,"RT":623,"MT":319,"sideResp":1,"stimulus":"img/900/randomdotsizeEA/R/11_Ratio_900_L_18_R_20.png","xmouse":[816,816,816,816,816,816,816,816,816,816,816,816,816,816,816,816,816,816,816,816,816,816,816,816,816,816,816,816,816,816,817,813,802,793,785,776,757,740,718,698,674,632,618,594,566,538,517,484],"ymouse":[516,516,516,516,516,516,516,516,516,516,516,516,516,516,516,516,516,516,516,516,516,516,516,516,516,516,516,516,516,516,485,424,367,343,325,308,275,251,220,198,182,158,152,141,126,110,100,93],"timestamp_mouse":[9,23,43,72,83,104,124,142,163,184,203,224,244,262,282,302,324,344,364,382,404,423,442,462,482,502,524,542,562,582,603,623,643,662,683,703,723,742,762,782,804,823,842,862,884,903,923,942],"xSR":741.5,"ySR":469.95,"xT1":424.9,"yT1":0,"xT2":1058.1,"yT2":0,"toosoon":0,"cond_shown":"randomdotsizeEA","ratio_trial":900,"smaller_num":"18","larger_num":"20","correct_side":2,"subjID":"JUANSEBASTIANHERNANDEZRINCON24","gender":"0","age":"12","school":"6"},{"start_time":1551887786679,"click_time":1551887787625,"finger_time":1551887787345,"fix_duration":852.7043791638769,"trial":22,"RT":666,"MT":280,"sideResp":2,"stimulus":"img/250/randomdotsizeEA/R/13_Ratio_250_L_2_R_8.png","xmouse":[800,800,800,800,800,800,800,800,800,800,800,800,800,800,800,800,800,800,800,800,800,800,800,800,800,800,800,800,800,800,800,800,803,820,832,848,851,856,862,896,912,924,934,948,996,1024,1047,1075],"ymouse":[498,498,498,498,498,498,498,498,498,498,498,498,498,498,498,498,498,498,498,498,498,498,498,498,498,498,498,498,498,498,498,499,496,433,366,278,255,230,205,124,104,94,88,83,72,67,61,53],"timestamp_mouse":[8,33,46,65,86,107,127,145,166,185,206,226,246,267,286,305,325,346,366,386,406,426,445,467,486,507,525,546,566,586,606,626,646,666,686,705,725,746,766,786,806,825,846,865,886,905,925,946],"xSR":741.5,"ySR":469.95,"xT1":424.9,"yT1":0,"xT2":1058.1,"yT2":0,"toosoon":0,"cond_shown":"randomdotsizeEA","ratio_trial":250,"smaller_num":"2","larger_num":"8","correct_side":2,"subjID":"JUANSEBASTIANHERNANDEZRINCON24","gender":"0","age":"12","school":"6"},{"start_time":1551887788738,"click_time":1551887789684,"finger_time":1551887789385,"fix_duration":250,"trial":23,"RT":647,"MT":299,"sideResp":1,"stimulus":"img/900/equaldotanddens/L/10_Ratio_900_L_20_R_18.png","xmouse":[799,799,799,799,799,799,799,799,799,799,799,799,799,799,799,799,799,799,799,799,799,799,799,799,799,799,799,799,799,799,799,803,803,801,790,775,734,720,700,666,632,578,559,544,535,531,526,523],"ymouse":[507,507,507,507,507,507,507,507,507,507,507,507,507,507,507,507,507,507,507,507,507,507,507,507,507,507,507,507,507,507,507,493,466,439,386,339,265,245,221,183,147,101,88,77,71,70,69,69],"timestamp_mouse":[8,43,48,68,87,106,126,146,166,188,207,226,248,267,287,308,326,347,367,387,408,426,447,467,488,508,527,546,568,587,606,627,647,667,687,707,726,746,768,787,807,827,846,866,887,907,927,946],"xSR":741.5,"ySR":469.95,"xT1":424.9,"yT1":0,"xT2":1058.1,"yT2":0,"toosoon":0,"cond_shown":"equaldotanddens","ratio_trial":900,"smaller_num":"18","larger_num":"20","correct_side":1,"subjID":"JUANSEBASTIANHERNANDEZRINCON24","gender":"0","age":"12","school":"6"},{"start_time":1551887791204,"click_time":1551887791985,"finger_time":1551887791785,"fix_duration":739.2670403815666,"trial":24,"RT":581,"MT":200,"sideResp":2,"stimulus":"img/900/equaldotsize/R/11_Ratio_900_L_18_R_20.png","xmouse":[808,808,808,808,808,808,808,808,808,808,808,808,808,808,808,808,808,808,808,808,808,808,808,808,808,808,808,809,806,806,812,822,833,868,892,910,927,943,1002,1063],"ymouse":[519,519,519,519,519,519,519,519,519,519,519,519,519,519,519,519,519,519,519,519,519,519,519,519,519,519,519,512,472,434,377,312,256,175,139,123,118,115,105,94],"timestamp_mouse":[9,21,42,61,82,101,121,140,162,180,202,221,241,260,281,301,320,341,361,381,402,421,441,460,481,502,521,541,561,581,601,620,640,660,680,700,721,741,761,781],"xSR":741.5,"ySR":469.95,"xT1":424.9,"yT1":0,"xT2":1058.1,"yT2":0,"toosoon":0,"cond_shown":"equaldotsize","ratio_trial":900,"smaller_num":"18","larger_num":"20","correct_side":2,"subjID":"JUANSEBASTIANHERNANDEZRINCON24","gender":"0","age":"12","school":"6"},{"start_time":1551887794725,"click_time":1551887795585,"finger_time":1551887795265,"fix_duration":418.12627696992854,"trial":25,"RT":540,"MT":320,"sideResp":1,"stimulus":"img/750/equaldotsize/L/13_Ratio_750_L_8_R_6.png","xmouse":[784,784,784,784,784,784,784,784,784,784,784,784,784,784,784,784,784,784,784,784,784,784,784,784,784,784,784,794,795,795,795,795,789,782,773,765,760,758,758,755,739,702,589,513],"ymouse":[545,545,545,545,545,545,545,545,545,545,545,545,545,545,545,545,545,545,545,545,545,545,545,545,545,539,517,391,367,344,321,290,235,207,187,175,168,166,166,164,155,130,71,49],"timestamp_mouse":[1,20,48,60,79,100,120,140,159,179,201,219,239,261,280,299,321,340,360,379,401,419,441,460,480,500,520,540,559,579,600,619,640,660,679,700,720,741,760,779,801,819,840,860],"xSR":741.5,"ySR":469.95,"xT1":424.9,"yT1":0,"xT2":1058.1,"yT2":0,"toosoon":0,"cond_shown":"equaldotsize","ratio_trial":750,"smaller_num":"6","larger_num":"8","correct_side":1,"subjID":"JUANSEBASTIANHERNANDEZRINCON24","gender":"0","age":"12","school":"6"},{"start_time":1551887796717,"click_time":1551887797525,"finger_time":1551887797265,"fix_duration":250,"trial":26,"RT":548,"MT":260,"sideResp":2,"stimulus":"img/250/equaldotsize/R/4_Ratio_250_L_3_R_12.png","xmouse":[805,805,805,805,805,805,805,805,805,805,805,805,805,805,805,805,805,805,805,805,805,805,805,805,805,805,805,823,837,858,893,926,982,1000,1019,1036,1047,1068,1076,1086,1098],"ymouse":[484,484,484,484,484,484,484,484,484,484,484,484,484,484,484,484,484,484,484,484,484,484,484,484,484,484,484,443,412,366,300,251,192,180,170,159,149,124,115,103,90],"timestamp_mouse":[8,33,48,69,87,107,128,148,167,187,207,227,249,268,287,308,328,348,368,389,409,428,447,469,488,507,528,548,567,587,609,628,648,668,687,708,728,748,767,787,808],"xSR":741.5,"ySR":469.95,"xT1":424.9,"yT1":0,"xT2":1058.1,"yT2":0,"toosoon":0,"cond_shown":"equaldotsize","ratio_trial":250,"smaller_num":"3","larger_num":"12","correct_side":2,"subjID":"JUANSEBASTIANHERNANDEZRINCON24","gender":"0","age":"12","school":"6"},{"start_time":1551887798827,"click_time":1551887799666,"finger_time":1551887799465,"fix_duration":422.7422492941363,"trial":27,"RT":638,"MT":201,"sideResp":2,"stimulus":"img/500/randomdotsizeEA/R/9_Ratio_500_L_2_R_4.png","xmouse":[752,752,758,768,775,782,792,800,804,806,806,806,806,806,806,806,806,806,806,806,806,806,806,806,806,806,806,806,806,811,821,881,908,927,943,954,972,985,1009,1048,1106,1150],"ymouse":[557,557,552,543,535,528,522,516,513,513,512,512,512,512,512,512,512,512,512,512,512,512,512,512,512,512,512,512,512,503,481,335,278,230,201,182,159,151,140,127,111,95],"timestamp_mouse":[20,38,59,79,99,117,137,157,177,198,218,238,259,277,297,319,338,358,378,398,418,439,458,478,497,517,537,558,579,598,617,638,657,677,698,718,737,757,778,798,818,838],"xSR":741.5,"ySR":469.95,"xT1":424.9,"yT1":0,"xT2":1058.1,"yT2":0,"toosoon":0,"cond_shown":"randomdotsizeEA","ratio_trial":500,"smaller_num":"2","larger_num":"4","correct_side":2,"subjID":"JUANSEBASTIANHERNANDEZRINCON24","gender":"0","age":"12","school":"6"},{"start_time":1551887807031,"click_time":1551887808125,"finger_time":1551887807565,"fix_duration":1326.9398258999977,"trial":28,"RT":534,"MT":560,"sideResp":2,"stimulus":"img/500/equaldotanddens/R/3_Ratio_500_L_10_R_20.png","xmouse":[799,799,799,799,799,799,799,799,799,799,799,799,799,799,799,799,799,799,799,799,799,799,799,799,806,819,869,987,1033,1063,1095,1129,1135,1135,1135,1135,1137,1137,1131,1124,1121,1117,1107,1098,1091,1088,1086,1088,1094,1102,1108,1112,1113,1115,1116],"ymouse":[527,527,527,527,527,527,527,527,527,527,527,527,527,527,527,527,527,527,527,527,527,527,527,527,513,492,428,326,284,265,249,233,231,231,230,230,219,199,184,175,169,163,154,148,142,138,136,134,131,127,124,121,116,108,96],"timestamp_mouse":[14,34,53,75,95,113,135,153,173,195,215,233,255,273,295,315,334,353,375,394,415,435,455,475,495,515,534,553,573,593,614,633,653,674,694,714,733,754,774,794,814,833,853,874,894,914,934,953,973,994,1015,1033,1055,1073,1094],"xSR":741.5,"ySR":469.95,"xT1":424.9,"yT1":0,"xT2":1058.1,"yT2":0,"toosoon":0,"cond_shown":"equaldotanddens","ratio_trial":500,"smaller_num":"10","larger_num":"20","correct_side":2,"subjID":"JUANSEBASTIANHERNANDEZRINCON24","gender":"0","age":"12","school":"6"},{"start_time":1551887811205,"click_time":1551887811845,"finger_time":1551887811785,"fix_duration":878.6723373583364,"trial":29,"RT":580,"MT":60,"sideResp":2,"stimulus":"img/500/equaldotsize/R/3_Ratio_500_L_10_R_20.png","xmouse":[819,819,819,819,819,819,819,819,819,819,819,819,819,819,819,819,819,819,819,819,819,819,819,819,819,819,819,819,819,842,906,991,1129],"ymouse":[524,524,524,524,524,524,524,524,524,524,524,524,524,524,524,524,524,524,524,524,524,524,524,524,524,524,524,524,518,473,365,249,59],"timestamp_mouse":[1,19,42,60,79,100,119,139,160,180,199,219,240,259,280,300,320,340,360,380,400,420,440,459,480,500,521,540,561,580,600,619,640],"xSR":741.5,"ySR":469.95,"xT1":424.9,"yT1":0,"xT2":1058.1,"yT2":0,"toosoon":0,"cond_shown":"equaldotsize","ratio_trial":500,"smaller_num":"10","larger_num":"20","correct_side":2,"subjID":"JUANSEBASTIANHERNANDEZRINCON24","gender":"0","age":"12","school":"6"},{"start_time":1551887812972,"click_time":1551887814184,"finger_time":1551887813686,"fix_duration":284.8504293660247,"trial":30,"RT":714,"MT":498,"sideResp":2,"stimulus":"img/900/randomdotsizeEA/L/4_Ratio_900_L_20_R_18.png","xmouse":[782,782,782,782,782,782,782,782,782,782,782,782,782,782,782,782,782,782,782,782,782,782,782,782,782,782,782,782,782,782,782,782,782,782,782,827,911,1033,1171,1171,1171,1171,1171,1171,1171,1171,1171,1171,1171,1171,1171,1171,1171,1171,1171,1171,1217,1195,1182,1163,1155],"ymouse":[502,502,502,502,502,502,502,502,502,502,502,502,502,502,502,502,502,502,502,502,502,502,502,502,502,502,502,502,502,502,502,502,502,502,502,439,332,192,56,56,56,56,56,56,56,56,56,56,56,56,56,56,56,56,56,56,52,61,64,73,76],"timestamp_mouse":[14,36,54,72,94,112,134,153,172,192,212,233,253,272,294,314,333,353,372,392,414,432,453,474,494,512,533,553,574,594,613,632,654,674,692,714,732,753,772,792,812,833,852,873,893,914,933,953,973,993,1013,1032,1054,1073,1092,1112,1132,1153,1173,1193,1212],"xSR":741.5,"ySR":469.95,"xT1":424.9,"yT1":0,"xT2":1058.1,"yT2":0,"toosoon":0,"cond_shown":"randomdotsizeEA","ratio_trial":900,"smaller_num":"18","larger_num":"20","correct_side":1,"subjID":"JUANSEBASTIANHERNANDEZRINCON24","gender":"0","age":"12","school":"6"},{"start_time":1551887816112,"click_time":1551887817944,"finger_time":1551887817325,"fix_duration":1205.4264681534523,"trial":31,"RT":1213,"MT":619,"sideResp":1,"stimulus":"img/750/equaldotsize/R/2_Ratio_750_L_6_R_8.png","xmouse":[762,762,762,762,762,762,762,762,762,762,762,762,762,762,762,762,762,762,762,762,762,762,762,762,762,762,762,762,762,762,762,762,762,762,762,762,762,762,762,762,762,762,762,762,762,762,762,762,762,762,762,762,762,762,762,762,762,762,763,760,750,736,682,649,613,550,550,550,550,550,550,550,550,550,364,353,335,327,327,327,327,327,327,327,327,327,344,365,384,402,417,431],"ymouse":[539,539,539,539,539,539,539,539,539,539,539,539,539,539,539,539,539,539,539,539,539,539,539,539,539,539,539,539,539,539,539,539,539,539,539,539,539,539,539,539,539,539,539,539,539,539,539,539,539,539,539,539,539,539,539,539,539,539,539,497,444,390,264,191,122,10,10,10,10,10,10,10,10,10,33,78,156,213,221,225,226,226,226,226,226,226,186,146,121,98,84,74],"timestamp_mouse":[12,39,52,73,93,113,132,153,174,194,212,233,253,272,293,313,334,352,374,393,414,433,452,474,492,513,533,553,573,593,612,633,653,674,694,712,734,753,773,792,812,834,854,873,894,912,932,952,973,992,1013,1033,1053,1074,1094,1112,1133,1153,1173,1192,1213,1232,1252,1272,1293,1313,1334,1354,1374,1393,1413,1433,1453,1474,1492,1513,1533,1552,1573,1592,1613,1633,1653,1672,1693,1713,1734,1753,1772,1792,1813,1832],"xSR":741.5,"ySR":469.95,"xT1":424.9,"yT1":0,"xT2":1058.1,"yT2":0,"toosoon":0,"cond_shown":"equaldotsize","ratio_trial":750,"smaller_num":"6","larger_num":"8","correct_side":2,"subjID":"JUANSEBASTIANHERNANDEZRINCON24","gender":"0","age":"12","school":"6"},{"start_time":1551887822859,"click_time":1551887824046,"finger_time":1551887823645,"fix_duration":773.1239064149944,"trial":32,"RT":786,"MT":401,"sideResp":2,"stimulus":"img/900/equaldotsize/L/2_Ratio_900_L_20_R_18.png","xmouse":[786,786,786,786,786,786,786,786,786,786,786,786,786,786,786,786,786,786,786,786,786,786,786,786,786,786,786,786,786,786,786,786,786,786,786,787,787,787,815,869,920,1052,1098,1135,1160,1177,1195,1204,1209,1217,1221,1221,1221,1221,1221,1221,1213,1191,1168,1152],"ymouse":[516,516,516,516,516,516,516,516,516,516,516,516,516,516,516,516,516,516,516,516,516,516,516,516,516,516,516,516,516,516,516,516,516,516,516,516,516,515,485,416,352,223,181,150,123,107,92,86,81,74,69,69,69,69,69,69,68,74,84,87],"timestamp_mouse":[9,39,46,66,87,106,128,146,167,187,207,228,246,266,286,307,328,346,367,388,407,428,447,467,486,506,527,547,567,587,607,626,647,666,688,706,727,747,767,786,806,826,846,868,887,907,926,947,966,986,1006,1028,1046,1066,1086,1106,1127,1146,1167,1187],"xSR":741.5,"ySR":469.95,"xT1":424.9,"yT1":0,"xT2":1058.1,"yT2":0,"toosoon":0,"cond_shown":"equaldotsize","ratio_trial":900,"smaller_num":"18","larger_num":"20","correct_side":1,"subjID":"JUANSEBASTIANHERNANDEZRINCON24","gender":"0","age":"12","school":"6"},{"start_time":1551887825659,"click_time":1551887826966,"finger_time":1551887826886,"fix_duration":891.6972220075047,"trial":33,"RT":1227,"MT":80,"sideResp":2,"stimulus":"img/750/randomdotsizeEA/R/3_Ratio_750_L_15_R_20.png","xmouse":[805,805,805,805,805,805,805,805,805,805,805,805,805,805,805,805,805,805,805,805,805,805,805,805,805,805,805,805,805,805,805,805,805,805,805,805,805,805,805,805,805,805,805,805,805,805,805,805,805,805,805,805,805,805,805,805,805,805,805,805,808,841,880,921,979,1109],"ymouse":[527,527,527,527,527,527,527,527,527,527,527,527,527,527,527,527,527,527,527,527,527,527,527,527,527,527,527,527,527,527,527,527,527,527,527,527,527,527,527,527,527,527,527,527,527,527,527,527,527,527,527,527,527,527,527,527,527,527,527,527,523,452,376,296,202,37],"timestamp_mouse":[9,27,46,66,87,107,126,148,167,187,208,226,247,266,287,308,327,347,367,387,406,427,446,466,486,508,527,548,567,586,608,627,646,666,687,708,727,746,767,786,808,826,848,867,886,908,926,947,967,987,1006,1028,1046,1066,1087,1106,1126,1148,1166,1187,1207,1227,1246,1268,1287,1306],"xSR":741.5,"ySR":469.95,"xT1":424.9,"yT1":0,"xT2":1058.1,"yT2":0,"toosoon":0,"cond_shown":"randomdotsizeEA","ratio_trial":750,"smaller_num":"15","larger_num":"20","correct_side":2,"subjID":"JUANSEBASTIANHERNANDEZRINCON24","gender":"0","age":"12","school":"6"},{"start_time":1551887828923,"click_time":1551887829885,"finger_time":1551887829646,"fix_duration":1095.3266554508818,"trial":34,"RT":723,"MT":239,"sideResp":1,"stimulus":"img/500/equaldotanddens/L/8_Ratio_500_L_8_R_4.png","xmouse":[754,754,754,754,754,754,754,754,754,754,754,754,754,754,754,754,754,754,754,754,754,754,754,754,754,754,754,754,754,754,754,754,754,753,754,760,766,762,750,733,700,657,596,582,574,566,555,519,506],"ymouse":[500,500,500,500,500,500,500,500,500,500,500,500,500,500,500,500,500,500,500,500,500,500,500,500,500,500,500,500,500,500,500,500,500,500,500,492,457,371,347,321,279,223,161,151,146,142,136,102,82],"timestamp_mouse":[9,23,50,62,82,102,123,142,163,182,202,222,244,262,284,302,323,342,363,383,402,423,444,464,483,502,522,542,564,582,602,623,643,663,683,702,723,742,763,783,803,822,842,862,883,903,924,942,962],"xSR":741.5,"ySR":469.95,"xT1":424.9,"yT1":0,"xT2":1058.1,"yT2":0,"toosoon":0,"cond_shown":"equaldotanddens","ratio_trial":500,"smaller_num":"4","larger_num":"8","correct_side":1,"subjID":"JUANSEBASTIANHERNANDEZRINCON24","gender":"0","age":"12","school":"6"},{"start_time":1551887831244,"click_time":1551887832366,"finger_time":1551887831965,"fix_duration":577.2827716553414,"trial":35,"RT":721,"MT":401,"sideResp":1,"stimulus":"img/250/equaldotanddens/L/15_Ratio_250_L_12_R_3.png","xmouse":[810,810,810,810,810,810,810,810,810,812,819,820,822,822,822,822,822,822,822,822,822,822,822,822,822,822,821,821,820,819,819,819,818,818,818,813,793,766,720,677,648,616,616,616,616,613,583,575,568,560,546,534,533,533,533,533,523],"ymouse":[513,513,513,513,513,513,513,513,512,509,498,497,493,493,493,493,493,493,493,493,493,493,493,493,493,493,493,493,494,494,494,494,495,495,495,489,433,356,279,211,165,131,131,131,131,124,66,53,41,30,11,1,1,1,1,1,15],"timestamp_mouse":[9,22,48,62,82,101,121,141,162,182,202,221,241,262,281,301,322,342,361,381,401,422,442,461,482,501,522,542,562,581,601,622,642,662,682,702,721,741,761,781,801,822,841,861,881,901,922,943,961,982,1001,1022,1041,1061,1081,1103,1122],"xSR":741.5,"ySR":469.95,"xT1":424.9,"yT1":0,"xT2":1058.1,"yT2":0,"toosoon":0,"cond_shown":"equaldotanddens","ratio_trial":250,"smaller_num":"3","larger_num":"12","correct_side":1,"subjID":"JUANSEBASTIANHERNANDEZRINCON24","gender":"0","age":"12","school":"6"},{"start_time":1551887836364,"click_time":1551887837126,"finger_time":1551887836885,"fix_duration":1476.9696494885334,"trial":36,"RT":521,"MT":241,"sideResp":1,"stimulus":"img/250/equaldotanddens/L/5_Ratio_250_L_24_R_6.png","xmouse":[794,794,794,794,794,794,794,794,794,794,794,794,794,794,794,794,794,794,794,794,794,794,794,794,794,794,741,720,695,668,626,613,596,579,565,534,522,509,500],"ymouse":[542,542,542,542,542,542,542,542,542,542,542,542,542,542,542,542,542,542,542,542,542,542,542,542,542,538,401,354,310,275,229,214,200,182,168,133,119,102,93],"timestamp_mouse":[10,21,42,62,81,102,123,142,161,183,201,221,241,261,282,301,323,343,362,382,401,421,442,461,482,501,521,541,562,581,601,621,642,661,681,701,721,742,762],"xSR":741.5,"ySR":469.95,"xT1":424.9,"yT1":0,"xT2":1058.1,"yT2":0,"toosoon":0,"cond_shown":"equaldotanddens","ratio_trial":250,"smaller_num":"6","larger_num":"24","correct_side":1,"subjID":"JUANSEBASTIANHERNANDEZRINCON24","gender":"0","age":"12","school":"6"},{"start_time":1551887838116,"click_time":1551887839165,"finger_time":1551887838666,"fix_duration":250,"trial":37,"RT":550,"MT":499,"sideResp":2,"stimulus":"img/750/equaldotanddens/R/11_Ratio_750_L_12_R_16.png","xmouse":[782,782,779,777,776,782,787,789,789,789,789,789,789,789,789,789,789,789,789,789,789,789,789,789,789,792,798,827,847,863,884,906,942,953,964,971,979,1004,1004,1004,1004,1004,1182,1240,1263,1268,1268,1269,1262,1240,1214,1193,1155],"ymouse":[499,499,499,501,506,516,523,526,526,526,526,526,526,526,526,526,526,526,526,526,526,526,526,526,526,517,501,378,318,263,212,163,100,82,68,57,45,5,5,5,5,5,8,16,21,23,23,23,31,43,55,60,66],"timestamp_mouse":[10,33,49,69,89,109,131,150,170,190,209,230,250,269,290,311,330,351,370,391,409,430,449,470,490,509,530,550,569,590,609,630,649,669,689,710,729,749,769,789,809,829,850,869,890,909,929,950,970,989,1010,1029,1049],"xSR":741.5,"ySR":469.95,"xT1":424.9,"yT1":0,"xT2":1058.1,"yT2":0,"toosoon":0,"cond_shown":"equaldotanddens","ratio_trial":750,"smaller_num":"12","larger_num":"16","correct_side":2,"subjID":"JUANSEBASTIANHERNANDEZRINCON24","gender":"0","age":"12","school":"6"},{"start_time":1551887840386,"click_time":1551887841025,"finger_time":1551887840846,"fix_duration":618.0399123254062,"trial":38,"RT":460,"MT":179,"sideResp":2,"stimulus":"img/250/equaldotsize/R/8_Ratio_250_L_1_R_4.png","xmouse":[790,790,790,790,790,790,790,790,790,790,790,790,790,790,790,790,790,790,790,790,791,798,809,828,895,928,963,991,1009,1021,1041,1050,1061],"ymouse":[534,534,534,534,534,534,534,534,534,534,534,534,534,534,534,534,534,534,534,534,526,504,484,447,335,284,229,193,171,156,135,119,92],"timestamp_mouse":[1,20,40,60,81,100,119,140,160,179,199,221,240,260,281,300,319,339,361,379,399,420,439,459,480,499,519,541,560,579,599,619,639],"xSR":741.5,"ySR":469.95,"xT1":424.9,"yT1":0,"xT2":1058.1,"yT2":0,"toosoon":0,"cond_shown":"equaldotsize","ratio_trial":250,"smaller_num":"1","larger_num":"4","correct_side":2,"subjID":"JUANSEBASTIANHERNANDEZRINCON24","gender":"0","age":"12","school":"6"},{"start_time":1551887843054,"click_time":1551887843866,"finger_time":1551887843726,"fix_duration":1147.7269914721135,"trial":39,"RT":672,"MT":140,"sideResp":2,"stimulus":"img/750/randomdotsizeEA/R/15_Ratio_750_L_9_R_12.png","xmouse":[791,791,791,791,791,791,791,791,791,791,791,791,791,791,791,791,791,791,791,791,791,791,791,791,791,791,791,791,791,791,791,791,798,821,850,882,939,961,985,1013,1064],"ymouse":[537,537,537,537,537,537,537,537,537,537,537,537,537,537,537,537,537,537,537,537,537,537,537,537,537,537,537,537,537,537,537,537,499,425,350,275,169,130,96,64,8],"timestamp_mouse":[11,43,51,72,92,111,133,151,171,191,213,232,253,271,291,312,333,352,373,391,411,432,451,471,493,512,532,551,571,592,611,632,651,672,691,711,731,751,771,793,812],"xSR":741.5,"ySR":469.95,"xT1":424.9,"yT1":0,"xT2":1058.1,"yT2":0,"toosoon":0,"cond_shown":"randomdotsizeEA","ratio_trial":750,"smaller_num":"9","larger_num":"12","correct_side":2,"subjID":"JUANSEBASTIANHERNANDEZRINCON24","gender":"0","age":"12","school":"6"},{"start_time":1551887844918,"click_time":1551887845926,"finger_time":1551887845525,"fix_duration":250,"trial":40,"RT":607,"MT":401,"sideResp":2,"stimulus":"img/500/equaldotanddens/R/12_Ratio_500_L_1_R_2.png","xmouse":[774,774,774,774,774,774,774,774,774,774,774,774,774,774,774,774,774,774,774,774,774,774,774,774,774,774,774,782,787,808,852,899,995,1036,1065,1095,1113,1159,1171,1178,1182,1186,1189,1189,1189,1189,1189,1189,1180,1162,1141],"ymouse":[517,517,517,517,517,517,517,517,517,517,517,517,517,517,517,517,517,517,517,517,517,517,517,517,517,517,517,514,510,492,459,412,315,260,219,175,143,73,58,50,42,35,30,30,30,30,30,29,32,41,54],"timestamp_mouse":[7,27,47,67,89,107,129,147,167,188,207,227,248,267,288,309,328,348,368,387,407,427,448,467,488,509,527,547,567,587,607,627,647,667,688,708,727,747,767,787,809,828,848,869,888,907,929,948,967,987,1008],"xSR":741.5,"ySR":469.95,"xT1":424.9,"yT1":0,"xT2":1058.1,"yT2":0,"toosoon":0,"cond_shown":"equaldotanddens","ratio_trial":500,"smaller_num":"1","larger_num":"2","correct_side":2,"subjID":"JUANSEBASTIANHERNANDEZRINCON24","gender":"0","age":"12","school":"6"},{"start_time":1551887848239,"click_time":1551887849405,"finger_time":1551887848925,"fix_duration":250,"trial":41,"RT":686,"MT":480,"sideResp":2,"stimulus":"img/250/randomdotsizeEA/R/4_Ratio_250_L_3_R_12.png","xmouse":[817,817,817,817,817,817,817,817,817,817,817,817,817,817,817,817,817,817,817,817,817,817,817,817,817,817,817,817,817,817,817,817,817,825,842,861,886,963,1011,1065,1108,1174,1184,1190,1192,1192,1192,1192,1192,1192,1192,1192,1192,1192,1192,1190,1168,1160,1156],"ymouse":[537,537,537,537,537,537,537,537,537,537,537,537,537,537,537,537,537,537,537,537,537,537,537,537,537,537,537,537,537,537,537,537,537,506,461,418,380,292,253,206,167,112,99,88,84,81,81,81,81,81,81,80,80,80,80,75,39,27,19],"timestamp_mouse":[9,43,46,67,87,108,126,147,168,186,206,228,246,267,288,307,327,347,366,386,406,428,447,466,486,507,527,547,567,588,606,626,647,666,686,706,727,746,766,786,808,826,846,867,886,906,926,947,967,986,1006,1027,1046,1067,1088,1106,1126,1146,1166],"xSR":741.5,"ySR":469.95,"xT1":424.9,"yT1":0,"xT2":1058.1,"yT2":0,"toosoon":0,"cond_shown":"randomdotsizeEA","ratio_trial":250,"smaller_num":"3","larger_num":"12","correct_side":2,"subjID":"JUANSEBASTIANHERNANDEZRINCON24","gender":"0","age":"12","school":"6"},{"start_time":1551887850457,"click_time":1551887851605,"finger_time":1551887851206,"fix_duration":250,"trial":42,"RT":749,"MT":399,"sideResp":2,"stimulus":"img/900/randomdotsizeEA/R/12_Ratio_900_L_18_R_20.png","xmouse":[786,786,786,786,786,786,786,786,786,786,786,786,786,786,786,786,786,786,786,786,786,786,786,786,786,786,786,786,786,786,786,786,786,786,786,786,793,822,869,971,1088,1121,1137,1152,1163,1168,1169,1169,1169,1169,1169,1169,1169,1169,1169,1169,1162,1121],"ymouse":[514,514,514,514,514,514,514,514,514,514,514,514,514,514,514,514,514,514,514,514,514,514,514,514,514,514,514,514,514,514,514,514,514,514,514,513,478,418,367,272,174,144,124,102,83,66,61,57,56,56,56,56,56,56,56,56,55,90],"timestamp_mouse":[9,39,49,68,89,108,128,150,169,188,210,228,249,269,288,308,329,348,369,390,408,429,450,468,488,509,529,549,569,589,610,628,649,670,690,709,728,749,768,788,808,829,848,869,888,908,930,948,968,990,1009,1028,1048,1068,1088,1108,1129,1148],"xSR":741.5,"ySR":469.95,"xT1":424.9,"yT1":0,"xT2":1058.1,"yT2":0,"toosoon":0,"cond_shown":"randomdotsizeEA","ratio_trial":900,"smaller_num":"18","larger_num":"20","correct_side":2,"subjID":"JUANSEBASTIANHERNANDEZRINCON24","gender":"0","age":"12","school":"6"},{"start_time":1551887854855,"click_time":1551887855585,"finger_time":1551887855465,"fix_duration":1447.1723209432812,"trial":43,"RT":610,"MT":120,"sideResp":2,"stimulus":"img/500/randomdotsizeEA/R/14_Ratio_500_L_5_R_10.png","xmouse":[786,786,786,786,786,786,786,786,786,786,786,786,786,786,786,786,786,786,786,786,786,786,786,786,786,786,786,786,786,786,847,889,945,994,1038,1058,1067],"ymouse":[524,524,524,524,524,524,524,524,524,524,524,524,524,524,524,524,524,524,524,524,524,524,524,524,524,524,524,524,524,520,413,341,247,157,74,35,18],"timestamp_mouse":[10,43,52,70,91,111,130,151,170,191,211,231,251,270,290,311,331,350,372,392,410,431,451,471,491,510,532,550,571,590,610,630,651,671,690,710,730],"xSR":741.5,"ySR":469.95,"xT1":424.9,"yT1":0,"xT2":1058.1,"yT2":0,"toosoon":0,"cond_shown":"randomdotsizeEA","ratio_trial":500,"smaller_num":"5","larger_num":"10","correct_side":2,"subjID":"JUANSEBASTIANHERNANDEZRINCON24","gender":"0","age":"12","school":"6"},{"start_time":1551887857592,"click_time":1551887858605,"finger_time":1551887858326,"fix_duration":1325.6170738544263,"trial":44,"RT":734,"MT":279,"sideResp":1,"stimulus":"img/500/randomdotsizeEA/L/4_Ratio_500_L_18_R_9.png","xmouse":[810,810,810,810,810,810,810,810,810,810,810,810,810,810,810,810,810,810,810,810,810,810,810,810,810,810,810,810,810,810,810,810,810,810,810,810,791,780,722,679,641,617,605,587,582,576,568,554,501,462,430],"ymouse":[499,499,499,499,499,499,499,499,499,499,499,499,499,499,499,499,499,499,499,499,499,499,499,499,499,499,499,499,499,499,499,499,499,499,499,499,465,439,343,290,249,223,214,201,196,190,182,168,133,111,92],"timestamp_mouse":[14,34,54,74,93,114,133,154,173,193,214,233,253,274,293,313,333,355,373,394,415,434,454,474,494,513,533,553,574,594,613,633,653,673,694,713,734,753,773,793,814,833,853,873,893,913,933,953,973,993,1013],"xSR":741.5,"ySR":469.95,"xT1":424.9,"yT1":0,"xT2":1058.1,"yT2":0,"toosoon":0,"cond_shown":"randomdotsizeEA","ratio_trial":500,"smaller_num":"9","larger_num":"18","correct_side":1,"subjID":"JUANSEBASTIANHERNANDEZRINCON24","gender":"0","age":"12","school":"6"},{"start_time":1551887859597,"click_time":1551887860425,"finger_time":1551887860265,"fix_duration":250,"trial":45,"RT":668,"MT":160,"sideResp":1,"stimulus":"img/250/equaldotsize/L/15_Ratio_250_L_12_R_3.png","xmouse":[802,802,802,813,819,819,819,819,819,819,819,819,819,819,819,819,819,819,819,819,819,819,819,819,819,819,819,819,819,819,819,820,817,691,645,599,573,561,538,522,506,496],"ymouse":[542,542,542,539,536,536,536,536,536,536,536,536,536,536,536,536,536,536,536,536,536,536,536,536,536,536,536,536,536,536,536,536,527,344,285,236,209,192,146,123,105,93],"timestamp_mouse":[8,29,48,68,89,108,129,149,168,190,208,229,249,268,288,309,329,349,368,390,410,429,449,468,489,508,530,549,570,589,609,628,650,668,688,708,729,749,768,788,808,828],"xSR":741.5,"ySR":469.95,"xT1":424.9,"yT1":0,"xT2":1058.1,"yT2":0,"toosoon":0,"cond_shown":"equaldotsize","ratio_trial":250,"smaller_num":"3","larger_num":"12","correct_side":1,"subjID":"JUANSEBASTIANHERNANDEZRINCON24","gender":"0","age":"12","school":"6"},{"start_time":1551887861984,"click_time":1551887862645,"finger_time":1551887862565,"fix_duration":497.22016235073784,"trial":46,"RT":581,"MT":80,"sideResp":2,"stimulus":"img/750/randomdotsizeEA/R/11_Ratio_750_L_12_R_16.png","xmouse":[777,777,777,777,777,777,777,777,777,777,777,777,777,777,777,777,777,777,777,777,777,777,777,777,777,787,796,799,801,819,858,921,1007,1152],"ymouse":[516,516,516,516,516,516,516,516,516,516,516,516,516,516,516,516,516,516,516,516,516,516,516,516,516,509,498,494,490,466,416,329,225,83],"timestamp_mouse":[8,35,42,61,82,101,121,141,161,183,201,221,241,261,282,301,321,341,362,383,402,421,441,462,483,502,521,541,563,581,601,621,641,661],"xSR":741.5,"ySR":469.95,"xT1":424.9,"yT1":0,"xT2":1058.1,"yT2":0,"toosoon":0,"cond_shown":"randomdotsizeEA","ratio_trial":750,"smaller_num":"12","larger_num":"16","correct_side":2,"subjID":"JUANSEBASTIANHERNANDEZRINCON24","gender":"0","age":"12","school":"6"},{"start_time":1551887863637,"click_time":1551887864606,"finger_time":1551887864506,"fix_duration":250,"trial":47,"RT":869,"MT":100,"sideResp":2,"stimulus":"img/750/equaldotsize/R/5_Ratio_750_L_15_R_20.png","xmouse":[835,835,835,835,835,835,835,835,835,835,835,835,835,835,835,835,835,835,835,835,835,835,835,835,835,835,835,835,835,835,835,834,820,810,804,797,797,797,797,797,798,809,823,848,888,941,1041,1082,1104],"ymouse":[512,512,512,512,512,512,512,512,512,512,512,512,512,512,512,512,512,512,512,512,512,512,512,512,512,512,512,512,512,512,512,511,512,515,518,520,520,520,520,520,520,498,478,446,389,310,161,101,66],"timestamp_mouse":[10,30,49,69,88,108,128,149,170,189,208,229,249,268,288,309,329,349,368,388,408,429,448,469,488,508,528,549,568,589,609,629,649,668,688,708,728,749,768,788,809,828,848,869,889,908,928,948,969],"xSR":741.5,"ySR":469.95,"xT1":424.9,"yT1":0,"xT2":1058.1,"yT2":0,"toosoon":0,"cond_shown":"equaldotsize","ratio_trial":750,"smaller_num":"15","larger_num":"20","correct_side":2,"subjID":"JUANSEBASTIANHERNANDEZRINCON24","gender":"0","age":"12","school":"6"},{"start_time":1551887866531,"click_time":1551887867266,"finger_time":1551887867165,"fix_duration":1423.4792120912757,"trial":48,"RT":634,"MT":101,"sideResp":2,"stimulus":"img/500/equaldotanddens/R/2_Ratio_500_L_3_R_6.png","xmouse":[791,791,791,791,791,791,791,791,791,791,791,791,791,791,791,791,791,791,791,791,791,791,791,791,791,791,791,790,790,790,790,824,879,948,1016,1070,1156],"ymouse":[530,530,530,530,530,530,530,530,530,530,530,530,530,530,530,530,530,530,530,530,530,530,530,530,530,530,530,529,529,529,526,460,388,308,232,163,7],"timestamp_mouse":[15,46,55,75,94,116,134,156,174,196,214,235,256,274,296,314,334,356,375,394,415,434,454,474,495,515,535,555,575,594,614,634,654,674,694,715,735],"xSR":741.5,"ySR":469.95,"xT1":424.9,"yT1":0,"xT2":1058.1,"yT2":0,"toosoon":0,"cond_shown":"equaldotanddens","ratio_trial":500,"smaller_num":"3","larger_num":"6","correct_side":2,"subjID":"JUANSEBASTIANHERNANDEZRINCON24","gender":"0","age":"12","school":"6"},{"start_time":1551887869557,"click_time":1551887870227,"finger_time":1551887870186,"fix_duration":250,"trial":49,"RT":629,"MT":41,"sideResp":1,"stimulus":"img/750/randomdotsizeEA/L/1_Ratio_750_L_20_R_15.png","xmouse":[802,802,802,802,802,802,802,802,802,802,802,802,802,802,802,802,802,802,802,802,802,802,802,802,802,802,802,802,802,802,802,698,545,466],"ymouse":[548,548,548,548,548,548,548,548,548,548,548,548,548,547,546,546,546,546,546,546,546,546,546,546,546,546,546,546,546,546,535,389,173,78],"timestamp_mouse":[9,28,48,69,89,108,129,150,168,188,208,229,248,268,288,309,330,349,369,388,410,428,449,469,488,509,528,549,570,589,609,629,649,669],"xSR":741.5,"ySR":469.95,"xT1":424.9,"yT1":0,"xT2":1058.1,"yT2":0,"toosoon":0,"cond_shown":"randomdotsizeEA","ratio_trial":750,"smaller_num":"15","larger_num":"20","correct_side":1,"subjID":"JUANSEBASTIANHERNANDEZRINCON24","gender":"0","age":"12","school":"6"},{"start_time":1551887872421,"click_time":1551887873485,"finger_time":1551887873066,"fix_duration":1153.4541849432599,"trial":50,"RT":645,"MT":419,"sideResp":2,"stimulus":"img/900/equaldotanddens/R/9_Ratio_900_L_18_R_20.png","xmouse":[806,806,806,806,806,806,806,806,806,806,806,806,806,806,806,806,806,806,806,806,806,806,806,806,806,806,806,806,806,806,810,822,845,1055,1149,1210,1210,1210,1210,1210,1210,1210,1210,1210,1210,1210,1210,1210,1210,1194,1187,1180,1168,1141],"ymouse":[529,529,529,529,529,529,529,529,529,529,529,529,529,529,529,529,529,529,529,529,529,529,529,529,529,529,529,529,529,529,529,520,492,216,101,19,19,19,19,19,19,19,19,19,19,19,19,19,5,24,30,37,56,91],"timestamp_mouse":[9,25,45,65,86,105,126,144,164,185,204,225,245,265,284,304,324,344,364,386,404,424,446,464,486,504,524,544,564,584,604,624,645,666,684,705,724,745,765,784,805,826,846,866,884,904,925,944,964,984,1005,1024,1044,1064],"xSR":741.5,"ySR":469.95,"xT1":424.9,"yT1":0,"xT2":1058.1,"yT2":0,"toosoon":0,"cond_shown":"equaldotanddens","ratio_trial":900,"smaller_num":"18","larger_num":"20","correct_side":2,"subjID":"JUANSEBASTIANHERNANDEZRINCON24","gender":"0","age":"12","school":"6"},{"start_time":1551887876549,"click_time":1551887877625,"finger_time":1551887877145,"fix_duration":1102.270418869995,"trial":51,"RT":596,"MT":480,"sideResp":2,"stimulus":"img/750/randomdotsizeEA/R/11_Ratio_750_L_12_R_16.png","xmouse":[814,814,814,814,814,814,814,814,814,814,814,814,814,814,814,814,814,814,814,814,814,814,814,814,814,814,814,814,816,826,879,921,966,983,983,983,983,983,983,983,983,983,983,1035,1019,955,951,951,951,954,999,1033,1068,1092],"ymouse":[513,513,513,513,513,513,513,513,513,513,513,513,513,513,513,513,513,513,513,513,513,513,513,513,513,513,513,513,493,458,287,180,70,25,25,25,25,25,25,25,25,25,25,32,135,409,421,421,421,415,304,200,107,40],"timestamp_mouse":[35,36,57,76,97,117,136,157,177,196,218,236,257,277,297,317,337,356,377,397,416,436,457,476,497,516,537,556,577,596,617,636,656,676,697,717,737,758,776,796,817,836,856,876,896,917,937,957,977,996,1016,1036,1056,1076],"xSR":741.5,"ySR":469.95,"xT1":424.9,"yT1":0,"xT2":1058.1,"yT2":0,"toosoon":0,"cond_shown":"randomdotsizeEA","ratio_trial":750,"smaller_num":"12","larger_num":"16","correct_side":2,"subjID":"JUANSEBASTIANHERNANDEZRINCON24","gender":"0","age":"12","school":"6"},{"start_time":1551887879445,"click_time":1551887880371,"finger_time":1551887880285,"fix_duration":1077.2202986777845,"trial":52,"RT":840,"MT":86,"sideResp":2,"stimulus":"img/500/equaldotanddens/R/15_Ratio_500_L_1_R_2.png","xmouse":[795,795,795,795,795,795,795,795,795,795,795,795,795,795,795,795,795,795,795,795,795,795,795,795,795,795,795,795,795,795,795,795,795,795,795,795,795,795,795,795,795,813,843,891,942,986,1059],"ymouse":[537,537,537,537,537,537,537,537,537,537,537,537,537,537,537,537,537,537,537,537,537,537,537,537,537,537,537,537,537,537,537,537,537,537,537,537,537,537,537,537,533,481,421,341,245,163,20],"timestamp_mouse":[8,21,40,60,81,100,120,141,161,189,201,221,241,262,281,301,320,340,360,380,400,420,441,460,481,501,520,540,561,581,600,620,640,660,681,700,720,740,760,780,800,821,840,860,880,906,926],"xSR":741.5,"ySR":469.95,"xT1":424.9,"yT1":0,"xT2":1058.1,"yT2":0,"toosoon":0,"cond_shown":"equaldotanddens","ratio_trial":500,"smaller_num":"1","larger_num":"2","correct_side":2,"subjID":"JUANSEBASTIANHERNANDEZRINCON24","gender":"0","age":"12","school":"6"},{"start_time":1551887882528,"click_time":1551887883271,"finger_time":1551887883110,"fix_duration":1417.1276051429677,"trial":53,"RT":582,"MT":161,"sideResp":1,"stimulus":"img/250/equaldotanddens/L/2_Ratio_250_L_16_R_4.png","xmouse":[813,813,813,813,813,813,813,813,813,813,813,813,813,813,813,813,813,813,813,813,813,813,813,813,813,813,813,810,793,768,735,690,624,602,572,525,496,464],"ymouse":[520,520,520,520,520,520,520,520,520,520,520,520,520,520,520,520,520,520,520,520,520,520,520,520,520,520,520,510,484,444,404,355,291,254,207,144,114,93],"timestamp_mouse":[9,23,43,63,84,104,122,142,163,184,203,222,243,262,284,302,323,343,362,382,403,424,442,463,484,503,522,542,563,582,603,622,642,662,682,703,722,742],"xSR":741.5,"ySR":469.95,"xT1":424.9,"yT1":0,"xT2":1058.1,"yT2":0,"toosoon":0,"cond_shown":"equaldotanddens","ratio_trial":250,"smaller_num":"4","larger_num":"16","correct_side":1,"subjID":"JUANSEBASTIANHERNANDEZRINCON24","gender":"0","age":"12","school":"6"},{"start_time":1551887885584,"click_time":1551887886170,"finger_time":1551887886071,"fix_duration":1450.527315182335,"trial":54,"RT":487,"MT":99,"sideResp":2,"stimulus":"img/250/equaldotanddens/R/10_Ratio_250_L_4_R_16.png","xmouse":[812,812,812,812,812,812,812,812,812,812,812,812,812,812,812,812,812,812,812,812,812,812,812,814,863,900,944,986,1026,1074],"ymouse":[522,522,522,522,522,522,522,522,522,522,522,522,522,522,522,522,522,522,522,522,522,522,521,520,433,369,292,208,121,9],"timestamp_mouse":[12,36,47,66,88,106,126,146,167,186,206,227,246,267,286,308,326,346,367,386,406,426,447,467,487,507,526,547,566,586],"xSR":741.5,"ySR":469.95,"xT1":424.9,"yT1":0,"xT2":1058.1,"yT2":0,"toosoon":0,"cond_shown":"equaldotanddens","ratio_trial":250,"smaller_num":"4","larger_num":"16","correct_side":2,"subjID":"JUANSEBASTIANHERNANDEZRINCON24","gender":"0","age":"12","school":"6"},{"start_time":1551887888045,"click_time":1551887888931,"finger_time":1551887888552,"fix_duration":1334.5935160058916,"trial":55,"RT":507,"MT":379,"sideResp":2,"stimulus":"img/250/randomdotsizeEA/R/9_Ratio_250_L_3_R_12.png","xmouse":[771,771,771,771,771,771,771,771,771,771,771,771,771,771,771,771,771,771,771,771,771,772,773,781,811,859,928,1065,1123,1160,1184,1219,1224,1226,1227,1227,1227,1228,1228,1228,1228,1220,1208,1185,1155],"ymouse":[529,529,529,529,529,529,529,529,529,529,529,529,529,529,529,529,529,529,529,529,529,529,527,521,498,460,403,287,229,184,144,49,32,25,20,18,17,12,10,9,9,9,9,13,23],"timestamp_mouse":[9,41,45,66,87,106,126,145,166,185,205,227,246,267,287,306,327,346,366,386,405,426,447,465,486,507,526,547,567,585,606,626,647,666,687,705,725,745,766,786,807,825,845,865,886],"xSR":741.5,"ySR":469.95,"xT1":424.9,"yT1":0,"xT2":1058.1,"yT2":0,"toosoon":0,"cond_shown":"randomdotsizeEA","ratio_trial":250,"smaller_num":"3","larger_num":"12","correct_side":2,"subjID":"JUANSEBASTIANHERNANDEZRINCON24","gender":"0","age":"12","school":"6"},{"start_time":1551887891254,"click_time":1551887892131,"finger_time":1551887891931,"fix_duration":1382.9748576741342,"trial":56,"RT":677,"MT":200,"sideResp":2,"stimulus":"img/750/randomdotsizeEA/L/10_Ratio_750_L_4_R_3.png","xmouse":[802,802,802,802,802,802,802,802,802,802,802,802,802,802,802,802,802,802,802,802,802,802,802,802,802,802,802,802,802,802,802,801,803,813,835,905,928,950,969,989,1032,1044,1051,1060],"ymouse":[515,515,515,515,515,515,515,515,515,515,515,515,515,515,515,515,515,515,515,515,515,515,515,515,515,515,515,515,515,515,515,513,489,461,407,275,233,198,157,120,58,43,34,23],"timestamp_mouse":[17,37,57,77,96,117,137,157,177,197,217,237,256,276,298,317,336,356,376,398,416,436,457,476,498,517,537,557,576,597,616,638,656,677,696,716,737,757,777,796,817,838,856,877],"xSR":741.5,"ySR":469.95,"xT1":424.9,"yT1":0,"xT2":1058.1,"yT2":0,"toosoon":0,"cond_shown":"randomdotsizeEA","ratio_trial":750,"smaller_num":"3","larger_num":"4","correct_side":1,"subjID":"JUANSEBASTIANHERNANDEZRINCON24","gender":"0","age":"12","school":"6"},{"start_time":1551887893421,"click_time":1551887894331,"finger_time":1551887893892,"fix_duration":310.7396774855242,"trial":57,"RT":471,"MT":439,"sideResp":2,"stimulus":"img/750/randomdotsizeEA/L/10_Ratio_750_L_4_R_3.png","xmouse":[804,804,804,804,804,804,804,804,804,804,804,804,804,804,804,804,804,804,804,804,804,804,788,767,742,711,687,677,676,679,687,707,784,806,825,840,857,891,908,929,951,971,1003,1020,1050,1075],"ymouse":[528,528,528,528,528,528,528,528,528,528,528,528,528,528,528,528,528,528,528,528,528,525,486,451,413,378,346,332,331,322,314,296,221,203,188,179,166,138,125,113,104,93,84,84,88,91],"timestamp_mouse":[11,30,51,70,90,110,130,150,170,191,210,229,249,269,289,311,331,350,371,391,411,430,449,471,490,509,529,549,571,589,609,631,650,670,690,709,729,749,769,789,809,829,850,870,889,910],"xSR":741.5,"ySR":469.95,"xT1":424.9,"yT1":0,"xT2":1058.1,"yT2":0,"toosoon":0,"cond_shown":"randomdotsizeEA","ratio_trial":750,"smaller_num":"3","larger_num":"4","correct_side":1,"subjID":"JUANSEBASTIANHERNANDEZRINCON24","gender":"0","age":"12","school":"6"},{"start_time":1551887895443,"click_time":1551887896351,"finger_time":1551887895890,"fix_duration":250,"trial":58,"RT":447,"MT":461,"sideResp":1,"stimulus":"img/900/equaldotanddens/L/10_Ratio_900_L_20_R_18.png","xmouse":[810,810,810,810,811,811,811,811,811,811,811,811,811,811,811,811,811,811,811,811,811,818,835,858,867,875,884,884,880,871,857,743,681,619,555,513,484,481,477,474,471,463,457,452,445,439],"ymouse":[548,548,548,548,547,547,547,547,547,547,547,547,547,547,547,547,547,547,547,547,547,512,469,415,385,359,316,295,279,268,260,231,218,201,177,161,145,143,140,137,134,127,121,114,103,92],"timestamp_mouse":[8,33,47,68,88,107,128,148,169,188,209,229,247,269,289,307,329,348,367,389,407,427,447,467,488,508,528,548,568,587,608,627,647,668,689,709,728,748,767,787,808,828,849,869,888,908],"xSR":741.5,"ySR":469.95,"xT1":424.9,"yT1":0,"xT2":1058.1,"yT2":0,"toosoon":0,"cond_shown":"equaldotanddens","ratio_trial":900,"smaller_num":"18","larger_num":"20","correct_side":1,"subjID":"JUANSEBASTIANHERNANDEZRINCON24","gender":"0","age":"12","school":"6"},{"start_time":1551887899014,"click_time":1551887899791,"finger_time":1551887899451,"fix_duration":441.2288385842533,"trial":59,"RT":437,"MT":340,"sideResp":2,"stimulus":"img/250/randomdotsizeEA/R/8_Ratio_250_L_1_R_4.png","xmouse":[787,787,787,787,787,787,787,787,787,787,787,787,787,787,787,787,787,787,787,787,807,841,937,958,968,969,969,969,969,969,969,969,970,976,988,1003,1018,1046,1063],"ymouse":[528,528,528,528,528,528,528,528,528,528,528,528,528,528,528,528,528,528,528,528,495,432,281,251,236,235,235,234,234,234,234,234,234,218,194,164,139,97,76],"timestamp_mouse":[17,36,57,77,96,117,137,156,178,198,216,238,257,277,296,316,337,358,378,397,416,437,457,476,497,517,537,556,577,597,618,638,656,676,697,718,737,756,777],"xSR":741.5,"ySR":469.95,"xT1":424.9,"yT1":0,"xT2":1058.1,"yT2":0,"toosoon":0,"cond_shown":"randomdotsizeEA","ratio_trial":250,"smaller_num":"1","larger_num":"4","correct_side":2,"subjID":"JUANSEBASTIANHERNANDEZRINCON24","gender":"0","age":"12","school":"6"},{"start_time":1551887900916,"click_time":1551887901771,"finger_time":1551887901470,"fix_duration":445.34875972061104,"trial":60,"RT":554,"MT":301,"sideResp":1,"stimulus":"img/250/equaldotsize/L/3_Ratio_250_L_8_R_2.png","xmouse":[767,767,767,767,767,767,767,767,767,767,767,767,767,767,767,767,767,767,767,767,767,767,767,767,767,767,767,737,701,654,617,589,573,570,570,570,569,559,555,554,551,546,515],"ymouse":[513,513,513,513,513,513,513,513,513,513,513,513,513,513,513,513,513,513,513,513,513,513,513,513,513,513,505,383,300,205,131,88,61,56,51,47,33,13,6,4,2,2,18],"timestamp_mouse":[14,36,56,74,94,115,135,154,174,194,214,235,254,275,296,315,335,356,375,394,415,436,454,474,496,516,534,554,574,594,616,636,656,674,694,714,734,755,775,795,814,834,855],"xSR":741.5,"ySR":469.95,"xT1":424.9,"yT1":0,"xT2":1058.1,"yT2":0,"toosoon":0,"cond_shown":"equaldotsize","ratio_trial":250,"smaller_num":"2","larger_num":"8","correct_side":1,"subjID":"JUANSEBASTIANHERNANDEZRINCON24","gender":"0","age":"12","school":"6"},{"start_time":1551887903513,"click_time":1551887904411,"finger_time":1551887904110,"fix_duration":1060.8490162445073,"trial":61,"RT":597,"MT":301,"sideResp":1,"stimulus":"img/750/equaldotsize/L/8_Ratio_750_L_4_R_3.png","xmouse":[799,799,799,799,799,799,799,799,799,799,799,799,799,799,799,799,799,799,799,799,799,799,799,799,799,799,799,799,799,797,769,727,630,604,592,584,579,563,556,550,547,547,547,530,522],"ymouse":[535,535,535,535,535,535,535,535,535,535,535,535,535,535,535,535,535,535,535,535,535,535,535,535,534,534,534,534,533,469,372,265,107,76,63,51,43,20,11,4,1,1,1,0,8],"timestamp_mouse":[19,38,58,77,97,117,138,157,178,198,217,237,258,277,298,319,337,358,379,398,418,438,459,478,499,519,538,558,578,597,617,637,657,678,697,718,739,757,777,797,818,838,858,878,898],"xSR":741.5,"ySR":469.95,"xT1":424.9,"yT1":0,"xT2":1058.1,"yT2":0,"toosoon":0,"cond_shown":"equaldotsize","ratio_trial":750,"smaller_num":"3","larger_num":"4","correct_side":1,"subjID":"JUANSEBASTIANHERNANDEZRINCON24","gender":"0","age":"12","school":"6"},{"start_time":1551887906007,"click_time":1551887907831,"finger_time":1551887907691,"fix_duration":793.876021009425,"trial":62,"RT":1684,"MT":140,"sideResp":2,"stimulus":"img/750/equaldotsize/L/8_Ratio_750_L_4_R_3.png","xmouse":[776,776,776,776,776,776,776,776,776,776,776,776,776,776,776,776,776,776,776,776,776,776,776,776,776,776,776,776,776,776,776,776,776,776,776,776,776,776,776,776,776,776,776,776,776,776,776,776,778,785,789,797,802,810,811,813,813,813,813,813,813,813,813,813,813,813,813,813,813,813,813,813,812,808,808,808,808,808,808,808,808,808,808,811,834,863,904,950,1011,1035,1063,1089],"ymouse":[527,527,527,527,527,527,527,527,527,527,527,527,527,527,527,527,527,527,527,527,527,527,527,527,527,527,527,527,527,527,527,527,527,527,527,527,527,527,527,527,527,527,527,527,527,527,527,527,526,523,521,518,514,511,510,509,509,509,509,509,509,509,509,509,509,509,509,509,509,509,509,509,511,514,514,514,514,514,514,514,514,514,514,504,453,400,340,279,192,154,115,85],"timestamp_mouse":[8,24,44,63,85,104,124,144,164,184,204,223,244,265,284,303,323,345,363,385,404,423,444,465,484,504,523,544,564,584,605,625,644,663,684,704,725,745,763,785,805,823,844,864,885,903,923,944,964,985,1004,1024,1044,1064,1085,1104,1124,1144,1164,1183,1205,1223,1245,1264,1283,1303,1324,1344,1364,1384,1405,1424,1444,1463,1485,1505,1525,1544,1565,1585,1603,1624,1643,1663,1684,1704,1724,1744,1763,1783,1803,1824],"xSR":741.5,"ySR":469.95,"xT1":424.9,"yT1":0,"xT2":1058.1,"yT2":0,"toosoon":0,"cond_shown":"equaldotsize","ratio_trial":750,"smaller_num":"3","larger_num":"4","correct_side":1,"subjID":"JUANSEBASTIANHERNANDEZRINCON24","gender":"0","age":"12","school":"6"},{"start_time":1551887909536,"click_time":1551887910650,"finger_time":1551887909932,"fix_duration":963.4665703333985,"trial":63,"RT":396,"MT":718,"sideResp":2,"stimulus":"img/250/randomdotsizeEA/R/6_Ratio_250_L_6_R_24.png","xmouse":[796,796,796,796,796,796,796,796,796,796,796,796,796,796,796,796,796,796,778,749,734,730,730,730,730,730,730,730,730,730,730,744,768,846,933,1056,1175,1202,1216,1234,1245,1267,1267,1267,1267,1267,1267,1267,1267,1229,1205,1188,1184,1176,1164,1150],"ymouse":[512,512,512,512,512,512,512,512,512,512,512,512,512,512,512,512,512,512,475,408,368,359,359,359,359,359,359,359,359,359,358,350,336,292,248,177,111,86,72,47,29,0,0,0,0,0,0,0,0,20,35,43,45,47,54,61],"timestamp_mouse":[14,37,55,75,96,116,134,155,175,194,216,236,255,275,295,315,334,356,374,396,415,435,455,476,495,514,536,555,576,594,614,634,655,674,694,715,735,756,775,795,815,835,855,875,894,916,935,954,975,995,1014,1034,1054,1074,1096,1114],"xSR":741.5,"ySR":469.95,"xT1":424.9,"yT1":0,"xT2":1058.1,"yT2":0,"toosoon":0,"cond_shown":"randomdotsizeEA","ratio_trial":250,"smaller_num":"6","larger_num":"24","correct_side":2,"subjID":"JUANSEBASTIANHERNANDEZRINCON24","gender":"0","age":"12","school":"6"},{"start_time":1551887911949,"click_time":1551887912491,"finger_time":1551887912392,"fix_duration":656.2967284570165,"trial":64,"RT":443,"MT":99,"sideResp":2,"stimulus":"img/900/equaldotanddens/R/13_Ratio_900_L_18_R_20.png","xmouse":[785,785,785,785,785,785,785,785,785,785,785,785,785,785,785,785,785,785,785,785,785,788,808,839,879,925,1055,1077],"ymouse":[522,522,522,522,522,522,522,522,522,522,522,522,522,522,522,522,522,522,522,522,522,517,466,391,314,232,49,14],"timestamp_mouse":[9,36,43,63,82,103,121,141,162,181,203,221,241,262,281,301,322,342,361,381,402,422,443,461,481,502,522,542],"xSR":741.5,"ySR":469.95,"xT1":424.9,"yT1":0,"xT2":1058.1,"yT2":0,"toosoon":0,"cond_shown":"equaldotanddens","ratio_trial":900,"smaller_num":"18","larger_num":"20","correct_side":2,"subjID":"JUANSEBASTIANHERNANDEZRINCON24","gender":"0","age":"12","school":"6"},{"start_time":1551887913965,"click_time":1551887914711,"finger_time":1551887914370,"fix_duration":250,"trial":65,"RT":405,"MT":341,"sideResp":2,"stimulus":"img/900/equaldotanddens/L/2_Ratio_900_L_20_R_18.png","xmouse":[764,764,764,764,764,764,764,764,764,764,764,764,764,764,764,764,764,764,785,846,895,951,1028,1112,1181,1181,1181,1181,1181,1181,1181,1181,1181,1181,1181,1166,1122],"ymouse":[521,521,521,521,521,521,521,521,521,521,521,521,521,521,521,521,521,521,502,430,379,307,218,121,13,13,13,13,13,13,13,13,13,13,13,27,85],"timestamp_mouse":[32,46,65,87,106,126,147,167,186,207,225,245,265,286,306,326,346,366,385,405,425,445,467,486,507,526,546,565,586,606,625,645,666,686,706,726,746],"xSR":741.5,"ySR":469.95,"xT1":424.9,"yT1":0,"xT2":1058.1,"yT2":0,"toosoon":0,"cond_shown":"equaldotanddens","ratio_trial":900,"smaller_num":"18","larger_num":"20","correct_side":1,"subjID":"JUANSEBASTIANHERNANDEZRINCON24","gender":"0","age":"12","school":"6"},{"start_time":1551887916401,"click_time":1551887917130,"finger_time":1551887916490,"fix_duration":969.0459551991166,"trial":66,"RT":89,"MT":640,"sideResp":2,"stimulus":"img/900/randomdotsizeEA/R/6_Ratio_900_L_9_R_10.png","xmouse":[772,772,775,787,794,797,798,799,799,799,799,799,799,799,799,799,799,799,789,782,775,769,767,764,769,781,805,830,906,943,969,996,1008,1040,1048,1055,1060],"ymouse":[530,530,514,471,451,439,430,426,426,426,426,426,426,426,426,426,426,426,397,381,361,343,328,282,265,248,228,214,174,153,136,121,112,89,82,80,78],"timestamp_mouse":[12,33,50,69,89,109,129,149,169,190,209,230,250,270,290,309,329,351,370,389,411,430,451,470,489,511,530,549,570,590,610,630,650,670,690,709,729],"xSR":741.5,"ySR":469.95,"xT1":424.9,"yT1":0,"xT2":1058.1,"yT2":0,"toosoon":0,"cond_shown":"randomdotsizeEA","ratio_trial":900,"smaller_num":"9","larger_num":"10","correct_side":2,"subjID":"JUANSEBASTIANHERNANDEZRINCON24","gender":"0","age":"12","school":"6"},{"start_time":1551887919122,"click_time":1551887919810,"finger_time":1551887919690,"fix_duration":1370.788937428025,"trial":67,"RT":568,"MT":120,"sideResp":1,"stimulus":"img/500/equaldotsize/L/13_Ratio_500_L_12_R_6.png","xmouse":[809,809,809,809,809,809,809,809,809,809,809,809,809,809,809,809,809,809,809,809,809,809,809,809,809,809,809,806,739,700,650,603,544,531,522],"ymouse":[537,537,537,537,537,537,537,537,537,537,537,537,537,537,537,537,537,537,537,537,537,537,537,537,537,537,537,535,373,299,221,155,72,52,37],"timestamp_mouse":[9,39,49,70,90,109,129,148,170,189,208,230,248,268,288,310,328,349,368,389,408,430,448,469,489,508,529,548,568,588,608,628,648,668,688],"xSR":741.5,"ySR":469.95,"xT1":424.9,"yT1":0,"xT2":1058.1,"yT2":0,"toosoon":0,"cond_shown":"equaldotsize","ratio_trial":500,"smaller_num":"6","larger_num":"12","correct_side":1,"subjID":"JUANSEBASTIANHERNANDEZRINCON24","gender":"0","age":"12","school":"6"},{"start_time":1551887921065,"click_time":1551887921670,"finger_time":1551887921552,"fix_duration":611.2832797088836,"trial":68,"RT":487,"MT":118,"sideResp":1,"stimulus":"img/500/equaldotsize/L/5_Ratio_500_L_4_R_2.png","xmouse":[775,775,775,775,775,775,775,775,775,775,775,775,775,775,775,775,775,775,775,775,775,775,775,769,759,649,587,543,523,505,470],"ymouse":[507,507,507,507,507,507,507,507,507,507,507,507,507,507,507,507,507,507,507,507,507,507,507,479,443,276,206,154,135,120,88],"timestamp_mouse":[5,38,46,65,86,105,126,146,165,186,205,227,247,265,287,305,326,346,367,386,405,427,446,465,487,505,527,546,565,585,605],"xSR":741.5,"ySR":469.95,"xT1":424.9,"yT1":0,"xT2":1058.1,"yT2":0,"toosoon":0,"cond_shown":"equaldotsize","ratio_trial":500,"smaller_num":"2","larger_num":"4","correct_side":1,"subjID":"JUANSEBASTIANHERNANDEZRINCON24","gender":"0","age":"12","school":"6"},{"start_time":1551887923364,"click_time":1551887924151,"finger_time":1551887923790,"fix_duration":771.5196489043306,"trial":69,"RT":426,"MT":361,"sideResp":1,"stimulus":"img/750/equaldotsize/L/10_Ratio_750_L_4_R_3.png","xmouse":[806,806,806,806,806,806,806,806,806,806,806,806,806,808,808,811,812,812,812,814,814,801,778,757,724,680,677,672,665,654,636,626,618,613,598,570,554,537,525,517],"ymouse":[529,529,529,529,529,529,529,529,529,529,529,529,529,527,526,525,525,525,525,523,496,457,404,348,287,223,217,211,196,177,150,140,135,131,121,100,91,85,85,85],"timestamp_mouse":[8,40,46,66,87,108,127,147,167,187,208,227,246,267,287,307,326,347,367,387,406,426,447,466,487,508,527,546,567,588,606,627,647,667,686,707,727,747,768,787],"xSR":741.5,"ySR":469.95,"xT1":424.9,"yT1":0,"xT2":1058.1,"yT2":0,"toosoon":0,"cond_shown":"equaldotsize","ratio_trial":750,"smaller_num":"3","larger_num":"4","correct_side":1,"subjID":"JUANSEBASTIANHERNANDEZRINCON24","gender":"0","age":"12","school":"6"},{"start_time":1551887925223,"click_time":1551887926012,"finger_time":1551887925670,"fix_duration":250,"trial":70,"RT":447,"MT":342,"sideResp":1,"stimulus":"img/500/equaldotsize/L/13_Ratio_500_L_12_R_6.png","xmouse":[783,783,783,783,783,783,783,783,783,783,783,783,783,783,783,783,783,783,783,783,783,783,751,723,707,693,680,647,625,613,604,598,595,592,588,582,572,548,533,524],"ymouse":[534,534,534,534,534,534,534,534,534,534,534,534,534,534,534,534,534,534,534,534,521,486,314,261,237,222,209,151,105,85,74,67,66,64,63,60,58,53,53,53],"timestamp_mouse":[8,28,47,69,88,107,128,148,169,187,209,228,247,269,287,308,328,348,368,388,409,427,447,468,487,508,528,547,567,588,608,627,647,667,687,707,727,747,769,789],"xSR":741.5,"ySR":469.95,"xT1":424.9,"yT1":0,"xT2":1058.1,"yT2":0,"toosoon":0,"cond_shown":"equaldotsize","ratio_trial":500,"smaller_num":"6","larger_num":"12","correct_side":1,"subjID":"JUANSEBASTIANHERNANDEZRINCON24","gender":"0","age":"12","school":"6"},{"start_time":1551887928238,"click_time":1551887928771,"finger_time":1551887928670,"fix_duration":1444.3576598844265,"trial":71,"RT":432,"MT":101,"sideResp":1,"stimulus":"img/250/equaldotanddens/L/5_Ratio_250_L_24_R_6.png","xmouse":[804,802,782,781,781,781,781,781,781,781,781,781,781,781,781,781,781,781,780,776,764,710,672,641,608,581,515],"ymouse":[526,526,533,534,534,534,535,535,535,535,535,535,535,535,535,535,535,535,530,518,495,400,334,276,234,190,90],"timestamp_mouse":[20,37,52,73,93,113,132,154,173,192,213,233,252,273,292,313,333,353,373,393,412,432,452,472,492,514,533],"xSR":741.5,"ySR":469.95,"xT1":424.9,"yT1":0,"xT2":1058.1,"yT2":0,"toosoon":0,"cond_shown":"equaldotanddens","ratio_trial":250,"smaller_num":"6","larger_num":"24","correct_side":1,"subjID":"JUANSEBASTIANHERNANDEZRINCON24","gender":"0","age":"12","school":"6"},{"start_time":1551887929855,"click_time":1551887930311,"finger_time":1551887930171,"fix_duration":324.28439943259434,"trial":72,"RT":316,"MT":140,"sideResp":1,"stimulus":"img/250/equaldotsize/R/4_Ratio_250_L_3_R_12.png","xmouse":[796,796,796,796,796,796,796,796,796,796,796,796,796,794,771,637,573,528,507,500,499,499,499],"ymouse":[512,512,512,512,512,512,512,512,512,512,512,512,512,503,477,309,232,159,124,110,103,100,99],"timestamp_mouse":[30,36,56,75,95,117,135,155,175,196,216,237,255,276,296,316,335,355,376,396,415,436,456],"xSR":741.5,"ySR":469.95,"xT1":424.9,"yT1":0,"xT2":1058.1,"yT2":0,"toosoon":0,"cond_shown":"equaldotsize","ratio_trial":250,"smaller_num":"3","larger_num":"12","correct_side":2,"subjID":"JUANSEBASTIANHERNANDEZRINCON24","gender":"0","age":"12","school":"6"},{"start_time":1551887931329,"click_time":1551887932171,"finger_time":1551887931811,"fix_duration":296.092441758934,"trial":73,"RT":482,"MT":360,"sideResp":1,"stimulus":"img/250/equaldotanddens/L/3_Ratio_250_L_8_R_2.png","xmouse":[799,799,799,799,799,7