[{"start_time":1551892577456,"click_time":1551892579693,"finger_time":1551892577473,"fix_duration":1301.1859147450245,"trial":0,"RT":17,"MT":2220,"sideResp":1,"stimulus":"img/750/randomdotsizeEA/R/4_Ratio_750_L_15_R_20.png","xmouse":[799,799,799,799,799,799,799,799,799,799,799,799,799,799,799,799,799,799,799,799,799,799,799,799,799,799,799,799,799,799,799,799,799,799,799,799,799,799,799,799,799,799,799,799,799,799,799,799,799,799,799,799,799,799,799,799,799,799,799,799,799,799,799,799,799,799,799,799,799,799,799,799,799,799,799,799,799,799,799,805,808,809,809,802,787,780,772,762,755,746,744,741,735,729,721,719,715,711,707,689,676,669,668,668,665,662,656,642,623,566,543,519],"ymouse":[501,501,501,501,501,501,501,501,501,501,501,501,501,501,501,501,501,501,501,501,501,501,501,501,501,501,501,501,501,501,501,501,501,501,501,501,501,501,501,501,501,501,501,501,501,501,501,501,501,501,501,501,501,501,501,501,501,501,501,501,501,501,501,501,501,501,501,501,501,501,501,501,501,501,501,501,501,501,501,484,479,474,464,448,424,409,394,377,361,335,321,306,289,275,253,247,241,237,234,213,198,188,182,177,168,163,155,140,121,79,65,53],"timestamp_mouse":[17,35,55,77,97,117,136,156,175,195,216,235,257,275,295,317,336,357,377,396,416,436,455,476,496,516,536,556,576,596,617,636,655,675,696,716,737,757,776,795,817,836,856,875,896,916,937,955,976,997,1017,1036,1055,1076,1097,1115,1135,1157,1177,1197,1215,1237,1257,1276,1296,1315,1335,1356,1376,1397,1416,1435,1456,1476,1496,1516,1537,1556,1575,1595,1616,1636,1657,1677,1695,1716,1735,1756,1777,1796,1816,1835,1856,1876,1895,1915,1937,1955,1977,1995,2015,2035,2055,2076,2095,2115,2135,2156,2177,2195,2215,2237],"xSR":741.5,"ySR":469.95,"xT1":424.9,"yT1":0,"xT2":1058.1,"yT2":0,"toosoon":0,"cond_shown":"randomdotsizeEA","ratio_trial":750,"smaller_num":"15","larger_num":"20","correct_side":2,"subjID":"julianadiazpadilla7","gender":"1","age":"11","school":"6","test":{"fix_dur":[250,1500],"timestim":300,"targets_dim":[100,100],"targets_relative_coord":[0.3,0.7],"size_stim":[880,420],"start_dim":[100,100],"size_start":[300,300],"size_fix":60,"samplingrate":20,"img_types":["equaldotsize","equaldotanddens","randomdotsizeEA"],"ratios":[250,500,750,900],"rep_conds":9,"nTrials":120,"trials_to_rest":500,"Trials_order":[20,26,49,57,23,44,25,4,34,113,35,74,89,41,90,69,51,6,31,36,115,108,40,67,73,83,48,17,30,53,107,60,54,87,93,72,91,65,109,14,81,21,68,106,18,19,55,78,76,97,32,101,104,102,88,84,52,47,38,42,118,9,99,98,0,27,103,39,71,66,61,5,11,15,56,29,8,114,96,85,12,24,22,59,80,75,110,1,117,63,28,2,43,86,10,13,46,82,33,16,37,50,95,94,77,116,3,105,111,62,100,119,58,79,64,7,70,92,45,112],"cond_shown":["randomdotsizeEA","randomdotsizeEA","equaldotanddens","equaldotsize","randomdotsizeEA","randomdotsizeEA","equaldotanddens","equaldotanddens","equaldotanddens","randomdotsizeEA","randomdotsizeEA","randomdotsizeEA","randomdotsizeEA","randomdotsizeEA","equaldotsize","equaldotsize","equaldotsize","equaldotsize","equaldotanddens","equaldotsize","equaldotanddens","equaldotsize","equaldotanddens","equaldotanddens","equaldotanddens","randomdotsizeEA","equaldotsize","randomdotsizeEA","equaldotsize","randomdotsizeEA","randomdotsizeEA","equaldotsize","equaldotsize","equaldotsize","equaldotsize","equaldotsize","equaldotanddens","randomdotsizeEA","equaldotanddens","randomdotsizeEA","equaldotsize","equaldotsize","randomdotsizeEA","equaldotanddens","equaldotsize","equaldotanddens","equaldotanddens","equaldotsize","equaldotanddens","equaldotanddens","randomdotsizeEA","randomdotsizeEA","randomdotsizeEA","equaldotsize","equaldotanddens","equaldotsize","equaldotanddens","randomdotsizeEA","randomdotsizeEA","equaldotsize","equaldotanddens","equaldotsize","equaldotsize","randomdotsizeEA","equaldotsize","equaldotsize","equaldotanddens","equaldotsize","randomdotsizeEA","equaldotsize","equaldotanddens","randomdotsizeEA","randomdotsizeEA","equaldotsize","randomdotsizeEA","randomdotsizeEA","randomdotsizeEA","equaldotsize","equaldotsize","equaldotanddens","equaldotsize","equaldotsize","equaldotanddens","randomdotsizeEA","randomdotsizeEA","equaldotsize","randomdotsizeEA","equaldotanddens","equaldotsize","equaldotsize","equaldotanddens","randomdotsizeEA","equaldotanddens","randomdotsizeEA","equaldotanddens","equaldotanddens","equaldotanddens","equaldotanddens","equaldotsize","equaldotanddens","equaldotanddens","randomdotsizeEA","randomdotsizeEA","equaldotanddens","randomdotsizeEA","randomdotsizeEA","equaldotsize","equaldotsize","equaldotsize","randomdotsizeEA","equaldotanddens","randomdotsizeEA","equaldotanddens","equaldotanddens","equaldotanddens","equaldotanddens","equaldotanddens","randomdotsizeEA","equaldotsize","equaldotanddens"],"ratio_trial":[750,250,250,900,900,750,250,500,900,500,900,250,500,500,750,900,500,750,750,250,750,250,500,750,250,900,250,500,750,500,900,250,750,500,900,250,750,500,250,250,900,900,750,900,750,750,750,750,500,250,750,500,750,750,500,250,500,900,250,750,900,900,500,250,250,500,750,500,900,750,250,500,900,500,750,500,750,750,250,250,250,250,900,900,750,500,250,250,900,500,500,250,750,250,900,250,900,900,900,500,250,250,900,900,500,750,500,900,500,250,500,900,900,750,500,750,900,750,900,500],"smaller_num":["15","4","3","18","18","3","4","2","18","5","18","3","6","9","15","18","9","3","12","3","6","3","9","6","4","9","1","6","3","6","18","4","3","1","18","6","15","2","2","3","18","18","9","18","15","15","6","3","2","2","6","1","15","3","2","3","9","18","3","6","18","18","3","1","4","2","6","5","18","3","4","4","18","2","15","5","3","6","6","3","4","2","18","18","15","3","5","3","9","9","2","2","6","3","18","2","9","9","18","1","3","2","18","18","9","3","10","9","5","3","1","18","18","18","1","18","18","6","9","9"],"larger_num":["20","16","12","20","20","4","16","4","20","10","20","12","12","18","20","20","18","4","16","12","8","12","18","8","16","10","4","12","4","12","20","16","4","2","20","24","20","4","8","12","20","20","12","20","20","20","8","4","4","8","8","2","20","4","4","12","18","20","12","8","20","20","6","4","16","4","8","10","20","4","16","8","20","4","20","10","4","8","24","12","16","8","20","20","20","6","20","12","10","18","4","8","8","12","20","8","10","10","20","2","12","8","20","20","18","4","20","10","10","12","2","20","20","24","2","24","20","8","10","18"],"correct_side":[2,1,2,2,2,2,2,2,1,2,2,1,1,1,2,1,2,1,2,1,1,2,2,1,1,2,2,1,1,1,2,2,2,2,2,1,2,2,2,2,1,2,2,2,2,2,1,2,1,1,1,2,2,2,1,1,1,2,2,1,1,1,2,2,2,2,2,1,2,1,2,1,2,1,2,1,1,2,1,2,2,1,1,1,2,2,2,1,1,2,1,1,2,1,2,1,2,1,2,2,2,1,1,1,2,2,2,2,1,1,2,2,1,1,2,1,2,1,2,2],"img_shown":["img/750/randomdotsizeEA/R/4_Ratio_750_L_15_R_20.png","img/250/randomdotsizeEA/L/2_Ratio_250_L_16_R_4.png","img/250/equaldotanddens/R/11_Ratio_250_L_3_R_12.png","img/900/equaldotsize/R/12_Ratio_900_L_18_R_20.png","img/900/randomdotsizeEA/R/12_Ratio_900_L_18_R_20.png","img/750/randomdotsizeEA/R/12_Ratio_750_L_3_R_4.png","img/250/equaldotanddens/R/10_Ratio_250_L_4_R_16.png","img/500/equaldotanddens/R/9_Ratio_500_L_2_R_4.png","img/900/equaldotanddens/L/8_Ratio_900_L_20_R_18.png","img/500/randomdotsizeEA/R/14_Ratio_500_L_5_R_10.png","img/900/randomdotsizeEA/R/11_Ratio_900_L_18_R_20.png","img/250/randomdotsizeEA/L/15_Ratio_250_L_12_R_3.png","img/500/randomdotsizeEA/L/11_Ratio_500_L_12_R_6.png","img/500/randomdotsizeEA/L/4_Ratio_500_L_18_R_9.png","img/750/equaldotsize/R/3_Ratio_750_L_15_R_20.png","img/900/equaldotsize/L/8_Ratio_900_L_20_R_18.png","img/500/equaldotsize/R/6_Ratio_500_L_9_R_18.png","img/750/equaldotsize/L/9_Ratio_750_L_4_R_3.png","img/750/equaldotanddens/R/11_Ratio_750_L_12_R_16.png","img/250/equaldotsize/L/15_Ratio_250_L_12_R_3.png","img/750/equaldotanddens/L/13_Ratio_750_L_8_R_6.png","img/250/equaldotsize/R/9_Ratio_250_L_3_R_12.png","img/500/equaldotanddens/R/1_Ratio_500_L_9_R_18.png","img/750/equaldotanddens/L/14_Ratio_750_L_8_R_6.png","img/250/equaldotanddens/L/2_Ratio_250_L_16_R_4.png","img/900/randomdotsizeEA/R/15_Ratio_900_L_9_R_10.png","img/250/equaldotsize/R/8_Ratio_250_L_1_R_4.png","img/500/randomdotsizeEA/L/13_Ratio_500_L_12_R_6.png","img/750/equaldotsize/L/10_Ratio_750_L_4_R_3.png","img/500/randomdotsizeEA/L/11_Ratio_500_L_12_R_6.png","img/900/randomdotsizeEA/R/14_Ratio_900_L_18_R_20.png","img/250/equaldotsize/R/10_Ratio_250_L_4_R_16.png","img/750/equaldotsize/R/7_Ratio_750_L_3_R_4.png","img/500/equaldotsize/R/12_Ratio_500_L_1_R_2.png","img/900/equaldotsize/R/11_Ratio_900_L_18_R_20.png","img/250/equaldotsize/L/5_Ratio_250_L_24_R_6.png","img/750/equaldotanddens/R/5_Ratio_750_L_15_R_20.png","img/500/randomdotsizeEA/R/9_Ratio_500_L_2_R_4.png","img/250/equaldotanddens/R/13_Ratio_250_L_2_R_8.png","img/250/randomdotsizeEA/R/11_Ratio_250_L_3_R_12.png","img/900/equaldotsize/L/4_Ratio_900_L_20_R_18.png","img/900/equaldotsize/R/12_Ratio_900_L_18_R_20.png","img/750/randomdotsizeEA/R/15_Ratio_750_L_9_R_12.png","img/900/equaldotanddens/R/11_Ratio_900_L_18_R_20.png","img/750/equaldotsize/R/5_Ratio_750_L_15_R_20.png","img/750/equaldotanddens/R/4_Ratio_750_L_15_R_20.png","img/750/equaldotanddens/L/13_Ratio_750_L_8_R_6.png","img/750/equaldotsize/R/7_Ratio_750_L_3_R_4.png","img/500/equaldotanddens/L/10_Ratio_500_L_4_R_2.png","img/250/equaldotanddens/L/7_Ratio_250_L_8_R_2.png","img/750/randomdotsizeEA/L/14_Ratio_750_L_8_R_6.png","img/500/randomdotsizeEA/R/15_Ratio_500_L_1_R_2.png","img/750/randomdotsizeEA/R/4_Ratio_750_L_15_R_20.png","img/750/equaldotsize/R/7_Ratio_750_L_3_R_4.png","img/500/equaldotanddens/L/10_Ratio_500_L_4_R_2.png","img/250/equaldotsize/L/14_Ratio_250_L_12_R_3.png","img/500/equaldotanddens/L/4_Ratio_500_L_18_R_9.png","img/900/randomdotsizeEA/R/13_Ratio_900_L_18_R_20.png","img/250/randomdotsizeEA/R/11_Ratio_250_L_3_R_12.png","img/750/equaldotsize/L/13_Ratio_750_L_8_R_6.png","img/900/equaldotanddens/L/2_Ratio_900_L_20_R_18.png","img/900/equaldotsize/L/10_Ratio_900_L_20_R_18.png","img/500/equaldotsize/R/2_Ratio_500_L_3_R_6.png","img/250/randomdotsizeEA/R/8_Ratio_250_L_1_R_4.png","img/250/equaldotsize/R/10_Ratio_250_L_4_R_16.png","img/500/equaldotsize/R/9_Ratio_500_L_2_R_4.png","img/750/equaldotanddens/R/2_Ratio_750_L_6_R_8.png","img/500/equaldotsize/L/7_Ratio_500_L_10_R_5.png","img/900/randomdotsizeEA/R/11_Ratio_900_L_18_R_20.png","img/750/equaldotsize/L/9_Ratio_750_L_4_R_3.png","img/250/equaldotanddens/R/10_Ratio_250_L_4_R_16.png","img/500/randomdotsizeEA/L/8_Ratio_500_L_8_R_4.png","img/900/randomdotsizeEA/R/9_Ratio_900_L_18_R_20.png","img/500/equaldotsize/L/10_Ratio_500_L_4_R_2.png","img/750/randomdotsizeEA/R/5_Ratio_750_L_15_R_20.png","img/500/randomdotsizeEA/L/7_Ratio_500_L_10_R_5.png","img/750/randomdotsizeEA/L/8_Ratio_750_L_4_R_3.png","img/750/equaldotsize/R/2_Ratio_750_L_6_R_8.png","img/250/equaldotsize/L/5_Ratio_250_L_24_R_6.png","img/250/equaldotanddens/R/11_Ratio_250_L_3_R_12.png","img/250/equaldotsize/R/10_Ratio_250_L_4_R_16.png","img/250/equaldotsize/L/3_Ratio_250_L_8_R_2.png","img/900/equaldotanddens/L/10_Ratio_900_L_20_R_18.png","img/900/randomdotsizeEA/L/10_Ratio_900_L_20_R_18.png","img/750/randomdotsizeEA/R/3_Ratio_750_L_15_R_20.png","img/500/equaldotsize/R/2_Ratio_500_L_3_R_6.png","img/250/randomdotsizeEA/R/12_Ratio_250_L_5_R_20.png","img/250/equaldotanddens/L/14_Ratio_250_L_12_R_3.png","img/900/equaldotsize/L/1_Ratio_900_L_10_R_9.png","img/500/equaldotsize/R/6_Ratio_500_L_9_R_18.png","img/500/equaldotanddens/L/10_Ratio_500_L_4_R_2.png","img/250/randomdotsizeEA/L/3_Ratio_250_L_8_R_2.png","img/750/equaldotanddens/R/2_Ratio_750_L_6_R_8.png","img/250/randomdotsizeEA/L/14_Ratio_250_L_12_R_3.png","img/900/equaldotanddens/R/12_Ratio_900_L_18_R_20.png","img/250/equaldotanddens/L/3_Ratio_250_L_8_R_2.png","img/900/equaldotanddens/R/3_Ratio_900_L_9_R_10.png","img/900/equaldotanddens/L/1_Ratio_900_L_10_R_9.png","img/900/equaldotsize/R/11_Ratio_900_L_18_R_20.png","img/500/equaldotanddens/R/12_Ratio_500_L_1_R_2.png","img/250/equaldotanddens/R/4_Ratio_250_L_3_R_12.png","img/250/randomdotsizeEA/L/3_Ratio_250_L_8_R_2.png","img/900/randomdotsizeEA/L/10_Ratio_900_L_20_R_18.png","img/900/equaldotanddens/L/2_Ratio_900_L_20_R_18.png","img/500/randomdotsizeEA/R/1_Ratio_500_L_9_R_18.png","img/750/randomdotsizeEA/R/7_Ratio_750_L_3_R_4.png","img/500/equaldotsize/R/3_Ratio_500_L_10_R_20.png","img/900/equaldotsize/R/5_Ratio_900_L_9_R_10.png","img/500/equaldotsize/L/7_Ratio_500_L_10_R_5.png","img/250/randomdotsizeEA/L/14_Ratio_250_L_12_R_3.png","img/500/equaldotanddens/R/15_Ratio_500_L_1_R_2.png","img/900/randomdotsizeEA/R/9_Ratio_900_L_18_R_20.png","img/900/equaldotanddens/L/10_Ratio_900_L_20_R_18.png","img/750/equaldotanddens/L/6_Ratio_750_L_24_R_18.png","img/500/equaldotanddens/R/15_Ratio_500_L_1_R_2.png","img/750/equaldotanddens/L/6_Ratio_750_L_24_R_18.png","img/900/equaldotanddens/R/9_Ratio_900_L_18_R_20.png","img/750/randomdotsizeEA/L/14_Ratio_750_L_8_R_6.png","img/900/equaldotsize/R/6_Ratio_900_L_9_R_10.png","img/500/equaldotanddens/R/1_Ratio_500_L_9_R_18.png"],"Rat0":[["12_Ratio_0_L_9_R_0.png","13_Ratio_0_L_6_R_0.png","5_Ratio_0_L_2_R_0.png","6_Ratio_0_L_4_R_0.png","8_Ratio_0_L_6_R_0.png"],["1_Ratio_0_L_0_R_17.png","10_Ratio_0_L_0_R_22.png","11_Ratio_0_L_0_R_1.png","14_Ratio_0_L_0_R_24.png","15_Ratio_0_L_0_R_4.png","2_Ratio_0_L_0_R_5.png","3_Ratio_0_L_0_R_17.png","4_Ratio_0_L_0_R_7.png","7_Ratio_0_L_0_R_19.png","9_Ratio_0_L_0_R_15.png"]],"Rat250":[["1_Ratio_250_L_8_R_2.png","14_Ratio_250_L_12_R_3.png","15_Ratio_250_L_12_R_3.png","2_Ratio_250_L_16_R_4.png","3_Ratio_250_L_8_R_2.png","5_Ratio_250_L_24_R_6.png","7_Ratio_250_L_8_R_2.png"],["10_Ratio_250_L_4_R_16.png","11_Ratio_250_L_3_R_12.png","12_Ratio_250_L_5_R_20.png","13_Ratio_250_L_2_R_8.png","4_Ratio_250_L_3_R_12.png","6_Ratio_250_L_6_R_24.png","8_Ratio_250_L_1_R_4.png","9_Ratio_250_L_3_R_12.png"]],"Rat500":[["10_Ratio_500_L_4_R_2.png","11_Ratio_500_L_12_R_6.png","13_Ratio_500_L_12_R_6.png","4_Ratio_500_L_18_R_9.png","5_Ratio_500_L_4_R_2.png","7_Ratio_500_L_10_R_5.png","8_Ratio_500_L_8_R_4.png"],["1_Ratio_500_L_9_R_18.png","12_Ratio_500_L_1_R_2.png","14_Ratio_500_L_5_R_10.png","15_Ratio_500_L_1_R_2.png","2_Ratio_500_L_3_R_6.png","3_Ratio_500_L_10_R_20.png","6_Ratio_500_L_9_R_18.png","9_Ratio_500_L_2_R_4.png"]],"Rat750":[["1_Ratio_750_L_20_R_15.png","10_Ratio_750_L_4_R_3.png","13_Ratio_750_L_8_R_6.png","14_Ratio_750_L_8_R_6.png","6_Ratio_750_L_24_R_18.png","8_Ratio_750_L_4_R_3.png","9_Ratio_750_L_4_R_3.png"],["11_Ratio_750_L_12_R_16.png","12_Ratio_750_L_3_R_4.png","15_Ratio_750_L_9_R_12.png","2_Ratio_750_L_6_R_8.png","3_Ratio_750_L_15_R_20.png","4_Ratio_750_L_15_R_20.png","5_Ratio_750_L_15_R_20.png","7_Ratio_750_L_3_R_4.png"]],"Rat900":[["1_Ratio_900_L_10_R_9.png","10_Ratio_900_L_20_R_18.png","2_Ratio_900_L_20_R_18.png","4_Ratio_900_L_20_R_18.png","8_Ratio_900_L_20_R_18.png"],["11_Ratio_900_L_18_R_20.png","12_Ratio_900_L_18_R_20.png","13_Ratio_900_L_18_R_20.png","14_Ratio_900_L_18_R_20.png","15_Ratio_900_L_9_R_10.png","3_Ratio_900_L_9_R_10.png","5_Ratio_900_L_9_R_10.png","6_Ratio_900_L_9_R_10.png","7_Ratio_900_L_9_R_10.png","9_Ratio_900_L_18_R_20.png"]],"Rat1000":[["10_Ratio_1000_L_16_R_16.png","11_Ratio_1000_L_6_R_6.png","12_Ratio_1000_L_14_R_14.png","13_Ratio_1000_L_20_R_20.png","15_Ratio_1000_L_15_R_15.png","2_Ratio_1000_L_17_R_17.png","4_Ratio_1000_L_9_R_9.png","5_Ratio_1000_L_6_R_6.png","6_Ratio_1000_L_19_R_19.png","8_Ratio_1000_L_14_R_14.png","9_Ratio_1000_L_25_R_25.png"],["1_Ratio_1000_L_1_R_1.png","14_Ratio_1000_L_17_R_17.png","3_Ratio_1000_L_17_R_17.png","7_Ratio_1000_L_6_R_6.png"]]}},{"start_time":1551892580897,"click_time":1551892582532,"finger_time":1551892581912,"fix_duration":464.7847144196936,"trial":1,"RT":1015,"MT":620,"sideResp":1,"stimulus":"img/250/randomdotsizeEA/L/2_Ratio_250_L_16_R_4.png","xmouse":[787,787,787,787,787,787,787,787,787,787,787,787,787,787,787,787,787,787,787,787,787,787,787,787,787,787,787,787,787,787,787,787,787,787,787,787,787,787,787,787,787,787,787,787,787,787,787,786,770,750,717,680,631,619,610,605,601,592,588,582,579,577,575,571,567,563,559,556,556,556,554,552,542,541,539,538,536,525,522,518,514,507],"ymouse":[650,650,650,650,650,650,650,650,650,650,650,650,650,650,650,650,650,650,650,650,650,650,650,650,650,650,650,650,650,650,650,650,650,650,650,650,650,650,650,650,650,650,650,650,650,650,650,646,633,619,594,563,508,486,464,443,417,388,375,362,352,346,330,316,302,289,267,242,231,220,209,195,176,168,163,159,151,125,117,108,100,92],"timestamp_mouse":[15,35,55,74,95,115,136,155,175,196,215,234,256,274,294,315,336,354,376,394,415,436,454,476,496,515,536,554,576,595,615,634,656,675,694,715,735,754,775,794,814,835,856,874,895,916,935,955,976,994,1015,1036,1055,1076,1095,1116,1134,1154,1176,1195,1216,1235,1254,1274,1294,1315,1335,1355,1375,1394,1415,1435,1454,1475,1495,1515,1534,1554,1574,1595,1616,1635],"xSR":741.5,"ySR":573.95,"xT1":424.9,"yT1":0,"xT2":1058.1,"yT2":0,"toosoon":0,"cond_shown":"randomdotsizeEA","ratio_trial":250,"smaller_num":"4","larger_num":"16","correct_side":1,"subjID":"julianadiazpadilla7","gender":"1","age":"11","school":"6"},{"start_time":1551892584056,"click_time":1551892585053,"finger_time":1551892584692,"fix_duration":560.6973424640339,"trial":2,"RT":636,"MT":361,"sideResp":2,"stimulus":"img/250/equaldotanddens/R/11_Ratio_250_L_3_R_12.png","xmouse":[772,772,772,772,772,772,772,772,772,772,772,772,772,772,772,772,772,772,772,772,772,772,772,772,772,772,772,772,774,806,834,867,901,928,961,973,991,1007,1023,1063,1076,1085,1093,1101,1117,1126,1132,1137,1138,1130],"ymouse":[654,654,654,654,654,654,654,654,654,654,654,654,654,654,654,654,654,654,654,654,654,654,654,654,654,654,654,654,652,635,619,599,574,544,470,441,413,389,365,308,290,273,255,240,209,192,176,161,142,97],"timestamp_mouse":[33,36,55,76,97,116,135,157,175,196,217,236,256,277,295,317,336,355,376,397,416,436,456,476,495,517,536,556,576,596,615,636,655,676,697,716,737,755,777,796,816,836,855,876,897,915,936,956,977,997],"xSR":741.5,"ySR":573.95,"xT1":424.9,"yT1":0,"xT2":1058.1,"yT2":0,"toosoon":0,"cond_shown":"equaldotanddens","ratio_trial":250,"smaller_num":"3","larger_num":"12","correct_side":2,"subjID":"julianadiazpadilla7","gender":"1","age":"11","school":"6"},{"start_time":1551892586695,"click_time":1551892588172,"finger_time":1551892587512,"fix_duration":841.8187419531596,"trial":3,"RT":817,"MT":660,"sideResp":2,"stimulus":"img/900/equaldotsize/R/12_Ratio_900_L_18_R_20.png","xmouse":[776,776,776,776,776,776,776,776,776,776,776,776,776,776,776,776,776,776,776,776,776,776,776,776,776,777,778,778,778,778,778,778,778,778,778,778,777,770,767,762,753,741,714,704,699,698,698,699,713,741,785,847,992,1052,1084,1112,1132,1161,1173,1188,1203,1212,1220,1220,1220,1220,1220,1197,1184,1170,1153,1142,1133,1133],"ymouse":[625,625,626,626,626,626,626,626,626,626,626,626,626,626,626,626,626,626,626,626,626,626,626,626,628,631,633,633,633,633,633,633,633,633,633,633,628,608,598,583,563,543,507,496,491,490,490,488,484,480,473,464,440,425,411,398,383,340,323,306,294,283,257,248,238,230,220,185,169,153,134,119,102,99],"timestamp_mouse":[17,36,57,78,97,117,138,158,178,196,216,236,258,277,297,318,337,356,376,398,417,436,457,478,497,516,538,557,577,597,618,637,656,676,698,716,737,757,777,796,817,837,857,877,896,917,937,957,977,997,1016,1038,1058,1077,1096,1117,1137,1157,1177,1196,1217,1237,1257,1277,1296,1317,1337,1357,1376,1396,1417,1437,1456,1477],"xSR":741.5,"ySR":573.95,"xT1":424.9,"yT1":0,"xT2":1058.1,"yT2":0,"toosoon":0,"cond_shown":"equaldotsize","ratio_trial":900,"smaller_num":"18","larger_num":"20","correct_side":2,"subjID":"julianadiazpadilla7","gender":"1","age":"11","school":"6"},{"start_time":1551892589184,"click_time":1551892590171,"finger_time":1551892589932,"fix_duration":250,"trial":4,"RT":748,"MT":239,"sideResp":1,"stimulus":"img/900/randomdotsizeEA/R/12_Ratio_900_L_18_R_20.png","xmouse":[793,793,793,793,793,793,793,793,793,793,793,793,793,793,793,793,793,793,793,793,793,793,793,793,793,793,793,793,793,793,793,793,793,793,791,782,773,759,719,692,661,629,595,553,543,526,507,490,476,473],"ymouse":[623,623,623,623,623,623,623,623,623,623,623,623,623,623,623,623,623,623,623,623,623,623,623,623,623,623,623,623,623,623,623,623,623,623,621,608,584,528,392,337,293,260,233,199,188,170,151,133,103,91],"timestamp_mouse":[9,33,47,68,88,109,127,148,169,188,209,228,247,269,288,308,327,348,368,388,408,429,449,468,488,509,529,548,568,587,608,629,648,667,688,708,727,748,769,788,808,827,848,868,888,908,928,948,967,987],"xSR":741.5,"ySR":573.95,"xT1":424.9,"yT1":0,"xT2":1058.1,"yT2":0,"toosoon":0,"cond_shown":"randomdotsizeEA","ratio_trial":900,"smaller_num":"18","larger_num":"20","correct_side":2,"subjID":"julianadiazpadilla7","gender":"1","age":"11","school":"6"},{"start_time":1551892591145,"click_time":1551892592933,"finger_time":1551892592353,"fix_duration":250,"trial":5,"RT":1208,"MT":580,"sideResp":2,"stimulus":"img/750/randomdotsizeEA/R/12_Ratio_750_L_3_R_4.png","xmouse":[775,775,775,775,775,775,775,775,775,775,775,775,775,775,775,775,775,775,775,775,775,775,775,775,775,775,775,775,775,775,775,775,775,775,775,775,775,775,775,775,775,775,775,775,775,775,775,775,775,775,775,775,775,775,775,775,775,775,780,800,869,910,951,984,1023,1106,1128,1145,1154,1161,1173,1182,1194,1212,1236,1242,1243,1243,1243,1243,1241,1241,1240,1239,1232,1210,1195,1178,1161,1145],"ymouse":[607,609,610,611,611,611,611,611,611,611,611,611,611,611,611,611,611,611,611,611,611,611,611,611,611,611,611,611,611,611,611,611,611,611,611,611,611,611,611,611,611,611,611,611,611,611,611,611,611,611,611,611,611,611,611,611,611,612,609,602,584,573,562,546,526,476,460,445,429,411,362,312,240,170,87,57,41,26,13,5,0,0,0,0,7,23,31,37,43,46],"timestamp_mouse":[7,35,47,68,88,106,127,147,167,188,206,227,246,268,287,307,327,347,368,387,406,427,447,467,487,508,527,547,567,587,608,626,647,667,686,708,727,746,767,787,807,827,848,866,887,906,927,948,967,987,1008,1026,1046,1068,1086,1106,1126,1148,1167,1187,1208,1227,1246,1268,1288,1308,1327,1346,1367,1388,1408,1426,1446,1467,1488,1506,1527,1547,1568,1587,1607,1627,1647,1667,1688,1707,1727,1746,1766,1787],"xSR":741.5,"ySR":573.95,"xT1":424.9,"yT1":0,"xT2":1058.1,"yT2":0,"toosoon":0,"cond_shown":"randomdotsizeEA","ratio_trial":750,"smaller_num":"3","larger_num":"4","correct_side":2,"subjID":"julianadiazpadilla7","gender":"1","age":"11","school":"6"},{"start_time":1551892595461,"click_time":1551892596633,"finger_time":1551892596072,"fix_duration":1448.6776887515168,"trial":6,"RT":611,"MT":561,"sideResp":2,"stimulus":"img/250/equaldotanddens/R/10_Ratio_250_L_4_R_16.png","xmouse":[804,804,804,804,804,804,804,804,804,804,804,804,804,804,804,804,804,804,804,804,804,804,804,804,804,804,804,804,804,827,866,890,909,920,942,962,983,1009,1018,1058,1073,1087,1100,1117,1145,1154,1161,1167,1168,1168,1167,1166,1165,1164,1164,1164,1164,1162,1154],"ymouse":[606,606,606,606,606,606,606,606,606,606,606,606,606,606,606,606,606,606,606,606,606,606,606,606,606,606,606,606,606,592,570,556,543,532,500,474,442,399,386,311,285,260,236,207,160,139,121,99,93,61,49,43,39,38,38,38,38,38,44],"timestamp_mouse":[11,42,51,72,92,111,131,150,170,190,211,230,251,271,292,311,330,352,371,390,412,431,451,471,490,510,531,550,572,591,611,630,651,671,692,712,730,750,772,791,810,830,851,872,891,912,930,952,972,991,1012,1031,1052,1071,1091,1111,1131,1151,1172],"xSR":741.5,"ySR":573.95,"xT1":424.9,"yT1":0,"xT2":1058.1,"yT2":0,"toosoon":0,"cond_shown":"equaldotanddens","ratio_trial":250,"smaller_num":"4","larger_num":"16","correct_side":2,"subjID":"julianadiazpadilla7","gender":"1","age":"11","school":"6"},{"start_time":1551892598312,"click_time":1551892599292,"finger_time":1551892598972,"fix_duration":858.0269325208716,"trial":7,"RT":660,"MT":320,"sideResp":2,"stimulus":"img/500/equaldotanddens/R/9_Ratio_500_L_2_R_4.png","xmouse":[790,790,790,790,790,790,790,790,790,790,791,793,795,795,795,795,795,795,795,795,795,795,795,795,795,795,795,795,795,796,797,799,823,843,862,877,898,933,956,972,989,1009,1051,1066,1079,1089,1102,1113,1118,1122],"ymouse":[606,606,606,606,606,606,606,606,606,606,607,606,604,604,604,604,604,604,604,604,604,604,604,604,604,604,604,604,604,603,603,601,579,563,547,533,510,463,436,418,395,361,276,236,214,190,161,128,109,88],"timestamp_mouse":[1,19,39,60,80,99,119,141,159,180,200,221,239,260,280,300,321,341,359,380,400,420,439,460,480,500,520,540,560,580,600,619,639,660,680,700,720,739,761,780,801,820,840,859,879,900,919,939,961,980],"xSR":741.5,"ySR":573.95,"xT1":424.9,"yT1":0,"xT2":1058.1,"yT2":0,"toosoon":0,"cond_shown":"equaldotanddens","ratio_trial":500,"smaller_num":"2","larger_num":"4","correct_side":2,"subjID":"julianadiazpadilla7","gender":"1","age":"11","school":"6"},{"start_time":1551892602603,"click_time":1551892603452,"finger_time":1551892602992,"fix_duration":250,"trial":8,"RT":389,"MT":460,"sideResp":1,"stimulus":"img/900/equaldotanddens/L/8_Ratio_900_L_20_R_18.png","xmouse":[795,795,795,795,797,798,799,799,799,799,799,799,799,799,799,799,800,801,798,787,770,747,710,704,698,693,686,658,632,606,580,559,556,556,556,556,556,556,556,553,545,530,505],"ymouse":[620,620,620,620,619,618,617,617,617,617,617,617,617,617,617,617,617,597,575,546,508,464,400,385,370,352,330,272,236,206,176,150,141,140,138,136,133,122,116,105,91,75,53],"timestamp_mouse":[10,33,49,69,90,109,129,149,168,189,208,230,248,269,288,309,329,350,369,389,408,429,449,469,488,509,529,548,569,588,609,630,649,669,688,708,730,749,769,789,810,829,848],"xSR":741.5,"ySR":573.95,"xT1":424.9,"yT1":0,"xT2":1058.1,"yT2":0,"toosoon":0,"cond_shown":"equaldotanddens","ratio_trial":900,"smaller_num":"18","larger_num":"20","correct_side":1,"subjID":"julianadiazpadilla7","gender":"1","age":"11","school":"6"},{"start_time":1551892605221,"click_time":1551892606852,"finger_time":1551892605872,"fix_duration":867.7971110184457,"trial":9,"RT":651,"MT":980,"sideResp":2,"stimulus":"img/500/randomdotsizeEA/R/14_Ratio_500_L_5_R_10.png","xmouse":[767,767,767,767,767,767,767,767,767,767,767,767,767,767,767,767,767,767,767,767,767,767,767,767,767,767,767,767,767,767,767,768,761,751,738,719,687,675,661,649,641,624,614,602,586,564,532,526,525,525,525,560,609,686,772,867,1046,1104,1138,1156,1164,1167,1167,1167,1167,1167,1167,1167,1159,1125,1109,1056,1051,1047,1045,1045,1045,1046,1048,1050,1054,1059],"ymouse":[625,625,625,625,625,625,625,625,625,625,625,625,625,625,625,625,625,625,625,625,625,625,625,625,625,625,625,625,625,625,625,605,571,538,501,460,398,376,356,340,328,292,269,243,217,190,162,158,158,158,158,199,231,272,309,336,355,355,343,333,316,289,277,266,250,236,206,193,182,158,149,110,102,97,92,90,88,87,85,84,82,81],"timestamp_mouse":[14,32,50,72,91,110,130,150,171,191,211,231,252,272,291,312,331,352,371,391,411,431,450,470,491,511,531,551,571,592,611,630,651,671,690,712,730,751,771,792,811,830,852,871,891,911,931,951,972,992,1011,1030,1050,1071,1092,1111,1132,1150,1171,1191,1211,1231,1250,1271,1292,1311,1332,1351,1370,1391,1412,1431,1450,1471,1491,1511,1531,1550,1572,1591,1611,1630],"xSR":741.5,"ySR":573.95,"xT1":424.9,"yT1":0,"xT2":1058.1,"yT2":0,"toosoon":0,"cond_shown":"randomdotsizeEA","ratio_trial":500,"smaller_num":"5","larger_num":"10","correct_side":2,"subjID":"julianadiazpadilla7","gender":"1","age":"11","school":"6"},{"start_time":1551892608880,"click_time":1551892611032,"finger_time":1551892608933,"fix_duration":1327.6749379190278,"trial":10,"RT":53,"MT":2099,"sideResp":2,"stimulus":"img/900/randomdotsizeEA/R/11_Ratio_900_L_18_R_20.png","xmouse":[817,828,845,858,858,861,866,871,874,874,874,874,874,874,874,874,874,874,898,930,959,973,982,984,984,984,984,984,984,984,983,980,972,957,929,894,872,858,845,835,827,825,825,825,817,812,803,785,754,743,735,732,730,729,729,729,729,730,733,733,733,733,733,733,736,741,749,755,770,783,801,829,877,995,1065,1156,1248,1308,1398,1450,1498,1520,1564,1574,1560,1538,1505,1480,1429,1410,1389,1366,1342,1301,1283,1268,1260,1258,1240,1224,1216,1214,1213,1210,1202,1187,1170,1149],"ymouse":[654,648,639,633,633,627,618,609,599,598,598,598,598,598,598,598,598,598,595,586,582,581,581,581,581,581,581,581,581,581,583,584,586,589,594,598,598,598,599,599,599,599,599,599,593,588,580,573,570,573,579,584,585,586,586,586,586,587,587,587,587,587,587,587,594,603,611,613,609,599,582,562,534,487,465,433,392,347,175,97,36,13,0,0,0,0,0,0,0,0,0,3,6,9,9,7,5,5,12,23,31,35,37,42,49,62,75,91],"timestamp_mouse":[13,31,53,71,91,111,132,153,172,191,211,233,252,271,291,311,332,353,372,391,412,433,452,471,491,513,531,552,573,592,612,633,653,672,692,711,732,753,771,793,813,831,853,873,893,911,932,952,971,992,1012,1033,1052,1071,1093,1112,1133,1152,1171,1192,1213,1231,1252,1272,1292,1312,1333,1352,1372,1392,1413,1432,1452,1472,1492,1511,1532,1552,1572,1592,1612,1633,1653,1672,1693,1713,1733,1753,1772,1791,1812,1833,1852,1872,1892,1911,1932,1952,1971,1992,2013,2032,2053,2072,2092,2112,2132,2152],"xSR":741.5,"ySR":573.95,"xT1":424.9,"yT1":0,"xT2":1058.1,"yT2":0,"toosoon":0,"cond_shown":"randomdotsizeEA","ratio_trial":900,"smaller_num":"18","larger_num":"20","correct_side":2,"subjID":"julianadiazpadilla7","gender":"1","age":"11","school":"6"},{"start_time":1551892612407,"click_time":1551892613392,"finger_time":1551892613032,"fix_duration":534.6533379272977,"trial":11,"RT":625,"MT":360,"sideResp":1,"stimulus":"img/250/randomdotsizeEA/L/15_Ratio_250_L_12_R_3.png","xmouse":[799,799,798,797,797,797,797,797,797,797,797,797,797,797,797,797,797,797,797,797,797,797,797,797,797,797,797,797,798,800,800,786,753,743,740,739,739,741,748,760,776,798,813,813,795,766,719,603,550,497],"ymouse":[612,612,612,612,612,612,612,612,612,612,612,612,612,612,612,612,612,612,612,612,612,612,612,612,612,612,612,612,610,607,591,542,484,470,462,459,458,453,441,424,403,370,322,296,257,220,177,100,71,43],"timestamp_mouse":[15,24,45,64,85,104,126,145,165,184,204,224,245,264,284,304,326,344,366,385,404,425,444,466,484,504,526,545,564,586,605,625,644,665,685,705,725,745,765,784,805,825,844,866,884,905,925,944,964,985],"xSR":741.5,"ySR":573.95,"xT1":424.9,"yT1":0,"xT2":1058.1,"yT2":0,"toosoon":0,"cond_shown":"randomdotsizeEA","ratio_trial":250,"smaller_num":"3","larger_num":"12","correct_side":1,"subjID":"julianadiazpadilla7","gender":"1","age":"11","school":"6"},{"start_time":1551892616981,"click_time":1551892618571,"finger_time":1551892617952,"fix_duration":647.4617016276079,"trial":12,"RT":971,"MT":619,"sideResp":1,"stimulus":"img/500/randomdotsizeEA/L/11_Ratio_500_L_12_R_6.png","xmouse":[782,782,782,782,782,782,782,782,782,782,782,782,782,782,782,782,782,782,782,782,782,782,782,782,782,782,782,782,782,782,782,782,782,782,782,782,782,782,782,782,782,782,780,759,755,755,755,753,734,717,700,689,686,668,659,653,653,664,696,711,720,724,723,695,663,627,611,609,607,604,604,604,604,599,593,585,577,563,527,508],"ymouse":[638,638,638,638,638,638,638,638,638,638,638,638,638,638,638,638,638,638,638,638,638,638,638,638,638,638,638,638,638,638,638,638,638,638,638,638,638,638,638,638,638,638,637,621,617,616,616,616,616,615,611,599,577,454,396,355,328,310,271,246,216,173,126,91,88,88,88,88,86,84,84,84,84,84,84,79,72,61,46,45],"timestamp_mouse":[12,35,51,71,91,110,130,151,170,190,211,231,250,272,290,312,331,352,371,391,411,432,451,471,491,510,532,550,571,592,611,631,650,670,690,711,731,750,771,791,812,831,851,871,890,911,931,951,971,990,1011,1032,1050,1070,1091,1112,1131,1152,1172,1192,1212,1232,1252,1271,1291,1311,1330,1351,1371,1391,1411,1432,1451,1471,1491,1510,1531,1551,1572,1590],"xSR":741.5,"ySR":573.95,"xT1":424.9,"yT1":0,"xT2":1058.1,"yT2":0,"toosoon":0,"cond_shown":"randomdotsizeEA","ratio_trial":500,"smaller_num":"6","larger_num":"12","correct_side":1,"subjID":"julianadiazpadilla7","gender":"1","age":"11","school":"6"},{"start_time":1551892620387,"click_time":1551892621452,"finger_time":1551892621151,"fix_duration":1193.5191453485932,"trial":13,"RT":764,"MT":301,"sideResp":1,"stimulus":"img/500/randomdotsizeEA/L/4_Ratio_500_L_18_R_9.png","xmouse":[804,804,804,804,804,804,804,804,804,804,804,804,804,804,804,804,804,804,804,804,804,804,804,804,804,804,804,804,804,804,804,804,804,804,804,804,802,795,733,695,667,646,633,631,631,631,631,631,626,619,609,591,558,501],"ymouse":[637,637,637,637,637,637,637,637,637,637,637,637,637,637,637,637,637,637,637,637,637,637,637,637,637,637,637,637,637,637,637,637,637,637,637,637,637,629,517,445,366,277,178,101,68,39,8,0,0,0,0,0,0,14],"timestamp_mouse":[10,32,46,65,85,106,124,144,165,185,206,225,245,265,285,305,325,345,364,386,406,424,445,466,484,505,525,544,566,585,605,624,645,665,684,705,724,745,764,785,805,825,845,864,885,905,926,945,965,985,1004,1024,1044,1065],"xSR":741.5,"ySR":573.95,"xT1":424.9,"yT1":0,"xT2":1058.1,"yT2":0,"toosoon":0,"cond_shown":"randomdotsizeEA","ratio_trial":500,"smaller_num":"9","larger_num":"18","correct_side":1,"subjID":"julianadiazpadilla7","gender":"1","age":"11","school":"6"},{"start_time":1551892627696,"click_time":1551892629191,"finger_time":1551892628652,"fix_duration":763.1999600396788,"trial":14,"RT":956,"MT":539,"sideResp":2,"stimulus":"img/750/equaldotsize/R/3_Ratio_750_L_15_R_20.png","xmouse":[754,754,754,754,754,754,754,754,754,754,754,754,754,754,754,754,754,754,754,754,754,754,754,754,754,754,754,754,754,754,754,754,754,754,754,754,754,754,754,754,754,754,754,754,754,759,777,856,931,1012,1086,1134,1208,1232,1243,1245,1245,1245,1243,1239,1236,1234,1229,1223,1219,1213,1205,1197,1196,1196,1191,1183,1170,1159,1146],"ymouse":[626,626,626,626,626,626,626,626,626,626,626,626,626,626,626,626,626,626,626,626,626,626,626,626,626,626,626,626,626,626,626,626,626,626,626,626,626,626,626,626,626,626,626,626,626,628,628,587,538,469,402,341,234,200,186,181,181,173,159,141,123,107,87,80,77,73,68,33,30,29,32,43,57,58,58],"timestamp_mouse":[16,37,56,75,96,116,135,155,176,196,216,235,256,276,297,316,337,355,377,396,416,435,456,476,496,516,535,556,576,596,616,635,655,676,695,717,736,755,775,796,816,836,856,875,895,917,937,956,976,996,1015,1036,1056,1076,1095,1117,1137,1156,1176,1196,1217,1236,1257,1275,1296,1315,1336,1356,1377,1397,1416,1436,1457,1476,1495],"xSR":741.5,"ySR":573.95,"xT1":424.9,"yT1":0,"xT2":1058.1,"yT2":0,"toosoon":0,"cond_shown":"equaldotsize","ratio_trial":750,"smaller_num":"15","larger_num":"20","correct_side":2,"subjID":"julianadiazpadilla7","gender":"1","age":"11","school":"6"},{"start_time":1551892630817,"click_time":1551892631751,"finger_time":1551892631552,"fix_duration":382.3233333539798,"trial":15,"RT":735,"MT":199,"sideResp":1,"stimulus":"img/900/equaldotsize/L/8_Ratio_900_L_20_R_18.png","xmouse":[782,782,782,782,783,783,784,784,784,784,784,784,784,784,784,784,785,786,786,787,787,787,787,787,787,787,787,787,787,787,787,787,787,787,787,787,771,761,749,729,708,655,635,607,565,514,428],"ymouse":[591,591,591,593,595,596,598,598,598,598,598,598,598,598,598,598,599,599,599,599,599,599,599,599,599,599,599,599,599,599,599,599,599,599,595,585,543,519,490,456,423,322,278,232,181,141,94],"timestamp_mouse":[16,36,55,75,94,115,135,155,174,195,216,235,255,276,294,316,336,355,375,395,414,434,454,475,495,516,535,554,575,595,616,634,656,676,695,716,735,754,774,794,816,835,855,875,896,915,934],"xSR":741.5,"ySR":573.95,"xT1":424.9,"yT1":0,"xT2":1058.1,"yT2":0,"toosoon":0,"cond_shown":"equaldotsize","ratio_trial":900,"smaller_num":"18","larger_num":"20","correct_side":1,"subjID":"julianadiazpadilla7","gender":"1","age":"11","school":"6"},{"start_time":1551892634363,"click_time":1551892635552,"finger_time":1551892635132,"fix_duration":250,"trial":16,"RT":769,"MT":420,"sideResp":2,"stimulus":"img/500/equaldotsize/R/6_Ratio_500_L_9_R_18.png","xmouse":[828,828,828,828,828,828,828,828,828,828,828,828,828,828,828,828,828,828,828,828,828,828,828,828,828,828,828,828,828,828,828,828,828,828,828,828,828,839,850,925,962,982,987,987,988,991,991,988,982,970,970,970,972,978,1003,1013,1023,1033,1044,1064],"ymouse":[658,658,658,658,658,658,658,658,658,658,658,658,658,658,658,658,658,658,658,658,658,658,658,658,658,658,658,658,658,658,658,658,658,658,658,658,658,648,638,550,479,396,321,244,184,163,146,129,114,85,78,75,74,74,84,87,89,89,89,83],"timestamp_mouse":[10,37,49,70,89,108,129,148,170,190,208,228,250,270,288,308,328,349,369,389,408,429,449,468,489,508,530,548,568,589,608,630,650,669,688,710,728,750,769,789,809,828,849,870,889,909,929,948,970,989,1009,1029,1049,1069,1089,1109,1129,1148,1168,1189],"xSR":741.5,"ySR":573.95,"xT1":424.9,"yT1":0,"xT2":1058.1,"yT2":0,"toosoon":0,"cond_shown":"equaldotsize","ratio_trial":500,"smaller_num":"9","larger_num":"18","correct_side":2,"subjID":"julianadiazpadilla7","gender":"1","age":"11","school":"6"},{"start_time":1551892639331,"click_time":1551892640891,"finger_time":1551892640032,"fix_duration":759.6865721640607,"trial":17,"RT":701,"MT":859,"sideResp":1,"stimulus":"img/750/equaldotsize/L/9_Ratio_750_L_4_R_3.png","xmouse":[786,786,786,789,790,790,790,790,790,790,790,790,790,790,789,789,789,789,788,788,787,787,787,787,787,787,787,787,787,787,787,786,783,771,746,671,595,569,552,544,538,528,528,528,528,528,528,528,528,524,512,478,490,506,519,542,649,673,685,690,692,687,676,671,668,659,629,611,604,579,565,552,551,550,546,540,528,525,523],"ymouse":[665,665,659,650,646,645,643,643,643,643,643,643,643,642,642,642,642,641,636,634,633,632,632,632,632,632,632,632,632,632,631,626,619,611,602,586,576,573,571,569,567,560,560,560,560,560,560,560,560,562,579,699,712,715,715,689,503,439,393,349,308,218,177,148,120,91,35,15,7,0,0,0,0,0,3,12,34,41,47],"timestamp_mouse":[10,31,41,60,80,101,120,140,162,180,200,220,240,261,281,300,320,341,360,381,401,420,440,460,481,500,520,540,561,580,600,621,640,660,681,701,720,740,760,780,801,820,840,861,880,900,920,940,961,981,1002,1020,1041,1062,1081,1100,1121,1141,1160,1180,1201,1220,1240,1260,1280,1302,1320,1340,1360,1380,1400,1420,1440,1461,1481,1500,1520,1540,1560],"xSR":741.5,"ySR":573.95,"xT1":424.9,"yT1":0,"xT2":1058.1,"yT2":0,"toosoon":0,"cond_shown":"equaldotsize","ratio_trial":750,"smaller_num":"3","larger_num":"4","correct_side":1,"subjID":"julianadiazpadilla7","gender":"1","age":"11","school":"6"},{"start_time":1551892643124,"click_time":1551892644551,"finger_time":1551892643933,"fix_duration":1171.4719444102054,"trial":18,"RT":809,"MT":618,"sideResp":2,"stimulus":"img/750/equaldotanddens/R/11_Ratio_750_L_12_R_16.png","xmouse":[784,784,784,784,784,784,784,784,784,784,784,784,784,784,784,784,784,784,784,784,784,784,784,784,784,784,784,784,784,784,784,784,784,784,784,784,788,798,814,829,842,865,880,894,912,917,923,929,935,941,946,947,949,953,958,966,976,980,988,994,1001,1012,1016,1020,1023,1027,1038,1043,1045,1048,1053,1060],"ymouse":[635,635,635,635,635,635,635,635,635,635,635,635,635,635,635,635,635,635,635,635,635,635,635,635,635,635,635,635,635,635,635,635,635,635,635,635,631,616,596,574,550,496,469,444,400,373,318,291,267,241,215,177,162,148,138,128,118,113,104,97,89,82,80,79,76,73,62,57,54,51,49,45],"timestamp_mouse":[10,42,48,67,88,107,128,147,167,187,208,228,247,267,288,307,328,348,369,387,407,427,448,468,488,508,528,547,568,587,608,628,649,668,687,707,727,747,767,788,809,828,847,867,887,909,928,948,967,987,1008,1027,1047,1067,1088,1109,1127,1148,1167,1188,1207,1227,1249,1269,1287,1307,1327,1348,1368,1389,1408,1427],"xSR":741.5,"ySR":573.95,"xT1":424.9,"yT1":0,"xT2":1058.1,"yT2":0,"toosoon":0,"cond_shown":"equaldotanddens","ratio_trial":750,"smaller_num":"12","larger_num":"16","correct_side":2,"subjID":"julianadiazpadilla7","gender":"1","age":"11","school":"6"},{"start_time":1551892646749,"click_time":1551892647393,"finger_time":1551892647212,"fix_duration":1134.060982679055,"trial":19,"RT":463,"MT":181,"sideResp":1,"stimulus":"img/250/equaldotsize/L/15_Ratio_250_L_12_R_3.png","xmouse":[808,808,808,808,808,808,808,808,808,808,808,808,808,808,808,808,808,809,809,809,803,799,793,781,768,714,675,628,578,541,505,495,484],"ymouse":[616,616,616,616,616,616,616,616,616,616,616,616,616,616,616,616,616,616,613,609,595,588,579,558,535,439,370,292,221,172,119,103,84],"timestamp_mouse":[10,32,42,62,82,103,123,143,163,183,203,223,243,263,283,302,322,342,362,384,402,423,442,463,482,502,522,543,563,583,602,622,643],"xSR":741.5,"ySR":573.95,"xT1":424.9,"yT1":0,"xT2":1058.1,"yT2":0,"toosoon":0,"cond_shown":"equaldotsize","ratio_trial":250,"smaller_num":"3","larger_num":"12","correct_side":1,"subjID":"julianadiazpadilla7","gender":"1","age":"11","school":"6"},{"start_time":1551892649047,"click_time":1551892649892,"finger_time":1551892649492,"fix_duration":734.7204352315953,"trial":20,"RT":445,"MT":400,"sideResp":1,"stimulus":"img/750/equaldotanddens/L/13_Ratio_750_L_8_R_6.png","xmouse":[813,813,813,812,811,811,811,811,811,811,811,811,811,811,811,811,811,811,811,811,801,771,723,668,618,523,488,453,420,384,362,359,357,357,357,364,368,374,380,395,407,417,434],"ymouse":[625,625,625,627,627,627,627,627,627,627,627,627,627,627,627,627,627,627,627,627,620,586,543,494,441,322,268,216,167,117,75,60,46,31,18,5,1,0,0,0,4,9,16],"timestamp_mouse":[10,35,46,65,85,105,124,144,164,185,204,224,245,264,284,304,324,344,365,384,405,424,445,464,485,505,525,544,565,585,604,625,644,665,684,705,725,745,764,784,804,824,845],"xSR":741.5,"ySR":573.95,"xT1":424.9,"yT1":0,"xT2":1058.1,"yT2":0,"toosoon":0,"cond_shown":"equaldotanddens","ratio_trial":750,"smaller_num":"6","larger_num":"8","correct_side":1,"subjID":"julianadiazpadilla7","gender":"1","age":"11","school":"6"},{"start_time":1551892651543,"click_time":1551892652412,"finger_time":1551892652031,"fix_duration":849.1655895576815,"trial":21,"RT":488,"MT":381,"sideResp":2,"stimulus":"img/250/equaldotsize/R/9_Ratio_250_L_3_R_12.png","xmouse":[775,775,775,775,775,775,775,775,775,775,775,775,775,775,775,775,775,775,775,775,778,783,791,812,861,907,927,943,961,975,982,985,986,988,991,998,1003,1008,1015,1023,1040,1046,1052,1060],"ymouse":[615,615,615,615,615,615,615,614,614,614,614,614,614,614,614,614,614,614,614,614,610,607,599,588,560,515,476,424,364,315,259,243,230,219,202,177,162,146,132,118,95,87,79,69],"timestamp_mouse":[8,34,49,70,89,109,130,149,168,188,208,228,248,268,289,309,329,348,369,388,408,428,448,468,488,508,528,549,568,588,608,629,648,668,688,708,728,748,769,789,808,829,849,868],"xSR":741.5,"ySR":573.95,"xT1":424.9,"yT1":0,"xT2":1058.1,"yT2":0,"toosoon":0,"cond_shown":"equaldotsize","ratio_trial":250,"smaller_num":"3","larger_num":"12","correct_side":2,"subjID":"julianadiazpadilla7","gender":"1","age":"11","school":"6"},{"start_time":1551892654034,"click_time":1551892654772,"finger_time":1551892654451,"fix_duration":1000.1425048477879,"trial":22,"RT":417,"MT":321,"sideResp":2,"stimulus":"img/500/equaldotanddens/R/1_Ratio_500_L_9_R_18.png","xmouse":[800,800,797,796,796,796,796,796,796,796,796,796,796,796,796,796,804,810,821,825,841,849,858,870,882,918,944,977,1008,1029,1058,1065,1071,1074,1078,1085,1093],"ymouse":[634,634,637,638,638,638,638,638,638,638,638,638,638,638,638,638,623,612,583,576,531,508,486,459,430,359,316,267,225,192,148,135,124,118,113,100,88],"timestamp_mouse":[33,37,57,78,98,117,138,157,177,197,219,237,257,278,297,317,338,358,378,398,417,437,457,478,498,518,538,558,577,597,618,638,657,678,698,717,737],"xSR":741.5,"ySR":573.95,"xT1":424.9,"yT1":0,"xT2":1058.1,"yT2":0,"toosoon":0,"cond_shown":"equaldotanddens","ratio_trial":500,"smaller_num":"9","larger_num":"18","correct_side":2,"subjID":"julianadiazpadilla7","gender":"1","age":"11","school":"6"},{"start_time":1551892656141,"click_time":1551892657052,"finger_time":1551892656711,"fix_duration":688.9772972468216,"trial":23,"RT":570,"MT":341,"sideResp":1,"stimulus":"img/750/equaldotanddens/L/14_Ratio_750_L_8_R_6.png","xmouse":[771,771,771,771,771,771,771,771,771,771,771,771,771,771,771,773,777,778,780,782,783,783,783,783,783,781,779,773,765,753,695,643,585,535,478,433,424,418,417,417,417,418,420,422,424,427],"ymouse":[638,638,638,638,638,638,638,638,638,638,638,638,638,638,637,634,625,620,615,612,607,606,604,603,601,598,594,585,570,549,468,402,332,273,205,145,128,115,109,104,96,93,89,85,83,79],"timestamp_mouse":[11,39,51,70,90,112,130,150,170,190,210,231,250,270,291,311,330,350,370,391,410,430,450,470,491,510,531,551,570,590,610,630,652,670,691,710,730,750,771,791,810,830,850,871,890,910],"xSR":741.5,"ySR":573.95,"xT1":424.9,"yT1":0,"xT2":1058.1,"yT2":0,"toosoon":0,"cond_shown":"equaldotanddens","ratio_trial":750,"smaller_num":"6","larger_num":"8","correct_side":1,"subjID":"julianadiazpadilla7","gender":"1","age":"11","school":"6"},{"start_time":1551892658103,"click_time":1551892658951,"finger_time":1551892658571,"fix_duration":250,"trial":24,"RT":468,"MT":380,"sideResp":1,"stimulus":"img/250/equaldotanddens/L/2_Ratio_250_L_16_R_4.png","xmouse":[776,776,776,776,776,776,776,776,776,776,776,776,776,777,778,779,779,779,779,779,779,779,767,755,739,699,682,577,542,527,522,520,516,514,514,514,514,514,514,514,511,509,499],"ymouse":[653,653,653,653,653,653,653,653,653,653,653,653,653,652,651,651,633,617,614,611,608,603,575,549,516,449,422,276,236,208,195,185,166,156,147,139,126,117,115,112,109,104,93],"timestamp_mouse":[10,33,48,69,89,109,128,150,169,189,208,229,248,268,288,308,328,349,370,389,408,429,448,468,489,508,528,548,569,589,608,628,648,668,688,709,728,748,769,788,809,829,848],"xSR":741.5,"ySR":573.95,"xT1":424.9,"yT1":0,"xT2":1058.1,"yT2":0,"toosoon":0,"cond_shown":"equaldotanddens","ratio_trial":250,"smaller_num":"4","larger_num":"16","correct_side":1,"subjID":"julianadiazpadilla7","gender":"1","age":"11","school":"6"},{"start_time":1551892661112,"click_time":1551892662151,"finger_time":1551892661751,"fix_duration":1358.4729810443248,"trial":25,"RT":639,"MT":400,"sideResp":2,"stimulus":"img/900/randomdotsizeEA/R/15_Ratio_900_L_9_R_10.png","xmouse":[782,782,782,782,782,782,782,782,782,782,782,782,782,782,782,782,782,782,782,782,782,782,782,782,782,782,782,783,788,798,806,817,837,847,856,864,881,909,923,934,943,951,974,985,992,1000,1013,1037,1046,1053,1060,1067,1079],"ymouse":[644,644,644,644,644,644,644,644,644,644,644,644,644,644,644,644,644,644,644,644,644,644,644,644,644,644,644,644,639,627,615,600,568,547,525,496,436,355,322,293,269,247,211,195,182,168,149,129,124,120,116,110,96],"timestamp_mouse":[1,20,40,60,80,99,119,140,159,180,200,219,240,259,279,300,319,339,360,380,400,419,440,461,479,499,519,539,559,579,599,619,639,660,679,699,721,739,760,779,800,819,840,860,880,899,921,941,959,979,999,1019,1039],"xSR":741.5,"ySR":573.95,"xT1":424.9,"yT1":0,"xT2":1058.1,"yT2":0,"toosoon":0,"cond_shown":"randomdotsizeEA","ratio_trial":900,"smaller_num":"9","larger_num":"10","correct_side":2,"subjID":"julianadiazpadilla7","gender":"1","age":"11","school":"6"},{"start_time":1551892664001,"click_time":1551892665272,"finger_time":1551892664631,"fix_duration":1048.1635268109671,"trial":26,"RT":630,"MT":641,"sideResp":2,"stimulus":"img/250/equaldotsize/R/8_Ratio_250_L_1_R_4.png","xmouse":[754,754,754,754,754,754,754,754,754,754,754,754,754,754,754,754,754,754,755,755,755,756,757,759,759,760,760,781,795,806,816,822,825,826,826,826,826,826,826,826,826,826,827,829,837,845,854,877,885,895,909,938,980,998,1018,1038,1054,1073,1083,1092,1101,1114,1127,1130],"ymouse":[618,618,618,618,618,618,617,617,617,617,617,617,617,617,617,617,617,617,616,616,616,615,614,613,612,612,611,596,585,580,574,570,567,567,566,566,566,566,566,566,566,566,566,564,556,549,542,521,510,495,475,426,363,337,309,279,254,212,191,170,154,134,106,95],"timestamp_mouse":[10,34,50,70,91,111,130,151,170,191,210,231,250,271,290,311,330,350,371,390,410,431,450,470,491,510,530,550,570,591,610,630,650,671,690,711,730,750,772,790,810,831,851,870,890,911,930,950,970,991,1010,1031,1051,1070,1090,1110,1131,1150,1171,1191,1210,1231,1250,1271],"xSR":741.5,"ySR":573.95,"xT1":424.9,"yT1":0,"xT2":1058.1,"yT2":0,"toosoon":0,"cond_shown":"equaldotsize","ratio_trial":250,"smaller_num":"1","larger_num":"4","correct_side":2,"subjID":"julianadiazpadilla7","gender":"1","age":"11","school":"6"},{"start_time":1551892670500,"click_time":1551892671891,"finger_time":1551892671511,"fix_duration":927.2748706626944,"trial":27,"RT":1011,"MT":380,"sideResp":1,"stimulus":"img/500/randomdotsizeEA/L/13_Ratio_500_L_12_R_6.png","xmouse":[765,765,765,765,765,765,765,765,765,765,765,765,765,765,765,765,765,765,765,765,765,765,765,765,765,765,765,765,765,765,765,765,765,765,765,765,765,765,765,765,765,765,765,765,765,765,761,755,755,754,769,783,788,788,784,778,767,703,671,648,632,620,610,603,589,575,565,543,532,520],"ymouse":[636,636,636,636,636,636,636,636,636,636,636,636,636,636,636,636,636,636,636,636,636,636,636,636,636,636,636,636,636,636,636,636,636,636,636,636,636,636,636,636,636,636,636,636,636,636,636,634,634,626,572,500,384,359,339,321,305,254,234,221,208,198,191,190,190,187,181,147,122,98],"timestamp_mouse":[11,31,52,72,91,112,132,151,171,191,213,231,253,271,291,312,331,352,371,391,412,431,451,472,491,512,531,552,572,591,611,631,653,671,692,712,732,751,773,791,811,831,852,871,892,911,931,952,972,991,1011,1031,1052,1071,1091,1111,1132,1152,1172,1191,1211,1232,1251,1273,1291,1312,1331,1351,1372,1391],"xSR":741.5,"ySR":573.95,"xT1":424.9,"yT1":0,"xT2":1058.1,"yT2":0,"toosoon":0,"cond_shown":"randomdotsizeEA","ratio_trial":500,"smaller_num":"6","larger_num":"12","correct_side":1,"subjID":"julianadiazpadilla7","gender":"1","age":"11","school":"6"},{"start_time":1551892674137,"click_time":1551892675871,"finger_time":1551892675192,"fix_duration":1104.709245814503,"trial":28,"RT":1055,"MT":679,"sideResp":1,"stimulus":"img/750/equaldotsize/L/10_Ratio_750_L_4_R_3.png","xmouse":[778,778,778,778,778,778,778,778,778,778,778,778,778,778,778,778,778,778,778,778,778,778,778,778,778,778,778,778,778,778,778,778,778,778,778,778,778,778,778,778,778,778,778,778,778,778,778,778,778,778,780,797,848,901,939,950,944,942,938,935,925,915,901,881,835,800,777,757,738,707,694,684,679,678,678,676,670,661,655,649,636,625,611,594,578,525,496],"ymouse":[617,617,617,617,617,617,617,617,617,617,617,617,617,617,617,617,617,617,617,617,617,617,617,617,617,617,617,617,617,617,617,617,617,617,617,617,617,617,617,617,617,617,617,617,617,617,617,617,617,617,612,594,533,442,360,260,247,239,233,228,215,206,194,181,160,152,149,145,145,145,145,145,145,145,145,145,143,139,134,128,112,102,93,86,78,57,45],"timestamp_mouse":[14,34,55,74,94,114,134,154,174,194,214,234,256,274,294,315,334,354,374,395,415,435,454,474,494,515,534,554,574,594,614,635,654,674,695,714,735,754,775,795,816,834,854,875,894,915,935,954,974,995,1015,1035,1055,1074,1094,1115,1134,1154,1175,1195,1215,1234,1255,1275,1296,1314,1334,1354,1375,1395,1414,1435,1454,1475,1494,1515,1534,1554,1575,1594,1614,1634,1655,1675,1695,1714,1734],"xSR":741.5,"ySR":573.95,"xT1":424.9,"yT1":0,"xT2":1058.1,"yT2":0,"toosoon":0,"cond_shown":"equaldotsize","ratio_trial":750,"smaller_num":"3","larger_num":"4","correct_side":1,"subjID":"julianadiazpadilla7","gender":"1","age":"11","school":"6"},{"start_time":1551892677328,"click_time":1551892678651,"finger_time":1551892678292,"fix_duration":414.4373045650297,"trial":29,"RT":964,"MT":359,"sideResp":1,"stimulus":"img/500/randomdotsizeEA/L/11_Ratio_500_L_12_R_6.png","xmouse":[777,777,777,777,777,777,777,777,777,777,777,777,777,777,777,777,777,777,777,777,777,777,777,777,777,777,777,777,777,777,777,777,777,777,777,777,777,777,777,777,777,777,777,777,777,777,776,778,778,747,681,498,432,395,378,366,336,325,316,312,312,313,316,325,330,359,437],"ymouse":[609,609,609,609,609,609,609,609,609,609,609,609,609,609,609,609,609,609,609,609,609,609,609,609,609,609,609,609,609,609,609,609,609,609,609,609,609,609,609,609,609,609,609,609,609,609,609,596,571,515,425,227,152,100,71,52,9,0,0,0,0,0,0,0,0,11,43],"timestamp_mouse":[10,35,43,63,84,103,123,143,165,183,203,223,243,263,283,303,324,343,363,383,403,423,445,464,483,503,524,543,564,584,603,623,643,664,684,703,723,744,763,784,803,823,843,863,885,904,923,944,964,983,1004,1023,1043,1063,1085,1103,1123,1144,1163,1184,1204,1224,1243,1263,1283,1303,1323],"xSR":741.5,"ySR":573.95,"xT1":424.9,"yT1":0,"xT2":1058.1,"yT2":0,"toosoon":0,"cond_shown":"randomdotsizeEA","ratio_trial":500,"smaller_num":"6","larger_num":"12","correct_side":1,"subjID":"julianadiazpadilla7","gender":"1","age":"11","school":"6"},{"start_time":1551892680045,"click_time":1551892680952,"finger_time":1551892680752,"fix_duration":332.6881101529171,"trial":30,"RT":707,"MT":200,"sideResp":2,"stimulus":"img/900/randomdotsizeEA/R/14_Ratio_900_L_18_R_20.png","xmouse":[813,813,813,813,813,813,811,810,809,808,807,807,806,805,805,805,805,805,806,807,812,814,815,815,815,815,815,815,815,815,815,815,815,812,811,812,819,827,843,869,965,991,1018,1042,1079,1157],"ymouse":[619,619,619,619,619,619,618,617,617,617,616,616,616,616,616,616,616,616,615,614,610,609,608,607,607,607,607,607,607,607,607,607,601,596,591,570,551,530,504,461,351,326,292,258,206,89],"timestamp_mouse":[12,27,50,67,87,106,126,146,166,187,208,226,247,266,286,306,326,346,366,386,406,426,446,467,487,506,526,546,566,587,606,627,647,666,687,707,727,747,766,787,806,826,846,867,886,907],"xSR":741.5,"ySR":573.95,"xT1":424.9,"yT1":0,"xT2":1058.1,"yT2":0,"toosoon":0,"cond_shown":"randomdotsizeEA","ratio_trial":900,"smaller_num":"18","larger_num":"20","correct_side":2,"subjID":"julianadiazpadilla7","gender":"1","age":"11","school":"6"},{"start_time":1551892682100,"click_time":1551892683452,"finger_time":1551892682832,"fix_duration":305.4124636503798,"trial":31,"RT":732,"MT":620,"sideResp":2,"stimulus":"img/250/equaldotsize/R/10_Ratio_250_L_4_R_16.png","xmouse":[810,810,810,810,810,810,810,810,810,810,810,810,810,810,810,810,810,810,810,810,810,810,810,810,810,810,810,810,810,810,810,810,810,810,810,839,902,976,979,979,979,979,979,983,994,1043,1116,1170,1194,1215,1235,1256,1288,1296,1300,1301,1299,1276,1265,1257,1252,1244,1209,1191,1177,1166,1160,1158],"ymouse":[619,619,619,619,619,619,619,619,619,619,619,619,619,619,619,619,619,619,619,619,619,619,619,619,619,619,619,619,619,619,619,619,619,619,619,629,651,675,677,677,677,677,677,677,673,640,582,495,424,348,273,204,95,65,35,0,0,0,0,0,0,2,25,36,43,47,48,48],"timestamp_mouse":[12,31,51,71,91,112,131,153,171,191,211,231,251,271,291,311,331,351,371,391,411,431,453,471,493,512,531,551,571,592,611,633,652,671,691,711,732,751,772,791,811,831,852,872,892,911,931,951,972,991,1012,1031,1051,1071,1093,1112,1132,1151,1171,1192,1212,1231,1251,1271,1291,1313,1331,1352],"xSR":741.5,"ySR":573.95,"xT1":424.9,"yT1":0,"xT2":1058.1,"yT2":0,"toosoon":0,"cond_shown":"equaldotsize","ratio_trial":250,"smaller_num":"4","larger_num":"16","correct_side":2,"subjID":"julianadiazpadilla7","gender":"1","age":"11","school":"6"},{"start_time":1551892685287,"click_time":1551892686332,"finger_time":1551892685952,"fix_duration":1133.4181672770808,"trial":32,"RT":665,"MT":380,"sideResp":2,"stimulus":"img/750/equaldotsize/R/7_Ratio_750_L_3_R_4.png","xmouse":[767,767,767,767,767,767,767,767,767,767,767,767,767,767,767,767,767,767,767,767,767,767,767,767,767,767,767,767,767,767,767,767,786,1006,1156,1272,1344,1386,1387,1387,1387,1383,1377,1353,1336,1330,1329,1325,1302,1281,1247,1187,1101],"ymouse":[644,644,644,644,644,644,644,644,644,644,644,644,644,644,644,644,644,644,644,644,644,644,644,644,644,644,644,644,644,644,644,644,637,503,420,359,307,242,199,189,179,167,152,115,93,86,84,82,81,81,82,82,82],"timestamp_mouse":[9,33,45,64,84,105,124,144,166,184,204,224,244,264,285,304,326,344,364,384,404,425,444,464,484,505,526,544,565,585,606,624,645,665,684,705,725,744,764,785,804,824,845,864,885,906,924,945,964,984,1004,1024,1045],"xSR":741.5,"ySR":573.95,"xT1":424.9,"yT1":0,"xT2":1058.1,"yT2":0,"toosoon":0,"cond_shown":"equaldotsize","ratio_trial":750,"smaller_num":"3","larger_num":"4","correct_side":2,"subjID":"julianadiazpadilla7","gender":"1","age":"11","school":"6"},{"start_time":1551892688080,"click_time":1551892689393,"finger_time":1551892688651,"fix_duration":667.0644017805273,"trial":33,"RT":571,"MT":742,"sideResp":2,"stimulus":"img/500/equaldotsize/R/12_Ratio_500_L_1_R_2.png","xmouse":[781,781,781,781,781,781,781,781,781,781,781,781,781,781,781,781,781,781,781,781,781,781,781,781,781,781,784,789,806,811,815,819,824,833,836,838,845,854,889,907,924,938,950,974,988,1004,1022,1046,1052,1052,1052,1052,1052,1052,1052,1052,1052,1052,1052,1052,1053,1053,1053,1053,1058,1065],"ymouse":[627,627,627,627,627,627,627,627,627,627,627,627,627,627,627,627,627,627,627,627,627,627,627,627,622,614,598,580,531,514,500,486,469,436,426,413,383,355,265,222,195,175,159,124,107,91,71,42,27,27,27,27,27,27,27,27,29,44,80,92,98,98,98,98,97,89],"timestamp_mouse":[11,34,52,71,91,112,131,151,171,191,211,231,252,271,292,312,331,351,371,392,411,431,452,471,492,512,533,552,571,592,611,631,652,672,691,711,731,752,771,791,811,831,851,872,892,911,931,952,972,991,1011,1031,1052,1073,1092,1111,1132,1151,1171,1192,1211,1232,1251,1271,1292,1313],"xSR":741.5,"ySR":573.95,"xT1":424.9,"yT1":0,"xT2":1058.1,"yT2":0,"toosoon":0,"cond_shown":"equaldotsize","ratio_trial":500,"smaller_num":"1","larger_num":"2","correct_side":2,"subjID":"julianadiazpadilla7","gender":"1","age":"11","school":"6"},{"start_time":1551892690995,"click_time":1551892692533,"finger_time":1551892691831,"fix_duration":842.5834622327811,"trial":34,"RT":836,"MT":702,"sideResp":1,"stimulus":"img/900/equaldotsize/R/11_Ratio_900_L_18_R_20.png","xmouse":[804,804,804,804,804,804,804,804,804,804,804,804,804,804,804,804,804,804,804,804,804,804,804,804,804,804,804,804,804,804,804,804,804,804,804,804,804,804,804,801,784,769,703,691,684,678,671,660,656,652,649,647,634,629,623,619,618,618,616,615,615,613,599,591,583,576,564,546,541,529,504,495,464,456,452,448,443],"ymouse":[641,641,641,641,641,641,641,641,641,641,641,641,641,641,641,641,641,641,641,641,641,641,641,641,641,641,641,641,641,641,641,641,641,641,641,641,641,641,641,632,577,541,376,331,294,263,244,225,214,207,205,204,198,196,193,193,192,191,191,190,190,189,182,176,171,165,155,143,140,134,125,122,109,105,103,100,96],"timestamp_mouse":[17,38,57,76,97,116,137,156,176,197,216,237,256,277,297,317,337,358,376,396,417,438,456,477,496,516,536,556,576,596,616,636,656,676,696,716,736,757,777,796,816,836,856,876,896,916,937,957,977,996,1016,1036,1056,1076,1096,1116,1137,1156,1177,1196,1216,1236,1256,1277,1296,1317,1337,1356,1376,1397,1417,1438,1456,1477,1496,1517,1538],"xSR":741.5,"ySR":573.95,"xT1":424.9,"yT1":0,"xT2":1058.1,"yT2":0,"toosoon":0,"cond_shown":"equaldotsize","ratio_trial":900,"smaller_num":"18","larger_num":"20","correct_side":2,"subjID":"julianadiazpadilla7","gender":"1","age":"11","school":"6"},{"start_time":1551892694479,"click_time":1551892695672,"finger_time":1551892695171,"fix_duration":926.0783270709176,"trial":35,"RT":692,"MT":501,"sideResp":1,"stimulus":"img/250/equaldotsize/L/5_Ratio_250_L_24_R_6.png","xmouse":[806,806,806,806,806,806,806,806,806,806,806,806,806,806,806,806,806,806,806,806,806,806,806,806,806,806,806,806,806,806,806,806,806,802,788,767,749,723,679,669,666,660,652,616,572,529,510,505,505,505,505,503,501,496,496,496,496,495,489,485],"ymouse":[609,609,609,609,609,609,609,609,609,609,609,609,609,609,609,609,609,609,609,609,609,609,609,609,609,609,609,609,609,610,610,610,610,591,537,471,409,326,247,234,231,225,215,184,151,127,117,114,114,114,114,114,114,114,114,113,113,111,101,97],"timestamp_mouse":[12,34,52,72,92,112,132,152,172,192,212,232,254,274,292,312,332,354,372,393,414,432,452,474,492,513,532,552,573,592,612,632,653,672,692,714,733,752,772,792,812,833,852,872,892,913,932,952,973,993,1012,1033,1053,1072,1092,1113,1133,1152,1172,1193],"xSR":741.5,"ySR":573.95,"xT1":424.9,"yT1":0,"xT2":1058.1,"yT2":0,"toosoon":0,"cond_shown":"equaldotsize","ratio_trial":250,"smaller_num":"6","larger_num":"24","correct_side":1,"subjID":"julianadiazpadilla7","gender":"1","age":"11","school":"6"},{"start_time":1551892698008,"click_time":1551892699031,"finger_time":1551892698613,"fix_duration":1012.5372538302777,"trial":36,"RT":605,"MT":418,"sideResp":2,"stimulus":"img/750/equaldotanddens/R/5_Ratio_750_L_15_R_20.png","xmouse":[771,771,771,771,771,771,771,771,771,771,771,771,771,771,771,771,771,771,771,771,771,771,771,771,771,771,771,771,785,804,852,917,991,1033,1072,1107,1136,1172,1184,1191,1196,1200,1201,1201,1201,1201,1201,1201,1198,1190,1176,1151],"ymouse":[605,605,605,605,605,605,605,605,605,605,605,605,605,605,605,605,605,605,605,605,605,605,605,605,605,605,605,605,603,592,565,522,464,430,391,346,298,200,156,124,98,53,8,0,0,0,0,0,0,8,17,34],"timestamp_mouse":[9,23,43,64,83,104,123,143,164,184,203,223,244,263,283,303,324,343,364,384,405,424,444,463,484,504,523,543,564,584,605,623,643,663,683,703,724,743,763,784,803,824,844,864,884,903,923,944,963,983,1003,1023],"xSR":741.5,"ySR":573.95,"xT1":424.9,"yT1":0,"xT2":1058.1,"yT2":0,"toosoon":0,"cond_shown":"equaldotanddens","ratio_trial":750,"smaller_num":"15","larger_num":"20","correct_side":2,"subjID":"julianadiazpadilla7","gender":"1","age":"11","school":"6"},{"start_time":1551892700614,"click_time":1551892701852,"finger_time":1551892701333,"fix_duration":520.9601667036252,"trial":37,"RT":719,"MT":519,"sideResp":2,"stimulus":"img/500/randomdotsizeEA/R/9_Ratio_500_L_2_R_4.png","xmouse":[801,801,799,797,796,794,794,794,794,794,794,794,794,794,793,793,791,791,791,791,791,791,791,791,791,789,782,772,763,759,755,752,751,749,745,738,715,704,701,701,701,720,738,758,779,815,918,989,1060,1131,1186,1223,1223,1220,1217,1210,1189,1178,1175,1174,1167,1135],"ymouse":[621,624,626,628,629,631,631,631,631,631,631,631,631,631,631,631,630,630,630,630,631,632,633,633,633,633,629,623,617,612,606,600,597,594,590,585,574,570,568,568,568,568,567,563,551,526,414,331,250,178,119,32,7,0,0,0,0,0,0,0,5,50],"timestamp_mouse":[17,39,58,78,98,117,138,157,177,197,218,239,257,277,298,318,337,358,377,397,418,437,457,477,497,517,537,557,578,598,618,637,658,677,697,719,738,757,778,798,817,837,857,877,897,917,937,958,978,997,1017,1037,1057,1077,1098,1118,1138,1158,1178,1198,1217,1237],"xSR":741.5,"ySR":573.95,"xT1":424.9,"yT1":0,"xT2":1058.1,"yT2":0,"toosoon":0,"cond_shown":"randomdotsizeEA","ratio_trial":500,"smaller_num":"2","larger_num":"4","correct_side":2,"subjID":"julianadiazpadilla7","gender":"1","age":"11","school":"6"},{"start_time":1551892703119,"click_time":1551892704152,"finger_time":1551892703651,"fix_duration":386.68508118699043,"trial":38,"RT":532,"MT":501,"sideResp":2,"stimulus":"img/250/equaldotanddens/R/13_Ratio_250_L_2_R_8.png","xmouse":[801,801,801,801,801,801,801,801,801,801,801,801,801,801,801,801,801,801,801,801,801,801,801,801,802,812,880,936,1002,1064,1118,1187,1206,1215,1218,1218,1213,1209,1203,1194,1186,1181,1181,1181,1181,1181,1180,1175,1171,1167,1162,1155],"ymouse":[642,642,642,642,642,642,642,642,642,642,642,642,642,642,642,642,642,642,642,642,642,642,642,642,639,631,577,530,464,396,327,203,153,117,102,96,89,82,71,62,53,49,49,49,49,49,49,49,49,49,49,49],"timestamp_mouse":[13,33,52,73,92,114,132,152,172,192,213,232,253,272,293,312,332,352,373,392,412,433,453,473,492,512,532,552,573,593,613,632,653,672,693,713,732,752,772,792,812,832,853,873,893,912,932,952,972,993,1012,1033],"xSR":741.5,"ySR":573.95,"xT1":424.9,"yT1":0,"xT2":1058.1,"yT2":0,"toosoon":0,"cond_shown":"equaldotanddens","ratio_trial":250,"smaller_num":"2","larger_num":"8","correct_side":2,"subjID":"julianadiazpadilla7","gender":"1","age":"11","school":"6"},{"start_time":1551892705543,"click_time":1551892706812,"finger_time":1551892706171,"fix_duration":250,"trial":39,"RT":628,"MT":641,"sideResp":2,"stimulus":"img/250/randomdotsizeEA/R/11_Ratio_250_L_3_R_12.png","xmouse":[782,781,781,781,781,781,781,781,781,781,781,781,781,781,781,781,781,780,779,778,777,777,777,777,777,777,777,777,777,782,794,804,817,841,875,893,911,925,941,967,975,979,982,982,980,980,980,981,986,991,994,998,1002,1006,1011,1012,1017,1022,1029,1044,1051,1054,1060],"ymouse":[593,593,593,593,593,593,593,593,593,593,593,593,593,593,593,593,593,595,595,596,596,596,596,596,596,596,596,596,596,585,564,542,513,475,431,405,382,360,339,292,270,246,221,205,176,164,155,147,140,132,127,122,115,107,98,94,87,78,70,59,57,55,53],"timestamp_mouse":[28,48,69,88,109,130,148,168,188,209,229,248,268,288,308,329,349,368,389,408,428,448,469,489,508,528,548,568,589,609,628,649,668,689,708,728,749,770,789,808,829,849,868,890,908,928,948,968,988,1008,1028,1048,1069,1088,1108,1128,1148,1168,1189,1208,1229,1248,1268],"xSR":741.5,"ySR":573.95,"xT1":424.9,"yT1":0,"xT2":1058.1,"yT2":0,"toosoon":0,"cond_shown":"randomdotsizeEA","ratio_trial":250,"smaller_num":"3","larger_num":"12","correct_side":2,"subjID":"julianadiazpadilla7","gender":"1","age":"11","school":"6"},{"start_time":1551892709182,"click_time":1551892710392,"finger_time":1551892709851,"fix_duration":1129.8060748807718,"trial":40,"RT":669,"MT":541,"sideResp":1,"stimulus":"img/900/equaldotsize/L/4_Ratio_900_L_20_R_18.png","xmouse":[782,782,782,782,782,782,782,782,782,782,782,782,782,782,782,782,782,782,782,782,782,782,782,782,782,782,782,782,782,782,782,778,773,726,695,673,651,637,597,571,539,511,493,479,479,479,479,479,479,479,479,479,479,475,472,468,464,463,463,462,467],"ymouse":[637,637,637,637,637,637,637,637,637,637,637,637,637,637,637,637,637,637,637,637,637,637,637,637,637,637,637,637,637,637,637,630,622,576,553,534,518,508,484,464,440,407,371,291,261,235,198,124,0,0,0,0,0,0,0,0,0,0,0,0,19],"timestamp_mouse":[10,35,50,70,89,109,129,150,170,189,209,230,250,269,289,310,329,349,371,389,409,429,449,471,490,509,531,549,569,590,611,629,650,669,690,709,730,749,769,789,809,829,849,869,889,909,930,949,970,989,1010,1029,1049,1069,1090,1109,1129,1150,1169,1189,1210],"xSR":741.5,"ySR":573.95,"xT1":424.9,"yT1":0,"xT2":1058.1,"yT2":0,"toosoon":0,"cond_shown":"equaldotsize","ratio_trial":900,"smaller_num":"18","larger_num":"20","correct_side":1,"subjID":"julianadiazpadilla7","gender":"1","age":"11","school":"6"},{"start_time":1551892713160,"click_time":1551892716411,"finger_time":1551892714451,"fix_duration":687.880877468771,"trial":41,"RT":1291,"MT":1960,"sideResp":2,"stimulus":"img/900/equaldotsize/R/12_Ratio_900_L_18_R_20.png","xmouse":[768,768,768,768,768,768,768,768,768,768,768,768,768,768,768,768,768,768,768,768,768,768,768,768,768,768,768,768,768,768,768,768,768,768,768,768,768,768,768,768,768,768,768,768,768,768,768,768,768,768,768,768,774,785,795,795,795,795,795,795,795,795,796,800,819,832,841,845,845,845,845,847,852,859,863,863,863,865,878,920,937,950,959,965,965,961,956,950,944,932,929,928,928,928,928,928,929,936,953,1012,1047,1085,1112,1122,1122,1122,1122,1122,1122,1122,1122,1122,1124,1135,1163,1168,1150,1103,1058,1044,1044,1044,1044,1044,1044,1044,1044,1044,1044,1044,1044,1044,1044,1044,1044,1044,1043,1042,1042,1042,1042,1042,1042,1042,1042,1056,1077,1104,1139,1195,1221,1239,1254,1263,1264,1256,1244,1229,1214,1188,1179,1168,1156],"ymouse":[618,618,618,618,618,618,618,618,618,618,618,618,618,618,618,618,618,618,618,618,618,618,618,618,618,618,618,618,618,618,618,618,618,618,618,618,618,618,618,618,618,618,618,618,618,618,618,618,618,618,618,618,616,612,604,604,604,604,604,604,604,604,602,594,563,549,540,532,523,499,480,462,443,426,403,401,401,398,394,373,362,347,332,314,282,270,260,247,231,201,195,194,194,194,194,194,191,189,185,184,184,186,193,199,200,201,201,201,201,201,203,205,217,252,343,410,509,619,734,785,785,785,785,785,785,785,785,785,785,785,785,785,785,785,785,785,785,785,785,785,785,785,785,785,779,745,703,644,585,448,377,311,260,207,164,142,121,103,90,81,81,81,81],"timestamp_mouse":[14,34,51,72,93,112,132,153,171,192,211,231,252,271,291,312,332,351,372,391,411,432,452,472,491,511,531,552,571,591,611,631,652,672,693,711,731,751,771,791,811,831,851,873,893,912,932,951,971,992,1011,1031,1053,1072,1091,1113,1132,1151,1171,1192,1212,1231,1251,1271,1291,1313,1332,1352,1373,1392,1411,1432,1451,1472,1491,1512,1532,1551,1571,1591,1611,1632,1651,1671,1691,1712,1731,1751,1771,1791,1812,1832,1851,1873,1891,1911,1931,1951,1972,1993,2012,2032,2051,2071,2093,2112,2132,2152,2172,2192,2211,2232,2252,2271,2291,2312,2331,2352,2371,2392,2412,2431,2451,2471,2491,2511,2531,2551,2571,2591,2611,2631,2651,2672,2691,2712,2731,2752,2772,2791,2811,2831,2851,2873,2892,2912,2931,2952,2971,2992,3012,3032,3052,3071,3092,3112,3131,3152,3172,3192,3212,3231,3251],"xSR":741.5,"ySR":573.95,"xT1":424.9,"yT1":0,"xT2":1058.1,"yT2":0,"toosoon":0,"cond_shown":"equaldotsize","ratio_trial":900,"smaller_num":"18","larger_num":"20","correct_side":2,"subjID":"julianadiazpadilla7","gender":"1","age":"11","school":"6"},{"start_time":1551892718687,"click_time":1551892720612,"finger_time":1551892719312,"fix_duration":1394.8042309860998,"trial":42,"RT":625,"MT":1300,"sideResp":2,"stimulus":"img/750/randomdotsizeEA/R/15_Ratio_750_L_9_R_12.png","xmouse":[783,783,783,783,783,783,783,783,783,783,783,783,783,783,783,783,783,783,783,783,783,783,783,783,783,783,783,783,783,783,776,763,721,649,614,590,567,528,482,458,435,407,385,351,345,342,342,342,342,342,342,342,344,354,358,361,371,384,388,389,389,391,393,399,400,402,403,408,414,415,415,415,415,423,435,453,480,522,652,702,752,802,843,897,908,917,927,932,945,952,957,963,971,996,1015,1039,1062],"ymouse":[599,599,599,599,599,599,599,599,599,599,599,599,599,599,599,599,599,599,599,599,599,599,599,599,599,599,599,599,599,599,592,567,519,465,446,432,417,372,290,231,173,120,78,28,13,6,2,2,2,2,1,1,1,3,5,8,15,24,27,28,28,32,34,38,38,39,41,46,63,72,81,92,108,148,173,197,222,242,278,286,290,292,292,271,256,238,199,177,135,118,106,100,96,92,92,92,88],"timestamp_mouse":[10,33,44,64,86,105,124,145,164,184,205,224,245,265,285,304,324,344,364,384,404,426,445,464,484,504,525,544,564,584,606,625,645,665,684,706,724,744,764,784,805,824,846,865,885,904,925,944,964,985,1005,1025,1044,1065,1084,1105,1124,1144,1164,1185,1204,1225,1244,1265,1285,1304,1325,1345,1364,1385,1405,1425,1445,1465,1485,1505,1524,1544,1565,1584,1605,1624,1645,1664,1684,1704,1724,1744,1764,1785,1804,1825,1844,1864,1884,1905,1925],"xSR":741.5,"ySR":573.95,"xT1":424.9,"yT1":0,"xT2":1058.1,"yT2":0,"toosoon":0,"cond_shown":"randomdotsizeEA","ratio_trial":750,"smaller_num":"9","larger_num":"12","correct_side":2,"subjID":"julianadiazpadilla7","gender":"1","age":"11","school":"6"},{"start_time":1551892722839,"click_time":1551892724151,"finger_time":1551892723752,"fix_duration":1467.2152481774076,"trial":43,"RT":913,"MT":399,"sideResp":1,"stimulus":"img/900/equaldotanddens/R/11_Ratio_900_L_18_R_20.png","xmouse":[785,785,785,785,785,785,785,785,785,785,785,785,785,785,785,785,785,785,785,785,785,785,785,785,785,785,785,785,785,785,785,785,785,785,785,785,785,785,785,785,785,785,785,785,781,731,709,698,687,673,659,651,642,628,610,578,563,549,534,512,496,490,486,484,481,479],"ymouse":[608,608,608,608,608,608,608,608,608,608,608,608,608,608,608,608,608,608,608,608,608,608,608,608,608,608,608,608,608,608,608,608,608,608,608,608,608,608,608,608,608,608,608,607,591,499,453,415,376,328,284,266,250,232,213,188,178,167,157,143,127,120,113,110,105,98],"timestamp_mouse":[12,32,52,72,92,114,132,152,172,193,212,232,252,272,292,312,332,352,373,392,413,433,453,473,492,514,532,552,573,593,612,633,653,672,693,712,733,753,772,793,812,833,854,872,893,913,932,952,973,993,1012,1033,1052,1073,1092,1112,1132,1152,1173,1193,1212,1232,1252,1273,1293,1312],"xSR":741.5,"ySR":573.95,"xT1":424.9,"yT1":0,"xT2":1058.1,"yT2":0,"toosoon":0,"cond_shown":"equaldotanddens","ratio_trial":900,"smaller_num":"18","larger_num":"20","correct_side":2,"subjID":"julianadiazpadilla7","gender":"1","age":"11","school":"6"},{"start_time":1551892725803,"click_time":1551892727091,"finger_time":1551892726672,"fix_duration":929.8615233517347,"trial":44,"RT":869,"MT":419,"sideResp":2,"stimulus":"img/750/equaldotsize/R/5_Ratio_750_L_15_R_20.png","xmouse":[816,816,816,816,816,816,816,816,816,816,816,816,816,816,816,816,816,816,816,816,816,816,816,816,816,816,816,816,816,816,816,816,816,816,816,816,816,816,816,816,819,822,833,842,850,856,862,872,883,895,907,922,944,955,968,982,1004,1064,1084,1097,1102,1106,1114,1119,1124],"ymouse":[644,644,644,644,644,644,644,644,644,644,644,644,644,644,644,644,644,644,644,644,644,644,644,644,644,644,644,644,644,644,644,644,644,644,644,644,644,644,644,644,643,639,626,609,592,573,547,467,431,394,371,345,312,291,269,245,216,157,142,135,132,129,116,103,89],"timestamp_mouse":[9,34,48,69,89,108,128,148,168,188,208,228,248,269,288,309,328,349,368,389,408,428,448,469,488,508,528,548,569,588,608,629,648,668,688,709,729,748,769,788,808,828,848,869,888,909,928,948,968,989,1008,1029,1048,1069,1088,1109,1128,1149,1169,1189,1209,1230,1248,1269,1288],"xSR":741.5,"ySR":573.95,"xT1":424.9,"yT1":0,"xT2":1058.1,"yT2":0,"toosoon":0,"cond_shown":"equaldotsize","ratio_trial":750,"smaller_num":"15","larger_num":"20","correct_side":2,"subjID":"julianadiazpadilla7","gender":"1","age":"11","school":"6"},{"start_time":1551892728489,"click_time":1551892729451,"finger_time":1551892729151,"fix_duration":556.1884452304246,"trial":45,"RT":662,"MT":300,"sideResp":2,"stimulus":"img/750/equaldotanddens/R/4_Ratio_750_L_15_R_20.png","xmouse":[795,795,795,795,795,795,797,798,801,802,802,802,802,802,802,802,802,802,802,802,802,802,802,802,802,802,802,802,802,802,810,818,832,876,902,924,937,946,956,958,963,967,971,987,999,1009,1030,1036,1061],"ymouse":[613,613,613,613,613,613,613,613,611,610,610,610,610,610,610,610,610,610,610,610,610,610,610,610,610,610,610,610,610,610,602,593,578,506,444,393,354,319,236,216,200,188,177,150,135,122,108,105,94],"timestamp_mouse":[10,31,42,64,82,102,122,143,162,182,202,222,242,263,282,302,323,343,364,382,402,423,442,462,484,503,522,543,563,582,602,623,643,662,682,703,723,743,762,783,803,822,843,862,882,903,923,943,962],"xSR":741.5,"ySR":573.95,"xT1":424.9,"yT1":0,"xT2":1058.1,"yT2":0,"toosoon":0,"cond_shown":"equaldotanddens","ratio_trial":750,"smaller_num":"15","larger_num":"20","correct_side":2,"subjID":"julianadiazpadilla7","gender":"1","age":"11","school":"6"},{"start_time":1551892732992,"click_time":1551892734051,"finger_time":1551892733611,"fix_duration":1319.8994303922761,"trial":46,"RT":619,"MT":440,"sideResp":1,"stimulus":"img/750/equaldotanddens/L/13_Ratio_750_L_8_R_6.png","xmouse":[795,795,795,795,795,795,795,795,795,795,795,795,795,795,795,795,795,795,795,795,795,795,795,795,795,795,795,795,795,789,778,761,734,687,676,667,657,643,616,600,584,575,570,566,564,561,559,559,557,551,543,528,507,497],"ymouse":[622,622,622,622,622,622,622,622,622,622,622,622,622,622,622,622,622,622,622,622,622,622,622,622,622,622,622,622,622,608,591,570,542,495,479,462,439,411,318,287,266,254,245,224,214,204,198,194,183,170,152,130,102,84],"timestamp_mouse":[4,23,39,60,80,100,121,139,159,180,200,220,240,259,280,300,321,340,359,380,399,421,439,460,481,499,520,540,561,579,600,619,639,659,679,699,719,739,760,779,799,820,839,861,880,900,919,939,959,979,1000,1020,1039,1059],"xSR":741.5,"ySR":573.95,"xT1":424.9,"yT1":0,"xT2":1058.1,"yT2":0,"toosoon":0,"cond_shown":"equaldotanddens","ratio_trial":750,"smaller_num":"6","larger_num":"8","correct_side":1,"subjID":"julianadiazpadilla7","gender":"1","age":"11","school":"6"},{"start_time":1551892735285,"click_time":1551892736472,"finger_time":1551892736011,"fix_duration":250,"trial":47,"RT":726,"MT":461,"sideResp":2,"stimulus":"img/750/equaldotsize/R/7_Ratio_750_L_3_R_4.png","xmouse":[783,783,783,783,783,783,783,783,783,783,783,783,783,783,783,783,783,783,783,783,783,783,783,783,783,783,783,783,783,783,783,783,783,783,783,803,827,889,972,1000,1035,1076,1112,1172,1189,1201,1211,1216,1222,1222,1220,1217,1217,1217,1214,1205,1195,1177,1161,1156],"ymouse":[610,610,610,610,610,610,610,610,610,610,610,610,610,610,610,610,610,610,610,610,610,610,610,610,610,610,610,610,610,610,610,610,610,610,610,586,560,504,409,370,318,258,199,116,89,69,51,33,0,0,0,0,0,0,2,9,15,24,31,33],"timestamp_mouse":[9,31,46,68,86,107,127,146,166,186,207,226,246,267,286,307,326,347,366,388,406,426,447,467,486,506,526,547,566,587,606,626,647,666,686,707,726,746,766,786,806,826,846,867,887,906,926,947,966,986,1007,1027,1047,1066,1087,1106,1126,1146,1166,1186],"xSR":741.5,"ySR":573.95,"xT1":424.9,"yT1":0,"xT2":1058.1,"yT2":0,"toosoon":0,"cond_shown":"equaldotsize","ratio_trial":750,"smaller_num":"3","larger_num":"4","correct_side":2,"subjID":"julianadiazpadilla7","gender":"1","age":"11","school":"6"},{"start_time":1551892738822,"click_time":1551892739951,"finger_time":1551892739651,"fix_duration":1369.1563078184922,"trial":48,"RT":829,"MT":300,"sideResp":1,"stimulus":"img/500/equaldotanddens/L/10_Ratio_500_L_4_R_2.png","xmouse":[767,767,767,767,767,767,767,767,767,767,767,767,767,767,767,767,767,767,767,767,767,767,767,767,767,767,767,767,767,767,767,767,767,767,767,767,767,767,767,767,766,766,761,745,734,726,709,695,665,590,563,482,473,468,461,456,446],"ymouse":[602,602,602,602,602,602,602,602,602,602,602,602,602,602,602,602,602,602,602,602,602,602,602,602,602,602,602,602,602,602,602,602,602,602,602,602,602,602,602,602,601,548,478,419,380,349,301,275,243,184,169,131,127,124,120,115,99],"timestamp_mouse":[10,38,50,70,90,109,130,149,169,190,211,229,249,269,291,310,329,351,369,389,410,429,449,470,489,509,529,550,569,589,609,629,650,670,691,709,729,750,770,790,810,829,849,870,890,909,929,949,970,989,1010,1029,1050,1069,1089,1110,1129],"xSR":741.5,"ySR":573.95,"xT1":424.9,"yT1":0,"xT2":1058.1,"yT2":0,"toosoon":0,"cond_shown":"equaldotanddens","ratio_trial":500,"smaller_num":"2","larger_num":"4","correct_side":1,"subjID":"julianadiazpadilla7","gender":"1","age":"11","school":"6"},{"start_time":1551892741955,"click_time":1551892742853,"finger_time":1551892742492,"fix_duration":941.456845261313,"trial":49,"RT":537,"MT":361,"sideResp":1,"stimulus":"img/250/equaldotanddens/L/7_Ratio_250_L_8_R_2.png","xmouse":[784,784,784,784,784,784,784,784,784,784,784,784,784,784,784,784,784,784,784,784,784,784,784,784,783,756,704,647,587,479,435,403,378,362,337,333,332,332,332,333,337,343,356,388,450],"ymouse":[646,646,646,646,646,646,646,646,646,646,646,646,646,646,646,646,646,646,646,646,646,646,646,646,646,604,536,464,384,236,176,132,98,77,35,28,21,14,9,1,0,0,0,0,15],"timestamp_mouse":[17,36,56,76,96,116,136,156,176,196,216,236,256,276,296,317,337,358,376,397,416,436,457,476,496,516,537,556,576,596,616,636,658,677,696,717,736,756,776,797,816,836,857,878,898],"xSR":741.5,"ySR":573.95,"xT1":424.9,"yT1":0,"xT2":1058.1,"yT2":0,"toosoon":0,"cond_shown":"equaldotanddens","ratio_trial":250,"smaller_num":"2","larger_num":"8","correct_side":1,"subjID":"julianadiazpadilla7","gender":"1","age":"11","school":"6"},{"start_time":1551892744596,"click_time":1551892745851,"finger_time":1551892745211,"fix_duration":944.0551233255544,"trial":50,"RT":615,"MT":640,"sideResp":2,"stimulus":"img/750/randomdotsizeEA/L/14_Ratio_750_L_8_R_6.png","xmouse":[802,802,802,802,802,802,802,802,802,802,802,802,802,802,802,802,802,793,790,790,790,790,790,790,790,790,790,789,790,795,807,815,833,846,860,876,891,927,951,981,1006,1048,1090,1100,1108,1115,1123,1136,1143,1150,1159,1176,1182,1182,1181,1173,1165,1153,1148,1142,1134,1123,1088],"ymouse":[596,596,596,596,596,596,596,596,596,596,596,596,596,596,596,596,596,591,588,587,587,587,587,587,587,587,587,587,584,577,560,545,512,491,466,439,409,330,271,206,144,48,0,0,0,0,0,0,0,0,3,16,42,56,75,94,106,114,114,114,111,104,76],"timestamp_mouse":[22,37,56,75,95,115,136,157,175,195,215,236,255,275,296,316,335,355,375,395,415,435,455,477,495,515,536,556,575,596,615,635,655,675,695,715,736,756,776,795,816,835,855,875,896,915,936,955,977,995,1015,1036,1057,1075,1096,1115,1135,1155,1175,1195,1215,1236,1255],"xSR":741.5,"ySR":573.95,"xT1":424.9,"yT1":0,"xT2":1058.1,"yT2":0,"toosoon":0,"cond_shown":"randomdotsizeEA","ratio_trial":750,"smaller_num":"6","larger_num":"8","correct_side":1,"subjID":"julianadiazpadilla7","gender":"1","age":"11","school":"6"},{"start_time":1551892748035,"click_time":1551892749111,"finger_time":1551892748731,"fix_duration":1382.0668308269828,"trial":51,"RT":696,"MT":380,"sideResp":1,"stimulus":"img/500/randomdotsizeEA/R/15_Ratio_500_L_1_R_2.png","xmouse":[817,817,817,817,817,817,817,817,817,817,817,817,817,817,817,817,817,817,817,817,817,817,817,817,817,817,817,817,817,817,817,817,805,796,764,719,705,693,681,667,651,645,638,634,632,629,626,623,618,608,585,566,545,522],"ymouse":[635,635,635,635,635,635,635,635,635,635,635,635,635,635,635,635,635,635,635,635,635,635,635,635,635,635,635,635,635,635,635,635,614,594,554,497,478,461,442,412,368,342,318,296,276,245,224,208,192,168,128,108,92,81],"timestamp_mouse":[16,37,56,77,96,118,137,156,176,197,216,237,258,277,297,317,337,356,376,396,417,436,457,477,496,516,536,556,576,596,618,637,656,676,696,717,737,756,777,797,816,837,856,876,896,916,937,957,977,997,1016,1037,1057,1076],"xSR":741.5,"ySR":573.95,"xT1":424.9,"yT1":0,"xT2":1058.1,"yT2":0,"toosoon":0,"cond_shown":"randomdotsizeEA","ratio_trial":500,"smaller_num":"1","larger_num":"2","correct_side":2,"subjID":"julianadiazpadilla7","gender":"1","age":"11","school":"6"},{"start_time":1551892750749,"click_time":1551892752051,"finger_time":1551892751632,"fix_duration":416.8399669429652,"trial":52,"RT":883,"MT":419,"sideResp":2,"stimulus":"img/750/randomdotsizeEA/R/4_Ratio_750_L_15_R_20.png","xmouse":[771,771,771,771,771,771,771,771,771,772,772,773,774,774,774,774,774,774,774,774,774,774,775,775,775,775,775,775,775,775,775,775,775,775,775,775,775,775,775,775,775,775,775,781,797,822,830,839,846,850,865,874,883,889,903,920,929,939,949,959,998,1024,1044,1053,1056,1071],"ymouse":[641,641,641,641,641,641,641,641,641,642,642,642,642,641,641,641,641,641,641,641,641,641,641,639,633,631,631,631,631,631,631,631,631,631,631,631,631,631,631,631,631,619,611,598,569,530,511,488,462,438,398,377,356,340,319,297,289,279,270,256,208,172,140,115,94,57],"timestamp_mouse":[11,33,43,62,82,103,123,142,163,184,203,223,242,263,284,302,322,342,362,382,403,422,442,463,482,502,522,542,563,582,602,623,642,663,682,702,722,743,763,782,802,822,843,862,883,902,922,942,963,982,1002,1023,1042,1062,1083,1102,1123,1142,1162,1182,1202,1222,1243,1264,1283,1302],"xSR":741.5,"ySR":573.95,"xT1":424.9,"yT1":0,"xT2":1058.1,"yT2":0,"toosoon":0,"cond_shown":"randomdotsizeEA","ratio_trial":750,"smaller_num":"15","larger_num":"20","correct_side":2,"subjID":"julianadiazpadilla7","gender":"1","age":"11","school":"6"},{"start_time":1551892754103,"click_time":1551892755633,"finger_time":1551892754912,"fix_duration":1150.95098171581,"trial":53,"RT":809,"MT":721,"sideResp":2,"stimulus":"img/750/equaldotsize/R/7_Ratio_750_L_3_R_4.png","xmouse":[797,797,797,797,797,797,797,797,797,797,797,797,797,797,797,797,797,797,797,797,797,797,797,797,797,797,797,797,797,797,797,797,797,797,797,797,797,797,800,816,834,859,913,935,952,964,978,989,995,1002,1008,1014,1021,1022,1022,1025,1027,1030,1030,1030,1030,1031,1034,1034,1034,1032,1029,1029,1029,1029,1029,1029,1029,1030,1033,1038,1065],"ymouse":[644,644,644,644,644,644,644,644,644,644,644,644,644,644,644,644,644,644,644,644,644,644,644,644,644,644,644,644,644,644,644,644,644,644,644,644,644,644,635,591,558,517,453,435,418,408,397,380,370,359,347,334,300,285,274,266,259,244,238,230,224,216,196,188,181,172,163,157,155,148,138,128,102,89,78,64,28],"timestamp_mouse":[9,31,49,68,89,109,128,149,169,189,208,229,249,268,288,309,328,348,368,389,410,429,450,468,488,508,529,550,568,588,609,628,648,668,688,708,729,749,769,790,809,828,848,869,889,908,929,948,969,989,1009,1028,1048,1069,1089,1108,1129,1148,1168,1188,1208,1229,1248,1270,1290,1308,1328,1348,1368,1388,1409,1428,1449,1468,1488,1510,1530],"xSR":741.5,"ySR":573.95,"xT1":424.9,"yT1":0,"xT2":1058.1,"yT2":0,"toosoon":0,"cond_shown":"equaldotsize","ratio_trial":750,"smaller_num":"3","larger_num":"4","correct_side":2,"subjID":"julianadiazpadilla7","gender":"1","age":"11","school":"6"},{"start_time":1551892759277,"click_time":1551892760271,"finger_time":1551892760151,"fix_duration":965.9363749645423,"trial":54,"RT":874,"MT":120,"sideResp":1,"stimulus":"img/500/equaldotanddens/L/10_Ratio_500_L_4_R_2.png","xmouse":[747,747,747,748,749,749,749,749,749,749,749,749,749,750,750,750,751,752,752,752,752,752,752,752,752,752,752,752,752,752,752,752,752,752,752,752,752,752,752,752,752,752,748,727,698,657,603,565,526,519],"ymouse":[624,624,624,625,625,625,625,625,625,625,626,626,626,631,632,633,635,635,635,635,635,635,635,635,635,635,635,635,635,635,635,635,635,635,635,635,635,635,635,635,635,630,614,473,383,286,195,124,57,45],"timestamp_mouse":[15,38,55,74,94,116,135,154,176,195,214,236,254,274,295,315,334,354,374,394,414,434,455,475,495,514,534,555,574,596,614,634,655,674,694,715,735,756,775,794,814,834,855,874,895,914,934,955,974,994],"xSR":741.5,"ySR":573.95,"xT1":424.9,"yT1":0,"xT2":1058.1,"yT2":0,"toosoon":0,"cond_shown":"equaldotanddens","ratio_trial":500,"smaller_num":"2","larger_num":"4","correct_side":1,"subjID":"julianadiazpadilla7","gender":"1","age":"11","school":"6"},{"start_time":1551892761707,"click_time":1551892762952,"finger_time":1551892762451,"fix_duration":275.1664528825164,"trial":55,"RT":744,"MT":501,"sideResp":1,"stimulus":"img/250/equaldotsize/L/14_Ratio_250_L_12_R_3.png","xmouse":[795,795,795,795,795,795,795,795,795,795,795,795,795,795,795,795,795,795,795,795,795,795,795,795,795,795,795,795,795,795,795,795,795,795,795,795,795,785,771,760,749,739,718,710,699,683,672,659,654,646,636,626,607,595,588,587,587,567,556,549,540,529,512],"ymouse":[596,596,596,596,596,596,596,596,596,596,596,596,596,596,596,596,596,596,596,596,596,596,596,596,596,596,596,596,596,596,596,596,596,596,596,596,589,469,434,412,392,369,317,285,247,194,172,151,144,135,132,128,115,103,96,94,94,93,95,95,95,90,85],"timestamp_mouse":[11,26,46,65,85,106,126,144,165,185,204,225,244,266,284,304,325,346,365,384,405,425,445,464,485,504,525,545,565,584,605,624,644,666,685,704,724,744,764,784,804,824,844,865,885,905,924,944,965,984,1005,1024,1045,1065,1084,1104,1125,1144,1165,1185,1204,1224,1245],"xSR":741.5,"ySR":573.95,"xT1":424.9,"yT1":0,"xT2":1058.1,"yT2":0,"toosoon":0,"cond_shown":"equaldotsize","ratio_trial":250,"smaller_num":"3","larger_num":"12","correct_side":1,"subjID":"julianadiazpadilla7","gender":"1","age":"11","school":"6"},{"start_time":1551892766940,"click_time":1551892768032,"finger_time":1551892767612,"fix_duration":986.5599515270617,"trial":56,"RT":672,"MT":420,"sideResp":1,"stimulus":"img/500/equaldotanddens/L/4_Ratio_500_L_18_R_9.png","xmouse":[816,816,816,816,816,816,816,816,816,816,816,816,816,816,816,816,816,816,816,816,816,816,816,816,816,816,816,816,815,814,814,814,811,795,767,664,618,583,569,565,563,560,557,554,554,553,553,552,550,548,547,547,545,542,520],"ymouse":[614,614,614,614,614,614,614,614,614,614,614,614,614,614,614,614,614,614,614,614,614,614,614,614,614,614,614,614,615,615,615,615,591,522,437,253,176,115,88,79,76,69,65,60,60,59,58,58,58,58,58,58,58,57,56],"timestamp_mouse":[12,42,51,71,93,111,131,152,171,191,211,231,251,271,291,312,332,351,371,391,411,432,451,471,491,512,531,551,572,593,612,631,651,672,692,711,731,753,771,792,811,831,851,872,893,911,931,952,972,992,1011,1032,1052,1072,1092],"xSR":741.5,"ySR":573.95,"xT1":424.9,"yT1":0,"xT2":1058.1,"yT2":0,"toosoon":0,"cond_shown":"equaldotanddens","ratio_trial":500,"smaller_num":"9","larger_num":"18","correct_side":1,"subjID":"julianadiazpadilla7","gender":"1","age":"11","school":"6"},{"start_time":1551892769211,"click_time":1551892769851,"finger_time":1551892769672,"fix_duration":358.8634251572693,"trial":57,"RT":461,"MT":179,"sideResp":2,"stimulus":"img/900/randomdotsizeEA/R/13_Ratio_900_L_18_R_20.png","xmouse":[781,781,781,781,781,781,781,781,781,781,781,781,781,781,781,781,782,782,782,786,789,793,817,832,859,890,924,993,1020,1042,1060,1073,1105],"ymouse":[604,604,604,604,604,604,604,604,604,604,604,604,604,604,604,604,604,604,603,602,600,597,574,554,521,477,430,338,281,222,165,121,24],"timestamp_mouse":[8,20,41,61,80,100,120,141,160,181,200,220,240,261,280,300,322,340,361,380,400,420,441,461,480,500,521,540,562,582,601,621,640],"xSR":741.5,"ySR":573.95,"xT1":424.9,"yT1":0,"xT2":1058.1,"yT2":0,"toosoon":0,"cond_shown":"randomdotsizeEA","ratio_trial":900,"smaller_num":"18","larger_num":"20","correct_side":2,"subjID":"julianadiazpadilla7","gender":"1","age":"11","school":"6"},{"start_time":1551892771387,"click_time":1551892772651,"finger_time":1551892771851,"fix_duration":554.6008579744433,"trial":58,"RT":464,"MT":800,"sideResp":2,"stimulus":"img/250/randomdotsizeEA/R/11_Ratio_250_L_3_R_12.png","xmouse":[783,783,783,783,783,783,783,783,783,783,783,783,783,783,783,784,786,792,804,807,808,809,808,781,767,752,737,716,643,603,572,563,558,556,556,556,556,556,560,570,584,629,680,803,850,880,900,927,971,993,1013,1032,1046,1049,1049,1049,1049,1048,1048,1048,1048,1049,1051,1072],"ymouse":[637,637,637,637,637,637,637,637,637,637,637,637,637,637,637,637,637,633,624,621,616,608,604,562,541,521,500,470,361,295,234,210,193,185,183,183,183,183,189,207,228,270,299,338,340,338,333,323,295,275,259,233,198,148,131,118,105,100,96,96,93,92,89,82],"timestamp_mouse":[10,33,45,65,85,104,125,146,165,184,205,224,246,264,284,304,326,345,364,385,404,424,444,464,485,504,525,545,564,585,604,624,645,664,684,705,724,746,765,784,805,825,845,865,885,904,925,945,964,985,1005,1024,1045,1064,1085,1104,1124,1145,1165,1184,1205,1225,1245,1264],"xSR":741.5,"ySR":573.95,"xT1":424.9,"yT1":0,"xT2":1058.1,"yT2":0,"toosoon":0,"cond_shown":"randomdotsizeEA","ratio_trial":250,"smaller_num":"3","larger_num":"12","correct_side":2,"subjID":"julianadiazpadilla7","gender":"1","age":"11","school":"6"},{"start_time":1551892774914,"click_time":1551892776332,"finger_time":1551892775771,"fix_duration":1460.2007754212214,"trial":59,"RT":857,"MT":561,"sideResp":1,"stimulus":"img/750/equaldotsize/L/13_Ratio_750_L_8_R_6.png","xmouse":[803,803,803,803,803,803,803,803,803,803,803,803,803,803,803,803,803,803,803,803,803,803,803,803,803,803,803,803,803,803,803,803,803,803,803,803,803,803,803,803,803,803,758,688,608,527,490,479,468,460,455,455,455,455,457,459,460,461,463,463,463,463,463,462,462,462,462,462,461,461,460],"ymouse":[619,619,619,619,619,619,619,619,619,619,619,619,619,619,619,619,619,619,619,619,619,619,619,619,619,619,619,619,619,619,619,619,619,619,619,619,619,619,619,619,619,618,566,506,442,344,274,249,223,204,193,188,185,181,176,168,151,145,138,130,123,113,110,108,106,106,106,106,104,102,97],"timestamp_mouse":[17,37,59,77,97,117,137,158,178,198,217,237,258,277,298,318,337,358,379,397,417,439,458,477,497,518,537,557,577,598,617,637,658,678,697,717,739,757,777,797,817,838,857,877,897,918,939,958,977,997,1018,1037,1057,1077,1097,1119,1138,1158,1178,1198,1218,1237,1257,1278,1298,1317,1337,1357,1378,1397,1418],"xSR":741.5,"ySR":573.95,"xT1":424.9,"yT1":0,"xT2":1058.1,"yT2":0,"toosoon":0,"cond_shown":"equaldotsize","ratio_trial":750,"smaller_num":"6","larger_num":"8","correct_side":1,"subjID":"julianadiazpadilla7","gender":"1","age":"11","school":"6"},{"start_time":1551892778826,"click_time":1551892780571,"finger_time":1551892779552,"fix_duration":1493.758562128781,"trial":60,"RT":726,"MT":1019,"sideResp":1,"stimulus":"img/900/equaldotanddens/L/2_Ratio_900_L_20_R_18.png","xmouse":[766,766,766,766,766,766,766,766,766,766,766,766,766,766,766,766,766,766,766,766,766,766,766,766,766,766,766,766,766,766,766,766,766,766,766,756,685,569,459,364,284,224,198,173,150,128,116,118,130,137,142,154,199,298,428,560,775,860,923,951,958,959,955,933,909,892,886,882,873,858,825,761,726,706,689,675,628,604,592,587,585,567,556,552,549,544,528,511],"ymouse":[621,621,621,621,621,621,621,621,621,621,621,621,621,621,621,621,621,621,621,621,621,621,621,621,621,621,621,621,621,621,621,621,621,621,621,621,599,545,483,414,330,241,179,119,66,14,0,0,0,0,0,15,46,102,164,204,201,185,166,157,156,155,152,143,130,116,112,111,110,108,106,108,122,140,158,174,184,184,178,171,162,134,118,111,107,101,91,82],"timestamp_mouse":[10,39,45,65,85,106,125,145,165,186,205,227,245,265,287,307,325,347,365,386,405,426,447,466,485,506,525,546,565,585,607,625,645,665,685,706,726,745,765,786,806,825,845,865,885,905,926,945,965,985,1005,1025,1046,1067,1085,1106,1125,1146,1167,1186,1206,1225,1246,1265,1286,1306,1325,1346,1365,1386,1407,1425,1446,1466,1485,1505,1525,1545,1565,1586,1606,1626,1646,1665,1686,1706,1726,1745],"xSR":741.5,"ySR":573.95,"xT1":424.9,"yT1":0,"xT2":1058.1,"yT2":0,"toosoon":0,"cond_shown":"equaldotanddens","ratio_trial":900,"smaller_num":"18","larger_num":"20","correct_side":1,"subjID":"julianadiazpadilla7","gender":"1","age":"11","school":"6"},{"start_time":1551892783498,"click_time":1551892784893,"finger_time":1551892784251,"fix_duration":885.4811606720514,"trial":61,"RT":753,"MT":642,"sideResp":1,"stimulus":"img/900/equaldotsize/L/10_Ratio_900_L_20_R_18.png","xmouse":[823,823,823,823,823,823,823,823,823,823,823,823,823,823,823,823,823,823,823,823,822,821,804,798,794,790,790,790,790,790,790,790,790,790,789,785,748,664,635,618,608,601,597,596,596,596,597,598,598,598,596,594,589,585,581,577,575,553,547,546,546,546,545,543,537,528,523,497,483,476],"ymouse":[626,626,626,626,626,626,626,626,626,626,626,626,626,626,626,626,626,626,626,626,626,626,626,626,626,626,626,626,626,626,626,626,626,626,626,625,619,590,570,549,518,488,462,458,452,450,445,436,431,424,414,402,379,367,354,340,328,237,225,225,225,225,223,218,206,189,180,131,109,95],"timestamp_mouse":[13,33,53,73,93,114,135,154,174,193,214,234,254,273,294,313,333,354,374,393,413,434,454,473,493,514,534,555,574,595,614,633,654,673,694,714,733,753,774,804,813,833,853,873,894,914,934,954,973,993,1014,1033,1053,1073,1094,1113,1134,1153,1174,1193,1213,1234,1254,1273,1293,1314,1333,1353,1374,1395],"xSR":741.5,"ySR":573.95,"xT1":424.9,"yT1":0,"xT2":1058.1,"yT2":0,"toosoon":0,"cond_shown":"equaldotsize","ratio_trial":900,"smaller_num":"18","larger_num":"20","correct_side":1,"subjID":"julianadiazpadilla7","gender":"1","age":"11","school":"6"},{"start_time":1551892786296,"click_time":1551892788893,"finger_time":1551892786732,"fix_duration":563.4198257540534,"trial":62,"RT":436,"MT":2161,"sideResp":2,"stimulus":"img/500/equaldotsize/R/2_Ratio_500_L_3_R_6.png","xmouse":[801,801,805,807,808,809,810,811,813,813,813,813,813,813,813,814,819,826,827,828,828,828,828,828,828,828,828,828,829,832,833,833,833,833,833,835,837,850,859,863,867,877,905,916,924,927,930,935,939,948,960,972,1005,1022,1040,1062,1114,1388,1476,1546,1546,1546,1546,1546,1546,1546,1546,1546,1546,1561,1501,1423,1278,1252,1244,1244,1244,1255,1264,1275,1287,1289,1289,1289,1289,1289,1289,1289,1289,1289,1289,1289,1289,1289,1289,1289,1289,1289,1289,1289,1289,1289,1291,1291,1291,1291,1291,1291,1288,1282,1276,1254,1243,1228,1215,1206,1202,1202,1201,1201,1201,1201,1201,1201,1201,1201,1201,1187,1167,1150],"ymouse":[586,586,589,591,592,593,594,595,598,598,598,598,598,598,598,599,596,587,583,578,575,571,571,571,571,571,571,571,566,560,558,557,557,557,557,555,551,529,509,489,467,442,404,384,368,360,354,348,347,344,340,334,320,312,305,295,285,336,351,359,359,359,359,359,359,359,359,359,359,354,346,335,313,309,308,307,307,303,303,303,310,313,313,313,313,313,313,313,313,313,313,313,313,313,313,313,313,313,313,313,313,313,310,310,310,310,310,307,291,266,237,151,92,38,11,0,0,0,0,0,0,0,0,0,0,0,0,13,28,41],"timestamp_mouse":[15,37,56,76,96,115,136,156,175,197,216,235,255,276,296,316,336,355,375,397,416,436,455,475,496,515,536,555,576,595,616,635,656,675,695,716,737,756,775,795,815,836,856,876,896,916,937,955,976,995,1017,1036,1056,1076,1096,1115,1136,1155,1176,1195,1215,1235,1255,1275,1296,1315,1335,1355,1376,1396,1416,1436,1456,1475,1495,1515,1535,1555,1575,1596,1617,1636,1656,1675,1696,1715,1735,1755,1775,1796,1815,1835,1855,1875,1895,1916,1935,1955,1975,1997,2015,2036,2056,2077,2095,2115,2135,2155,2175,2195,2215,2237,2255,2275,2295,2315,2335,2355,2376,2396,2415,2435,2456,2476,2496,2515,2535,2556,2575,2596],"xSR":741.5,"ySR":573.95,"xT1":424.9,"yT1":0,"xT2":1058.1,"yT2":0,"toosoon":0,"cond_shown":"equaldotsize","ratio_trial":500,"smaller_num":"3","larger_num":"6","correct_side":2,"subjID":"julianadiazpadilla7","gender":"1","age":"11","school":"6"},{"start_time":1551892794573,"click_time":1551892796231,"finger_time":1551892795692,"fix_duration":1360.314312767648,"trial":63,"RT":1119,"MT":539,"sideResp":2,"stimulus":"img/250/randomdotsizeEA/R/8_Ratio_250_L_1_R_4.png","xmouse":[803,803,803,803,803,803,803,803,803,803,803,803,803,803,803,803,803,803,803,803,803,803,803,803,803,803,803,803,803,803,803,803,803,803,803,803,803,803,803,803,803,803,803,803,803,803,803,803,803,803,803,803,803,803,815,837,857,874,901,913,922,929,937,955,962,968,975,986,1022,1041,1052,1052,1052,1052,1052,1052,1052,1052,1052,1052,1052,1054,1068],"ymouse":[599,599,599,599,599,599,599,599,599,599,599,599,599,599,599,599,599,599,599,599,599,599,599,599,599,599,599,599,599,599,599,599,599,599,599,599,599,599,599,599,599,599,599,599,599,599,599,599,599,599,599,599,599,599,584,549,510,470,380,334,296,269,235,176,151,129,106,76,1,0,0,0,0,0,0,0,0,0,0,0,0,0,11],"timestamp_mouse":[21,39,58,80,98,119,139,158,178,200,218,239,260,279,299,318,339,360,380,399,418,440,458,479,499,518,539,559,578,598,619,638,659,679,700,718,739,760,778,798,819,838,858,879,900,919,938,959,978,998,1018,1039,1059,1079,1099,1119,1140,1159,1179,1199,1219,1238,1260,1279,1298,1319,1339,1360,1379,1398,1419,1439,1459,1478,1498,1519,1538,1559,1578,1599,1618,1638,1658],"xSR":741.5,"ySR":573.95,"xT1":424.9,"yT1":0,"xT2":1058.1,"yT2":0,"toosoon":0,"cond_shown":"randomdotsizeEA","ratio_trial":250,"smaller_num":"1","larger_num":"4","correct_side":2,"subjID":"julianadiazpadilla7","gender":"1","age":"11","school":"6"},{"start_time":1551892801836,"click_time":1551892803051,"finger_time":1551892802512,"fix_duration":1143.0521725369454,"trial":64,"RT":676,"MT":539,"sideResp":2,"stimulus":"img/250/equaldotsize/R/10_Ratio_250_L_4_R_16.png","xmouse":[776,776,776,776,776,776,776,776,776,776,776,776,776,776,776,776,776,776,778,779,780,780,780,780,780,780,780,780,780,780,780,780,782,790,813,870,883,886,886,886,887,889,896,909,929,975,1007,1033,1051,1062,1063,1064,1065,1065,1065,1065,1065,1065,1065,1067,1071],"ymouse":[642,642,642,642,642,642,642,642,642,642,642,642,642,642,642,642,642,642,642,639,628,622,619,618,618,618,618,618,618,618,618,614,602,570,499,347,286,258,250,247,242,237,229,217,201,173,162,154,150,148,148,148,148,148,149,149,148,144,140,134,78],"timestamp_mouse":[15,37,57,76,96,115,135,155,177,195,217,235,256,275,295,317,336,355,376,396,416,436,457,475,497,515,536,555,575,596,617,635,656,676,696,715,735,756,776,795,816,836,855,875,897,915,935,956,976,996,1015,1036,1055,1075,1095,1116,1135,1155,1176,1197,1215],"xSR":741.5,"ySR":573.95,"xT1":424.9,"yT1":0,"xT2":1058.1,"yT2":0,"toosoon":0,"cond_shown":"equaldotsize","ratio_trial":250,"smaller_num":"4","larger_num":"16","correct_side":2,"subjID":"julianadiazpadilla7","gender":"1","age":"11","school":"6"},{"start_time":1551892804794,"click_time":1551892805593,"finger_time":1551892805411,"fix_duration":441.05817193700915,"trial":65,"RT":617,"MT":182,"sideResp":2,"stimulus":"img/500/equaldotsize/R/9_Ratio_500_L_2_R_4.png","xmouse":[812,812,812,812,805,797,790,775,770,769,769,769,769,769,769,769,769,769,769,769,769,769,769,769,769,769,768,768,774,779,794,799,844,865,896,932,966,1031,1058,1084],"ymouse":[653,653,653,653,646,642,637,629,627,627,626,626,626,626,626,626,626,626,626,626,626,626,626,626,626,626,625,614,601,587,564,558,513,495,462,378,293,164,107,55],"timestamp_mouse":[17,37,58,78,97,118,138,157,179,197,217,238,258,279,297,317,338,357,377,397,417,437,457,477,497,517,538,557,578,597,617,638,658,677,697,717,737,758,778,799],"xSR":741.5,"ySR":573.95,"xT1":424.9,"yT1":0,"xT2":1058.1,"yT2":0,"toosoon":0,"cond_shown":"equaldotsize","ratio_trial":500,"smaller_num":"2","larger_num":"4","correct_side":2,"subjID":"julianadiazpadilla7","gender":"1","age":"11","school":"6"},{"start_time":1551892811874,"click_time":1551892814272,"finger_time":1551892813112,"fix_duration":722.0925618057676,"trial":66,"RT":1238,"MT":1160,"sideResp":2,"stimulus":"img/750/equaldotanddens/R/2_Ratio_750_L_6_R_8.png","xmouse":[817,817,817,817,817,817,817,817,817,817,817,817,817,817,817,817,817,817,817,816,810,807,805,803,803,803,803,803,803,803,803,803,803,803,803,803,803,803,803,803,803,803,803,803,803,803,803,803,803,803,803,803,803,803,803,803,803,803,803,805,811,819,828,842,849,852,855,856,860,861,863,864,864,870,876,884,892,903,914,921,928,936,957,965,969,970,971,973,978,978,979,980,983,1000,1011,1021,1030,1042,1052,1053,1053,1053,1053