[{"start_time":1551891202994,"click_time":1551891206956,"finger_time":1551891203019,"fix_duration":913.8056526467873,"trial":0,"RT":25,"MT":3937,"sideResp":2,"stimulus":[],"xmouse":[806,806,806,805,805,805,805,805,805,805,805,800,799,773,766,764,762,761,761,761,761,761,761,761,760,760,761,765,780,785,788,789,790,791,791,792,792,793,795,798,799,800,800,800,800,800,800,801,801,801,801,801,801,801,801,801,802,802,802,802,802,801,801,801,799,799,798,798,796,795,793,793,793,793,793,792,792,792,792,792,792,792,792,792,792,792,792,792,792,792,792,792,792,792,792,792,792,792,792,792,792,792,792,792,792,792,792,792,792,792,792,792,792,792,792,792,792,792,792,792,792,791,790,790,788,788,788,788,787,787,787,787,787,787,787,785,785,785,785,785,785,785,785,785,785,785,784,784,784,784,784,784,784,784,784,784,784,784,784,784,784,783,783,783,783,783,783,783,783,787,790,799,819,861,946,1006,1074,1149,1281,1308,1318,1318,1314,1308,1293,1281,1272,1266,1261,1245,1237,1228,1220,1213,1197,1184,1170,1158],"ymouse":[526,526,526,527,527,527,527,527,527,527,527,527,527,512,508,506,504,503,503,503,503,503,503,503,506,513,521,533,559,566,572,574,575,577,585,589,593,596,599,606,609,609,609,609,609,609,609,607,606,606,605,605,605,604,604,604,604,604,604,604,604,604,604,604,604,604,604,604,604,606,607,607,607,607,607,608,608,608,608,608,608,608,608,608,608,608,608,608,608,608,608,608,608,608,608,608,608,608,608,608,608,608,608,608,608,608,608,608,608,608,608,608,608,608,608,608,608,608,608,608,608,608,608,608,608,608,608,608,608,608,608,608,608,608,608,608,608,608,608,608,608,608,608,608,608,608,609,609,609,609,609,609,609,609,609,609,609,609,609,609,609,609,609,610,611,611,611,612,612,611,608,602,591,572,529,489,422,319,58,0,0,0,0,0,0,0,1,7,14,31,38,45,49,51,56,60,61,63],"timestamp_mouse":[25,43,64,84,102,122,142,163,182,202,223,242,263,283,302,322,342,362,384,403,422,442,462,482,503,523,543,562,583,602,622,643,664,682,702,722,742,764,782,802,824,842,863,882,902,923,942,963,982,1002,1024,1042,1063,1084,1103,1122,1143,1162,1182,1203,1222,1242,1262,1282,1303,1322,1342,1363,1382,1402,1423,1443,1463,1484,1503,1523,1542,1563,1582,1603,1622,1644,1662,1682,1703,1723,1742,1762,1783,1802,1822,1842,1862,1882,1903,1922,1942,1963,1984,2003,2022,2042,2062,2082,2102,2123,2142,2163,2182,2203,2223,2243,2263,2283,2302,2322,2342,2362,2382,2403,2422,2442,2463,2482,2502,2522,2542,2562,2582,2602,2622,2644,2663,2684,2702,2723,2744,2762,2782,2802,2822,2842,2863,2882,2903,2923,2943,2963,2982,3002,3022,3043,3064,3084,3103,3122,3143,3163,3184,3203,3223,3242,3263,3282,3304,3323,3342,3362,3382,3402,3423,3442,3464,3483,3502,3522,3542,3563,3583,3602,3623,3642,3662,3683,3703,3722,3742,3763,3782,3802,3822,3843,3863,3882,3903,3923,3943,3962],"xSR":741.5,"ySR":469.95,"xT1":424.9,"yT1":0,"xT2":1058.1,"yT2":0,"toosoon":0,"cond_shown":"Incongruent","ratio_trial":200,"L_num":4,"L_den":6,"R_num":14,"R_den":30,"correct_side":1,"subjID":"julianadiazpadilla7","gender":"1","age":"11","school":"6","test":{"fix_dur":[250,1500],"timestim":1000,"targets_dim":[100,100],"targets_relative_coord":[0.3,0.7],"size_stim":[880,420],"start_dim":[100,100],"size_start":[300,300],"size_fix":60,"samplingrate":20,"img_types":["Congruent","Incongruent"],"ratios":[100,200,300],"rep_conds":19,"nTrials":120,"trials_to_rest":500,"Trials_order":[21,100,16,30,86,119,2,41,60,71,6,70,13,3,26,72,40,99,11,85,49,75,63,24,82,95,23,116,0,35,18,67,97,61,103,105,19,98,15,50,83,68,81,104,5,34,57,53,113,56,106,25,31,1,91,110,32,51,88,46,27,74,28,112,118,96,7,94,107,76,80,115,12,33,69,42,78,52,117,39,44,45,37,109,65,36,77,59,87,20,47,17,14,101,73,58,22,38,111,92,29,93,43,64,4,9,102,62,108,48,10,55,84,66,89,79,114,90,8,54],"cond_shown":["Incongruent","Congruent","Congruent","Congruent","Congruent","Incongruent","Congruent","Incongruent","Congruent","Incongruent","Congruent","Congruent","Incongruent","Incongruent","Congruent","Congruent","Congruent","Incongruent","Incongruent","Incongruent","Incongruent","Incongruent","Incongruent","Congruent","Congruent","Incongruent","Incongruent","Congruent","Congruent","Incongruent","Congruent","Incongruent","Incongruent","Incongruent","Incongruent","Incongruent","Incongruent","Congruent","Incongruent","Congruent","Incongruent","Congruent","Incongruent","Congruent","Incongruent","Congruent","Incongruent","Incongruent","Incongruent","Congruent","Congruent","Incongruent","Incongruent","Incongruent","Incongruent","Congruent","Congruent","Incongruent","Congruent","Congruent","Incongruent","Congruent","Congruent","Congruent","Congruent","Congruent","Incongruent","Congruent","Incongruent","Congruent","Congruent","Incongruent","Congruent","Incongruent","Incongruent","Congruent","Congruent","Congruent","Incongruent","Incongruent","Congruent","Incongruent","Incongruent","Incongruent","Incongruent","Congruent","Incongruent","Incongruent","Incongruent","Congruent","Incongruent","Incongruent","Congruent","Incongruent","Incongruent","Congruent","Congruent","Congruent","Incongruent","Congruent","Incongruent","Incongruent","Incongruent","Congruent","Congruent","Incongruent","Congruent","Congruent","Congruent","Congruent","Congruent","Incongruent","Congruent","Congruent","Incongruent","Incongruent","Congruent","Congruent","Congruent","Congruent"],"ratio_trial":[200,300,300,100,200,300,200,300,100,300,100,300,100,200,200,100,300,200,300,100,100,200,200,100,300,300,300,200,100,300,100,100,100,100,100,200,100,200,200,200,300,200,200,200,300,300,200,300,300,200,300,100,100,100,100,200,200,200,300,300,200,200,300,300,300,100,100,300,300,300,200,100,100,200,200,100,100,300,200,200,200,200,100,100,300,100,300,300,200,200,300,300,200,300,100,300,300,200,200,200,300,200,100,300,300,200,100,200,100,100,300,100,100,100,300,100,100,100,200,100],"left_num":[4,3,1,11,3,13,8,1,3,13,4,20,3,1,9,3,3,7,13,6,13,11,14,3,20,13,13,9,9,4,3,1,8,8,3,7,1,6,14,6,4,7,7,16,1,3,7,8,1,1,24,3,6,9,3,21,6,9,1,3,4,3,2,5,11,7,12,1,13,2,7,8,1,7,1,10,1,11,9,3,14,7,6,12,4,4,3,1,1,12,8,1,9,1,3,2,5,8,7,3,4,14,13,12,3,7,7,6,9,8,4,8,6,11,13,12,1,6,12,1],"right_num":[14,2,11,6,9,12,3,3,2,12,6,5,11,3,13,2,2,14,12,7,12,3,6,2,9,12,12,4,8,8,2,8,6,6,8,14,8,3,12,3,2,2,8,12,3,11,12,14,2,21,2,7,11,6,8,2,11,8,11,11,6,9,12,7,2,15,9,3,12,12,18,1,18,8,3,3,3,4,8,1,6,14,3,9,8,15,4,2,2,6,14,2,13,3,7,10,7,2,12,11,8,6,6,2,11,14,15,7,8,2,13,6,15,4,12,2,3,5,6,3],"left_den":[6,6,5,22,12,26,15,2,6,26,8,25,5,2,30,6,6,10,26,10,26,20,30,6,25,26,26,20,15,5,6,2,16,16,5,10,2,15,30,15,20,21,10,20,2,12,10,10,2,2,30,9,10,18,5,30,20,15,5,12,5,12,10,25,22,14,24,5,26,10,15,20,2,10,2,25,2,22,15,10,28,10,12,24,5,10,6,2,3,15,10,2,30,2,9,20,25,15,10,10,5,30,26,24,12,10,14,12,15,16,20,16,12,22,26,30,2,20,15,2],"right_den":[30,10,22,15,20,15,9,15,5,15,10,10,22,10,26,5,10,28,15,14,20,4,9,5,18,15,15,16,16,16,5,20,10,10,16,28,20,15,18,15,4,15,16,20,15,20,24,28,10,30,4,30,22,10,16,4,22,10,22,20,10,20,24,14,10,25,15,6,15,24,27,2,30,16,10,10,5,20,10,2,20,28,5,15,16,30,20,10,15,10,28,10,26,15,30,25,14,6,24,22,16,9,10,10,20,28,25,10,16,5,26,10,25,10,15,4,5,25,10,5],"correct_side":[1,1,2,1,2,2,1,1,1,2,2,1,1,1,2,1,1,1,2,1,2,2,2,1,1,2,2,1,1,1,1,1,2,2,1,1,1,1,2,1,2,1,1,1,1,2,1,1,1,2,1,1,1,2,1,1,2,2,2,2,1,2,2,2,1,2,2,2,2,2,2,2,2,1,1,1,2,1,2,2,1,1,2,2,1,2,1,1,1,1,1,1,2,1,1,2,2,1,1,2,1,2,2,1,2,1,2,2,1,1,2,2,2,1,2,2,2,1,1,2],"img_shown":["img2/200/Incongruent/L/I_Dist_200_LN_4_LD_6_RN_14_RD_30_0.png","img2/300/Congruent/L/C_Dist_300_LN_3_LD_6_RN_2_RD_10_0.png","img2/300/Congruent/R/C_Dist_300_LN_1_LD_5_RN_11_RD_22_1.png","img2/100/Congruent/L/C_Dist_100_LN_11_LD_22_RN_6_RD_15_0.png","img2/200/Congruent/R/C_Dist_200_LN_3_LD_12_RN_9_RD_20_1.png","img2/300/Incongruent/R/I_Dist_300_LN_13_LD_26_RN_12_RD_15_1.png","img2/200/Congruent/L/C_Dist_200_LN_8_LD_15_RN_3_RD_9_0.png","img2/300/Incongruent/L/I_Dist_300_LN_1_LD_2_RN_3_RD_15_0.png","img2/100/Congruent/L/C_Dist_100_LN_3_LD_6_RN_2_RD_5_0.png","img2/300/Incongruent/R/I_Dist_300_LN_13_LD_26_RN_12_RD_15_1.png","img2/100/Congruent/R/C_Dist_100_LN_4_LD_8_RN_6_RD_10_1.png","img2/300/Congruent/L/C_Dist_300_LN_20_LD_25_RN_5_RD_10_0.png","img2/100/Incongruent/L/I_Dist_100_LN_3_LD_5_RN_11_RD_22_0.png","img2/200/Incongruent/L/I_Dist_200_LN_1_LD_2_RN_3_RD_10_0.png","img2/200/Congruent/R/C_Dist_200_LN_9_LD_30_RN_13_RD_26_1.png","img2/100/Congruent/L/C_Dist_100_LN_3_LD_6_RN_2_RD_5_0.png","img2/300/Congruent/L/C_Dist_300_LN_3_LD_6_RN_2_RD_10_0.png","img2/200/Incongruent/L/I_Dist_200_LN_7_LD_10_RN_14_RD_28_0.png","img2/300/Incongruent/R/I_Dist_300_LN_13_LD_26_RN_12_RD_15_1.png","img2/100/Incongruent/L/I_Dist_100_LN_6_LD_10_RN_7_RD_14_0.png","img2/100/Incongruent/R/I_Dist_100_LN_13_LD_26_RN_12_RD_20_1.png","img2/200/Incongruent/R/I_Dist_200_LN_11_LD_20_RN_3_RD_4_1.png","img2/200/Incongruent/R/I_Dist_200_LN_14_LD_30_RN_6_RD_9_1.png","img2/100/Congruent/L/C_Dist_100_LN_3_LD_6_RN_2_RD_5_0.png","img2/300/Congruent/L/C_Dist_300_LN_20_LD_25_RN_9_RD_18_0.png","img2/300/Incongruent/R/I_Dist_300_LN_13_LD_26_RN_12_RD_15_1.png","img2/300/Incongruent/R/I_Dist_300_LN_13_LD_26_RN_12_RD_15_1.png","img2/200/Congruent/L/C_Dist_200_LN_9_LD_20_RN_4_RD_16_0.png","img2/100/Congruent/L/C_Dist_100_LN_9_LD_15_RN_8_RD_16_0.png","img2/300/Incongruent/L/I_Dist_300_LN_4_LD_5_RN_8_RD_16_0.png","img2/100/Congruent/L/C_Dist_100_LN_3_LD_6_RN_2_RD_5_0.png","img2/100/Incongruent/L/I_Dist_100_LN_1_LD_2_RN_8_RD_20_0.png","img2/100/Incongruent/R/I_Dist_100_LN_8_LD_16_RN_6_RD_10_1.png","img2/100/Incongruent/R/I_Dist_100_LN_8_LD_16_RN_6_RD_10_1.png","img2/100/Incongruent/L/I_Dist_100_LN_3_LD_5_RN_8_RD_16_0.png","img2/200/Incongruent/L/I_Dist_200_LN_7_LD_10_RN_14_RD_28_0.png","img2/100/Incongruent/L/I_Dist_100_LN_1_LD_2_RN_8_RD_20_0.png","img2/200/Congruent/L/C_Dist_200_LN_6_LD_15_RN_3_RD_15_0.png","img2/200/Incongruent/R/I_Dist_200_LN_14_LD_30_RN_12_RD_18_1.png","img2/200/Congruent/L/C_Dist_200_LN_6_LD_15_RN_3_RD_15_0.png","img2/300/Incongruent/R/I_Dist_300_LN_4_LD_20_RN_2_RD_4_1.png","img2/200/Congruent/L/C_Dist_200_LN_7_LD_21_RN_2_RD_15_0.png","img2/200/Incongruent/L/I_Dist_200_LN_7_LD_10_RN_8_RD_16_0.png","img2/200/Congruent/L/C_Dist_200_LN_16_LD_20_RN_12_RD_20_0.png","img2/300/Incongruent/L/I_Dist_300_LN_1_LD_2_RN_3_RD_15_0.png","img2/300/Congruent/R/C_Dist_300_LN_3_LD_12_RN_11_RD_20_1.png","img2/200/Incongruent/L/I_Dist_200_LN_7_LD_10_RN_12_RD_24_0.png","img2/300/Incongruent/L/I_Dist_300_LN_8_LD_10_RN_14_RD_28_0.png","img2/300/Incongruent/L/I_Dist_300_LN_1_LD_2_RN_2_RD_10_0.png","img2/200/Congruent/R/C_Dist_200_LN_1_LD_2_RN_21_RD_30_1.png","img2/300/Congruent/L/C_Dist_300_LN_24_LD_30_RN_2_RD_4_0.png","img2/100/Incongruent/L/I_Dist_100_LN_3_LD_9_RN_7_RD_30_0.png","img2/100/Incongruent/L/I_Dist_100_LN_6_LD_10_RN_11_RD_22_0.png","img2/100/Incongruent/R/I_Dist_100_LN_9_LD_18_RN_6_RD_10_1.png","img2/100/Incongruent/L/I_Dist_100_LN_3_LD_5_RN_8_RD_16_0.png","img2/200/Congruent/L/C_Dist_200_LN_21_LD_30_RN_2_RD_4_0.png","img2/200/Congruent/R/C_Dist_200_LN_6_LD_20_RN_11_RD_22_1.png","img2/200/Incongruent/R/I_Dist_200_LN_9_LD_15_RN_8_RD_10_1.png","img2/300/Congruent/R/C_Dist_300_LN_1_LD_5_RN_11_RD_22_1.png","img2/300/Congruent/R/C_Dist_300_LN_3_LD_12_RN_11_RD_20_1.png","img2/200/Incongruent/L/I_Dist_200_LN_4_LD_5_RN_6_RD_10_0.png","img2/200/Congruent/R/C_Dist_200_LN_3_LD_12_RN_9_RD_20_1.png","img2/300/Congruent/R/C_Dist_300_LN_2_LD_10_RN_12_RD_24_1.png","img2/300/Congruent/R/C_Dist_300_LN_5_LD_25_RN_7_RD_14_1.png","img2/300/Congruent/L/C_Dist_300_LN_11_LD_22_RN_2_RD_10_0.png","img2/100/Congruent/R/C_Dist_100_LN_7_LD_14_RN_15_RD_25_1.png","img2/100/Incongruent/R/I_Dist_100_LN_12_LD_24_RN_9_RD_15_1.png","img2/300/Congruent/R/C_Dist_300_LN_1_LD_5_RN_3_RD_6_1.png","img2/300/Incongruent/R/I_Dist_300_LN_13_LD_26_RN_12_RD_15_1.png","img2/300/Congruent/R/C_Dist_300_LN_2_LD_10_RN_12_RD_24_1.png","img2/200/Congruent/R/C_Dist_200_LN_7_LD_15_RN_18_RD_27_1.png","img2/100/Incongruent/R/I_Dist_100_LN_8_LD_20_RN_1_RD_2_1.png","img2/100/Congruent/R/C_Dist_100_LN_1_LD_2_RN_18_RD_30_1.png","img2/200/Incongruent/L/I_Dist_200_LN_7_LD_10_RN_8_RD_16_0.png","img2/200/Incongruent/L/I_Dist_200_LN_1_LD_2_RN_3_RD_10_0.png","img2/100/Congruent/L/C_Dist_100_LN_10_LD_25_RN_3_RD_10_0.png","img2/100/Congruent/R/C_Dist_100_LN_1_LD_2_RN_3_RD_5_1.png","img2/300/Congruent/L/C_Dist_300_LN_11_LD_22_RN_4_RD_20_0.png","img2/200/Incongruent/R/I_Dist_200_LN_9_LD_15_RN_8_RD_10_1.png","img2/200/Incongruent/R/I_Dist_200_LN_3_LD_10_RN_1_RD_2_1.png","img2/200/Congruent/L/C_Dist_200_LN_14_LD_28_RN_6_RD_20_0.png","img2/200/Incongruent/L/I_Dist_200_LN_7_LD_10_RN_14_RD_28_0.png","img2/100/Incongruent/R/I_Dist_100_LN_6_LD_12_RN_3_RD_5_1.png","img2/100/Incongruent/R/I_Dist_100_LN_12_LD_24_RN_9_RD_15_1.png","img2/300/Incongruent/L/I_Dist_300_LN_4_LD_5_RN_8_RD_16_0.png","img2/100/Congruent/R/C_Dist_100_LN_4_LD_10_RN_15_RD_30_1.png","img2/300/Incongruent/L/I_Dist_300_LN_3_LD_6_RN_4_RD_20_0.png","img2/300/Incongruent/L/I_Dist_300_LN_1_LD_2_RN_2_RD_10_0.png","img2/200/Incongruent/L/I_Dist_200_LN_1_LD_3_RN_2_RD_15_0.png","img2/200/Congruent/L/C_Dist_200_LN_12_LD_15_RN_6_RD_10_0.png","img2/300/Incongruent/L/I_Dist_300_LN_8_LD_10_RN_14_RD_28_0.png","img2/300/Incongruent/L/I_Dist_300_LN_1_LD_2_RN_2_RD_10_0.png","img2/200/Congruent/R/C_Dist_200_LN_9_LD_30_RN_13_RD_26_1.png","img2/300/Incongruent/L/I_Dist_300_LN_1_LD_2_RN_3_RD_15_0.png","img2/100/Incongruent/L/I_Dist_100_LN_3_LD_9_RN_7_RD_30_0.png","img2/300/Congruent/R/C_Dist_300_LN_2_LD_20_RN_10_RD_25_1.png","img2/300/Congruent/R/C_Dist_300_LN_5_LD_25_RN_7_RD_14_1.png","img2/200/Congruent/L/C_Dist_200_LN_8_LD_15_RN_2_RD_6_0.png","img2/200/Incongruent/L/I_Dist_200_LN_7_LD_10_RN_12_RD_24_0.png","img2/200/Congruent/R/C_Dist_200_LN_3_LD_10_RN_11_RD_22_1.png","img2/300/Incongruent/L/I_Dist_300_LN_4_LD_5_RN_8_RD_16_0.png","img2/200/Incongruent/R/I_Dist_200_LN_14_LD_30_RN_6_RD_9_1.png","img2/100/Incongruent/R/I_Dist_100_LN_13_LD_26_RN_6_RD_10_1.png","img2/300/Congruent/L/C_Dist_300_LN_12_LD_24_RN_2_RD_10_0.png","img2/300/Congruent/R/C_Dist_300_LN_3_LD_12_RN_11_RD_20_1.png","img2/200/Incongruent/L/I_Dist_200_LN_7_LD_10_RN_14_RD_28_0.png","img2/100/Congruent/R/C_Dist_100_LN_7_LD_14_RN_15_RD_25_1.png","img2/200/Congruent/R/C_Dist_200_LN_6_LD_12_RN_7_RD_10_1.png","img2/100/Congruent/L/C_Dist_100_LN_9_LD_15_RN_8_RD_16_0.png","img2/100/Congruent/L/C_Dist_100_LN_8_LD_16_RN_2_RD_5_0.png","img2/300/Congruent/R/C_Dist_300_LN_4_LD_20_RN_13_RD_26_1.png","img2/100/Incongruent/R/I_Dist_100_LN_8_LD_16_RN_6_RD_10_1.png","img2/100/Congruent/R/C_Dist_100_LN_6_LD_12_RN_15_RD_25_1.png","img2/100/Congruent/L/C_Dist_100_LN_11_LD_22_RN_4_RD_10_0.png","img2/300/Incongruent/R/I_Dist_300_LN_13_LD_26_RN_12_RD_15_1.png","img2/100/Incongruent/R/I_Dist_100_LN_12_LD_30_RN_2_RD_4_1.png","img2/100/Congruent/R/C_Dist_100_LN_1_LD_2_RN_3_RD_5_1.png","img2/100/Congruent/L/C_Dist_100_LN_6_LD_20_RN_5_RD_25_0.png","img2/200/Congruent/L/C_Dist_200_LN_12_LD_15_RN_6_RD_10_0.png","img2/100/Congruent/R/C_Dist_100_LN_1_LD_2_RN_3_RD_5_1.png"],"dist100_C":[["C_Dist_100_LN_10_LD_25_RN_3_RD_10_0.png","C_Dist_100_LN_11_LD_22_RN_4_RD_10_0.png","C_Dist_100_LN_11_LD_22_RN_6_RD_15_0.png","C_Dist_100_LN_15_LD_25_RN_13_RD_26_0.png","C_Dist_100_LN_3_LD_6_RN_2_RD_5_0.png","C_Dist_100_LN_6_LD_20_RN_5_RD_25_0.png","C_Dist_100_LN_8_LD_16_RN_2_RD_5_0.png","C_Dist_100_LN_9_LD_15_RN_8_RD_16_0.png"],["C_Dist_100_LN_1_LD_2_RN_18_RD_30_1.png","C_Dist_100_LN_1_LD_2_RN_3_RD_5_1.png","C_Dist_100_LN_12_LD_30_RN_13_RD_26_1.png","C_Dist_100_LN_2_LD_5_RN_11_RD_22_1.png","C_Dist_100_LN_2_LD_5_RN_6_RD_12_1.png","C_Dist_100_LN_3_LD_20_RN_4_RD_16_1.png","C_Dist_100_LN_4_LD_10_RN_15_RD_30_1.png","C_Dist_100_LN_4_LD_8_RN_6_RD_10_1.png","C_Dist_100_LN_6_LD_12_RN_15_RD_25_1.png","C_Dist_100_LN_7_LD_14_RN_15_RD_25_1.png","C_Dist_100_LN_7_LD_14_RN_9_RD_15_1.png"]],"dist100_I":[["I_Dist_100_LN_1_LD_2_RN_8_RD_20_0.png","I_Dist_100_LN_2_LD_4_RN_6_RD_15_0.png","I_Dist_100_LN_2_LD_4_RN_8_RD_20_0.png","I_Dist_100_LN_3_LD_5_RN_11_RD_22_0.png","I_Dist_100_LN_3_LD_5_RN_8_RD_16_0.png","I_Dist_100_LN_3_LD_6_RN_4_RD_10_0.png","I_Dist_100_LN_3_LD_9_RN_7_RD_30_0.png","I_Dist_100_LN_4_LD_8_RN_8_RD_20_0.png","I_Dist_100_LN_6_LD_10_RN_11_RD_22_0.png","I_Dist_100_LN_6_LD_10_RN_13_RD_26_0.png","I_Dist_100_LN_6_LD_10_RN_7_RD_14_0.png","I_Dist_100_LN_9_LD_10_RN_20_RD_25_0.png","I_Dist_100_LN_9_LD_15_RN_13_RD_26_0.png","I_Dist_100_LN_9_LD_15_RN_14_RD_28_0.png"],["I_Dist_100_LN_10_LD_25_RN_8_RD_16_1.png","I_Dist_100_LN_10_LD_25_RN_9_RD_18_1.png","I_Dist_100_LN_11_LD_22_RN_9_RD_15_1.png","I_Dist_100_LN_12_LD_24_RN_9_RD_15_1.png","I_Dist_100_LN_12_LD_30_RN_2_RD_4_1.png","I_Dist_100_LN_13_LD_26_RN_12_RD_20_1.png","I_Dist_100_LN_13_LD_26_RN_6_RD_10_1.png","I_Dist_100_LN_17_LD_30_RN_10_RD_15_1.png","I_Dist_100_LN_6_LD_12_RN_3_RD_5_1.png","I_Dist_100_LN_8_LD_16_RN_6_RD_10_1.png","I_Dist_100_LN_8_LD_20_RN_1_RD_2_1.png","I_Dist_100_LN_9_LD_18_RN_6_RD_10_1.png"]],"dist100_S":[["E_Dist_100_LN_2_LD_12_RN_2_RD_30_0.png","E_Dist_100_LN_6_LD_10_RN_6_RD_12_0.png"],["E_Dist_100_LN_6_LD_12_RN_6_RD_10_1.png"]],"dist200_C":[["C_Dist_200_LN_11_LD_22_RN_3_RD_10_0.png","C_Dist_200_LN_12_LD_15_RN_6_RD_10_0.png","C_Dist_200_LN_12_LD_20_RN_6_RD_15_0.png","C_Dist_200_LN_14_LD_28_RN_6_RD_20_0.png","C_Dist_200_LN_15_LD_25_RN_4_RD_10_0.png","C_Dist_200_LN_16_LD_20_RN_12_RD_20_0.png","C_Dist_200_LN_16_LD_30_RN_9_RD_27_0.png","C_Dist_200_LN_20_LD_25_RN_9_RD_15_0.png","C_Dist_200_LN_21_LD_30_RN_2_RD_4_0.png","C_Dist_200_LN_4_LD_10_RN_3_RD_15_0.png","C_Dist_200_LN_4_LD_8_RN_3_RD_10_0.png","C_Dist_200_LN_6_LD_15_RN_3_RD_15_0.png","C_Dist_200_LN_7_LD_21_RN_2_RD_15_0.png","C_Dist_200_LN_8_LD_15_RN_2_RD_6_0.png","C_Dist_200_LN_8_LD_15_RN_3_RD_9_0.png","C_Dist_200_LN_8_LD_15_RN_7_RD_21_0.png","C_Dist_200_LN_9_LD_20_RN_4_RD_16_0.png"],["C_Dist_200_LN_1_LD_2_RN_21_RD_30_1.png","C_Dist_200_LN_13_LD_26_RN_14_RD_20_1.png","C_Dist_200_LN_3_LD_10_RN_11_RD_22_1.png","C_Dist_200_LN_3_LD_10_RN_14_RD_28_1.png","C_Dist_200_LN_3_LD_10_RN_7_RD_14_1.png","C_Dist_200_LN_3_LD_12_RN_9_RD_20_1.png","C_Dist_200_LN_3_LD_6_RN_14_RD_20_1.png","C_Dist_200_LN_5_LD_10_RN_14_RD_20_1.png","C_Dist_200_LN_6_LD_12_RN_7_RD_10_1.png","C_Dist_200_LN_6_LD_20_RN_11_RD_22_1.png","C_Dist_200_LN_7_LD_15_RN_18_RD_27_1.png","C_Dist_200_LN_9_LD_30_RN_13_RD_26_1.png"]],"dist200_I":[["I_Dist_200_LN_1_LD_2_RN_3_RD_10_0.png","I_Dist_200_LN_1_LD_3_RN_2_RD_15_0.png","I_Dist_200_LN_3_LD_4_RN_11_RD_20_0.png","I_Dist_200_LN_4_LD_5_RN_6_RD_10_0.png","I_Dist_200_LN_4_LD_6_RN_14_RD_30_0.png","I_Dist_200_LN_7_LD_10_RN_12_RD_24_0.png","I_Dist_200_LN_7_LD_10_RN_14_RD_28_0.png","I_Dist_200_LN_7_LD_10_RN_8_RD_16_0.png"],["I_Dist_200_LN_11_LD_20_RN_3_RD_4_1.png","I_Dist_200_LN_14_LD_30_RN_12_RD_18_1.png","I_Dist_200_LN_14_LD_30_RN_6_RD_9_1.png","I_Dist_200_LN_3_LD_10_RN_1_RD_2_1.png","I_Dist_200_LN_4_LD_30_RN_1_RD_3_1.png","I_Dist_200_LN_6_LD_20_RN_3_RD_6_1.png","I_Dist_200_LN_7_LD_15_RN_4_RD_6_1.png","I_Dist_200_LN_7_LD_15_RN_6_RD_9_1.png","I_Dist_200_LN_9_LD_15_RN_8_RD_10_1.png"]],"dist200_S":[["E_Dist_200_LN_3_LD_6_RN_3_RD_10_0.png"],["E_Dist_200_LN_3_LD_10_RN_3_RD_6_1.png"]],"dist300_C":[["C_Dist_300_LN_11_LD_22_RN_1_RD_5_0.png","C_Dist_300_LN_11_LD_22_RN_2_RD_10_0.png","C_Dist_300_LN_11_LD_22_RN_4_RD_20_0.png","C_Dist_300_LN_12_LD_24_RN_2_RD_10_0.png","C_Dist_300_LN_18_LD_20_RN_9_RD_15_0.png","C_Dist_300_LN_20_LD_25_RN_13_RD_26_0.png","C_Dist_300_LN_20_LD_25_RN_14_RD_28_0.png","C_Dist_300_LN_20_LD_25_RN_5_RD_10_0.png","C_Dist_300_LN_20_LD_25_RN_8_RD_16_0.png","C_Dist_300_LN_20_LD_25_RN_9_RD_18_0.png","C_Dist_300_LN_24_LD_30_RN_2_RD_4_0.png","C_Dist_300_LN_24_LD_30_RN_8_RD_16_0.png","C_Dist_300_LN_3_LD_6_RN_2_RD_10_0.png","C_Dist_300_LN_4_LD_10_RN_1_RD_10_0.png","C_Dist_300_LN_4_LD_5_RN_2_RD_4_0.png","C_Dist_300_LN_8_LD_16_RN_1_RD_5_0.png","C_Dist_300_LN_9_LD_10_RN_3_RD_5_0.png"],["C_Dist_300_LN_1_LD_20_RN_7_RD_20_1.png","C_Dist_300_LN_1_LD_3_RN_19_RD_30_1.png","C_Dist_300_LN_1_LD_30_RN_8_RD_24_1.png","C_Dist_300_LN_1_LD_5_RN_11_RD_22_1.png","C_Dist_300_LN_1_LD_5_RN_3_RD_6_1.png","C_Dist_300_LN_1_LD_5_RN_6_RD_12_1.png","C_Dist_300_LN_2_LD_10_RN_12_RD_24_1.png","C_Dist_300_LN_2_LD_20_RN_10_RD_25_1.png","C_Dist_300_LN_3_LD_12_RN_11_RD_20_1.png","C_Dist_300_LN_3_LD_6_RN_4_RD_5_1.png","C_Dist_300_LN_4_LD_20_RN_13_RD_26_1.png","C_Dist_300_LN_5_LD_25_RN_6_RD_12_1.png","C_Dist_300_LN_5_LD_25_RN_7_RD_14_1.png","C_Dist_300_LN_7_LD_14_RN_20_RD_25_1.png","C_Dist_300_LN_8_LD_15_RN_10_RD_12_1.png"]],"dist300_I":[["I_Dist_300_LN_1_LD_2_RN_2_RD_10_0.png","I_Dist_300_LN_1_LD_2_RN_3_RD_15_0.png","I_Dist_300_LN_2_LD_4_RN_6_RD_30_0.png","I_Dist_300_LN_3_LD_6_RN_4_RD_20_0.png","I_Dist_300_LN_4_LD_5_RN_6_RD_12_0.png","I_Dist_300_LN_4_LD_5_RN_8_RD_16_0.png","I_Dist_300_LN_7_LD_10_RN_8_RD_20_0.png","I_Dist_300_LN_8_LD_10_RN_14_RD_28_0.png","I_Dist_300_LN_8_LD_10_RN_9_RD_18_0.png"],["I_Dist_300_LN_13_LD_26_RN_12_RD_15_1.png","I_Dist_300_LN_4_LD_20_RN_2_RD_4_1.png"]],"dist300_S":[["E_Dist_300_LN_9_LD_12_RN_9_RD_20_0.png"],["E_Dist_300_LN_18_LD_30_RN_18_RD_20_1.png","E_Dist_300_LN_3_LD_10_RN_3_RD_5_1.png","E_Dist_300_LN_9_LD_20_RN_9_RD_12_1.png"]],"dist500_C":[["C_Dist_500_LN_10_LD_13_RN_7_RD_26_0.png","C_Dist_500_LN_10_LD_15_RN_4_RD_24_0.png","C_Dist_500_LN_12_LD_16_RN_3_RD_12_0.png","C_Dist_500_LN_12_LD_18_RN_4_RD_24_0.png","C_Dist_500_LN_15_LD_18_RN_5_RD_15_0.png","C_Dist_500_LN_15_LD_20_RN_1_RD_4_0.png","C_Dist_500_LN_18_LD_27_RN_1_RD_6_0.png","C_Dist_500_LN_20_LD_24_RN_1_RD_3_0.png","C_Dist_500_LN_20_LD_24_RN_3_RD_9_0.png","C_Dist_500_LN_20_LD_24_RN_7_RD_21_0.png","C_Dist_500_LN_20_LD_28_RN_3_RD_14_0.png","C_Dist_500_LN_21_LD_28_RN_6_RD_24_0.png","C_Dist_500_LN_22_LD_28_RN_2_RD_7_0.png","C_Dist_500_LN_25_LD_30_RN_9_RD_27_0.png","C_Dist_500_LN_4_LD_6_RN_1_RD_6_0.png","C_Dist_500_LN_5_LD_6_RN_2_RD_6_0.png","C_Dist_500_LN_6_LD_9_RN_1_RD_6_0.png","C_Dist_500_LN_7_LD_10_RN_1_RD_5_0.png","C_Dist_500_LN_8_LD_12_RN_1_RD_6_0.png","C_Dist_500_LN_8_LD_12_RN_4_RD_24_0.png"],["C_Dist_500_LN_1_LD_4_RN_12_RD_16_1.png","C_Dist_500_LN_1_LD_4_RN_9_RD_12_1.png","C_Dist_500_LN_1_LD_9_RN_11_RD_18_1.png","C_Dist_500_LN_10_LD_24_RN_22_RD_24_1.png","C_Dist_500_LN_2_LD_12_RN_10_RD_15_1.png","C_Dist_500_LN_2_LD_12_RN_12_RD_18_1.png","C_Dist_500_LN_2_LD_12_RN_4_RD_6_1.png","C_Dist_500_LN_2_LD_24_RN_7_RD_12_1.png","C_Dist_500_LN_2_LD_5_RN_18_RD_20_1.png","C_Dist_500_LN_2_LD_5_RN_9_RD_10_1.png","C_Dist_500_LN_2_LD_8_RN_12_RD_16_1.png","C_Dist_500_LN_2_LD_8_RN_21_RD_28_1.png","C_Dist_500_LN_3_LD_10_RN_4_RD_5_1.png","C_Dist_500_LN_3_LD_12_RN_15_RD_20_1.png","C_Dist_500_LN_3_LD_30_RN_6_RD_10_1.png","C_Dist_500_LN_3_LD_8_RN_14_RD_16_1.png","C_Dist_500_LN_4_LD_16_RN_15_RD_20_1.png","C_Dist_500_LN_4_LD_24_RN_12_RD_18_1.png","C_Dist_500_LN_5_LD_14_RN_6_RD_7_1.png","C_Dist_500_LN_7_LD_21_RN_20_RD_24_1.png","C_Dist_500_LN_7_LD_28_RN_12_RD_16_1.png","C_Dist_500_LN_7_LD_28_RN_9_RD_12_1.png","C_Dist_500_LN_9_LD_27_RN_20_RD_24_1.png"]],"dist500_I":[["I_Dist_500_LN_2_LD_3_RN_4_RD_24_0.png","I_Dist_500_LN_5_LD_6_RN_6_RD_18_0.png","I_Dist_500_LN_7_LD_8_RN_9_RD_24_0.png"],["I_Dist_500_LN_7_LD_21_RN_5_RD_6_1.png"]],"dist500_S":[["E_Dist_500_LN_6_LD_8_RN_6_RD_24_0.png"],["E_Dist_500_LN_2_LD_12_RN_2_RD_3_1.png","E_Dist_500_LN_6_LD_24_RN_6_RD_8_1.png"]]}},{"start_time":1551891214564,"click_time":1551891216837,"finger_time":1551891214696,"fix_duration":906.7939116225722,"trial":1,"RT":132,"MT":2141,"sideResp":2,"stimulus":[],"xmouse":[784,784,784,783,781,770,766,764,764,764,764,764,764,764,764,764,763,763,763,763,763,763,763,763,763,763,763,763,763,763,767,782,794,801,807,812,814,814,814,813,813,813,813,813,813,813,812,811,811,809,804,802,799,796,796,796,795,795,798,807,842,864,882,899,910,918,926,927,928,927,895,873,853,837,804,774,717,704,694,689,679,675,675,674,668,631,613,597,586,581,580,597,626,706,794,953,1149,1220,1263,1282,1287,1287,1285,1284,1284,1283,1270,1259,1247,1237,1224,1187,1167,1143],"ymouse":[639,639,639,641,645,671,680,683,683,683,683,683,683,683,683,683,684,684,684,684,684,684,684,684,684,684,684,684,684,684,684,684,684,684,684,684,685,685,686,686,686,686,686,686,686,686,686,686,686,686,684,682,681,678,675,672,652,637,620,603,555,530,507,487,471,455,425,413,398,379,310,246,207,181,144,117,58,40,28,22,11,8,8,8,8,8,12,19,29,38,45,71,88,114,135,158,166,166,162,153,149,138,133,129,123,116,100,95,93,91,89,84,78,72],"timestamp_mouse":[13,42,52,72,92,113,132,153,172,192,212,232,252,273,292,312,332,353,372,392,412,433,452,473,493,513,532,552,572,593,613,632,652,673,694,712,734,752,773,792,812,834,853,873,892,913,932,952,973,993,1014,1032,1052,1072,1092,1112,1133,1152,1173,1193,1213,1232,1253,1272,1294,1313,1334,1352,1373,1393,1413,1432,1452,1473,1492,1512,1533,1553,1574,1592,1613,1632,1653,1673,1693,1713,1732,1752,1773,1793,1812,1832,1852,1873,1893,1913,1932,1952,1972,1993,2012,2032,2052,2073,2093,2112,2132,2152,2172,2192,2212,2232,2253,2273],"xSR":741.5,"ySR":573.95,"xT1":424.9,"yT1":0,"xT2":1058.1,"yT2":0,"toosoon":0,"cond_shown":"Congruent","ratio_trial":300,"L_num":3,"L_den":6,"R_num":2,"R_den":10,"correct_side":1,"subjID":"julianadiazpadilla7","gender":"1","school":"6","age":"11"},{"start_time":1551891219671,"click_time":1551891223777,"finger_time":1551891221996,"fix_duration":1314.3010811364554,"trial":2,"RT":2325,"MT":1781,"sideResp":2,"stimulus":[],"xmouse":[787,788,789,789,789,789,789,789,789,789,789,789,789,789,789,788,788,787,787,787,787,787,787,787,787,787,787,787,787,787,787,787,787,787,787,787,787,787,787,787,787,787,787,787,787,787,787,787,787,787,787,787,787,787,787,787,787,787,787,787,787,787,787,787,787,787,787,787,787,787,787,787,787,787,787,787,787,787,787,787,787,787,787,787,787,787,787,787,787,787,787,787,787,787,787,787,787,787,787,787,787,787,787,787,787,787,787,788,788,788,789,789,789,785,777,763,732,723,714,707,703,700,700,699,697,695,695,693,690,686,676,673,670,666,659,644,638,632,626,617,616,611,607,600,589,575,572,572,571,571,569,569,569,569,568,566,564,563,559,556,552,536,532,531,530,530,528,527,525,522,521,512,509,506,506,506,517,530,550,582,671,837,904,951,984,1031,1039,1041,1041,1042,1045,1046,1048,1049,1051,1061,1069,1073,1077,1083,1086,1099,1102,1102,1102,1100],"ymouse":[649,648,648,648,648,648,648,647,647,647,647,647,647,647,647,646,645,645,645,645,645,645,645,645,645,645,645,645,645,645,645,645,645,645,645,645,645,645,645,645,645,645,645,645,645,645,645,645,645,645,645,645,645,645,645,645,645,645,645,645,645,645,645,645,645,645,645,645,645,645,645,645,645,645,645,645,645,645,645,645,645,645,645,645,645,645,645,645,645,645,645,645,645,645,645,645,645,645,645,645,645,645,645,645,645,644,643,640,638,636,633,623,618,608,593,577,543,530,518,506,495,475,469,464,457,441,430,416,401,390,370,365,364,361,358,346,340,333,326,312,309,292,281,264,250,230,225,221,217,213,201,199,196,194,192,189,187,185,182,181,179,172,171,171,171,171,171,171,171,170,169,167,167,167,169,176,198,213,225,235,248,272,278,280,280,272,267,263,260,256,251,246,240,233,227,207,194,182,171,155,148,121,113,106,100,92],"timestamp_mouse":[10,33,46,66,86,107,125,146,167,186,206,226,246,267,287,307,325,347,365,386,405,425,446,466,486,506,526,546,566,587,605,626,645,665,686,705,725,746,765,785,806,826,845,866,887,905,926,947,966,986,1006,1026,1045,1066,1085,1107,1125,1146,1165,1187,1205,1225,1246,1266,1285,1306,1327,1345,1366,1385,1406,1426,1445,1465,1486,1505,1526,1545,1566,1585,1606,1626,1646,1666,1686,1707,1726,1745,1765,1786,1805,1826,1846,1867,1885,1905,1925,1947,1966,1986,2006,2026,2046,2065,2086,2107,2125,2146,2165,2187,2205,2225,2245,2266,2285,2305,2325,2346,2365,2385,2405,2427,2445,2465,2485,2506,2525,2545,2566,2587,2606,2625,2645,2666,2685,2706,2725,2745,2766,2786,2805,2826,2845,2865,2886,2906,2925,2946,2965,2985,3006,3029,3045,3067,3086,3106,3125,3146,3166,3185,3205,3226,3246,3265,3285,3306,3325,3346,3365,3386,3406,3425,3446,3466,3485,3505,3525,3545,3566,3587,3606,3625,3645,3665,3686,3706,3725,3746,3765,3785,3806,3825,3845,3865,3886,3907,3925,3946,3965,3986,4005,4026,4046,4066,4086,4105],"xSR":741.5,"ySR":573.95,"xT1":424.9,"yT1":0,"xT2":1058.1,"yT2":0,"toosoon":0,"cond_shown":"Congruent","ratio_trial":300,"L_num":1,"L_den":5,"R_num":11,"R_den":22,"correct_side":2,"subjID":"julianadiazpadilla7","gender":"1","school":"6","age":"11"},{"start_time":1551891227774,"click_time":1551891229696,"finger_time":1551891229196,"fix_duration":317.9655611404868,"trial":3,"RT":1422,"MT":500,"sideResp":1,"stimulus":[],"xmouse":[775,771,771,770,769,768,768,768,768,768,768,768,766,765,765,765,765,765,765,765,764,764,764,764,763,762,762,762,762,762,762,762,762,762,762,762,762,762,762,763,763,763,764,764,764,764,764,764,764,764,764,764,764,764,764,764,764,764,764,764,764,764,764,764,764,764,764,764,764,764,764,775,791,791,791,791,791,791,788,780,751,683,658,636,622,613,613,613,611,604,589,549,538,534,532,527,524],"ymouse":[636,635,634,634,633,633,633,633,633,633,633,633,633,633,633,633,633,633,633,633,633,633,633,633,634,634,634,634,634,634,634,634,634,634,635,636,638,640,641,643,643,644,644,644,644,644,644,644,644,644,645,645,645,645,645,645,645,645,645,645,645,645,645,645,645,645,645,645,645,645,622,454,236,32,0,0,0,0,0,0,0,0,5,13,19,24,24,24,21,7,0,0,0,0,1,11,16],"timestamp_mouse":[2,31,42,62,84,102,123,143,163,184,203,223,243,263,283,303,323,343,363,382,403,422,442,463,484,502,522,542,562,582,602,623,643,662,682,703,722,742,763,782,802,822,842,862,883,902,923,942,962,982,1004,1022,1042,1062,1084,1104,1123,1143,1163,1183,1204,1222,1242,1263,1283,1302,1323,1342,1362,1382,1403,1422,1442,1464,1483,1504,1523,1542,1562,1582,1604,1623,1642,1663,1682,1703,1722,1742,1762,1782,1802,1822,1843,1862,1883,1903,1922],"xSR":741.5,"ySR":573.95,"xT1":424.9,"yT1":0,"xT2":1058.1,"yT2":0,"toosoon":0,"cond_shown":"Congruent","ratio_trial":100,"L_num":11,"L_den":22,"R_num":6,"R_den":15,"correct_side":1,"subjID":"julianadiazpadilla7","gender":"1","school":"6","age":"11"},{"start_time":1551891231628,"click_time":1551891232817,"finger_time":1551891232657,"fix_duration":250,"trial":4,"RT":1029,"MT":160,"sideResp":2,"stimulus":[],"xmouse":[782,782,782,782,782,782,782,782,782,782,782,782,782,782,782,782,782,782,782,782,782,782,782,782,782,782,782,782,782,782,782,782,782,782,782,782,782,782,782,782,782,782,782,782,782,782,782,783,796,813,831,872,947,987,1014,1038,1052,1063,1081,1088],"ymouse":[601,601,601,601,601,601,601,601,601,601,601,601,601,601,601,601,601,601,601,601,601,601,601,601,601,601,601,601,601,601,601,601,601,601,601,601,601,601,601,601,601,601,601,601,601,601,601,601,597,587,574,543,460,395,333,269,220,180,119,95],"timestamp_mouse":[15,35,48,69,88,108,128,148,168,189,208,230,250,268,288,310,330,349,368,388,409,429,448,468,488,509,528,548,568,588,608,628,648,669,689,708,729,748,768,788,809,829,850,869,889,909,928,949,968,990,1008,1029,1049,1068,1089,1108,1129,1148,1168,1188],"xSR":741.5,"ySR":573.95,"xT1":424.9,"yT1":0,"xT2":1058.1,"yT2":0,"toosoon":0,"cond_shown":"Congruent","ratio_trial":200,"L_num":3,"L_den":12,"R_num":9,"R_den":20,"correct_side":2,"subjID":"julianadiazpadilla7","gender":"1","school":"6","age":"11"},{"start_time":1551891234348,"click_time":1551891236216,"finger_time":1551891235697,"fix_duration":250,"trial":5,"RT":1349,"MT":519,"sideResp":2,"stimulus":[],"xmouse":[797,797,797,797,797,797,797,797,797,797,797,797,797,797,797,797,797,797,797,797,797,797,797,797,797,797,797,797,797,797,797,797,797,797,797,797,797,797,797,797,797,797,797,797,797,797,797,797,797,797,797,797,797,797,797,797,797,797,797,797,797,797,797,797,797,798,804,863,921,987,1056,1115,1180,1191,1196,1198,1199,1189,1186,1185,1185,1184,1181,1181,1181,1180,1176,1170,1167,1165,1163,1160,1159,1158],"ymouse":[610,610,610,610,610,610,610,610,610,610,610,610,610,610,610,610,610,610,610,610,610,610,610,610,610,610,610,610,610,610,610,610,610,610,610,610,610,610,610,610,610,610,610,610,610,610,610,610,610,610,610,610,610,610,610,610,610,610,610,610,610,610,610,610,609,609,606,564,516,452,371,289,143,105,86,75,68,37,20,11,0,0,0,0,0,1,12,23,27,31,34,39,40,41],"timestamp_mouse":[10,28,48,68,89,109,130,148,168,189,208,229,248,268,288,308,328,348,369,388,409,429,448,468,489,509,529,548,568,589,609,628,648,670,688,708,728,749,768,789,808,829,849,868,888,908,929,948,969,988,1008,1030,1048,1068,1089,1108,1129,1148,1168,1188,1209,1229,1248,1268,1288,1309,1329,1349,1368,1388,1409,1428,1448,1468,1488,1509,1529,1549,1569,1588,1608,1628,1648,1669,1688,1709,1728,1748,1768,1790,1809,1830,1848,1868],"xSR":741.5,"ySR":573.95,"xT1":424.9,"yT1":0,"xT2":1058.1,"yT2":0,"toosoon":0,"cond_shown":"Incongruent","ratio_trial":300,"L_num":13,"L_den":26,"R_num":12,"R_den":15,"correct_side":2,"subjID":"julianadiazpadilla7","gender":"1","school":"6","age":"11"},{"start_time":1551891239172,"click_time":1551891240277,"finger_time":1551891240116,"fix_duration":1414.4380410017534,"trial":6,"RT":944,"MT":161,"sideResp":1,"stimulus":[],"xmouse":[799,798,797,797,797,797,797,797,797,797,797,797,797,797,797,797,797,797,797,797,797,797,797,796,795,794,792,790,790,790,790,788,787,787,787,787,787,787,787,787,787,787,786,786,782,777,772,764,755,739,698,667,638,617,589,520],"ymouse":[609,610,611,611,611,611,611,611,611,611,611,611,611,611,611,611,611,611,611,611,611,611,611,611,611,609,606,605,604,603,602,599,598,598,598,597,597,597,597,597,597,597,595,595,591,584,577,566,549,523,438,368,293,225,157,26],"timestamp_mouse":[4,33,44,65,84,105,124,145,165,184,204,224,245,264,284,305,325,344,366,385,405,424,445,464,485,504,525,544,564,584,604,624,645,664,684,704,725,744,764,784,804,825,844,864,884,905,924,944,964,985,1006,1024,1044,1064,1085,1105],"xSR":741.5,"ySR":573.95,"xT1":424.9,"yT1":0,"xT2":1058.1,"yT2":0,"toosoon":0,"cond_shown":"Congruent","ratio_trial":200,"L_num":8,"L_den":15,"R_num":3,"R_den":9,"correct_side":1,"subjID":"julianadiazpadilla7","gender":"1","school":"6","age":"11"},{"start_time":1551891243926,"click_time":1551891245837,"finger_time":1551891245296,"fix_duration":868.7981383795684,"trial":7,"RT":1370,"MT":541,"sideResp":2,"stimulus":[],"xmouse":[771,771,771,771,771,771,771,771,771,771,771,771,771,771,771,771,771,771,771,771,771,771,771,771,771,771,771,771,771,771,771,771,771,771,771,771,771,771,771,771,771,771,771,771,771,771,771,771,771,771,771,771,771,771,771,771,771,771,771,771,771,771,771,771,771,771,771,771,834,881,914,951,991,1064,1088,1104,1113,1118,1139,1150,1158,1165,1172,1176,1180,1185,1187,1188,1188,1188,1188,1188,1182,1171,1161,1154],"ymouse":[653,653,653,653,653,653,653,653,653,653,653,653,653,653,653,653,653,653,653,653,653,653,653,653,653,653,653,653,653,653,653,653,653,653,653,653,653,653,653,653,653,653,653,653,653,653,653,653,653,653,653,653,653,653,653,653,653,653,653,653,653,653,653,653,653,653,653,651,554,485,427,365,326,296,289,281,274,261,219,200,178,157,123,113,107,102,100,99,99,99,96,93,84,77,71,67],"timestamp_mouse":[11,30,51,71,91,111,132,150,170,192,212,231,252,270,291,312,331,352,371,391,411,430,451,470,491,511,530,551,570,590,611,631,650,670,691,710,731,751,771,792,811,831,850,871,892,911,931,950,972,992,1010,1031,1051,1072,1090,1111,1130,1150,1171,1191,1210,1230,1252,1271,1290,1311,1331,1350,1370,1391,1410,1430,1451,1470,1491,1510,1531,1550,1571,1591,1612,1630,1651,1670,1690,1711,1731,1751,1771,1791,1812,1831,1851,1870,1890,1911],"xSR":741.5,"ySR":573.95,"xT1":424.9,"yT1":0,"xT2":1058.1,"yT2":0,"toosoon":0,"cond_shown":"Incongruent","ratio_trial":300,"L_num":1,"L_den":2,"R_num":3,"R_den":15,"correct_side":1,"subjID":"julianadiazpadilla7","gender":"1","school":"6","age":"11"},{"start_time":1551891248357,"click_time":1551891249836,"finger_time":1551891249536,"fix_duration":1319.4627072154888,"trial":8,"RT":1179,"MT":300,"sideResp":1,"stimulus":[],"xmouse":[771,771,771,771,772,772,772,772,772,772,772,772,772,772,772,772,772,772,772,772,772,772,772,772,772,772,772,772,772,772,772,772,772,772,772,772,772,772,772,772,772,772,772,772,772,772,772,772,772,772,772,772,772,772,773,763,752,743,739,737,730,727,723,719,716,708,702,691,677,656,627,557,530,516],"ymouse":[628,628,628,628,628,628,628,628,628,628,628,628,628,628,628,628,628,628,628,628,628,628,628,628,628,628,628,628,628,628,628,628,628,628,628,628,628,628,628,628,628,628,628,628,628,628,628,628,628,628,628,628,628,628,628,614,598,578,558,540,522,515,506,492,475,429,404,376,346,309,270,166,118,86],"timestamp_mouse":[19,39,59,79,100,120,141,160,180,200,219,239,260,280,299,319,340,360,381,399,421,440,459,479,499,519,540,561,579,600,619,639,659,679,699,720,739,760,780,800,819,840,860,880,899,919,939,959,979,999,1021,1039,1059,1079,1099,1119,1139,1159,1179,1199,1220,1239,1259,1280,1299,1320,1339,1359,1380,1400,1419,1439,1459,1479],"xSR":741.5,"ySR":573.95,"xT1":424.9,"yT1":0,"xT2":1058.1,"yT2":0,"toosoon":0,"cond_shown":"Congruent","ratio_trial":100,"L_num":3,"L_den":6,"R_num":2,"R_den":5,"correct_side":1,"subjID":"julianadiazpadilla7","gender":"1","school":"6","age":"11"},{"start_time":1551891251953,"click_time":1551891253877,"finger_time":1551891253436,"fix_duration":1255.7549424125284,"trial":9,"RT":1483,"MT":441,"sideResp":2,"stimulus":[],"xmouse":[775,775,775,775,775,775,775,775,775,775,775,775,775,775,775,775,775,775,775,775,775,775,775,775,775,775,775,775,775,775,775,775,775,775,775,775,775,775,775,775,775,775,775,775,775,775,775,775,775,775,775,775,775,775,775,775,775,775,775,775,775,775,775,775,775,775,775,775,775,775,775,786,810,830,859,892,921,993,1019,1038,1048,1058,1059,1059,1059,1059,1059,1059,1064,1070,1075,1075,1073,1073,1073,1073,1079],"ymouse":[662,662,662,662,662,662,662,662,662,662,662,662,662,662,662,662,662,662,662,662,662,662,662,662,662,662,662,662,662,662,662,662,662,662,662,662,662,662,662,662,662,662,662,662,662,662,662,662,662,662,662,662,662,662,662,662,662,662,662,662,662,662,662,662,662,662,662,662,662,662,662,659,646,630,606,578,552,468,431,404,384,352,332,312,296,279,223,199,177,158,143,125,120,119,118,115,98],"timestamp_mouse":[11,35,45,64,83,103,124,143,165,184,204,224,243,263,283,303,325,344,363,384,405,423,443,465,483,503,524,543,564,584,605,623,643,665,685,703,723,743,764,783,804,823,844,865,884,905,925,944,964,984,1003,1023,1043,1065,1083,1104,1123,1143,1164,1183,1203,1223,1244,1263,1284,1304,1323,1344,1364,1383,1403,1423,1443,1464,1483,1504,1524,1543,1564,1584,1604,1624,1643,1663,1683,1705,1724,1744,1763,1783,1804,1824,1843,1864,1883,1904,1924],"xSR":741.5,"ySR":573.95,"xT1":424.9,"yT1":0,"xT2":1058.1,"yT2":0,"toosoon":0,"cond_shown":"Incongruent","ratio_trial":300,"L_num":13,"L_den":26,"R_num":12,"R_den":15,"correct_side":2,"subjID":"julianadiazpadilla7","gender":"1","school":"6","age":"11"},{"start_time":1551891255095,"click_time":1551891257216,"finger_time":1551891256756,"fix_duration":396.23137540037544,"trial":10,"RT":1661,"MT":460,"sideResp":2,"stimulus":[],"xmouse":[786,786,786,786,786,786,786,786,786,786,786,786,786,786,786,786,786,786,786,786,786,786,786,786,786,786,786,786,786,786,786,786,786,786,786,786,786,786,786,786,786,786,786,786,786,786,786,786,786,786,786,786,786,786,786,786,786,786,786,786,786,786,786,786,786,786,786,786,786,786,786,786,786,786,786,786,786,786,786,786,786,785,785,784,780,778,775,773,773,773,777,786,801,822,865,897,928,954,975,993,1007,1014,1022,1032,1063,1079,1099],"ymouse":[633,633,633,633,633,633,633,633,633,633,633,633,633,633,633,633,633,633,633,633,633,633,633,633,633,633,633,633,633,633,633,633,633,633,633,633,633,633,633,633,633,633,633,633,633,633,633,633,633,633,633,633,633,633,633,633,633,633,633,633,633,633,633,633,633,633,633,633,633,633,633,633,633,633,633,629,625,619,612,600,592,585,578,569,543,524,505,486,470,447,441,439,435,431,411,391,368,341,307,251,204,192,184,170,133,110,83],"timestamp_mouse":[8,27,42,62,82,102,122,142,161,182,201,221,241,262,283,302,322,343,361,383,402,421,442,462,481,502,521,542,562,581,601,621,641,661,682,701,723,743,761,783,801,822,841,862,881,902,922,942,962,981,1001,1021,1041,1063,1081,1101,1121,1141,1161,1181,1201,1222,1242,1263,1281,1301,1321,1341,1361,1381,1402,1421,1441,1461,1482,1501,1521,1542,1561,1581,1602,1621,1641,1661,1682,1701,1722,1742,1761,1781,1801,1822,1841,1862,1882,1901,1921,1941,1962,1982,2001,2022,2041,2062,2083,2101,2121],"xSR":741.5,"ySR":573.95,"xT1":424.9,"yT1":0,"xT2":1058.1,"yT2":0,"toosoon":0,"cond_shown":"Congruent","ratio_trial":100,"L_num":4,"L_den":8,"R_num":6,"R_den":10,"correct_side":2,"subjID":"julianadiazpadilla7","gender":"1","school":"6","age":"11"},{"start_time":1551891258746,"click_time":1551891260357,"finger_time":1551891259736,"fix_duration":448.4844533295299,"trial":11,"RT":990,"MT":621,"sideResp":1,"stimulus":[],"xmouse":[816,816,816,816,816,816,816,816,816,816,816,816,816,816,816,816,816,816,816,816,816,816,816,816,816,816,816,816,816,816,816,816,816,816,816,816,816,816,816,816,816,816,816,816,816,816,816,811,797,774,749,722,665,632,607,576,578,587,594,596,596,596,594,592,589,587,586,583,581,576,570,566,558,552,545,539,530,528,526,525,524],"ymouse":[621,621,621,621,621,621,621,621,621,621,621,621,621,621,621,621,621,621,621,621,621,621,621,621,621,621,621,621,621,621,621,621,621,621,621,621,621,621,621,621,621,621,621,621,621,621,621,617,590,536,479,432,340,289,242,158,88,59,40,28,25,24,22,22,22,22,22,22,22,24,24,24,24,24,24,24,24,25,26,26,27],"timestamp_mouse":[11,33,50,70,91,110,131,152,170,191,210,230,250,270,290,310,330,350,370,392,410,430,450,470,491,512,530,550,570,590,610,631,650,670,690,712,731,751,770,792,810,830,851,871,892,910,930,951,970,990,1010,1030,1050,1071,1090,1111,1131,1150,1170,1190,1211,1232,1250,1270,1290,1310,1331,1351,1371,1391,1411,1430,1450,1470,1491,1510,1530,1550,1572,1590,1611],"xSR":741.5,"ySR":573.95,"xT1":424.9,"yT1":0,"xT2":1058.1,"yT2":0,"toosoon":0,"cond_shown":"Congruent","ratio_trial":300,"L_num":20,"L_den":25,"R_num":5,"R_den":10,"correct_side":1,"subjID":"julianadiazpadilla7","gender":"1","school":"6","age":"11"},{"start_time":1551891262304,"click_time":1551891263476,"finger_time":1551891263195,"fix_duration":426.23203038416636,"trial":12,"RT":891,"MT":281,"sideResp":2,"stimulus":[],"xmouse":[759,759,759,759,759,759,759,759,759,759,759,759,759,759,759,759,759,759,759,759,759,759,759,759,759,759,759,759,759,759,759,759,759,759,759,759,763,769,778,805,824,843,864,892,934,955,977,1001,1028,1060,1066,1068,1070,1071,1076],"ymouse":[634,634,634,634,634,634,634,634,634,634,634,634,634,634,634,634,634,634,634,634,634,634,634,634,634,634,634,634,634,634,634,634,634,634,634,634,633,626,615,577,552,531,504,465,387,345,306,254,206,149,134,121,109,101,74],"timestamp_mouse":[11,117,132,152,172,192,211,232,251,271,291,311,332,351,372,391,411,431,451,472,492,512,532,552,572,591,611,631,651,672,691,711,732,751,772,791,811,831,852,872,891,911,932,951,972,991,1011,1031,1051,1071,1091,1111,1131,1151,1172],"xSR":741.5,"ySR":573.95,"xT1":424.9,"yT1":0,"xT2":1058.1,"yT2":0,"toosoon":0,"cond_shown":"Incongruent","ratio_trial":100,"L_num":3,"L_den":5,"R_num":11,"R_den":22,"correct_side":1,"subjID":"julianadiazpadilla7","gender":"1","school":"6","age":"11"},{"start_time":1551891265529,"click_time":1551891266735,"finger_time":1551891266395,"fix_duration":1072.788602066989,"trial":13,"RT":866,"MT":340,"sideResp":2,"stimulus":[],"xmouse":[775,775,775,775,775,775,775,775,775,775,775,775,775,775,775,775,775,775,775,775,775,775,775,775,775,775,775,775,775,775,775,775,775,775,775,775,775,775,775,775,775,778,803,815,828,846,868,902,953,975,992,1004,1011,1019,1021,1022,1024,1036,1043,1054,1067],"ymouse":[605,605,605,605,605,605,605,606,606,606,606,606,606,606,606,606,606,606,606,606,606,606,606,606,606,606,606,606,606,606,606,606,606,606,606,606,606,606,606,606,607,607,590,572,543,480,407,295,184,151,128,109,96,85,84,83,80,69,65,60,58],"timestamp_mouse":[9,30,47,67,87,107,127,146,166,188,207,227,247,266,286,307,328,347,366,387,407,427,446,466,487,507,526,547,567,587,607,627,647,667,687,707,726,747,767,786,807,826,846,866,886,906,926,946,966,986,1006,1026,1046,1066,1086,1106,1126,1147,1166,1186,1206],"xSR":741.5,"ySR":573.95,"xT1":424.9,"yT1":0,"xT2":1058.1,"yT2":0,"toosoon":0,"cond_shown":"Incongruent","ratio_trial":200,"L_num":1,"L_den":2,"R_num":3,"R_den":10,"correct_side":1,"subjID":"julianadiazpadilla7","gender":"1","school":"6","age":"11"},{"start_time":1551891282387,"click_time":1551891284255,"finger_time":1551891283856,"fix_duration":250,"trial":14,"RT":1469,"MT":399,"sideResp":2,"stimulus":[],"xmouse":[808,808,808,808,808,808,808,808,808,808,808,808,808,808,808,808,808,808,799,781,781,781,781,781,781,781,781,781,781,781,781,781,781,781,781,781,781,781,781,781,781,781,781,781,781,781,781,781,781,781,781,781,781,781,781,781,781,781,781,781,781,781,781,781,781,781,781,781,781,781,781,787,808,895,1042,1119,1168,1215,1258,1330,1352,1363,1365,1365,1359,1343,1339,1334,1327,1312,1258,1222,1188,1156],"ymouse":[614,614,614,614,614,614,614,614,614,614,614,614,614,614,614,614,614,612,613,620,620,620,620,620,620,620,620,620,620,620,620,620,620,620,620,620,620,620,620,620,620,620,620,620,620,620,620,620,620,620,620,620,620,620,620,620,620,620,620,620,620,620,620,620,620,620,620,620,620,620,620,620,607,565,466,385,324,258,188,61,21,0,0,0,0,0,0,0,0,1,24,36,46,52],"timestamp_mouse":[8,28,48,68,88,108,128,148,168,188,208,228,248,268,289,308,328,348,368,388,408,428,449,470,488,509,528,549,569,589,608,629,649,669,688,708,728,749,768,788,808,828,848,869,889,909,928,948,968,988,1008,1028,1048,1069,1088,1108,1128,1149,1168,1188,1208,1228,1248,1268,1288,1308,1329,1348,1369,1388,1408,1428,1448,1469,1488,1508,1528,1549,1569,1588,1608,1628,1648,1668,1688,1709,1729,1748,1768,1788,1808,1829,1849,1868],"xSR":741.5,"ySR":573.95,"xT1":424.9,"yT1":0,"xT2":1058.1,"yT2":0,"toosoon":0,"cond_shown":"Congruent","ratio_trial":200,"L_num":9,"L_den":30,"R_num":13,"R_den":26,"correct_side":2,"subjID":"julianadiazpadilla7","gender":"1","school":"6","age":"11"},{"start_time":1551891289907,"click_time":1551891291296,"finger_time":1551891290995,"fix_duration":250,"trial":15,"RT":1088,"MT":301,"sideResp":1,"stimulus":[],"xmouse":[789,789,789,789,789,789,789,789,789,789,789,789,789,789,789,789,789,789,789,789,789,789,789,789,789,789,789,789,789,789,789,789,789,789,789,789,789,789,789,789,789,789,789,789,789,789,789,789,789,789,789,789,789,790,812,811,774,710,493,439,414,401,396,400,404,410,417,427,441,477],"ymouse":[629,629,629,629,629,629,629,629,629,629,629,629,629,629,629,629,629,629,629,629,629,629,629,629,629,629,629,629,629,629,629,629,629,629,629,629,629,629,629,629,629,629,629,629,629,629,629,629,629,629,629,629,629,612,529,462,400,332,163,116,93,73,56,21,5,0,0,0,0,4],"timestamp_mouse":[14,32,48,68,88,109,130,148,168,188,208,228,248,268,288,308,328,349,368,389,409,428,448,469,488,508,529,549,568,588,608,629,648,669,688,708,728,749,769,788,809,828,849,868,888,908,929,949,969,988,1008,1028,1049,1068,1088,1107,1127,1148,1168,1187,1208,1228,1248,1269,1288,1308,1329,1348,1368,1389],"xSR":741.5,"ySR":573.95,"xT1":424.9,"yT1":0,"xT2":1058.1,"yT2":0,"toosoon":0,"cond_shown":"Congruent","ratio_trial":100,"L_num":3,"L_den":6,"R_num":2,"R_den":5,"correct_side":1,"subjID":"julianadiazpadilla7","gender":"1","school":"6","age":"11"},{"start_time":1551891292686,"click_time":1551891294115,"finger_time":1551891293695,"fix_duration":250,"trial":16,"RT":1009,"MT":420,"sideResp":1,"stimulus":[],"xmouse":[793,793,793,793,793,793,793,793,793,793,793,793,793,793,793,793,793,793,793,793,793,793,793,793,793,793,793,793,793,793,793,793,793,793,793,793,793,793,793,793,793,793,793,793,793,793,793,793,789,786,762,741,706,660,617,568,562,560,554,550,549,549,549,549,549,549,549,548,544,533,526,524],"ymouse":[604,604,604,604,604,604,604,604,604,604,604,604,604,604,604,604,604,604,604,604,604,604,604,604,604,604,604,604,604,604,604,604,604,604,604,604,604,604,604,604,604,604,604,604,604,604,604,604,592,583,499,433,357,277,203,106,86,69,44,32,25,25,25,25,25,25,25,26,27,30,38,42],"timestamp_mouse":[10,39,50,69,90,109,129,149,169,190,209,230,249,269,289,309,329,349,369,390,409,429,450,470,490,509,530,549,569,590,609,630,650,669,690,709,730,750,770,789,809,830,849,869,889,909,929,949,970,989,1009,1029,1050,1070,1089,1109,1129,1149,1170,1189,1209,1229,1249,1270,1289,1309,1329,1349,1369,1389,1409,1429],"xSR":741.5,"ySR":573.95,"xT1":424.9,"yT1":0,"xT2":1058.1,"yT2":0,"toosoon":0,"cond_shown":"Congruent","ratio_trial":300,"L_num":3,"L_den":6,"R_num":2,"R_den":10,"correct_side":1,"subjID":"julianadiazpadilla7","gender":"1","school":"6","age":"11"},{"start_time":1551891295128,"click_time":1551891296496,"finger_time":1551891296115,"fix_duration":250,"trial":17,"RT":987,"MT":381,"sideResp":2,"stimulus":[],"xmouse":[748,748,748,748,748,748,748,748,748,748,748,749,750,751,752,752,752,752,752,752,752,752,752,752,752,752,752,752,752,752,752,754,756,756,756,756,756,756,756,757,758,759,770,779,789,798,807,813,817,819,821,822,825,827,828,830,834,850,857,863,871,880,889,913,933,962,1015,1040,1133],"ymouse":[637,637,637,637,637,637,637,637,637,639,639,640,640,640,640,640,640,640,640,640,640,640,640,640,640,640,640,640,640,640,640,639,638,638,638,638,638,638,638,637,636,635,628,623,616,606,593,584,577,573,571,570,565,562,560,558,553,535,527,517,503,489,473,427,384,331,235,198,35],"timestamp_mouse":[11,29,47,67,87,107,128,147,167,188,207,227,247,268,288,307,327,347,367,388,407,428,447,467,487,507,527,547,567,588,607,627,647,667,687,707,728,747,769,787,807,827,848,867,887,908,927,948,968,987,1007,1027,1047,1067,1087,1107,1128,1147,1167,1187,1207,1228,1247,1267,1287,1308,1327,1347,1368],"xSR":741.5,"ySR":573.95,"xT1":424.9,"yT1":0,"xT2":1058.1,"yT2":0,"toosoon":0,"cond_shown":"Incongruent","ratio_trial":200,"L_num":7,"L_den":10,"R_num":14,"R_den":28,"correct_side":1,"subjID":"julianadiazpadilla7","gender":"1","school":"6","age":"11"},{"start_time":1551891298531,"click_time":1551891300275,"finger_time":1551891300015,"fix_duration":1253.3571249013617,"trial":18,"RT":1484,"MT":260,"sideResp":2,"stimulus":[],"xmouse":[765,765,765,765,765,765,765,765,765,765,765,765,765,765,765,765,765,765,765,765,765,765,765,765,765,765,765,765,765,765,765,765,765,765,765,765,765,765,765,765,765,765,765,765,765,765,765,765,765,765,765,765,765,765,765,765,765,765,765,765,765,765,765,765,765,765,765,765,765,765,773,779,807,824,845,866,891,916,982,1007,1023,1037,1049,1071,1082,1094,1101,1112],"ymouse":[654,654,654,654,654,654,654,654,654,654,654,654,654,654,654,654,654,654,654,654,654,654,654,654,654,654,654,654,654,654,654,654,654,654,654,654,654,654,654,654,654,654,654,654,654,654,654,654,654,654,654,654,654,654,654,654,654,654,654,654,654,654,654,654,654,654,654,654,654,654,648,644,620,598,566,528,486,439,322,284,258,236,217,184,165,144,126,99],"timestamp_mouse":[10,34,45,64,84,104,124,144,164,185,204,224,245,265,284,305,325,344,365,385,404,424,445,465,484,504,524,545,564,584,605,624,644,664,684,705,725,744,764,784,804,825,845,864,885,904,925,944,964,985,1004,1024,1045,1064,1084,1105,1125,1144,1164,1185,1204,1224,1244,1265,1284,1305,1325,1344,1364,1384,1404,1424,1445,1464,1484,1504,1524,1544,1564,1584,1604,1624,1644,1664,1685,1704,1724,1744],"xSR":741.5,"ySR":573.95,"xT1":424.9,"yT1":0,"xT2":1058.1,"yT2":0,"toosoon":0,"cond_shown":"Incongruent","ratio_trial":300,"L_num":13,"L_den":26,"R_num":12,"R_den":15,"correct_side":2,"subjID":"julianadiazpadilla7","gender":"1","school":"6","age":"11"},{"start_time":1551891301846,"click_time":1551891303575,"finger_time":1551891303315,"fix_duration":250,"trial":19,"RT":1469,"MT":260,"sideResp":2,"stimulus":[],"xmouse":[802,802,802,802,802,802,802,802,802,802,802,802,802,802,802,802,802,802,802,802,802,802,802,802,802,802,802,802,802,802,802,802,802,802,802,802,802,802,802,802,802,802,802,802,802,802,802,802,802,802,802,802,802,802,802,802,802,802,802,802,802,802,802,802,802,802,802,802,802,802,802,806,819,826,840,862,888,956,993,1020,1042,1046,1057,1058,1059,1060,1061],"ymouse":[604,604,604,604,604,604,604,604,604,605,605,606,606,606,606,606,606,606,606,606,606,606,606,606,606,606,606,606,606,606,606,606,606,606,606,606,606,606,606,606,606,606,606,606,606,606,606,606,606,606,606,606,606,606,606,606,606,606,606,606,606,606,606,606,606,606,606,606,606,606,605,601,578,559,527,481,426,304,242,197,152,142,116,112,108,104,98],"timestamp_mouse":[11,30,49,70,89,109,130,149,169,190,209,229,249,269,290,310,329,349,370,389,409,429,449,469,490,509,529,549,570,590,610,629,649,669,689,710,729,750,769,789,810,830,849,870,889,909,930,949,969,989,1010,1029,1049,1069,1090,1110,1129,1149,1169,1190,1209,1229,1250,1269,1289,1309,1329,1349,1369,1389,1410,1429,1450,1469,1489,1510,1529,1549,1571,1590,1609,1629,1650,1669,1689,1709,1729],"xSR":741.5,"ySR":573.95,"xT1":424.9,"yT1":0,"xT2":1058.1,"yT2":0,"toosoon":0,"cond_shown":"Incongruent","ratio_trial":100,"L_num":6,"L_den":10,"R_num":7,"R_den":14,"correct_side":1,"subjID":"julianadiazpadilla7","gender":"1","school":"6","age":"11"},{"start_time":1551891305396,"click_time":1551891306915,"finger_time":1551891306796,"fix_duration":999.9742621543064,"trial":20,"RT":1400,"MT":119,"sideResp":2,"stimulus":[],"xmouse":[759,759,759,759,759,759,759,759,759,759,759,759,759,759,759,759,759,759,759,759,759,759,759,759,759,759,759,759,759,759,759,759,759,759,759,759,759,759,759,759,759,759,759,759,759,759,759,759,759,759,759,759,759,759,759,759,759,759,759,759,759,759,759,759,759,759,761,764,777,821,851,891,936,984,1043,1114,1151],"ymouse":[627,627,627,627,627,627,627,627,627,627,627,627,627,627,627,627,627,627,627,627,627,627,627,627,627,627,627,627,627,627,627,627,627,627,627,627,627,627,627,627,627,627,627,627,627,627,627,627,627,627,627,627,627,627,627,627,627,627,626,625,625,625,625,625,625,625,622,619,614,589,563,520,457,376,263,123,62],"timestamp_mouse":[1,34,39,59,79,100,120,140,159,180,199,219,239,260,280,299,320,339,359,379,399,419,439,460,479,499,519,539,560,580,600,621,640,660,680,699,719,739,760,780,800,820,839,859,880,899,920,940,959,979,999,1019,1040,1059,1080,1099,1120,1139,1159,1179,1199,1220,1240,1260,1279,1299,1319,1339,1359,1379,1400,1420,1440,1459,1479,1500,1519],"xSR":741.5,"ySR":573.95,"xT1":424.9,"yT1":0,"xT2":1058.1,"yT2":0,"toosoon":0,"cond_shown":"Incongruent","ratio_trial":100,"L_num":13,"L_den":26,"R_num":12,"R_den":20,"correct_side":2,"subjID":"julianadiazpadilla7","gender":"1","school":"6","age":"11"},{"start_time":1551891308374,"click_time":1551891309895,"finger_time":1551891309378,"fix_duration":496.52121551196046,"trial":21,"RT":1004,"MT":517,"sideResp":1,"stimulus":[],"xmouse":[794,794,794,794,794,794,794,794,794,794,794,794,794,794,794,794,794,794,794,794,794,794,794,794,794,794,794,794,794,794,794,794,794,794,794,794,794,794,794,797,797,800,800,801,801,801,801,801,803,804,809,809,809,809,803,796,782,774,761,746,724,688,669,650,630,564,541,526,520,517,517,517,516,515,511,498,494],"ymouse":[608,608,608,608,608,608,608,608,608,608,608,608,608,608,608,608,608,608,608,608,608,608,608,608,608,608,608,608,608,608,608,608,608,608,608,608,608,608,608,603,600,593,591,590,590,590,590,589,585,581,566,558,549,540,525,510,473,452,422,385,341,283,260,241,226,182,170,160,155,153,153,153,150,144,132,102,93],"timestamp_mouse":[11,34,42,61,82,101,121,141,161,182,202,221,241,261,281,301,321,341,362,382,401,422,441,461,482,501,521,541,561,581,601,622,641,661,682,701,721,742,761,781,801,821,842,862,881,901,922,941,961,981,1003,1021,1042,1062,1081,1101,1122,1141,1161,1181,1201,1221,1241,1262,1281,1302,1321,1341,1362,1381,1402,1422,1441,1461,1481,1501,1521],"xSR":741.5,"ySR":573.95,"xT1":424.9,"yT1":0,"xT2":1058.1,"yT2":0,"toosoon":0,"cond_shown":"Incongruent","ratio_trial":200,"L_num":11,"L_den":20,"R_num":3,"R_den":4,"correct_side":2,"subjID":"julianadiazpadilla7","gender":"1","school":"6","age":"11"},{"start_time":1551891311007,"click_time":1551891312955,"finger_time":1551891311395,"fix_duration":250,"trial":22,"RT":388,"MT":1560,"sideResp":2,"stimulus":[],"xmouse":[761,761,761,765,765,767,768,768,769,770,770,771,771,771,771,764,754,747,744,741,741,741,741,741,741,741,741,741,741,741,741,741,741,741,741,741,741,741,741,741,741,741,740,735,734,734,734,734,734,735,736,737,739,739,739,739,739,740,740,740,741,741,742,742,742,742,742,746,751,752,755,759,763,764,772,775,777,778,779,780,783,787,798,811,877,912,947,978,1013,1027,1039,1048,1056,1064,1085,1093,1101,1106],"ymouse":[649,649,649,649,649,647,647,646,646,645,645,644,644,644,639,634,626,622,621,621,621,621,621,621,621,621,621,621,621,621,621,621,621,621,621,621,621,621,621,621,621,621,621,622,622,622,623,624,626,629,631,631,631,631,631,631,631,631,631,631,631,631,631,631,631,631,631,631,631,631,631,631,631,631,631,631,631,631,631,629,625,619,605,585,503,465,422,381,324,300,279,262,242,224,163,135,109,87],"timestamp_mouse":[10,36,49,68,88,110,128,148,168,188,208,228,248,268,288,308,330,348,368,388,409,428,449,469,488,509,528,548,569,588,608,628,649,669,689,709,728,748,769,788,808,828,848,868,889,908,929,948,968,988,1008,1029,1048,1069,1088,1109,1129,1148,1168,1188,1209,1228,1248,1269,1288,1308,1328,1348,1369,1388,1408,1428,1448,1468,1488,1508,1528,1548,1569,1588,1608,1628,1649,1668,1689,1708,1729,1748,1769,1788,1808,1829,1849,1868,1889,1908,1929,1948],"xSR":741.5,"ySR":573.95,"xT1":424.9,"yT1":0,"xT2":1058.1,"yT2":0,"toosoon":0,"cond_shown":"Incongruent","ratio_trial":200,"L_num":14,"L_den":30,"R_num":6,"R_den":9,"correct_side":2,"subjID":"julianadiazpadilla7","gender":"1","school":"6","age":"11"},{"start_time":1551891314580,"click_time":1551891316315,"finger_time":1551891315776,"fix_duration":664.341353161365,"trial":23,"RT":1196,"MT":539,"sideResp":1,"stimulus":[],"xmouse":[797,797,797,797,797,797,797,797,797,797,797,797,797,797,797,797,797,797,797,797,797,797,797,797,797,797,797,797,797,797,797,797,797,797,797,797,797,797,797,797,797,797,797,797,797,797,797,797,797,797,797,797,797,797,797,797,797,787,777,754,739,725,701,673,648,619,611,605,601,599,599,599,597,594,573,563,555,550,543,529,526,525,525,525,525,525,524],"ymouse":[623,623,623,623,623,623,623,624,624,624,624,624,624,624,624,624,624,624,624,624,624,624,624,624,624,624,624,624,624,624,624,624,624,624,624,624,624,624,624,624,624,624,624,624,624,624,624,624,624,624,624,624,624,624,624,624,624,614,599,561,541,514,472,422,372,281,253,232,216,198,191,183,174,165,123,106,93,81,70,55,52,51,51,51,51,51,51],"timestamp_mouse":[19,35,55,76,95,116,135,157,176,195,215,235,256,276,295,315,335,356,375,395,415,435,456,476,495,515,535,556,575,595,615,635,656,675,696,715,736,756,775,797,816,835,856,875,895,915,936,956,976,996,1015,1037,1056,1075,1095,1115,1135,1155,1175,1196,1215,1235,1255,1276,1295,1315,1335,1356,1375,1395,1415,1436,1455,1475,1495,1515,1535,1555,1575,1595,1615,1635,1655,1675,1696,1715,1735],"xSR":741.5,"ySR":573.95,"xT1":424.9,"yT1":0,"xT2":1058.1,"yT2":0,"toosoon":0,"cond_shown":"Congruent","ratio_trial":100,"L_num":3,"L_den":6,"R_num":2,"R_den":5,"correct_side":1,"subjID":"julianadiazpadilla7","gender":"1","school":"6","age":"11"},{"start_time":1551891318572,"click_time":1551891320236,"finger_time":1551891319955,"fix_duration":775.3318440170758,"trial":24,"RT":1383,"MT":281,"sideResp":1,"stimulus":[],"xmouse":[774,774,774,774,774,774,774,774,774,774,774,774,774,774,774,774,775,776,776,776,776,776,776,776,776,776,776,776,776,776,776,776,776,776,778,778,780,780,781,781,781,782,782,782,782,782,782,782,783,783,783,783,783,783,783,783,783,783,783,783,783,783,783,783,783,783,783,783,776,756,718,689,657,632,620,612,611,610,609,609,601,580,547,516],"ymouse":[626,626,626,626,626,626,626,626,626,626,626,627,627,628,628,628,629,629,629,629,629,629,629,629,629,629,629,629,629,629,629,629,629,629,629,629,629,628,628,628,628,627,627,627,627,627,627,627,627,627,627,627,627,627,627,627,627,627,627,627,627,627,627,627,627,627,627,625,602,551,426,351,263,179,137,117,113,109,107,105,97,87,78,72],"timestamp_mouse":[10,36,43,63,84,103,124,143,164,183,203,223,244,263,284,303,323,343,363,383,403,423,443,464,485,503,523,543,564,584,603,624,644,663,684,703,723,743,763,783,803,823,843,863,884,905,923,943,963,984,1005,1024,1043,1063,1084,1103,1125,1143,1164,1183,1204,1224,1243,1263,1284,1303,1323,1343,1363,1383,1403,1423,1444,1463,1483,1503,1523,1543,1564,1583,1603,1623,1643,1663],"xSR":741.5,"ySR":573.95,"xT1":424.9,"yT1":0,"xT2":1058.1,"yT2":0,"toosoon":0,"cond_shown":"Congruent","ratio_trial":300,"L_num":20,"L_den":25,"R_num":9,"R_den":18,"correct_side":1,"subjID":"julianadiazpadilla7","gender":"1","school":"6","age":"11"},{"start_time":1551891321507,"click_time":1551891323115,"finger_time":1551891322855,"fix_duration":250,"trial":25,"RT":1348,"MT":260,"sideResp":2,"stimulus":[],"xmouse":[776,776,776,776,776,776,776,776,776,776,776,776,776,776,776,776,776,776,776,777,777,778,778,778,778,779,779,779,779,779,779,779,779,779,779,779,779,779,779,779,779,779,779,779,779,779,779,779,779,780,780,780,780,780,780,781,781,781,782,782,782,783,783,783,784,795,814,846,927,987,1047,1087,1108,1127,1132,1133,1133,1132,1126,1124,1119],"ymouse":[619,619,619,619,619,619,619,619,619,619,619,619,619,619,619,619,619,619,619,618,618,618,618,618,617,617,617,617,617,617,617,617,617,617,617,617,617,617,617,617,617,617,617,617,617,617,617,617,617,615,615,615,615,615,615,614,614,614,614,613,613,613,613,612,611,605,594,571,488,411,322,250,216,189,181,176,169,160,124,109,93],"timestamp_mouse":[14,37,48,69,88,108,128,148,168,188,208,228,249,268,288,308,329,348,368,388,408,428,449,468,489,508,528,548,569,588,608,628,648,668,688,708,728,748,768,788,808,828,849,869,888,908,929,948,968,988,1009,1027,1048,1067,1089,1109,1128,1148,1168,1188,1207,1228,1247,1268,1287,1308,1328,1348,1368,1388,1407,1428,1448,1469,1488,1509,1528,1548,1568,1588,1608],"xSR":741.5,"ySR":573.95,"xT1":424.9,"yT1":0,"xT2":1058.1,"yT2":0,"toosoon":0,"cond_shown":"Incongruent","ratio_trial":300,"L_num":13,"L_den":26,"R_num":12,"R_den":15,"correct_side":2,"subjID":"julianadiazpadilla7","gender":"1","school":"6","age":"11"},{"start_time":1551891325530,"click_time":1551891327555,"finger_time":1551891326994,"fix_duration":1452.6580186588585,"trial":26,"RT":1464,"MT":561,"sideResp":2,"stimulus":[],"xmouse":[770,770,770,770,770,770,770,770,770,770,770,770,770,770,770,770,770,770,770,770,770,770,770,770,770,770,770,770,770,770,770,770,770,770,770,770,770,770,770,770,770,770,770,770,770,770,770,770,770,770,770,770,770,770,770,770,770,770,770,770,770,770,770,770,770,770,770,770,770,770,770,770,769,769,769,769,769,769,770,777,794,825,877,889,900,908,920,969,991,1015,1042,1070,1124,1140,1147,1151,1153,1156,1156,1153,1150,1146],"ymouse":[594,594,594,594,594,594,594,594,594,594,594,594,594,594,594,594,594,594,594,594,594,594,594,594,594,594,594,594,594,594,594,594,594,594,594,594,594,594,594,594,594,594,594,594,594,594,594,594,594,594,594,594,594,594,594,594,594,594,594,594,594,594,594,594,594,594,594,594,594,594,594,594,591,573,550,539,538,538,536,520,489,445,385,367,348,338,325,290,279,268,256,241,206,189,181,174,164,143,135,124,109,98],"timestamp_mouse":[8,25,45,65,86,105,125,145,165,185,205,226,245,265,285,305,325,345,365,386,405,426,445,465,486,506,526,546,565,586,605,625,646,665,686,706,726,746,765,784,806,825,844,865,886,905,925,945,965,986,1005,1026,1044,1065,1086,1105,1125,1145,1165,1185,1206,1226,1245,1265,1285,1305,1325,1346,1365,1385,1406,1426,1445,1464,1485,1505,1525,1546,1566,1585,1605,1625,1645,1665,1685,1705,1726,1745,1765,1785,1806,1825,1845,1865,1886,1906,1925,1944,1966,1985,2005,2025],"xSR":741.5,"ySR":573.95,"xT1":424.9,"yT1":0,"xT2":1058.1,"yT2":0,"toosoon":0,"cond_shown":"Incongruent","ratio_trial":300,"L_num":13,"L_den":26,"R_num":12,"R_den":15,"correct_side":2,"subjID":"julianadiazpadilla7","gender":"1","school":"6","age":"11"},{"start_time":1551891330680,"click_time":1551891332955,"finger_time":1551891332475,"fix_duration":264.7341075273636,"trial":27,"RT":1795,"MT":480,"sideResp":1,"stimulus":[],"xmouse":[781,781,781,781,781,781,781,781,781,781,781,781,781,781,781,781,781,781,781,781,781,781,781,781,781,781,781,781,781,781,781,781,781,781,781,781,781,781,781,781,781,781,781,781,781,781,781,781,781,781,781,781,781,781,781,781,781,781,781,781,781,781,781,781,781,781,781,781,781,781,781,781,781,781,781,781,781,781,781,781,781,781,781,781,781,781,781,781,782,731,726,735,739,739,701,685,667,650,638,637,632,626,616,605,577,563,547,528,515,510,507,501,489,475],"ymouse":[655,655,655,655,655,655,655,655,655,655,655,655,655,655,655,655,655,655,655,655,655,655,655,655,655,655,655,655,655,655,655,655,655,655,655,655,655,655,655,655,655,655,655,655,655,655,655,655,655,655,655,655,655,655,655,655,655,655,655,655,655,655,655,655,655,655,655,655,655,655,655,655,655,655,655,655,655,655,655,655,655,655,655,655,655,655,655,655,653,639,629,591,546,493,366,309,266,221,175,165,156,154,150,147,142,141,138,136,134,133,127,116,100,82],"timestamp_mouse":[15,38,54,76,95,116,135,154,175,195,215,235,256,275,296,316,336,354,376,395,415,435,456,476,496,516,536,556,576,595,615,635,654,675,695,715,736,755,776,796,816,835,855,875,895,916,935,955,975,995,1015,1035,1055,1076,1095,1114,1136,1155,1175,1196,1215,1235,1255,1275,1296,1315,1335,1354,1375,1395,1415,1435,1456,1475,1495,1514,1536,1555,1576,1595,1615,1636,1656,1675,1695,1716,1736,1755,1775,1795,1815,1835,1855,1875,1895,1915,1935,1955,1975,1995,2016,2035,2055,2075,2095,2115,2135,2155,2176,2194,2216,2234,2255,2275],"xSR":741.5,"ySR":573.95,"xT1":424.9,"yT1":0,"xT2":1058.1,"yT2":0,"toosoon":0,"cond_shown":"Congruent","ratio_trial":200,"L_num":9,"L_den":20,"R_num":4,"R_den":16,"correct_side":1,"subjID":"julianadiazpadilla7","gender":"1","school":"6","age":"11"},{"start_time":1551891339699,"click_time":1551891341296,"finger_time":1551891340955,"fix_duration":501.93664232728906,"trial":28,"RT":1256,"MT":341,"sideResp":1,"stimulus":[],"xmouse":[793,793,793,793,793,793,793,793,793,793,793,793,793,793,793,793,793,793,793,793,793,793,793,793,793,793,793,793,793,793,793,793,793,793,793,793,793,793,793,793,793,793,793,793,793,793,793,793,793,793,793,793,793,793,793,793,793,793,793,793,793,797,799,785,751,715,673,640,570,550,537,534,534,534,532,532,531,531,526,521],"ymouse":[605,605,605,605,605,605,605,605,605,605,605,605,605,605,605,605,605,605,605,605,605,605,605,605,605,605,605,605,605,605,605,605,605,605,605,605,605,605,605,605,605,605,605,605,605,605,605,605,605,605,605,605,605,605,605,605,605,605,605,605,605,585,560,425,339,258,186,134,53,41,35,33,33,33,32,32,31,31,32,37],"timestamp_mouse":[22,40,56,76,96,116,136,156,177,208,217,236,256,276,295,316,336,356,376,396,416,437,455,476,496,516,536,555,576,596,616,636,657,677,695,716,737,755,777,796,817,835,856,877,897,917,936,957,976,996,1017,1036,1057,1077,1096,1116,1136,1156,1177,1195,1217,1237,1256,1276,1296,1316,1336,1357,1376,1397,1415,1436,1457,1476,1496,1516,1536,1557,1576,1596],"xSR":741.5,"ySR":573.95,"xT1":424.9,"yT1":0,"xT2":1058.1,"yT2":0,"toosoon":0,"cond_shown":"Congruent","ratio_trial":100,"L_num":9,"L_den":15,"R_num":8,"R_den":16,"correct_side":1,"subjID":"julianadiazpadilla7","gender":"1","school":"6","age":"11"},{"start_time":1551891345281,"click_time":1551891346495,"finger_time":1551891345975,"fix_duration":945.653388056226,"trial":29,"RT":694,"MT":520,"sideResp":2,"stimulus":[],"xmouse":[801,801,801,801,801,801,801,800,799,797,797,797,797,797,797,797,797,796,795,793,792,790,790,790,790,790,790,790,793,802,811,821,830,838,855,866,877,889,910,952,986,1009,1035,1053,1077,1082,1086,1089,1093,1101,1102,1102,1102,1102,1101,1098,1096,1095,1095,1095,1095],"ymouse":[602,602,602,602,603,603,603,604,605,606,606,606,606,606,606,606,606,607,607,608,609,610,610,610,610,610,610,610,609,603,596,590,583,578,563,554,545,536,521,489,457,426,389,360,322,309,299,287,276,243,230,210,187,166,141,130,123,114,108,102,80],"timestamp_mouse":[14,34,55,74,93,114,134,154,174,195,215,234,255,274,294,314,334,354,374,394,415,435,455,474,494,514,534,554,574,594,614,634,654,674,694,714,734,754,774,794,813,834,855,874,894,914,934,954,974,994,1014,1034,1055,1074,1094,1113,1134,1154,1175,1194,1214],"xSR":741.5,"ySR":573.95,"xT1":424.9,"yT1":0,"xT2":1058.1,"yT2":0,"toosoon":0,"cond_shown":"Incongruent","ratio_trial":300,"L_num":4,"L_den":5,"R_num":8,"R_den":16,"correct_side":1,"subjID":"julianadiazpadilla7","gender":"1","school":"6","age":"11"},{"start_time":1551891347466,"click_time":1551891349035,"finger_time":1551891348255,"fix_duration":250,"trial":30,"RT":789,"MT":780,"sideResp":1,"stimulus":[],"xmouse":[795,795,795,795,795,795,795,795,795,795,795,795,795,795,795,795,795,794,793,793,793,793,792,790,785,774,770,767,764,763,762,762,762,762,762,762,760,751,743,734,703,683,662,640,616,575,562,555,553,552,551,548,544,541,540,540,543,551,562,578,595,595,587,577,567,541,527,516,507,497,485,482,480,478,477,476,479,485,491],"ymouse":[632,632,632,632,632,632,632,632,632,632,632,632,632,632,632,632,632,632,632,632,632,632,632,630,624,613,609,606,603,602,602,602,602,602,602,602,601,598,594,592,581,572,561,545,525,489,479,473,471,470,469,459,441,418,385,320,296,277,261,243,229,227,226,223,218,198,184,172,160,145,128,122,119,117,116,116,107,101,96],"timestamp_mouse":[9,29,49,69,89,109,129,149,169,190,209,229,249,269,289,309,329,349,369,389,409,429,450,469,489,510,529,549,569,589,609,629,649,669,689,709,730,749,769,789,808,829,849,869,889,909,929,949,969,989,1008,1030,1049,1070,1089,1108,1129,1150,1169,1190,1209,1229,1250,1268,1290,1309,1329,1349,1369,1390,1409,1429,1449,1470,1489,1509,1530,1549,1569],"xSR":741.5,"ySR":573.95,"xT1":424.9,"yT1":0,"xT2":1058.1,"yT2":0,"toosoon":0,"cond_shown":"Congruent","ratio_trial":100,"L_num":3,"L_den":6,"R_num":2,"R_den":5,"correct_side":1,"subjID":"julianadiazpadilla7","gender":"1","school":"6","age":"11"},{"start_time":1551891350781,"click_time":1551891351836,"finger_time":1551891351376,"fix_duration":465.3455570777829,"trial":31,"RT":595,"MT":460,"sideResp":2,"stimulus":[],"xmouse":[774,774,774,774,774,774,774,774,774,774,774,774,774,774,774,774,774,774,774,774,774,774,774,774,774,774,774,776,784,826,850,873,895,926,970,991,1007,1022,1038,1054,1074,1081,1086,1094,1103,1125,1132,1138,1142,1145,1151,1151,1151],"ymouse":[617,617,617,617,617,617,617,617,617,617,617,617,617,617,617,617,617,617,617,617,617,617,617,617,617,617,617,615,606,571,550,532,511,480,425,397,371,344,321,305,283,274,264,250,236,198,181,165,151,140,113,100,81],"timestamp_mouse":[15,34,54,74,93,113,133,153,173,193,213,233,253,273,293,315,335,354,374,395,415,435,455,475,494,514,534,554,574,595,615,635,654,674,694,715,734,755,775,794,815,833,853,875,894,914,934,955,974,994,1014,1035,1055],"xSR":741.5,"ySR":573.95,"xT1":424.9,"yT1":0,"xT2":1058.1,"yT2":0,"toosoon":0,"cond_shown":"Incongruent","ratio_trial":100,"L_num":1,"L_den":2,"R_num":8,"R_den":20,"correct_side":1,"subjID":"julianadiazpadilla7","gender":"1","school":"6","age":"11"},{"start_time":1551891353237,"click_time":1551891359215,"finger_time":1551891353275,"fix_duration":381.9673242910663,"trial":32,"RT":38,"MT":5940,"sideResp":1,"stimulus":[],"xmouse":[763,756,754,752,751,750,744,744,744,744,744,744,753,754,754,754,754,760,770,783,792,795,795,795,795,795,798,806,814,821,827,834,848,852,853,853,854,854,854,852,851,845,821,809,799,793,786,784,783,783,783,783,783,783,783,783,783,783,779,778,776,773,772,772,772,772,772,772,772,772,772,772,774,777,778,779,780,783,786,790,797,799,807,807,807,807,807,807,807,807,807,807,807,807,807,807,807,807,807,807,807,807,807,807,807,807,807,807,807,807,807,807,807,807,807,807,807,807,807,807,807,807,807,807,807,807,807,807,807,807,807,807,807,807,807,807,807,807,807,807,807,807,807,807,807,807,807,807,807,807,807,807,807,807,807,807,807,807,807,807,807,807,807,807,807,807,807,807,807,807,807,807,807,807,807,807,807,807,807,807,807,807,807,807,807,807,807,807,807,807,807,807,807,807,807,807,807,807,807,807,807,807,807,807,807,807,807,807,807,807,807,807,807,807,807,807,807,807,807,807,807,807,807,807,807,807,807,807,807,807,807,807,807,807,807,807,807,807,807,807,807,807,807,807,807,807,807,807,807,807,807,807,807,807,807,807,807,807,807,807,807,807,807,807,807,807,807,807,807,807,807,807,807,794,767,750,745,783,789,789,776,759,753,753,753,752,729,693,649,616,608,556,530,510,500,495,490,469,457],"ymouse":[668,675,678,688,698,706,719,719,719,719,719,716,706,705,705,705,705,700,695,690,687,687,687,687,687,686,685,679,671,665,658,650,635,633,632,632,629,628,625,623,621,616,612,611,611,611,611,611,611,611,611,611,611,611,611,611,611,611,614,615,617,620,621,621,621,621,621,621,621,621,621,621,621,621,622,622,622,622,622,622,620,618,611,610,608,608,608,608,608,608,608,608,608,608,608,608,608,608,608,608,608,608,608,608,608,608,608,608,608,608,608,608,608,608,608,608,608,608,608,608,608,608,608,608,608,608,608,608,608,608,608,608,608,608,608,608,608,608,608,608,608,608,608,608,608,608,608,608,608,608,608,608,608,608,608,608,608,608,608,608,608,608,608,608,608,608,608,608,608,608,608,608,608,608,608,608,608,608,608,608,608,608,608,608,608,608,608,608,608,608,608,608,608,608,608,608,608,608,608,608,608,608,608,608,608,608,608,608,608,608,608,608,608,608,608,608,608,608,608,608,608,608,608,608,608,608,608,608,608,608,608,608,608,608,608,608,608,608,608,608,608,608,608,608,608,608,608,608,608,608,608,608,608,608,608,608,608,608,608,608,608,608,608,608,608,608,608,608,608,608,608,608,607,540,415,316,268,155,83,15,0,0,0,0,0,0,0,0,0,0,0,0,0,0,0,0,0,0,3],"timestamp_mouse":[18,38,58,78,98,118,152,158,178,197,218,238,258,278,298,318,338,359,378,398,418,438,458,478,497,518,539,558,578,598,619,637,658,678,698,718,738,758,779,798,818,838,858,878,898,918,938,957,979,999,1018,1039,1059,1078,1098,1119,1138,1158,1178,1199,1219,1238,1258,1279,1298,1319,1339,1358,1378,1398,1418,1438,1459,1477,1499,1518,1538,1558,1578,1598,1618,1637,1658,1678,1698,1718,1739,1758,1778,1798,1818,1839,1859,1878,1898,1918,1938,1957,1979,1999,2018,2038,2058,2078,2097,2119,2138,2158,2179,2198,2218,2238,2259,2278,2298,2318,2337,2359,2378,2398,2418,2438,2458,2478,2498,2518,2539,2558,2579,2597,2618,2638,2659,2679,2697,2718,2739,2759,2779,2797,2819,2839,2858,2879,2899,2918,2938,2959,2978,2999,3019,3038,3058,3078,3098,3118,3138,3157,3179,3198,3219,3238,3258,3278,3298,3319,3339,3358,3378,3398,3418,3438,3458,3478,3498,3519,3538,3558,3579,3598,3618,3639,3658,3678,3697,3719,3738,3758,3778,3798,3818,3837,3858,3877,3898,3918,3938,3958,3978,3998,4018,4038,4058,4078,4099,4118,4138,4158,4178,4198,4218,4238,4257,4278,4298,4318,4337,4358,4377,4399,4417,4438,4459,4479,4499,4518,4539,4558,4578,4598,4618,4639,4658,4678,4698,4717,4738,4759,4779,4799,4818,4838,4858,4878,4898,4918,4938,4958,4979,4998,5018,5038,5058,5079,5098,5118,5138,5158,5179,5199,5217,5237,5258,5279,5297,5318,5338,5358,5379,5399,5418,5438,5458,5478,5498,5518,5538,5558,5578,5599,5618,5638,5658,5679,5698,5718,5739,5758,5777,5798,5819,5838,5858,5879,5899,5919,5938,5957,5978],"xSR":741.5,"ySR":573.95,"xT1":424.9,"yT1":0,"xT2":1058.1,"yT2":0,"toosoon":0,"cond_shown":"Incongruent","ratio_trial":100,"L_num":8,"L_den":16,"R_num":6,"R_den":10,"correct_side":2,"subjID":"julianadiazpadilla7","gender":"1","school":"6","age":"11"},{"start_time":1551891361832,"click_time":1551891363555,"finger_time":1551891363296,"fix_duration":1134.4179174057208,"trial":33,"RT":1464,"MT":259,"sideResp":1,"stimulus":[],"xmouse":[753,753,754,754,754,755,756,757,763,766,767,769,770,770,770,770,770,770,770,770,770,770,770,770,770,770,770,770,770,770,770,770,770,770,770,770,770,770,770,770,770,770,770,770,770,770,770,770,770,770,770,770,770,770,770,770,770,770,770,770,770,770,770,770,770,770,770,770,770,770,768,763,745,744,741,730,707,633,583,533,489,463,458,458,458,458,458],"ymouse":[628,628,628,628,628,628,628,628,625,625,624,623,623,623,623,623,623,623,623,623,623,623,623,623,623,623,623,623,623,623,623,623,623,623,623,623,623,623,623,623,623,623,623,623,623,623,623,623,623,623,623,623,623,623,623,623,623,623,623,623,623,623,623,623,623,623,623,623,623,623,622,618,592,573,531,447,356,120,0,0,0,0,0,0,0,0,6],"timestamp_mouse":[8,23,43,64,83,103,123,143,162,183,203,223,243,264,283,304,324,343,363,384,403,423,444,464,483,504,524,544,562,582,603,624,643,664,682,704,723,742,763,783,804,823,843,863,882,904,923,943,964,984,1003,1023,1042,1063,1084,1103,1123,1143,1164,1183,1203,1223,1242,1263,1284,1303,1322,1344,1363,1384,1403,1423,1443,1464,1483,1503,1523,1543,1562,1583,1603,1624,1643,1664,1682,1704,1723],"xSR":741.5,"ySR":573.95,"xT1":424.9,"yT1":0,"xT2":1058.1,"yT2":0,"toosoon":0,"cond_shown":"Incongruent","ratio_trial":100,"L_num":8,"L_den":16,"R_num":6,"R_den":10,"correct_side":2,"subjID":"julianadiazpadilla7","gender":"1","school":"6","age":"11"},{"start_time":1551891365820,"click_time":1551891367136,"finger_time":1551891366635,"fix_duration":1403.5515965405282,"trial":34,"RT":815,"MT":501,"sideResp":2,"stimulus":[],"xmouse":[785,785,785,785,785,785,785,785,785,785,785,785,785,785,785,785,785,785,785,785,785,785,785,785,785,785,785,785,785,785,785,785,785,785,785,788,791,813,818,825,835,848,869,890,897,904,911,929,939,948,952,953,965,968,971,972,972,972,975,980,987,1005,1037,1049,1057,1067],"ymouse":[628,628,628,628,628,628,628,628,628,628,628,628,628,628,628,628,628,628,628,628,628,628,628,628,628,628,628,628,628,628,628,628,628,628,628,625,621,607,600,587,572,556,533,506,496,481,463,422,393,358,327,293,231,218,208,201,192,167,152,140,132,120,103,94,85,77],"timestamp_mouse":[16,35,55,80,95,116,135,155,175,196,215,235,255,275,295,316,334,356,376,395,415,436,455,475,495,516,535,555,576,595,616,635,656,676,695,714,735,755,775,795,815,835,855,876,895,915,935,955,975,995,1015,1036,1055,1075,1095,1116,1135,1155,1175,1196,1215,1236,1255,1275,1295,1316],"xSR":741.5,"ySR":573.95,"xT1":424.9,"yT1":0,"xT2":1058.1,"yT2":0,"toosoon":0,"cond_shown":"Incongruent","ratio_trial":100,"L_num":3,"L_den":5,"R_num":8,"R_den":16,"correct_side":1,"subjID":"julianadiazpadilla7","gender":"1","school":"6","age":"11"},{"start_time":1551891372608,"click_time":1551891374276,"finger_time":1551891373975,"fix_duration":1091.8683754665153,"trial":35,"RT":1367,"MT":301,"sideResp":2,"stimulus":[],"xmouse":[808,808,808,808,808,808,808,808,808,808,808,808,808,808,808,808,808,808,808,808,808,808,808,808,808,808,808,808,808,808,808,808,808,808,808,808,808,808,808,808,808,808,808,808,808,808,808,808,808,808,808,808,808,808,808,808,808,808,808,808,808,808,808,808,808,808,808,811,859,928,982,1011,1034,1069,1095,1099,1099,1098,1096,1096,1096,1096,1096,1097],"ymouse":[622,622,622,622,622,622,622,622,622,622,622,622,622,622,622,622,622,622,622,622,622,622,622,622,622,622,622,622,622,622,622,622,622,622,622,622,622,622,622,622,622,622,622,622,622,622,622,622,622,622,622,622,622,622,622,622,622,622,622,622,622,622,622,622,622,622,622,620,570,518,471,430,388,322,259,236,215,196,166,150,134,120,103,89],"timestamp_mouse":[10,31,47,68,87,108,128,147,167,186,207,228,247,267,288,308,327,348,368,387,408,426,448,468,487,508,527,547,568,586,607,627,648,666,688,707,727,747,767,787,808,827,848,866,887,908,927,947,968,987,1006,1027,1048,1068,1088,1106,1128,1146,1168,1187,1207,1227,1247,1266,1287,1308,1328,1347,1367,1387,1407,1426,1447,1467,1488,1507,1528,1547,1567,1588,1607,1627,1648,1667],"xSR":741.5,"ySR":573.95,"xT1":424.9,"yT1":0,"xT2":1058.1,"yT2":0,"toosoon":0,"cond_shown":"Incongruent","ratio_trial":200,"L_num":7,"L_den":10,"R_num":14,"R_den":28,"correct_side":1,"subjID":"julianadiazpadilla7","gender":"1","school":"6","age":"11"},{"start_time":1551891376624,"click_time":1551891377915,"finger_time":1551891377595,"fix_duration":1348.4785364010536,"trial":36,"RT":971,"MT":320,"sideResp":2,"stimulus":[],"xmouse":[811,811,811,811,811,811,811,811,811,811,811,811,810,809,809,809,809,809,809,809,809,809,809,809,809,809,809,809,809,809,809,809,809,809,809,809,809,809,809,809,809,810,818,820,822,825,829,838,871,884,901,908,927,965,987,1004,1015,1024,1026,1029,1031,1034,1049,1055,1062],"ymouse":[632,632,632,632,632,632,632,632,632,631,631,631,631,631,631,631,632,632,632,632,632,632,632,632,632,632,632,632,632,632,632,632,632,632,632,632,632,632,632,632,631,629,619,616,612,608,602,589,526,494,445,422,362,209,160,120,93,48,34,25,22,22,21,21,21],"timestamp_mouse":[11,34,51,72,91,112,132,152,171,191,211,232,251,271,291,311,331,351,371,391,412,431,451,471,491,512,532,551,572,591,611,632,651,672,692,711,732,751,771,792,811,832,852,872,892,912,931,951,971,991,1011,1031,1050,1072,1091,1111,1131,1151,1170,1192,1211,1231,1251,1271,1291],"xSR":741.5,"ySR":573.95,"xT1":424.9,"yT1":0,"xT2":1058.1,"yT2":0,"toosoon":0,"cond_shown":"Incongruent","ratio_trial":100,"L_num":1,"L_den":2,"R_num":8,"R_den":20,"correct_side":1,"subjID":"julianadiazpadilla7","gender":"1","school":"6","age":"11"},{"start_time":1551891389072,"click_time":1551891390533,"finger_time":1551891390154,"fix_duration":1497.6099086383667,"trial":37,"RT":1082,"MT":379,"sideResp":1,"stimulus":[],"xmouse":[787,790,791,792,792,792,792,792,792,792,792,792,792,792,792,792,792,792,792,792,792,792,792,792,792,792,792,792,792,792,792,792,792,792,792,792,792,792,792,792,792,792,792,792,792,792,792,792,792,792,792,790,780,760,733,681,527,451,381,267,225,158,159,162,165,193,215,241,270,307,377,421,427,430],"ymouse":[644,643,642,641,641,641,641,641,641,641,641,641,641,641,641,641,641,641,641,641,641,641,641,641,641,641,641,641,641,641,641,641,641,641,641,641,641,641,641,641,641,641,641,641,641,641,641,641,641,641,641,640,639,633,624,598,497,441,381,267,227,152,150,145,133,64,13,0,0,0,0,0,0,3],"timestamp_mouse":[9,33,41,61,82,101,121,142,163,182,203,221,242,261,283,301,322,343,361,382,402,421,443,462,481,501,523,542,562,581,601,621,641,661,683,702,721,741,761,781,801,821,842,861,881,901,921,942,961,981,1002,1023,1041,1062,1082,1102,1121,1142,1162,1181,1201,1221,1241,1261,1281,1301,1322,1342,1361,1382,1402,1422,1442,1461],"xSR":741.5,"ySR":573.95,"xT1":424.9,"yT1":0,"xT2":1058.1,"yT2":0,"toosoon":0,"cond_shown":"Congruent","ratio_trial":200,"L_num":6,"L_den":15,"R_num":3,"R_den":15,"correct_side":1,"subjID":"julianadiazpadilla7","gender":"1","school":"6","age":"11"},{"start_time":1551891394685,"click_time":1551891396274,"finger_time":1551891395794,"fix_duration":729.7333092496134,"trial":38,"RT":1109,"MT":480,"sideResp":2,"stimulus":[],"xmouse":[792,792,792,792,792,792,792,792,792,792,792,792,792,792,792,792,792,792,792,792,792,792,792,792,792,792,792,792,792,792,792,792,792,792,792,792,792,792,792,792,792,792,792,792,792,792,792,792,792,792,792,792,793,788,786,799,809,811,818,832,839,852,868,886,904,934,944,951,957,972,977,980,983,987,1012,1022,1033,1043,1052,1064],"ymouse":[635,635,635,635,635,635,635,635,635,635,635,635,635,635,635,635,635,635,635,635,635,635,635,635,635,635,635,635,635,635,635,635,635,635,635,635,635,635,635,635,635,635,635,635,635,635,635,635,635,635,635,635,633,627,607,562,507,478,445,411,396,371,330,285,245,175,146,124,103,67,60,57,53,52,51,53,58,60,60,58],"timestamp_mouse":[15,40,49,69,89,108,128,149,168,188,208,228,249,268,288,309,329,350,368,388,408,428,448,470,489,509,528,550,568,589,610,628,649,668,689,708,728,748,769,788,809,829,848,868,889,908,930,948,969,988,1009,1029,1048,1068,1089,1109,1129,1148,1169,1188,1208,1228,1249,1268,1288,1308,1328,1348,1368,1388,1408,1428,1448,1468,1488,1508,1529,1548,1569,1589],"xSR":741.5,"ySR":573.95,"xT1":424.9,"yT1":0,"xT2":1058.1,"yT2":0,"toosoon":0,"cond_shown":"Incongruent","ratio_trial":200,"L_num":14,"L_den":30,"R_num":12,"R_den":18,"correct_side":2,"subjID":"julianadiazpadilla7","gender":"1","school":"6","age":"11"},{"start_time":1551891398215,"click_time":1551891399613,"finger_time":1551891399273,"fix_duration":841.5285968483482,"trial":39,"RT":1058,"MT":340,"sideResp":2,"stimulus":[],"xmouse":[782,782,782,782,782,782,782,782,782,782,782,782,782,782,782,782,782,782,782,782,782,781,781,781,781,781,781,781,781,781,781,781,781,781,781,781,781,781,781,781,781,781,781,781,781,781,781,781,781,781,784,789,836,866,904,933,949,978,992,1005,1016,1031,1051,1080,1093,1106,1117,1124,1126,1126],"ymouse":[622,622,622,622,622,622,622,622,622,622,622,622,622,622,622,622,622,622,622,622,623,624,624,624,624,624,624,624,624,624,624,624,624,624,624,624,624,624,624,624,624,624,624,624,624,624,624,624,624,624,621,615,568,541,509,478,457,415,396,383,370,351,324,271,234,193,159,117,105,98],"timestamp_mouse":[18,39,59,78,98,120,140,159,178,198,219,238,258,279,300,318,339,360,378,399,419,438,459,480,499,518,538,560,579,598,619,639,658,679,699,718,739,758,778,799,819,839,858,880,900,919,939,958,979,1000,1018,1038,1058,1078,1098,1119,1138,1158,1178,1198,1218,1238,1258,1279,1298,1318,1339,1359,1378,1398],"xSR":741.5,"ySR":573.95,"xT1":424.9,"yT1":0,"xT2":1058.1,"yT2":0,"toosoon":0,"cond_shown":"Congruent","ratio_trial":200,"L_num":6,"L_den":15,"R_num":3,"R_den":15,"correct_side":1,"subjID":"julianadiazpadilla7","gender":"1","school":"6","age":"11"},{"start_time":1551891401245,"click_time":1551891402514,"finger_time":1551891401794,"fix_duration":371.765577514475,"trial":40,"RT":549,"MT":720,"sideResp":1,"stimulus":[],"xmouse":[767,767,767,767,767,769,775,784,789,796,797,798,798,798,798,798,798,799,800,800,800,800,800,800,801,805,836,853,867,874,880,887,890,892,895,896,898,898,898,898,898,898,898,898,898,898,896,851,776,704,633,529,432,393,369,356,351,351,351,352,354,385,403,427],"ymouse":[608,608,608,608,610,612,617,621,621,621,621,621,620,620,620,620,620,619,619,619,619,619,619,619,617,614,589,576,562,554,545,524,515,507,500,495,490,490,490,490,490,490,490,490,490,490,486,462,421,378,328,254,126,81,55,44,38,38,38,38,38,45,53,62],"timestamp_mouse":[11,37,48,69,88,108,128,148,169,188,208,228,249,269,289,309,329,348,368,388,408,428,450,469,488,508,528,549,569,588,609,628,648,668,689,708,729,749,768,788,809,830,849,868,888,908,928,948,968,988,1009,1029,1050,1069,1089,1108,1128,1148,1168,1190,1209,1229,1248,1269],"xSR":741.5,"ySR":573.95,"xT1":424.9,"yT1":0,"xT2":1058.1,"yT2":0,"toosoon":0,"cond_shown":"Incongruent","ratio_trial":300,"L_num":4,"L_den":20,"R_num":2,"R_den":4,"correct_side":2,"subjID":"julianadiazpadilla7","gender":"1","school":"6","age":"11"},{"start_time":1551891404934,"click_time":1551891406594,"finger_time":1551891406293,"fix_duration":759.187494514011,"trial":41,"RT":1359,"MT":301,"sideResp":1,"stimulus":[],"xmouse":[799,799,799,799,799,799,799,799,799,799,799,799,799,799,799,799,799,799,799,799,799,799,799,799,799,799,799,799,799,799,799,799,799,799,799,799,799,799,799,799,799,799,799,799,799,799,799,799,799,799,799,799,799,799,799,799,799,799,799,799,799,799,799,799,799,799,799,793,763,715,660,606,555,550,549,549,549,549,549,549,549,548,530,515],"ymouse":[611,611,611,611,611,611,611,611,611,611,611,611,611,611,611,611,611,611,611,611,611,611,611,611,611,611,611,611,611,611,611,611,611,611,611,611,611,611,611,611,611,611,611,611,611,611,611,611,611,611,611,611,611,611,611,611,611,611,611,611,611,611,611,611,611,611,611,603,549,469,390,309,186,155,138,131,130,130,130,128,125,118,89,74],"timestamp_mouse":[1,21,40,59,79,101,119,139,160,179,199,219,239,259,280,299,321,341,359,379,399,420,439,459,479,499,520,539,561,580,600,620,640,659,680,700,720,739,759,779,800,820,841,859,879,901,920,939,959,979,999,1020,1039,1059,1081,1099,1120,1139,1160,1179,1199,1219,1239,1261,1279,1300,1321,1339,1359,1380,1399,1419,1439,1461,1479,1500,1520,1539,1561,1579,1599,1619,1639,1660],"xSR":741.5,"ySR":573.95,"xT1":424.9,"yT1":0,"xT2":1058.1,"yT2":0,"toosoon":0,"cond_shown":"Congruent","ratio_trial":200,"L_num":7,"L_den":21,"R_num":2,"R_den":15,"correct_side":1,"subjID":"julianadiazpadilla7","gender":"1","school":"6","age":"11"},{"start_time":1551891416664,"click_time":1551891418093,"finger_time":1551891416714,"fix_duration":250,"trial":42,"RT":50,"MT":1379,"sideResp":2,"stimulus":[],"xmouse":[760,722,720,720,720,720,720,720,720,720,720,720,720,720,720,720,720,720,720,720,720,720,720,720,720,720,723,726,729,729,730,731,731,734,738,742,744,747,747,747,747,749,750,755,766,771,776,776,776,782,796,813,836,859,903,923,942,964,978,998,998,999,1002,1006,1027,1052,1065,1071,1074,1075,1080],"ymouse":[632,621,621,621,621,621,621,621,621,621,621,621,621,621,621,621,621,621,621,621,621,621,621,621,621,621,621,621,621,621,621,621,624,627,631,632,632,632,633,633,633,633,633,635,636,636,636,636,636,636,626,613,598,577,526,494,455,407,358,227,186,153,127,103,31,0,0,0,0,0,14],"timestamp_mouse":[31,50,69,91,110,129,149,169,190,210,230,249,270,290,310,329,350,369,389,409,430,450,469,490,510,529,551,569,590,610,629,649,669,689,709,729,749,770,790,810,830,849,869,889,909,929,949,970,991,1010,1030,1049,1070,1089,1109,1130,1149,1169,1189,1209,1229,1249,1269,1289,1309,1329,1349,1369,1389,1409,1429],"xSR":741.5,"ySR":573.95,"xT1":424.9,"yT1":0,"xT2":1058.1,"yT2":0,"toosoon":0,"cond_shown":"Incongruent","ratio_trial":200,"L_num":7,"L_den":10,"R_num":8,"R_den":16,"correct_side":1,"subjID":"julianadiazpadilla7","gender":"1","school":"6","age":"11"},{"start_time":1551891419845,"click_time":1551891421654,"finger_time":1551891421153,"fix_duration":629.0809689120182,"trial":43,"RT":1308,"MT":501,"sideResp":1,"stimulus":[],"xmouse":[794,794,794,793,793,793,793,792,792,792,792,792,792,791,791,791,791,791,791,791,791,791,791,791,791,791,791,791,791,791,791,791,791,791,791,791,791,791,791,791,791,791,791,791,791,791,791,791,791,791,791,791,791,791,791,791,791,791,791,791,791,791,791,784,753,682,559,528,516,515,519,530,530,530,531,531,531,526,524,523,520,504,498,496,494,494,494,492,490,488,488],"ymouse":[631,631,631,629,628,628,626,624,623,623,623,623,623,622,622,622,622,622,622,622,622,622,622,622,622,622,622,622,622,622,622,622,622,622,622,622,622,622,622,622,622,622,621,621,621,621,621,621,621,621,621,621,621,621,621,621,621,621,621,621,621,621,621,621,609,558,408,346,300,266,245,231,231,231,230,229,223,203,194,182,179,154,146,138,132,127,121,117,114,105,91],"timestamp_mouse":[8,28,49,69,90,108,128,150,170,188,208,230,248,269,288,308,328,348,368,388,409,428,448,469,488,510,528,548,569,588,609,628,648,669,690,708,728,750,768,788,808,828,848,868,889,908,928,948,968,988,1008,1028,1048,1068,1090,1109,1129,1150,1168,1188,1210,1229,1248,1268,1289,1308,1328,1348,1369,1388,1408,1428,1449,1468,1489,1508,1528,1548,1568,1588,1609,1629,1648,1668,1688,1708,1728,1748,1768,1789,1809],"xSR":741.5,"ySR":573.95,"xT1":424.9,"yT1":0,"xT2":1058.1,"yT2":0,"toosoon":0,"cond_shown":"Congruent","ratio_trial":200,"L_num":16,"L_den":20,"R_num":12,"R_den":20,"correct_side":1,"subjID":"julianadiazpadilla7","gender":"1","school":"6","age":"11"},{"start_time":1551891422707,"click_time":1551891424093,"finger_time":1551891423473,"fix_duration":250,"trial":44,"RT":766,"MT":620,"sideResp":1,"stimulus":[],"xmouse":[748,748,748,748,749,750,752,754,755,760,764,766,769,771,772,773,774,775,777,781,785,787,790,795,795,795,795,796,796,795,793,792,791,789,789,786,785,775,769,731,712,700,690,680,676,673,673,673,671,666,659,647,629,585,564,548,537,529,523,520,518,516,514,507,505,502,497,492,490,490],"ymouse":[656,656,656,656,656,658,659,659,659,659,659,659,659,659,659,659,659,659,658,654,652,651,649,647,646,646,646,646,642,639,636,635,634,632,628,621,610,578,554,471,437,413,392,362,346,331,320,307,275,262,249,232,212,179,167,160,155,152,148,145,141,138,134,124,121,117,113,109,103,93],"timestamp_mouse":[11,33,47,66,86,107,126,146,166,186,206,227,246,266,286,306,327,346,366,386,406,426,447,467,486,506,527,547,567,586,606,627,646,666,686,706,728,747,766,786,807,826,846,866,886,907,926,946,966,986,1008,1028,1046,1066,1086,1106,1126,1147,1166,1186,1207,1227,1246,1266,1286,1307,1327,1346,1366,1386],"xSR":741.5,"ySR":573.95,"xT1":424.9,"yT1":0,"xT2":1058.1,"yT2":0,"toosoon":0,"cond_shown":"Incongruent","ratio_trial":300,"L_num":1,"L_den":2,"R_num":3,"R_den":15,"correct_side":1,"subjID":"julianadiazpadilla7","gender":"1","school":"6","age":"11"},{"start_time":1551891426666,"click_time":1551891428353,"finger_time":1551891428054,"fix_duration":1371.037165010532,"trial":45,"RT":1388,"MT":299,"sideResp":1,"stimulus":[],"xmouse":[766,766,766,766,766,766,766,766,766,766,766,766,766,766,766,766,766,766,766,766,766,766,766,766,766,766,766,766,766,766,766,766,766,766,766,766,766,766,766,766,766,766,766,766,766,766,766,766,766,766,766,766,766,766,766,766,766,766,766,766,766,766,766,766,766,766,766,761,756,740,703,687,667,651,638,622,619,617,616,612,604,576,557,539,519],"ymouse":[618,618,618,618,618,618,618,618,618,618,618,618,618,618,618,618,618,618,618,618,618,618,618,618,618,618,618,618,618,618,618,618,618,618,618,618,618,618,618,618,618,618,618,618,618,618,618,618,618,618,618,618,618,618,618,618,618,618,618,618,618,618,618,618,618,618,618,605,592,559,500,465,409,332,248,151,133,121,114,104,86,53,38,28,17],"timestamp_mouse":[10,38,48,68,87,107,127,148,167,187,207,227,247,267,288,308,327,347,368,387,408,427,447,469,487,508,528,548,568,588,607,628,647,667,688,707,727,747,767,788,808,828,847,867,889,907,927,947,967,988,1008,1027,1047,1069,1089,1107,1127,1147,1168,1187,1208,1228,1248,1267,1287,1307,1327,1347,1367,1388,1408,1427,1448,1468,1487,1507,1527,1547,1568,1587,1607,1627,1647,1668,1687],"xSR":741.5,"ySR":573.95,"xT1":424.9,"yT1":0,"xT2":1058.1,"yT2":0,"toosoon":0,"cond_shown":"Congruent","ratio_trial":300,"L_num":3,"L_den":12,"R_num":11,"R_den":20,"correct_side":2,"subjID":"julianadiazpadilla7","gender":"1","school":"6","age":"11"},{"start_time":1551891429598,"click_time":1551891430633,"finger_time":1551891430393,"fix_duration":303.5264313293015,"trial":46,"RT":795,"MT":240,"sideResp":1,"stimulus":[],"xmouse":[792,792,796,799,799,799,799,799,799,799,799,799,799,799,799,799,799,799,799,799,799,799,799,799,799,799,799,799,799,798,796,790,780,771,771,769,768,765,759,734,710,690,665,599,574,553,537,528,518,502,498,495],"ymouse":[605,605,608,611,611,611,611,611,612,612,614,614,614,614,614,614,614,614,614,614,614,614,614,614,614,614,614,614,614,615,615,614,612,612,611,611,609,607,602,572,539,500,455,336,294,257,224,200,177,134,115,95],"timestamp_mouse":[33,35,55,75,97,115,135,155,175,196,215,237,256,275,296,315,336,356,375,397,415,435,456,476,496,515,536,555,575,595,615,635,655,675,696,716,736,755,775,795,816,835,856,875,896,916,936,955,975,996,1015,1035],"xSR":741.5,"ySR":573.95,"xT1":424.9,"yT1":0,"xT2":1058.1,"yT2":0,"toosoon":0,"cond_shown":"Incongruent","ratio_trial":200,"L_num":7,"L_den":10,"R_num":12,"R_den":24,"correct_side":1,"subjID":"julianadiazpadilla7","gender":"1","school":"6","age":"11"},{"start_time":1551891433304,"click_time":1551891435053,"finger_time":1551891434773,"fix_duration":348.70260525421327,"trial":47,"RT":1469,"MT":280,"sideResp":1,"stimulus":[],"xmouse":[790,790,790,790,790,790,790,790,790,790,790,790,790,790,790,790,790,790,790,790,790,790,790,790,790,790,790,790,790,790,790,790,790,790,790,790,790,790,790,790,790,790,790,790,790,790,790,790,790,790,790,790,790,790,790,790,790,790,790,790,790,790,790,790,790,790,790,790,790,790,790,790,789,789,763,726,663,612,576,566,561,557,551,533,521,514,510,505],"ymouse":[662,662,662,662,662,662,662,662,662,662,662,662,662,662,662,662,662,662,662,662,662,662,662,662,662,662,662,662,662,662,662,662,662,662,662,662,662,662,662,662,662,662,662,662,662,662,662,662,662,662,662,662,662,662,662,662,662,662,662,662,662,662,662,662,662,662,662,662,662,662,662,662,662,506,333,217,144,89,0,0,0,0,0,0,0,0,0,10],"timestamp_mouse":[14,37,49,70,91,111,129,149,171,190,210,230,249,270,291,310,330,351,369,390,410,429,450,470,489,510,529,551,569,589,611,629,650,669,691,709,731,750,769,789,810,829,850,870,889,910,930,949,969,991,1010,1029,1049,1069,1089,1109,1129,1151,1169,1190,1209,1229,1249,1269,1289,1310,1329,1349,1370,1389,1409,1429,1449,1469,1489,1509,1529,1550,1569,1589,1610,1630,1649,1670,1689,1710,1730,1749],"xSR":741.5,"ySR":573.95,"xT1":424.9,"yT1":0,"xT2":1058.1,"yT2":0,"toosoon":0,"cond_shown":"Incongruent","ratio_trial":300,"L_num":8,"L_den":10,"R_num":14,"R_den":28,"correct_side":1,"subjID":"julianadiazpadilla7","gender":"1","school":"6","age":"11"},{"start_time":1551891437707,"click_time":1551891438873,"finger_time":1551891438293,"fix_duration":812.2365407485598,"trial":48,"RT":586,"MT":580,"sideResp":1,"stimulus":[],"xmouse":[805,805,805,805,805,804,803,802,800,799,799,799,799,799,799,799,799,799,799,799,799,799,797,794,793,791,786,775,759,750,737,712,681,650,640,630,623,616,612,610,609,609,609,609,609,607,597,589,566,545,540,539,539,539,535,532,529,526,517],"ymouse":[605,605,605,605,605,605,605,605,605,606,606,606,606,606,606,606,606,606,606,606,606,606,606,606,605,604,602,595,577,562,542,509,468,417,400,379,357,338,313,276,258,244,233,201,181,163,130,120,102,93,91,91,91,89,82,79,79,77,75],"timestamp_mouse":[10,33,46,66,88,107,127,147,166,187,206,228,247,267,288,306,327,346,367,387,408,426,446,466,487,506,526,546,567,586,606,627,646,666,686,707,726,746,766,786,806,827,846,866,886,907,926,947,966,987,1006,1027,1047,1067,1086,1106,1126,1147,1166],"xSR":741.5,"ySR":573.95,"xT1":424.9,"yT1":0,"xT2":1058.1,"yT2":0,"toosoon":0,"cond_shown":"Incongruent","ratio_trial":300,"L_num":1,"L_den":2,"R_num":2,"R_den":10,"correct_side":1,"subjID":"julianadiazpadilla7","gender":"1","school":"6","age":"11"},{"start_time":1551891441164,"click_time":1551891442176,"finger_time":1551891441673,"fix_duration":1269.550933771708,"trial":49,"RT":509,"MT":503,"sideResp":1,"stimulus":[],"xmouse":[791,791,791,791,791,791,791,791,791,791,791,791,791,791,791,791,791,791,791,791,791,790,789,788,787,777,762,733,706,686,669,663,657,654,653,653,648,638,623,608,576,564,561,560,560,549,543,539,533,527,518],"ymouse":[609,609,609,609,609,609,609,609,609,609,609,609,609,609,609,609,609,609,609,609,609,609,608,603,594,551,527,490,458,434,391,375,363,357,357,355,340,315,286,260,198,178,170,167,162,139,126,115,106,99,90],"timestamp_mouse":[11,34,49,71,89,109,129,150,169,191,209,229,249,270,290,309,329,350,369,389,409,429,449,469,490,509,530,549,569,591,610,629,649,669,690,709,731,749,770,789,809,829,850,869,889,910,929,949,969,989,1012],"xSR":741.5,"ySR":573.95,"xT1":424.9,"yT1":0,"xT2":1058.1,"yT2":0,"toosoon":0,"cond_shown":"Congruent","ratio_trial":200,"L_num":1,"L_den":2,"R_num":21,"R_den":30,"correct_side":2,"subjID":"julianadiazpadilla7","gender":"1","school":"6","age":"11"},{"start_time":1551891444841,"click_time":1551891446114,"finger_time":1551891445613,"fix_duration":1246.9311703347162,"trial":50,"RT":772,"MT":501,"sideResp":1,"stimulus":[],"xmouse":[775,775,776,776,776,777,777,778,778,778,778,779,779,779,779,779,779,779,779,779,780,780,780,780,780,780,780,780,780,780,780,782,782,783,783,781,771,766,763,760,756,745,740,732,717,700,668,658,649,642,636,630,627,624,622,619,614,593,584,575,560,538,528,519],"ymouse":[606,606,607,607,607,608,608,609,609,609,609,610,610,610,610,610,610,610,610,610,610,608,608,608,607,607,607,607,607,606,605,604,603,601,600,596,582,577,573,567,559,537,521,498,463,422,349,326,305,283,264,244,232,220,208,200,187,157,148,138,124,107,101,94],"timestamp_mouse":[13,40,52,72,93,113,133,153,173,193,212,232,253,272,293,312,333,352,373,392,412,432,454,473,493,512,532,552,574,592,612,632,654,672,692,712,732,752,772,792,813,832,853,872,892,912,932,952,972,994,1013,1032,1053,1074,1092,1113,1132,1152,1172,1192,1212,1232,1252,1273],"xSR":741.5,"ySR":573.95,"xT1":424.9,"yT1":0,"xT2":1058.1,"yT2":0,"toosoon":0,"cond_shown":"Congruent","ratio_trial":300,"L_num":24,"L_den":30,"R_num":2,"R_den":4,"correct_side":1,"subjID":"julianadiazpadilla7","gender":"1","school":"6","age":"11"},{"start_time":1551891448304,"click_time":1551891450173,"finger_time":1551891449693,"fix_duration":1128.1102538718199,"trial":51,"RT":1389,"MT":480,"sideResp":1,"stimulus":[],"xmouse":[778,778,778,778,778,778,778,778,778,778,778,778,778,778,778,778,778,778,778,778,778,778,778,778,778,778,778,778,778,778,778,778,778,779,779,779,779,779,779,779,781,783,785,790,791,792,792,792,792,792,792,792,792,792,792,792,792,792,792,792,792,792,790,785,781,778,774,764,748,713,709,706,703,701,692,685,674,652,639,618,593,563,519,480,478,478,478,478,479,481,484,488,491,492],"ymouse":[635,635,635,635,635,635,635,635,635,635,635,635,635,635,635,635,635,635,635,635,635,635,635,635,635,635,635,635,635,635,635,635,635,635,636,636,636,636,636,638,639,639,639,639,639,639,639,639,639,639,639,639,639,639,639,639,639,639,639,639,639,639,639,638,638,638,636,628,614,584,573,562,551,539,506,488,471,445,426,376,328,289,247,198,194,193,193,193,187,179,165,142,116,77],"timestamp_mouse":[21,32,50,69,89,109,129,149,169,189,209,229,249,269,289,309,329,349,369,389,409,429,450,470,489,510,530,550,569,591,611,629,649,670,691,711,730,750,771,789,809,830,849,870,890,910,929,951,969,991,1011,1031,1050,1069,1089