[{"start_time":1551794660852,"click_time":1551794664928,"finger_time":1551794664227,"fix_duration":1080.9286111280167,"trial":0,"RT":3375,"MT":701,"sideResp":2,"stimulus":"img/750/equaldotanddens/R/2_Ratio_750_L_6_R_8.png","xmouse":[791,791,791,791,791,791,791,791,791,791,791,791,791,791,791,791,791,791,791,791,791,791,791,791,791,791,791,791,791,791,791,791,791,791,791,791,791,791,791,791,791,791,791,791,791,791,791,791,791,791,791,791,791,791,791,791,791,791,791,791,791,791,791,791,791,791,791,791,791,791,791,791,791,791,791,791,791,791,791,791,791,791,791,791,791,791,791,791,791,791,791,791,791,791,791,791,791,791,791,791,791,791,791,791,791,791,791,791,791,791,791,791,791,791,791,791,791,791,791,791,791,791,791,791,791,791,791,791,791,791,791,791,791,791,791,791,791,791,791,791,791,791,791,791,791,791,791,791,791,791,791,791,791,791,791,791,791,791,791,791,791,791,791,791,791,795,809,838,854,876,906,938,963,969,976,987,1015,1054,1078,1097,1108,1112,1116,1117,1117,1118,1117,1102,1089,1074,1060,1034,1026,1022,1022,1022,1026,1038,1040,1043,1047,1061,1070,1082],"ymouse":[557,557,557,557,557,557,557,557,557,557,557,557,557,557,557,557,557,557,557,557,557,557,557,557,557,557,557,557,557,557,557,557,557,557,557,557,557,557,557,557,557,557,557,557,557,557,557,557,557,557,557,557,557,557,557,557,557,557,557,557,557,557,557,557,557,557,557,557,557,557,557,557,557,557,557,557,557,557,557,557,557,557,557,557,557,557,557,557,557,557,557,557,557,557,557,557,557,557,557,557,557,557,557,557,557,557,557,557,557,557,557,557,557,557,557,557,557,557,557,557,557,557,557,557,557,557,557,557,557,557,557,557,557,557,557,557,557,557,557,557,557,557,557,557,557,557,557,557,557,557,557,557,557,557,557,557,557,557,557,557,557,557,557,557,548,537,515,487,480,467,445,412,364,347,329,313,290,263,247,234,224,220,216,214,213,212,209,200,190,180,166,136,125,120,118,117,116,118,118,118,118,109,104,95],"timestamp_mouse":[15,46,56,75,95,116,135,155,176,195,215,236,254,275,296,315,334,355,375,394,416,436,455,475,495,516,535,554,575,596,615,635,655,676,695,715,736,756,776,795,816,836,854,876,895,915,934,954,975,996,1016,1034,1055,1076,1094,1115,1136,1155,1175,1196,1215,1235,1255,1275,1294,1315,1335,1354,1375,1394,1416,1436,1455,1476,1496,1515,1536,1554,1575,1595,1616,1635,1655,1675,1696,1715,1736,1755,1776,1796,1815,1835,1856,1874,1895,1916,1937,1957,1976,1995,2015,2036,2056,2076,2095,2115,2136,2155,2177,2195,2217,2235,2255,2275,2296,2315,2335,2355,2375,2396,2415,2435,2457,2475,2495,2517,2536,2555,2576,2595,2616,2635,2655,2675,2696,2715,2736,2755,2776,2795,2816,2835,2855,2876,2896,2916,2937,2957,2976,2996,3015,3036,3057,3076,3096,3116,3135,3155,3177,3197,3216,3235,3255,3276,3296,3316,3335,3355,3375,3395,3416,3436,3455,3475,3495,3515,3537,3555,3576,3595,3616,3635,3655,3676,3695,3715,3737,3755,3777,3795,3815,3837,3855,3877,3895,3915,3935,3956,3975,3995,4015,4036,4055,4075],"xSR":741.5,"ySR":501.8,"xT1":424.9,"yT1":0,"xT2":1058.1,"yT2":0,"toosoon":0,"cond_shown":"equaldotanddens","ratio_trial":750,"smaller_num":"6","larger_num":"8","correct_side":2,"subjID":"julianadelmarortiz7","gender":"1","age":"11","school":"6","test":{"fix_dur":[250,1500],"timestim":300,"targets_dim":[100,100],"targets_relative_coord":[0.3,0.7],"size_stim":[880,420],"start_dim":[100,100],"size_start":[300,300],"size_fix":60,"samplingrate":20,"img_types":["equaldotsize","equaldotanddens","randomdotsizeEA"],"ratios":[250,500,750,900],"rep_conds":9,"nTrials":120,"trials_to_rest":500,"Trials_order":[115,78,39,77,116,25,21,3,15,32,37,53,4,66,63,79,19,105,62,71,102,100,7,92,76,91,106,89,118,2,40,18,103,41,57,8,88,30,9,47,84,108,17,35,64,36,90,101,0,83,93,85,49,44,110,31,80,45,112,24,6,10,96,58,74,46,75,38,72,22,43,27,70,11,107,12,26,95,86,50,68,5,33,82,51,109,34,117,69,1,111,56,60,13,94,29,98,54,14,104,42,61,81,97,67,59,87,65,99,73,28,20,16,52,114,113,48,55,119,23],"cond_shown":["equaldotanddens","equaldotsize","equaldotsize","randomdotsizeEA","randomdotsizeEA","equaldotanddens","equaldotsize","equaldotsize","equaldotsize","randomdotsizeEA","equaldotanddens","randomdotsizeEA","equaldotanddens","equaldotsize","equaldotsize","equaldotanddens","equaldotanddens","equaldotsize","randomdotsizeEA","randomdotsizeEA","equaldotsize","equaldotanddens","equaldotanddens","randomdotsizeEA","equaldotanddens","equaldotanddens","equaldotanddens","randomdotsizeEA","equaldotanddens","randomdotsizeEA","equaldotanddens","equaldotsize","equaldotanddens","randomdotsizeEA","equaldotsize","randomdotsizeEA","equaldotanddens","equaldotsize","equaldotsize","randomdotsizeEA","equaldotsize","equaldotsize","randomdotsizeEA","randomdotsizeEA","equaldotanddens","equaldotsize","equaldotsize","randomdotsizeEA","equaldotsize","randomdotsizeEA","equaldotsize","equaldotanddens","equaldotanddens","randomdotsizeEA","randomdotsizeEA","equaldotanddens","randomdotsizeEA","equaldotsize","equaldotanddens","equaldotsize","equaldotsize","equaldotanddens","equaldotsize","equaldotanddens","randomdotsizeEA","equaldotanddens","equaldotsize","randomdotsizeEA","equaldotsize","equaldotanddens","equaldotanddens","equaldotsize","equaldotanddens","randomdotsizeEA","randomdotsizeEA","equaldotsize","randomdotsizeEA","randomdotsizeEA","randomdotsizeEA","randomdotsizeEA","randomdotsizeEA","randomdotsizeEA","equaldotsize","equaldotanddens","equaldotsize","equaldotanddens","equaldotanddens","equaldotsize","equaldotsize","equaldotanddens","equaldotsize","randomdotsizeEA","equaldotsize","equaldotanddens","equaldotanddens","randomdotsizeEA","randomdotsizeEA","equaldotsize","randomdotsizeEA","randomdotsizeEA","equaldotsize","equaldotanddens","equaldotsize","equaldotanddens","equaldotanddens","randomdotsizeEA","equaldotsize","randomdotsizeEA","equaldotsize","equaldotanddens","equaldotanddens","randomdotsizeEA","equaldotanddens","equaldotanddens","equaldotsize","randomdotsizeEA","equaldotsize","equaldotanddens","randomdotsizeEA","randomdotsizeEA"],"ratio_trial":[750,750,500,500,750,250,900,500,500,750,250,500,500,750,500,750,750,900,250,900,750,500,750,750,500,750,900,500,900,250,500,750,750,500,900,750,500,750,900,900,250,250,500,900,500,250,750,500,250,900,900,250,250,750,250,750,750,900,500,250,750,900,250,900,250,900,500,250,250,900,750,500,900,900,900,250,250,900,250,250,750,500,900,900,500,250,900,900,900,250,500,750,250,250,900,500,250,750,250,750,750,250,900,250,750,900,500,500,500,250,500,750,500,500,750,500,250,750,900,900],"smaller_num":["6","15","9","9","9","2","18","10","9","6","6","10","6","3","2","3","6","18","5","18","6","5","3","9","6","3","18","9","18","3","9","6","18","2","9","15","9","12","9","18","2","1","10","18","9","6","3","10","2","18","9","2","5","3","2","15","12","9","1","5","6","9","3","9","2","18","1","3","6","18","3","5","18","18","9","5","6","18","3","5","3","2","9","18","6","3","18","9","18","2","2","3","3","2","18","10","5","12","6","9","6","3","9","3","15","18","6","5","4","2","6","3","2","6","6","2","6","3","9","9"],"larger_num":["8","20","18","18","12","8","20","20","18","8","24","20","12","4","4","4","8","20","20","20","8","10","4","12","12","4","20","18","20","12","18","8","24","4","10","20","18","16","10","20","8","4","20","20","18","24","4","20","8","20","10","8","20","4","8","20","16","10","2","20","8","10","12","10","8","20","2","12","24","20","4","10","20","20","10","20","24","20","12","20","4","4","10","20","12","12","20","10","20","8","4","4","12","8","20","20","20","16","24","12","8","12","10","12","20","20","12","10","8","8","12","4","4","12","8","4","24","4","10","10"],"correct_side":[2,2,1,2,2,1,1,2,2,1,2,2,1,1,2,1,1,1,2,1,1,2,1,2,1,2,1,2,1,1,1,1,1,1,1,2,1,2,2,2,2,2,2,1,2,2,1,2,1,1,2,1,2,1,1,1,2,1,2,2,1,1,2,2,1,2,2,1,2,2,1,1,1,1,2,2,1,2,2,2,2,1,2,2,1,1,2,1,1,1,2,2,1,1,2,2,2,2,1,2,2,1,2,1,2,2,1,1,1,1,1,2,2,1,1,2,1,2,1,2],"img_shown":["img/750/equaldotanddens/R/2_Ratio_750_L_6_R_8.png","img/750/equaldotsize/R/4_Ratio_750_L_15_R_20.png","img/500/equaldotsize/L/4_Ratio_500_L_18_R_9.png","img/500/randomdotsizeEA/R/1_Ratio_500_L_9_R_18.png","img/750/randomdotsizeEA/R/15_Ratio_750_L_9_R_12.png","img/250/equaldotanddens/L/3_Ratio_250_L_8_R_2.png","img/900/equaldotsize/L/8_Ratio_900_L_20_R_18.png","img/500/equaldotsize/R/3_Ratio_500_L_10_R_20.png","img/500/equaldotsize/R/1_Ratio_500_L_9_R_18.png","img/750/randomdotsizeEA/L/14_Ratio_750_L_8_R_6.png","img/250/equaldotanddens/R/6_Ratio_250_L_6_R_24.png","img/500/randomdotsizeEA/R/3_Ratio_500_L_10_R_20.png","img/500/equaldotanddens/L/11_Ratio_500_L_12_R_6.png","img/750/equaldotsize/L/9_Ratio_750_L_4_R_3.png","img/500/equaldotsize/R/9_Ratio_500_L_2_R_4.png","img/750/equaldotanddens/L/9_Ratio_750_L_4_R_3.png","img/750/equaldotanddens/L/13_Ratio_750_L_8_R_6.png","img/900/equaldotsize/L/2_Ratio_900_L_20_R_18.png","img/250/randomdotsizeEA/R/12_Ratio_250_L_5_R_20.png","img/900/randomdotsizeEA/L/8_Ratio_900_L_20_R_18.png","img/750/equaldotsize/L/13_Ratio_750_L_8_R_6.png","img/500/equaldotanddens/R/14_Ratio_500_L_5_R_10.png","img/750/equaldotanddens/L/10_Ratio_750_L_4_R_3.png","img/750/randomdotsizeEA/R/15_Ratio_750_L_9_R_12.png","img/500/equaldotanddens/L/11_Ratio_500_L_12_R_6.png","img/750/equaldotanddens/R/7_Ratio_750_L_3_R_4.png","img/900/equaldotanddens/L/8_Ratio_900_L_20_R_18.png","img/500/randomdotsizeEA/R/1_Ratio_500_L_9_R_18.png","img/900/equaldotanddens/L/8_Ratio_900_L_20_R_18.png","img/250/randomdotsizeEA/L/15_Ratio_250_L_12_R_3.png","img/500/equaldotanddens/L/4_Ratio_500_L_18_R_9.png","img/750/equaldotsize/L/13_Ratio_750_L_8_R_6.png","img/750/equaldotanddens/L/6_Ratio_750_L_24_R_18.png","img/500/randomdotsizeEA/L/5_Ratio_500_L_4_R_2.png","img/900/equaldotsize/L/1_Ratio_900_L_10_R_9.png","img/750/randomdotsizeEA/R/3_Ratio_750_L_15_R_20.png","img/500/equaldotanddens/L/4_Ratio_500_L_18_R_9.png","img/750/equaldotsize/R/11_Ratio_750_L_12_R_16.png","img/900/equaldotsize/R/3_Ratio_900_L_9_R_10.png","img/900/randomdotsizeEA/R/12_Ratio_900_L_18_R_20.png","img/250/equaldotsize/R/13_Ratio_250_L_2_R_8.png","img/250/equaldotsize/R/8_Ratio_250_L_1_R_4.png","img/500/randomdotsizeEA/R/3_Ratio_500_L_10_R_20.png","img/900/randomdotsizeEA/L/4_Ratio_900_L_20_R_18.png","img/500/equaldotanddens/R/6_Ratio_500_L_9_R_18.png","img/250/equaldotsize/R/6_Ratio_250_L_6_R_24.png","img/750/equaldotsize/L/10_Ratio_750_L_4_R_3.png","img/500/randomdotsizeEA/R/3_Ratio_500_L_10_R_20.png","img/250/equaldotsize/L/3_Ratio_250_L_8_R_2.png","img/900/randomdotsizeEA/L/10_Ratio_900_L_20_R_18.png","img/900/equaldotsize/R/15_Ratio_900_L_9_R_10.png","img/250/equaldotanddens/L/3_Ratio_250_L_8_R_2.png","img/250/equaldotanddens/R/12_Ratio_250_L_5_R_20.png","img/750/randomdotsizeEA/L/8_Ratio_750_L_4_R_3.png","img/250/randomdotsizeEA/L/1_Ratio_250_L_8_R_2.png","img/750/equaldotanddens/L/1_Ratio_750_L_20_R_15.png","img/750/randomdotsizeEA/R/11_Ratio_750_L_12_R_16.png","img/900/equaldotsize/L/1_Ratio_900_L_10_R_9.png","img/500/equaldotanddens/R/15_Ratio_500_L_1_R_2.png","img/250/equaldotsize/R/12_Ratio_250_L_5_R_20.png","img/750/equaldotsize/L/14_Ratio_750_L_8_R_6.png","img/900/equaldotanddens/L/1_Ratio_900_L_10_R_9.png","img/250/equaldotsize/R/9_Ratio_250_L_3_R_12.png","img/900/equaldotanddens/R/3_Ratio_900_L_9_R_10.png","img/250/randomdotsizeEA/L/7_Ratio_250_L_8_R_2.png","img/900/equaldotanddens/R/13_Ratio_900_L_18_R_20.png","img/500/equaldotsize/R/12_Ratio_500_L_1_R_2.png","img/250/randomdotsizeEA/L/15_Ratio_250_L_12_R_3.png","img/250/equaldotsize/R/6_Ratio_250_L_6_R_24.png","img/900/equaldotanddens/R/12_Ratio_900_L_18_R_20.png","img/750/equaldotanddens/L/10_Ratio_750_L_4_R_3.png","img/500/equaldotsize/L/7_Ratio_500_L_10_R_5.png","img/900/equaldotanddens/L/2_Ratio_900_L_20_R_18.png","img/900/randomdotsizeEA/L/2_Ratio_900_L_20_R_18.png","img/900/randomdotsizeEA/R/6_Ratio_900_L_9_R_10.png","img/250/equaldotsize/R/12_Ratio_250_L_5_R_20.png","img/250/randomdotsizeEA/L/5_Ratio_250_L_24_R_6.png","img/900/randomdotsizeEA/R/14_Ratio_900_L_18_R_20.png","img/250/randomdotsizeEA/R/11_Ratio_250_L_3_R_12.png","img/250/randomdotsizeEA/R/12_Ratio_250_L_5_R_20.png","img/750/randomdotsizeEA/R/7_Ratio_750_L_3_R_4.png","img/500/randomdotsizeEA/L/10_Ratio_500_L_4_R_2.png","img/900/equaldotsize/R/3_Ratio_900_L_9_R_10.png","img/900/equaldotanddens/R/11_Ratio_900_L_18_R_20.png","img/500/equaldotsize/L/13_Ratio_500_L_12_R_6.png","img/250/equaldotanddens/L/15_Ratio_250_L_12_R_3.png","img/900/equaldotanddens/R/14_Ratio_900_L_18_R_20.png","img/900/equaldotsize/L/1_Ratio_900_L_10_R_9.png","img/900/equaldotsize/L/10_Ratio_900_L_20_R_18.png","img/250/equaldotanddens/L/3_Ratio_250_L_8_R_2.png","img/500/equaldotsize/R/9_Ratio_500_L_2_R_4.png","img/750/randomdotsizeEA/R/7_Ratio_750_L_3_R_4.png","img/250/equaldotsize/L/15_Ratio_250_L_12_R_3.png","img/250/equaldotanddens/L/1_Ratio_250_L_8_R_2.png","img/900/equaldotanddens/R/14_Ratio_900_L_18_R_20.png","img/500/randomdotsizeEA/R/3_Ratio_500_L_10_R_20.png","img/250/randomdotsizeEA/R/12_Ratio_250_L_5_R_20.png","img/750/equaldotsize/R/11_Ratio_750_L_12_R_16.png","img/250/randomdotsizeEA/L/5_Ratio_250_L_24_R_6.png","img/750/randomdotsizeEA/R/15_Ratio_750_L_9_R_12.png","img/750/equaldotsize/R/2_Ratio_750_L_6_R_8.png","img/250/equaldotanddens/L/14_Ratio_250_L_12_R_3.png","img/900/equaldotsize/R/3_Ratio_900_L_9_R_10.png","img/250/equaldotanddens/L/15_Ratio_250_L_12_R_3.png","img/750/equaldotanddens/R/3_Ratio_750_L_15_R_20.png","img/900/randomdotsizeEA/R/12_Ratio_900_L_18_R_20.png","img/500/equaldotsize/L/13_Ratio_500_L_12_R_6.png","img/500/randomdotsizeEA/L/7_Ratio_500_L_10_R_5.png","img/500/equaldotsize/L/8_Ratio_500_L_8_R_4.png","img/250/equaldotanddens/L/1_Ratio_250_L_8_R_2.png","img/500/equaldotanddens/L/11_Ratio_500_L_12_R_6.png","img/750/randomdotsizeEA/R/7_Ratio_750_L_3_R_4.png","img/500/equaldotanddens/R/9_Ratio_500_L_2_R_4.png","img/500/equaldotanddens/L/13_Ratio_500_L_12_R_6.png","img/750/equaldotsize/L/14_Ratio_750_L_8_R_6.png","img/500/randomdotsizeEA/R/9_Ratio_500_L_2_R_4.png","img/250/equaldotsize/L/5_Ratio_250_L_24_R_6.png","img/750/equaldotanddens/R/12_Ratio_750_L_3_R_4.png","img/900/randomdotsizeEA/L/1_Ratio_900_L_10_R_9.png","img/900/randomdotsizeEA/R/7_Ratio_900_L_9_R_10.png"],"Rat0":[["12_Ratio_0_L_9_R_0.png","13_Ratio_0_L_6_R_0.png","5_Ratio_0_L_2_R_0.png","6_Ratio_0_L_4_R_0.png","8_Ratio_0_L_6_R_0.png"],["1_Ratio_0_L_0_R_17.png","10_Ratio_0_L_0_R_22.png","11_Ratio_0_L_0_R_1.png","14_Ratio_0_L_0_R_24.png","15_Ratio_0_L_0_R_4.png","2_Ratio_0_L_0_R_5.png","3_Ratio_0_L_0_R_17.png","4_Ratio_0_L_0_R_7.png","7_Ratio_0_L_0_R_19.png","9_Ratio_0_L_0_R_15.png"]],"Rat250":[["1_Ratio_250_L_8_R_2.png","14_Ratio_250_L_12_R_3.png","15_Ratio_250_L_12_R_3.png","2_Ratio_250_L_16_R_4.png","3_Ratio_250_L_8_R_2.png","5_Ratio_250_L_24_R_6.png","7_Ratio_250_L_8_R_2.png"],["10_Ratio_250_L_4_R_16.png","11_Ratio_250_L_3_R_12.png","12_Ratio_250_L_5_R_20.png","13_Ratio_250_L_2_R_8.png","4_Ratio_250_L_3_R_12.png","6_Ratio_250_L_6_R_24.png","8_Ratio_250_L_1_R_4.png","9_Ratio_250_L_3_R_12.png"]],"Rat500":[["10_Ratio_500_L_4_R_2.png","11_Ratio_500_L_12_R_6.png","13_Ratio_500_L_12_R_6.png","4_Ratio_500_L_18_R_9.png","5_Ratio_500_L_4_R_2.png","7_Ratio_500_L_10_R_5.png","8_Ratio_500_L_8_R_4.png"],["1_Ratio_500_L_9_R_18.png","12_Ratio_500_L_1_R_2.png","14_Ratio_500_L_5_R_10.png","15_Ratio_500_L_1_R_2.png","2_Ratio_500_L_3_R_6.png","3_Ratio_500_L_10_R_20.png","6_Ratio_500_L_9_R_18.png","9_Ratio_500_L_2_R_4.png"]],"Rat750":[["1_Ratio_750_L_20_R_15.png","10_Ratio_750_L_4_R_3.png","13_Ratio_750_L_8_R_6.png","14_Ratio_750_L_8_R_6.png","6_Ratio_750_L_24_R_18.png","8_Ratio_750_L_4_R_3.png","9_Ratio_750_L_4_R_3.png"],["11_Ratio_750_L_12_R_16.png","12_Ratio_750_L_3_R_4.png","15_Ratio_750_L_9_R_12.png","2_Ratio_750_L_6_R_8.png","3_Ratio_750_L_15_R_20.png","4_Ratio_750_L_15_R_20.png","5_Ratio_750_L_15_R_20.png","7_Ratio_750_L_3_R_4.png"]],"Rat900":[["1_Ratio_900_L_10_R_9.png","10_Ratio_900_L_20_R_18.png","2_Ratio_900_L_20_R_18.png","4_Ratio_900_L_20_R_18.png","8_Ratio_900_L_20_R_18.png"],["11_Ratio_900_L_18_R_20.png","12_Ratio_900_L_18_R_20.png","13_Ratio_900_L_18_R_20.png","14_Ratio_900_L_18_R_20.png","15_Ratio_900_L_9_R_10.png","3_Ratio_900_L_9_R_10.png","5_Ratio_900_L_9_R_10.png","6_Ratio_900_L_9_R_10.png","7_Ratio_900_L_9_R_10.png","9_Ratio_900_L_18_R_20.png"]],"Rat1000":[["10_Ratio_1000_L_16_R_16.png","11_Ratio_1000_L_6_R_6.png","12_Ratio_1000_L_14_R_14.png","13_Ratio_1000_L_20_R_20.png","15_Ratio_1000_L_15_R_15.png","2_Ratio_1000_L_17_R_17.png","4_Ratio_1000_L_9_R_9.png","5_Ratio_1000_L_6_R_6.png","6_Ratio_1000_L_19_R_19.png","8_Ratio_1000_L_14_R_14.png","9_Ratio_1000_L_25_R_25.png"],["1_Ratio_1000_L_1_R_1.png","14_Ratio_1000_L_17_R_17.png","3_Ratio_1000_L_17_R_17.png","7_Ratio_1000_L_6_R_6.png"]]}},{"start_time":1551794667952,"click_time":1551794670269,"finger_time":1551794669467,"fix_duration":762.3708653997783,"trial":1,"RT":1515,"MT":802,"sideResp":2,"stimulus":"img/750/equaldotsize/R/4_Ratio_750_L_15_R_20.png","xmouse":[785,785,785,785,785,785,785,785,785,785,785,785,785,785,785,785,785,785,785,785,785,785,785,785,785,785,785,785,785,785,785,785,785,785,785,785,785,785,785,785,785,785,785,785,785,785,785,785,785,785,785,785,785,785,785,785,785,785,785,785,785,785,785,785,785,785,785,785,785,785,785,785,785,785,797,824,846,867,874,880,887,896,912,915,916,918,920,929,938,946,955,963,978,983,988,991,995,1005,1010,1014,1016,1020,1023,1025,1026,1028,1031,1036,1040,1045,1049,1051,1055,1056,1058,1060],"ymouse":[506,506,506,506,506,506,506,506,506,506,506,506,506,506,506,506,506,506,506,506,506,506,506,506,506,506,506,506,506,506,506,506,506,506,506,506,506,506,506,506,506,506,506,506,506,506,506,506,506,506,506,506,506,506,506,506,506,506,506,506,506,506,506,506,506,506,506,506,506,506,506,506,506,506,492,460,429,381,357,338,322,310,292,288,286,284,281,270,260,252,242,232,211,204,197,189,182,165,157,148,141,131,126,123,121,119,117,111,108,105,102,101,98,98,96,94],"timestamp_mouse":[16,35,55,76,96,116,136,155,175,196,217,235,256,276,296,316,335,355,376,396,417,435,455,475,496,516,535,555,575,596,615,637,655,676,696,716,736,755,776,796,816,836,856,876,896,916,935,956,976,996,1016,1036,1055,1075,1097,1116,1135,1155,1175,1197,1215,1235,1255,1275,1295,1316,1336,1355,1376,1395,1415,1437,1455,1476,1496,1515,1535,1556,1575,1595,1615,1635,1655,1675,1695,1716,1736,1756,1776,1795,1816,1836,1856,1875,1895,1915,1935,1956,1975,1996,2015,2035,2055,2076,2096,2115,2135,2156,2175,2196,2216,2235,2255,2275,2295,2317],"xSR":741.5,"ySR":469.95,"xT1":424.9,"yT1":0,"xT2":1058.1,"yT2":0,"toosoon":0,"cond_shown":"equaldotsize","ratio_trial":750,"smaller_num":"15","larger_num":"20","correct_side":2,"subjID":"julianadelmarortiz7","gender":"1","age":"11","school":"6"},{"start_time":1551794672741,"click_time":1551794674408,"finger_time":1551794673828,"fix_duration":1412.1440281659109,"trial":2,"RT":1087,"MT":580,"sideResp":1,"stimulus":"img/500/equaldotsize/L/4_Ratio_500_L_18_R_9.png","xmouse":[787,787,787,787,787,787,787,787,787,787,787,787,787,787,787,787,787,787,787,787,787,787,787,787,787,787,787,787,787,787,787,787,787,787,787,787,787,787,787,787,787,789,806,820,823,824,824,824,824,824,824,821,817,807,799,792,781,768,733,716,700,687,675,651,642,633,626,615,605,593,577,565,545,536,534,533,531,529,529,528,528,528,526,521],"ymouse":[516,516,516,516,516,516,516,516,516,516,516,516,516,516,516,516,516,516,516,516,516,516,516,516,516,516,516,516,516,516,516,516,516,516,516,516,516,516,516,516,516,516,503,494,492,492,491,491,491,491,491,489,487,479,468,458,442,426,388,373,361,352,346,335,331,326,322,300,276,243,203,171,132,117,113,109,106,103,102,101,101,101,100,97],"timestamp_mouse":[15,39,47,67,86,106,126,146,166,187,207,226,246,266,286,306,326,348,366,387,407,427,446,466,486,506,526,546,567,586,607,628,646,666,686,706,726,746,766,786,807,826,848,866,887,906,928,947,966,986,1006,1026,1047,1066,1087,1107,1127,1147,1166,1187,1206,1226,1247,1266,1287,1308,1327,1348,1366,1387,1407,1427,1448,1466,1487,1506,1526,1547,1566,1587,1606,1626,1646,1666],"xSR":741.5,"ySR":469.95,"xT1":424.9,"yT1":0,"xT2":1058.1,"yT2":0,"toosoon":0,"cond_shown":"equaldotsize","ratio_trial":500,"smaller_num":"9","larger_num":"18","correct_side":1,"subjID":"julianadelmarortiz7","gender":"1","age":"11","school":"6"},{"start_time":1551794676477,"click_time":1551794678389,"finger_time":1551794677827,"fix_duration":989.965771263588,"trial":3,"RT":1350,"MT":562,"sideResp":1,"stimulus":"img/500/randomdotsizeEA/R/1_Ratio_500_L_9_R_18.png","xmouse":[805,805,805,805,805,805,805,805,805,805,805,805,805,805,805,805,805,805,805,805,805,805,805,805,805,805,805,805,805,805,805,805,805,805,805,805,805,805,805,805,805,805,805,805,805,805,805,805,805,805,805,805,805,805,805,805,805,805,805,805,805,805,805,805,805,805,804,771,726,688,671,659,659,660,663,664,664,659,652,644,627,618,610,603,598,591,584,581,576,573,564,545,538,530,521,508],"ymouse":[517,517,517,517,517,517,517,517,517,517,517,517,517,517,517,517,517,517,517,517,517,517,517,517,517,517,517,517,517,517,517,517,517,517,517,517,517,517,517,517,517,517,517,517,517,517,517,517,517,517,517,517,517,517,517,517,517,517,517,517,517,517,517,517,517,517,508,458,402,361,339,313,307,303,298,293,273,257,240,225,195,182,169,159,151,146,144,143,140,139,135,124,118,111,100,88],"timestamp_mouse":[11,30,51,70,91,111,132,151,170,190,210,230,250,270,291,310,330,351,371,391,411,430,451,471,490,512,530,551,571,590,611,630,650,670,692,710,730,750,771,791,812,830,851,871,890,911,932,950,971,991,1011,1030,1051,1070,1091,1110,1130,1151,1170,1190,1210,1230,1252,1271,1291,1312,1330,1350,1371,1391,1410,1431,1451,1471,1490,1510,1530,1550,1570,1590,1611,1630,1652,1670,1690,1711,1730,1752,1771,1790,1811,1830,1850,1871,1890,1911],"xSR":741.5,"ySR":469.95,"xT1":424.9,"yT1":0,"xT2":1058.1,"yT2":0,"toosoon":0,"cond_shown":"randomdotsizeEA","ratio_trial":500,"smaller_num":"9","larger_num":"18","correct_side":2,"subjID":"julianadelmarortiz7","gender":"1","age":"11","school":"6"},{"start_time":1551794681766,"click_time":1551794683368,"finger_time":1551794682808,"fix_duration":437.3348334320786,"trial":4,"RT":1042,"MT":560,"sideResp":2,"stimulus":"img/750/randomdotsizeEA/R/15_Ratio_750_L_9_R_12.png","xmouse":[770,770,770,770,770,770,770,770,770,770,770,770,770,770,770,770,770,770,770,770,770,770,770,770,770,770,770,770,770,770,770,770,770,770,770,770,770,770,770,770,770,770,770,770,770,770,770,770,770,770,779,784,815,831,843,853,875,888,904,917,929,941,967,975,984,992,998,1018,1030,1043,1058,1081,1089,1093,1095,1097,1101,1103,1104,1105,1106],"ymouse":[506,506,506,506,506,506,506,506,506,506,506,506,506,506,506,506,506,506,506,506,506,506,506,506,506,506,506,506,506,506,506,506,506,506,506,506,506,506,506,506,506,506,506,506,506,506,506,506,506,506,494,485,442,420,399,375,326,303,282,265,251,236,206,197,186,179,174,161,154,147,138,127,123,120,118,115,110,105,102,101,99],"timestamp_mouse":[8,21,41,62,81,101,121,141,161,181,202,222,241,261,281,302,323,342,361,381,402,421,441,461,481,502,521,542,561,582,602,621,643,661,682,701,721,741,761,781,802,823,841,862,881,902,922,941,962,981,1001,1021,1042,1061,1082,1102,1123,1142,1161,1181,1201,1221,1241,1262,1281,1302,1322,1341,1362,1381,1401,1422,1441,1462,1481,1501,1522,1541,1562,1581,1601],"xSR":741.5,"ySR":469.95,"xT1":424.9,"yT1":0,"xT2":1058.1,"yT2":0,"toosoon":0,"cond_shown":"randomdotsizeEA","ratio_trial":750,"smaller_num":"9","larger_num":"12","correct_side":2,"subjID":"julianadelmarortiz7","gender":"1","age":"11","school":"6"},{"start_time":1551794684969,"click_time":1551794686507,"finger_time":1551794686068,"fix_duration":458.6735226456641,"trial":5,"RT":1099,"MT":439,"sideResp":1,"stimulus":"img/250/equaldotanddens/L/3_Ratio_250_L_8_R_2.png","xmouse":[780,780,780,780,780,780,780,780,780,780,780,780,780,780,780,780,780,780,780,780,780,780,780,780,780,780,780,780,780,780,780,780,780,780,780,780,780,780,780,780,780,780,780,780,780,780,780,780,780,780,780,775,773,768,761,754,744,739,735,726,716,688,666,655,648,638,633,626,618,609,595,579,572,563,554,544,519],"ymouse":[517,517,517,517,517,517,517,517,517,517,517,517,517,517,517,517,517,517,517,517,517,517,517,517,517,517,517,517,517,517,517,517,517,517,517,517,517,517,517,517,517,517,517,517,517,517,517,517,517,517,518,508,497,480,464,449,428,414,402,382,358,303,265,251,241,231,223,213,203,190,173,154,146,134,123,110,89],"timestamp_mouse":[18,38,59,79,98,120,138,159,179,198,218,238,258,278,298,318,338,358,378,398,418,438,458,478,498,519,538,558,578,598,618,638,658,679,698,718,738,758,778,799,818,840,858,878,899,918,939,958,980,998,1018,1039,1058,1078,1099,1119,1139,1160,1178,1199,1219,1238,1258,1280,1298,1320,1338,1359,1378,1399,1419,1439,1459,1478,1499,1518,1538],"xSR":741.5,"ySR":469.95,"xT1":424.9,"yT1":0,"xT2":1058.1,"yT2":0,"toosoon":0,"cond_shown":"equaldotanddens","ratio_trial":250,"smaller_num":"2","larger_num":"8","correct_side":1,"subjID":"julianadelmarortiz7","gender":"1","age":"11","school":"6"},{"start_time":1551794688093,"click_time":1551794689288,"finger_time":1551794689068,"fix_duration":383.8649280875308,"trial":6,"RT":975,"MT":220,"sideResp":2,"stimulus":"img/900/equaldotsize/L/8_Ratio_900_L_20_R_18.png","xmouse":[776,776,776,776,776,776,776,776,776,776,776,776,776,776,776,776,776,776,776,776,776,776,776,776,776,776,776,776,776,776,776,776,776,776,776,776,776,776,776,776,776,776,776,776,776,784,802,816,827,850,863,880,902,935,1025,1039,1051,1057,1060],"ymouse":[488,488,488,488,488,488,488,488,488,488,488,488,488,488,488,488,488,488,488,488,488,488,488,488,488,488,488,488,488,488,488,488,488,488,488,488,488,488,488,488,488,488,488,488,488,485,476,467,456,420,396,366,326,275,137,116,100,88,79],"timestamp_mouse":[38,55,74,94,114,134,155,174,196,214,235,254,274,294,314,334,354,374,395,416,434,454,474,495,514,535,554,574,595,616,634,655,675,694,714,735,754,774,794,814,834,855,874,895,914,934,954,975,994,1015,1035,1055,1074,1094,1115,1135,1154,1174,1195],"xSR":741.5,"ySR":469.95,"xT1":424.9,"yT1":0,"xT2":1058.1,"yT2":0,"toosoon":0,"cond_shown":"equaldotsize","ratio_trial":900,"smaller_num":"18","larger_num":"20","correct_side":1,"subjID":"julianadelmarortiz7","gender":"1","age":"11","school":"6"},{"start_time":1551794692762,"click_time":1551794694547,"finger_time":1551794693708,"fix_duration":653.4925506291438,"trial":7,"RT":946,"MT":839,"sideResp":2,"stimulus":"img/500/equaldotsize/R/3_Ratio_500_L_10_R_20.png","xmouse":[781,781,781,781,781,781,781,781,781,781,781,781,781,781,781,781,781,781,781,781,781,781,781,781,781,781,781,781,781,781,781,781,781,781,781,781,781,781,781,781,781,781,781,781,783,796,811,830,837,845,856,880,954,973,985,995,1009,1015,1022,1030,1039,1046,1058,1059,1061,1062,1062,1064,1064,1065,1066,1067,1068,1068,1069,1069,1069,1069,1069,1069,1069,1070,1071,1072,1074,1074,1076,1077,1078,1079],"ymouse":[490,490,490,490,490,490,490,490,490,490,490,490,490,490,490,490,490,490,490,490,490,490,490,490,490,490,490,490,490,490,490,490,490,490,490,490,490,490,490,490,490,490,490,490,490,485,475,457,447,432,411,377,298,282,271,261,239,231,222,212,201,191,176,174,172,170,167,164,162,161,159,157,151,149,146,144,143,139,137,134,133,130,123,119,115,111,108,102,100,95],"timestamp_mouse":[10,38,46,66,86,106,125,145,165,185,205,225,246,265,285,307,326,345,366,386,406,425,446,466,487,505,526,545,567,586,606,627,645,665,686,706,725,745,765,785,807,825,845,865,885,905,926,946,965,985,1005,1025,1046,1065,1085,1105,1126,1145,1165,1186,1207,1226,1245,1266,1285,1305,1325,1346,1365,1385,1405,1425,1445,1466,1485,1505,1526,1545,1565,1585,1605,1625,1645,1666,1685,1705,1725,1746,1765,1785],"xSR":741.5,"ySR":469.95,"xT1":424.9,"yT1":0,"xT2":1058.1,"yT2":0,"toosoon":0,"cond_shown":"equaldotsize","ratio_trial":500,"smaller_num":"10","larger_num":"20","correct_side":2,"subjID":"julianadelmarortiz7","gender":"1","age":"11","school":"6"},{"start_time":1551794696282,"click_time":1551794697287,"finger_time":1551794697189,"fix_duration":513.0132770153689,"trial":8,"RT":907,"MT":98,"sideResp":2,"stimulus":"img/500/equaldotsize/R/1_Ratio_500_L_9_R_18.png","xmouse":[786,786,786,786,786,786,786,786,786,786,786,786,786,786,786,786,786,786,786,786,786,786,786,786,786,786,786,786,786,786,786,786,786,786,786,786,786,786,786,786,786,786,788,807,827,862,903,951,1014,1067,1094],"ymouse":[506,506,506,506,506,506,506,506,506,506,506,506,506,506,506,506,506,506,506,506,506,506,506,506,506,506,506,506,506,506,506,506,506,506,506,506,506,506,506,506,506,506,506,491,473,431,356,273,191,127,93],"timestamp_mouse":[10,41,46,65,85,107,125,147,166,186,205,225,245,266,285,306,325,345,365,386,405,426,446,466,485,507,525,546,565,585,605,627,645,665,686,706,725,745,765,786,805,825,846,865,886,907,925,945,965,986,1005],"xSR":741.5,"ySR":469.95,"xT1":424.9,"yT1":0,"xT2":1058.1,"yT2":0,"toosoon":0,"cond_shown":"equaldotsize","ratio_trial":500,"smaller_num":"9","larger_num":"18","correct_side":2,"subjID":"julianadelmarortiz7","gender":"1","age":"11","school":"6"},{"start_time":1551794699079,"click_time":1551794701168,"finger_time":1551794700469,"fix_duration":250,"trial":9,"RT":1390,"MT":699,"sideResp":1,"stimulus":"img/750/randomdotsizeEA/L/14_Ratio_750_L_8_R_6.png","xmouse":[806,806,806,806,806,806,806,806,806,806,806,806,806,806,806,806,806,806,806,806,806,806,806,806,806,806,806,806,806,806,806,806,806,806,806,806,806,806,806,806,806,806,806,806,806,806,806,806,806,806,806,806,806,806,806,806,806,806,806,806,806,806,806,806,806,805,795,788,782,778,774,770,767,766,762,760,751,747,745,744,741,733,726,716,705,686,662,646,625,605,574,568,566,566,566,566,560,556,551,547,541,530,524,519,513],"ymouse":[512,512,512,512,512,512,512,512,512,512,512,512,512,512,512,512,512,512,512,512,512,512,512,512,512,512,512,512,512,512,512,512,512,512,512,512,512,512,512,512,512,512,512,512,512,512,512,512,512,512,512,512,512,512,512,512,512,512,512,512,512,512,512,512,512,512,494,482,470,459,447,432,423,415,408,402,379,371,366,359,349,324,307,289,271,241,210,195,182,171,155,152,151,151,151,151,150,149,147,143,137,119,110,101,90],"timestamp_mouse":[9,40,49,68,88,110,128,148,168,189,208,228,248,268,289,310,329,349,369,388,410,428,449,470,489,509,528,549,568,588,608,628,649,668,688,708,728,748,769,788,809,828,850,869,889,910,929,949,968,989,1008,1030,1049,1068,1090,1108,1129,1148,1169,1188,1209,1228,1248,1269,1289,1308,1328,1348,1369,1389,1408,1428,1448,1468,1488,1509,1528,1548,1568,1588,1609,1628,1650,1668,1688,1709,1728,1748,1768,1789,1809,1828,1848,1868,1889,1908,1928,1949,1969,1989,2008,2029,2048,2068,2089],"xSR":741.5,"ySR":469.95,"xT1":424.9,"yT1":0,"xT2":1058.1,"yT2":0,"toosoon":0,"cond_shown":"randomdotsizeEA","ratio_trial":750,"smaller_num":"6","larger_num":"8","correct_side":1,"subjID":"julianadelmarortiz7","gender":"1","age":"11","school":"6"},{"start_time":1551794703260,"click_time":1551794704768,"finger_time":1551794704088,"fix_duration":769.852601740772,"trial":10,"RT":828,"MT":680,"sideResp":2,"stimulus":"img/250/equaldotanddens/R/6_Ratio_250_L_6_R_24.png","xmouse":[779,779,779,779,779,779,779,779,779,779,779,779,779,779,779,779,779,779,779,779,779,779,779,779,779,779,779,779,779,779,779,779,779,779,779,779,779,785,800,811,814,823,827,830,833,842,851,876,887,899,908,918,933,938,942,947,953,972,977,984,994,1003,1025,1034,1043,1050,1059,1063,1069,1074,1081,1096,1105,1110,1112,1112],"ymouse":[511,511,511,511,511,511,511,511,511,511,511,511,511,511,511,511,511,511,511,511,511,511,511,511,511,511,511,511,511,511,511,511,511,511,511,511,511,509,504,497,492,455,432,408,385,362,342,297,281,265,251,240,225,221,218,214,210,197,194,189,184,178,166,161,155,151,147,143,139,135,130,120,111,104,100,98],"timestamp_mouse":[10,34,47,67,88,107,127,147,167,187,208,227,247,268,288,307,329,349,367,389,408,427,447,468,488,507,528,547,568,587,607,627,647,668,687,707,727,747,769,788,807,828,847,868,888,907,927,947,967,988,1007,1027,1048,1067,1088,1107,1128,1147,1167,1188,1208,1228,1248,1267,1287,1307,1329,1347,1368,1388,1407,1429,1448,1468,1487,1508],"xSR":741.5,"ySR":469.95,"xT1":424.9,"yT1":0,"xT2":1058.1,"yT2":0,"toosoon":0,"cond_shown":"equaldotanddens","ratio_trial":250,"smaller_num":"6","larger_num":"24","correct_side":2,"subjID":"julianadelmarortiz7","gender":"1","age":"11","school":"6"},{"start_time":1551794706677,"click_time":1551794708508,"finger_time":1551794707887,"fix_duration":668.9713472317985,"trial":11,"RT":1210,"MT":621,"sideResp":2,"stimulus":"img/500/randomdotsizeEA/R/3_Ratio_500_L_10_R_20.png","xmouse":[796,796,796,796,796,796,796,796,796,796,796,796,796,796,796,796,796,796,796,796,796,796,796,796,796,796,796,796,796,796,796,796,796,796,796,796,796,796,796,796,796,796,796,796,796,796,796,796,796,796,796,796,796,796,796,796,796,796,807,816,834,888,912,932,942,954,968,979,991,1005,1022,1045,1056,1066,1075,1086,1103,1107,1111,1115,1119,1120,1121,1121,1122,1123,1124,1127,1127,1128,1128,1129],"ymouse":[508,508,508,508,508,508,508,508,508,508,508,508,508,508,508,508,508,508,508,508,508,508,508,508,508,508,508,508,508,508,508,508,508,508,508,508,508,508,508,508,508,508,508,508,508,508,508,508,508,508,508,508,508,508,508,508,508,508,495,486,463,406,377,354,340,323,306,294,279,263,249,227,217,210,201,192,174,165,157,148,135,131,130,127,127,124,120,114,111,108,105,99],"timestamp_mouse":[11,32,50,71,90,110,131,150,170,191,210,231,250,270,292,310,331,350,370,391,410,430,451,470,490,510,530,551,571,590,611,630,651,671,690,710,730,751,770,791,810,830,850,870,892,911,930,952,971,990,1011,1031,1051,1072,1090,1110,1130,1151,1170,1191,1210,1230,1250,1271,1291,1311,1330,1350,1370,1391,1410,1430,1450,1470,1491,1510,1530,1550,1571,1590,1612,1630,1650,1671,1691,1711,1730,1750,1772,1790,1810,1830],"xSR":741.5,"ySR":469.95,"xT1":424.9,"yT1":0,"xT2":1058.1,"yT2":0,"toosoon":0,"cond_shown":"randomdotsizeEA","ratio_trial":500,"smaller_num":"10","larger_num":"20","correct_side":2,"subjID":"julianadelmarortiz7","gender":"1","age":"11","school":"6"},{"start_time":1551794710977,"click_time":1551794712627,"finger_time":1551794711947,"fix_duration":1187.2998894496743,"trial":12,"RT":970,"MT":680,"sideResp":1,"stimulus":"img/500/equaldotanddens/L/11_Ratio_500_L_12_R_6.png","xmouse":[784,784,784,784,784,784,784,784,784,784,784,784,784,784,784,784,784,784,784,784,784,784,784,784,784,784,784,784,784,784,784,784,784,784,784,784,784,784,784,784,784,784,784,784,784,783,773,762,743,716,687,644,638,633,631,626,618,616,614,611,609,599,593,588,585,582,574,572,569,568,567,562,560,557,555,551,544,541,539,535,533,525,523],"ymouse":[517,517,517,517,517,517,517,517,517,517,517,517,517,517,517,517,517,517,517,517,517,517,517,517,517,517,517,517,517,517,517,517,517,517,517,517,517,517,517,517,517,517,517,517,517,516,502,480,445,404,365,311,302,294,286,277,263,259,255,248,242,214,200,187,175,157,125,116,111,108,107,99,97,95,94,93,91,89,89,87,87,86,85],"timestamp_mouse":[10,31,50,70,90,110,130,150,170,190,210,230,250,270,290,311,330,350,370,390,410,430,450,470,491,510,531,551,571,591,611,630,651,671,691,712,730,750,770,791,812,832,850,871,890,910,930,950,970,991,1010,1030,1051,1071,1090,1111,1130,1150,1172,1190,1210,1230,1251,1270,1291,1311,1331,1350,1370,1391,1410,1431,1452,1472,1490,1511,1530,1551,1570,1590,1611,1630,1650],"xSR":741.5,"ySR":469.95,"xT1":424.9,"yT1":0,"xT2":1058.1,"yT2":0,"toosoon":0,"cond_shown":"equaldotanddens","ratio_trial":500,"smaller_num":"6","larger_num":"12","correct_side":1,"subjID":"julianadelmarortiz7","gender":"1","age":"11","school":"6"},{"start_time":1551794713962,"click_time":1551794715387,"finger_time":1551794714888,"fix_duration":392.881747937034,"trial":13,"RT":926,"MT":499,"sideResp":1,"stimulus":"img/750/equaldotsize/L/9_Ratio_750_L_4_R_3.png","xmouse":[799,799,799,799,799,799,799,799,799,799,799,799,799,799,799,799,799,799,799,799,799,799,799,799,799,799,799,799,799,799,799,799,799,799,799,799,799,799,799,799,799,799,799,793,782,766,745,684,663,650,641,636,621,613,607,600,597,593,590,588,583,577,561,557,553,547,538,524,521,519,517,516],"ymouse":[526,526,526,526,526,526,526,526,526,526,526,526,526,526,526,526,526,526,526,526,526,526,526,526,526,526,526,526,526,526,526,526,526,526,526,526,526,526,526,526,526,526,526,520,503,476,446,374,347,328,309,294,248,234,223,215,210,205,201,198,191,183,162,157,153,146,133,113,108,103,101,98],"timestamp_mouse":[11,25,46,66,85,105,125,145,166,185,205,225,245,266,285,306,325,345,365,385,407,425,447,466,485,507,525,546,565,586,607,626,645,665,685,705,725,747,765,785,806,825,845,866,887,906,926,945,967,985,1006,1025,1045,1065,1086,1106,1126,1145,1166,1186,1206,1225,1245,1265,1285,1305,1326,1345,1365,1385,1405,1425],"xSR":741.5,"ySR":469.95,"xT1":424.9,"yT1":0,"xT2":1058.1,"yT2":0,"toosoon":0,"cond_shown":"equaldotsize","ratio_trial":750,"smaller_num":"3","larger_num":"4","correct_side":1,"subjID":"julianadelmarortiz7","gender":"1","age":"11","school":"6"},{"start_time":1551794717190,"click_time":1551794718408,"finger_time":1551794717888,"fix_duration":839.1646788966364,"trial":14,"RT":698,"MT":520,"sideResp":2,"stimulus":"img/500/equaldotsize/R/9_Ratio_500_L_2_R_4.png","xmouse":[778,778,778,778,778,778,778,778,778,778,778,778,778,778,778,778,778,778,778,778,778,778,778,778,778,778,778,778,778,778,778,778,794,807,845,932,964,990,1010,1024,1047,1053,1059,1065,1073,1082,1086,1088,1089,1089,1089,1089,1089,1089,1089,1090,1091,1091,1091,1091,1091],"ymouse":[507,507,507,507,507,507,507,507,507,507,507,507,507,507,507,507,507,507,507,507,507,507,507,507,507,507,507,507,507,507,507,507,497,491,472,435,426,415,406,396,372,359,344,330,313,280,263,246,231,215,181,172,163,156,151,139,133,125,115,100,92],"timestamp_mouse":[32,37,57,77,97,117,137,157,178,197,219,237,258,277,297,318,337,357,378,397,417,437,459,477,497,517,538,557,579,597,617,638,658,677,698,717,738,758,778,798,818,837,857,878,897,917,938,957,978,997,1017,1038,1057,1077,1097,1118,1137,1157,1178,1199,1218],"xSR":741.5,"ySR":469.95,"xT1":424.9,"yT1":0,"xT2":1058.1,"yT2":0,"toosoon":0,"cond_shown":"equaldotsize","ratio_trial":500,"smaller_num":"2","larger_num":"4","correct_side":2,"subjID":"julianadelmarortiz7","gender":"1","age":"11","school":"6"},{"start_time":1551794720479,"click_time":1551794722168,"finger_time":1551794721528,"fix_duration":990.1990402276549,"trial":15,"RT":1049,"MT":640,"sideResp":1,"stimulus":"img/750/equaldotanddens/L/9_Ratio_750_L_4_R_3.png","xmouse":[801,801,801,801,801,801,801,801,801,801,801,801,801,801,801,801,801,801,801,801,801,801,801,801,801,801,801,801,801,801,801,801,801,801,801,801,801,801,801,801,801,801,801,801,801,801,801,801,797,793,784,757,735,718,700,684,651,639,629,619,610,593,584,576,570,558,551,547,543,538,533,519,514,510,507,504,501,498,497,497,496,496,496,496,496],"ymouse":[551,551,551,551,551,551,551,551,551,551,551,551,551,551,551,551,551,551,551,551,551,551,551,551,551,551,551,551,551,551,551,551,551,551,551,551,551,551,551,551,551,551,551,551,551,551,551,551,549,539,525,486,457,433,409,384,336,319,304,288,273,246,232,218,202,177,166,161,155,150,145,133,129,126,124,122,120,118,116,115,111,107,103,101,99],"timestamp_mouse":[19,54,54,69,88,109,129,149,168,188,208,228,248,269,289,308,328,348,368,389,408,428,449,468,488,508,529,549,568,590,609,628,649,668,689,708,728,749,768,788,808,830,848,868,888,909,928,949,968,989,1008,1028,1049,1069,1088,1108,1128,1149,1168,1188,1209,1228,1249,1268,1288,1310,1328,1348,1368,1389,1408,1428,1448,1470,1489,1509,1528,1549,1569,1589,1610,1628,1649,1668,1689],"xSR":741.5,"ySR":469.95,"xT1":424.9,"yT1":0,"xT2":1058.1,"yT2":0,"toosoon":0,"cond_shown":"equaldotanddens","ratio_trial":750,"smaller_num":"3","larger_num":"4","correct_side":1,"subjID":"julianadelmarortiz7","gender":"1","age":"11","school":"6"},{"start_time":1551794725097,"click_time":1551794726188,"finger_time":1551794725848,"fix_duration":348.4121687332247,"trial":16,"RT":751,"MT":340,"sideResp":1,"stimulus":"img/750/equaldotanddens/L/13_Ratio_750_L_8_R_6.png","xmouse":[779,779,779,779,779,779,779,779,779,779,779,779,779,779,779,779,779,779,779,779,779,779,779,779,779,779,779,779,779,779,779,779,779,779,778,780,774,755,725,635,590,553,539,534,531,529,529,529,527,526,525,525,525,525,523],"ymouse":[545,545,545,545,545,545,545,545,545,545,545,545,545,545,545,545,545,545,545,545,545,545,545,545,545,545,545,545,545,545,545,545,545,545,543,525,499,463,408,260,195,145,119,106,100,93,92,91,88,86,84,84,84,84,82],"timestamp_mouse":[11,42,50,71,91,110,131,152,170,191,210,231,250,270,290,310,330,350,370,390,410,430,451,470,490,510,530,550,571,590,611,631,651,670,690,710,729,751,770,791,810,830,850,870,890,910,930,950,971,991,1010,1030,1051,1070,1091],"xSR":741.5,"ySR":469.95,"xT1":424.9,"yT1":0,"xT2":1058.1,"yT2":0,"toosoon":0,"cond_shown":"equaldotanddens","ratio_trial":750,"smaller_num":"6","larger_num":"8","correct_side":1,"subjID":"julianadelmarortiz7","gender":"1","age":"11","school":"6"},{"start_time":1551794728181,"click_time":1551794730067,"finger_time":1551794729247,"fix_duration":973.3890496131411,"trial":17,"RT":1066,"MT":820,"sideResp":1,"stimulus":"img/900/equaldotsize/L/2_Ratio_900_L_20_R_18.png","xmouse":[803,803,803,803,803,803,803,803,803,803,803,803,803,803,803,803,803,803,803,803,803,803,803,803,803,803,803,803,803,803,803,803,803,803,803,803,803,803,803,803,803,803,803,803,803,803,803,803,803,803,803,808,811,811,810,804,783,769,755,743,726,710,707,704,702,700,694,690,685,678,669,642,628,617,610,602,585,572,559,546,538,529,528,528,526,524,522,520,520,520,519,518,518,518,517],"ymouse":[508,508,508,508,508,508,508,508,508,508,508,508,508,508,508,508,508,508,508,508,508,508,508,508,508,508,508,508,508,508,508,508,508,508,508,508,508,508,508,508,508,508,508,508,508,508,508,508,508,508,508,498,479,467,456,440,401,378,358,341,318,291,282,274,267,261,250,242,234,226,216,197,191,186,184,179,168,161,154,146,142,135,133,132,128,123,113,111,108,107,106,103,102,100,98],"timestamp_mouse":[15,40,46,66,86,106,126,146,167,186,207,226,246,267,287,306,326,346,366,386,406,426,447,466,486,507,526,546,567,586,606,626,646,666,686,706,726,746,766,787,807,826,847,866,886,905,926,946,967,986,1006,1026,1046,1066,1086,1107,1127,1146,1166,1186,1206,1226,1247,1267,1287,1305,1326,1347,1367,1386,1407,1426,1446,1466,1487,1506,1525,1546,1566,1586,1607,1626,1647,1667,1686,1706,1726,1746,1766,1786,1807,1826,1847,1866,1886],"xSR":741.5,"ySR":469.95,"xT1":424.9,"yT1":0,"xT2":1058.1,"yT2":0,"toosoon":0,"cond_shown":"equaldotsize","ratio_trial":900,"smaller_num":"18","larger_num":"20","correct_side":1,"subjID":"julianadelmarortiz7","gender":"1","age":"11","school":"6"},{"start_time":1551794732606,"click_time":1551794734347,"finger_time":1551794733827,"fix_duration":1476.4889003714463,"trial":18,"RT":1221,"MT":520,"sideResp":2,"stimulus":"img/250/randomdotsizeEA/R/12_Ratio_250_L_5_R_20.png","xmouse":[793,793,793,793,793,793,793,793,793,793,793,793,793,793,793,793,793,793,793,793,793,793,793,793,793,793,793,793,793,793,793,793,793,793,793,793,793,793,793,793,793,793,793,793,793,793,793,793,793,793,793,793,793,793,793,793,793,794,798,806,824,849,873,906,937,993,1011,1027,1037,1045,1068,1083,1100,1119,1135,1153,1157,1158,1159,1159,1159,1159,1158,1156,1154,1151,1148,1143],"ymouse":[537,537,537,537,537,537,537,537,537,537,537,537,537,537,537,537,537,537,537,537,537,537,537,537,537,537,537,537,537,537,537,537,537,537,537,537,537,537,537,537,537,537,537,537,537,537,537,537,537,537,537,537,537,537,537,537,537,536,532,526,502,471,443,407,376,325,304,289,280,273,254,244,232,216,201,176,168,163,161,159,148,142,135,128,122,113,106,98],"timestamp_mouse":[8,33,41,61,81,101,121,141,161,181,201,221,241,261,281,300,321,341,361,381,401,421,441,461,481,502,521,542,562,581,601,622,641,661,682,701,722,741,761,782,802,821,842,861,882,902,922,942,962,981,1002,1022,1042,1061,1081,1102,1122,1141,1162,1181,1201,1221,1241,1262,1281,1301,1321,1341,1361,1382,1401,1421,1441,1461,1481,1502,1522,1541,1561,1581,1601,1621,1642,1661,1680,1702,1722,1741],"xSR":741.5,"ySR":469.95,"xT1":424.9,"yT1":0,"xT2":1058.1,"yT2":0,"toosoon":0,"cond_shown":"randomdotsizeEA","ratio_trial":250,"smaller_num":"5","larger_num":"20","correct_side":2,"subjID":"julianadelmarortiz7","gender":"1","age":"11","school":"6"},{"start_time":1551794736463,"click_time":1551794738207,"finger_time":1551794737608,"fix_duration":694.623679374961,"trial":19,"RT":1145,"MT":599,"sideResp":2,"stimulus":"img/900/randomdotsizeEA/L/8_Ratio_900_L_20_R_18.png","xmouse":[773,773,773,773,773,773,773,773,773,773,773,773,773,773,773,773,773,773,773,773,773,773,773,773,773,773,773,773,773,773,773,773,773,773,773,773,773,773,773,773,773,773,773,773,773,773,773,773,773,773,773,773,773,777,782,789,793,809,818,832,847,866,874,879,886,894,903,928,942,957,971,984,1007,1021,1036,1055,1061,1070,1072,1073,1075,1079,1082,1085,1086,1088,1088,1090],"ymouse":[503,503,503,503,503,503,503,503,503,503,503,503,503,503,503,503,503,503,503,503,503,503,503,503,503,503,503,503,503,503,503,503,503,503,503,503,503,503,503,503,503,503,503,503,503,503,503,503,503,503,503,503,503,501,497,489,483,441,413,366,317,254,237,228,217,206,196,169,159,152,146,142,135,131,127,123,122,119,118,118,116,112,109,106,104,102,100,96],"timestamp_mouse":[11,24,44,64,84,105,124,144,164,184,204,225,244,264,284,304,324,344,364,384,404,424,443,464,484,503,524,543,564,584,605,624,643,664,684,705,725,744,764,784,805,824,845,864,884,904,924,943,964,985,1004,1025,1044,1065,1084,1104,1125,1145,1164,1185,1204,1225,1243,1264,1285,1304,1325,1345,1364,1385,1404,1424,1444,1464,1484,1504,1525,1544,1565,1584,1604,1625,1644,1665,1684,1704,1724,1744],"xSR":741.5,"ySR":469.95,"xT1":424.9,"yT1":0,"xT2":1058.1,"yT2":0,"toosoon":0,"cond_shown":"randomdotsizeEA","ratio_trial":900,"smaller_num":"18","larger_num":"20","correct_side":1,"subjID":"julianadelmarortiz7","gender":"1","age":"11","school":"6"},{"start_time":1551794740723,"click_time":1551794742747,"finger_time":1551794741847,"fix_duration":1453.9313286086165,"trial":20,"RT":1124,"MT":900,"sideResp":1,"stimulus":"img/750/equaldotsize/L/13_Ratio_750_L_8_R_6.png","xmouse":[789,789,789,789,789,789,789,789,789,789,789,789,789,789,789,789,789,789,789,789,789,789,789,789,789,789,789,789,789,789,789,789,789,789,789,789,789,789,789,789,789,789,789,789,789,789,789,789,789,789,789,789,789,789,786,778,764,754,741,722,717,712,709,705,697,693,686,680,675,666,664,661,658,657,653,650,645,638,632,615,607,597,587,571,543,533,525,522,520,518,518,518,517,517,512,511,509,508,507,505,504,503],"ymouse":[509,509,509,509,509,509,509,509,509,509,509,509,509,509,509,509,509,509,509,509,509,509,509,509,509,509,509,509,509,509,509,509,509,509,509,509,509,509,509,509,509,509,509,509,509,509,509,509,509,509,509,509,509,509,508,489,463,444,423,390,377,361,347,335,307,293,279,265,253,233,227,221,214,209,199,196,189,182,178,168,164,161,158,153,146,142,141,139,139,138,138,137,137,135,126,120,116,112,108,102,100,97],"timestamp_mouse":[10,33,45,64,85,104,123,145,165,183,204,224,244,265,285,304,324,344,364,385,405,424,444,464,484,505,525,544,564,584,605,625,644,664,684,704,724,745,764,784,804,825,844,865,884,904,924,945,965,984,1005,1025,1043,1065,1084,1105,1124,1145,1164,1184,1205,1224,1244,1264,1284,1304,1324,1345,1364,1384,1405,1425,1444,1464,1484,1504,1524,1545,1564,1585,1604,1624,1644,1664,1684,1704,1724,1744,1765,1783,1804,1824,1844,1864,1884,1904,1924,1945,1964,1984,2004,2024],"xSR":741.5,"ySR":469.95,"xT1":424.9,"yT1":0,"xT2":1058.1,"yT2":0,"toosoon":0,"cond_shown":"equaldotsize","ratio_trial":750,"smaller_num":"6","larger_num":"8","correct_side":1,"subjID":"julianadelmarortiz7","gender":"1","age":"11","school":"6"},{"start_time":1551794744398,"click_time":1551794745807,"finger_time":1551794745308,"fix_duration":789.5279839672947,"trial":21,"RT":910,"MT":499,"sideResp":2,"stimulus":"img/500/equaldotanddens/R/14_Ratio_500_L_5_R_10.png","xmouse":[803,803,803,803,803,803,803,803,803,802,802,802,802,802,802,801,800,798,797,796,796,796,796,796,796,796,796,796,796,796,796,796,796,796,796,796,796,796,796,796,796,796,795,806,820,857,879,900,927,960,1038,1060,1072,1077,1079,1079,1080,1080,1081,1081,1081,1081,1081,1081,1081,1081,1081,1081,1081,1081,1082],"ymouse":[490,490,490,490,490,490,492,494,495,498,499,499,499,499,499,500,500,501,501,502,502,502,502,502,502,502,502,502,502,502,502,502,502,502,502,502,502,502,502,502,502,502,504,500,495,483,471,457,438,408,313,284,266,252,239,226,221,216,210,204,190,186,182,176,163,155,144,131,117,109,98],"timestamp_mouse":[10,37,50,70,90,110,129,150,170,190,209,230,250,269,289,310,329,348,370,389,409,428,449,469,490,509,530,549,569,589,609,629,649,670,689,709,729,748,770,789,810,829,849,869,890,910,929,949,969,989,1009,1029,1050,1069,1089,1110,1129,1150,1170,1189,1209,1230,1250,1270,1290,1309,1330,1350,1369,1389,1409],"xSR":741.5,"ySR":469.95,"xT1":424.9,"yT1":0,"xT2":1058.1,"yT2":0,"toosoon":0,"cond_shown":"equaldotanddens","ratio_trial":500,"smaller_num":"5","larger_num":"10","correct_side":2,"subjID":"julianadelmarortiz7","gender":"1","age":"11","school":"6"},{"start_time":1551794747365,"click_time":1551794749107,"finger_time":1551794748487,"fix_duration":436.68386999441066,"trial":22,"RT":1122,"MT":620,"sideResp":1,"stimulus":"img/750/equaldotanddens/L/10_Ratio_750_L_4_R_3.png","xmouse":[790,790,790,790,790,790,790,790,790,790,790,790,790,790,790,790,790,790,790,790,790,790,790,790,790,790,790,790,790,790,790,790,790,790,790,790,790,790,790,790,790,790,790,790,790,790,790,790,790,790,790,790,790,789,776,759,736,676,662,656,654,652,648,646,644,641,637,630,626,622,620,612,598,592,585,581,576,563,554,548,540,535,529,528,527,527,526,521],"ymouse":[513,513,513,513,513,513,513,513,513,513,513,513,513,513,513,513,513,513,513,513,513,513,513,513,513,513,513,513,513,513,513,513,513,513,513,513,513,513,513,513,513,513,513,513,513,513,513,513,513,513,513,513,513,513,504,486,466,412,392,379,368,347,326,313,302,289,278,255,242,230,217,201,169,156,144,132,120,95,84,76,68,62,57,56,55,55,55,54],"timestamp_mouse":[10,22,42,62,83,102,123,142,162,182,202,222,242,262,282,302,322,342,363,382,402,422,442,463,482,502,522,543,563,583,603,623,642,663,682,703,722,742,762,782,802,822,842,862,882,903,923,941,962,982,1003,1021,1043,1062,1082,1102,1122,1141,1163,1182,1203,1224,1242,1263,1281,1303,1323,1343,1362,1382,1402,1423,1442,1462,1483,1502,1522,1543,1563,1582,1602,1623,1642,1662,1683,1702,1723,1742],"xSR":741.5,"ySR":469.95,"xT1":424.9,"yT1":0,"xT2":1058.1,"yT2":0,"toosoon":0,"cond_shown":"equaldotanddens","ratio_trial":750,"smaller_num":"3","larger_num":"4","correct_side":1,"subjID":"julianadelmarortiz7","gender":"1","age":"11","school":"6"},{"start_time":1551794751897,"click_time":1551794753907,"finger_time":1551794753007,"fix_duration":1127.274164247568,"trial":23,"RT":1110,"MT":900,"sideResp":2,"stimulus":"img/750/randomdotsizeEA/R/15_Ratio_750_L_9_R_12.png","xmouse":[755,755,755,755,755,755,755,755,755,755,755,755,755,755,755,755,755,755,755,755,755,755,755,755,755,755,755,755,755,755,755,755,755,755,755,755,755,755,755,755,755,755,755,755,755,755,755,755,755,755,755,755,754,757,767,798,806,814,820,824,837,846,855,863,872,891,898,901,905,907,911,913,915,917,921,932,940,946,954,958,963,964,966,968,971,979,984,990,1005,1028,1084,1104,1113,1115,1116,1118,1118,1119,1120,1121,1124],"ymouse":[509,509,509,509,509,509,509,509,509,509,509,509,509,509,509,509,509,509,509,509,509,509,509,509,509,509,509,509,509,509,509,509,509,509,509,509,509,509,509,509,509,509,509,509,509,509,509,509,509,509,509,509,506,498,478,421,400,383,370,361,342,331,319,308,296,269,260,254,249,245,240,237,235,233,230,222,214,207,198,191,183,182,180,178,175,167,164,160,153,145,129,124,123,121,121,118,116,113,109,103,87],"timestamp_mouse":[10,39,50,70,90,110,131,150,170,190,210,231,251,271,291,310,330,351,371,391,410,430,451,471,490,510,531,551,570,590,610,631,651,671,690,710,730,750,770,790,810,830,851,871,891,911,930,951,970,990,1010,1030,1051,1070,1090,1110,1131,1151,1171,1190,1211,1231,1250,1270,1290,1310,1331,1350,1371,1391,1411,1430,1450,1470,1490,1510,1530,1550,1570,1591,1609,1630,1651,1670,1690,1709,1731,1750,1770,1790,1810,1831,1850,1870,1890,1911,1930,1950,1971,1990,2010],"xSR":741.5,"ySR":469.95,"xT1":424.9,"yT1":0,"xT2":1058.1,"yT2":0,"toosoon":0,"cond_shown":"randomdotsizeEA","ratio_trial":750,"smaller_num":"9","larger_num":"12","correct_side":2,"subjID":"julianadelmarortiz7","gender":"1","age":"11","school":"6"},{"start_time":1551794755630,"click_time":1551794757188,"finger_time":1551794756508,"fix_duration":640.3144427854774,"trial":24,"RT":878,"MT":680,"sideResp":1,"stimulus":"img/500/equaldotanddens/L/11_Ratio_500_L_12_R_6.png","xmouse":[799,799,799,799,799,799,799,799,799,799,799,799,799,799,799,799,799,799,799,799,799,799,799,799,799,799,799,799,799,799,799,799,799,799,799,799,799,799,799,799,799,798,797,778,764,744,728,709,697,694,691,688,685,676,670,665,657,648,624,614,606,602,599,593,591,588,582,577,562,558,554,551,548,541,538,534,531,520],"ymouse":[500,500,500,500,500,500,500,500,500,500,500,500,500,500,500,500,500,500,500,500,500,500,500,500,500,500,500,500,500,500,500,500,500,500,500,500,500,500,500,500,500,500,495,429,390,351,328,302,282,276,270,263,257,244,236,228,217,205,171,157,149,144,141,136,134,131,127,123,113,110,107,105,103,98,95,92,91,82],"timestamp_mouse":[17,41,57,78,97,118,137,157,178,198,218,237,257,276,298,317,338,357,377,397,418,438,457,477,497,517,537,557,577,597,617,637,658,677,697,718,738,757,777,798,817,838,857,878,898,917,937,956,977,997,1017,1037,1057,1078,1097,1117,1137,1157,1177,1197,1217,1237,1258,1278,1297,1316,1338,1358,1378,1397,1418,1437,1457,1478,1498,1517,1538,1558],"xSR":741.5,"ySR":469.95,"xT1":424.9,"yT1":0,"xT2":1058.1,"yT2":0,"toosoon":0,"cond_shown":"equaldotanddens","ratio_trial":500,"smaller_num":"6","larger_num":"12","correct_side":1,"subjID":"julianadelmarortiz7","gender":"1","age":"11","school":"6"},{"start_time":1551794758359,"click_time":1551794759508,"finger_time":1551794759207,"fix_duration":250,"trial":25,"RT":848,"MT":301,"sideResp":2,"stimulus":"img/750/equaldotanddens/R/7_Ratio_750_L_3_R_4.png","xmouse":[809,809,809,809,809,809,809,809,809,809,809,809,809,809,809,809,809,809,809,809,809,809,809,809,809,809,809,809,809,809,809,809,809,809,809,809,809,809,809,809,809,809,844,856,868,882,906,956,979,1006,1028,1049,1090,1103,1112,1118,1124,1129],"ymouse":[516,516,516,516,516,516,516,516,516,516,516,516,516,516,516,516,516,516,516,516,516,516,516,516,516,516,516,516,516,516,516,516,516,516,516,516,516,516,516,516,516,515,496,486,472,451,415,330,294,253,214,179,131,124,117,110,101,73],"timestamp_mouse":[10,31,49,68,88,108,129,148,169,187,208,228,248,269,288,308,329,349,368,388,409,428,449,468,488,509,528,548,569,589,608,628,648,668,688,709,728,748,768,788,808,829,848,869,887,909,928,948,967,988,1008,1029,1048,1068,1088,1108,1128,1148],"xSR":741.5,"ySR":469.95,"xT1":424.9,"yT1":0,"xT2":1058.1,"yT2":0,"toosoon":0,"cond_shown":"equaldotanddens","ratio_trial":750,"smaller_num":"3","larger_num":"4","correct_side":2,"subjID":"julianadelmarortiz7","gender":"1","age":"11","school":"6"},{"start_time":1551794761319,"click_time":1551794763127,"finger_time":1551794762427,"fix_duration":808.8762331727999,"trial":26,"RT":1108,"MT":700,"sideResp":1,"stimulus":"img/900/equaldotanddens/L/8_Ratio_900_L_20_R_18.png","xmouse":[766,766,766,766,766,766,766,766,766,766,766,766,766,766,766,766,766,766,766,766,766,766,766,766,766,766,766,766,766,766,766,766,766,766,766,766,766,766,766,766,766,766,766,766,766,766,766,766,766,766,766,766,766,766,760,747,739,727,707,700,694,688,681,672,654,649,643,640,634,629,625,620,615,611,599,587,572,559,546,528,524,521,520,520,517,517,516,516,516,515,514],"ymouse":[499,499,499,499,499,499,499,499,499,499,499,499,499,499,499,499,499,499,499,499,499,499,499,499,499,499,499,499,499,499,499,499,499,499,499,499,499,499,499,499,499,499,499,499,499,499,499,499,499,499,499,499,499,499,489,460,443,424,400,389,376,359,340,319,277,263,250,241,222,210,201,194,187,183,174,167,159,151,142,132,129,126,125,123,119,118,117,115,112,101,95],"timestamp_mouse":[19,38,48,68,89,108,128,149,168,188,209,228,249,268,288,308,328,348,368,389,409,428,448,469,489,508,528,548,568,588,609,628,649,668,688,709,729,749,768,789,809,829,848,869,888,908,928,949,968,988,1008,1028,1048,1068,1088,1108,1129,1148,1169,1188,1209,1228,1248,1269,1288,1308,1328,1348,1369,1387,1408,1428,1448,1467,1488,1508,1528,1548,1568,1589,1609,1627,1648,1669,1689,1708,1729,1749,1768,1788,1808],"xSR":741.5,"ySR":469.95,"xT1":424.9,"yT1":0,"xT2":1058.1,"yT2":0,"toosoon":0,"cond_shown":"equaldotanddens","ratio_trial":900,"smaller_num":"18","larger_num":"20","correct_side":1,"subjID":"julianadelmarortiz7","gender":"1","age":"11","school":"6"},{"start_time":1551794765681,"click_time":1551794767468,"finger_time":1551794767047,"fix_duration":1473.2813234112843,"trial":27,"RT":1366,"MT":421,"sideResp":1,"stimulus":"img/500/randomdotsizeEA/R/1_Ratio_500_L_9_R_18.png","xmouse":[773,773,773,773,773,773,773,773,773,773,773,773,773,773,773,773,773,773,773,773,773,773,773,773,773,773,773,773,773,773,773,773,773,773,773,773,773,773,773,773,773,773,773,773,773,773,773,773,773,773,773,773,773,773,773,773,773,773,773,773,773,773,773,773,773,773,773,773,767,752,730,677,664,657,654,653,648,643,637,631,613,604,595,586,577,561,544,537,528,517],"ymouse":[481,481,481,481,481,481,481,481,481,481,481,481,481,481,481,481,481,481,481,481,481,481,481,481,481,481,481,481,481,481,481,481,481,481,481,481,481,481,481,481,481,481,481,481,481,481,481,481,481,481,481,481,481,481,481,481,481,481,481,481,481,481,481,481,481,481,481,475,450,413,376,299,278,265,258,252,230,216,204,190,162,150,136,125,117,103,94,91,87,83],"timestamp_mouse":[10,38,46,66,86,107,126,146,166,186,206,226,246,266,286,306,326,346,366,386,406,427,446,466,486,506,526,546,566,585,607,626,646,666,686,707,726,746,766,787,807,826,846,866,887,907,926,946,965,986,1007,1026,1046,1067,1087,1106,1126,1146,1166,1186,1206,1226,1246,1266,1286,1306,1326,1346,1366,1387,1406,1426,1446,1466,1487,1507,1526,1545,1566,1587,1607,1626,1647,1666,1686,1707,1726,1746,1766,1787],"xSR":741.5,"ySR":469.95,"xT1":424.9,"yT1":0,"xT2":1058.1,"yT2":0,"toosoon":0,"cond_shown":"randomdotsizeEA","ratio_trial":500,"smaller_num":"9","larger_num":"18","correct_side":2,"subjID":"julianadelmarortiz7","gender":"1","age":"11","school":"6"},{"start_time":1551794768719,"click_time":1551794770207,"finger_time":1551794769747,"fix_duration":250,"trial":28,"RT":1028,"MT":460,"sideResp":1,"stimulus":"img/900/equaldotanddens/L/8_Ratio_900_L_20_R_18.png","xmouse":[801,801,801,801,801,801,801,801,801,801,801,801,801,801,801,801,801,801,801,801,801,801,801,801,801,801,801,801,801,801,801,801,801,801,801,801,801,801,801,801,801,801,801,801,801,802,804,804,804,796,781,759,729,687,662,648,643,640,636,625,622,617,611,607,594,588,581,573,568,557,553,547,540,533,524],"ymouse":[529,529,529,529,529,529,529,529,529,529,529,529,529,529,529,529,529,529,529,529,529,529,529,529,529,529,529,529,529,529,529,529,529,529,529,529,529,529,529,529,529,529,529,529,529,530,529,529,529,509,483,444,388,305,251,222,207,196,184,156,147,137,128,121,105,99,94,87,83,76,73,70,66,61,56],"timestamp_mouse":[8,28,49,68,88,108,128,148,168,189,208,229,248,268,288,308,328,348,369,387,408,428,448,468,489,508,529,548,568,588,608,628,648,668,689,708,733,748,769,788,808,828,848,868,887,909,929,949,968,988,1008,1028,1048,1068,1088,1108,1128,1149,1168,1188,1209,1227,1249,1268,1288,1308,1328,1348,1368,1388,1409,1428,1448,1469,1488],"xSR":741.5,"ySR":469.95,"xT1":424.9,"yT1":0,"xT2":1058.1,"yT2":0,"toosoon":0,"cond_shown":"equaldotanddens","ratio_trial":900,"smaller_num":"18","larger_num":"20","correct_side":1,"subjID":"julianadelmarortiz7","gender":"1","age":"11","school":"6"},{"start_time":1551794771617,"click_time":1551794773147,"finger_time":1551794772587,"fix_duration":409.0241328627381,"trial":29,"RT":970,"MT":560,"sideResp":1,"stimulus":"img/250/randomdotsizeEA/L/15_Ratio_250_L_12_R_3.png","xmouse":[788,788,788,788,788,788,788,788,788,788,788,788,788,788,788,788,788,788,788,788,788,788,788,788,788,788,788,788,788,788,788,788,788,788,788,788,788,788,788,788,788,788,788,788,788,792,797,797,792,767,753,741,731,726,719,717,715,714,709,701,697,693,686,681,664,652,640,627,613,579,571,563,556,547,531,527,523],"ymouse":[512,512,512,512,512,512,512,512,512,512,512,512,512,512,512,512,512,512,512,512,512,512,512,512,512,512,512,512,512,512,512,512,512,512,512,512,512,512,512,512,512,512,512,512,512,507,490,470,449,390,357,331,307,288,261,253,243,234,213,199,192,185,178,173,159,151,145,137,129,108,99,90,80,69,53,50,46],"timestamp_mouse":[10,38,50,71,89,110,130,150,170,190,210,230,250,270,291,310,331,351,371,390,409,430,450,469,490,510,531,550,570,590,610,630,650,670,690,711,731,750,770,790,810,831,850,870,890,910,930,951,970,990,1010,1030,1050,1069,1091,1110,1131,1150,1171,1190,1211,1230,1250,1271,1290,1310,1331,1351,1371,1390,1410,1430,1450,1470,1490,1510,1530],"xSR":741.5,"ySR":469.95,"xT1":424.9,"yT1":0,"xT2":1058.1,"yT2":0,"toosoon":0,"cond_shown":"randomdotsizeEA","ratio_trial":250,"smaller_num":"3","larger_num":"12","correct_side":1,"subjID":"julianadelmarortiz7","gender":"1","age":"11","school":"6"},{"start_time":1551794775381,"click_time":1551794776707,"finger_time":1551794776128,"fix_duration":1153.1055287402314,"trial":30,"RT":747,"MT":579,"sideResp":1,"stimulus":"img/500/equaldotanddens/L/4_Ratio_500_L_18_R_9.png","xmouse":[794,794,794,794,794,794,794,794,794,794,794,794,794,794,794,794,794,794,794,794,794,794,794,794,794,794,794,794,794,794,794,794,794,794,794,794,794,780,754,736,717,714,717,718,719,719,716,709,700,690,679,651,643,633,623,609,580,565,554,546,542,539,539,537,534,529,518],"ymouse":[505,505,505,505,505,505,505,505,505,505,505,505,505,505,505,505,505,505,505,505,505,505,505,505,505,505,505,505,505,505,505,505,505,505,505,505,502,466,401,344,261,208,196,191,186,182,168,157,146,137,130,109,103,98,93,85,70,63,58,56,55,54,54,54,54,53,50],"timestamp_mouse":[10,38,46,66,86,107,127,146,166,186,206,226,246,266,286,307,326,346,366,386,407,426,446,466,486,506,526,546,566,586,606,626,646,666,686,706,727,747,766,787,807,826,847,866,887,906,926,946,966,987,1007,1026,1047,1066,1086,1107,1125,1145,1167,1186,1206,1226,1246,1266,1287,1306,1326],"xSR":741.5,"ySR":469.95,"xT1":424.9,"yT1":0,"xT2":1058.1,"yT2":0,"toosoon":0,"cond_shown":"equaldotanddens","ratio_trial":500,"smaller_num":"9","larger_num":"18","correct_side":1,"subjID":"julianadelmarortiz7","gender":"1","age":"11","school":"6"},{"start_time":1551794778267,"click_time":1551794780508,"finger_time":1551794779907,"fix_duration":360.39729173200305,"trial":31,"RT":1640,"MT":601,"sideResp":2,"stimulus":"img/750/equaldotsize/L/13_Ratio_750_L_8_R_6.png","xmouse":[784,785,787,787,787,787,787,787,787,787,787,787,787,787,787,787,787,787,787,787,787,787,787,787,787,787,787,787,787,787,787,787,787,787,787,787,787,787,787,787,787,787,787,787,787,787,787,787,787,787,787,787,787,787,787,787,787,787,787,787,787,787,787,787,787,787,787,787,787,787,787,787,787,787,787,787,787,787,791,805,839,951,1001,1032,1050,1069,1087,1102,1116,1130,1144,1158,1166,1173,1178,1183,1186,1186,1186,1186,1186,1186,1185,1184,1181,1179,1172,1171,1169,1165,1161,1149],"ymouse":[535,533,525,522,519,519,519,519,519,519,519,519,519,519,519,519,519,519,519,519,519,519,519,519,519,519,519,519,519,519,519,519,519,519,519,519,519,519,519,519,519,519,519,519,519,519,519,519,519,519,519,519,519,519,519,519,519,519,519,519,519,519,519,519,519,519,519,519,519,519,519,519,519,519,519,519,519,519,518,513,505,475,458,441,427,402,365,344,324,303,283,253,236,222,206,187,166,155,145,136,129,114,109,105,100,97,88,87,85,82,80,73],"timestamp_mouse":[19,39,61,80,100,120,140,160,180,201,221,241,261,280,300,320,340,360,380,400,420,441,460,480,500,520,539,560,581,601,620,640,661,680,701,720,740,760,780,799,821,841,860,880,901,920,940,961,980,1000,1020,1040,1061,1081,1100,1121,1140,1160,1179,1201,1220,1240,1261,1281,1300,1320,1341,1360,1381,1400,1420,1441,1460,1480,1501,1521,1540,1561,1580,1600,1620,1640,1660,1681,1700,1721,1740,1761,1780,1801,1821,1840,1860,1880,1900,1921,1940,1960,1980,2000,2021,2041,2060,2080,2100,2120,2140,2160,2180,2201,2221,2241],"xSR":741.5,"ySR":469.95,"xT1":424.9,"yT1":0,"xT2":1058.1,"yT2":0,"toosoon":0,"cond_shown":"equaldotsize","ratio_trial":750,"smaller_num":"6","larger_num":"8","correct_side":1,"subjID":"julianadelmarortiz7","gender":"1","age":"11","school":"6"},{"start_time":1551794782541,"click_time":1551794783787,"finger_time":1551794783308,"fix_duration":950.2779287692076,"trial":32,"RT":767,"MT":479,"sideResp":1,"stimulus":"img/750/equaldotanddens/L/6_Ratio_750_L_24_R_18.png","xmouse":[766,766,766,766,766,766,766,766,766,766,766,766,766,766,768,769,770,770,770,770,770,770,770,770,770,770,770,770,770,770,770,770,770,770,770,770,770,769,756,739,718,693,674,638,631,626,624,622,612,605,596,587,577,568,563,559,555,551,540,533,526,525,524],"ymouse":[507,507,507,507,507,507,507,507,507,507,507,507,507,507,508,508,508,508,508,508,508,508,508,508,508,508,508,508,508,508,508,508,508,508,508,508,508,492,454,416,377,339,311,267,259,253,250,248,236,227,218,208,191,170,158,144,128,110,76,61,52,50,49],"timestamp_mouse":[10,32,47,67,86,107,126,146,167,187,207,226,247,267,286,307,326,346,366,386,406,426,446,467,487,506,527,546,566,587,606,626,646,666,685,707,726,746,767,786,806,826,846,865,887,906,925,946,966,986,1006,1026,1046,1067,1087,1107,1126,1146,1166,1187,1206,1226,1246],"xSR":741.5,"ySR":469.95,"xT1":424.9,"yT1":0,"xT2":1058.1,"yT2":0,"toosoon":0,"cond_shown":"equaldotanddens","ratio_trial":750,"smaller_num":"18","larger_num":"24","correct_side":1,"subjID":"julianadelmarortiz7","gender":"1","age":"11","school":"6"},{"start_time":1551794786280,"click_time":1551794787607,"finger_time":1551794787127,"fix_duration":250,"trial":33,"RT":847,"MT":480,"sideResp":1,"stimulus":"img/500/randomdotsizeEA/L/5_Ratio_500_L_4_R_2.png","xmouse":[776,776,776,776,776,776,776,776,776,776,776,776,776,776,776,776,776,776,776,776,776,776,776,776,776,776,776,776,776,776,776,776,776,776,776,776,776,776,776,777,777,765,749,726,702,674,620,610,604,599,596,592,588,582,576,570,563,561,559,558,554,546,542,538,533,528,513],"ymouse":[512,512,512,512,512,512,512,512,512,512,512,512,512,512,512,512,512,512,512,512,512,512,512,512,512,512,512,512,512,512,512,512,512,512,512,512,512,512,512,512,512,481,446,395,343,290,184,160,141,125,116,103,94,84,75,66,60,59,58,58,57,56,56,55,54,54,54],"timestamp_mouse":[10,41,46,67,87,106,127,148,166,187,207,227,248,266,288,307,327,348,367,387,407,427,447,467,486,508,528,548,568,586,608,627,648,667,687,707,726,748,767,787,806,828,847,866,888,906,926,947,967,987,1007,1028,1047,1067,1088,1107,1127,1147,1167,1187,1207,1228,1247,1268,1288,1307,1327],"xSR":741.5,"ySR":469.95,"xT1":424.9,"yT1":0,"xT2":1058.1,"yT2":0,"toosoon":0,"cond_shown":"randomdotsizeEA","ratio_trial":500,"smaller_num":"2","larger_num":"4","correct_side":1,"subjID":"julianadelmarortiz7","gender":"1","age":"11","school":"6"},{"start_time":1551794788904,"click_time":1551794790447,"finger_time":1551794789746,"fix_duration":474.7243980686671,"trial":34,"RT":842,"MT":701,"sideResp":1,"stimulus":"img/900/equaldotsize/L/1_Ratio_900_L_10_R_9.png","xmouse":[802,802,802,802,802,802,802,802,802,802,802,802,802,802,802,802,802,802,802,802,802,802,802,802,802,802,802,802,802,802,802,802,802,802,802,802,802,802,802,802,801,799,794,784,752,682,640,608,584,568,555,555,555,555,555,555,555,555,555,555,555,555,555,555,555,555,555,555,555,555,555,555,555,555,555,555,555,481],"ymouse":[494,494,494,494,494,494,494,494,494,494,494,494,494,494,494,494,494,494,494,494,494,494,494,494,494,494,494,494,494,494,494,494,494,494,494,494,494,494,494,494,495,476,460,420,341,224,163,110,70,37,6,6,6,6,6,6,6,6,6,6,6,6,6,6,6,6,6,6,6,6,6,6,6,6,6,6,6,5],"timestamp_mouse":[9,32,43,63,84,104,124,144,163,182,203,224,243,264,283,303,324,342,364,384,404,423,443,462,483,503,524,543,564,584,604,624,644,664,683,703,723,742,764,783,803,824,842,863,883,903,924,943,963,984,1003,1022,1042,1063,1083,1103,1123,1143,1163,1183,1203,1223,1243,1264,1283,1303,1323,1343,1364,1383,1404,1423,1444,1464,1483,1504,1522,1543],"xSR":741.5,"ySR":469.95,"xT1":424.9,"yT1":0,"xT2":1058.1,"yT2":0,"toosoon":0,"cond_shown":"equaldotsize","ratio_trial":900,"smaller_num":"9","larger_num":"10","correct_side":1,"subjID":"julianadelmarortiz7","gender":"1","age":"11","school":"6"},{"start_time":1551794792532,"click_time":1551794795027,"finger_time":1551794793687,"fix_duration":524.0453543214427,"trial":35,"RT":1155,"MT":1340,"sideResp":2,"stimulus":"img/750/randomdotsizeEA/R/3_Ratio_750_L_15_R_20.png","xmouse":[762,762,762,762,762,762,762,762,762,762,762,762,762,762,762,762,762,762,762,762,762,762,762,762,762,762,762,762,762,762,762,762,762,762,762,762,762,762,762,762,762,762,762,762,762,762,762,762,762,762,762,762,762,762,762,759,757,753,739,730,718,708,701,679,667,657,645,635,619,614,610,607,605,604,604,604,604,604,607,610,612,616,620,650,668,680,684,686,690,695,707,727,751,813,835,853,872,890,928,947,965,979,992,1014,1021,1027,1034,1041,1062,1073,1081,1085,1089,1095,1097,1099,1101,1102,1106,1107,1108,1109,1110,1112,1112],"ymouse":[489,489,489,489,489,489,489,489,489,489,489,489,489,489,489,489,489,489,489,489,489,489,489,489,489,489,489,489,489,489,489,489,489,489,489,489,489,489,489,489,489,489,489,489,489,489,489,489,489,489,489,489,489,489,489,478,472,462,437,422,406,391,381,347,331,317,300,287,265,258,251,246,244,242,241,240,238,235,220,210,198,184,168,135,129,127,126,126,125,124,123,120,120,120,123,125,128,130,135,140,144,147,149,151,151,151,151,151,151,148,146,145,143,139,137,135,133,132,129,126,124,119,115,102,99],"timestamp_mouse":[14,40,55,75,94,116,135,155,176,196,215,236,255,274,295,315,336,356,375,396,416,436,455,475,496,516,535,556,574,596,616,636,655,675,694,715,734,755,774,795,814,836,855,875,895,915,934,956,976,996,1016,1034,1056,1074,1094,1116,1135,1155,1174,1195,1215,1236,1256,1275,1296,1315,1336,1356,1375,1395,1416,1434,1455,1475,1495,1515,1536,1556,1575,1595,1614,1636,1656,1676,1696,1716,1735,1756,1775,1794,1816,1835,1855,1876,1895,1915,1935,1956,1976,1996,2015,2034,2054,2075,2096,2115,2136,2155,2176,2194,2215,2235,2256,2275,2295,2315,2336,2356,2374,2395,2415,2436,2455,2475,2495],"xSR":741.5,"ySR":469.95,"xT1":424.9,"yT1":0,"xT2":1058.1,"yT2":0,"toosoon":0,"cond_shown":"randomdotsizeEA","ratio_trial":750,"smaller_num":"15","larger_num":"20","correct_side":2,"subjID":"julianadelmarortiz7","gender":"1","age":"11","school":"6"},{"start_time":1551794797381,"click_time":1551794799027,"finger_time":1551794798168,"fix_duration":1332.6576802201093,"trial":36,"RT":787,"MT":859,"sideResp":1,"stimulus":"img/500/equaldotanddens/L/4_Ratio_500_L_18_R_9.png","xmouse":[788,788,788,788,788,788,788,788,788,788,788,788,788,788,788,788,788,788,788,788,788,788,788,788,788,788,788,788,788,788,788,788,788,788,788,788,788,781,774,754,727,658,640,630,624,620,618,617,613,609,602,589,586,582,578,574,569,567,566,566,566,557,551,547,547,547,547,547,547,547,547,547,547,547,547,547,547,547,547,546,545,525,519],"ymouse":[497,497,497,497,497,497,497,497,497,497,497,497,497,497,497,497,497,497,497,497,497,497,497,497,497,497,497,497,497,497,497,497,497,497,497,497,497,488,476,443,405,321,302,292,285,281,279,278,275,272,267,259,256,253,249,245,237,232,224,200,164,66,44,30,27,26,26,26,26,26,26,26,26,26,26,26,26,26,26,26,26,38,42],"timestamp_mouse":[9,37,46,67,86,105,126,146,167,186,205,226,246,267,287,307,326,347,365,386,407,425,447,465,487,506,525,546,565,587,605,626,646,667,687,705,726,745,766,787,806,826,846,865,886,906,927,947,966,986,1006,1026,1047,1066,1086,1106,1127,1147,1166,1186,1207,1226,1246,1265,1287,1306,1326,1345,1365,1386,1407,1426,1447,1466,1486,1507,1526,1546,1567,1586,1606,1626,1646],"xSR":741.5,"ySR":469.95,"xT1":424.9,"yT1":0,"xT2":1058.1,"yT2":0,"toosoon":0,"cond_shown":"equaldotanddens","ratio_trial":500,"smaller_num":"9","larger_num":"18","correct_side":1,"subjID":"julianadelmarortiz7","gender":"1","age":"11","school":"6"},{"start_time":1551794802241,"click_time":1551794803627,"finger_time":1551794803007,"fix_duration":712.863263744322,"trial":37,"RT":766,"MT":620,"sideResp":2,"stimulus":"img/750/equaldotsize/R/11_Ratio_750_L_12_R_16.png","xmouse":[796,796,796,796,796,796,796,796,796,796,796,796,796,796,796,796,796,796,796,796,796,796,796,796,796,796,796,796,796,796,796,796,796,796,796,796,802,811,865,895,923,943,957,978,990,1003,1016,1025,1037,1041,1045,1052,1057,1069,1072,1077,1079,1082,1089,1089,1089,1089,1089,1089,1090,1090,1091,1092,1099,1108],"ymouse":[506,506,506,506,506,506,506,506,506,506,506,506,506,506,506,506,506,506,506,506,506,506,506,506,506,506,506,506,506,506,506,506,506,506,506,506,506,500,456,429,404,381,360,324,306,285,266,251,231,225,220,210,203,187,181,175,170,164,151,150,149,149,149,145,142,139,135,130,106,86],"timestamp_mouse":[13,32,46,67,87,105,127,146,166,186,206,226,245,266,286,306,326,346,366,387,406,427,447,465,487,506,525,545,566,585,607,627,645,666,686,706,727,746,766,787,806,827,847,867,886,906,927,947,967,987,1006,1026,1045,1067,1086,1105,1126,1146,1166,1187,1207,1226,1246,1265,1285,1305,1326,1346,1366,1386],"xSR":741.5,"ySR":469.95,"xT1":424.9,"yT1":0,"xT2":1058.1,"yT2":0,"toosoon":0,"cond_shown":"equaldotsize","ratio_trial":750,"smaller_num":"12","larger_num":"16","correct_side":2,"subjID":"julianadelmarortiz7","gender":"1","age":"11","school":"6"},{"start_time":1551794805418,"click_time":1551794807447,"finger_time":1551794806587,"fix_duration":708.658538942971,"trial":38,"RT":1169,"MT":860,"sideResp":1,"stimulus":"img/900/equaldotsize/R/3_Ratio_900_L_9_R_10.png","xmouse":[808,808,808,808,808,808,808,808,808,808,808,808,808,808,808,808,808,808,808,808,808,808,808,808,808,808,808,808,808,808,808,808,808,808,808,808,808,808,808,808,808,808,808,808,808,808,808,808,808,808,808,808,808,808,808,807,806,798,788,761,750,742,733,726,704,689,679,668,659,639,632,629,626,621,608,602,596,590,579,566,557,549,544,538,533,532,532,532,532,532,532,532,532,532,532,532,531,530,530,526,525,523],"ymouse":[497,497,497,497,497,497,497,497,497,497,497,497,497,497,497,497,497,497,497,497,497,497,497,497,497,497,497,497,497,497,497,497,497,497,497,497,497,497,497,497,497,497,497,497,497,497,497,497,497,497,497,497,497,497,497,498,494,473,451,406,390,374,358,347,316,292,267,242,222,186,179,175,173,169,163,160,156,153,149,145,141,140,137,134,130,127,121,109,100,86,84,84,84,84,84,83,82,81,81,79,79,77],"timestamp_mouse":[10,35,50,69,90,108,130,149,170,189,209,229,250,270,289,310,330,349,370,388,409,429,449,469,490,508,530,548,569,590,610,630,648,669,689,710,729,749,768,790,808,830,850,869,890,909,930,948,969,989,1009,1029,1049,1069,1088,1109,1129,1150,1169,1189,1208,1229,1249,1270,1288,1310,1329,1349,1370,1388,1409,1429,1449,1469,1489,1510,1529,1548,1569,1589,1610,1628,1649,1669,1689,1709,1729,1749,1768,1788,1809,1828,1849,1870,1889,1910,1928,1950,1970,1989,2009,2029],"xSR":741.5,"ySR":469.95,"xT1":424.9,"yT1":0,"xT2":1058.1,"yT2":0,"toosoon":0,"cond_shown":"equaldotsize","ratio_trial":900,"smaller_num":"9","larger_num":"10","correct_side":2,"subjID":"julianadelmarortiz7","gender":"1","age":"11","school":"6"},{"start_time":1551794809609,"click_time":1551794811247,"finger_time":1551794810646,"fix_duration":1260.39788191831,"trial":39,"RT":1037,"MT":601,"sideResp":2,"stimulus":"img/900/randomdotsizeEA/R/12_Ratio_900_L_18_R_20.png","xmouse":[799,799,799,799,799,799,799,799,799,799,799,799,799,799,799,799,799,799,799,799,799,799,799,799,799,799,799,799,799,799,799,799,799,799,799,799,799,799,799,799,799,799,799,799,799,799,799,804,808,826,835,842,846,856,891,917,944,973,1004,1083,1109,1133,1153,1166,1179,1181,1182,1182,1182,1182,1182,1182,1182,1182,1176,1169,1165,1163,1162,1160,1159,1158],"ymouse":[521,521,521,521,521,521,521,521,521,521,521,521,521,521,521,521,521,521,521,521,521,521,521,521,521,521,521,521,521,521,521,521,521,521,521,521,521,521,521,521,521,521,521,521,521,521,521,512,507,489,480,474,469,462,432,412,389,366,343,276,251,224,200,183,163,159,156,155,154,153,153,153,153,151,144,134,126,112,99,74,68,67],"timestamp_mouse":[34,38,58,79,98,118,138,158,179,198,219,239,258,278,299,318,338,358,378,398,419,437,459,479,499,518,539,558,577,598,618,639,657,678,698,718,737,764,778,798,819,838,857,878,898,918,938,959,978,998,1017,1037,1058,1079,1099,1117,1138,1158,1178,1198,1218,1238,1259,1278,1298,1318,1338,1358,1378,1398,1417,1438,1459,1478,1498,1517,1538,1558,1578,1598,1618,1638],"xSR":741.5,"ySR":469.95,"xT1":424.9,"yT1":0,"xT2":1058.1,"yT2":0,"toosoon":0,"cond_shown":"randomdotsizeEA","ratio_trial":900,"smaller_num":"18","larger_num":"20","correct_side":2,"subjID":"julianadelmarortiz7","gender":"1","age":"11","school":"6"},{"start_time":1551794813715,"click_time":1551794815108,"finger_time":1551794814708,"fix_duration":1387.8318540699524,"trial":40,"RT":993,"MT":400,"sideResp":2,"stimulus":"img/250/equaldotsize/R/13_Ratio_250_L_2_R_8.png","xmouse":[778,778,778,778,778,778,778,779,782,789,791,792,792,792,792,792,792,792,792,792,792,792,792,792,792,792,792,792,792,792,792,792,792,792,792,792,792,792,792,792,792,792,792,792,792,793,798,804,818,855,885,914,933,946,955,958,968,975,987,1003,1010,1019,1028,1035,1055,1066,1075,1083,1091,1096],"ymouse":[514,514,514,514,514,514,514,515,515,515,515,514,514,514,514,514,514,514,514,514,514,514,514,514,514,514,514,514,514,514,514,514,514,514,514,514,514,514,514,514,514,514,514,514,514,514,511,505,491,449,419,397,381,368,356,346,327,306,281,241,229,215,199,186,154,140,127,115,105,93],"timestamp_mouse":[12,38,52,73,92,113,133,152,173,191,212,232,253,272,291,313,331,353,373,392,413,433,451,473,492,512,533,553,572,592,613,632,653,672,693,711,733,753,771,792,813,832,853,873,892,912,932,953,973,993,1011,1033,1052,1071,1092,1113,1132,1152,1172,1193,1213,1231,1252,1272,1292,1312,1332,1352,1373,1393],"xSR":741.5,"ySR":469.95,"xT1":424.9,"yT1":0,"xT2":1058.1,"yT2":0,"toosoon":0,"cond_shown":"equaldotsize","ratio_trial":250,"smaller_num":"2","larger_num":"8","correct_side":2,"subjID":"julianadelmarortiz7","gender":"1","age":"11","school":"6"},{"start_time":1551794816439,"click_time":1551794818168,"finger_time":1551794817247,"fix_duration":250,"trial":41,"RT":808,"MT":921,"sideResp":2,"stimulus":"img/250/equaldotsize/R/8_Ratio_250_L_1_R_4.png","xmouse":[779,779,779,779,779,779,779,779,779,779,779,779,779,779,779,779,779,779,779,779,779,779,779,779,779,779,779,779,779,779,779,779,779,779,779,779,779,781,815,838,860,878,891,907,916,925,935,951,975,990,997,1004,1012,1023,1029,1035,1041,1046,1058,1061,1065,1068,1070,1072,1074,1075,1076,1079,1082,1083,1083,1085,1085,1085,1085,1085,1085,1085,1085,1085,1085,1085,1085,1085,1085,1085,1087],"ymouse":[520,520,520,520,520,520,520,520,520,520,520,520,520,520,520,520,520,520,520,520,520,520,520,520,520,520,520,520,520,520,520,520,520,520,520,520,520,519,499,488,477,466,459,445,436,423,407,387,352,327,312,295,278,249,236,221,207,195,168,159,151,144,140,134,130,128,124,117,112,109,106,102,102,102,102,102,102,102,102,102,102,102,102,102,102,101,98],"timestamp_mouse":[9,34,48,69,88,108,128,147,168,189,208,228,249,268,288,308,328,349,368,388,409,429,449,469,488,509,528,547,568,589,609,629,648,669,687,708,729,748,768,789,808,828,849,868,888,909,928,948,968,988,1008,1027,1048,1069,1088,1107,1128,1149,1168,1188,1208,1229,1248,1269,1288,1308,1329,1349,1367,1388,1408,1429,1447,1468,1488,1509,1528,1548,1568,1588,1608,1628,1648,1668,1689,1708,1729],"xSR":741.5,"ySR":469.95,"xT1":424.9,"yT1":0,"xT2":1058.1,"yT2":0,"toosoon":0,"cond_shown":"equaldotsize","ratio_trial":250,"smaller_num":"1","larger_num":"4","correct_side":2,"subjID":"julianadelmarortiz7","gender":"1","age":"11","school":"6"},{"start_time":1551794819300,"click_time":1551794821127,"finger_time":1551794820567,"fix_duration":250,"trial":42,"RT":1267,"MT":560,"sideResp":2,"stimulus":"img/500/randomdotsizeEA/R/3_Ratio_500_L_10_R_20.png","xmouse":[827,827,827,827,827,827,827,827,827,827,825,822,820,819,819,819,819,819,819,819,819,819,819,819,819,819,819,819,819,819,819,819,819,819,819,819,819,819,819,819,819,819,819,822,825,830,831,831,831,831,831,831,831,831,831,831,831,831,831,831,832,835,841,852,864,899,913,930,952,979,1027,1049,1066,1080,1086,1092,1092,1092,1092,1091,1090,1089,1088,1087,1084,1080,1079,1077,1076,1076,1076,1078],"ymouse":[523,523,523,523,523,523,523,523,523,523,523,524,524,524,524,524,524,524,524,524,524,524,524,524,524,524,524,524,524,524,524,524,524,524,524,524,524,524,524,524,524,524,524,518,515,506,504,503,502,501,501,501,501,501,501,501,501,501,500,499,493,484,472,454,435,392,377,360,342,319,277,257,242,228,219,204,203,197,193,188,176,170,162,156,145,138,135,131,126,120,103,95],"timestamp_mouse":[11,35,47,67,87,106,127,147,168,186,207,226,247,267,288,307,328,347,368,387,407,427,447,468,487,507,526,548,568,587,607,626,648,667,686,708,728,748,767,787,806,827,847,868,887,907,927,947,968,987,1007,1027,1048,1067,1087,1107,1128,1146,1167,1187,1208,1226,1247,1267,1288,1307,1327,1347,1368,1388,1407,1426,1446,1467,1488,1507,1527,1548,1566,1587,1606,1626,1647,1667,1688,1707,1727,1746,1767,1788,1808,1827],"xSR":741.5,"ySR":469.95,"xT1":424.9,"yT1":0,"xT2":1058.1,"yT2":0,"toosoon":0,"cond_shown":"randomdotsizeEA","ratio_trial":500,"smaller_num":"10","larger_num":"20","correct_side":2,"subjID":"julianadelmarortiz7","gender":"1","age":"11","school":"6"},{"start_time":1551794822270,"click_time":1551794824307,"finger_time":1551794823507,"fix_duration":279.4928183493437,"trial":43,"RT":1237,"MT":800,"sideResp":1,"stimulus":"img/900/randomdotsizeEA/L/4_Ratio_900_L_20_R_18.png","xmouse":[781,781,781,781,781,781,781,781,781,781,781,781,781,781,781,781,781,781,781,781,781,781,781,781,781,781,781,781,781,781,781,781,781,781,781,781,781,781,781,781,781,781,781,781,781,781,781,781,781,781,781,781,781,781,781,781,781,777,771,762,750,723,713,703,695,687,674,669,664,660,654,642,636,630,626,617,613,612,609,607,602,593,589,584,580,574,565,564,563,563,562,561,561,560,558,554,550,545,542,539,535,524],"ymouse":[533,533,533,533,533,533,533,533,533,533,533,533,533,533,533,533,533,533,533,533,533,533,533,533,533,533,533,533,533,533,533,533,533,533,533,533,533,533,533,533,533,533,533,533,533,533,533,533,533,533,533,533,533,533,533,533,532,527,516,497,476,423,401,378,359,342,316,308,296,284,272,248,238,228,220,207,202,201,198,195,191,183,175,163,149,135,114,111,109,109,108,106,105,105,103,100,99,97,97,97,96,94],"timestamp_mouse":[17,36,57,77,97,118,137,157,176,197,216,237,257,276,297,317,338,358,378,398,416,437,456,477,497,517,537,558,576,597,617,636,658,676,697,717,737,757,776,798,817,837,858,878,898,917,937,957,977,997,1017,1038,1056,1078,1096,1117,1137,1158,1177,1198,1217,1237,1257,1276,1298,1318,1337,1358,1376,1398,1418,1436,1457,1476,1497,1518,1537,1557,1577,1597,1617,1637,1656,1677,1697,1717,1737,1757,1777,1797,1817,1837,1858,1877,1897,1916,1937,1957,1976,1997,2017,2037],"xSR":741.5,"ySR":469.95,"xT1":424.9,"yT1":0,"xT2":1058.1,"yT2":0,"toosoon":0,"cond_shown":"randomdotsizeEA","ratio_trial":900,"smaller_num":"18","larger_num":"20","correct_side":1,"subjID":"julianadelmarortiz7","gender":"1","age":"11","school":"6"},{"start_time":1551794826078,"click_time":1551794827389,"finger_time":1551794826748,"fix_duration":750.3829677917925,"trial":44,"RT":670,"MT":641,"sideResp":2,"stimulus":"img/500/equaldotanddens/R/6_Ratio_500_L_9_R_18.png","xmouse":[811,811,811,811,811,811,811,811,811,811,811,811,811,811,811,811,811,811,811,811,811,811,811,811,811,811,811,811,811,811,811,815,832,848,866,896,925,936,945,955,966,983,993,1001,1007,1011,1020,1024,1025,1027,1028,1030,1031,1033,1037,1040,1047,1049,1050,1051,1052,1054,1055,1056,1058,1061],"ymouse":[517,517,517,517,517,517,517,517,517,517,517,517,517,517,517,517,517,517,517,517,517,517,517,517,517,517,517,517,517,517,517,513,502,491,477,454,426,413,398,380,360,318,297,279,262,249,216,204,192,184,176,164,160,154,147,139,128,122,119,117,114,107,101,98,94,86],"timestamp_mouse":[18,41,50,70,88,110,130,149,170,188,209,229,248,270,290,309,329,349,370,389,409,429,450,470,489,508,529,549,570,590,609,629,649,670,689,709,728,750,769,790,810,829,848,869,889,910,929,949,969,990,1009,1030,1049,1069,1090,1110,1129,1149,1169,1190,1210,1228,1249,1269,1289,1311],"xSR":741.5,"ySR":469.95,"xT1":424.9,"yT1":0,"xT2":1058.1,"yT2":0,"toosoon":0,"cond_shown":"equaldotanddens","ratio_trial":500,"smaller_num":"9","larger_num":"18","correct_side":2,"subjID":"julianadelmarortiz7","gender":"1","age":"11","school":"6"},{"start_time":1551794828721,"click_time":1551794830167,"finger_time":1551794829427,"fix_duration":372.1254878666965,"trial":45,"RT":706,"MT":740,"sideResp":2,"stimulus":"img/250/equaldotsize/R/6_Ratio_250_L_6_R_24.png","xmouse":[792,792,792,792,792,792,792,792,792,792,792,792,792,792,792,792,792,792,792,792,792,792,792,792,792,792,792,792,792,792,792,792,794,803,841,868,895,920,940,963,971,978,984,996,1017,1025,1030,1037,1044,1054,1061,1067,1072,1077,1084,1085,1086,1087,1088,1089,1090,1092,1093,1094,1097,1098,1099,1099,1100,1101,1101,1101,1102],"ymouse":[525,525,525,525,525,525,525,525,525,525,525,525,525,525,525,525,525,525,525,525,525,525,525,525,525,525,525,525,525,525,525,525,523,517,493,476,458,440,425,404,393,380,366,337,295,278,265,252,238,218,207,199,191,183,170,166,164,162,160,155,151,146,142,137,125,121,119,117,114,108,104,101,98],"timestamp_mouse":[9,35,47,66,85,107,126,147,167,185,206,227,246,266,286,306,327,347,366,385,407,426,445,467,487,505,526,547,566,586,607,627,646,666,686,706,726,745,767,785,806,826,846,866,885,905,926,947,966,985,1006,1026,1046,1066,1086,1106,1126,1147,1166,1187,1206,1225,1247,1266,1286,1305,1327,1347,1366,1385,1405,1425,1446],"xSR":741.5,"ySR":469.95,"xT1":424.9,"yT1":0,"xT2":1058.1,"yT2":0,"toosoon":0,"cond_shown":"equaldotsize","ratio_trial":250,"smaller_num":"6","larger_num":"24","correct_side":2,"subjID":"julianadelmarortiz7","gender":"1","age":"11","school":"6"},{"start_time":1551794832347,"click_time":1551794833807,"finger_time":1551794833067,"fix_duration":1118.6104427170656,"trial":46,"RT":720,"MT":740,"sideResp":1,"stimulus":"img/750/equaldotsize/L/10_Ratio_750_L_4_R_3.png","xmouse":[770,770,770,770,770,770,770,770,770,770,770,770,770,770,770,770,770,770,770,770,770,770,770,770,770,770,770,770,770,770,770,770,770,770,767,757,741,719,670,650,636,628,622,618,616,611,608,602,593,588,584,580,577,569,565,561,555,550,540,536,532,527,524,522,521,520,519,517,514,513,513,513,513,512],"ymouse":[504,504,504,504,504,504,504,504,504,504,504,504,504,504,504,504,504,504,504,504,504,504,504,504,504,504,504,504,504,504,504,504,504,504,502,491,479,468,446,441,436,432,429,425,422,414,406,395,374,362,348,334,316,285,270,258,245,234,210,196,182,171,164,154,151,147,141,136,124,120,116,113,109,97],"timestamp_mouse":[1,19,39,60,81,100,120,139,160,181,199,220,241,261,279,301,320,340,359,380,401,419,441,460,479,501,521,539,559,581,599,620,640,659,680,699,720,740,761,780,801,820,839,860,879,900,920,940,960,980,1000,1020,1040,1061,1080,1101,1120,1140,1160,1180,1200,1220,1240,1260,1281,1300,1319,1339,1360,1380,1400,1420,1440,1459],"xSR":741.5,"ySR":469.95,"xT1":424.9,"yT1":0,"xT2":1058.1,"yT2":0,"toosoon":0,"cond_shown":"equaldotsize","ratio_trial":750,"smaller_num":"3","larger_num":"4","correct_side":1,"subjID":"julianadelmarortiz7","gender":"1","age":"11","school":"6"},{"start_time":1551794835038,"click_time":1551794836607,"finger_time":1551794835768,"fix_duration":250,"trial":47,"RT":730,"MT":839,"sideResp":2,"stimulus":"img/500/randomdotsizeEA/R/3_Ratio_500_L_10_R_20.png","xmouse":[796,796,796,796,796,796,796,796,796,796,796,796,796,796,796,796,796,796,796,796,796,796,796,796,796,796,796,796,796,796,796,796,796,799,810,829,858,896,974,1016,1036,1050,1074,1081,1084,1086,1086,1086,1086,1086,1086,1086,1088,1090,1092,1093,1094,1098,1099,1100,1101,1101,1101,1101,1101,1101,1101,1101,1101,1101,1101,1101,1100,1100,1100,1100,1100,1100,1100],"ymouse":[525,525,525,525,525,525,525,525,525,525,525,525,525,525,525,525,525,525,525,525,525,525,525,525,525,525,525,525,525,525,525,525,525,523,517,509,496,480,447,425,412,398,355,333,315,304,297,291,273,266,259,252,242,221,208,197,187,166,154,147,143,141,139,135,134,132,132,131,126,124,120,118,116,112,110,107,104,100,97],"timestamp_mouse":[10,33,49,68,90,109,129,148,169,189,209,229,249,269,290,310,330,350,369,389,408,430,448,469,488,509,530,548,569,590,609,628,648,670,689,708,730,749,769,789,808,829,850,869,889,909,928,949,969,989,1009,1029,1050,1070,1090,1109,1129,1150,1168,1190,1209,1229,1249,1270,1290,1310,1330,1349,1369,1389,1409,1429,1449,1469,1490,1509,1529,1550,1569],"xSR":741.5,"ySR":469.95,"xT1":424.9,"yT1":0,"xT2":1058.1,"yT2":0,"toosoon":0,"cond_shown":"randomdotsizeEA","ratio_trial":500,"smaller_num":"10","larger_num":"20","correct_side":2,"subjID":"julianadelmarortiz7","gender":"1","age":"11","school":"6"},{"start_time":1551794838110,"click_time":1551794839407,"finger_time":1551794838928,"fix_duration":583.7875896359961,"trial":48,"RT":818,"MT":479,"sideResp":1,"stimulus":"img/250/equaldotsize/L/3_Ratio_250_L_8_R_2.png","xmouse":[785,785,785,785,785,785,785,785,785,785,785,785,785,785,785,785,785,785,785,785,785,785,785,785,785,785,785,785,785,785,785,785,785,785,785,785,785,785,783,753,729,694,658,625,566,553,546,541,534,524,518,512,509,506,503,503,503,504,504,504,505,505,505,505,505],"ymouse":[526,526,526,526,526,526,526,526,526,526,526,526,526,526,526,526,526,526,526,526,526,526,526,526,526,526,526,526,526,526,526,526,526,526,526,526,526,525,517,471,446,417,391,367,320,306,297,286,274,250,235,220,207,197,177,161,149,139,131,120,115,111,108,105,99],"timestamp_mouse":[31,36,57,77,96,116,136,156,178,198,218,236,257,278,297,317,338,357,377,398,416,438,457,478,496,517,537,557,577,597,616,638,658,678,696,717,737,757,777,796,818,838,858,877,897,918,936,957,977,997,1017,1036,1057,1077,1097,1117,1136,1157,1177,1197,1217,1238,1258,1277,1297],"xSR":741.5,"ySR":469.95,"xT1":424.9,"yT1":0,"xT2":1058.1,"yT2":0,"toosoon":0,"cond_shown":"equaldotsize","ratio_trial":250,"smaller_num":"2","larger_num":"8","correct_side":1,"subjID":"julianadelmarortiz7","gender":"1","age":"11","school":"6"},{"start_time":1551794842343,"click_time":1551794844206,"finger_time":1551794843546,"fix_duration":614.960434924993,"trial":49,"RT":1203,"MT":660,"sideResp":1,"stimulus":"img/900/randomdotsizeEA/L/10_Ratio_900_L_20_R_18.png","xmouse":[781,781,781,781,781,781,781,781,781,781,781,781,781,781,781,781,781,781,781,781,781,781,781,781,781,781,781,781,781,781,781,781,781,781,781,781,781,781,781,781,781,781,781,781,781,781,781,781,781,781,778,774,767,757,756,755,755,755,751,746,741,736,727,725,723,721,715,708,689,681,673,664,658,633,621,606,592,580,563,557,552,549,544,533,532,532,532,532,529,527,527,526,525,521],"ymouse":[514,514,514,514,514,514,514,514,514,514,514,514,514,514,514,514,514,514,514,514,514,514,514,514,514,514,514,514,514,514,514,514,514,514,514,514,514,514,514,514,514,514,514,514,514,514,514,514,514,514,513,511,508,502,501,501,501,501,497,493,486,479,462,455,448,438,419,402,369,353,339,323,308,248,220,185,152,128,105,97,91,88,83,74,73,73,73,73,73,73,73,73,73,73],"timestamp_mouse":[10,33,44,63,84,104,125,144,165,184,204,224,244,263,284,304,325,344,363,384,404,423,444,464,485,503,523,544,563,583,603,624,643,664,683,703,723,743,764,784,804,823,843,864,884,904,923,943,963,983,1003,1023,1043,1065,1083,1103,1123,1143,1163,1184,1203,1223,1244,1263,1283,1303,1324,1344,1363,1384,1403,1423,1444,1463,1483,1503,1524,1544,1563,1583,1603,1623,1643,1663,1683,1703,1724,1743,1763,1784,1803,1824,1843,1863],"xSR":741.5,"ySR":469.95,"xT1":424.9,"yT1":0,"xT2":1058.1,"yT2":0,"toosoon":0,"cond_shown":"randomdotsizeEA","ratio_trial":900,"smaller_num":"18","larger_num":"20","correct_side":1,"subjID":"julianadelmarortiz7","gender":"1","age":"11","school":"6"},{"start_time":1551794846607,"click_time":1551794847987,"finger_time":1551794847406,"fix_duration":978.516832514222,"trial":50,"RT":799,"MT":581,"sideResp":2,"stimulus":"img/900/equaldotsize/R/15_Ratio_900_L_9_R_10.png","xmouse":[784,784,784,784,784,784,784,784,784,784,784,784,784,784,784,784,784,784,784,784,784,784,784,784,784,784,784,784,784,784,784,784,784,784,784,784,785,786,792,800,856,897,938,968,995,1031,1046,1060,1078,1101,1140,1146,1149,1150,1156,1158,1158,1158,1158,1159,1159,1159,1156,1151,1148,1142,1139,1138,1136,1134],"ymouse":[483,483,483,483,483,483,483,483,483,483,483,483,483,483,483,483,483,483,483,483,483,483,483,483,483,483,483,483,483,483,483,483,483,483,483,483,484,484,484,482,445,409,371,340,314,291,286,283,281,273,250,241,229,223,211,207,207,207,206,203,178,166,155,147,142,131,125,117,107,95],"timestamp_mouse":[1,30,39,59,79,99,120,139,159,179,199,219,240,260,279,299,319,339,360,379,399,419,440,460,480,499,519,540,560,580,599,620,639,659,679,699,719,739,760,779,799,820,839,860,879,899,919,939,959,980,1000,1020,1039,1059,1080,1099,1119,1139,1159,1179,1199,1219,1240,1259,1279,1300,1320,1339,1359,1380],"xSR":741.5,"ySR":469.95,"xT1":424.9,"yT1":0,"xT2":1058.1,"yT2":0,"toosoon":0,"cond_shown":"equaldotsize","ratio_trial":900,"smaller_num":"9","larger_num":"10","correct_side":2,"subjID":"julianadelmarortiz7","gender":"1","age":"11","school":"6"},{"start_time":1551794849894,"click_time":1551794851607,"finger_time":1551794850706,"fix_duration":947.6263101479798,"trial":51,"RT":812,"MT":901,"sideResp":1,"stimulus":"img/250/equaldotanddens/L/3_Ratio_250_L_8_R_2.png","xmouse":[777,777,777,777,777,777,777,777,777,777,777,777,777,777,777,777,777,777,777,777,777,777,777,777,777,777,777,777,777,777,777,777,777,778,778,778,778,773,769,756,726,712,697,683,661,632,615,598,581,566,541,532,522,515,509,500,498,497,496,495,492,492,490,489,486,479,476,474,473,470,469,469,469,468,467,467,467,467,467,467,467,467,467,468,469,470],"ymouse":[510,510,510,510,510,510,510,510,510,510,510,510,510,510,510,510,510,510,510,510,510,510,510,510,510,510,510,510,510,510,510,510,510,509,508,508,507,504,503,497,483,477,471,462,445,417,400,381,362,344,311,295,279,266,256,243,240,237,234,229,222,218,214,209,203,186,180,168,161,145,140,137,134,132,130,126,124,122,119,117,111,108,106,103,100,97],"timestamp_mouse":[12,44,52,73,92,112,133,153,172,192,213,233,253,272,293,312,334,352,374,392,412,432,453,472,492,512,533,552,572,592,612,632,652,673,693,712,733,752,773,792,812,832,852,872,893,912,933,953,972,992,1012,1033,1052,1072,1093,1113,1133,1152,1173,1193,1212,1233,1252,1273,1292,1312,1332,1352,1372,1393,1412,1433,1452,1472,1493,1512,1533,1553,1572,1592,1612,1632,1653,1672,1693,1713],"xSR":741.5,"ySR":469.95,"xT1":424.9,"yT1":0,"xT2":1058.1,"yT2":0,"toosoon":0,"cond_shown":"equaldotanddens","ratio_trial":250,"smaller_num":"2","larger_num":"8","correct_side":1,"subjID":"julianadelmarortiz7","gender":"1","age":"11","school":"6"},{"start_time":1551794854120,"click_time":1551794855326,"finger_time":1551794854866,"fix_duration":1173.1867444555387,"trial":52,"RT":746,"MT":460,"sideResp":2,"stimulus":"img/250/equaldotanddens/R/12_Ratio_250_L_5_R_20.png","xmouse":[792,792,792,792,792,792,792,792,792,792,792,792,792,792,792,792,792,792,792,792,792,792,792,792,792,792,792,792,792,792,792,792,792,792,793,804,822,843,865,921,945,968,991,1009,1034,1039,1046,1052,1059,1070,1074,1077,1078,1080,1081,1082,1083,1083,1084,1087,1088],"ymouse":[539,539,539,539,539,539,539,539,539,539,539,539,539,539,539,539,539,539,539,539,539,539,539,539,539,539,539,539,539,539,539,539,539,539,539,529,515,497,477,420,391,357,322,289,232,219,206,193,178,151,140,129,125,121,115,114,112,111,108,100,94],"timestamp_mouse":[10,32,46,68,86,107,127,146,166,186,206,227,248,267,287,306,327,346,366,386,407,428,447,467,486,507,527,547,567,586,606,627,647,666,686,708,726,746,766,786,807,826,847,867,886,906,926,947,967,986,1007,1026,1047,1067,1086,1106,1126,1147,1166,1186,1206],"xSR":741.5,"ySR":469.95,"xT1":424.9,"yT1":0,"xT2":1058.1,"yT2":0,"toosoon":0,"cond_shown":"equaldotanddens","ratio_trial":250,"smaller_num":"5","larger_num":"20","correct_side":2,"subjID":"julianadelmarortiz7","gender":"1","age":"11","school":"6"},{"start_time":1551794857532,"click_time":1551794858668,"finger_time":1551794858287,"fix_duration":863.8445699586539,"trial":53,"RT":755,"MT":381,"sideResp":1,"stimulus":"img/750/randomdotsizeEA/L/8_Ratio_750_L_4_R_3.png","xmouse":[774,774,774,774,774,774,774,774,774,774,774,774,774,774,774,774,774,774,774,774,774,774,774,774,774,774,774,774,774,774,774,774,774,774,768,761,752,741,712,694,677,659,637,613,607,594,581,568,543,531,521,511,503,486,478,471,462],"ymouse":[562,562,562,562,562,562,562,562,562,562,562,561,561,559,559,559,559,559,559,559,559,559,559,559,559,559,559,559,559,559,559,559,559,557,551,544,536,524,499,484,468,451,422,384,375,343,315,283,235,218,203,189,174,136,123,109,98],"timestamp_mouse":[14,39,54,74,95,114,134,154,174,194,215,235,254,276,294,314,335,354,376,395,415,434,454,474,494,515,534,555,575,596,615,634,654,675,694,715,735,755,775,794,814,835,855,874,894,914,934,955,974,994,1014,1034,1054,1074,1094,1114,1136],"xSR":741.5,"ySR":469.95,"xT1":424.9,"yT1":0,"xT2":1058.1,"yT2":0,"toosoon":0,"cond_shown":"randomdotsizeEA","ratio_trial":750,"smaller_num":"3","larger_num":"4","correct_side":1,"subjID":"julianadelmarortiz7","gender":"1","age":"11","school":"6"},{"start_time":1551794860501,"click_time":1551794861806,"finger_time":1551794861386,"fix_duration":792.1972026134832,"trial":54,"RT":885,"MT":420,"sideResp":1,"stimulus":"img/250/randomdotsizeEA/L/1_Ratio_250_L_8_R_2.png","xmouse":[819,819,819,819,819,819,819,819,819,819,819,819,819,819,819,819,819,819,819,819,819,819,819,819,819,819,819,819,819,819,819,819,819,819,819,819,819,819,819,819,819,819,809,806,793,751,729,708,689,671,652,646,639,634,625,605,596,588,579,571,559,552,544,535,528,513],"ymouse":[505,505,505,505,505,505,505,505,505,505,505,505,505,505,505,505,505,505,505,505,505,505,505,505,505,505,505,505,505,505,505,505,505,505,505,505,505,505,505,505,505,505,487,471,430,343,314,292,274,257,231,221,209,197,184,155,143,132,120,110,96,88,79,72,65,53],"timestamp_mouse":[9,35,45,65,85,105,126,145,166,186,206,226,245,266,287,306,325,345,366,385,405,425,445,465,485,505,526,545,565,585,606,625,645,666,685,706,725,745,766,786,805,826,845,865,885,905,925,947,966,986,1006,1025,1045,1065,1085,1105,1125,1145,1166,1185,1206,1225,1245,1267,1285,1305],"xSR":741.5,"ySR":469.95,"xT1":424.9,"yT1":0,"xT2":1058.1,"yT2":0,"toosoon":0,"cond_shown":"randomdotsizeEA","ratio_trial":250,"smaller_num":"2","larger_num":"8","correct_side":1,"subjID":"julianadelmarortiz7","gender":"1","age":"11","school":"6"},{"start_time":1551794864306,"click_time":1551794865667,"finger_time":1551794865186,"fix_duration":1119.9858194300816,"trial":55,"RT":880,"MT":481,"sideResp":1,"stimulus":"img/750/equaldotanddens/L/1_Ratio_750_L_20_R_15.png","xmouse":[776,776,776,776,776,776,776,776,776,776,776,776,776,776,776,776,776,776,776,776,776,776,776,776,776,776,776,776,776,776,776,776,776,776,776,776,776,776,776,776,776,776,774,769,756,709,688,672,652,641,624,615,609,602,594,576,572,568,565,563,556,552,548,543,538,528,524,520,517],"ymouse":[499,499,499,499,499,499,499,499,499,499,499,499,499,499,499,499,499,499,499,499,499,499,499,499,499,499,499,499,499,499,499,499,499,499,499,499,499,499,499,499,499,499,494,486,467,392,355,326,300,279,244,227,213,198,184,159,153,148,144,142,134,130,125,122,117,107,103,100,96],"timestamp_mouse":[0,20,40,61,81,100,122,141,160,181,200,221,241,260,281,301,320,340,361,380,400,421,441,462,481,501,521,542,560,580,600,620,640,660,681,700,720,740,760,780,800,820,841,860,880,900,920,941,961,980,1000,1020,1041,1061,1080,1100,1120,1142,1160,1181,1200,1221,1241,1261,1280,1300,1321,1340,1361],"xSR":741.5,"ySR":469.95,"xT1":424.9,"yT1":0,"xT2":1058.1,"yT2":0,"toosoon":0,"cond_shown":"equaldotanddens","ratio_trial":750,"smaller_num":"15","larger_num":"20","correct_side":1,"subjID":"julianadelmarortiz7","gender":"1","age":"11","school":"6"},{"start_time":1551794867081,"click_time":1551794868566,"finger_time":1551794867886,"fix_duration":593.2506973574594,"trial":56,"RT":805,"MT":680,"sideResp":2,"stimulus":"img/750/randomdotsizeEA/R/11_Ratio_750_L_12_R_16.png","xmouse":[818,818,818,818,818,818,818,818,818,818,818,818,818,818,818,818,818,818,818,818,818,818,818,818,818,818,818,818,