[{"start_time":1551899663691,"click_time":1551899664867,"finger_time":1551899664507,"fix_duration":420.7617752801995,"trial":0,"RT":816,"MT":360,"sideResp":1,"stimulus":[],"xmouse":[781,781,781,781,781,781,781,781,781,781,781,781,781,781,781,781,781,781,781,781,781,781,781,781,781,781,781,781,781,781,781,781,785,787,787,788,787,778,762,746,739,730,723,715,712,712,712,710,710,679,646,601,558,533,504,492,480,472,465],"ymouse":[551,551,551,551,551,551,551,551,551,551,551,551,551,551,551,551,551,551,551,551,551,551,551,551,551,551,551,551,551,551,551,551,550,550,550,550,548,543,529,506,494,486,479,475,474,474,474,474,474,418,367,302,248,210,167,149,127,111,95],"timestamp_mouse":[30,36,56,75,95,117,136,157,175,196,216,236,256,275,296,315,336,357,376,396,417,437,455,475,497,515,536,555,576,597,617,635,655,677,697,716,735,755,777,796,816,835,856,875,896,917,937,956,975,997,1015,1035,1056,1077,1096,1115,1135,1155,1175],"xSR":741.5,"ySR":501.8,"xT1":424.9,"yT1":0,"xT2":1058.1,"yT2":0,"toosoon":0,"cond_shown":"Congruent","ratio_trial":300,"L_num":4,"L_den":5,"R_num":2,"R_den":4,"correct_side":1,"subjID":"julianasofiavargasfranco2","gender":"1","age":"11","school":"6","test":{"fix_dur":[250,1500],"timestim":1000,"targets_dim":[100,100],"targets_relative_coord":[0.3,0.7],"size_stim":[880,420],"start_dim":[100,100],"size_start":[300,300],"size_fix":60,"samplingrate":20,"img_types":["Congruent","Incongruent"],"ratios":[100,200,300],"rep_conds":19,"nTrials":120,"trials_to_rest":500,"Trials_order":[76,70,105,72,43,38,39,66,102,84,34,67,78,2,100,68,17,85,9,71,23,119,98,92,7,18,14,46,62,36,28,59,21,19,83,5,60,63,40,24,22,81,74,20,112,53,80,45,86,1,41,11,115,55,64,30,73,97,109,75,51,94,89,42,111,48,82,93,114,4,88,35,26,110,15,77,107,101,6,37,58,108,118,69,13,29,50,99,0,103,90,87,91,61,65,54,8,116,106,113,25,32,57,52,44,47,10,56,96,95,31,79,27,12,33,117,49,16,104,3],"cond_shown":["Congruent","Congruent","Incongruent","Congruent","Incongruent","Congruent","Incongruent","Congruent","Congruent","Congruent","Congruent","Incongruent","Congruent","Congruent","Congruent","Congruent","Incongruent","Incongruent","Incongruent","Incongruent","Incongruent","Incongruent","Congruent","Congruent","Incongruent","Congruent","Congruent","Congruent","Congruent","Congruent","Congruent","Incongruent","Incongruent","Incongruent","Incongruent","Incongruent","Congruent","Incongruent","Congruent","Congruent","Congruent","Incongruent","Congruent","Congruent","Congruent","Incongruent","Congruent","Incongruent","Congruent","Incongruent","Incongruent","Incongruent","Incongruent","Incongruent","Congruent","Congruent","Incongruent","Incongruent","Incongruent","Incongruent","Incongruent","Congruent","Incongruent","Congruent","Incongruent","Congruent","Congruent","Incongruent","Congruent","Congruent","Congruent","Incongruent","Congruent","Congruent","Incongruent","Incongruent","Incongruent","Incongruent","Congruent","Incongruent","Congruent","Congruent","Congruent","Incongruent","Incongruent","Incongruent","Congruent","Incongruent","Congruent","Incongruent","Congruent","Incongruent","Incongruent","Incongruent","Incongruent","Congruent","Congruent","Congruent","Congruent","Incongruent","Incongruent","Congruent","Incongruent","Congruent","Congruent","Incongruent","Congruent","Congruent","Congruent","Incongruent","Incongruent","Incongruent","Incongruent","Congruent","Incongruent","Incongruent","Incongruent","Congruent","Congruent","Incongruent"],"ratio_trial":[300,300,200,100,100,200,200,100,100,100,300,100,100,200,300,200,300,100,200,300,300,300,200,200,100,100,200,300,200,100,300,300,200,100,300,300,100,200,300,100,300,200,200,200,300,300,200,200,200,100,300,300,100,100,300,100,100,100,100,200,200,300,300,100,200,100,300,200,100,300,300,300,200,200,200,300,300,300,100,100,300,100,300,200,100,300,200,200,100,100,100,200,100,100,300,100,200,200,300,300,100,200,200,300,200,300,300,200,100,300,100,100,200,100,200,200,100,300,200,200],"left_num":[4,4,4,11,11,4,4,9,11,11,11,2,4,13,1,9,3,17,6,4,4,4,6,3,10,7,9,20,20,1,11,13,3,10,13,4,7,6,11,7,5,4,8,9,20,7,21,14,20,12,4,4,10,10,4,4,6,9,10,1,4,4,7,7,7,10,1,3,4,20,1,13,1,6,7,4,4,3,15,6,1,10,5,7,13,4,8,14,4,3,6,1,2,3,4,2,8,4,24,13,8,13,1,20,3,13,12,4,4,4,3,1,3,11,4,7,9,18,7,4],"right_num":[2,1,14,4,9,3,6,8,6,6,4,6,6,14,19,4,4,10,3,2,2,2,11,11,8,9,4,9,9,3,2,12,11,9,12,2,9,3,2,15,6,14,7,13,8,8,2,6,9,2,2,6,8,8,1,6,13,20,8,2,1,13,8,15,6,3,11,11,6,8,3,12,21,3,4,2,2,4,13,7,19,3,7,12,12,6,3,12,15,8,5,2,6,8,2,6,3,3,8,12,1,14,3,14,11,12,2,3,15,2,11,8,1,4,6,14,20,9,2,6],"left_den":[5,10,6,22,22,10,5,15,22,22,22,4,8,26,3,20,6,30,20,20,20,20,20,10,25,14,20,25,25,2,22,26,4,25,26,20,14,20,22,14,25,6,15,30,25,10,30,30,25,30,20,5,25,25,10,8,10,10,25,3,30,20,10,14,15,25,5,4,8,25,5,26,2,15,15,20,20,6,25,10,3,25,25,10,26,5,15,30,10,5,20,3,4,5,20,5,15,10,30,26,20,26,2,25,10,26,24,10,10,20,5,2,10,22,5,10,10,20,21,5],"right_den":[4,10,30,10,15,15,10,16,15,15,20,15,10,20,30,16,20,15,6,4,4,4,22,22,16,15,16,18,15,5,10,15,20,18,15,4,15,6,10,25,12,30,21,26,16,20,4,9,15,4,4,12,16,16,10,10,26,25,16,15,3,26,20,25,9,10,22,20,10,16,6,15,30,15,6,4,4,20,26,14,30,10,14,24,20,12,9,18,30,16,25,15,15,16,4,12,9,15,16,15,2,20,10,28,22,15,10,15,30,4,22,20,2,10,10,28,25,15,15,10],"correct_side":[1,1,1,1,2,1,1,1,1,1,1,1,2,2,2,1,1,2,2,2,2,2,2,2,2,2,1,1,1,2,1,2,1,2,2,2,2,2,1,2,2,1,1,2,1,1,1,2,1,2,2,1,2,2,1,2,1,1,2,1,2,2,1,2,2,1,2,1,2,1,2,2,2,1,2,2,2,1,1,1,2,1,2,1,2,1,1,2,2,1,1,1,1,1,2,2,1,1,1,2,2,2,1,1,2,2,1,1,2,2,1,1,2,1,1,1,1,1,1,1],"img_shown":["img2/300/Congruent/L/C_Dist_300_LN_4_LD_5_RN_2_RD_4_0.png","img2/300/Congruent/L/C_Dist_300_LN_4_LD_10_RN_1_RD_10_0.png","img2/200/Incongruent/L/I_Dist_200_LN_4_LD_6_RN_14_RD_30_0.png","img2/100/Congruent/L/C_Dist_100_LN_11_LD_22_RN_4_RD_10_0.png","img2/100/Incongruent/R/I_Dist_100_LN_11_LD_22_RN_9_RD_15_1.png","img2/200/Congruent/L/C_Dist_200_LN_4_LD_10_RN_3_RD_15_0.png","img2/200/Incongruent/L/I_Dist_200_LN_4_LD_5_RN_6_RD_10_0.png","img2/100/Congruent/L/C_Dist_100_LN_9_LD_15_RN_8_RD_16_0.png","img2/100/Congruent/L/C_Dist_100_LN_11_LD_22_RN_6_RD_15_0.png","img2/100/Congruent/L/C_Dist_100_LN_11_LD_22_RN_6_RD_15_0.png","img2/300/Congruent/L/C_Dist_300_LN_11_LD_22_RN_4_RD_20_0.png","img2/100/Incongruent/L/I_Dist_100_LN_2_LD_4_RN_6_RD_15_0.png","img2/100/Congruent/R/C_Dist_100_LN_4_LD_8_RN_6_RD_10_1.png","img2/200/Congruent/R/C_Dist_200_LN_13_LD_26_RN_14_RD_20_1.png","img2/300/Congruent/R/C_Dist_300_LN_1_LD_3_RN_19_RD_30_1.png","img2/200/Congruent/L/C_Dist_200_LN_9_LD_20_RN_4_RD_16_0.png","img2/300/Incongruent/L/I_Dist_300_LN_3_LD_6_RN_4_RD_20_0.png","img2/100/Incongruent/R/I_Dist_100_LN_17_LD_30_RN_10_RD_15_1.png","img2/200/Incongruent/R/I_Dist_200_LN_6_LD_20_RN_3_RD_6_1.png","img2/300/Incongruent/R/I_Dist_300_LN_4_LD_20_RN_2_RD_4_1.png","img2/300/Incongruent/R/I_Dist_300_LN_4_LD_20_RN_2_RD_4_1.png","img2/300/Incongruent/R/I_Dist_300_LN_4_LD_20_RN_2_RD_4_1.png","img2/200/Congruent/R/C_Dist_200_LN_6_LD_20_RN_11_RD_22_1.png","img2/200/Congruent/R/C_Dist_200_LN_3_LD_10_RN_11_RD_22_1.png","img2/100/Incongruent/R/I_Dist_100_LN_10_LD_25_RN_8_RD_16_1.png","img2/100/Congruent/R/C_Dist_100_LN_7_LD_14_RN_9_RD_15_1.png","img2/200/Congruent/L/C_Dist_200_LN_9_LD_20_RN_4_RD_16_0.png","img2/300/Congruent/L/C_Dist_300_LN_20_LD_25_RN_9_RD_18_0.png","img2/200/Congruent/L/C_Dist_200_LN_20_LD_25_RN_9_RD_15_0.png","img2/100/Congruent/R/C_Dist_100_LN_1_LD_2_RN_3_RD_5_1.png","img2/300/Congruent/L/C_Dist_300_LN_11_LD_22_RN_2_RD_10_0.png","img2/300/Incongruent/R/I_Dist_300_LN_13_LD_26_RN_12_RD_15_1.png","img2/200/Incongruent/L/I_Dist_200_LN_3_LD_4_RN_11_RD_20_0.png","img2/100/Incongruent/R/I_Dist_100_LN_10_LD_25_RN_9_RD_18_1.png","img2/300/Incongruent/R/I_Dist_300_LN_13_LD_26_RN_12_RD_15_1.png","img2/300/Incongruent/R/I_Dist_300_LN_4_LD_20_RN_2_RD_4_1.png","img2/100/Congruent/R/C_Dist_100_LN_7_LD_14_RN_9_RD_15_1.png","img2/200/Incongruent/R/I_Dist_200_LN_6_LD_20_RN_3_RD_6_1.png","img2/300/Congruent/L/C_Dist_300_LN_11_LD_22_RN_2_RD_10_0.png","img2/100/Congruent/R/C_Dist_100_LN_7_LD_14_RN_15_RD_25_1.png","img2/300/Congruent/R/C_Dist_300_LN_5_LD_25_RN_6_RD_12_1.png","img2/200/Incongruent/L/I_Dist_200_LN_4_LD_6_RN_14_RD_30_0.png","img2/200/Congruent/L/C_Dist_200_LN_8_LD_15_RN_7_RD_21_0.png","img2/200/Congruent/R/C_Dist_200_LN_9_LD_30_RN_13_RD_26_1.png","img2/300/Congruent/L/C_Dist_300_LN_20_LD_25_RN_8_RD_16_0.png","img2/300/Incongruent/L/I_Dist_300_LN_7_LD_10_RN_8_RD_20_0.png","img2/200/Congruent/L/C_Dist_200_LN_21_LD_30_RN_2_RD_4_0.png","img2/200/Incongruent/R/I_Dist_200_LN_14_LD_30_RN_6_RD_9_1.png","img2/200/Congruent/L/C_Dist_200_LN_20_LD_25_RN_9_RD_15_0.png","img2/100/Incongruent/R/I_Dist_100_LN_12_LD_30_RN_2_RD_4_1.png","img2/300/Incongruent/R/I_Dist_300_LN_4_LD_20_RN_2_RD_4_1.png","img2/300/Incongruent/L/I_Dist_300_LN_4_LD_5_RN_6_RD_12_0.png","img2/100/Incongruent/R/I_Dist_100_LN_10_LD_25_RN_8_RD_16_1.png","img2/100/Incongruent/R/I_Dist_100_LN_10_LD_25_RN_8_RD_16_1.png","img2/300/Congruent/L/C_Dist_300_LN_4_LD_10_RN_1_RD_10_0.png","img2/100/Congruent/R/C_Dist_100_LN_4_LD_8_RN_6_RD_10_1.png","img2/100/Incongruent/L/I_Dist_100_LN_6_LD_10_RN_13_RD_26_0.png","img2/100/Incongruent/L/I_Dist_100_LN_9_LD_10_RN_20_RD_25_0.png","img2/100/Incongruent/R/I_Dist_100_LN_10_LD_25_RN_8_RD_16_1.png","img2/200/Incongruent/L/I_Dist_200_LN_1_LD_3_RN_2_RD_15_0.png","img2/200/Incongruent/R/I_Dist_200_LN_4_LD_30_RN_1_RD_3_1.png","img2/300/Congruent/R/C_Dist_300_LN_4_LD_20_RN_13_RD_26_1.png","img2/300/Incongruent/L/I_Dist_300_LN_7_LD_10_RN_8_RD_20_0.png","img2/100/Congruent/R/C_Dist_100_LN_7_LD_14_RN_15_RD_25_1.png","img2/200/Incongruent/R/I_Dist_200_LN_7_LD_15_RN_6_RD_9_1.png","img2/100/Congruent/L/C_Dist_100_LN_10_LD_25_RN_3_RD_10_0.png","img2/300/Congruent/R/C_Dist_300_LN_1_LD_5_RN_11_RD_22_1.png","img2/200/Incongruent/L/I_Dist_200_LN_3_LD_4_RN_11_RD_20_0.png","img2/100/Congruent/R/C_Dist_100_LN_4_LD_8_RN_6_RD_10_1.png","img2/300/Congruent/L/C_Dist_300_LN_20_LD_25_RN_8_RD_16_0.png","img2/300/Congruent/R/C_Dist_300_LN_1_LD_5_RN_3_RD_6_1.png","img2/300/Incongruent/R/I_Dist_300_LN_13_LD_26_RN_12_RD_15_1.png","img2/200/Congruent/R/C_Dist_200_LN_1_LD_2_RN_21_RD_30_1.png","img2/200/Congruent/L/C_Dist_200_LN_6_LD_15_RN_3_RD_15_0.png","img2/200/Incongruent/R/I_Dist_200_LN_7_LD_15_RN_4_RD_6_1.png","img2/300/Incongruent/R/I_Dist_300_LN_4_LD_20_RN_2_RD_4_1.png","img2/300/Incongruent/R/I_Dist_300_LN_4_LD_20_RN_2_RD_4_1.png","img2/300/Incongruent/L/I_Dist_300_LN_3_LD_6_RN_4_RD_20_0.png","img2/100/Congruent/L/C_Dist_100_LN_15_LD_25_RN_13_RD_26_0.png","img2/100/Incongruent/L/I_Dist_100_LN_6_LD_10_RN_7_RD_14_0.png","img2/300/Congruent/R/C_Dist_300_LN_1_LD_3_RN_19_RD_30_1.png","img2/100/Congruent/L/C_Dist_100_LN_10_LD_25_RN_3_RD_10_0.png","img2/300/Congruent/R/C_Dist_300_LN_5_LD_25_RN_7_RD_14_1.png","img2/200/Incongruent/L/I_Dist_200_LN_7_LD_10_RN_12_RD_24_0.png","img2/100/Incongruent/R/I_Dist_100_LN_13_LD_26_RN_12_RD_20_1.png","img2/300/Incongruent/L/I_Dist_300_LN_4_LD_5_RN_6_RD_12_0.png","img2/200/Congruent/L/C_Dist_200_LN_8_LD_15_RN_3_RD_9_0.png","img2/200/Incongruent/R/I_Dist_200_LN_14_LD_30_RN_12_RD_18_1.png","img2/100/Congruent/R/C_Dist_100_LN_4_LD_10_RN_15_RD_30_1.png","img2/100/Incongruent/L/I_Dist_100_LN_3_LD_5_RN_8_RD_16_0.png","img2/100/Congruent/L/C_Dist_100_LN_6_LD_20_RN_5_RD_25_0.png","img2/200/Incongruent/L/I_Dist_200_LN_1_LD_3_RN_2_RD_15_0.png","img2/100/Incongruent/L/I_Dist_100_LN_2_LD_4_RN_6_RD_15_0.png","img2/100/Incongruent/L/I_Dist_100_LN_3_LD_5_RN_8_RD_16_0.png","img2/300/Incongruent/R/I_Dist_300_LN_4_LD_20_RN_2_RD_4_1.png","img2/100/Congruent/R/C_Dist_100_LN_2_LD_5_RN_6_RD_12_1.png","img2/200/Congruent/L/C_Dist_200_LN_8_LD_15_RN_3_RD_9_0.png","img2/200/Congruent/L/C_Dist_200_LN_4_LD_10_RN_3_RD_15_0.png","img2/300/Congruent/L/C_Dist_300_LN_24_LD_30_RN_8_RD_16_0.png","img2/300/Incongruent/R/I_Dist_300_LN_13_LD_26_RN_12_RD_15_1.png","img2/100/Incongruent/R/I_Dist_100_LN_8_LD_20_RN_1_RD_2_1.png","img2/200/Congruent/R/C_Dist_200_LN_13_LD_26_RN_14_RD_20_1.png","img2/200/Incongruent/L/I_Dist_200_LN_1_LD_2_RN_3_RD_10_0.png","img2/300/Congruent/L/C_Dist_300_LN_20_LD_25_RN_14_RD_28_0.png","img2/200/Congruent/R/C_Dist_200_LN_3_LD_10_RN_11_RD_22_1.png","img2/300/Incongruent/R/I_Dist_300_LN_13_LD_26_RN_12_RD_15_1.png","img2/300/Congruent/L/C_Dist_300_LN_12_LD_24_RN_2_RD_10_0.png","img2/200/Congruent/L/C_Dist_200_LN_4_LD_10_RN_3_RD_15_0.png","img2/100/Congruent/R/C_Dist_100_LN_4_LD_10_RN_15_RD_30_1.png","img2/300/Incongruent/R/I_Dist_300_LN_4_LD_20_RN_2_RD_4_1.png","img2/100/Incongruent/L/I_Dist_100_LN_3_LD_5_RN_11_RD_22_0.png","img2/100/Incongruent/L/I_Dist_100_LN_1_LD_2_RN_8_RD_20_0.png","img2/200/Incongruent/R/I_Dist_200_LN_3_LD_10_RN_1_RD_2_1.png","img2/100/Congruent/L/C_Dist_100_LN_11_LD_22_RN_4_RD_10_0.png","img2/200/Incongruent/L/I_Dist_200_LN_4_LD_5_RN_6_RD_10_0.png","img2/200/Incongruent/L/I_Dist_200_LN_7_LD_10_RN_14_RD_28_0.png","img2/100/Incongruent/L/I_Dist_100_LN_9_LD_10_RN_20_RD_25_0.png","img2/300/Congruent/L/C_Dist_300_LN_18_LD_20_RN_9_RD_15_0.png","img2/200/Congruent/L/C_Dist_200_LN_7_LD_21_RN_2_RD_15_0.png","img2/200/Incongruent/L/I_Dist_200_LN_4_LD_5_RN_6_RD_10_0.png"],"dist100_C":[["C_Dist_100_LN_10_LD_25_RN_3_RD_10_0.png","C_Dist_100_LN_11_LD_22_RN_4_RD_10_0.png","C_Dist_100_LN_11_LD_22_RN_6_RD_15_0.png","C_Dist_100_LN_15_LD_25_RN_13_RD_26_0.png","C_Dist_100_LN_3_LD_6_RN_2_RD_5_0.png","C_Dist_100_LN_6_LD_20_RN_5_RD_25_0.png","C_Dist_100_LN_8_LD_16_RN_2_RD_5_0.png","C_Dist_100_LN_9_LD_15_RN_8_RD_16_0.png"],["C_Dist_100_LN_1_LD_2_RN_18_RD_30_1.png","C_Dist_100_LN_1_LD_2_RN_3_RD_5_1.png","C_Dist_100_LN_12_LD_30_RN_13_RD_26_1.png","C_Dist_100_LN_2_LD_5_RN_11_RD_22_1.png","C_Dist_100_LN_2_LD_5_RN_6_RD_12_1.png","C_Dist_100_LN_3_LD_20_RN_4_RD_16_1.png","C_Dist_100_LN_4_LD_10_RN_15_RD_30_1.png","C_Dist_100_LN_4_LD_8_RN_6_RD_10_1.png","C_Dist_100_LN_6_LD_12_RN_15_RD_25_1.png","C_Dist_100_LN_7_LD_14_RN_15_RD_25_1.png","C_Dist_100_LN_7_LD_14_RN_9_RD_15_1.png"]],"dist100_I":[["I_Dist_100_LN_1_LD_2_RN_8_RD_20_0.png","I_Dist_100_LN_2_LD_4_RN_6_RD_15_0.png","I_Dist_100_LN_2_LD_4_RN_8_RD_20_0.png","I_Dist_100_LN_3_LD_5_RN_11_RD_22_0.png","I_Dist_100_LN_3_LD_5_RN_8_RD_16_0.png","I_Dist_100_LN_3_LD_6_RN_4_RD_10_0.png","I_Dist_100_LN_3_LD_9_RN_7_RD_30_0.png","I_Dist_100_LN_4_LD_8_RN_8_RD_20_0.png","I_Dist_100_LN_6_LD_10_RN_11_RD_22_0.png","I_Dist_100_LN_6_LD_10_RN_13_RD_26_0.png","I_Dist_100_LN_6_LD_10_RN_7_RD_14_0.png","I_Dist_100_LN_9_LD_10_RN_20_RD_25_0.png","I_Dist_100_LN_9_LD_15_RN_13_RD_26_0.png","I_Dist_100_LN_9_LD_15_RN_14_RD_28_0.png"],["I_Dist_100_LN_10_LD_25_RN_8_RD_16_1.png","I_Dist_100_LN_10_LD_25_RN_9_RD_18_1.png","I_Dist_100_LN_11_LD_22_RN_9_RD_15_1.png","I_Dist_100_LN_12_LD_24_RN_9_RD_15_1.png","I_Dist_100_LN_12_LD_30_RN_2_RD_4_1.png","I_Dist_100_LN_13_LD_26_RN_12_RD_20_1.png","I_Dist_100_LN_13_LD_26_RN_6_RD_10_1.png","I_Dist_100_LN_17_LD_30_RN_10_RD_15_1.png","I_Dist_100_LN_6_LD_12_RN_3_RD_5_1.png","I_Dist_100_LN_8_LD_16_RN_6_RD_10_1.png","I_Dist_100_LN_8_LD_20_RN_1_RD_2_1.png","I_Dist_100_LN_9_LD_18_RN_6_RD_10_1.png"]],"dist100_S":[["E_Dist_100_LN_2_LD_12_RN_2_RD_30_0.png","E_Dist_100_LN_6_LD_10_RN_6_RD_12_0.png"],["E_Dist_100_LN_6_LD_12_RN_6_RD_10_1.png"]],"dist200_C":[["C_Dist_200_LN_11_LD_22_RN_3_RD_10_0.png","C_Dist_200_LN_12_LD_15_RN_6_RD_10_0.png","C_Dist_200_LN_12_LD_20_RN_6_RD_15_0.png","C_Dist_200_LN_14_LD_28_RN_6_RD_20_0.png","C_Dist_200_LN_15_LD_25_RN_4_RD_10_0.png","C_Dist_200_LN_16_LD_20_RN_12_RD_20_0.png","C_Dist_200_LN_16_LD_30_RN_9_RD_27_0.png","C_Dist_200_LN_20_LD_25_RN_9_RD_15_0.png","C_Dist_200_LN_21_LD_30_RN_2_RD_4_0.png","C_Dist_200_LN_4_LD_10_RN_3_RD_15_0.png","C_Dist_200_LN_4_LD_8_RN_3_RD_10_0.png","C_Dist_200_LN_6_LD_15_RN_3_RD_15_0.png","C_Dist_200_LN_7_LD_21_RN_2_RD_15_0.png","C_Dist_200_LN_8_LD_15_RN_2_RD_6_0.png","C_Dist_200_LN_8_LD_15_RN_3_RD_9_0.png","C_Dist_200_LN_8_LD_15_RN_7_RD_21_0.png","C_Dist_200_LN_9_LD_20_RN_4_RD_16_0.png"],["C_Dist_200_LN_1_LD_2_RN_21_RD_30_1.png","C_Dist_200_LN_13_LD_26_RN_14_RD_20_1.png","C_Dist_200_LN_3_LD_10_RN_11_RD_22_1.png","C_Dist_200_LN_3_LD_10_RN_14_RD_28_1.png","C_Dist_200_LN_3_LD_10_RN_7_RD_14_1.png","C_Dist_200_LN_3_LD_12_RN_9_RD_20_1.png","C_Dist_200_LN_3_LD_6_RN_14_RD_20_1.png","C_Dist_200_LN_5_LD_10_RN_14_RD_20_1.png","C_Dist_200_LN_6_LD_12_RN_7_RD_10_1.png","C_Dist_200_LN_6_LD_20_RN_11_RD_22_1.png","C_Dist_200_LN_7_LD_15_RN_18_RD_27_1.png","C_Dist_200_LN_9_LD_30_RN_13_RD_26_1.png"]],"dist200_I":[["I_Dist_200_LN_1_LD_2_RN_3_RD_10_0.png","I_Dist_200_LN_1_LD_3_RN_2_RD_15_0.png","I_Dist_200_LN_3_LD_4_RN_11_RD_20_0.png","I_Dist_200_LN_4_LD_5_RN_6_RD_10_0.png","I_Dist_200_LN_4_LD_6_RN_14_RD_30_0.png","I_Dist_200_LN_7_LD_10_RN_12_RD_24_0.png","I_Dist_200_LN_7_LD_10_RN_14_RD_28_0.png","I_Dist_200_LN_7_LD_10_RN_8_RD_16_0.png"],["I_Dist_200_LN_11_LD_20_RN_3_RD_4_1.png","I_Dist_200_LN_14_LD_30_RN_12_RD_18_1.png","I_Dist_200_LN_14_LD_30_RN_6_RD_9_1.png","I_Dist_200_LN_3_LD_10_RN_1_RD_2_1.png","I_Dist_200_LN_4_LD_30_RN_1_RD_3_1.png","I_Dist_200_LN_6_LD_20_RN_3_RD_6_1.png","I_Dist_200_LN_7_LD_15_RN_4_RD_6_1.png","I_Dist_200_LN_7_LD_15_RN_6_RD_9_1.png","I_Dist_200_LN_9_LD_15_RN_8_RD_10_1.png"]],"dist200_S":[["E_Dist_200_LN_3_LD_6_RN_3_RD_10_0.png"],["E_Dist_200_LN_3_LD_10_RN_3_RD_6_1.png"]],"dist300_C":[["C_Dist_300_LN_11_LD_22_RN_1_RD_5_0.png","C_Dist_300_LN_11_LD_22_RN_2_RD_10_0.png","C_Dist_300_LN_11_LD_22_RN_4_RD_20_0.png","C_Dist_300_LN_12_LD_24_RN_2_RD_10_0.png","C_Dist_300_LN_18_LD_20_RN_9_RD_15_0.png","C_Dist_300_LN_20_LD_25_RN_13_RD_26_0.png","C_Dist_300_LN_20_LD_25_RN_14_RD_28_0.png","C_Dist_300_LN_20_LD_25_RN_5_RD_10_0.png","C_Dist_300_LN_20_LD_25_RN_8_RD_16_0.png","C_Dist_300_LN_20_LD_25_RN_9_RD_18_0.png","C_Dist_300_LN_24_LD_30_RN_2_RD_4_0.png","C_Dist_300_LN_24_LD_30_RN_8_RD_16_0.png","C_Dist_300_LN_3_LD_6_RN_2_RD_10_0.png","C_Dist_300_LN_4_LD_10_RN_1_RD_10_0.png","C_Dist_300_LN_4_LD_5_RN_2_RD_4_0.png","C_Dist_300_LN_8_LD_16_RN_1_RD_5_0.png","C_Dist_300_LN_9_LD_10_RN_3_RD_5_0.png"],["C_Dist_300_LN_1_LD_20_RN_7_RD_20_1.png","C_Dist_300_LN_1_LD_3_RN_19_RD_30_1.png","C_Dist_300_LN_1_LD_30_RN_8_RD_24_1.png","C_Dist_300_LN_1_LD_5_RN_11_RD_22_1.png","C_Dist_300_LN_1_LD_5_RN_3_RD_6_1.png","C_Dist_300_LN_1_LD_5_RN_6_RD_12_1.png","C_Dist_300_LN_2_LD_10_RN_12_RD_24_1.png","C_Dist_300_LN_2_LD_20_RN_10_RD_25_1.png","C_Dist_300_LN_3_LD_12_RN_11_RD_20_1.png","C_Dist_300_LN_3_LD_6_RN_4_RD_5_1.png","C_Dist_300_LN_4_LD_20_RN_13_RD_26_1.png","C_Dist_300_LN_5_LD_25_RN_6_RD_12_1.png","C_Dist_300_LN_5_LD_25_RN_7_RD_14_1.png","C_Dist_300_LN_7_LD_14_RN_20_RD_25_1.png","C_Dist_300_LN_8_LD_15_RN_10_RD_12_1.png"]],"dist300_I":[["I_Dist_300_LN_1_LD_2_RN_2_RD_10_0.png","I_Dist_300_LN_1_LD_2_RN_3_RD_15_0.png","I_Dist_300_LN_2_LD_4_RN_6_RD_30_0.png","I_Dist_300_LN_3_LD_6_RN_4_RD_20_0.png","I_Dist_300_LN_4_LD_5_RN_6_RD_12_0.png","I_Dist_300_LN_4_LD_5_RN_8_RD_16_0.png","I_Dist_300_LN_7_LD_10_RN_8_RD_20_0.png","I_Dist_300_LN_8_LD_10_RN_14_RD_28_0.png","I_Dist_300_LN_8_LD_10_RN_9_RD_18_0.png"],["I_Dist_300_LN_13_LD_26_RN_12_RD_15_1.png","I_Dist_300_LN_4_LD_20_RN_2_RD_4_1.png"]],"dist300_S":[["E_Dist_300_LN_9_LD_12_RN_9_RD_20_0.png"],["E_Dist_300_LN_18_LD_30_RN_18_RD_20_1.png","E_Dist_300_LN_3_LD_10_RN_3_RD_5_1.png","E_Dist_300_LN_9_LD_20_RN_9_RD_12_1.png"]],"dist500_C":[["C_Dist_500_LN_10_LD_13_RN_7_RD_26_0.png","C_Dist_500_LN_10_LD_15_RN_4_RD_24_0.png","C_Dist_500_LN_12_LD_16_RN_3_RD_12_0.png","C_Dist_500_LN_12_LD_18_RN_4_RD_24_0.png","C_Dist_500_LN_15_LD_18_RN_5_RD_15_0.png","C_Dist_500_LN_15_LD_20_RN_1_RD_4_0.png","C_Dist_500_LN_18_LD_27_RN_1_RD_6_0.png","C_Dist_500_LN_20_LD_24_RN_1_RD_3_0.png","C_Dist_500_LN_20_LD_24_RN_3_RD_9_0.png","C_Dist_500_LN_20_LD_24_RN_7_RD_21_0.png","C_Dist_500_LN_20_LD_28_RN_3_RD_14_0.png","C_Dist_500_LN_21_LD_28_RN_6_RD_24_0.png","C_Dist_500_LN_22_LD_28_RN_2_RD_7_0.png","C_Dist_500_LN_25_LD_30_RN_9_RD_27_0.png","C_Dist_500_LN_4_LD_6_RN_1_RD_6_0.png","C_Dist_500_LN_5_LD_6_RN_2_RD_6_0.png","C_Dist_500_LN_6_LD_9_RN_1_RD_6_0.png","C_Dist_500_LN_7_LD_10_RN_1_RD_5_0.png","C_Dist_500_LN_8_LD_12_RN_1_RD_6_0.png","C_Dist_500_LN_8_LD_12_RN_4_RD_24_0.png"],["C_Dist_500_LN_1_LD_4_RN_12_RD_16_1.png","C_Dist_500_LN_1_LD_4_RN_9_RD_12_1.png","C_Dist_500_LN_1_LD_9_RN_11_RD_18_1.png","C_Dist_500_LN_10_LD_24_RN_22_RD_24_1.png","C_Dist_500_LN_2_LD_12_RN_10_RD_15_1.png","C_Dist_500_LN_2_LD_12_RN_12_RD_18_1.png","C_Dist_500_LN_2_LD_12_RN_4_RD_6_1.png","C_Dist_500_LN_2_LD_24_RN_7_RD_12_1.png","C_Dist_500_LN_2_LD_5_RN_18_RD_20_1.png","C_Dist_500_LN_2_LD_5_RN_9_RD_10_1.png","C_Dist_500_LN_2_LD_8_RN_12_RD_16_1.png","C_Dist_500_LN_2_LD_8_RN_21_RD_28_1.png","C_Dist_500_LN_3_LD_10_RN_4_RD_5_1.png","C_Dist_500_LN_3_LD_12_RN_15_RD_20_1.png","C_Dist_500_LN_3_LD_30_RN_6_RD_10_1.png","C_Dist_500_LN_3_LD_8_RN_14_RD_16_1.png","C_Dist_500_LN_4_LD_16_RN_15_RD_20_1.png","C_Dist_500_LN_4_LD_24_RN_12_RD_18_1.png","C_Dist_500_LN_5_LD_14_RN_6_RD_7_1.png","C_Dist_500_LN_7_LD_21_RN_20_RD_24_1.png","C_Dist_500_LN_7_LD_28_RN_12_RD_16_1.png","C_Dist_500_LN_7_LD_28_RN_9_RD_12_1.png","C_Dist_500_LN_9_LD_27_RN_20_RD_24_1.png"]],"dist500_I":[["I_Dist_500_LN_2_LD_3_RN_4_RD_24_0.png","I_Dist_500_LN_5_LD_6_RN_6_RD_18_0.png","I_Dist_500_LN_7_LD_8_RN_9_RD_24_0.png"],["I_Dist_500_LN_7_LD_21_RN_5_RD_6_1.png"]],"dist500_S":[["E_Dist_500_LN_6_LD_8_RN_6_RD_24_0.png"],["E_Dist_500_LN_2_LD_12_RN_2_RD_3_1.png","E_Dist_500_LN_6_LD_24_RN_6_RD_8_1.png"]]}},{"start_time":1551899667218,"click_time":1551899668688,"finger_time":1551899668487,"fix_duration":1429.5407037998511,"trial":1,"RT":1269,"MT":201,"sideResp":1,"stimulus":[],"xmouse":[811,811,811,811,811,811,811,811,811,811,811,811,811,811,811,811,811,811,811,811,811,811,811,811,811,811,811,811,811,811,811,811,811,811,811,807,803,803,802,802,802,802,802,802,802,802,802,798,791,786,784,782,781,780,779,779,779,774,770,758,756,755,752,719,679,630,589,559,531,525,521,520,518,509],"ymouse":[559,559,559,559,559,559,559,559,559,559,559,559,559,559,559,559,559,559,559,559,559,559,559,559,559,559,559,559,559,559,559,559,559,559,559,560,562,562,562,562,562,562,562,562,562,562,562,562,560,558,557,557,557,557,557,557,557,554,546,521,518,517,514,437,356,283,227,190,147,134,125,119,110,86],"timestamp_mouse":[9,29,50,70,90,110,129,150,168,188,210,229,249,268,289,308,330,350,369,390,408,429,450,469,489,509,529,550,569,590,608,630,649,670,688,708,730,749,770,788,809,830,849,868,889,910,928,948,969,988,1008,1029,1048,1068,1088,1110,1129,1150,1169,1188,1210,1228,1250,1269,1288,1308,1329,1348,1369,1388,1409,1429,1449,1469],"xSR":741.5,"ySR":501.8,"xT1":424.9,"yT1":0,"xT2":1058.1,"yT2":0,"toosoon":0,"cond_shown":"Congruent","ratio_trial":300,"L_num":4,"L_den":10,"R_num":1,"R_den":10,"correct_side":1,"subjID":"julianasofiavargasfranco2","gender":"1","school":"6","age":"11"},{"start_time":1551899670410,"click_time":1551899671907,"finger_time":1551899671526,"fix_duration":1021.6162389338956,"trial":2,"RT":1116,"MT":381,"sideResp":1,"stimulus":[],"xmouse":[786,786,786,786,786,786,786,786,786,786,786,786,786,786,786,786,786,786,786,786,786,786,786,786,786,786,786,786,786,786,786,786,786,786,786,786,786,786,786,786,786,786,786,786,786,786,786,786,786,786,786,786,786,776,764,752,731,717,706,702,695,689,676,614,585,558,536,512,493,493,493,493,495,505,506],"ymouse":[557,557,557,557,557,557,557,557,557,557,557,557,557,557,557,557,557,557,557,557,557,557,557,557,557,557,557,557,557,557,557,557,557,557,557,557,557,557,557,557,557,557,557,557,557,557,557,557,557,557,557,557,556,535,515,493,465,446,416,402,384,361,335,252,221,193,172,154,140,140,140,138,135,112,93],"timestamp_mouse":[21,44,57,76,96,118,138,157,178,197,217,238,257,277,297,316,336,358,377,398,417,437,457,477,498,518,536,557,578,597,617,637,658,677,698,717,737,758,776,798,817,836,857,878,896,917,938,957,978,997,1017,1038,1057,1076,1098,1116,1137,1157,1178,1196,1217,1236,1257,1278,1296,1316,1337,1356,1378,1396,1418,1437,1457,1477,1497],"xSR":741.5,"ySR":501.8,"xT1":424.9,"yT1":0,"xT2":1058.1,"yT2":0,"toosoon":0,"cond_shown":"Incongruent","ratio_trial":200,"L_num":4,"L_den":6,"R_num":14,"R_den":30,"correct_side":1,"subjID":"julianasofiavargasfranco2","gender":"1","school":"6","age":"11"},{"start_time":1551899675381,"click_time":1551899677348,"finger_time":1551899677068,"fix_duration":1390.8966001873343,"trial":3,"RT":1687,"MT":280,"sideResp":1,"stimulus":[],"xmouse":[787,787,787,787,787,787,787,787,787,787,787,787,787,787,787,787,787,787,787,787,787,787,787,787,787,787,787,787,787,787,787,787,787,787,787,787,787,787,787,787,787,787,787,787,787,787,787,787,787,787,787,787,787,787,787,787,787,787,787,787,787,787,787,787,787,787,787,787,787,787,787,787,787,787,787,787,787,787,787,787,787,787,787,769,742,647,625,606,592,577,560,554,548,542,535,533,531,526,517],"ymouse":[547,547,547,547,547,547,547,547,547,547,547,547,547,547,547,547,547,547,547,547,547,547,547,547,547,547,547,547,547,547,547,547,547,547,547,547,547,547,547,547,547,547,547,547,547,547,547,547,547,547,547,547,547,547,547,547,547,547,547,547,547,547,547,547,547,547,547,547,547,547,547,547,547,547,547,547,547,547,547,547,547,547,547,510,472,338,305,271,238,205,166,152,138,124,113,108,103,95,83],"timestamp_mouse":[9,26,46,70,85,105,127,146,166,187,206,226,245,267,287,305,327,347,366,386,406,427,445,466,485,507,525,545,566,587,607,626,646,666,687,707,727,747,767,786,806,825,847,866,886,906,925,947,967,985,1006,1026,1046,1067,1085,1106,1127,1146,1166,1186,1207,1227,1246,1266,1287,1307,1325,1347,1366,1386,1407,1427,1445,1466,1487,1505,1526,1547,1567,1585,1607,1625,1647,1665,1687,1706,1726,1746,1765,1785,1807,1825,1846,1865,1887,1906,1925,1945,1967],"xSR":741.5,"ySR":501.8,"xT1":424.9,"yT1":0,"xT2":1058.1,"yT2":0,"toosoon":0,"cond_shown":"Congruent","ratio_trial":100,"L_num":11,"L_den":22,"R_num":4,"R_den":10,"correct_side":1,"subjID":"julianasofiavargasfranco2","gender":"1","school":"6","age":"11"},{"start_time":1551899678139,"click_time":1551899679467,"finger_time":1551899679228,"fix_duration":250,"trial":4,"RT":1089,"MT":239,"sideResp":2,"stimulus":[],"xmouse":[809,809,809,809,809,809,809,809,809,809,809,809,809,809,809,809,809,809,809,809,809,809,809,809,809,809,809,809,809,809,809,809,809,809,809,809,809,809,809,809,809,809,809,809,809,809,809,809,809,809,809,813,833,841,846,849,852,860,913,963,1017,1059,1094,1103,1108,1108,1108],"ymouse":[561,561,561,561,561,561,561,561,561,561,561,561,561,561,561,561,561,561,561,561,561,561,561,561,561,561,561,561,561,561,561,561,561,561,561,561,561,561,561,561,561,561,561,561,561,561,561,561,561,561,561,559,546,540,536,535,532,525,462,384,306,243,185,159,133,108,83],"timestamp_mouse":[8,27,47,67,87,107,127,147,167,187,209,227,249,268,288,309,328,347,367,388,408,429,448,468,489,507,528,548,567,588,607,627,648,667,688,708,728,749,768,787,809,828,849,869,888,908,928,948,969,989,1008,1027,1048,1068,1089,1109,1129,1147,1168,1187,1208,1227,1248,1268,1288,1309,1328],"xSR":741.5,"ySR":501.8,"xT1":424.9,"yT1":0,"xT2":1058.1,"yT2":0,"toosoon":0,"cond_shown":"Incongruent","ratio_trial":100,"L_num":11,"L_den":22,"R_num":9,"R_den":15,"correct_side":2,"subjID":"julianasofiavargasfranco2","gender":"1","school":"6","age":"11"},{"start_time":1551899680507,"click_time":1551899682267,"finger_time":1551899681966,"fix_duration":338.08043416026237,"trial":5,"RT":1459,"MT":301,"sideResp":1,"stimulus":[],"xmouse":[790,790,790,790,790,790,790,790,790,790,790,790,790,790,790,790,790,790,790,790,790,790,790,790,790,790,790,790,790,790,790,790,790,790,790,790,790,790,790,790,790,790,790,790,790,790,790,790,790,790,790,790,790,790,790,790,790,790,790,790,790,790,790,790,790,790,790,790,790,790,790,784,770,739,668,652,639,624,612,573,552,538,530,526,524,522,518,508,498],"ymouse":[558,558,558,558,558,558,558,558,558,558,558,558,558,558,558,558,558,558,558,558,558,558,558,558,558,558,558,558,558,558,558,558,558,558,558,558,558,558,558,558,558,558,558,558,558,558,558,558,558,558,558,558,558,558,558,558,558,558,558,558,558,558,558,558,558,558,558,558,558,558,558,549,525,474,377,352,334,314,295,240,212,193,179,173,169,162,147,114,71],"timestamp_mouse":[1,19,43,59,80,99,120,139,160,179,201,219,239,261,279,301,320,339,361,379,401,421,439,461,481,499,519,541,559,581,601,620,640,661,681,699,721,739,760,781,799,820,841,860,880,901,919,939,961,980,999,1019,1039,1061,1080,1101,1120,1139,1160,1181,1201,1221,1240,1261,1281,1301,1319,1340,1360,1379,1401,1419,1441,1459,1480,1499,1520,1540,1559,1580,1599,1619,1639,1659,1680,1700,1721,1741,1760],"xSR":741.5,"ySR":501.8,"xT1":424.9,"yT1":0,"xT2":1058.1,"yT2":0,"toosoon":0,"cond_shown":"Congruent","ratio_trial":200,"L_num":4,"L_den":10,"R_num":3,"R_den":15,"correct_side":1,"subjID":"julianasofiavargasfranco2","gender":"1","school":"6","age":"11"},{"start_time":1551899683815,"click_time":1551899685407,"finger_time":1551899685147,"fix_duration":687.7905056165754,"trial":6,"RT":1332,"MT":260,"sideResp":1,"stimulus":[],"xmouse":[794,794,794,794,794,794,794,794,794,794,794,794,794,794,794,794,794,794,794,794,794,794,794,794,794,794,794,794,794,794,794,794,794,794,794,794,794,794,794,794,794,794,794,794,794,794,794,794,794,794,794,794,794,794,794,794,794,794,794,794,794,794,794,794,794,771,745,681,571,527,508,501,494,490,488,486,486,490,498,505],"ymouse":[536,536,536,536,536,536,536,536,536,536,536,536,536,536,536,536,536,536,536,536,536,536,536,536,536,536,536,536,536,536,536,536,536,536,536,536,536,536,536,536,536,536,536,536,536,536,536,536,536,536,536,536,536,536,536,536,536,536,536,536,536,536,536,536,536,515,491,438,341,303,281,265,241,212,199,182,165,143,125,90],"timestamp_mouse":[14,38,51,71,93,112,132,152,172,191,212,232,252,273,292,312,333,351,371,391,411,432,452,472,492,512,531,553,573,592,611,632,652,672,691,712,733,752,771,792,813,831,852,873,891,913,932,951,972,991,1012,1032,1053,1071,1093,1113,1132,1152,1172,1191,1213,1233,1251,1273,1293,1311,1332,1353,1372,1391,1412,1432,1451,1471,1491,1512,1533,1552,1572,1592],"xSR":741.5,"ySR":501.8,"xT1":424.9,"yT1":0,"xT2":1058.1,"yT2":0,"toosoon":0,"cond_shown":"Incongruent","ratio_trial":200,"L_num":4,"L_den":5,"R_num":6,"R_den":10,"correct_side":1,"subjID":"julianasofiavargasfranco2","gender":"1","school":"6","age":"11"},{"start_time":1551899689184,"click_time":1551899691468,"finger_time":1551899691286,"fix_duration":1474.23206721354,"trial":7,"RT":2102,"MT":182,"sideResp":1,"stimulus":[],"xmouse":[794,794,794,794,794,794,794,794,794,794,794,794,794,794,794,794,794,794,794,794,794,794,794,794,794,794,794,794,794,794,794,794,794,794,794,794,794,794,794,794,794,794,794,794,794,794,794,794,794,794,794,794,794,794,794,794,794,794,794,794,794,794,794,794,794,794,794,794,794,794,794,794,794,794,794,794,794,794,794,794,794,794,794,794,794,794,794,794,794,794,794,794,794,794,794,794,794,794,794,794,794,794,794,794,794,778,751,735,715,688,607,563,528,504,489],"ymouse":[548,548,548,548,548,548,548,548,548,548,548,548,548,548,548,548,548,548,548,548,548,548,548,548,548,548,548,548,548,548,548,548,548,548,548,548,548,548,548,548,548,548,548,548,548,548,548,548,548,548,548,548,548,548,548,548,548,548,548,548,548,548,548,548,548,548,548,548,548,548,548,548,548,548,548,548,548,548,548,548,548,548,548,548,548,548,548,548,548,548,548,548,548,548,548,548,548,548,548,548,548,548,548,548,540,497,454,436,418,389,276,218,164,117,73],"timestamp_mouse":[10,23,44,64,84,102,123,144,163,183,204,222,242,262,284,304,322,344,364,383,404,424,443,463,484,504,522,543,564,583,603,624,643,662,683,702,723,744,764,783,804,823,842,862,882,903,924,943,963,983,1003,1024,1043,1063,1083,1104,1123,1144,1164,1182,1203,1224,1243,1262,1282,1303,1324,1344,1363,1383,1404,1423,1442,1464,1483,1502,1524,1543,1562,1582,1603,1624,1643,1664,1683,1703,1723,1742,1764,1783,1802,1823,1842,1863,1884,1903,1923,1944,1963,1983,2004,2022,2044,2064,2083,2102,2123,2143,2164,2183,2204,2222,2243,2264,2284],"xSR":741.5,"ySR":501.8,"xT1":424.9,"yT1":0,"xT2":1058.1,"yT2":0,"toosoon":0,"cond_shown":"Congruent","ratio_trial":100,"L_num":9,"L_den":15,"R_num":8,"R_den":16,"correct_side":1,"subjID":"julianasofiavargasfranco2","gender":"1","school":"6","age":"11"},{"start_time":1551899694898,"click_time":1551899696508,"finger_time":1551899696087,"fix_duration":1188.1419262182862,"trial":8,"RT":1189,"MT":421,"sideResp":1,"stimulus":[],"xmouse":[786,786,786,786,786,786,786,786,786,786,786,786,786,786,786,786,786,786,786,786,786,786,786,786,786,786,786,786,786,786,786,786,786,786,786,786,786,786,786,786,786,786,786,786,786,786,786,786,786,786,786,786,786,786,786,786,786,786,786,775,737,713,694,677,661,659,658,651,633,598,586,581,576,570,562,538,532,532,532,532,485],"ymouse":[533,533,533,533,533,533,533,533,533,533,533,533,533,533,533,533,533,533,533,533,533,533,533,533,533,533,533,533,533,533,533,533,533,533,533,533,533,533,533,533,533,533,533,533,533,533,533,533,533,533,533,533,533,533,533,533,533,533,533,498,439,403,382,368,358,357,354,338,293,214,178,147,109,78,48,9,3,3,3,3,3],"timestamp_mouse":[9,40,50,70,89,108,128,150,169,189,208,229,248,270,288,308,330,348,369,389,410,429,449,469,489,510,528,550,569,588,609,629,650,669,688,710,729,749,770,789,809,828,849,870,889,908,929,949,969,989,1008,1028,1049,1068,1088,1108,1128,1148,1168,1189,1209,1230,1249,1269,1288,1308,1328,1349,1370,1389,1408,1428,1449,1469,1488,1509,1529,1549,1569,1589,1610],"xSR":741.5,"ySR":501.8,"xT1":424.9,"yT1":0,"xT2":1058.1,"yT2":0,"toosoon":0,"cond_shown":"Congruent","ratio_trial":100,"L_num":11,"L_den":22,"R_num":6,"R_den":15,"correct_side":1,"subjID":"julianasofiavargasfranco2","gender":"1","school":"6","age":"11"},{"start_time":1551899698172,"click_time":1551899699788,"finger_time":1551899699547,"fix_duration":1022.7158225464497,"trial":9,"RT":1375,"MT":241,"sideResp":1,"stimulus":[],"xmouse":[810,810,810,810,810,810,810,810,810,810,810,810,810,810,810,810,810,810,810,810,810,810,810,810,810,810,810,810,810,810,810,810,810,810,810,810,810,810,810,810,810,810,810,810,810,810,810,810,810,810,810,810,810,810,810,810,810,810,810,810,810,810,810,810,810,810,810,801,786,769,745,693,671,652,633,609,593,577,558,542,522],"ymouse":[541,541,541,541,541,541,541,541,541,541,541,541,541,541,541,541,541,541,541,541,541,541,541,541,541,541,541,541,541,541,541,541,541,541,541,541,541,541,541,541,541,541,541,541,541,541,541,541,541,541,541,541,541,541,541,541,541,541,541,541,541,541,541,541,541,541,541,521,486,445,398,310,271,239,207,174,156,142,127,114,93],"timestamp_mouse":[14,35,56,76,95,114,135,156,175,196,216,235,254,276,295,315,335,355,375,396,415,435,454,475,496,514,534,556,576,596,615,634,655,675,694,716,736,755,776,795,815,834,854,876,894,915,935,955,976,995,1015,1035,1054,1075,1095,1116,1135,1155,1176,1195,1215,1235,1254,1274,1295,1316,1335,1354,1375,1395,1415,1436,1454,1474,1495,1515,1534,1555,1575,1594,1615],"xSR":741.5,"ySR":501.8,"xT1":424.9,"yT1":0,"xT2":1058.1,"yT2":0,"toosoon":0,"cond_shown":"Congruent","ratio_trial":100,"L_num":11,"L_den":22,"R_num":6,"R_den":15,"correct_side":1,"subjID":"julianasofiavargasfranco2","gender":"1","school":"6","age":"11"},{"start_time":1551899701548,"click_time":1551899702466,"finger_time":1551899702326,"fix_duration":859.5256742462846,"trial":10,"RT":778,"MT":140,"sideResp":1,"stimulus":[],"xmouse":[833,833,833,833,833,833,833,833,833,833,833,833,833,833,833,833,833,833,833,833,833,833,833,833,833,833,833,833,833,833,833,833,833,833,833,833,833,829,794,743,693,642,556,521,483,457,438],"ymouse":[564,564,564,564,564,564,564,564,564,564,564,564,564,564,564,564,564,564,564,564,564,564,564,564,564,564,564,564,564,564,564,564,564,564,564,564,564,557,532,499,460,420,301,228,161,119,90],"timestamp_mouse":[2,24,40,70,79,100,118,138,159,179,200,218,238,258,280,298,318,340,359,380,399,419,438,459,480,498,519,539,560,579,598,618,639,660,679,699,718,738,760,778,798,820,839,858,878,898,918],"xSR":741.5,"ySR":501.8,"xT1":424.9,"yT1":0,"xT2":1058.1,"yT2":0,"toosoon":0,"cond_shown":"Congruent","ratio_trial":300,"L_num":11,"L_den":22,"R_num":4,"R_den":20,"correct_side":1,"subjID":"julianasofiavargasfranco2","gender":"1","school":"6","age":"11"},{"start_time":1551899704606,"click_time":1551899706187,"finger_time":1551899705348,"fix_duration":1118.3349808456242,"trial":11,"RT":742,"MT":839,"sideResp":1,"stimulus":[],"xmouse":[794,794,794,794,794,794,794,794,794,794,794,794,794,794,794,794,794,794,794,794,794,794,794,794,794,794,794,794,794,794,794,794,794,794,794,803,819,833,839,842,842,842,842,842,842,842,842,842,842,842,842,842,842,842,842,841,833,822,812,796,792,790,789,788,786,786,786,786,786,786,780,776,757,722,608,584,570,558,546,502],"ymouse":[550,550,550,550,550,550,550,550,550,550,550,550,550,550,550,550,550,550,550,550,550,550,550,550,550,550,550,550,550,550,550,550,550,550,550,542,512,489,477,472,472,472,472,472,472,472,472,472,472,472,472,472,472,472,472,472,480,492,501,513,516,517,517,518,519,519,519,519,519,519,513,502,460,389,241,216,198,179,152,56],"timestamp_mouse":[9,20,40,61,81,102,120,141,160,181,202,222,241,261,281,302,321,340,362,381,401,421,441,460,481,502,520,542,562,581,602,622,641,661,682,700,721,742,762,781,801,820,840,862,881,902,921,940,960,981,1001,1021,1042,1061,1081,1101,1120,1141,1162,1181,1202,1222,1240,1261,1281,1301,1322,1342,1360,1381,1400,1422,1442,1461,1482,1500,1521,1542,1561,1581],"xSR":741.5,"ySR":501.8,"xT1":424.9,"yT1":0,"xT2":1058.1,"yT2":0,"toosoon":0,"cond_shown":"Incongruent","ratio_trial":100,"L_num":2,"L_den":4,"R_num":6,"R_den":15,"correct_side":1,"subjID":"julianasofiavargasfranco2","gender":"1","school":"6","age":"11"},{"start_time":1551899707018,"click_time":1551899708807,"finger_time":1551899708566,"fix_duration":250,"trial":12,"RT":1548,"MT":241,"sideResp":2,"stimulus":[],"xmouse":[806,806,806,806,806,806,806,806,806,806,806,806,806,806,806,806,806,806,806,806,806,806,806,806,806,806,806,806,806,806,806,806,806,806,806,806,806,806,806,806,806,806,806,806,806,806,806,806,806,806,806,806,806,806,806,806,806,806,806,806,806,806,806,806,806,806,806,806,806,806,806,806,806,806,806,808,819,855,935,973,1004,1023,1040,1069,1079,1086,1091,1093,1093,1091],"ymouse":[568,568,568,568,568,568,568,568,568,568,568,568,568,568,568,568,568,568,568,568,568,568,568,568,568,568,568,568,568,568,568,568,568,568,568,568,568,568,568,568,568,568,568,568,568,568,568,568,568,568,568,568,568,568,568,568,568,568,568,568,568,568,568,568,568,568,568,568,568,568,568,568,568,568,568,569,559,519,427,386,355,335,314,250,220,193,170,149,130,97],"timestamp_mouse":[9,38,49,68,89,108,129,149,169,190,209,228,249,270,288,309,330,350,369,390,409,430,449,469,488,510,529,549,569,590,610,630,649,669,690,710,729,749,769,790,808,830,848,868,889,909,928,950,969,989,1009,1030,1048,1068,1088,1109,1130,1149,1169,1190,1210,1229,1248,1270,1289,1309,1330,1349,1369,1388,1410,1430,1448,1469,1490,1508,1529,1548,1569,1588,1608,1628,1648,1669,1688,1708,1728,1749,1769,1789],"xSR":741.5,"ySR":501.8,"xT1":424.9,"yT1":0,"xT2":1058.1,"yT2":0,"toosoon":0,"cond_shown":"Congruent","ratio_trial":100,"L_num":4,"L_den":8,"R_num":6,"R_den":10,"correct_side":2,"subjID":"julianasofiavargasfranco2","gender":"1","school":"6","age":"11"},{"start_time":1551899709918,"click_time":1551899711187,"finger_time":1551899710947,"fix_duration":250,"trial":13,"RT":1029,"MT":240,"sideResp":2,"stimulus":[],"xmouse":[768,768,768,768,768,768,768,768,768,768,768,768,768,768,768,768,768,768,768,768,768,768,768,768,768,768,768,768,768,768,768,768,768,768,768,768,768,768,768,768,768,768,768,768,768,768,768,769,777,791,815,857,924,1033,1068,1106,1149,1179,1201,1201,1190,1179,1161,1123],"ymouse":[551,551,551,551,551,551,551,551,551,551,551,551,551,551,551,551,551,551,551,551,551,551,551,551,551,551,551,551,551,551,551,551,551,551,551,551,551,551,551,551,551,551,551,551,551,551,551,551,550,546,539,525,497,439,417,383,335,282,164,135,106,85,65,34],"timestamp_mouse":[9,42,50,69,89,109,130,149,168,190,210,230,249,268,290,310,328,349,370,389,408,430,448,469,489,510,530,549,569,590,608,629,649,670,688,710,728,748,770,790,808,829,849,870,889,908,929,949,968,989,1008,1029,1050,1069,1088,1108,1129,1149,1169,1190,1209,1229,1250,1268],"xSR":741.5,"ySR":501.8,"xT1":424.9,"yT1":0,"xT2":1058.1,"yT2":0,"toosoon":0,"cond_shown":"Congruent","ratio_trial":200,"L_num":13,"L_den":26,"R_num":14,"R_den":20,"correct_side":2,"subjID":"julianasofiavargasfranco2","gender":"1","school":"6","age":"11"},{"start_time":1551899712604,"click_time":1551899714287,"finger_time":1551899714006,"fix_duration":715.2914092508122,"trial":14,"RT":1402,"MT":281,"sideResp":2,"stimulus":[],"xmouse":[782,782,782,782,782,782,782,782,782,782,782,782,782,782,782,782,782,782,782,782,782,782,782,782,782,782,782,782,782,782,782,782,782,782,782,782,782,782,782,782,782,782,782,782,782,782,782,782,782,782,782,782,782,782,782,782,782,782,782,782,782,782,782,782,782,782,782,782,782,782,806,859,908,953,1003,1007,1008,1009,1009,1018,1027,1037,1044,1050,1084],"ymouse":[553,553,553,553,553,553,553,553,553,553,553,553,553,553,553,553,553,553,553,553,553,553,553,553,553,553,553,553,553,553,553,553,553,553,553,553,553,553,553,553,553,553,553,553,553,553,553,553,553,553,553,553,553,553,553,553,553,553,553,553,553,553,553,553,553,553,553,553,553,553,482,361,246,173,96,87,84,83,82,73,66,61,58,57,57],"timestamp_mouse":[10,22,47,64,83,102,124,142,163,184,203,224,243,262,283,304,323,342,362,382,404,422,443,463,484,502,522,543,564,584,603,622,644,664,683,702,722,744,762,783,804,823,844,863,884,904,923,943,962,983,1002,1024,1042,1062,1083,1104,1124,1143,1163,1183,1202,1224,1243,1263,1283,1303,1322,1342,1363,1384,1402,1422,1443,1464,1483,1502,1522,1543,1563,1583,1602,1623,1643,1662,1683],"xSR":741.5,"ySR":501.8,"xT1":424.9,"yT1":0,"xT2":1058.1,"yT2":0,"toosoon":0,"cond_shown":"Congruent","ratio_trial":300,"L_num":1,"L_den":3,"R_num":19,"R_den":30,"correct_side":2,"subjID":"julianasofiavargasfranco2","gender":"1","school":"6","age":"11"},{"start_time":1551899716367,"click_time":1551899718127,"finger_time":1551899717786,"fix_duration":1198.9928021966098,"trial":15,"RT":1419,"MT":341,"sideResp":1,"stimulus":[],"xmouse":[783,783,783,783,783,783,783,783,783,783,783,783,783,783,783,783,783,783,783,783,783,783,783,783,783,783,783,783,783,783,783,783,783,783,783,783,783,783,783,783,783,783,783,783,783,783,783,783,783,783,783,783,783,783,783,783,783,783,783,783,783,783,783,783,783,783,783,783,783,783,783,770,762,755,752,748,729,714,692,666,641,608,598,589,577,572,544,531,520],"ymouse":[551,551,551,551,551,551,551,551,551,551,551,551,551,551,551,551,551,551,551,551,551,551,551,551,551,551,551,551,551,551,551,551,551,551,551,551,551,551,551,551,551,551,551,551,551,551,551,551,551,551,551,551,551,551,551,551,551,551,551,551,551,551,551,551,551,551,551,551,551,549,523,422,395,380,372,365,330,304,273,237,203,164,153,142,124,118,91,82,74],"timestamp_mouse":[3,21,40,69,80,100,119,140,160,181,199,220,239,260,280,300,319,339,359,381,401,419,439,459,481,500,520,539,561,580,599,619,640,661,680,701,719,739,759,781,800,821,841,861,880,899,921,940,961,981,1000,1020,1040,1060,1080,1101,1119,1141,1159,1181,1201,1221,1239,1261,1279,1301,1321,1340,1359,1380,1399,1419,1439,1460,1481,1499,1520,1539,1561,1581,1600,1620,1639,1660,1680,1700,1721,1739,1759],"xSR":741.5,"ySR":501.8,"xT1":424.9,"yT1":0,"xT2":1058.1,"yT2":0,"toosoon":0,"cond_shown":"Congruent","ratio_trial":200,"L_num":9,"L_den":20,"R_num":4,"R_den":16,"correct_side":1,"subjID":"julianasofiavargasfranco2","gender":"1","school":"6","age":"11"},{"start_time":1551899719038,"click_time":1551899720706,"finger_time":1551899720387,"fix_duration":250,"trial":16,"RT":1349,"MT":319,"sideResp":1,"stimulus":[],"xmouse":[809,809,809,809,809,809,809,809,809,809,809,809,809,809,809,809,809,809,809,809,809,809,809,809,809,809,809,809,809,809,809,809,809,809,809,809,809,809,809,809,809,809,809,809,809,809,809,809,809,809,809,809,809,809,809,809,809,809,809,809,809,809,809,807,795,787,779,741,703,668,643,625,617,612,606,596,586,561,549,542,541,540,534,522],"ymouse":[568,568,568,568,568,568,568,568,568,568,568,568,568,568,568,568,568,568,568,568,568,568,568,568,568,568,568,568,568,568,568,568,568,568,568,568,568,568,568,568,568,568,568,568,568,568,568,568,568,568,568,568,568,568,568,568,568,568,568,568,568,568,568,568,568,568,567,447,350,269,224,193,178,168,153,137,120,95,87,84,83,83,83,81],"timestamp_mouse":[9,35,49,69,89,109,130,150,170,188,210,230,250,270,288,308,329,349,370,389,408,428,449,469,490,509,529,550,570,589,609,630,649,669,689,709,729,749,770,790,810,828,849,869,889,910,928,950,969,990,1010,1028,1050,1070,1088,1109,1130,1149,1169,1190,1210,1228,1248,1269,1290,1308,1329,1349,1369,1388,1408,1428,1449,1470,1489,1510,1529,1549,1568,1589,1609,1628,1649,1668],"xSR":741.5,"ySR":501.8,"xT1":424.9,"yT1":0,"xT2":1058.1,"yT2":0,"toosoon":0,"cond_shown":"Incongruent","ratio_trial":300,"L_num":3,"L_den":6,"R_num":4,"R_den":20,"correct_side":1,"subjID":"julianasofiavargasfranco2","gender":"1","school":"6","age":"11"},{"start_time":1551899721993,"click_time":1551899724468,"finger_time":1551899724228,"fix_duration":364.89717877054807,"trial":17,"RT":2235,"MT":240,"sideResp":2,"stimulus":[],"xmouse":[777,777,777,777,777,777,777,777,777,777,777,777,777,777,777,777,777,777,777,777,777,777,777,777,777,777,777,777,777,777,777,777,777,777,777,777,777,777,777,777,777,777,777,777,777,777,777,777,777,777,777,777,777,777,777,777,777,777,777,777,777,777,777,777,777,777,777,777,777,777,777,777,777,777,777,777,777,777,777,777,777,777,777,777,777,777,777,777,777,777,777,777,777,777,777,777,777,777,777,777,777,777,777,777,777,777,777,777,781,789,819,846,881,913,981,1007,1033,1056,1078,1118,1131,1138,1141,1142],"ymouse":[556,556,556,556,556,556,556,556,556,556,556,556,556,556,556,556,556,556,556,556,556,556,556,556,556,556,556,556,556,556,556,556,556,556,556,556,556,556,556,556,556,556,556,556,556,556,556,556,556,556,556,556,556,556,556,556,556,556,556,556,556,556,556,556,556,556,556,556,556,556,556,556,556,556,556,556,556,556,556,556,556,556,556,556,556,556,556,556,556,556,556,556,556,556,556,556,556,556,556,556,556,556,556,556,556,556,556,556,555,546,515,491,460,432,359,329,297,271,242,166,136,118,106,99],"timestamp_mouse":[14,35,60,74,93,114,134,154,174,193,215,233,255,274,295,314,334,353,374,395,415,434,455,473,505,515,534,554,575,594,615,635,655,674,694,714,735,755,775,795,815,835,855,874,894,915,935,955,975,995,1015,1034,1055,1074,1094,1114,1134,1155,1174,1195,1214,1234,1255,1274,1295,1315,1335,1355,1375,1395,1415,1435,1455,1475,1495,1515,1535,1555,1574,1596,1615,1634,1655,1675,1695,1714,1734,1755,1775,1794,1815,1834,1854,1874,1895,1915,1935,1954,1975,1995,2015,2035,2055,2074,2095,2115,2135,2155,2174,2194,2214,2235,2255,2274,2295,2315,2334,2354,2375,2394,2414,2434,2455,2475],"xSR":741.5,"ySR":501.8,"xT1":424.9,"yT1":0,"xT2":1058.1,"yT2":0,"toosoon":0,"cond_shown":"Incongruent","ratio_trial":100,"L_num":17,"L_den":30,"R_num":10,"R_den":15,"correct_side":2,"subjID":"julianasofiavargasfranco2","gender":"1","school":"6","age":"11"},{"start_time":1551899725608,"click_time":1551899729747,"finger_time":1551899727068,"fix_duration":279.4671741722479,"trial":18,"RT":1460,"MT":2679,"sideResp":2,"stimulus":[],"xmouse":[787,787,787,787,787,787,787,787,787,787,787,787,787,787,787,787,787,787,787,787,787,787,787,787,787,787,787,787,787,787,787,787,787,787,787,787,787,787,787,787,787,787,787,787,787,787,787,787,787,787,787,787,787,787,787,787,787,787,787,787,787,787,787,787,787,787,787,787,787,787,787,787,783,730,571,493,437,411,403,402,402,401,400,399,399,399,399,399,399,399,399,403,409,415,419,419,419,419,419,419,419,419,419,419,419,419,419,419,419,420,421,421,421,421,421,421,422,423,424,424,424,424,424,424,424,424,424,424,424,424,424,424,424,424,424,424,424,424,424,424,424,424,424,424,424,424,424,424,426,426,426,426,426,426,426,426,426,426,426,426,426,426,427,427,437,441,443,443,443,444,452,466,482,502,564,588,613,634,652,676,680,683,683,683,686,688,691,697,703,722,735,749,765,786,807,814,820,826,835,863,882,915,952,990,1082,1099,1111,1117],"ymouse":[543,543,543,543,543,543,543,543,543,543,543,543,543,543,543,543,543,543,543,543,543,543,543,543,543,543,543,543,543,543,543,543,543,543,543,543,543,543,543,543,543,543,543,543,543,543,543,543,543,543,543,543,543,543,543,543,543,543,543,543,543,543,543,543,543,543,543,543,543,543,543,543,538,503,434,402,377,368,364,364,361,354,348,344,341,340,340,340,340,340,346,358,369,379,385,385,385,385,385,385,385,385,385,385,385,385,385,385,387,394,396,397,397,397,397,399,402,404,405,406,406,406,406,406,406,406,406,406,407,407,407,407,407,407,407,407,407,407,407,407,407,407,407,407,407,407,408,414,419,421,421,421,421,421,421,421,421,421,421,421,421,421,422,422,432,436,437,438,438,439,444,455,465,480,510,514,517,521,523,527,528,528,528,528,528,528,528,530,532,540,545,549,553,559,561,561,561,557,551,515,494,454,408,354,194,156,119,90],"timestamp_mouse":[1,19,45,60,79,99,120,139,160,179,199,219,239,259,279,299,319,339,359,380,399,419,439,459,479,499,520,539,561,579,600,621,640,660,681,699,720,739,760,780,800,819,840,859,880,900,920,939,959,979,1000,1019,1040,1059,1080,1100,1119,1139,1160,1180,1199,1220,1240,1260,1279,1299,1320,1339,1360,1380,1400,1420,1440,1460,1479,1499,1519,1539,1560,1579,1599,1620,1641,1660,1679,1700,1720,1740,1760,1780,1800,1819,1839,1859,1879,1899,1920,1940,1959,1980,1999,2020,2039,2059,2080,2100,2119,2139,2160,2180,2199,2219,2239,2259,2279,2300,2320,2339,2361,2379,2399,2419,2439,2460,2479,2499,2520,2539,2559,2579,2599,2619,2640,2660,2679,2699,2719,2740,2760,2780,2799,2820,2839,2860,2879,2899,2919,2940,2960,2979,2999,3020,3039,3059,3080,3100,3119,3140,3160,3180,3200,3220,3239,3260,3279,3300,3319,3339,3359,3379,3400,3419,3440,3459,3480,3499,3519,3540,3559,3579,3599,3620,3640,3659,3679,3699,3719,3740,3759,3780,3799,3819,3840,3860,3879,3899,3919,3940,3960,3979,3999,4019,4040,4059,4079,4099,4119,4139],"xSR":741.5,"ySR":501.8,"xT1":424.9,"yT1":0,"xT2":1058.1,"yT2":0,"toosoon":0,"cond_shown":"Incongruent","ratio_trial":200,"L_num":6,"L_den":20,"R_num":3,"R_den":6,"correct_side":2,"subjID":"julianasofiavargasfranco2","gender":"1","school":"6","age":"11"},{"start_time":1551899731364,"click_time":1551899733888,"finger_time":1551899733587,"fix_duration":815.2004283668158,"trial":19,"RT":2223,"MT":301,"sideResp":2,"stimulus":[],"xmouse":[773,773,773,773,773,773,773,773,773,773,773,773,773,773,773,773,773,773,773,773,773,773,773,773,773,773,773,773,773,773,773,773,773,773,773,773,773,773,773,773,773,773,773,773,773,773,773,773,773,773,773,773,773,773,773,773,773,773,773,773,773,773,773,773,773,773,773,773,773,773,773,773,773,773,773,773,773,773,773,773,773,773,773,773,773,773,773,773,773,773,773,773,773,773,773,773,773,773,773,773,773,773,773,773,773,773,773,773,773,788,804,856,867,869,869,869,869,881,919,962,1005,1058,1064,1066,1067,1067,1073],"ymouse":[563,563,563,563,563,563,563,563,563,563,563,563,563,563,563,563,563,563,563,563,563,563,563,563,563,563,563,563,563,563,563,563,563,563,563,563,563,563,563,563,563,563,563,563,563,563,563,563,563,563,563,563,563,563,563,563,563,563,563,563,563,563,563,563,563,563,563,563,563,563,563,563,563,563,563,563,563,563,563,563,563,563,563,563,563,563,563,563,563,563,563,563,563,563,563,563,563,563,563,563,563,563,563,563,563,563,563,563,563,547,523,453,439,437,437,437,437,414,360,295,230,149,132,123,116,112,91],"timestamp_mouse":[13,39,43,64,84,104,123,144,164,183,203,224,244,263,284,303,323,344,364,383,404,424,443,464,483,504,523,543,564,583,604,623,644,663,684,703,724,744,763,784,804,824,843,864,883,904,924,943,964,984,1003,1023,1043,1064,1084,1104,1124,1144,1164,1184,1204,1225,1243,1264,1284,1303,1323,1344,1364,1384,1404,1424,1444,1464,1484,1504,1524,1544,1564,1584,1603,1624,1644,1664,1684,1703,1723,1744,1764,1784,1803,1824,1843,1863,1883,1903,1924,1943,1964,1984,2004,2024,2044,2063,2083,2104,2123,2143,2163,2183,2203,2223,2243,2264,2283,2304,2324,2344,2363,2384,2404,2424,2443,2463,2483,2505,2523],"xSR":741.5,"ySR":501.8,"xT1":424.9,"yT1":0,"xT2":1058.1,"yT2":0,"toosoon":0,"cond_shown":"Incongruent","ratio_trial":300,"L_num":4,"L_den":20,"R_num":2,"R_den":4,"correct_side":2,"subjID":"julianasofiavargasfranco2","gender":"1","school":"6","age":"11"},{"start_time":1551899734873,"click_time":1551899736428,"finger_time":1551899735888,"fix_duration":342.7118577081986,"trial":20,"RT":1015,"MT":540,"sideResp":2,"stimulus":[],"xmouse":[789,789,789,789,789,789,789,789,789,789,789,789,789,789,789,789,789,789,789,789,789,789,789,789,789,789,789,789,789,789,789,789,789,789,789,789,789,789,789,789,789,789,789,789,789,789,788,792,814,820,860,878,898,931,969,1017,1031,1039,1046,1051,1061,1063,1065,1066,1068,1073,1077,1080,1082,1082,1082,1082,1082,1082,1082,1082,1084,1086],"ymouse":[546,546,546,546,546,546,546,546,546,546,546,546,546,546,546,546,546,546,546,546,546,546,546,546,546,546,546,546,546,546,546,546,546,546,546,546,546,546,546,546,546,546,546,546,546,546,544,537,513,506,463,443,419,377,329,258,241,230,218,205,179,174,171,170,166,148,135,123,115,113,112,112,112,112,112,112,107,95],"timestamp_mouse":[16,34,54,75,94,114,134,154,175,195,215,234,255,275,295,314,335,355,375,395,415,435,455,474,495,514,535,555,575,595,614,635,655,674,694,714,735,755,774,794,815,834,855,875,895,915,934,955,974,994,1015,1034,1054,1075,1094,1115,1134,1155,1174,1194,1214,1235,1255,1275,1294,1314,1334,1354,1375,1395,1415,1434,1454,1475,1494,1514,1535,1555],"xSR":741.5,"ySR":501.8,"xT1":424.9,"yT1":0,"xT2":1058.1,"yT2":0,"toosoon":0,"cond_shown":"Incongruent","ratio_trial":300,"L_num":4,"L_den":20,"R_num":2,"R_den":4,"correct_side":2,"subjID":"julianasofiavargasfranco2","gender":"1","school":"6","age":"11"},{"start_time":1551899737885,"click_time":1551899739087,"finger_time":1551899738888,"fix_duration":594.1527180130661,"trial":21,"RT":1003,"MT":199,"sideResp":2,"stimulus":[],"xmouse":[800,800,800,800,800,800,800,800,800,800,800,800,800,800,800,800,800,800,800,800,800,800,800,800,800,800,800,800,800,800,800,800,800,800,800,800,800,800,800,800,800,800,800,800,800,800,800,800,801,806,837,870,900,928,969,1075,1123,1158,1167,1168,1156],"ymouse":[535,535,535,535,535,535,535,535,535,535,535,535,535,535,535,535,535,535,535,535,535,535,535,535,535,535,535,535,535,535,535,535,535,535,535,535,535,535,535,535,535,535,535,535,535,535,535,535,531,523,476,434,401,373,337,255,214,179,153,128,65],"timestamp_mouse":[8,22,43,62,83,103,122,143,163,182,202,223,242,262,283,302,322,343,362,383,403,423,443,462,482,503,522,543,562,582,603,623,643,662,683,703,722,742,762,783,802,823,843,862,883,902,923,943,962,982,1003,1021,1042,1063,1082,1102,1122,1143,1163,1182,1202],"xSR":741.5,"ySR":501.8,"xT1":424.9,"yT1":0,"xT2":1058.1,"yT2":0,"toosoon":0,"cond_shown":"Incongruent","ratio_trial":300,"L_num":4,"L_den":20,"R_num":2,"R_den":4,"correct_side":2,"subjID":"julianasofiavargasfranco2","gender":"1","school":"6","age":"11"},{"start_time":1551899740099,"click_time":1551899741687,"finger_time":1551899741607,"fix_duration":250,"trial":22,"RT":1508,"MT":80,"sideResp":2,"stimulus":[],"xmouse":[825,825,825,825,825,825,825,825,825,825,825,825,825,825,825,825,825,825,825,825,825,825,825,825,825,825,825,825,825,825,825,825,825,825,825,825,825,825,825,825,825,825,825,825,825,825,825,825,825,825,825,825,825,825,825,825,825,825,825,825,825,825,825,825,825,825,825,825,825,825,825,825,825,825,825,857,910,969,1036,1065],"ymouse":[552,552,552,552,552,552,552,552,552,552,552,552,552,552,552,552,552,552,552,552,552,552,552,552,552,552,552,552,552,552,552,552,552,552,552,552,552,552,552,552,552,552,552,552,552,552,552,552,552,552,552,552,552,552,552,552,552,552,552,552,552,552,552,552,552,552,552,552,552,552,552,552,552,552,548,491,403,294,156,82],"timestamp_mouse":[9,28,50,68,88,108,129,149,168,189,209,229,249,270,289,308,329,348,368,389,409,429,449,469,489,509,528,549,569,588,609,628,649,668,688,709,728,748,769,788,809,828,849,869,888,908,929,948,968,989,1008,1029,1049,1068,1089,1109,1128,1148,1170,1189,1208,1229,1248,1270,1289,1308,1328,1349,1368,1389,1409,1429,1448,1469,1488,1508,1529,1548,1569,1588],"xSR":741.5,"ySR":501.8,"xT1":424.9,"yT1":0,"xT2":1058.1,"yT2":0,"toosoon":0,"cond_shown":"Congruent","ratio_trial":200,"L_num":6,"L_den":20,"R_num":11,"R_den":22,"correct_side":2,"subjID":"julianasofiavargasfranco2","gender":"1","school":"6","age":"11"},{"start_time":1551899743422,"click_time":1551899745047,"finger_time":1551899744668,"fix_duration":952.5968824545009,"trial":23,"RT":1246,"MT":379,"sideResp":2,"stimulus":[],"xmouse":[767,767,767,767,767,767,767,767,767,767,767,767,767,767,767,767,767,767,767,767,767,767,767,767,767,767,767,767,767,767,767,767,767,767,767,767,767,767,767,767,767,767,767,767,767,767,767,767,767,767,767,767,767,767,767,767,767,767,767,767,772,795,846,944,958,966,973,980,992,997,1005,1010,1016,1042,1065,1092,1121,1141,1162,1162,1162,1156],"ymouse":[580,580,580,580,580,580,580,580,580,580,580,580,580,580,580,580,580,580,580,580,580,580,580,580,580,580,580,580,580,580,580,580,580,580,580,580,580,580,580,580,580,580,580,580,580,580,580,580,580,580,580,580,580,580,580,580,580,580,580,580,562,517,429,279,256,234,213,189,155,150,145,141,137,130,130,125,118,107,84,78,71,64],"timestamp_mouse":[10,25,45,65,85,105,126,145,166,186,205,226,245,266,286,305,325,346,365,385,406,426,445,466,485,506,526,545,565,585,605,626,646,666,686,706,725,745,766,786,806,826,846,865,886,906,925,946,966,985,1006,1026,1045,1066,1086,1106,1126,1146,1165,1186,1205,1225,1246,1265,1285,1305,1326,1345,1365,1384,1406,1425,1446,1465,1485,1505,1526,1545,1566,1585,1605,1625],"xSR":741.5,"ySR":501.8,"xT1":424.9,"yT1":0,"xT2":1058.1,"yT2":0,"toosoon":0,"cond_shown":"Congruent","ratio_trial":200,"L_num":3,"L_den":10,"R_num":11,"R_den":22,"correct_side":2,"subjID":"julianasofiavargasfranco2","gender":"1","school":"6","age":"11"},{"start_time":1551899746829,"click_time":1551899751827,"finger_time":1551899751687,"fix_duration":939.86734547458,"trial":24,"RT":4858,"MT":140,"sideResp":1,"stimulus":[],"xmouse":[779,779,779,779,779,779,779,779,779,779,779,779,779,779,779,779,779,779,779,779,779,779,779,779,779,779,779,779,779,779,779,779,779,779,779,779,779,779,779,779,779,779,779,779,779,779,779,779,779,779,780,781,785,785,785,785,785,785,785,785,785,785,785,785,785,785,785,785,785,785,785,785,785,785,785,785,785,785,785,785,785,785,785,785,785,785,785,785,785,785,785,785,785,785,785,785,785,785,785,785,785,785,785,785,785,785,785,785,785,785,785,785,785,785,785,785,785,785,785,785,785,785,785,785,785,785,785,785,785,785,785,785,785,785,785,785,785,785,785,785,785,785,785,785,785,785,785,785,785,785,785,785,785,785,785,785,785,785,785,785,785,785,785,785,785,785,785,785,785,785,785,785,785,785,785,785,785,785,785,785,785,785,785,785,785,785,785,785,785,785,785,785,785,785,785,785,785,785,785,785,785,785,785,785,785,785,785,785,785,785,785,785,785,785,785,785,785,785,785,785,785,785,785,785,785,785,785,785,785,785,785,785,785,785,785,785,785,785,785,785,785,785,773,748,713,675,633,560,523,483],"ymouse":[543,543,543,543,543,543,543,543,543,543,543,543,543,543,543,543,543,543,543,543,543,543,543,543,543,543,543,543,543,543,543,543,543,543,543,543,543,543,543,543,543,543,543,543,543,543,543,543,543,543,543,543,543,543,543,543,543,543,543,543,543,543,543,543,543,543,543,543,543,543,543,543,543,543,543,543,543,543,543,543,543,543,543,543,543,543,543,543,543,543,543,543,543,543,543,543,543,543,543,543,543,543,543,543,543,543,543,543,543,543,543,543,543,543,543,543,543,543,543,543,543,543,543,543,543,543,543,543,543,543,543,543,543,543,543,543,543,543,543,543,543,543,543,543,543,543,543,543,543,543,543,543,543,543,543,543,543,543,543,543,543,543,543,543,543,543,543,543,543,543,543,543,543,543,543,543,543,543,543,543,543,543,543,543,543,543,543,543,543,543,543,543,543,543,543,543,543,543,543,543,543,543,543,543,543,543,543,543,543,543,543,543,543,543,543,543,543,543,543,543,543,543,543,543,543,543,543,543,543,543,543,543,543,543,543,543,543,543,543,543,543,543,496,455,406,365,321,219,150,81],"timestamp_mouse":[20,42,58,78,98,119,139,159,179,199,219,239,258,279,299,319,338,358,378,399,419,439,459,479,498,519,538,559,578,598,619,639,659,679,699,719,739,758,779,799,818,839,859,878,898,919,939,959,978,998,1018,1038,1058,1078,1099,1118,1139,1158,1178,1199,1218,1239,1258,1278,1298,1318,1339,1359,1379,1399,1420,1439,1458,1479,1498,1518,1539,1559,1579,1599,1619,1638,1658,1678,1699,1719,1739,1758,1778,1799,1819,1839,1858,1878,1898,1919,1938,1958,1979,1999,2018,2038,2058,2079,2099,2119,2139,2159,2178,2199,2218,2239,2259,2279,2298,2319,2338,2359,2378,2398,2419,2439,2458,2480,2499,2519,2538,2559,2578,2599,2619,2640,2659,2679,2699,2718,2738,2758,2779,2798,2818,2838,2858,2878,2899,2919,2938,2958,2979,2998,3019,3039,3059,3080,3098,3118,3138,3158,3180,3198,3219,3238,3258,3278,3298,3319,3339,3359,3378,3398,3419,3439,3458,3479,3499,3518,3538,3559,3579,3599,3619,3638,3659,3679,3699,3719,3739,3758,3778,3799,3818,3838,3859,3878,3899,3918,3938,3958,3979,3998,4019,4039,4058,4079,4099,4118,4139,4158,4179,4199,4218,4239,4259,4278,4299,4319,4339,4358,4379,4398,4419,4439,4458,4478,4499,4518,4539,4559,4578,4598,4619,4639,4658,4678,4698,4719,4738,4758,4779,4799,4819,4839,4858,4879,4898,4919,4940,4958,4978,4998],"xSR":741.5,"ySR":501.8,"xT1":424.9,"yT1":0,"xT2":1058.1,"yT2":0,"toosoon":0,"cond_shown":"Incongruent","ratio_trial":100,"L_num":10,"L_den":25,"R_num":8,"R_den":16,"correct_side":2,"subjID":"julianasofiavargasfranco2","gender":"1","school":"6","age":"11"},{"start_time":1551899753584,"click_time":1551899754907,"finger_time":1551899754548,"fix_duration":894.7623257415235,"trial":25,"RT":964,"MT":359,"sideResp":2,"stimulus":[],"xmouse":[768,768,768,768,768,768,768,768,768,768,768,768,768,768,768,768,768,768,768,768,768,768,768,768,768,768,768,768,768,768,768,768,768,768,768,768,768,768,768,768,768,768,768,768,768,768,768,776,790,820,886,915,938,950,962,980,984,988,992,997,1009,1013,1016,1019,1021,1053,1074],"ymouse":[550,550,550,550,550,550,550,550,550,550,550,550,550,550,550,550,550,550,550,550,550,550,550,550,550,550,550,550,550,550,550,550,550,550,550,550,550,550,550,550,550,550,550,550,550,550,550,529,475,370,201,153,122,105,85,41,30,18,13,7,2,2,2,2,2,10,16],"timestamp_mouse":[9,23,45,69,84,103,124,144,164,183,204,224,243,263,283,305,323,343,363,384,404,424,443,464,483,504,523,544,564,583,604,624,643,663,683,704,723,744,764,783,804,823,843,863,883,904,924,943,964,984,1005,1023,1044,1064,1084,1103,1123,1143,1163,1184,1204,1225,1243,1263,1283,1304,1323],"xSR":741.5,"ySR":501.8,"xT1":424.9,"yT1":0,"xT2":1058.1,"yT2":0,"toosoon":0,"cond_shown":"Congruent","ratio_trial":100,"L_num":7,"L_den":14,"R_num":9,"R_den":15,"correct_side":2,"subjID":"julianasofiavargasfranco2","gender":"1","school":"6","age":"11"},{"start_time":1551899758204,"click_time":1551899759767,"finger_time":1551899759408,"fix_duration":975.5373932056826,"trial":26,"RT":1204,"MT":359,"sideResp":1,"stimulus":[],"xmouse":[788,788,788,788,788,788,788,788,788,788,788,788,788,788,788,788,788,788,788,788,788,788,788,788,788,788,788,788,788,788,788,788,788,788,788,788,788,788,788,788,788,788,788,788,788,788,788,788,796,816,824,826,826,826,826,819,814,812,810,802,794,784,771,758,717,708,701,698,695,691,685,675,662,649,609,585,554,518,489],"ymouse":[554,554,554,554,554,554,554,554,554,554,554,554,554,554,554,554,554,554,554,554,554,554,554,554,554,554,554,554,554,554,554,554,554,554,554,554,554,554,554,554,554,554,554,554,554,554,554,554,553,550,548,548,548,548,547,546,546,546,545,525,501,469,439,413,349,336,325,316,304,277,263,247,230,213,172,152,128,102,81],"timestamp_mouse":[13,32,44,63,84,103,124,144,163,184,204,223,244,264,283,304,324,343,364,383,404,424,443,464,483,503,523,543,564,584,604,623,644,664,684,704,723,743,764,784,804,824,843,863,883,903,923,944,963,983,1003,1023,1044,1064,1083,1104,1123,1144,1164,1183,1204,1223,1244,1263,1283,1303,1323,1344,1363,1383,1403,1423,1444,1464,1484,1503,1523,1544,1563],"xSR":741.5,"ySR":501.8,"xT1":424.9,"yT1":0,"xT2":1058.1,"yT2":0,"toosoon":0,"cond_shown":"Congruent","ratio_trial":200,"L_num":9,"L_den":20,"R_num":4,"R_den":16,"correct_side":1,"subjID":"julianasofiavargasfranco2","gender":"1","school":"6","age":"11"},{"start_time":1551899763117,"click_time":1551899764407,"finger_time":1551899763888,"fix_duration":1186.9268110441296,"trial":27,"RT":771,"MT":519,"sideResp":1,"stimulus":[],"xmouse":[795,795,795,795,795,795,795,795,795,795,795,795,795,795,795,795,795,795,795,795,795,795,795,795,795,795,795,795,795,795,795,795,795,795,795,795,795,795,760,740,725,713,710,706,702,696,691,683,655,644,634,624,616,596,584,575,568,562,557,557,557,556,554,528,508],"ymouse":[535,535,535,535,535,535,535,535,535,535,535,535,535,535,535,535,535,535,535,535,535,535,535,535,535,535,535,535,535,535,535,535,535,535,535,535,534,528,494,479,468,459,456,442,429,408,382,348,271,246,224,202,180,141,123,110,101,91,85,85,85,84,82,72,67],"timestamp_mouse":[10,30,51,70,91,111,131,151,171,190,211,230,251,271,290,310,330,351,370,391,410,431,450,471,491,510,530,551,571,591,611,631,650,670,690,711,730,750,771,791,810,831,851,870,890,910,931,951,970,989,1010,1031,1051,1070,1090,1110,1130,1150,1170,1192,1210,1230,1250,1270,1290],"xSR":741.5,"ySR":501.8,"xT1":424.9,"yT1":0,"xT2":1058.1,"yT2":0,"toosoon":0,"cond_shown":"Congruent","ratio_trial":300,"L_num":20,"L_den":25,"R_num":9,"R_den":18,"correct_side":1,"subjID":"julianasofiavargasfranco2","gender":"1","school":"6","age":"11"},{"start_time":1551899766162,"click_time":1551899767228,"finger_time":1551899766868,"fix_duration":1172.6953496582687,"trial":28,"RT":706,"MT":360,"sideResp":1,"stimulus":[],"xmouse":[825,825,825,825,825,825,825,825,825,825,825,825,825,825,825,825,825,825,825,825,825,825,825,825,825,825,825,825,825,825,825,825,820,812,797,765,685,665,653,644,637,621,612,601,587,565,546,540,537,536,535,532,529,523],"ymouse":[566,566,566,566,566,566,566,566,566,566,566,566,566,566,566,566,566,566,566,566,566,566,566,566,566,566,566,566,566,566,566,566,557,543,523,483,406,390,379,365,353,331,321,309,283,252,221,199,189,182,171,130,107,89],"timestamp_mouse":[12,40,45,65,85,105,125,145,165,186,205,226,246,265,285,305,325,346,365,385,405,426,445,466,485,506,526,546,566,585,606,626,646,665,686,706,726,745,765,785,805,826,845,865,885,906,925,946,966,985,1005,1026,1045,1065],"xSR":741.5,"ySR":501.8,"xT1":424.9,"yT1":0,"xT2":1058.1,"yT2":0,"toosoon":0,"cond_shown":"Congruent","ratio_trial":200,"L_num":20,"L_den":25,"R_num":9,"R_den":15,"correct_side":1,"subjID":"julianasofiavargasfranco2","gender":"1","school":"6","age":"11"},{"start_time":1551899768795,"click_time":1551899770867,"finger_time":1551899770287,"fix_duration":506.82151280422715,"trial":29,"RT":1492,"MT":580,"sideResp":2,"stimulus":[],"xmouse":[791,791,791,791,791,791,791,791,791,791,791,791,791,791,791,791,791,791,791,791,791,791,791,791,791,791,791,791,791,791,791,791,791,791,791,791,791,791,791,791,791,791,791,791,791,791,791,791,791,791,791,791,791,791,791,791,791,791,791,791,791,791,791,791,791,791,791,791,791,791,791,791,791,791,815,851,891,927,956,978,981,982,982,982,990,992,993,993,994,1001,1015,1031,1047,1047,1047,1047,1047,1047,1047,1047,1047,1047,1095,1100],"ymouse":[536,536,536,536,536,536,536,536,536,536,536,536,536,536,536,536,536,536,536,536,536,536,536,536,536,536,536,536,536,536,536,536,536,536,536,536,536,536,536,536,536,536,536,536,536,536,536,536,536,536,536,536,536,536,536,536,536,536,536,536,536,536,536,536,536,536,536,536,536,535,527,523,518,512,452,386,316,250,202,152,133,118,106,91,30,16,11,9,8,5,3,3,1,1,1,1,1,1,1,1,1,1,0,7],"timestamp_mouse":[12,33,52,72,92,112,133,153,173,192,212,233,253,272,293,312,332,353,372,392,413,432,453,473,492,513,533,552,573,593,613,633,653,673,693,713,733,753,773,792,812,833,853,872,892,913,932,953,974,993,1012,1032,1053,1073,1092,1113,1133,1152,1173,1193,1212,1233,1252,1273,1292,1312,1333,1353,1373,1392,1412,1433,1452,1473,1492,1513,1533,1553,1573,1592,1612,1632,1653,1672,1693,1712,1732,1752,1772,1793,1812,1832,1853,1872,1893,1912,1933,1953,1973,1992,2013,2032,2053,2072],"xSR":741.5,"ySR":501.8,"xT1":424.9,"yT1":0,"xT2":1058.1,"yT2":0,"toosoon":0,"cond_shown":"Congruent","ratio_trial":100,"L_num":1,"L_den":2,"R_num":3,"R_den":5,"correct_side":2,"subjID":"julianasofiavargasfranco2","gender":"1","school":"6","age":"11"},{"start_time":1551899772161,"click_time":1551899773588,"finger_time":1551899773387,"fix_duration":250,"trial":30,"RT":1226,"MT":201,"sideResp":1,"stimulus":[],"xmouse":[796,796,796,796,796,794,790,789,787,787,787,787,787,787,787,787,787,787,787,787,787,787,787,787,787,787,787,787,787,787,787,787,788,789,789,789,789,789,789,789,789,789,789,789,789,789,789,789,789,789,789,789,789,789,789,789,789,788,786,784,780,773,746,728,707,681,605,580,557,545,533,522],"ymouse":[540,540,540,540,540,541,541,541,541,541,541,541,541,541,541,541,541,541,541,541,541,541,541,541,541,541,541,541,541,541,541,541,540,539,539,539,539,539,539,539,539,539,539,539,539,539,539,539,539,539,539,539,539,539,538,536,524,520,516,512,503,486,441,412,375,326,186,131,85,61,45,30],"timestamp_mouse":[20,36,46,66,87,107,126,147,167,186,206,226,246,266,287,307,327,347,367,387,406,426,447,467,486,507,527,547,567,587,606,627,646,666,687,706,727,747,767,787,806,826,846,867,886,906,927,946,967,987,1006,1026,1047,1066,1086,1107,1126,1146,1166,1187,1206,1226,1247,1267,1286,1306,1326,1346,1366,1387,1406,1426],"xSR":741.5,"ySR":501.8,"xT1":424.9,"yT1":0,"xT2":1058.1,"yT2":0,"toosoon":0,"cond_shown":"Congruent","ratio_trial":300,"L_num":11,"L_den":22,"R_num":2,"R_den":10,"correct_side":1,"subjID":"julianasofiavargasfranco2","gender":"1","school":"6","age":"11"},{"start_time":1551899775365,"click_time":1551899776588,"finger_time":1551899776167,"fix_duration":975.7182475015043,"trial":31,"RT":802,"MT":421,"sideResp":2,"stimulus":[],"xmouse":[805,805,805,805,805,805,805,805,805,805,805,805,805,805,805,805,805,805,805,805,805,805,805,805,805,805,805,805,805,805,805,805,805,805,805,805,805,806,814,829,846,890,914,938,953,963,977,980,983,987,990,1000,1005,1008,1012,1015,1026,1029,1033,1036,1042,1064],"ymouse":[564,564,564,564,564,564,564,564,564,564,564,564,564,564,564,564,564,564,564,564,564,564,564,564,564,564,564,564,564,564,564,564,564,564,563,562,562,559,554,542,528,474,434,391,363,338,293,276,256,230,206,162,142,125,108,93,64,58,55,53,52,43],"timestamp_mouse":[2,41,42,62,82,102,123,143,163,182,202,222,242,263,283,302,323,343,363,383,403,423,443,464,482,503,523,543,562,583,602,622,642,663,682,704,723,742,763,783,802,823,842,862,884,902,922,942,962,982,1003,1023,1042,1062,1083,1102,1122,1143,1162,1182,1203,1223],"xSR":741.5,"ySR":501.8,"xT1":424.9,"yT1":0,"xT2":1058.1,"yT2":0,"toosoon":0,"cond_shown":"Incongruent","ratio_trial":300,"L_num":13,"L_den":26,"R_num":12,"R_den":15,"correct_side":2,"subjID":"julianasofiavargasfranco2","gender":"1","school":"6","age":"11"},{"start_time":1551899779261,"click_time":1551899780988,"finger_time":1551899780668,"fix_duration":351.55744825799593,"trial":32,"RT":1407,"MT":320,"sideResp":1,"stimulus":[],"xmouse":[801,801,801,801,800,800,799,799,799,799,799,799,799,799,799,799,799,799,799,799,799,799,799,799,799,799,799,799,799,799,799,799,799,799,799,799,799,799,799,799,799,799,799,799,799,799,799,799,799,799,799,799,799,799,799,799,799,799,799,799,799,799,799,799,798,795,788,780,770,759,740,721,709,693,682,674,658,644,625,599,573,531,525,521,519,515,497],"ymouse":[557,557,557,557,557,557,557,557,557,557,557,557,557,557,557,557,557,557,557,557,557,557,557,557,557,557,557,557,557,557,557,557,557,557,557,557,557,557,557,557,557,557,557,557,557,557,557,557,557,557,557,557,557,557,557,557,557,557,557,557,557,557,557,557,557,557,557,551,536,510,439,331,295,269,256,246,227,212,193,173,150,121,116,112,110,107,92],"timestamp_mouse":[19,37,46,66,86,107,126,147,166,186,206,226,246,267,286,306,326,347,366,387,406,426,446,467,487,507,526,547,567,586,606,626,647,666,687,707,727,747,767,787,807,827,847,867,887,906,927,946,976,986,1006,1026,1046,1067,1086,1106,1127,1146,1167,1187,1206,1227,1247,1266,1286,1307,1326,1347,1367,1386,1407,1426,1447,1467,1487,1507,1526,1545,1566,1586,1606,1627,1646,1666,1687,1707,1727],"xSR":741.5,"ySR":501.8,"xT1":424.9,"yT1":0,"xT2":1058.1,"yT2":0,"toosoon":0,"cond_shown":"Incongruent","ratio_trial":200,"L_num":3,"L_den":4,"R_num":11,"R_den":20,"correct_side":1,"subjID":"julianasofiavargasfranco2","gender":"1","school":"6","age":"11"},{"start_time":1551899782955,"click_time":1551899784987,"finger_time":1551899784688,"fix_duration":1006.8734942238857,"trial":33,"RT":1733,"MT":299,"sideResp":2,"stimulus":[],"xmouse":[781,781,781,781,781,781,781,781,781,781,781,781,781,781,781,781,781,781,781,781,781,781,781,781,781,783,784,784,784,784,784,784,784,784,784,784,784,784,784,784,784,784,784,784,784,784,784,784,784,784,784,784,784,784,784,784,784,784,784,784,784,784,784,784,784,784,784,784,784,784,784,784,784,784,784,784,784,784,784,784,784,784,784,784,790,800,860,901,941,967,975,969,964,958,953,949,945,945,947,957,982,1100],"ymouse":[544,544,544,544,545,545,545,545,545,545,545,545,545,545,545,545,545,545,545,545,545,545,545,545,545,545,545,545,545,545,545,545,545,545,545,545,545,545,545,545,545,545,545,545,545,545,545,545,545,545,545,545,545,545,545,545,545,545,545,545,545,545,545,545,545,545,545,545,545,545,545,545,545,545,545,545,545,545,545,545,545,545,545,545,538,523,427,350,271,210,179,142,132,121,112,104,86,83,79,77,77,88],"timestamp_mouse":[13,36,53,72,93,113,133,152,172,193,212,233,252,272,292,313,334,352,372,392,413,432,452,472,493,513,533,553,572,593,613,633,653,673,693,713,733,752,773,793,813,832,853,873,893,913,932,953,973,993,1012,1032,1052,1073,1093,1113,1132,1153,1172,1192,1212,1232,1252,1274,1292,1312,1333,1352,1372,1392,1412,1433,1452,1472,1492,1512,1533,1552,1573,1592,1613,1633,1653,1672,1692,1712,1733,1752,1772,1793,1812,1833,1852,1872,1892,1912,1933,1952,1973,1992,2012,2032],"xSR":741.5,"ySR":501.8,"xT1":424.9,"yT1":0,"xT2":1058.1,"yT2":0,"toosoon":0,"cond_shown":"Incongruent","ratio_trial":100,"L_num":10,"L_den":25,"R_num":9,"R_den":18,"correct_side":2,"subjID":"julianasofiavargasfranco2","gender":"1","school":"6","age":"11"},{"start_time":1551899786908,"click_time":1551899788067,"finger_time":1551899787688,"fix_duration":797.843473040708,"trial":34,"RT":780,"MT":379,"sideResp":2,"stimulus":[],"xmouse":[809,809,809,809,809,809,809,809,809,809,809,809,809,809,809,809,809,809,809,809,809,809,809,809,809,809,809,809,809,809,809,809,809,809,809,809,809,811,819,844,864,882,899,914,948,963,973,981,987,1005,1011,1016,1019,1024,1032,1039,1052,1057,1063],"ymouse":[542,542,542,542,542,542,542,542,542,542,542,542,542,542,542,542,542,542,542,542,542,542,542,542,542,542,542,542,542,542,542,542,542,542,542,542,542,542,538,492,456,413,375,340,272,246,228,211,194,157,143,132,123,115,97,86,67,62,54],"timestamp_mouse":[1,38,39,60,79,99,120,140,159,179,200,220,240,259,281,300,320,341,360,379,399,421,440,459,480,500,521,540,559,580,599,621,640,659,680,699,719,740,759,780,800,819,839,859,880,899,919,939,959,980,1000,1020,1039,1060,1079,1100,1119,1139,1159],"xSR":741.5,"ySR":501.8,"xT1":424.9,"yT1":0,"xT2":1058.1,"yT2":0,"toosoon":0,"cond_shown":"Incongruent","ratio_trial":300,"L_num":13,"L_den":26,"R_num":12,"R_den":15,"correct_side":2,"subjID":"julianasofiavargasfranco2","gender":"1","school":"6","age":"11"},{"start_time":1551899789746,"click_time":1551899791727,"finger_time":1551899791207,"fix_duration":756.33423978442,"trial":35,"RT":1461,"MT":520,"sideResp":2,"stimulus":[],"xmouse":[782,782,782,782,782,782,782,783,784,785,785,785,786,788,788,789,789,789,789,789,789,789,789,789,789,789,789,789,789,789,789,789,789,789,789,789,789,789,789,789,789,789,789,789,789,789,789,789,789,789,789,789,789,789,789,789,789,789,790,792,793,794,795,796,796,796,796,796,796,796,796,798,807,817,830,847,866,913,925,935,942,948,964,976,989,1003,1016,1032,1036,1037,1039,1039,1039,1040,1040,1042,1044,1051,1057,1063],"ymouse":[522,522,522,522,522,522,522,522,522,522,522,522,522,522,522,522,522,522,522,522,522,522,522,522,522,522,522,522,522,522,522,522,522,522,522,522,522,522,522,522,522,522,522,522,522,522,522,522,522,522,522,522,522,522,522,522,522,522,522,522,522,522,522,522,522,522,522,522,522,522,522,522,515,501,482,453,419,337,316,298,284,273,244,226,208,190,174,147,138,129,121,115,109,97,88,81,77,69,66,63],"timestamp_mouse":[10,22,42,62,81,101,122,141,161,181,201,222,242,261,282,301,322,341,361,381,402,422,441,461,482,501,522,542,562,582,601,621,642,661,682,702,721,741,761,781,801,821,842,862,881,901,921,942,962,983,1001,1021,1041,1062,1082,1103,1121,1141,1161,1181,1201,1221,1242,1261,1281,1301,1322,1341,1362,1381,1401,1421,1442,1461,1482,1502,1521,1542,1562,1581,1603,1621,1641,1661,1681,1701,1721,1741,1761,1782,1801,1823,1841,1861,1882,1901,1922,1941,1961,1981],"xSR":741.5,"ySR":501.8,"xT1":424.9,"yT1":0,"xT2":1058.1,"yT2":0,"toosoon":0,"cond_shown":"Incongruent","ratio_trial":300,"L_num":4,"L_den":20,"R_num":2,"R_den":4,"correct_side":2,"subjID":"julianasofiavargasfranco2","gender":"1","school":"6","age":"11"},{"start_time":1551899795364,"click_time":1551899797488,"finger_time":1551899796148,"fix_duration":1135.4902817681902,"trial":36,"RT":784,"MT":1340,"sideResp":2,"stimulus":[],"xmouse":[778,778,778,778,778,778,778,778,778,778,778,778,778,778,778,778,778,778,778,778,778,778,778,778,778,778,778,778,778,778,778,778,778,778,778,779,784,787,791,794,795,797,801,802,804,804,804,804,804,804,804,804,804,808,814,832,851,897,908,918,926,934,937,939,943,952,973,979,984,987,991,1000,1004,1010,1018,1025,1034,1034,1034,1034,1034,1034,1036,1060,1091,1127,1185,1185,1185,1185,1185,1185,1185,1185,1185,1185,1185,1185,1185,1185,1185,1185,1185,1185,1185,1185,1123],"ymouse":[530,530,530,530,530,530,530,530,530,530,530,530,530,530,530,530,530,530,530,530,530,530,530,530,530,530,530,530,530,530,530,530,530,530,530,530,519,513,505,499,494,489,480,476,474,474,474,474,474,474,474,474,468,462,454,437,428,412,405,400,393,388,385,383,379,369,338,327,314,305,294,280,274,263,253,244,231,231,231,231,231,231,227,193,151,101,12,12,12,12,12,12,12,12,12,12,12,12,12,12,12,12,12,12,12,12,26],"timestamp_mouse":[20,42,43,64,83,104,125,144,163,183,203,224,243,263,283,304,324,344,364,384,404,424,445,463,484,503,524,543,564,584,604,625,644,663,684,704,723,744,763,784,804,823,843,864,884,903,924,944,963,984,1004,1023,1044,1064,1084,1103,1123,1144,1163,1184,1204,1224,1245,1264,1283,1305,1323,1343,1364,1384,1404,1424,1445,1464,1484,1503,1524,1543,1564,1584,1603,1624,1644,1664,1683,1703,1724,1743,1763,1783,1804,1824,1844,1865,1884,1903,1924,1944,1964,1984,2004,2024,2043,2065,2084,2104,2124],"xSR":741.5,"ySR":501.8,"xT1":424.9,"yT1":0,"xT2":1058.1,"yT2":0,"toosoon":0,"cond_shown":"Congruent","ratio_trial":100,"L_num":7,"L_den":14,"R_num":9,"R_den":15,"correct_side":2,"subjID":"julianasofiavargasfranco2","gender":"1","school":"6","age":"11"},{"start_time":1551899799546,"click_time":1551899802688,"finger_time":1551899802488,"fix_duration":457.9539574133692,"trial":37,"RT":2942,"MT":200,"sideResp":2,"stimulus":[],"xmouse":[807,807,807,807,807,807,807,807,807,807,807,807,807,807,807,807,807,807,807,807,807,807,807,807,807,807,807,807,807,807,807,807,807,807,807,807,807,807,807,807,807,807,807,807,807,807,807,806,806,806,806,806,806,806,807,807,807,807,807,807,807,807,807,807,807,807,807,807,807,807,807,807,807,807,807,807,807,807,807,807,807,807,807,807,807,807,807,807,807,807,807,807,807,807,807,807,807,807,807,807,807,807,807,807,807,807,807,807,807,807,807,807,807,807,807,807,807,807,807,807,807,807,807,807,807,807,807,807,807,807,804,801,794,793,793,793,793,793,793,793,793,793,793,792,792,793,794,809,819,830,842,859,913,956,988,1017,1042,1086],"ymouse":[537,537,537,537,537,537,537,537,537,537,537,537,537,537,537,537,537,537,537,537,537,537,537,537,537,537,537,537,537,537,537,537,537,537,537,537,537,537,537,537,537,537,537,537,537,537,537,537,537,536,536,536,536,535,534,534,534,534,534,534,534,534,534,534,534,534,534,534,534,534,534,534,534,534,534,534,534,534,534,534,534,534,534,534,534,534,534,534,534,534,534,534,534,534,534,534,534,534,534,534,534,534,534,534,534,534,534,534,534,534,534,534,534,534,534,534,534,534,534,534,534,534,534,534,534,534,534,534,534,534,529,526,518,517,517,517,517,517,517,517,517,517,517,516,516,515,514,494,477,460,444,426,359,299,250,202,157,44],"timestamp_mouse":[10,21,41,61,81,103,122,142,161,181,202,221,241,261,281,302,321,341,361,381,402,422,441,461,482,503,522,542,562,581,601,623,642,661,682,702,721,742,762,782,801,821,842,862,881,901,922,941,961,981,1002,1022,1041,1061,1081,1101,1123,1141,1161,1182,1202,1221,1241,1262,1283,1302,1321,1341,1362,1382,1403,1422,1442,1461,1481,1501,1522,1542,1562,1581,1602,1623,1642,1662,1681,1703,1723,1742,1762,1782,1802,1822,1842,1862,1883,1902,1922,1942,1961,1982,2001,2023,2042,2062,2081,2103,2121,2141,2162,2181,2202,2222,2242,2262,2282,2302,2321,2342,2362,2381,2401,2422,2442,2463,2482,2502,2521,2541,2562,2582,2602,2621,2641,2663,2682,2701,2722,2741,2762,2783,2802,2822,2843,2862,2882,2901,2923,2942,2963,2982,3001,3021,3041,3061,3081,3102,3121,3142],"xSR":741.5,"ySR":501.8,"xT1":424.9,"yT1":0,"xT2":1058.1,"yT2":0,"toosoon":0,"cond_shown":"Incongruent","ratio_trial":200,"L_num":6,"L_den":20,"R_num":3,"R_den":6,"correct_side":2,"subjID":"julianasofiavargasfranco2","gender":"1","school":"6","age":"11"},{"start_time":1551899804434,"click_time":1551899805549,"finger_time":1551899805228,"fix_duration":845.2461582867796,"trial":38,"RT":794,"MT":321,"sideResp":1,"stimulus":[],"xmouse":[776,776,776,776,776,776,776,776,776,776,776,776,776,776,776,776,776,776,776,776,776,776,776,776,776,776,776,776,776,776,777,777,777,777,777,777,777,777,776,769,752,714,671,658,649,641,631,606,591,579,568,561,547,539,527,516],"ymouse":[529,529,529,529,529,529,529,529,529,529,529,529,529,529,529,529,529,529,529,529,529,529,529,529,529,529,529,529,529,529,528,528,528,528,528,528,526,520,509,484,442,366,306,287,271,253,230,181,160,142,130,122,98,83,68,55],"timestamp_mouse":[15,34,53,73,93,114,133,154,173,193,213,234,253,274,293,313,333,354,374,394,413,433,453,473,494,513,535,554,574,593,614,633,654,673,693,713,733,753,773,794,814,833,853,875,893,913,933,953,973,993,1014,1033,1053,1074,1094,1114],"xSR":741.5,"ySR":501.8,"xT1":424.9,"yT1":0,"xT2":1058.1,"yT2":0,"toosoon":0,"cond_shown":"Congruent","ratio_trial":300,"L_num":11,"L_den":22,"R_num":2,"R_den":10,"correct_side":1,"subjID":"julianasofiavargasfranco2","gender":"1","school":"6","age":"11"},{"start_time":1551899807520,"click_time":1551899808848,"finger_time":1551899808387,"fix_duration":1011.8995515111511,"trial":39,"RT":867,"MT":461,"sideResp":2,"stimulus":[],"xmouse":[820,820,820,820,820,820,820,820,820,820,820,820,820,820,820,820,820,820,820,820,820,820,820,820,820,820,820,820,820,820,820,820,820,820,820,820,820,820,821,823,825,826,830,840,846,853,859,866,882,888,893,899,905,911,922,929,938,947,985,1006,1024,1040,1051,1062,1073,1078,1086],"ymouse":[559,559,559,559,559,559,559,559,559,559,559,559,559,559,559,559,559,559,559,559,559,559,559,559,559,559,559,559,559,559,557,555,554,551,549,549,547,546,542,538,534,529,523,501,486,472,458,443,420,411,404,395,388,381,370,363,354,344,285,248,215,186,166,148,123,111,91],"timestamp_mouse":[8,27,54,67,88,108,127,147,168,188,208,227,248,267,287,307,327,347,368,387,408,427,447,468,487,509,528,548,567,588,607,628,647,667,688,707,727,748,768,787,807,828,847,867,887,907,928,948,968,987,1007,1027,1048,1067,1087,1107,1128,1148,1167,1189,1207,1227,1248,1267,1288,1308,1328],"xSR":741.5,"ySR":501.8,"xT1":424.9,"yT1":0,"xT2":1058.1,"yT2":0,"toosoon":0,"cond_shown":"Congruent","ratio_trial":100,"L_num":7,"L_den":14,"R_num":15,"R_den":25,"correct_side":2,"subjID":"julianasofiavargasfranco2","gender":"1","school":"6","age":"11"},{"start_time":1551899810793,"click_time":1551899812567,"finger_time":1551899812127,"fix_duration":864.7337588966601,"trial":40,"RT":1334,"MT":440,"sideResp":2,"stimulus":[],"xmouse":[785,785,785,785,785,785,785,785,785,785,785,785,785,785,785,785,785,785,785,785,785,785,785,785,785,785,785,785,785,785,785,785,785,785,785,785,785,785,785,785,785,785,785,785,785,785,785,785,785,785,785,785,785,785,785,785,785,785,785,786,787,788,791,792,812,830,856,883,899,909,916,916,916,916,916,916,916,916,919,948,970,991,1013,1031,1060,1064,1065,1065,1066],"ymouse":[559,559,559,559,559,559,559,559,559,559,559,559,559,559,559,559,559,559,559,559,559,559,559,559,559,559,559,559,559,559,559,559,559,559,559,559,559,559,559,559,559,559,559,559,559,559,559,559,559,559,559,559,559,559,559,559,559,559,558,557,556,555,553,553,539,525,502,479,464,455,451,451,451,451,451,451,451,451,446,392,353,318,285,249,172,149,125,106,91],"timestamp_mouse":[14,38,54,75,95,115,136,154,174,195,214,235,255,274,296,314,334,354,375,394,414,435,455,475,494,516,535,555,575,595,615,635,655,676,694,715,735,755,774,795,814,835,855,874,896,915,934,955,974,995,1014,1036,1054,1074,1095,1115,1134,1155,1175,1194,1214,1234,1255,1274,1295,1315,1334,1354,1374,1394,1414,1434,1454,1474,1495,1515,1534,1555,1575,1595,1614,1635,1655,1675,1694,1714,1734,1755,1774],"xSR":741.5,"ySR":501.8,"xT1":424.9,"yT1":0,"xT2":1058.1,"yT2":0,"toosoon":0,"cond_shown":"Congruent","ratio_trial":300,"L_num":5,"L_den":25,"R_num":6,"R_den":12,"correct_side":2,"subjID":"julianasofiavargasfranco2","gender":"1","school":"6","age":"11"},{"start_time":1551899813783,"click_time":1551899815269,"finger_time":1551899815067,"fix_duration":295.89165189628443,"trial":41,"RT":1284,"MT":202,"sideResp":1,"stimulus":[],"xmouse":[768,768,768,768,768,767,767,767,767,767,767,767,767,767,766,766,766,766,766,766,766,766,766,766,766,766,766,766,766,766,766,766,765,765,765,765,765,765,765,764,764,763,763,761,760,760,760,760,760,760,760,760,760,760,760,760,760,758,755,752,747,747,745,744,737,697,666,637,609,588,552,540,531,527,522],"ymouse":[551,551,551,551,551,551,551,551,551,551,551,551,551,551,551,551,551,551,551,551,551,551,551,551,551,551,551,551,551,551,551,551,551,551,551,551,551,551,551,551,551,551,551,550,550,549,549,549,549,549,549,549,549,549,549,549,549,548,542,537,531,530,528,526,517,444,393,347,294,248,155,114,86,69,54],"timestamp_mouse":[4,42,44,64,85,105,125,144,165,185,204,225,245,264,284,305,325,344,365,385,405,425,446,465,485,505,526,544,564,585,605,626,645,665,685,705,726,744,765,784,805,825,844,865,885,904,924,945,964,984,1004,1025,1045,1064,1084,1105,1124,1144,1166,1185,1204,1224,1245,1264,1284,1305,1324,1345,1365,1385,1404,1424,1445,1465,1485],"xSR":741.5,"ySR":501.8,"xT1":424.9,"yT1":0,"xT2":1058.1,"yT2":0,"toosoon":0,"cond_shown":"Incongruent","ratio_trial":200,"L_num":4,"L_den":6,"R_num":14,"R_den":30,"correct_side":1,"subjID":"julianasofiavargasfranco2","gender":"1","school":"6","age":"11"},{"start_time":1551899816687,"click_time":1551899818568,"finger_time":1551899817647,"fix_duration":657.6545512101229,"trial":42,"RT":960,"MT":921,"sideResp":1,"stimulus":[],"xmouse":[793,793,793,793,793,793,795,795,797,799,803,804,804,804,804,804,804,804,804,804,804,804,804,804,804,804,804,804,804,804,804,804,804,804,804,804,804,804,804,804,804,804,804,804,804,804,804,804,804,804,804,804,804,804,804,804,804,804,804,804,804,804,804,804,804,804,804,804,804,804,804,804,804,804,804,804,801,792,780,761,720,708,701,692,684,658,643,627,609,592,564,553,543,528,516],"ymouse":[515,515,515,515,515,515,513,512,510,507,503,502,502,502,502,502,502,502,502,502,502,502,502,502,502,502,502,502,502,502,502,502,502,502,502,502,502,502,502,502,502,502,502,502,502,502,502,502,501,501,499,498,498,497,497,496,496,496,496,496,496,496,496,496,496,496,496,496,496,496,496,496,496,496,496,496,486,466,437,401,346,332,324,314,306,278,259,237,210,190,155,140,122,101,82],"timestamp_mouse":[9,20,47,61,81,100,120,140,162,181,200,220,241,260,280,300,321,341,361,380,401,420,440,460,481,501,521,540,560,581,601,621,640,661,681,701,721,741,760,781,801,820,840,860,880,902,920,941,960,980,1002,1020,1041,1062,1080,1100,1121,1140,1161,1180,1201,1221,1241,1261,1281,1301,1320,1341,1361,1380,1400,1420,1440,1461,1480,1500,1521,1540,1562,1580,1601,1620,1640,1662,1681,1701,1720,1741,1761,1781,1801,1820,1840,1860,1881],"xSR":741.5,"ySR":501.8,"xT1":424.9,"yT1":0,"xT2":1058.1,"yT2":0,"toosoon":0,"cond_shown":"Congruent","ratio_trial":200,"L_num":8,"L_den":15,"R_num":7,"R_den":21,"correct_side":1,"subjID":"julianasofiavargasfranco2","gender":"1","school":"6","age":"11"},{"start_time":1551899821778,"click_time":1551899823169,"finger_time":1551899822987,"fix_duration":1029.4076012600267,"trial":43,"RT":1209,"MT":182,"sideResp":2,"stimulus":[],"xmouse":[794,794,794,794,794,794,794,794,794,794,794,794,794,794,794,794,794,794,794,794,794,794,794,794,794,794,794,794,794,794,794,794,794,794,794,794,794,794,794,794,794,794,794,790,787,782,782,782,782,782,782,782,782,782,782,782,782,788,793,806,861,893,922,943,964,1016,1030,1045,1053,1061],"ymouse":[548,548,548,548,548,548,548,548,548,548,548,548,548,548,548,548,548,548,548,548,548,548,548,548,548,548,548,548,548,548,548,548,548,548,548,548,548,548,548,548,548,548,548,547,545,544,544,544,544,544,544,544,544,544,544,544,541,537,533,520,447,398,359,333,305,215,182,147,123,97],"timestamp_mouse":[10,47,50,69,89,109,130,149,170,190,210,229,249,269,289,310,329,349,369,390,409,429,449,471,490,509,530,550,569,590,610,631,650,670,690,710,729,750,769,789,810,830,849,870,890,909,930,951,969,990,1009,1029,1050,1071,1089,1110,1130,1149,1170,1190,1209,1229,1249,1270,1289,1309,1331,1349,1369,1390],"xSR":741.5,"ySR":501.8,"xT1":424.9,"yT1":0,"xT2":1058.1,"yT2":0,"toosoon":0,"cond_shown":"Congruent","ratio_trial":200,"L_num":9,"L_den":30,"R_num":13,"R_den":26,"correct_side":2,"subjID":"julianasofiavargasfranco2","gender":"1","school":"6","age":"11"},{"start_time":1551899826695,"click_time":1551899827607,"finger_time":1551899827387,"fix_duration":1283.8017427450154,"trial":44,"RT":692,"MT":220,"sideResp":1,"stimulus":[],"xmouse":[799,799,799,799,799,799,799,799,799,799,799,799,799,799,799,799,799,799,799,799,799,799,799,799,799,799,799,799,799,799,799,799,798,796,778,767,752,729,703,625,598,572,551,535,500,484],"ymouse":[547,547,547,547,547,547,547,547,547,547,547,547,547,547,547,547,547,547,547,547,547,547,547,547,547,547,547,547,547,547,547,547,534,527,487,466,442,406,369,277,247,215,187,165,114,91],"timestamp_mouse":[30,39,52,72,93,112,132,154,173,192,214,233,252,272,292,312,333,354,372,393,412,433,453,474,493,513,532,553,572,594,613,633,652,673,692,712,733,753,773,792,812,833,852,872,892,912],"xSR":741.5,"ySR":501.8,"xT1":424.9,"yT1":0,"xT2":1058.1,"yT2":0,"toosoon":0,"cond_shown":"Congruent","ratio_trial":300,"L_num":20,"L_den":25,"R_num":8,"R_den":16,"correct_side":1,"subjID":"julianasofiavargasfranco2","gender":"1","school":"6","age":"11"},{"start_time":1551899830610,"click_time":1551899832127,"finger_time":1551899831808,"fix_duration":361.8570254054425,"trial":45,"RT":1198,"MT":319,"sideResp":1,"stimulus":[],"xmouse":[782,782,782,782,782,782,782,782,782,782,782,782,782,782,782,782,782,782,782,782,782,782,782,782,782,782,782,782,782,782,782,782,782,782,782,782,782,782,782,782,782,782,782,782,782,782,782,782,782,782,782,783,783,783,783,783,783,784,783,774,756,721,665,628,614,599,588,576,559,554,553,551,547,527,512,497],"ymouse":[555,555,555,555,555,555,555,555,555,555,555,555,555,555,555,555,555,555,555,555,555,555,555,555,555,555,555,555,555,555,555,555,555,555,555,555,555,555,555,555,555,555,555,555,555,555,555,555,555,555,555,556,556,556,556,556,556,556,522,500,473,424,351,297,271,248,231,220,209,207,205,194,179,129,107,88],"timestamp_mouse":[19,45,58,77,98,118,138,158,178,198,217,237,258,278,297,318,337,357,378,398,417,437,458,477,497,518,537,557,578,599,618,638,657,677,697,717,738,757,778,797,817,837,858,877,897,917,937,958,978,998,1018,1037,1058,1077,1098,1117,1137,1157,1177,1198,1217,1237,1257,1278,1297,1317,1338,1358,1377,1398,1417,1437,1457,1477,1498,1517],"xSR":741.5,"ySR":501.8,"xT1":424.9,"yT1":0,"xT2":1058.1,"yT2":0,"toosoon":0,"cond_shown":"Incongruent","ratio_trial":300,"L_num":7,"L_den":10,"R_num":8,"R_den":20,"correct_side":1,"subjID":"julianasofiavargasfranco2","gender":"1","school":"6","age":"11"},{"start_time":1551899833743,"click_time":1551899835187,"finger_time":1551899834507,"fix_duration":633.1072969133771,"trial":46,"RT":764,"MT":680,"sideResp":1,"stimulus":[],"xmouse":[785,785,785,785,785,785,785,785,785,785,785,785,785,785,785,785,785,785,785,785,785,785,785,785,785,785,785,785,785,785,785,785,785,785,785,783,781,765,752,737,724,711,676,647,614,576,534,533,534,534,534,534,534,534,534,534,534,534,529,529,529,529,526,525,525,525,525,525,525,525,525,517,506],"ymouse":[544,544,544,544,544,544,544,544,544,544,544,544,544,544,544,544,544,544,544,544,544,544,544,544,544,544,544,544,544,544,544,544,544,544,544,544,544,518,501,485,474,462,425,401,371,336,302,286,284,279,272,263,258,248,243,238,233,206,185,173,160,149,131,127,126,126,126,126,126,126,125,111,85],"timestamp_mouse":[19,36,44,65,84,104,125,144,165,185,205,225,245,265,284,304,325,344,364,385,405,425,445,464,484,505,526,544,565,585,605,624,645,665,686,704,724,745,764,784,805,824,844,864,884,905,924,945,964,984,1004,1025,1044,1065,1085,1104,1125,1145,1164,1184,1205,1225,1245,1264,1284,1304,1325,1344,1364,1385,1405,1425,1444],"xSR":741.5,"ySR":501.8,"xT1":424.9,"yT1":0,"xT2":1058.1,"yT2":0,"toosoon":0,"cond_shown":"Congruent","ratio_trial":200,"L_num":21,"L_den":30,"R_num":2,"R_den":4,"correct_side":1,"subjID":"julianasofiavargasfranco2","gender":"1","school":"6","age":"11"},{"start_time":1551899836977,"click_time":1551899838788,"finger_time":1551899838488,"fix_duration":746.8702523464449,"trial":47,"RT":1511,"MT":300,"sideResp":2,"stimulus":[],"xmouse":[782,782,782,782,782,782,784,787,789,791,793,793,793,793,793,793,793,793,793,793,793,793,793,793,793,793,793,793,793,793,793,793,793,793,793,793,793,793,793,793,793,793,793,793,793,793,793,793,793,793,793,793,793,793,793,793,793,793,793,793,793,793,793,793,793,793,793,793,793,793,793,793,793,793,799,844,879,916,950,971,996,1004,1009,1016,1023,1039,1046,1051,1056,1059,1064],"ymouse":[547,547,547,547,547,548,548,548,548,548,548,548,548,548,548,548,548,548,548,548,548,548,548,548,548,548,548,548,548,548,548,548,548,548,548,548,548,548,548,548,548,548,548,548,548,548,548,548,548,548,548,548,548,548,548,548,548,548,548,548,548,548,548,548,548,548,548,548,548,548,548,548,548,548,546,492,440,388,341,311,275,261,245,222,200,152,135,122,109,103,94],"timestamp_mouse":[12,43,50,71,90,111,131,150,171,191,210,231,251,271,290,310,332,350,371,391,410,431,450,470,492,510,530,551,570,591,611,631,651,670,691,711,731,751,771,791,810,832,851,871,891,911,931,951,970,992,1011,1032,1050,1070,1090,1111,1131,1151,1170,1190,1210,1230,1251,1270,1291,1310,1331,1351,1371,1391,1411,1430,1451,1471,1490,1511,1531,1551,1570,1591,1610,1630,1650,1670,1691,1710,1730,1750,1770,1790,1811],"xSR":741.5,"ySR":501.8,"xT1":424.9,"yT1":0,"xT2":1058.1,"yT2":0,"toosoon":0,"cond_shown":"Incongruent","ratio_trial":200,"L_num":14,"L_den":30,"R_num":6,"R_den":9,"correct_side":2,"subjID":"julianasofiavargasfranco2","gender":"1","school":"6","age":"11"},{"start_time":1551899839991,"click_time":1551899841387,"finger_time":1551899840587,"fix_duration":342.9252798588098,"trial":48,"RT":596,"MT":800,"sideResp":1,"stimulus":[],"xmouse":[779,779,779,779,779,779,779,779,779,779,779,779,779,779,779,779,779,779,779,779,779,779,779,779,779,779,779,779,772,760,753,743,734,728,720,713,708,703,697,683,677,669,661,651,621,613,611,611,611,611,600,588,576,561,552,551,546,539,536,536,536,535,534,534,531,530,529,529,528,524],"ymouse":[537,537,537,537,537,537,537,537,537,537,537,537,537,537,537,537,537,536,534,530,530,530,530,530,530,530,529,525,514,500,491,480,470,464,455,446,438,428,415,391,382,372,363,352,298,279,275,274,274,269,245,218,186,154,137,135,121,109,104,103,103,101,100,98,94,94,92,91,90,89],"timestamp_mouse":[16,36,57,76,97,116,137,156,178,196,218,237,257,276,297,316,337,356,376,396,416,436,456,476,497,516,536,557,578,596,616,636,657,676,696,717,737,756,777,797,816,837,858,876,897,916,936,956,978,996,1016,1036,1057,1076,1097,1116,1136,1157,1176,1196,1217,1236,1257,1276,1296,1316,1336,1356,1377,1396],"xSR":741.5,"ySR":501.8,"xT1":424.9,"yT1":0,"xT2":1058.1,"yT2":0,"toosoon":0,"cond_shown":"Congruent","ratio_trial":200,"L_num":20,"L_den":25,"R_num":9,"R_den":15,"correct_side":1,"subjID":"julianasofiavargasfranco2","gender":"1","school":"6","age":"11"},{"start_time":1551899847661,"click_time":1551899849407,"finger_time":1551899849188,"fix_duration":1312.4544727927978,"trial":49,"RT":1527,"MT":219,"sideResp":1,"stimulus":[],"xmouse":[799,799,799,799,799,799,799,799,799,799,799,799,799,799,799,799,799,799,799,799,799,799,799,799,799,799,799,799,799,799,799,799,799,799,799,799,799,799,799,799,799,799,799,799,799,799,799,799,799,799,799,799,799,799,799,799,799,799,799,799,799,799,799,799,799,799,799,799,799,799,799,799,799,799,799,798,772,745,720,691,656,624,612,598,581,562,532,524],"ymouse":[532,532,532,532,532,532,532,532,532,532,532,532,532,532,532,532,532,532,532,532,532,532,532,532,532,532,532,532,532,532,532,532,532,532,532,532,532,532,532,532,532,532,532,532,532,532,532,532,532,532,532,532,532,532,532,532,532,532,532,532,532,532,532,532,532,532,532,532,532,532,532,532,532,532,532,523,453,393,334,279,220,178,167,155,139,122,94,89],"timestamp_mouse":[9,26,52,67,86,107,127,146,166,187,206,226,246,266,286,307,326,347,367,387,407,427,446,466,486,507,527,547,566,586,607,627,646,666,686,706,727,746,766,786,806,826,847,866,886,907,926,947,966,987,1007,1027,1047,1066,1086,1106,1127,1146,1166,1186,1206,1226,1247,1266,1287,1306,1327,1346,1367,1387,1407,1426,1446,1466,1486,1506,1527,1547,1566,1587,1607,1626,1646,1667,1686,1706,1726,1746],"xSR":741.5,"ySR":501.8,"xT1":424.9,"yT1":0,"xT2":1058.1,"yT2":0,"toosoon":0,"cond_shown":"Incongruent","ratio_trial":100,"L_num":12,"L_den":30,"R_num":2,"R_den":4,"correct_side":2,"subjID":"julianasofiavargasfranco2","gender":"1","school":"6","age":"11"},{"start_time":1551899850661,"click_time":1551899851967,"finger_time":1551899851768,"fix_duration":250,"trial":50,"RT":1107,"MT":199,"sideResp":2,"stimulus":[],"xmouse":[783,783,783,783,783,783,783,783,783,783,783,783,783,783,783,783,783,783,783,783,783,783,783,783,783,783,783,783,783,783,783,783,783,783,783,783,783,783,783,783,783,783,783,783,783,783,783,783,783,783,783,783,783,792,809,831,927,980,1036,1069,1085,1104,1111,1121,1133,1140],"ymouse":[560,560,560,560,560,560,560,560,560,560,560,560,560,560,560,560,560,560,560,560,560,560,560,560,560,560,560,560,560,560,560,560,560,560,560,560,560,560,560,560,559,559,559,559,559,559,559,559,559,559,559,559,558,541,519,498,432,376,312,258,225,174,157,137,116,95],"timestamp_mouse":[9,31,47,67,86,106,126,146,167,187,207,226,246,266,287,306,326,347,367,386,406,426,446,467,486,507,526,547,567,587,606,627,647,666,686,706,727,748,767,787,806,827,846,867,887,907,926,946,966,986,1006,1027,1046,1066,1087,1106,1126,1146,1166,1187,1207,1227,1246,1266,1287,1306],"xSR":741.5,"ySR":501.8,"xT1":424.9,"yT1":0,"xT2":1058.1,"yT2":0,"toosoon":0,"cond_shown":"Incongruent","ratio_trial":300,"L_num":4,"L_den":20,"R_num":2,"R_den":4,"correct_side":2,"subjID":"julianasofiavargasfranco2","gender":"1","school":"6","age":"11"},{"start_time":1551899854166,"click_time":1551899855928,"finger_time":1551899855748,"fix_duration":1256.46205285482,"trial":51,"RT":1582,"MT":180,"sideResp":1,"stimulus":[],"xmouse":[827,827,827,827,827,827,827,827,827,827,827,827,827,827,827,827,827,827,827,827,827,827,827,827,827,827,827,827,827,827,827,827,827,827,827,827,827,827,827,827,827,827,827,827,827,827,827,827,827,827,827,827,827,827,827,827,827,827,827,827,827,827,827,827,827,827,827,827,827,827,827,827,827,827,827,827,827,827,822,784,730,626,583,549,532,512,485,461,451],"ymouse":[568,568,568,568,568,568,568,568,568,568,568,568,568,568,568,568,568,568,568,568,568,568,568,568,568,568,568,568,568,568,568,568,568,568,568,568,568,568,568,568,568,568,568,568,568,568,568,568,568,568,568,568,568,568,568,568,568,568,568,568,568,568,568,568,568,568,568,568,568,568,568,568,568,568,568,568,568,568,542,473,409,320,285,258,238,205,156,104,83],"timestamp_mouse":[9,22,50,61,81,100,121,142,161,181,201,222,242,261,282,301,321,342,361,381,402,422,442,462,482,502,521,542,562,581,601,621,641,661,681,701,721,741,