[{"start_time":1551900184996,"click_time":1551900187181,"finger_time":1551900186940,"fix_duration":1430.854017709919,"trial":0,"RT":1944,"MT":241,"sideResp":1,"stimulus":"img/500/equaldotsize/L/7_Ratio_500_L_10_R_5.png","xmouse":[810,810,810,810,810,810,810,810,810,810,810,810,810,810,810,810,810,810,810,810,810,810,810,810,810,810,810,810,810,810,810,810,810,810,810,810,810,810,810,810,810,810,810,810,810,810,810,810,810,810,810,810,810,810,810,810,810,810,810,810,810,810,810,810,810,810,810,810,810,810,810,810,810,810,810,810,810,810,810,810,810,810,810,810,810,810,810,810,810,810,810,810,810,810,810,810,810,776,747,697,626,600,582,570,565,556,518,492,474,460],"ymouse":[514,514,514,514,514,514,514,514,514,514,514,514,514,514,514,514,514,514,514,514,514,514,514,514,514,514,514,514,514,514,514,514,514,514,514,514,514,514,514,514,514,514,514,514,514,514,514,514,514,514,514,514,514,514,514,514,514,514,514,514,514,514,514,514,514,514,514,514,514,514,514,514,514,514,514,514,514,514,514,514,514,514,514,514,514,514,514,514,514,514,514,514,514,514,514,514,514,455,414,363,319,299,283,270,257,238,175,139,113,92],"timestamp_mouse":[10,43,44,65,85,104,126,144,166,185,204,225,246,265,286,306,326,346,366,386,406,426,444,464,485,504,526,545,565,586,605,626,645,664,686,706,726,744,765,784,805,826,845,866,886,905,925,944,966,985,1006,1026,1044,1065,1084,1104,1126,1144,1166,1185,1204,1224,1246,1266,1286,1304,1325,1346,1365,1385,1405,1426,1444,1465,1484,1506,1526,1545,1565,1586,1604,1626,1645,1665,1685,1704,1726,1746,1766,1786,1805,1825,1844,1866,1886,1906,1924,1944,1966,1985,2006,2024,2044,2064,2085,2105,2125,2145,2166,2184],"xSR":741.5,"ySR":469.95,"xT1":424.9,"yT1":0,"xT2":1058.1,"yT2":0,"toosoon":0,"cond_shown":"equaldotsize","ratio_trial":500,"smaller_num":"5","larger_num":"10","correct_side":1,"subjID":"julianasofiavargasfranco2","gender":"1","age":"11","school":"6","test":{"fix_dur":[250,1500],"timestim":300,"targets_dim":[100,100],"targets_relative_coord":[0.3,0.7],"size_stim":[880,420],"start_dim":[100,100],"size_start":[300,300],"size_fix":60,"samplingrate":20,"img_types":["equaldotsize","equaldotanddens","randomdotsizeEA"],"ratios":[250,500,750,900],"rep_conds":9,"nTrials":120,"trials_to_rest":500,"Trials_order":[87,47,96,76,89,58,29,37,0,33,9,105,5,63,4,98,18,15,42,24,20,6,21,68,108,100,10,17,38,77,50,8,22,61,28,30,62,2,66,104,113,41,111,45,14,7,13,85,90,84,25,32,86,119,95,93,53,36,75,3,40,51,81,12,102,46,73,79,59,31,55,1,99,27,92,19,48,74,107,44,54,49,83,16,39,64,112,80,82,91,94,114,117,103,26,78,56,11,60,70,71,109,34,35,67,88,23,72,69,57,101,116,106,118,52,65,43,97,115,110],"cond_shown":["equaldotsize","randomdotsizeEA","equaldotsize","equaldotanddens","randomdotsizeEA","equaldotanddens","randomdotsizeEA","equaldotanddens","equaldotsize","equaldotsize","equaldotsize","equaldotsize","randomdotsizeEA","equaldotsize","equaldotanddens","randomdotsizeEA","equaldotsize","equaldotsize","equaldotsize","equaldotsize","randomdotsizeEA","equaldotsize","equaldotsize","randomdotsizeEA","equaldotsize","equaldotanddens","equaldotanddens","randomdotsizeEA","randomdotsizeEA","randomdotsizeEA","randomdotsizeEA","randomdotsizeEA","equaldotanddens","equaldotanddens","equaldotanddens","equaldotsize","randomdotsizeEA","randomdotsizeEA","equaldotsize","randomdotsizeEA","randomdotsizeEA","randomdotsizeEA","equaldotsize","equaldotsize","randomdotsizeEA","equaldotanddens","equaldotanddens","equaldotanddens","equaldotsize","equaldotsize","equaldotanddens","randomdotsizeEA","randomdotsizeEA","randomdotsizeEA","randomdotsizeEA","equaldotsize","randomdotsizeEA","equaldotsize","equaldotsize","equaldotsize","equaldotanddens","equaldotsize","equaldotsize","equaldotsize","equaldotsize","equaldotanddens","equaldotanddens","equaldotanddens","randomdotsizeEA","equaldotanddens","equaldotanddens","equaldotanddens","equaldotsize","equaldotsize","randomdotsizeEA","equaldotanddens","equaldotsize","randomdotsizeEA","randomdotsizeEA","randomdotsizeEA","equaldotsize","equaldotanddens","randomdotsizeEA","equaldotanddens","equaldotsize","equaldotanddens","equaldotanddens","randomdotsizeEA","equaldotanddens","equaldotanddens","equaldotanddens","equaldotsize","equaldotsize","equaldotanddens","randomdotsizeEA","equaldotsize","randomdotsizeEA","randomdotsizeEA","equaldotsize","equaldotanddens","randomdotsizeEA","equaldotanddens","equaldotanddens","randomdotsizeEA","equaldotanddens","equaldotanddens","randomdotsizeEA","equaldotsize","equaldotsize","equaldotsize","randomdotsizeEA","randomdotsizeEA","equaldotanddens","equaldotanddens","equaldotanddens","randomdotsizeEA","equaldotanddens","equaldotanddens","equaldotanddens","randomdotsizeEA"],"ratio_trial":[500,900,250,500,500,900,500,250,250,900,900,900,500,500,500,250,750,500,750,250,750,750,900,750,250,500,900,500,250,500,250,750,900,250,500,750,250,250,750,750,500,500,500,900,250,750,250,250,750,250,250,750,250,900,900,900,500,250,500,500,500,500,900,250,750,900,250,750,900,750,750,250,500,500,750,750,250,250,900,750,750,250,900,500,500,500,500,750,900,750,900,750,900,750,250,750,750,900,250,900,900,250,900,900,750,500,900,250,900,900,500,750,900,900,500,500,750,250,750,250],"smaller_num":["5","18","2","6","9","18","10","6","3","18","9","9","6","2","5","4","15","2","3","2","15","12","18","6","5","9","18","6","3","10","2","15","18","3","2","15","3","2","3","3","6","1","6","18","5","15","4","2","18","3","2","6","6","18","9","9","6","2","2","2","9","9","18","2","12","18","5","3","18","3","15","2","10","2","6","6","2","3","9","3","6","6","9","5","1","4","2","6","9","6","18","15","9","12","6","15","9","18","4","9","9","2","9","18","18","4","9","3","18","9","9","3","18","9","9","2","3","4","12","3"],"larger_num":["10","20","8","12","18","20","20","24","12","20","10","10","12","4","10","16","20","4","4","8","20","16","20","8","20","18","20","12","12","20","8","20","20","12","4","20","12","8","4","4","12","2","12","20","20","20","16","8","24","12","8","8","24","20","10","10","12","8","4","4","18","18","20","8","16","20","20","4","20","4","20","8","20","4","8","8","8","12","10","4","8","24","10","10","2","8","4","8","10","8","20","20","10","16","24","20","12","20","16","10","10","8","10","20","24","8","10","12","20","10","18","4","20","10","18","4","4","16","16","12"],"correct_side":[1,2,1,1,2,1,2,1,1,1,2,2,1,2,2,1,2,2,1,1,2,2,1,1,2,1,2,1,1,2,1,1,1,2,2,2,1,1,1,2,1,2,1,2,2,2,1,2,1,2,1,2,1,1,1,2,1,1,1,2,1,1,2,1,2,1,2,1,1,1,2,1,2,1,1,1,1,1,1,1,1,2,2,2,2,1,1,1,2,1,1,2,2,2,1,2,2,1,2,2,2,1,1,1,1,1,1,1,1,2,2,2,1,1,2,2,1,2,2,1],"img_shown":["img/500/equaldotsize/L/7_Ratio_500_L_10_R_5.png","img/900/randomdotsizeEA/R/11_Ratio_900_L_18_R_20.png","img/250/equaldotsize/L/1_Ratio_250_L_8_R_2.png","img/500/equaldotanddens/L/13_Ratio_500_L_12_R_6.png","img/500/randomdotsizeEA/R/6_Ratio_500_L_9_R_18.png","img/900/equaldotanddens/L/8_Ratio_900_L_20_R_18.png","img/500/randomdotsizeEA/R/3_Ratio_500_L_10_R_20.png","img/250/equaldotanddens/L/5_Ratio_250_L_24_R_6.png","img/250/equaldotsize/L/15_Ratio_250_L_12_R_3.png","img/900/equaldotsize/L/8_Ratio_900_L_20_R_18.png","img/900/equaldotsize/R/7_Ratio_900_L_9_R_10.png","img/900/equaldotsize/R/15_Ratio_900_L_9_R_10.png","img/500/randomdotsizeEA/L/13_Ratio_500_L_12_R_6.png","img/500/equaldotsize/R/9_Ratio_500_L_2_R_4.png","img/500/equaldotanddens/R/14_Ratio_500_L_5_R_10.png","img/250/randomdotsizeEA/L/2_Ratio_250_L_16_R_4.png","img/750/equaldotsize/R/4_Ratio_750_L_15_R_20.png","img/500/equaldotsize/R/9_Ratio_500_L_2_R_4.png","img/750/equaldotsize/L/9_Ratio_750_L_4_R_3.png","img/250/equaldotsize/L/1_Ratio_250_L_8_R_2.png","img/750/randomdotsizeEA/R/5_Ratio_750_L_15_R_20.png","img/750/equaldotsize/R/11_Ratio_750_L_12_R_16.png","img/900/equaldotsize/L/10_Ratio_900_L_20_R_18.png","img/750/randomdotsizeEA/L/13_Ratio_750_L_8_R_6.png","img/250/equaldotsize/R/12_Ratio_250_L_5_R_20.png","img/500/equaldotanddens/L/4_Ratio_500_L_18_R_9.png","img/900/equaldotanddens/R/11_Ratio_900_L_18_R_20.png","img/500/randomdotsizeEA/L/11_Ratio_500_L_12_R_6.png","img/250/randomdotsizeEA/L/14_Ratio_250_L_12_R_3.png","img/500/randomdotsizeEA/R/3_Ratio_500_L_10_R_20.png","img/250/randomdotsizeEA/L/7_Ratio_250_L_8_R_2.png","img/750/randomdotsizeEA/L/1_Ratio_750_L_20_R_15.png","img/900/equaldotanddens/L/10_Ratio_900_L_20_R_18.png","img/250/equaldotanddens/R/4_Ratio_250_L_3_R_12.png","img/500/equaldotanddens/R/9_Ratio_500_L_2_R_4.png","img/750/equaldotsize/R/3_Ratio_750_L_15_R_20.png","img/250/randomdotsizeEA/L/15_Ratio_250_L_12_R_3.png","img/250/randomdotsizeEA/L/1_Ratio_250_L_8_R_2.png","img/750/equaldotsize/L/10_Ratio_750_L_4_R_3.png","img/750/randomdotsizeEA/R/12_Ratio_750_L_3_R_4.png","img/500/randomdotsizeEA/L/13_Ratio_500_L_12_R_6.png","img/500/randomdotsizeEA/R/12_Ratio_500_L_1_R_2.png","img/500/equaldotsize/L/13_Ratio_500_L_12_R_6.png","img/900/equaldotsize/R/13_Ratio_900_L_18_R_20.png","img/250/randomdotsizeEA/R/12_Ratio_250_L_5_R_20.png","img/750/equaldotanddens/R/5_Ratio_750_L_15_R_20.png","img/250/equaldotanddens/L/2_Ratio_250_L_16_R_4.png","img/250/equaldotanddens/R/13_Ratio_250_L_2_R_8.png","img/750/equaldotsize/L/6_Ratio_750_L_24_R_18.png","img/250/equaldotsize/R/4_Ratio_250_L_3_R_12.png","img/250/equaldotanddens/L/7_Ratio_250_L_8_R_2.png","img/750/randomdotsizeEA/R/2_Ratio_750_L_6_R_8.png","img/250/randomdotsizeEA/L/5_Ratio_250_L_24_R_6.png","img/900/randomdotsizeEA/L/10_Ratio_900_L_20_R_18.png","img/900/randomdotsizeEA/L/1_Ratio_900_L_10_R_9.png","img/900/equaldotsize/R/15_Ratio_900_L_9_R_10.png","img/500/randomdotsizeEA/L/11_Ratio_500_L_12_R_6.png","img/250/equaldotsize/L/3_Ratio_250_L_8_R_2.png","img/500/equaldotsize/L/10_Ratio_500_L_4_R_2.png","img/500/equaldotsize/R/9_Ratio_500_L_2_R_4.png","img/500/equaldotanddens/L/4_Ratio_500_L_18_R_9.png","img/500/equaldotsize/L/4_Ratio_500_L_18_R_9.png","img/900/equaldotsize/R/11_Ratio_900_L_18_R_20.png","img/250/equaldotsize/L/1_Ratio_250_L_8_R_2.png","img/750/equaldotsize/R/11_Ratio_750_L_12_R_16.png","img/900/equaldotanddens/L/4_Ratio_900_L_20_R_18.png","img/250/equaldotanddens/R/12_Ratio_250_L_5_R_20.png","img/750/equaldotanddens/L/8_Ratio_750_L_4_R_3.png","img/900/randomdotsizeEA/L/10_Ratio_900_L_20_R_18.png","img/750/equaldotanddens/L/9_Ratio_750_L_4_R_3.png","img/750/equaldotanddens/R/5_Ratio_750_L_15_R_20.png","img/250/equaldotanddens/L/1_Ratio_250_L_8_R_2.png","img/500/equaldotsize/R/3_Ratio_500_L_10_R_20.png","img/500/equaldotsize/L/10_Ratio_500_L_4_R_2.png","img/750/randomdotsizeEA/L/13_Ratio_750_L_8_R_6.png","img/750/equaldotanddens/L/13_Ratio_750_L_8_R_6.png","img/250/equaldotsize/L/7_Ratio_250_L_8_R_2.png","img/250/randomdotsizeEA/L/14_Ratio_250_L_12_R_3.png","img/900/randomdotsizeEA/L/1_Ratio_900_L_10_R_9.png","img/750/randomdotsizeEA/L/8_Ratio_750_L_4_R_3.png","img/750/equaldotsize/L/14_Ratio_750_L_8_R_6.png","img/250/equaldotanddens/R/6_Ratio_250_L_6_R_24.png","img/900/randomdotsizeEA/R/3_Ratio_900_L_9_R_10.png","img/500/equaldotanddens/R/14_Ratio_500_L_5_R_10.png","img/500/equaldotsize/R/15_Ratio_500_L_1_R_2.png","img/500/equaldotanddens/L/8_Ratio_500_L_8_R_4.png","img/500/equaldotanddens/L/5_Ratio_500_L_4_R_2.png","img/750/randomdotsizeEA/L/14_Ratio_750_L_8_R_6.png","img/900/equaldotanddens/R/6_Ratio_900_L_9_R_10.png","img/750/equaldotanddens/L/13_Ratio_750_L_8_R_6.png","img/900/equaldotanddens/L/10_Ratio_900_L_20_R_18.png","img/750/equaldotsize/R/4_Ratio_750_L_15_R_20.png","img/900/equaldotsize/R/7_Ratio_900_L_9_R_10.png","img/750/equaldotanddens/R/11_Ratio_750_L_12_R_16.png","img/250/randomdotsizeEA/L/5_Ratio_250_L_24_R_6.png","img/750/equaldotsize/R/4_Ratio_750_L_15_R_20.png","img/750/randomdotsizeEA/R/15_Ratio_750_L_9_R_12.png","img/900/randomdotsizeEA/L/2_Ratio_900_L_20_R_18.png","img/250/equaldotsize/R/10_Ratio_250_L_4_R_16.png","img/900/equaldotanddens/R/7_Ratio_900_L_9_R_10.png","img/900/randomdotsizeEA/R/6_Ratio_900_L_9_R_10.png","img/250/equaldotanddens/L/3_Ratio_250_L_8_R_2.png","img/900/equaldotanddens/L/1_Ratio_900_L_10_R_9.png","img/900/randomdotsizeEA/L/10_Ratio_900_L_20_R_18.png","img/750/equaldotanddens/L/6_Ratio_750_L_24_R_18.png","img/500/equaldotanddens/L/8_Ratio_500_L_8_R_4.png","img/900/randomdotsizeEA/L/1_Ratio_900_L_10_R_9.png","img/250/equaldotsize/L/14_Ratio_250_L_12_R_3.png","img/900/equaldotsize/L/4_Ratio_900_L_20_R_18.png","img/900/equaldotsize/R/5_Ratio_900_L_9_R_10.png","img/500/randomdotsizeEA/R/6_Ratio_500_L_9_R_18.png","img/750/randomdotsizeEA/R/7_Ratio_750_L_3_R_4.png","img/900/equaldotanddens/L/10_Ratio_900_L_20_R_18.png","img/900/equaldotanddens/L/1_Ratio_900_L_10_R_9.png","img/500/equaldotanddens/R/1_Ratio_500_L_9_R_18.png","img/500/randomdotsizeEA/R/9_Ratio_500_L_2_R_4.png","img/750/equaldotanddens/L/8_Ratio_750_L_4_R_3.png","img/250/equaldotanddens/R/10_Ratio_250_L_4_R_16.png","img/750/equaldotanddens/R/11_Ratio_750_L_12_R_16.png","img/250/randomdotsizeEA/L/14_Ratio_250_L_12_R_3.png"],"Rat0":[["12_Ratio_0_L_9_R_0.png","13_Ratio_0_L_6_R_0.png","5_Ratio_0_L_2_R_0.png","6_Ratio_0_L_4_R_0.png","8_Ratio_0_L_6_R_0.png"],["1_Ratio_0_L_0_R_17.png","10_Ratio_0_L_0_R_22.png","11_Ratio_0_L_0_R_1.png","14_Ratio_0_L_0_R_24.png","15_Ratio_0_L_0_R_4.png","2_Ratio_0_L_0_R_5.png","3_Ratio_0_L_0_R_17.png","4_Ratio_0_L_0_R_7.png","7_Ratio_0_L_0_R_19.png","9_Ratio_0_L_0_R_15.png"]],"Rat250":[["1_Ratio_250_L_8_R_2.png","14_Ratio_250_L_12_R_3.png","15_Ratio_250_L_12_R_3.png","2_Ratio_250_L_16_R_4.png","3_Ratio_250_L_8_R_2.png","5_Ratio_250_L_24_R_6.png","7_Ratio_250_L_8_R_2.png"],["10_Ratio_250_L_4_R_16.png","11_Ratio_250_L_3_R_12.png","12_Ratio_250_L_5_R_20.png","13_Ratio_250_L_2_R_8.png","4_Ratio_250_L_3_R_12.png","6_Ratio_250_L_6_R_24.png","8_Ratio_250_L_1_R_4.png","9_Ratio_250_L_3_R_12.png"]],"Rat500":[["10_Ratio_500_L_4_R_2.png","11_Ratio_500_L_12_R_6.png","13_Ratio_500_L_12_R_6.png","4_Ratio_500_L_18_R_9.png","5_Ratio_500_L_4_R_2.png","7_Ratio_500_L_10_R_5.png","8_Ratio_500_L_8_R_4.png"],["1_Ratio_500_L_9_R_18.png","12_Ratio_500_L_1_R_2.png","14_Ratio_500_L_5_R_10.png","15_Ratio_500_L_1_R_2.png","2_Ratio_500_L_3_R_6.png","3_Ratio_500_L_10_R_20.png","6_Ratio_500_L_9_R_18.png","9_Ratio_500_L_2_R_4.png"]],"Rat750":[["1_Ratio_750_L_20_R_15.png","10_Ratio_750_L_4_R_3.png","13_Ratio_750_L_8_R_6.png","14_Ratio_750_L_8_R_6.png","6_Ratio_750_L_24_R_18.png","8_Ratio_750_L_4_R_3.png","9_Ratio_750_L_4_R_3.png"],["11_Ratio_750_L_12_R_16.png","12_Ratio_750_L_3_R_4.png","15_Ratio_750_L_9_R_12.png","2_Ratio_750_L_6_R_8.png","3_Ratio_750_L_15_R_20.png","4_Ratio_750_L_15_R_20.png","5_Ratio_750_L_15_R_20.png","7_Ratio_750_L_3_R_4.png"]],"Rat900":[["1_Ratio_900_L_10_R_9.png","10_Ratio_900_L_20_R_18.png","2_Ratio_900_L_20_R_18.png","4_Ratio_900_L_20_R_18.png","8_Ratio_900_L_20_R_18.png"],["11_Ratio_900_L_18_R_20.png","12_Ratio_900_L_18_R_20.png","13_Ratio_900_L_18_R_20.png","14_Ratio_900_L_18_R_20.png","15_Ratio_900_L_9_R_10.png","3_Ratio_900_L_9_R_10.png","5_Ratio_900_L_9_R_10.png","6_Ratio_900_L_9_R_10.png","7_Ratio_900_L_9_R_10.png","9_Ratio_900_L_18_R_20.png"]],"Rat1000":[["10_Ratio_1000_L_16_R_16.png","11_Ratio_1000_L_6_R_6.png","12_Ratio_1000_L_14_R_14.png","13_Ratio_1000_L_20_R_20.png","15_Ratio_1000_L_15_R_15.png","2_Ratio_1000_L_17_R_17.png","4_Ratio_1000_L_9_R_9.png","5_Ratio_1000_L_6_R_6.png","6_Ratio_1000_L_19_R_19.png","8_Ratio_1000_L_14_R_14.png","9_Ratio_1000_L_25_R_25.png"],["1_Ratio_1000_L_1_R_1.png","14_Ratio_1000_L_17_R_17.png","3_Ratio_1000_L_17_R_17.png","7_Ratio_1000_L_6_R_6.png"]]}},{"start_time":1551900189268,"click_time":1551900190962,"finger_time":1551900190580,"fix_duration":1246.0485235869198,"trial":1,"RT":1312,"MT":382,"sideResp":2,"stimulus":"img/900/randomdotsizeEA/R/11_Ratio_900_L_18_R_20.png","xmouse":[776,776,776,776,776,776,776,776,776,776,776,776,776,776,776,776,776,776,776,776,776,776,776,776,776,776,776,776,776,776,776,776,776,776,776,776,776,776,776,776,776,776,776,776,776,776,776,776,776,776,776,776,776,776,776,776,776,776,777,778,782,787,800,812,827,849,897,925,949,976,1009,1028,1057,1070,1079,1089,1107,1112,1112,1112,1112,1112,1112,1113,1113],"ymouse":[522,522,522,522,522,522,522,522,522,522,522,522,522,522,522,522,522,522,522,522,522,522,522,522,522,522,522,522,522,522,522,522,522,522,522,522,522,522,522,522,522,522,522,522,522,522,522,522,522,522,522,522,522,522,522,522,522,522,522,522,522,522,516,508,497,484,438,401,366,327,280,256,221,200,178,156,127,120,119,119,119,119,119,108,94],"timestamp_mouse":[14,33,53,72,92,118,133,152,174,193,213,234,253,273,294,313,334,353,372,393,412,433,454,473,493,512,532,554,573,592,614,633,653,672,693,712,733,753,772,792,813,834,853,873,893,912,934,954,973,994,1012,1032,1054,1072,1092,1113,1134,1153,1174,1193,1213,1232,1253,1272,1293,1312,1334,1353,1374,1392,1412,1432,1453,1473,1494,1512,1534,1553,1574,1593,1613,1633,1653,1673,1694],"xSR":741.5,"ySR":469.95,"xT1":424.9,"yT1":0,"xT2":1058.1,"yT2":0,"toosoon":0,"cond_shown":"randomdotsizeEA","ratio_trial":900,"smaller_num":"18","larger_num":"20","correct_side":2,"subjID":"julianasofiavargasfranco2","gender":"1","age":"11","school":"6"},{"start_time":1551900194396,"click_time":1551900195542,"finger_time":1551900195261,"fix_duration":1073.1627935792733,"trial":2,"RT":865,"MT":281,"sideResp":1,"stimulus":"img/250/equaldotsize/L/1_Ratio_250_L_8_R_2.png","xmouse":[782,782,782,782,782,782,782,782,782,782,782,782,782,782,782,782,782,782,782,782,782,782,782,782,782,782,782,782,782,782,782,782,782,782,782,779,751,747,746,745,745,745,744,737,719,691,592,538,489,452,431,423,423,423,427,429,448,465],"ymouse":[519,519,519,519,519,519,519,519,519,519,519,519,519,519,519,519,519,519,519,519,519,519,519,519,519,519,519,519,519,519,519,519,519,519,519,516,501,500,499,498,497,496,495,487,465,430,339,290,244,199,167,150,149,144,137,128,101,91],"timestamp_mouse":[10,25,46,65,85,107,125,146,165,186,205,227,246,265,286,305,325,346,366,386,406,425,445,465,485,506,525,545,566,585,605,626,646,666,685,705,725,746,765,785,806,825,846,865,886,905,925,946,965,985,1005,1025,1045,1065,1085,1106,1125,1146],"xSR":741.5,"ySR":469.95,"xT1":424.9,"yT1":0,"xT2":1058.1,"yT2":0,"toosoon":0,"cond_shown":"equaldotsize","ratio_trial":250,"smaller_num":"2","larger_num":"8","correct_side":1,"subjID":"julianasofiavargasfranco2","gender":"1","age":"11","school":"6"},{"start_time":1551900196858,"click_time":1551900197862,"finger_time":1551900197522,"fix_duration":373.9420919981148,"trial":3,"RT":664,"MT":340,"sideResp":1,"stimulus":"img/500/equaldotanddens/L/13_Ratio_500_L_12_R_6.png","xmouse":[773,773,773,773,773,773,773,773,773,773,773,773,773,773,773,773,773,773,773,773,773,773,773,773,773,773,773,773,773,773,773,773,772,758,731,701,678,662,639,630,619,597,580,559,557,557,557,557,542,531,510],"ymouse":[529,529,529,529,529,529,529,529,529,529,529,529,529,529,529,529,529,529,529,529,529,529,529,529,529,529,529,529,529,529,529,529,529,442,371,315,282,264,239,222,197,138,104,77,75,75,75,75,52,37,18],"timestamp_mouse":[10,24,43,75,83,104,123,143,164,184,203,224,244,263,283,303,324,344,364,383,404,423,443,463,484,504,523,545,565,584,603,624,643,664,683,703,723,743,763,785,804,824,843,863,883,903,924,943,963,983,1003],"xSR":741.5,"ySR":469.95,"xT1":424.9,"yT1":0,"xT2":1058.1,"yT2":0,"toosoon":0,"cond_shown":"equaldotanddens","ratio_trial":500,"smaller_num":"6","larger_num":"12","correct_side":1,"subjID":"julianasofiavargasfranco2","gender":"1","age":"11","school":"6"},{"start_time":1551900199104,"click_time":1551900200301,"finger_time":1551900200162,"fix_duration":382.6825239623395,"trial":4,"RT":1058,"MT":139,"sideResp":1,"stimulus":"img/500/randomdotsizeEA/R/6_Ratio_500_L_9_R_18.png","xmouse":[801,801,801,801,801,801,801,801,801,801,801,801,801,801,801,801,801,801,801,801,801,801,801,801,801,801,801,801,801,801,801,801,801,801,801,801,801,801,801,801,801,801,801,801,801,801,801,801,801,801,801,798,784,765,711,648,624,541,490,445],"ymouse":[501,498,498,498,498,498,498,498,497,497,497,497,497,497,497,497,497,493,492,492,492,492,492,492,492,492,492,492,492,492,492,492,492,492,492,492,492,492,492,492,492,492,492,492,492,492,492,492,492,492,492,482,462,445,398,335,307,199,126,65],"timestamp_mouse":[20,37,57,78,97,119,137,158,178,197,218,237,257,278,298,317,338,357,377,397,418,438,457,479,497,517,538,557,577,598,618,637,659,677,697,719,738,757,778,797,818,839,858,878,898,918,937,958,977,998,1018,1037,1058,1077,1099,1118,1138,1157,1177,1197],"xSR":741.5,"ySR":469.95,"xT1":424.9,"yT1":0,"xT2":1058.1,"yT2":0,"toosoon":0,"cond_shown":"randomdotsizeEA","ratio_trial":500,"smaller_num":"9","larger_num":"18","correct_side":2,"subjID":"julianasofiavargasfranco2","gender":"1","age":"11","school":"6"},{"start_time":1551900201607,"click_time":1551900203061,"finger_time":1551900202522,"fix_duration":524.3109147262641,"trial":5,"RT":915,"MT":539,"sideResp":1,"stimulus":"img/900/equaldotanddens/L/8_Ratio_900_L_20_R_18.png","xmouse":[802,802,802,802,802,802,802,802,802,802,802,802,802,802,802,802,802,802,802,802,802,802,803,803,803,803,803,803,803,803,803,803,803,803,803,803,803,803,803,803,803,803,803,804,816,858,871,875,875,875,875,875,875,875,875,875,872,868,859,829,810,789,755,733,704,633,600,570,551,542,532,527,519],"ymouse":[534,534,534,534,534,534,534,534,534,534,534,534,534,534,534,534,534,534,534,534,515,509,500,499,499,499,499,499,499,499,499,499,499,499,499,499,499,499,499,499,499,499,499,499,488,433,419,413,413,413,413,413,413,413,413,413,413,413,413,428,431,433,433,424,396,256,183,125,93,75,45,26,7],"timestamp_mouse":[14,35,55,75,95,115,134,155,174,195,214,234,255,274,295,315,334,354,374,394,414,435,454,475,495,514,535,555,575,595,615,635,656,674,694,714,735,755,775,794,814,836,855,875,894,915,935,954,975,994,1014,1035,1055,1074,1095,1114,1135,1155,1174,1196,1214,1234,1256,1275,1295,1314,1334,1355,1374,1394,1414,1435,1454],"xSR":741.5,"ySR":469.95,"xT1":424.9,"yT1":0,"xT2":1058.1,"yT2":0,"toosoon":0,"cond_shown":"equaldotanddens","ratio_trial":900,"smaller_num":"18","larger_num":"20","correct_side":1,"subjID":"julianasofiavargasfranco2","gender":"1","age":"11","school":"6"},{"start_time":1551900205137,"click_time":1551900206903,"finger_time":1551900206301,"fix_duration":1333.5966437664565,"trial":6,"RT":1164,"MT":602,"sideResp":2,"stimulus":"img/500/randomdotsizeEA/R/3_Ratio_500_L_10_R_20.png","xmouse":[790,790,790,790,790,790,790,790,790,790,790,790,790,790,790,790,790,790,790,790,790,790,790,790,790,790,790,790,790,790,790,790,790,790,790,790,790,790,790,790,790,790,790,790,790,790,790,790,790,790,790,790,790,790,790,790,790,790,793,790,786,785,785,785,785,785,785,786,786,789,790,790,794,798,809,822,878,925,973,1042,1054,1060,1062,1063,1065,1068,1078,1080,1093],"ymouse":[510,510,510,510,510,510,510,510,510,510,510,510,510,510,510,510,510,510,510,510,510,510,510,510,510,510,510,510,510,510,510,510,510,510,510,510,510,510,510,510,510,510,510,510,510,510,510,510,510,510,510,510,510,510,510,510,510,509,446,382,370,366,366,366,366,366,365,365,365,365,365,365,367,369,370,361,314,278,251,213,207,203,201,193,177,168,137,125,90],"timestamp_mouse":[9,25,45,65,85,105,126,144,164,185,205,224,244,265,286,305,324,344,366,386,405,424,445,465,486,505,525,544,564,585,606,624,646,664,685,705,724,745,766,784,804,825,844,864,886,905,926,944,965,986,1004,1024,1045,1066,1084,1105,1126,1145,1164,1184,1204,1224,1244,1266,1286,1305,1325,1345,1366,1384,1404,1424,1444,1465,1484,1504,1525,1545,1564,1584,1604,1624,1644,1666,1685,1705,1725,1744,1766],"xSR":741.5,"ySR":469.95,"xT1":424.9,"yT1":0,"xT2":1058.1,"yT2":0,"toosoon":0,"cond_shown":"randomdotsizeEA","ratio_trial":500,"smaller_num":"10","larger_num":"20","correct_side":2,"subjID":"julianasofiavargasfranco2","gender":"1","age":"11","school":"6"},{"start_time":1551900208433,"click_time":1551900209541,"finger_time":1551900209181,"fix_duration":888.3101065665214,"trial":7,"RT":748,"MT":360,"sideResp":1,"stimulus":"img/250/equaldotanddens/L/5_Ratio_250_L_24_R_6.png","xmouse":[795,795,795,795,795,795,795,795,795,795,795,795,795,795,795,795,795,795,795,795,795,795,795,795,795,795,795,795,795,795,795,795,795,795,795,786,773,730,680,596,569,539,531,512,492,484,479,477,476,477,480,481,481,481,469,461],"ymouse":[518,518,518,518,518,518,518,518,518,518,518,518,518,518,518,518,518,518,518,518,518,518,518,518,518,518,518,518,518,518,518,518,518,518,518,507,488,446,407,350,330,304,295,272,250,240,231,222,205,197,185,173,153,139,108,88],"timestamp_mouse":[9,29,49,68,93,108,129,148,168,188,209,230,250,269,289,308,329,348,369,388,410,428,448,470,489,509,529,550,568,588,608,629,649,669,688,708,728,748,768,788,809,829,849,868,888,909,928,948,970,989,1009,1028,1049,1068,1088,1108],"xSR":741.5,"ySR":469.95,"xT1":424.9,"yT1":0,"xT2":1058.1,"yT2":0,"toosoon":0,"cond_shown":"equaldotanddens","ratio_trial":250,"smaller_num":"6","larger_num":"24","correct_side":1,"subjID":"julianasofiavargasfranco2","gender":"1","age":"11","school":"6"},{"start_time":1551900210433,"click_time":1551900211441,"finger_time":1551900211121,"fix_duration":250,"trial":8,"RT":688,"MT":320,"sideResp":1,"stimulus":"img/250/equaldotsize/L/15_Ratio_250_L_12_R_3.png","xmouse":[782,782,782,782,782,782,782,782,782,782,782,782,782,782,782,782,782,782,782,782,782,782,782,782,782,782,782,782,782,782,782,782,781,765,735,731,731,731,731,731,731,726,705,683,613,579,558,543,526,525,522],"ymouse":[515,515,515,515,515,515,515,515,515,515,515,515,515,515,515,515,515,515,515,515,515,515,515,515,515,515,515,515,515,515,515,515,514,471,423,420,420,420,420,420,420,405,339,256,109,62,36,24,12,10,7],"timestamp_mouse":[8,28,49,68,88,108,129,150,168,189,208,229,248,268,289,309,328,349,369,390,409,429,449,470,489,508,529,549,569,588,609,628,648,668,688,709,728,749,768,788,810,828,848,868,888,908,928,948,970,988,1008],"xSR":741.5,"ySR":469.95,"xT1":424.9,"yT1":0,"xT2":1058.1,"yT2":0,"toosoon":0,"cond_shown":"equaldotsize","ratio_trial":250,"smaller_num":"3","larger_num":"12","correct_side":1,"subjID":"julianasofiavargasfranco2","gender":"1","age":"11","school":"6"},{"start_time":1551900213813,"click_time":1551900215003,"finger_time":1551900214721,"fix_duration":1490.1765708334217,"trial":9,"RT":908,"MT":282,"sideResp":2,"stimulus":"img/900/equaldotsize/L/8_Ratio_900_L_20_R_18.png","xmouse":[790,790,790,790,790,790,790,790,790,790,790,790,790,790,790,790,790,790,790,790,790,790,790,790,790,790,790,790,790,790,790,790,790,790,790,790,790,790,790,790,790,790,790,798,828,906,932,950,963,979,1019,1047,1085,1105,1116,1125,1126,1126,1123,1116],"ymouse":[537,537,537,537,537,537,537,537,537,537,537,537,537,537,537,537,537,537,537,537,537,537,537,537,537,537,537,537,537,537,537,537,537,537,537,537,537,537,537,537,537,537,537,531,512,464,450,439,429,413,353,307,245,215,198,175,159,139,116,76],"timestamp_mouse":[15,28,48,72,90,109,129,148,169,188,209,229,249,269,288,309,328,349,368,388,408,428,448,469,489,509,530,549,568,588,608,628,649,668,688,708,728,748,768,790,810,828,848,868,888,908,928,948,968,989,1008,1028,1048,1068,1088,1108,1128,1149,1169,1190],"xSR":741.5,"ySR":469.95,"xT1":424.9,"yT1":0,"xT2":1058.1,"yT2":0,"toosoon":0,"cond_shown":"equaldotsize","ratio_trial":900,"smaller_num":"18","larger_num":"20","correct_side":1,"subjID":"julianasofiavargasfranco2","gender":"1","age":"11","school":"6"},{"start_time":1551900216153,"click_time":1551900217582,"finger_time":1551900217201,"fix_duration":309.80439884376545,"trial":10,"RT":1048,"MT":381,"sideResp":2,"stimulus":"img/900/equaldotsize/R/7_Ratio_900_L_9_R_10.png","xmouse":[779,779,778,776,776,775,774,774,773,773,773,773,773,773,773,773,773,773,773,773,773,773,773,773,773,773,773,773,773,773,773,773,773,773,773,773,773,773,773,773,773,773,773,773,773,773,773,773,773,782,792,816,843,900,926,946,964,984,990,995,999,1001,1005,1015,1020,1032,1039,1048,1051,1054,1058,1061],"ymouse":[533,533,533,533,533,533,533,533,533,533,533,533,533,533,533,533,533,533,533,533,533,533,533,533,533,533,533,533,533,533,533,533,533,533,533,533,533,533,533,533,533,533,533,533,533,533,533,533,533,525,512,476,435,350,292,244,184,103,86,79,76,75,74,67,62,57,56,55,55,55,55,55],"timestamp_mouse":[9,28,48,82,89,108,128,150,169,188,209,228,248,269,289,308,328,349,370,389,409,429,448,468,488,508,528,548,570,589,610,630,649,669,690,708,729,750,768,789,809,829,849,868,889,909,928,949,968,988,1008,1028,1048,1068,1088,1108,1128,1149,1168,1188,1208,1229,1249,1268,1288,1308,1329,1350,1369,1388,1408,1429],"xSR":741.5,"ySR":469.95,"xT1":424.9,"yT1":0,"xT2":1058.1,"yT2":0,"toosoon":0,"cond_shown":"equaldotsize","ratio_trial":900,"smaller_num":"9","larger_num":"10","correct_side":2,"subjID":"julianasofiavargasfranco2","gender":"1","age":"11","school":"6"},{"start_time":1551900220033,"click_time":1551900221401,"finger_time":1551900221021,"fix_duration":330.592113388939,"trial":11,"RT":988,"MT":380,"sideResp":2,"stimulus":"img/900/equaldotsize/R/15_Ratio_900_L_9_R_10.png","xmouse":[808,808,808,808,808,808,808,808,808,808,808,808,808,808,808,808,808,808,808,808,808,808,808,808,808,808,808,808,808,808,808,808,808,808,808,808,808,808,808,808,808,808,808,808,808,808,808,808,811,834,847,863,894,918,966,979,986,991,995,1000,1006,1016,1021,1024,1029,1032,1038,1047,1059],"ymouse":[498,498,498,498,498,498,498,498,498,498,498,498,498,498,498,498,498,498,498,498,498,498,498,498,498,498,498,498,498,498,498,498,498,498,498,498,498,498,498,498,498,498,498,498,498,498,498,492,480,442,423,405,365,320,221,189,171,161,153,130,117,99,90,83,73,65,56,41,25],"timestamp_mouse":[15,31,49,69,88,108,129,149,169,188,209,228,248,269,288,308,328,348,368,388,409,428,449,468,489,509,528,548,568,588,610,629,649,670,689,708,728,748,769,789,809,828,850,868,889,908,930,948,968,988,1008,1028,1049,1068,1088,1109,1128,1148,1168,1188,1209,1228,1250,1270,1288,1308,1328,1348,1368],"xSR":741.5,"ySR":469.95,"xT1":424.9,"yT1":0,"xT2":1058.1,"yT2":0,"toosoon":0,"cond_shown":"equaldotsize","ratio_trial":900,"smaller_num":"9","larger_num":"10","correct_side":2,"subjID":"julianasofiavargasfranco2","gender":"1","age":"11","school":"6"},{"start_time":1551900224050,"click_time":1551900225503,"finger_time":1551900224981,"fix_duration":1087.3887382776418,"trial":12,"RT":931,"MT":522,"sideResp":1,"stimulus":"img/500/randomdotsizeEA/L/13_Ratio_500_L_12_R_6.png","xmouse":[776,776,776,776,776,776,776,776,776,776,776,776,776,776,776,776,776,776,776,776,776,776,776,776,776,776,776,776,776,776,776,776,776,776,776,776,776,776,776,776,775,774,772,770,768,763,752,712,692,675,665,661,661,661,661,661,661,661,661,661,661,661,661,661,661,653,643,604,571,562,545,519,504],"ymouse":[515,515,515,515,515,515,515,515,515,515,515,515,515,515,515,515,515,515,515,515,515,515,515,515,515,515,515,515,515,515,515,515,515,515,515,515,515,515,515,516,507,501,496,490,487,479,462,408,384,364,353,348,348,348,348,348,348,348,348,348,348,348,348,345,324,298,274,209,168,156,139,112,97],"timestamp_mouse":[11,31,52,71,92,112,131,151,171,191,213,233,251,271,293,311,332,351,371,392,411,433,452,471,492,512,531,552,572,591,611,631,652,672,691,712,733,752,772,792,811,832,851,871,891,912,931,953,971,991,1011,1032,1051,1071,1092,1111,1131,1153,1171,1191,1212,1232,1252,1271,1291,1312,1331,1353,1371,1392,1411,1431,1453],"xSR":741.5,"ySR":469.95,"xT1":424.9,"yT1":0,"xT2":1058.1,"yT2":0,"toosoon":0,"cond_shown":"randomdotsizeEA","ratio_trial":500,"smaller_num":"6","larger_num":"12","correct_side":1,"subjID":"julianasofiavargasfranco2","gender":"1","age":"11","school":"6"},{"start_time":1551900227194,"click_time":1551900228421,"finger_time":1551900228041,"fix_duration":952.695454058317,"trial":13,"RT":847,"MT":380,"sideResp":2,"stimulus":"img/500/equaldotsize/R/9_Ratio_500_L_2_R_4.png","xmouse":[780,780,780,780,780,780,780,780,780,780,780,780,780,780,780,780,780,780,780,780,780,780,780,780,780,780,780,780,780,780,780,780,780,780,780,780,780,780,780,780,783,825,885,955,1039,1078,1119,1125,1129,1130,1131,1135,1139,1145,1147,1156,1157,1157,1155,1151,1144,1144],"ymouse":[509,509,509,509,509,509,509,509,509,509,509,509,509,509,509,509,509,509,509,509,509,509,509,509,509,509,509,509,509,509,509,509,509,509,509,509,509,509,509,509,505,475,435,387,321,286,226,207,192,179,173,168,164,160,159,146,140,131,121,111,100,99],"timestamp_mouse":[10,29,48,67,87,107,128,147,168,187,207,227,247,267,288,308,327,348,368,387,408,428,448,467,487,507,529,547,568,588,608,627,648,667,688,708,727,748,768,788,808,827,847,867,888,907,927,948,967,990,1007,1027,1048,1067,1088,1109,1128,1147,1168,1187,1209,1227],"xSR":741.5,"ySR":469.95,"xT1":424.9,"yT1":0,"xT2":1058.1,"yT2":0,"toosoon":0,"cond_shown":"equaldotsize","ratio_trial":500,"smaller_num":"2","larger_num":"4","correct_side":2,"subjID":"julianasofiavargasfranco2","gender":"1","age":"11","school":"6"},{"start_time":1551900229733,"click_time":1551900230882,"finger_time":1551900230781,"fix_duration":250,"trial":14,"RT":1048,"MT":101,"sideResp":2,"stimulus":"img/500/equaldotanddens/R/14_Ratio_500_L_5_R_10.png","xmouse":[781,781,781,781,781,781,781,781,781,781,781,782,782,782,782,782,782,782,782,782,782,782,782,782,782,782,782,782,782,782,782,782,782,782,782,782,782,782,782,782,782,782,782,782,782,782,782,782,782,782,782,786,798,849,979,1043,1077,1097],"ymouse":[490,490,489,489,487,487,487,486,485,484,484,483,483,483,483,483,483,483,483,483,483,483,483,483,483,483,483,483,483,483,483,483,483,483,483,483,483,483,483,483,483,483,483,483,483,483,483,483,483,483,483,481,464,388,203,140,110,95],"timestamp_mouse":[10,28,57,69,88,108,128,149,169,188,210,229,249,269,289,308,329,348,369,388,408,428,448,468,488,510,529,549,570,589,608,628,649,669,690,708,729,749,769,790,810,829,849,870,888,909,929,948,968,989,1008,1029,1048,1070,1088,1108,1128,1149],"xSR":741.5,"ySR":469.95,"xT1":424.9,"yT1":0,"xT2":1058.1,"yT2":0,"toosoon":0,"cond_shown":"equaldotanddens","ratio_trial":500,"smaller_num":"5","larger_num":"10","correct_side":2,"subjID":"julianasofiavargasfranco2","gender":"1","age":"11","school":"6"},{"start_time":1551900232751,"click_time":1551900233821,"finger_time":1551900233561,"fix_duration":1207.2008530571152,"trial":15,"RT":810,"MT":260,"sideResp":1,"stimulus":"img/250/randomdotsizeEA/L/2_Ratio_250_L_16_R_4.png","xmouse":[767,767,767,767,767,767,767,767,767,767,767,767,767,767,767,767,767,767,767,767,767,767,767,767,767,767,767,767,767,767,767,766,765,764,764,762,761,759,755,752,749,745,742,742,742,739,728,683,654,626,599,573,547,516],"ymouse":[512,512,512,512,512,512,512,512,512,512,512,512,512,512,512,512,512,512,512,512,512,512,512,512,512,512,512,512,512,512,512,512,512,512,512,511,507,502,488,477,466,454,449,448,448,439,415,313,253,197,152,109,64,18],"timestamp_mouse":[11,30,65,71,91,110,130,151,171,190,211,231,250,271,292,311,330,350,371,390,410,430,452,470,491,511,530,550,570,591,610,630,651,671,690,710,730,750,771,790,810,832,850,870,890,910,930,951,970,990,1010,1030,1050,1070],"xSR":741.5,"ySR":469.95,"xT1":424.9,"yT1":0,"xT2":1058.1,"yT2":0,"toosoon":0,"cond_shown":"randomdotsizeEA","ratio_trial":250,"smaller_num":"4","larger_num":"16","correct_side":1,"subjID":"julianasofiavargasfranco2","gender":"1","age":"11","school":"6"},{"start_time":1551900235644,"click_time":1551900236603,"finger_time":1551900236381,"fix_duration":1222.5138649876512,"trial":16,"RT":737,"MT":222,"sideResp":2,"stimulus":"img/750/equaldotsize/R/4_Ratio_750_L_15_R_20.png","xmouse":[777,777,777,777,777,777,777,777,777,777,777,777,777,777,777,777,777,777,777,777,777,777,777,777,777,777,777,777,777,777,777,777,777,777,788,805,825,861,872,883,896,919,974,998,1015,1028,1039,1061],"ymouse":[507,507,507,507,507,507,507,507,507,507,507,507,507,507,507,507,507,507,507,507,507,507,507,507,507,507,507,507,507,507,507,507,507,508,494,476,458,421,405,388,369,334,250,207,169,137,112,74],"timestamp_mouse":[23,37,57,89,97,118,137,157,177,198,219,238,258,277,298,319,337,357,377,399,417,438,458,478,499,519,538,558,577,598,618,638,658,678,697,718,737,759,777,798,817,837,859,878,898,917,937,959],"xSR":741.5,"ySR":469.95,"xT1":424.9,"yT1":0,"xT2":1058.1,"yT2":0,"toosoon":0,"cond_shown":"equaldotsize","ratio_trial":750,"smaller_num":"15","larger_num":"20","correct_side":2,"subjID":"julianasofiavargasfranco2","gender":"1","age":"11","school":"6"},{"start_time":1551900239259,"click_time":1551900240481,"finger_time":1551900240061,"fix_duration":416.35130566422686,"trial":17,"RT":802,"MT":420,"sideResp":2,"stimulus":"img/500/equaldotsize/R/9_Ratio_500_L_2_R_4.png","xmouse":[798,798,798,798,798,798,798,798,798,798,798,798,798,798,798,798,798,798,798,798,798,798,798,798,798,798,798,798,798,798,798,798,798,798,798,798,798,798,812,830,869,932,972,1017,1025,1032,1036,1044,1044,1041,1035,1034,1032,1032,1032,1032,1032,1037,1041,1049,1058,1071],"ymouse":[524,524,524,524,524,524,524,524,524,524,524,524,524,524,524,524,524,524,524,524,524,524,524,524,524,524,524,524,524,524,524,524,524,524,524,524,524,524,509,484,432,365,331,292,282,270,254,208,183,163,143,140,133,131,129,125,123,115,112,107,102,95],"timestamp_mouse":[12,22,42,63,84,102,122,144,162,182,203,222,243,262,282,302,323,343,362,384,403,424,443,462,483,502,522,542,562,582,602,622,644,664,683,703,723,742,762,783,802,823,842,862,883,902,922,944,962,982,1002,1022,1044,1062,1083,1102,1122,1144,1162,1183,1202,1222],"xSR":741.5,"ySR":469.95,"xT1":424.9,"yT1":0,"xT2":1058.1,"yT2":0,"toosoon":0,"cond_shown":"equaldotsize","ratio_trial":500,"smaller_num":"2","larger_num":"4","correct_side":2,"subjID":"julianasofiavargasfranco2","gender":"1","age":"11","school":"6"},{"start_time":1551900242143,"click_time":1551900243182,"finger_time":1551900242881,"fix_duration":699.2642093862326,"trial":18,"RT":738,"MT":301,"sideResp":1,"stimulus":"img/750/equaldotsize/L/9_Ratio_750_L_4_R_3.png","xmouse":[798,798,798,798,798,798,798,798,798,798,798,798,798,798,798,798,798,798,798,798,798,798,798,798,798,798,798,798,798,798,798,798,798,798,798,794,776,763,738,732,727,723,719,705,692,686,662,650,606,577,548,513],"ymouse":[481,481,481,481,481,481,481,481,481,481,481,481,481,481,481,481,481,481,481,481,481,481,481,481,481,481,481,481,481,481,481,481,481,481,481,474,448,430,405,401,396,390,381,350,314,299,257,234,144,105,78,55],"timestamp_mouse":[24,44,59,78,99,120,138,159,179,199,219,239,259,278,299,318,340,359,378,399,420,439,458,479,498,520,539,558,579,599,618,638,658,679,700,718,738,759,778,798,818,838,858,878,898,918,938,958,978,998,1018,1039],"xSR":741.5,"ySR":469.95,"xT1":424.9,"yT1":0,"xT2":1058.1,"yT2":0,"toosoon":0,"cond_shown":"equaldotsize","ratio_trial":750,"smaller_num":"3","larger_num":"4","correct_side":1,"subjID":"julianasofiavargasfranco2","gender":"1","age":"11","school":"6"},{"start_time":1551900244425,"click_time":1551900245304,"finger_time":1551900245002,"fix_duration":521.3126078932396,"trial":19,"RT":577,"MT":302,"sideResp":1,"stimulus":"img/250/equaldotsize/L/1_Ratio_250_L_8_R_2.png","xmouse":[813,813,813,813,813,813,813,813,813,813,813,813,813,813,813,813,813,813,813,813,813,813,813,813,813,813,804,789,723,688,659,630,613,601,588,586,585,585,584,583,574,564,553,504],"ymouse":[543,543,543,543,543,543,543,543,543,543,543,543,543,543,543,543,543,543,543,543,543,543,543,543,543,543,517,498,407,362,327,287,256,235,215,213,211,208,202,178,145,127,113,76],"timestamp_mouse":[32,36,56,77,97,116,138,157,177,197,217,236,257,276,297,317,338,357,377,396,418,438,456,477,497,517,536,557,577,598,617,636,657,676,696,716,736,756,777,796,816,838,858,878],"xSR":741.5,"ySR":469.95,"xT1":424.9,"yT1":0,"xT2":1058.1,"yT2":0,"toosoon":0,"cond_shown":"equaldotsize","ratio_trial":250,"smaller_num":"2","larger_num":"8","correct_side":1,"subjID":"julianasofiavargasfranco2","gender":"1","age":"11","school":"6"},{"start_time":1551900246254,"click_time":1551900247361,"finger_time":1551900247042,"fix_duration":250,"trial":20,"RT":788,"MT":319,"sideResp":2,"stimulus":"img/750/randomdotsizeEA/R/5_Ratio_750_L_15_R_20.png","xmouse":[792,792,792,792,792,792,791,790,790,790,790,790,790,790,790,790,790,790,790,790,790,790,790,790,790,790,790,790,790,790,790,790,790,790,790,790,790,790,791,827,861,892,912,923,925,927,934,951,1000,1030,1051,1067,1074,1094,1105,1117],"ymouse":[497,497,497,497,497,497,497,497,497,497,497,497,497,497,497,497,497,497,497,497,497,497,497,497,497,497,497,497,497,497,497,497,497,497,497,497,497,497,491,427,371,324,296,280,276,273,261,238,188,162,145,133,127,112,101,85],"timestamp_mouse":[7,28,47,77,87,107,129,147,168,187,207,228,248,268,287,307,327,347,368,388,407,427,448,469,488,508,529,548,568,588,607,628,647,668,689,708,728,747,767,788,807,827,847,867,889,909,927,947,967,988,1007,1027,1048,1067,1087,1107],"xSR":741.5,"ySR":469.95,"xT1":424.9,"yT1":0,"xT2":1058.1,"yT2":0,"toosoon":0,"cond_shown":"randomdotsizeEA","ratio_trial":750,"smaller_num":"15","larger_num":"20","correct_side":2,"subjID":"julianasofiavargasfranco2","gender":"1","age":"11","school":"6"},{"start_time":1551900248729,"click_time":1551900249482,"finger_time":1551900249342,"fix_duration":387.13592944661326,"trial":21,"RT":613,"MT":140,"sideResp":2,"stimulus":"img/750/equaldotsize/R/11_Ratio_750_L_12_R_16.png","xmouse":[790,790,790,790,790,790,790,790,790,790,790,790,790,790,790,790,790,790,790,790,790,790,790,790,790,790,790,790,790,793,823,870,927,1027,1062,1082,1089,1091],"ymouse":[520,520,520,520,520,520,520,520,520,520,520,520,520,520,520,520,520,520,520,520,520,520,520,520,520,520,520,520,520,514,450,375,300,202,172,142,121,88],"timestamp_mouse":[12,32,52,73,93,113,132,152,173,193,214,232,253,273,292,312,332,352,372,392,413,433,452,472,494,513,533,553,574,594,613,633,653,673,692,713,732,752],"xSR":741.5,"ySR":469.95,"xT1":424.9,"yT1":0,"xT2":1058.1,"yT2":0,"toosoon":0,"cond_shown":"equaldotsize","ratio_trial":750,"smaller_num":"12","larger_num":"16","correct_side":2,"subjID":"julianasofiavargasfranco2","gender":"1","age":"11","school":"6"},{"start_time":1551900250765,"click_time":1551900252401,"finger_time":1551900251621,"fix_duration":401.09002754050925,"trial":22,"RT":856,"MT":780,"sideResp":1,"stimulus":"img/900/equaldotsize/L/10_Ratio_900_L_20_R_18.png","xmouse":[778,778,778,778,778,778,778,778,778,778,778,778,778,778,778,778,778,778,778,778,778,778,778,778,778,778,778,778,778,778,778,778,778,778,778,780,788,810,821,826,830,840,890,956,973,1006,1021,1021,1021,1021,1021,1021,1021,1021,1021,1020,1015,975,950,925,909,898,884,880,871,862,849,817,799,783,768,745,735,728,722,712,701,657,619,579,545,514],"ymouse":[530,530,532,532,533,533,533,533,533,533,533,533,533,533,533,533,533,533,533,533,533,533,533,533,533,533,533,533,533,533,533,533,533,533,533,532,526,515,510,508,505,498,449,391,377,345,332,331,331,331,331,331,331,331,331,331,335,382,402,418,427,430,433,434,434,434,428,404,389,369,351,318,302,292,284,270,254,198,165,129,102,79],"timestamp_mouse":[17,37,71,77,96,117,138,156,176,196,216,238,257,276,296,316,337,357,377,397,418,437,456,476,497,517,537,556,576,597,616,636,657,677,697,716,736,756,776,796,816,836,856,876,896,916,938,956,976,996,1016,1037,1057,1076,1096,1117,1136,1157,1176,1196,1218,1237,1256,1276,1296,1318,1336,1356,1376,1396,1417,1438,1456,1478,1496,1516,1537,1556,1577,1598,1617,1636],"xSR":741.5,"ySR":469.95,"xT1":424.9,"yT1":0,"xT2":1058.1,"yT2":0,"toosoon":0,"cond_shown":"equaldotsize","ratio_trial":900,"smaller_num":"18","larger_num":"20","correct_side":1,"subjID":"julianasofiavargasfranco2","gender":"1","age":"11","school":"6"},{"start_time":1551900254362,"click_time":1551900255501,"finger_time":1551900255261,"fix_duration":1340.740421801573,"trial":23,"RT":899,"MT":240,"sideResp":1,"stimulus":"img/750/randomdotsizeEA/L/13_Ratio_750_L_8_R_6.png","xmouse":[814,814,814,814,814,814,814,814,814,814,814,814,814,814,811,808,807,807,807,807,807,807,807,807,807,807,807,807,807,807,807,807,807,807,807,807,807,807,807,807,807,805,792,780,757,747,733,682,651,629,611,598,582,575,564,533,496],"ymouse":[532,532,532,532,532,532,532,532,532,532,532,532,532,532,532,531,531,531,531,531,531,531,531,531,531,531,531,531,531,531,531,531,531,531,531,531,531,531,531,531,531,530,506,486,456,439,414,293,222,171,137,117,97,86,70,30,1],"timestamp_mouse":[22,40,64,79,100,119,140,160,179,200,219,240,260,279,299,320,339,360,380,400,419,440,460,480,499,520,541,560,580,599,620,640,660,680,699,719,740,760,779,800,819,840,859,880,899,920,941,960,981,1000,1021,1040,1059,1080,1099,1120,1139],"xSR":741.5,"ySR":469.95,"xT1":424.9,"yT1":0,"xT2":1058.1,"yT2":0,"toosoon":0,"cond_shown":"randomdotsizeEA","ratio_trial":750,"smaller_num":"6","larger_num":"8","correct_side":1,"subjID":"julianasofiavargasfranco2","gender":"1","age":"11","school":"6"},{"start_time":1551900257063,"click_time":1551900257842,"finger_time":1551900257682,"fix_duration":739.1368512953924,"trial":24,"RT":619,"MT":160,"sideResp":2,"stimulus":"img/250/equaldotsize/R/12_Ratio_250_L_5_R_20.png","xmouse":[789,789,789,789,789,789,789,789,789,789,789,789,789,789,789,789,789,789,789,789,789,789,789,789,789,789,789,789,789,803,870,935,1037,1062,1074,1083,1090,1100,1111],"ymouse":[529,529,529,529,529,529,529,529,529,529,529,529,529,529,529,529,529,529,529,529,529,529,529,529,529,529,529,529,529,511,441,368,256,229,209,191,174,133,96],"timestamp_mouse":[18,39,71,79,98,119,138,158,178,198,218,238,258,279,298,318,339,358,378,399,418,438,460,478,499,518,538,559,579,599,619,638,659,678,699,718,739,758,779],"xSR":741.5,"ySR":469.95,"xT1":424.9,"yT1":0,"xT2":1058.1,"yT2":0,"toosoon":0,"cond_shown":"equaldotsize","ratio_trial":250,"smaller_num":"5","larger_num":"20","correct_side":2,"subjID":"julianasofiavargasfranco2","gender":"1","age":"11","school":"6"},{"start_time":1551900259920,"click_time":1551900260804,"finger_time":1551900260481,"fix_duration":1216.2173390833398,"trial":25,"RT":561,"MT":323,"sideResp":1,"stimulus":"img/500/equaldotanddens/L/4_Ratio_500_L_18_R_9.png","xmouse":[796,796,796,796,796,796,796,796,796,796,796,796,796,796,796,796,796,796,796,796,796,796,796,796,796,796,796,789,762,690,651,615,576,541,503,443,421,406,395,391,391,395,398,404,426],"ymouse":[517,517,517,517,517,517,517,517,517,517,517,517,517,517,517,517,517,517,517,517,517,517,517,517,517,517,517,506,454,352,309,266,227,189,150,107,91,77,55,25,16,11,8,7,7],"timestamp_mouse":[10,21,41,66,82,101,121,142,161,182,201,222,241,261,282,301,321,342,362,381,402,421,441,462,482,502,521,542,561,583,601,621,641,662,682,701,722,741,761,783,801,822,841,861,883],"xSR":741.5,"ySR":469.95,"xT1":424.9,"yT1":0,"xT2":1058.1,"yT2":0,"toosoon":0,"cond_shown":"equaldotanddens","ratio_trial":500,"smaller_num":"9","larger_num":"18","correct_side":1,"subjID":"julianasofiavargasfranco2","gender":"1","age":"11","school":"6"},{"start_time":1551900262908,"click_time":1551900263922,"finger_time":1551900263661,"fix_duration":1265.0947093699172,"trial":26,"RT":753,"MT":261,"sideResp":2,"stimulus":"img/900/equaldotanddens/R/11_Ratio_900_L_18_R_20.png","xmouse":[778,778,778,778,778,778,778,778,778,778,778,778,778,778,778,778,778,778,778,778,778,778,778,778,778,778,778,778,778,778,778,778,778,778,778,781,789,804,825,832,854,870,893,922,958,1010,1031,1038,1044,1050,1085],"ymouse":[498,498,498,498,498,498,498,498,498,498,498,498,498,498,498,498,498,498,498,498,498,498,498,498,498,498,498,498,498,498,498,498,498,498,498,496,477,442,400,383,345,314,270,221,174,113,100,97,95,91,69],"timestamp_mouse":[13,33,54,83,94,113,134,153,174,193,213,233,254,274,294,313,334,353,375,394,414,435,453,473,494,514,534,553,574,594,613,633,654,673,694,713,734,753,774,793,814,833,853,873,894,913,933,954,974,994,1013],"xSR":741.5,"ySR":469.95,"xT1":424.9,"yT1":0,"xT2":1058.1,"yT2":0,"toosoon":0,"cond_shown":"equaldotanddens","ratio_trial":900,"smaller_num":"18","larger_num":"20","correct_side":2,"subjID":"julianasofiavargasfranco2","gender":"1","age":"11","school":"6"},{"start_time":1551900265699,"click_time":1551900266442,"finger_time":1551900266282,"fix_duration":1177.3531105759764,"trial":27,"RT":583,"MT":160,"sideResp":1,"stimulus":"img/500/randomdotsizeEA/L/11_Ratio_500_L_12_R_6.png","xmouse":[788,788,788,788,788,788,788,788,788,788,788,788,788,788,788,788,788,788,788,788,788,788,788,788,788,788,788,785,763,741,719,636,600,568,540,488,469,456],"ymouse":[509,509,509,509,509,509,509,509,509,509,509,509,509,509,509,509,509,509,509,509,509,509,509,509,509,509,509,509,473,447,424,356,328,297,260,165,115,62],"timestamp_mouse":[4,23,43,62,82,102,122,142,162,182,202,222,242,262,282,303,322,342,362,382,402,422,442,462,482,502,522,542,563,583,602,622,643,663,683,703,722,743],"xSR":741.5,"ySR":469.95,"xT1":424.9,"yT1":0,"xT2":1058.1,"yT2":0,"toosoon":0,"cond_shown":"randomdotsizeEA","ratio_trial":500,"smaller_num":"6","larger_num":"12","correct_side":1,"subjID":"julianasofiavargasfranco2","gender":"1","age":"11","school":"6"},{"start_time":1551900268759,"click_time":1551900269761,"finger_time":1551900269381,"fix_duration":1455.521447189075,"trial":28,"RT":622,"MT":380,"sideResp":1,"stimulus":"img/250/randomdotsizeEA/L/14_Ratio_250_L_12_R_3.png","xmouse":[780,780,780,780,780,780,780,780,780,780,780,780,780,780,780,780,780,780,780,780,780,780,780,780,780,780,780,780,780,780,780,772,729,698,657,609,590,568,560,551,544,539,539,539,539,539,539,539,539,535,522],"ymouse":[509,509,509,509,509,509,509,509,509,509,509,509,509,509,509,509,509,509,509,509,509,509,509,509,509,509,509,509,509,509,509,466,368,302,252,206,189,155,137,114,96,87,85,85,85,85,85,85,85,85,85],"timestamp_mouse":[15,30,42,62,83,103,123,142,162,183,203,223,243,262,282,301,322,343,362,384,403,422,442,462,482,502,523,542,562,583,603,622,644,662,682,703,723,744,762,782,802,822,843,862,882,902,923,942,962,982,1002],"xSR":741.5,"ySR":469.95,"xT1":424.9,"yT1":0,"xT2":1058.1,"yT2":0,"toosoon":0,"cond_shown":"randomdotsizeEA","ratio_trial":250,"smaller_num":"3","larger_num":"12","correct_side":1,"subjID":"julianasofiavargasfranco2","gender":"1","age":"11","school":"6"},{"start_time":1551900270893,"click_time":1551900271943,"finger_time":1551900271501,"fix_duration":250,"trial":29,"RT":608,"MT":442,"sideResp":2,"stimulus":"img/500/randomdotsizeEA/R/3_Ratio_500_L_10_R_20.png","xmouse":[772,772,772,772,772,772,772,772,772,772,772,772,772,772,772,772,772,772,772,772,772,772,772,772,772,772,772,772,783,805,839,940,1004,1071,1133,1161,1181,1188,1191,1196,1205,1208,1208,1208,1208,1208,1208,1207,1201,1192,1181,1161,1155],"ymouse":[528,528,528,528,528,528,528,528,528,528,528,528,528,528,528,528,528,528,528,528,528,528,528,528,528,528,528,528,514,490,458,387,338,283,228,185,123,104,95,86,72,58,50,46,43,43,43,43,43,44,45,45,45],"timestamp_mouse":[12,34,49,69,88,108,129,149,168,188,209,228,249,268,288,308,328,349,368,388,408,429,449,468,489,508,529,548,568,588,608,628,648,670,688,708,729,748,768,788,810,828,848,868,889,908,928,949,968,989,1009,1028,1049],"xSR":741.5,"ySR":469.95,"xT1":424.9,"yT1":0,"xT2":1058.1,"yT2":0,"toosoon":0,"cond_shown":"randomdotsizeEA","ratio_trial":500,"smaller_num":"10","larger_num":"20","correct_side":2,"subjID":"julianasofiavargasfranco2","gender":"1","age":"11","school":"6"},{"start_time":1551900273682,"click_time":1551900274521,"finger_time":1551900274241,"fix_duration":860.34022501384,"trial":30,"RT":559,"MT":280,"sideResp":1,"stimulus":"img/250/randomdotsizeEA/L/7_Ratio_250_L_8_R_2.png","xmouse":[792,792,792,792,792,792,792,792,792,792,792,792,792,792,792,792,792,792,792,792,792,792,792,792,792,790,783,771,767,753,723,702,670,633,605,567,551,538,527,511,489,478],"ymouse":[520,520,520,520,520,520,520,520,520,520,520,520,520,520,520,520,520,520,520,520,520,520,520,520,520,516,481,451,444,419,376,350,318,287,268,240,226,212,194,161,114,96],"timestamp_mouse":[19,50,60,79,100,119,139,160,179,199,219,239,260,280,300,321,340,359,379,399,420,439,459,480,499,520,539,559,579,600,621,639,659,679,700,721,739,761,779,799,820,839],"xSR":741.5,"ySR":469.95,"xT1":424.9,"yT1":0,"xT2":1058.1,"yT2":0,"toosoon":0,"cond_shown":"randomdotsizeEA","ratio_trial":250,"smaller_num":"2","larger_num":"8","correct_side":1,"subjID":"julianasofiavargasfranco2","gender":"1","age":"11","school":"6"},{"start_time":1551900276395,"click_time":1551900277221,"finger_time":1551900277041,"fix_duration":1011.5752980534633,"trial":31,"RT":646,"MT":180,"sideResp":1,"stimulus":"img/750/randomdotsizeEA/L/1_Ratio_750_L_20_R_15.png","xmouse":[792,792,792,792,792,792,792,792,792,792,792,792,792,792,792,792,792,792,792,792,792,792,792,792,792,792,792,792,792,792,792,773,741,690,656,611,590,571,555,541,515,504],"ymouse":[521,521,521,521,521,521,521,521,521,521,521,521,521,521,521,521,521,521,521,521,521,521,521,521,521,521,521,521,521,521,521,480,415,341,305,258,227,193,166,142,106,92],"timestamp_mouse":[9,27,46,72,87,106,127,147,167,186,206,227,247,266,286,307,326,347,367,386,406,427,447,466,486,506,526,547,567,587,606,626,646,666,686,707,726,747,766,787,807,826],"xSR":741.5,"ySR":469.95,"xT1":424.9,"yT1":0,"xT2":1058.1,"yT2":0,"toosoon":0,"cond_shown":"randomdotsizeEA","ratio_trial":750,"smaller_num":"15","larger_num":"20","correct_side":1,"subjID":"julianasofiavargasfranco2","gender":"1","age":"11","school":"6"},{"start_time":1551900278818,"click_time":1551900280641,"finger_time":1551900280041,"fix_duration":876.2266645051423,"trial":32,"RT":1223,"MT":600,"sideResp":2,"stimulus":"img/900/equaldotanddens/L/10_Ratio_900_L_20_R_18.png","xmouse":[777,777,777,777,777,777,777,777,777,777,777,777,777,777,777,777,777,777,777,777,777,777,777,777,777,777,777,777,777,777,777,777,777,777,777,777,777,777,777,777,777,777,777,777,778,778,778,778,778,778,778,778,778,779,780,780,780,780,780,780,784,842,911,988,1054,1154,1184,1196,1198,1198,1198,1199,1200,1200,1200,1200,1200,1200,1195,1195,1177,1176,1176,1176,1176,1176,1176,1176,1176,1175,1161,1127],"ymouse":[531,531,531,531,531,531,531,531,531,531,531,531,531,531,531,531,531,531,531,531,531,531,531,531,531,531,531,531,531,531,531,531,531,531,531,531,529,528,528,528,528,528,527,525,523,523,523,523,523,523,523,523,521,519,518,518,518,518,517,517,513,468,418,352,290,172,112,77,58,47,46,45,42,39,35,35,35,35,37,37,47,47,47,47,47,47,47,47,47,48,54,65],"timestamp_mouse":[5,24,44,64,83,103,123,143,163,183,203,223,244,263,283,303,323,343,363,383,403,423,444,463,483,503,524,543,563,583,603,623,643,663,683,703,724,743,763,783,803,823,843,863,883,903,924,944,963,983,1004,1023,1043,1064,1084,1104,1123,1143,1164,1183,1203,1223,1243,1264,1283,1304,1323,1343,1364,1383,1404,1423,1444,1463,1483,1503,1523,1543,1563,1584,1603,1623,1644,1664,1684,1703,1724,1743,1763,1784,1804,1823],"xSR":741.5,"ySR":469.95,"xT1":424.9,"yT1":0,"xT2":1058.1,"yT2":0,"toosoon":0,"cond_shown":"equaldotanddens","ratio_trial":900,"smaller_num":"18","larger_num":"20","correct_side":1,"subjID":"julianasofiavargasfranco2","gender":"1","age":"11","school":"6"},{"start_time":1551900282752,"click_time":1551900283622,"finger_time":1551900283282,"fix_duration":1048.5836052278776,"trial":33,"RT":530,"MT":340,"sideResp":2,"stimulus":"img/250/equaldotanddens/R/4_Ratio_250_L_3_R_12.png","xmouse":[790,789,789,789,789,789,789,789,789,789,789,789,789,789,789,789,789,789,789,789,789,789,789,789,789,788,802,856,890,915,941,966,1012,1022,1030,1033,1034,1036,1036,1036,1036,1036,1036,1059],"ymouse":[498,498,498,498,498,498,498,498,498,498,498,498,498,498,498,498,498,498,498,498,498,498,498,498,498,496,468,370,317,262,210,151,50,27,8,3,2,0,0,0,0,0,0,3],"timestamp_mouse":[9,29,50,70,89,109,130,149,169,189,209,229,249,269,289,310,329,349,369,389,409,430,450,469,491,509,530,551,569,589,610,629,651,669,689,709,729,749,769,790,808,828,848,869],"xSR":741.5,"ySR":469.95,"xT1":424.9,"yT1":0,"xT2":1058.1,"yT2":0,"toosoon":0,"cond_shown":"equaldotanddens","ratio_trial":250,"smaller_num":"3","larger_num":"12","correct_side":2,"subjID":"julianasofiavargasfranco2","gender":"1","age":"11","school":"6"},{"start_time":1551900285315,"click_time":1551900286142,"finger_time":1551900285882,"fix_duration":952.8054934137932,"trial":34,"RT":567,"MT":260,"sideResp":2,"stimulus":"img/500/equaldotanddens/R/9_Ratio_500_L_2_R_4.png","xmouse":[779,779,779,779,779,779,779,779,779,779,779,779,779,779,779,779,779,779,779,779,779,779,779,779,779,779,791,823,865,925,1035,1075,1102,1121,1134,1149,1154,1158,1159,1161,1161,1155],"ymouse":[514,514,514,514,514,514,514,514,514,514,514,514,514,514,514,514,514,514,514,514,514,514,514,514,514,514,503,480,449,406,326,286,252,222,200,163,149,130,115,81,63,47],"timestamp_mouse":[7,26,46,66,87,106,126,146,166,186,206,227,246,266,286,306,327,346,366,386,406,426,446,466,486,506,527,547,567,586,606,626,646,667,686,706,727,746,767,788,806,827],"xSR":741.5,"ySR":469.95,"xT1":424.9,"yT1":0,"xT2":1058.1,"yT2":0,"toosoon":0,"cond_shown":"equaldotanddens","ratio_trial":500,"smaller_num":"2","larger_num":"4","correct_side":2,"subjID":"julianasofiavargasfranco2","gender":"1","age":"11","school":"6"},{"start_time":1551900287472,"click_time":1551900289043,"finger_time":1551900288222,"fix_duration":410.6003054035908,"trial":35,"RT":750,"MT":821,"sideResp":2,"stimulus":"img/750/equaldotsize/R/3_Ratio_750_L_15_R_20.png","xmouse":[812,812,812,812,812,812,812,812,812,812,812,812,812,812,812,812,812,812,812,812,812,812,812,812,812,814,817,818,818,818,818,818,818,818,818,819,825,843,853,858,863,872,907,938,964,982,988,990,990,990,990,990,990,990,990,990,990,990,990,989,986,985,985,985,985,985,985,985,985,986,1005,1027,1063,1068,1068,1068,1068,1065,1064],"ymouse":[506,506,506,506,506,506,506,506,506,506,506,506,506,506,506,506,506,506,506,506,506,506,506,502,496,490,484,482,482,482,482,482,482,482,482,477,471,448,436,429,421,409,356,307,269,247,238,234,234,234,234,234,234,234,234,234,234,234,234,238,244,245,245,245,245,245,245,245,245,245,219,180,126,117,111,109,105,100,96],"timestamp_mouse":[10,30,50,69,89,109,129,149,169,189,209,229,249,269,289,310,329,349,369,389,409,429,449,469,490,509,529,550,570,589,609,629,649,669,689,710,730,750,769,790,809,829,849,869,889,909,929,949,970,989,1009,1029,1049,1069,1089,1109,1129,1149,1169,1190,1209,1229,1249,1269,1289,1309,1329,1349,1369,1388,1409,1429,1448,1470,1489,1510,1530,1549,1570],"xSR":741.5,"ySR":469.95,"xT1":424.9,"yT1":0,"xT2":1058.1,"yT2":0,"toosoon":0,"cond_shown":"equaldotsize","ratio_trial":750,"smaller_num":"15","larger_num":"20","correct_side":2,"subjID":"julianasofiavargasfranco2","gender":"1","age":"11","school":"6"},{"start_time":1551900290505,"click_time":1551900291562,"finger_time":1551900291142,"fix_duration":562.8291101941262,"trial":36,"RT":637,"MT":420,"sideResp":1,"stimulus":"img/250/randomdotsizeEA/L/15_Ratio_250_L_12_R_3.png","xmouse":[823,823,823,823,823,823,823,823,823,823,823,823,823,823,823,823,823,823,823,823,823,823,823,823,823,823,823,823,821,810,755,738,724,705,685,648,635,625,614,605,595,592,591,591,591,590,588,588,588,588,567,547,516],"ymouse":[510,510,510,510,510,510,510,510,510,510,510,510,510,510,510,510,510,510,510,510,510,510,510,510,510,510,510,510,511,511,495,485,472,447,414,330,297,274,253,231,198,183,164,145,134,126,121,121,121,121,114,109,99],"timestamp_mouse":[17,36,56,76,97,116,136,156,176,196,216,236,256,276,296,316,336,356,376,396,416,436,456,476,496,516,536,556,576,597,616,637,656,676,696,716,737,757,776,796,816,836,856,876,896,916,937,956,976,996,1016,1037,1057],"xSR":741.5,"ySR":469.95,"xT1":424.9,"yT1":0,"xT2":1058.1,"yT2":0,"toosoon":0,"cond_shown":"randomdotsizeEA","ratio_trial":250,"smaller_num":"3","larger_num":"12","correct_side":1,"subjID":"julianasofiavargasfranco2","gender":"1","age":"11","school":"6"},{"start_time":1551900293994,"click_time":1551900294662,"finger_time":1551900294542,"fix_duration":250,"trial":37,"RT":548,"MT":120,"sideResp":1,"stimulus":"img/250/randomdotsizeEA/L/1_Ratio_250_L_8_R_2.png","xmouse":[793,793,793,793,793,793,793,793,793,793,793,793,793,793,793,793,793,793,793,793,793,793,793,793,793,793,793,769,726,684,601,565,537,506],"ymouse":[512,512,512,512,512,512,512,512,512,512,512,512,512,512,512,512,512,512,512,512,512,512,512,512,512,512,512,451,376,301,191,146,100,47],"timestamp_mouse":[10,34,48,68,88,108,127,148,167,188,208,227,247,268,288,307,327,348,367,387,407,427,447,468,488,508,527,548,568,587,609,626,648,668],"xSR":741.5,"ySR":469.95,"xT1":424.9,"yT1":0,"xT2":1058.1,"yT2":0,"toosoon":0,"cond_shown":"randomdotsizeEA","ratio_trial":250,"smaller_num":"2","larger_num":"8","correct_side":1,"subjID":"julianasofiavargasfranco2","gender":"1","age":"11","school":"6"},{"start_time":1551900296370,"click_time":1551900298003,"finger_time":1551900297142,"fix_duration":1108.6044665162626,"trial":38,"RT":772,"MT":861,"sideResp":1,"stimulus":"img/750/equaldotsize/L/10_Ratio_750_L_4_R_3.png","xmouse":[802,802,802,802,802,802,802,802,802,802,802,802,802,802,802,802,802,802,802,802,802,802,802,802,802,802,802,802,802,802,802,802,802,802,802,802,792,763,745,730,726,726,726,726,726,726,726,726,726,726,726,726,726,726,726,726,726,726,730,742,751,761,766,766,767,770,774,778,781,781,781,781,781,781,779,765,711,676,633,582,537,495],"ymouse":[513,513,513,513,513,513,513,513,513,513,513,513,513,513,513,513,513,513,513,513,513,513,513,513,513,513,513,513,513,513,513,513,513,513,513,513,504,480,467,459,457,457,457,457,457,457,457,457,457,457,457,457,457,457,457,457,457,457,464,476,485,492,494,494,495,497,503,510,513,513,513,513,513,513,505,480,394,335,260,184,128,88],"timestamp_mouse":[11,32,52,72,91,111,131,151,171,191,211,231,252,272,292,311,331,351,371,392,412,431,452,471,492,513,532,551,572,591,611,631,651,672,691,712,732,752,772,792,812,832,851,871,892,912,932,951,971,991,1011,1031,1052,1071,1092,1111,1132,1152,1172,1191,1211,1232,1251,1271,1291,1311,1331,1351,1372,1391,1411,1432,1451,1472,1491,1511,1532,1551,1571,1592,1612,1633],"xSR":741.5,"ySR":469.95,"xT1":424.9,"yT1":0,"xT2":1058.1,"yT2":0,"toosoon":0,"cond_shown":"equaldotsize","ratio_trial":750,"smaller_num":"3","larger_num":"4","correct_side":1,"subjID":"julianasofiavargasfranco2","gender":"1","age":"11","school":"6"},{"start_time":1551900299073,"click_time":1551900300001,"finger_time":1551900299762,"fix_duration":471.10479865013997,"trial":39,"RT":689,"MT":239,"sideResp":2,"stimulus":"img/750/randomdotsizeEA/R/12_Ratio_750_L_3_R_4.png","xmouse":[792,792,792,792,792,792,792,792,792,792,792,792,792,792,792,792,792,792,792,792,792,792,792,792,792,792,792,792,792,792,792,792,792,803,819,861,898,960,984,1000,1014,1026,1051,1071,1081,1089,1093],"ymouse":[514,514,514,514,514,514,514,514,514,514,514,514,514,514,514,514,514,514,514,514,514,514,514,514,514,514,514,514,514,514,514,514,514,486,462,413,372,319,299,282,259,235,183,147,122,103,89],"timestamp_mouse":[8,30,48,68,89,108,128,149,168,188,208,228,248,268,288,308,328,348,368,388,408,428,448,468,488,508,528,548,568,588,608,628,648,669,689,708,728,748,768,789,808,828,848,868,888,908,928],"xSR":741.5,"ySR":469.95,"xT1":424.9,"yT1":0,"xT2":1058.1,"yT2":0,"toosoon":0,"cond_shown":"randomdotsizeEA","ratio_trial":750,"smaller_num":"3","larger_num":"4","correct_side":2,"subjID":"julianasofiavargasfranco2","gender":"1","age":"11","school":"6"},{"start_time":1551900303953,"click_time":1551900304743,"finger_time":1551900304501,"fix_duration":1410.4142342790033,"trial":40,"RT":548,"MT":242,"sideResp":1,"stimulus":"img/500/randomdotsizeEA/L/13_Ratio_500_L_12_R_6.png","xmouse":[780,779,779,779,779,779,779,779,779,779,779,779,779,779,779,779,779,779,779,779,779,779,779,779,779,777,774,761,736,729,726,726,726,726,723,715,670,577,536,508],"ymouse":[511,511,511,511,511,511,511,511,511,511,511,511,511,511,511,511,511,511,511,511,511,511,511,511,511,510,500,465,404,392,386,386,386,386,381,365,271,115,60,28],"timestamp_mouse":[12,34,49,68,89,108,129,148,169,189,208,228,249,268,288,308,328,348,369,389,410,428,449,468,488,508,528,548,568,589,608,628,649,669,688,708,729,750,768,789],"xSR":741.5,"ySR":469.95,"xT1":424.9,"yT1":0,"xT2":1058.1,"yT2":0,"toosoon":0,"cond_shown":"randomdotsizeEA","ratio_trial":500,"smaller_num":"6","larger_num":"12","correct_side":1,"subjID":"julianasofiavargasfranco2","gender":"1","age":"11","school":"6"},{"start_time":1551900306013,"click_time":1551900307021,"finger_time":1551900306862,"fix_duration":450.6383015910291,"trial":41,"RT":849,"MT":159,"sideResp":2,"stimulus":"img/500/randomdotsizeEA/R/12_Ratio_500_L_1_R_2.png","xmouse":[805,805,805,805,805,805,805,805,805,805,805,805,805,805,805,805,805,805,805,805,805,805,805,805,805,805,805,805,805,805,805,805,805,805,805,805,805,805,805,805,806,812,832,842,861,873,891,928,981,1055,1074],"ymouse":[518,518,518,518,518,518,518,518,518,518,518,518,518,518,518,518,518,518,518,518,518,518,518,518,518,518,518,518,518,518,518,518,518,518,518,518,518,518,518,518,493,471,405,375,334,317,293,241,167,58,33],"timestamp_mouse":[9,37,49,69,88,108,129,148,168,189,208,229,248,269,289,309,329,349,370,388,408,429,449,468,488,508,529,548,568,588,609,628,649,670,688,708,728,749,768,788,808,829,849,868,890,908,928,948,968,990,1008],"xSR":741.5,"ySR":469.95,"xT1":424.9,"yT1":0,"xT2":1058.1,"yT2":0,"toosoon":0,"cond_shown":"randomdotsizeEA","ratio_trial":500,"smaller_num":"1","larger_num":"2","correct_side":2,"subjID":"julianasofiavargasfranco2","gender":"1","age":"11","school":"6"},{"start_time":1551900309207,"click_time":1551900309903,"finger_time":1551900309741,"fix_duration":1324.139422013801,"trial":42,"RT":534,"MT":162,"sideResp":1,"stimulus":"img/500/equaldotsize/L/13_Ratio_500_L_12_R_6.png","xmouse":[781,781,781,781,781,781,781,781,781,781,781,781,781,781,781,781,781,781,781,781,781,781,781,781,781,769,744,710,676,645,602,575,541,502,477],"ymouse":[524,524,524,524,524,524,524,524,524,524,524,524,524,524,524,524,524,524,524,524,524,524,524,524,524,499,454,407,367,332,273,225,176,121,99],"timestamp_mouse":[14,46,54,75,95,115,135,154,175,194,215,236,255,275,295,316,334,361,374,394,414,434,454,474,494,514,534,555,574,596,614,636,654,674,696],"xSR":741.5,"ySR":469.95,"xT1":424.9,"yT1":0,"xT2":1058.1,"yT2":0,"toosoon":0,"cond_shown":"equaldotsize","ratio_trial":500,"smaller_num":"6","larger_num":"12","correct_side":1,"subjID":"julianasofiavargasfranco2","gender":"1","age":"11","school":"6"},{"start_time":1551900311012,"click_time":1551900312103,"finger_time":1551900311962,"fix_duration":310.82539453274006,"trial":43,"RT":950,"MT":141,"sideResp":1,"stimulus":"img/900/equaldotsize/R/13_Ratio_900_L_18_R_20.png","xmouse":[804,804,804,804,804,804,804,804,804,804,804,804,804,804,804,804,804,804,804,804,804,804,804,804,804,804,804,804,804,804,804,804,804,804,804,804,804,804,804,804,804,804,804,804,804,798,781,762,737,684,653,622,587,539,522],"ymouse":[515,515,515,515,515,515,515,515,515,515,515,515,515,515,515,515,515,515,515,515,515,515,515,515,515,515,515,515,515,515,515,515,515,515,515,515,515,515,515,515,515,515,515,515,515,503,480,456,429,363,309,249,178,90,62],"timestamp_mouse":[9,38,50,69,89,110,129,149,169,189,209,230,250,270,290,310,331,350,370,389,410,430,449,470,489,510,529,549,569,590,610,629,650,670,690,710,730,749,770,789,810,830,849,869,890,910,930,950,969,991,1009,1030,1049,1069,1091],"xSR":741.5,"ySR":469.95,"xT1":424.9,"yT1":0,"xT2":1058.1,"yT2":0,"toosoon":0,"cond_shown":"equaldotsize","ratio_trial":900,"smaller_num":"18","larger_num":"20","correct_side":2,"subjID":"julianasofiavargasfranco2","gender":"1","age":"11","school":"6"},{"start_time":1551900313855,"click_time":1551900314582,"finger_time":1551900314422,"fix_duration":912.3888569470045,"trial":44,"RT":567,"MT":160,"sideResp":2,"stimulus":"img/250/randomdotsizeEA/R/12_Ratio_250_L_5_R_20.png","xmouse":[801,801,801,801,801,801,801,801,801,801,801,801,801,801,801,801,801,801,801,801,801,801,801,801,801,801,801,801,827,850,913,1012,1088,1105,1119,1127,1134],"ymouse":[506,506,506,506,506,506,506,506,506,506,506,506,506,506,506,506,506,506,506,506,506,506,506,506,506,506,506,506,455,418,333,241,187,171,147,123,98],"timestamp_mouse":[9,26,46,66,87,107,126,146,166,187,207,228,247,267,288,307,326,346,367,386,407,428,447,466,487,506,526,546,567,587,606,626,648,666,687,707,726],"xSR":741.5,"ySR":469.95,"xT1":424.9,"yT1":0,"xT2":1058.1,"yT2":0,"toosoon":0,"cond_shown":"randomdotsizeEA","ratio_trial":250,"smaller_num":"5","larger_num":"20","correct_side":2,"subjID":"julianasofiavargasfranco2","gender":"1","age":"11","school":"6"},{"start_time":1551900315927,"click_time":1551900316962,"finger_time":1551900316622,"fix_duration":423.3593169909088,"trial":45,"RT":695,"MT":340,"sideResp":2,"stimulus":"img/750/equaldotanddens/R/5_Ratio_750_L_15_R_20.png","xmouse":[802,802,802,802,802,802,802,802,802,802,802,802,802,802,802,802,802,802,802,802,802,802,802,802,802,802,802,802,802,802,802,802,805,813,857,884,921,944,968,1005,1020,1032,1045,1067,1077,1083,1087,1088,1089,1091,1096,1100],"ymouse":[529,529,529,529,529,529,529,529,529,529,529,529,529,529,529,529,529,529,529,529,529,529,529,529,529,529,529,529,529,529,529,529,529,521,465,435,397,378,359,330,315,295,271,219,195,182,172,163,148,130,100,57],"timestamp_mouse":[16,35,55,74,95,116,134,155,175,195,215,235,254,275,294,315,335,354,375,394,415,434,454,476,495,514,535,555,575,596,615,634,654,675,695,715,735,754,774,794,814,834,855,876,895,914,934,954,976,994,1015,1035],"xSR":741.5,"ySR":469.95,"xT1":424.9,"yT1":0,"xT2":1058.1,"yT2":0,"toosoon":0,"cond_shown":"equaldotanddens","ratio_trial":750,"smaller_num":"15","larger_num":"20","correct_side":2,"subjID":"julianasofiavargasfranco2","gender":"1","age":"11","school":"6"},{"start_time":1551900318241,"click_time":1551900319042,"finger_time":1551900318721,"fix_duration":597.8115875785102,"trial":46,"RT":480,"MT":321,"sideResp":1,"stimulus":"img/250/equaldotanddens/L/2_Ratio_250_L_16_R_4.png","xmouse":[796,796,796,796,796,796,796,796,796,796,796,796,796,796,796,796,796,796,796,796,796,796,796,793,773,751,726,693,592,554,538,538,538,538,538,538,538,538,538,538,501],"ymouse":[511,511,511,511,511,511,511,511,511,511,511,511,511,511,511,511,511,511,511,511,511,506,495,470,405,362,314,253,85,28,10,10,10,10,10,10,10,10,10,10,25],"timestamp_mouse":[10,22,44,60,81,100,120,141,161,180,200,220,241,261,281,300,321,341,360,380,401,420,440,460,480,500,520,541,562,580,601,620,641,661,680,700,720,740,761,780,801],"xSR":741.5,"ySR":469.95,"xT1":424.9,"yT1":0,"xT2":1058.1,"yT2":0,"toosoon":0,"cond_shown":"equaldotanddens","ratio_trial":250,"smaller_num":"4","larger_num":"16","correct_side":1,"subjID":"julianasofiavargasfranco2","gender":"1","age":"11","school":"6"},{"start_time":1551900320560,"click_time":1551900321062,"finger_time":1551900320983,"fix_duration":755.4564503890626,"trial":47,"RT":423,"MT":79,"sideResp":2,"stimulus":"img/250/equaldotanddens/R/13_Ratio_250_L_2_R_8.png","xmouse":[808,808,808,808,808,808,808,808,808,808,808,808,808,808,808,808,808,807,807,812,824,848,889,1010,1060,1086],"ymouse":[545,545,545,545,545,545,545,545,545,545,545,545,545,545,545,545,545,544,544,522,493,453,389,212,144,95],"timestamp_mouse":[16,24,43,61,82,101,121,141,161,181,201,223,242,261,282,302,322,341,361,381,402,423,441,461,482,502],"xSR":741.5,"ySR":469.95,"xT1":424.9,"yT1":0,"xT2":1058.1,"yT2":0,"toosoon":0,"cond_shown":"equaldotanddens","ratio_trial":250,"smaller_num":"2","larger_num":"8","correct_side":2,"subjID":"julianasofiavargasfranco2","gender":"1","age":"11","school":"6"},{"start_time":1551900323202,"click_time":1551900324081,"finger_time":1551900323702,"fix_duration":1258.4767678184114,"trial":48,"RT":500,"MT":379,"sideResp":1,"stimulus":"img/750/equaldotsize/L/6_Ratio_750_L_24_R_18.png","xmouse":[802,802,802,802,802,802,802,802,802,802,802,802,802,802,802,802,802,802,802,802,802,802,802,802,799,729,680,627,572,524,438,417,402,394,389,381,376,375,375,375,375,375,375,423,458],"ymouse":[523,523,523,523,523,523,523,523,523,523,523,523,523,523,523,523,523,523,523,523,523,523,523,524,521,457,410,346,276,203,111,92,79,72,66,47,32,19,6,0,0,0,0,2,21],"timestamp_mouse":[1,39,39,60,79,100,120,140,160,180,199,219,239,260,279,300,319,340,359,380,399,420,440,459,480,500,519,539,559,579,601,620,639,659,681,701,719,740,759,779,800,819,839,859,879],"xSR":741.5,"ySR":469.95,"xT1":424.9,"yT1":0,"xT2":1058.1,"yT2":0,"toosoon":0,"cond_shown":"equaldotsize","ratio_trial":750,"smaller_num":"18","larger_num":"24","correct_side":1,"subjID":"julianasofiavargasfranco2","gender":"1","age":"11","school":"6"},{"start_time":1551900325189,"click_time":1551900325942,"finger_time":1551900325701,"fix_duration":326.23124973744143,"trial":49,"RT":512,"MT":241,"sideResp":2,"stimulus":"img/250/equaldotsize/R/4_Ratio_250_L_3_R_12.png","xmouse":[809,809,809,809,809,809,809,809,809,809,809,809,809,809,809,809,809,809,809,809,809,809,809,810,814,842,921,955,975,990,1003,1029,1055,1063,1084,1101,1107,1112],"ymouse":[520,520,520,520,520,520,520,520,520,520,520,520,520,520,520,520,520,520,520,520,520,520,520,520,511,462,359,325,307,292,276,232,192,181,148,123,110,97],"timestamp_mouse":[13,34,53,72,93,112,134,152,172,193,212,232,252,273,292,313,333,353,373,392,413,433,452,472,492,512,532,552,572,592,613,632,653,672,693,714,732,752],"xSR":741.5,"ySR":469.95,"xT1":424.9,"yT1":0,"xT2":1058.1,"yT2":0,"toosoon":0,"cond_shown":"equaldotsize","ratio_trial":250,"smaller_num":"3","larger_num":"12","correct_side":2,"subjID":"julianasofiavargasfranco2","gender":"1","age":"11","school":"6"},{"start_time":1551900327021,"click_time":1551900327662,"finger_time":1551900327542,"fix_duration":479.80493716883785,"trial":50,"RT":521,"MT":120,"sideResp":1,"stimulus":"img/250/equaldotanddens/L/7_Ratio_250_L_8_R_2.png","xmouse":[780,780,780,780,780,780,780,780,780,780,780,780,780,780,780,780,780,780,780,780,780,780,780,780,780,771,741,701,656,558,525,491,480],"ymouse":[541,541,541,541,541,541,541,541,541,541,541,541,541,541,541,541,541,541,541,541,541,541,541,541,541,517,466,394,319,195,157,109,90],"timestamp_mouse":[7,21,41,61,82,100,121,141,161,180,201,221,242,261,280,301,320,341,361,381,400,420,441,461,481,500,521,540,561,582,600,620,641],"xSR":741.5,"ySR":469.95,"xT1":424.9,"yT1":0,"xT2":1058.1,"yT2":0,"toosoon":0,"cond_shown":"equaldotanddens","ratio_trial":250,"smaller_num":"2","larger_num":"8","correct_side":1,"subjID":"julianasofiavargasfranco2","gender":"1","age":"11","school":"6"},{"start_time":1551900328790,"click_time":1551900329882,"finger_time":1551900329541,"fix_duration":366.6104699049639,"trial":51,"RT":751,"MT":341,"sideResp":2,"stimulus":"img/750/randomdotsizeEA/R/2_Ratio_750_L_6_R_8.png","xmouse":[814,814,814,814,814,814,814,814,814,814,814,814,814,814,814,815,821,825,828,828,830,830,830,830,830,830,830,830,830,830,830,830,830,830,830,830,834,846,871,908,944,984,997,1008,1029,1054,1065,1070,1070,1070,1070,1072,1077,1079,1085],"ymouse":[539,539,539,539,539,539,539,539,539,539,539,539,539,539,539,534,526,519,515,513,510,509,509,509,509,509,509,509,509,509,509,509,509,509,509,509,503,485,451,396,349,282,257,232,181,130,115,108,107,107,107,106,103,101,97],"timestamp_mouse":[12,32,51,71,92,111,131,151,172,193,212,233,252,271,291,313,332,351,371,393,412,431,451,473,493,512,532,552,573,592,612,633,652,672,691,711,731,751,771,792,812,831,851,871,891,913,931,952,971,991,1012,1031,1051,1071,1092],"xSR":741.5,"ySR":469.95,"xT1":424.9,"yT1":0,"xT2":1058.1,"yT2":0,"toosoon":0,"cond_shown":"randomdotsizeEA","ratio_trial":750,"smaller_num":"6","larger_num":"8","correct_side":2,"subjID":"julianasofiavargasfranco2","gender":"1","age":"11","school":"6"},{"start_time":1551900331329,"click_time":1551900332321,"finger_time":1551900331901,"fix_duration":565.8999792554532,"trial":52,"RT":572,"MT":420,"sideResp":1,"stimulus":"img/250/randomdotsizeEA/L/5_Ratio_250_L_24_R_6.png","xmouse":[787,787,787,787,787,787,787,787,787,787,787,787,787,787,787,787,787,787,787,787,787,787,787,787,787,787,788,777,740,634,577,535,514,501,486,479,475,475,477,481,488,497,506,517,526,527,527,527,526,524],"ymouse":[525,525,525,525,525,525,525,525,525,525,525,525,525,525,525,525,525,525,525,525,525,525,525,525,525,525,518,501,458,365,323,292,275,260,219,177,157,148,140,135,130,122,114,101,88,87,87,86,80,73],"timestamp_mouse":[16,33,53,73,92,112,133,153,172,192,212,232,253,273,293,312,334,352,372,393,413,433,453,473,493,512,532,553,572,593,614,633,653,674,693,712,732,753,774,792,813,833,852,873,894,912,933,952,974,992],"xSR":741.5,"ySR":469.95,"xT1":424.9,"yT1":0,"xT2":1058.1,"yT2":0,"toosoon":0,"cond_shown":"randomdotsizeEA","ratio_trial":250,"smaller_num":"6","larger_num":"24","correct_side":1,"subjID":"julianasofiavargasfranco2","gender":"1","age":"11","school":"6"},{"start_time":1551900334574,"click_time":1551900336241,"finger_time":1551900335901,"fix_duration":1491.4714027364823,"trial":53,"RT":1327,"MT":340,"sideResp":1,"stimulus":"img/900/randomdotsizeEA/L/10_Ratio_900_L_20_R_18.png","xmouse":[793,793,793,793,793,793,793,793,793,793,793,793,793,793,793,793,793,793,793,793,793,793,793,793,793,793,793,793,793,793,793,793,793,793,793,793,793,793,793,793,793,793,793,793,793,793,793,793,793,793,793,793,793,793,793,793,793,793,793,793,793,793,793,788,775,756,729,671,649,631,611,581,570,553,547,536,534,534,534,534,534,533,527,514],"ymouse":[519,519,519,519,519,519,519,519,519,519,519,519,519,519,519,519,519,519,519,519,519,519,519,519,519,519,519,519,519,519,519,519,519,519,519,519,519,519,519,519,519,519,519,519,519,519,519,519,519,519,519,519,519,519,519,519,519,519,519,519,519,519,519,512,494,470,436,347,307,269,234,181,164,138,131,112,109,109,109,109,109,107,95,82],"timestamp_mouse":[9,27,59,67,87,107,127,148,169,188,208,229,248,268,288,308,328,349,367,388,408,429,449,468,487,508,528,549,568,588,607,627,649,668,689,708,727,748,767,787,809,827,849,868,888,908,927,947,969,987,1007,1028,1047,1068,1087,1108,1128,1148,1169,1188,1207,1228,1248,1268,1289,1308,1327,1348,1369,1388,1409,1429,1447,1467,1487,1509,1527,1547,1568,1587,1607,1627,1647,1667],"xSR":741.5,"ySR":469.95,"xT1":424.9,"yT1":0,"xT2":1058.1,"yT2":0,"toosoon":0,"cond_shown":"randomdotsizeEA","ratio_trial":900,"smaller_num":"18","larger_num":"20","correct_side":1,"subjID":"julianasofiavargasfranco2","gender":"1","age":"11","school":"6"},{"start_time":1551900337240,"click_time":1551900338281,"finger_time":1551900338102,"fix_duration":276.0961696079217,"trial":54,"RT":862,"MT":179,"sideResp":1,"stimulus":"img/900/randomdotsizeEA/L/1_Ratio_900_L_10_R_9.png","xmouse":[780,780,780,780,780,780,780,780,781,785,785,785,785,785,785,785,785,785,785,785,785,785,785,785,785,785,785,785,785,785,785,785,785,785,785,785,785,785,785,785,785,785,785,726,678,627,580,553,527,511,507,494,487],"ymouse":[516,516,516,516,516,516,514,512,509,506,506,506,506,506,506,506,506,506,506,506,506,506,506,506,506,506,506,506,506,506,506,506,506,506,506,506,506,506,506,506,506,506,504,404,336,272,220,190,163,139,133,113,97],"timestamp_mouse":[6,32,41,62,83,102,122,142,161,182,202,222,241,261,282,301,322,341,361,382,402,422,443,462,481,502,522,542,561,582,603,621,641,662,682,701,722,742,762,783,803,822,841,862,881,901,921,941,963,981,1002,1021,1041],"xSR":741.5,"ySR":469.95,"xT1":424.9,"yT1":0,"xT2":1058.1,"yT2":0,"toosoon":0,"cond_shown":"randomdotsizeEA","ratio_trial":900,"smaller_num":"9","larger_num":"10","correct_side":1,"subjID":"julianasofiavargasfranco2","gender":"1","age":"11","school":"6"},{"start_time":1551900339246,"click_time":1551900339962,"finger_time":1551900339803,"fix_duration":260.9081247871333,"trial":55,"RT":557,"MT":159,"sideResp":2,"stimulus":"img/900/equaldotsize/R/15_Ratio_900_L_9_R_10.png","xmouse":[780,780,780,780,780,780,780,780,780,780,780,780,780,780,780,780,780,780,780,780,780,780,780,780,785,796,813,836,897,950,991,1029,1074,1086,1094,1104],"ymouse":[525,525,525,525,525,525,525,525,525,525,525,525,525,525,525,525,525,525,525,525,525,525,525,525,524,509,489,462,390,313,251,201,138,121,108,94],"timestamp_mouse":[16,37,57,75,95,115,137,156,177,196,215,236,256,275,295,317,336,355,375,395,415,437,456,476,496,516,536,557,576,597,615,635,657,675,696,716],"xSR":741.5,"ySR":469.95,"xT1":424.9,"yT1":0,"xT2":1058.1,"yT2":0,"toosoon":0,"cond_shown":"equaldotsize","ratio_trial":900,"smaller_num":"9","larger_num":"10","correct_side":2,"subjID":"julianasofiavargasfranco2","gender":"1","age":"11","school":"6"},{"start_time":1551900341586,"click_time":1551900342382,"finger_time":1551900342183,"fix_duration":981.8981839620598,"trial":56,"RT":597,"MT":199,"sideResp":1,"stimulus":"img/500/randomdotsizeEA/L/11_Ratio_500_L_12_R_6.png","xmouse":[784,784,784,784,784,784,784,784,784,784,784,784,784,784,784,784,784,784,784,784,784,784,784,784,784,784,784,782,768,724,642,598,591,580,574,561,552,536,515,500],"ymouse":[524,524,524,524,524,524,524,524,524,524,524,524,524,524,524,524,524,524,524,524,524,524,524,524,524,524,524,522,509,458,362,324,316,300,287,236,203,164,122,94],"timestamp_mouse":[15,37,55,75,96,116,137,156,175,195,215,237,256,277,295,316,335,355,376,397,417,435,456,476,495,516,535,555,575,597,617,635,655,675,696,716,735,756,775,796],"xSR":741.5,"ySR":469.95,"xT1":424.9,"yT1":0,"xT2":1058.1,"yT2":0,"toosoon":0,"cond_shown":"randomdotsizeEA","ratio_trial":500,"smaller_num":"6","larger_num":"12","correct_side":1,"subjID":"julianasofiavargasfranco2","gender":"1","age":"11","school":"6"},{"start_time":1551900343194,"click_time":1551900344142,"finger_time":1551900344043,"fix_duration":250,"trial":57,"RT":849,"MT":99,"sideResp":1,"stimulus":"img/250/equaldotsize/L/3_Ratio_250_L_8_R_2.png","xmouse":[798,798,798,798,798,798,798,798,798,798,798,798,798,798,798,798,798,798,798,798,798,798,798,798,798,798,798,798,798,798,798,798,798,798,798,798,798,798,798,798,795,765,730,684,601,528,511,496],"ymouse":[538,538,538,538,537,537,537,537,537,537,537,537,537,537,537,537,537,537,537,537,537,537,537,537,537,537,537,537,537,537,537,537,537,537,537,537,537,537,537,537,533,492,440,370,248,139,112,86],"timestamp_mouse":[16,33,47,67,87,107,128,147,167,189,207,228,248,268,288,308,327,348,367,388,407,428,448,468,488,508,528,548,568,588,607,627,648,668,687,708,727,747,768,787,807,828,849,867,888,909,927,948],"xSR":741.5,"ySR":469.95,"xT1":424.9,"yT1":0,"xT2":1058.1,"yT2":0,"toosoon":0,"cond_shown":"equaldotsize","ratio_trial":250,"smaller_num":"2","larger_num":"8","correct_side":1,"subjID":"julianasofiavargasfranco2","gender":"1","age":"11","school":"6"},{"start_time":1551900345136,"click_time":1551900345962,"finger_time":1551900345821,"fix_duration":271.656035195236,"trial":58,"RT":685,"MT":141,"sideResp":1,"stimulus":"img/500/equaldotsize/L/10_Ratio_500_L_4_R_2.png","xmouse":[785,785,785,785,785,785,785,785,785,785,785,785,785,785,785,785,785,785,785,785,785,785,785,785,785,785,785,785,785,785,785,785,784,779,738,702,662,604,554,536,523,513],"ymouse":[531,531,531,530,529,529,529,529,529,529,529,529,529,529,529,529,529,529,529,529,529,529,529,529,529,529,529,529,529,529,529,529,518,508,448,401,351,278,179,136,106,87],"timestamp_mouse":[6,37,45,66,85,106,126,146,166,186,207,226,246,267,287,305,325,345,365,385,405,425,445,466,487,505,526,545,566,585,606,625,645,665,685,705,725,746,767,785,805,826],"xSR":741.5,"ySR":469.95,"xT1":424.9,"yT1":0,"xT2":1058.1,"yT2":0,"toosoon":0,"cond_shown":"equaldotsize","ratio_trial":500,"smaller_num":"2","larger_num":"4","correct_side":1,"subjID":"julianasofiavargasfranco2","gender":"1","age":"11","school":"6"},{"start_time":1551900347995,"click_time":1551900348722,"finger_time":1551900348582,"fix_duration":1191.7939363384298,"trial":59,"RT":587,"MT":140,"sideResp":2,"stimulus":"img/500/equaldotsize/R/9_Ratio_500_L_2_R_4.png","xmouse":[795,795,795,795,795,795,795,795,795,795,795,795,795,795,795,795,795,795,795,795,795,795,795,795,795,795,795,807,831,864,913,998,1051,1074,1088,1098,1112],"ymouse":[534,534,534,534,534,534,534,534,534,534,534,534,534,534,534,534,534,534,534,534,534,534,534,534,534,534,534,523,501,469,415,297,211,167,135,112,80],"timestamp_mouse":[12,38,47,67,87,108,127,146,166,187,207,226,247,267,286,306,328,347,367,386,406,427,447,467,486,507,527,547,566,587,608,626,647,666,687,708,726],"xSR":741.5,"ySR":469.95,"xT1":424.9,"yT1":0,"xT2":1058.1,"yT2":0,"toosoon":0,"cond_shown":"equaldotsize","ratio_trial":500,"smaller_num":"2","larger_num":"4","correct_side":2,"subjID":"julianasofiavargasfranco2","gender":"1","age":"11","school":"6"},{"start_time":1551900350046,"click_time":1551900350862,"finger_time":1551900350601,"fix_duration":543.4741484778805,"trial":60,"RT":555,"MT":261,"sideResp":1,"stimulus":"img/500/equaldotanddens/L/4_Ratio_500_L_18_R_9.png","xmouse":[793,793,793,793,793,793,793,793,793,793,793,793,793,793,793,793,793,793,793,793,793,793,793,793,793,793,789,771,693,665,618,592,560,524,513,508,505,501,499,499,499],"ymouse":[517,517,517,517,517,517,517,517,517,517,517,517,517,517,517,517,517,517,517,517,517,517,517,517,517,517,502,468,360,330,288,262,229,185,170,158,149,118,104,100,97],"timestamp_mouse":[15,39,56,75,95,116,136,156,177,196,216,235,256,277,296,316,336,356,375,395,416,435,455,476,497,517,535,555,575,596,615,635,657,676,695,716,737,756,775,796,816],"xSR":741.5,"ySR":469.95,"xT1":424.9,"yT1":0,"xT2":1058.1,"yT2":0,"toosoon":0,"cond_shown":"equaldotanddens","ratio_trial":500,"smaller_num":"9","larger_num":"18","correct_side":1,"subjID":"julianasofiavargasfranco2","gender":"1","age":"11","school":"6"},{"start_time":1551900352474,"click_time":1551900353082,"finger_time":1551900352981,"fix_duration":870.4015038680085,"trial":61,"RT":507,"MT":101,"sideResp":1,"stimulus":"img/500/equaldotsize/L/4_Ratio_500_L_18_R_9.png","xmouse":[791,791,791,791,791,791,791,791,791,791,791,791,791,791,791,791,791,791,791,791,791,791,791,783,776,753,712,609,567,532,506],"ymouse":[524,524,524,524,524,524,524,524,524,524,524,524,524,524,524,524,524,524,524,524,524,524,524,504,488,435,363,194,143,106,68],"timestamp_mouse":[9,27,47,68,88,107,127,148,169,187,208,228,248,268,287,308,327,347,367,387,409,427,448,467,488,507,529,548,567,587,608],"xSR":741.5,"ySR":469.95,"xT1":424.9,"yT1":0,"xT2":1058.1,"yT2":0,"toosoon":0,"cond_shown":"equaldotsize","ratio_trial":500,"smaller_num":"9","larger_num":"18","correct_side":1,"subjID":"julianasofiavargasfranco2","gender":"1","age":"11","school":"6"},{"start_time":1551900354436,"click_time":1551900355303,"finger_time":1551900355021,"fix_duration":692.926122381721,"trial":62,"RT":585,"MT":282,"sideResp":2,"stimulus":"img/900/equaldotsize/R/11_Ratio_900_L_18_R_20.png","xmouse":[787,787,787,787,787,787,787,787,787,787,787,787,787,787,787,787,787,787,787,787,787,787,787,787,787,787,787,787,789,837,916,942,1004,1022,1038,1042,1048,1051,1058,1061,1064,1071,1077,1094],"ymouse":[517,517,517,517,517,517,517,517,517,517,517,517,517,517,517,517,517,517,517,517,516,516,516,516,516,516,516,515,510,446,347,311,224,198,170,161,152,145,136,131,126,115,105,77],"timestamp_mouse":[9,25,45,66,86,106,126,145,167,186,206,227,246,266,286,305,325,345,367,386,406,426,446,466,486,506,525,545,567,585,606,625,645,666,686,705,726,746,768,785,806,826,845,866],"xSR":741.5,"ySR":469.95,"xT1":424.9,"yT1":0,"xT2":1058.1,"yT2":0,"toosoon":0,"cond_shown":"equaldotsize","ratio_trial":900,"smaller_num":"18","larger_num":"20","correct_side":2,"subjID":"julianasofiavargasfranco2","gender":"1","age":"11","school":"6"},{"start_time":1551900356135,"click_time":1551900357003,"finger_time":1551900356802,"fix_duration":250,"trial":63,"RT":667,"MT":201,"sideResp":1,"stimulus":"img/250/equaldotsize/L/1_Ratio_250_L_8_R_2.png","xmouse":[776,776,776,776,776,776,776,776,776,776,776,776,776,776,776,776,776,776,776,776,776,776,776,776,776,776,776,776,776,776,776,776,776,761,738,688,667,602,554,537,522,508,498,478],"ymouse":[526,526,526,526,526,526,526,526,526,526,526,526,526,526,526,526,526,526,526,526,526,526,526,526,526,526,526,526,526,526,526,526,515,465,423,338,306,229,182,167,154,140,127,87],"timestamp_mouse":[8,31,47,68,87,107,127,147,167,187,206,228,247,266,287,307,326,348,367,386,407,427,447,467,488,507,527,547,567,587,606,626,646,667,686,707,726,746,768,786,808,826,847,868],"xSR":741.5,"ySR":469.95,"xT1":424.9,"yT1":0,"xT2":1058.1,"yT2":0,"toosoon":0,"cond_shown":"equaldotsize","ratio_trial":250,"smaller_num":"2","larger_num":"8","correct_side":1,"subjID":"julianasofiavargasfranco2","gender":"1","age":"11","school":"6"},{"start_time":1551900358095,"click_time":1551900358662,"finger_time":1551900358521,"fix_duration":250,"trial":64,"RT":426,"MT":141,"sideResp":2,"stimulus":"img/750/equaldotsize/R/11_Ratio_750_L_12_R_16.png","xmouse":[782,782,782,782,782,782,782,782,782,782,782,782,782,782,782,782,787,800,810,819,827,859,894,936,982,1027,1083,1093,1103],"ymouse":[509,509,509,509,509,509,509,509,509,509,509,509,509,509,509,509,507,497,490,482,474,440,395,337,267,206,128,111,97],"timestamp_mouse":[8,41,46,67,86,106,128,146,167,186,207,227,246,266,287,307,326,346,367,388,406,426,446,466,486,508,526,547,567],"xSR":741.5,"ySR":469.95,"xT1":424.9,"yT1":0,"xT2":1058.1,"yT2":0,"toosoon":0,"cond_shown":"equaldotsize","ratio_trial":750,"smaller_num":"12","larger_num":"16","correct_side":2,"subjID":"julianasofiavargasfranco2","gender":"1","age":"11","school":"6"},{"start_time":1551900359554,"click_time":1551900361282,"finger_time":1551900361102,"fix_duration":250,"trial":65,"RT":1548,"MT":180,"sideResp":1,"stimulus":"img/900/equaldotanddens/L/4_Ratio_900_L_20_R_18.png","xmouse":[808,808,808,808,808,808,808,808,808,808,808,808,808,808,808,807,806,806,806,806,806,806,806,806,806,806,806,806,806,806,806,806,806,806,806,806,806,806,806,806,806,809,815,818,819,819,819,819,819,819,819,819,819,819,819,819,819,819,819,819,819,819,819,819,819,818,815,809,794,786,777,766,757,751,749,746,743,727,706,682,660,636,589,563,535,508,496],"ymouse":[517,517,517,517,517,517,517,517,517,517,517,517,517,517,517,517,517,517,517,517,517,517,517,517,517,517,517,517,517,517,517,517,517,517,517,517,517,517,517,517,517,514,509,507,506,506,506,506,506,506,506,506,506,506,506,506,506,506,506,506,506,506,506,506,506,508,513,519,529,535,539,543,547,547,546,542,532,491,453,413,376,334,247,201,158,115,86],"timestamp_mouse":[7,27,62,68,89,107,128,148,167,187,207,227,247,268,287,308,327,347,368,387,408,427,449,468,488,507,527,548,569,588,607,628,648,669,689,707,728,748,768,788,808,827,849,867,888,908,928,948,967,988,1008,1028,1048,1067,1088,1107,1127,1147,1168,1187,1208,1229,1249,1268,1288,1307,1328,1349,1368,1387,1408,1429,1447,1467,1488,1509,1527,1548,1568,1587,1607,1627,1649,1667,1688,1708,1728],"xSR":741.5,"ySR":469.95,"xT1":424.9,"yT1":0,"xT2":1058.1,"yT2":0,"toosoon":0,"cond_shown":"equaldotanddens","ratio_trial":900,"smaller_num":"18","larger_num":"20","correct_side":1,"subjID":"julianasofiavargasfranco2","gender":"1","age":"11","school":"6"},{"start_time":1551900362592,"click_time":1551900363342,"finger_time":1551900363102,"fix_duration":768.2993780255744,"trial":66,"RT":510,"MT":240,"sideResp":2,"stimulus":"img/250/equaldotanddens/R/12_Ratio_250_L_5_R_20.png","xmouse":[798,798,798,798,798,798,798,798,798,798,798,798,798,798,798,798,798,798,798,798,798,798,798,803,812,884,944,1000,1041,1067,1090,1094,1096,1099,1103,1108,1117,1121],"ymouse":[538,538,538,538,538,538,538,538,538,538,538,538,538,538,538,538,538,538,538,538,538,538,538,531,522,431,361,291,239,205,174,167,164,158,151,143,110,95],"timestamp_mouse":[10,40,50,70,89,110,129,150,170,189,210,231,249,270,291,311,329,349,369,389,409,430,449,469,491,510,529,549,569,589,611,629,649,669,690,710,730,749],"xSR":741.5,"ySR":469.95,"xT1":424.9,"yT1":0,"xT2":1058.1,"yT2":0,"toosoon":0,"cond_shown":"equaldotanddens","ratio_trial":250,"smaller_num":"5","larger_num":"20","correct_side":2,"subjID":"julianasofiavargasfranco2","gender":"1","age":"11","school":"6"},{"start_time":1551900364372,"click_time":1551900365062,"finger_time":1551900364941,"fix_duration":250,"trial":67,"RT":569,"MT":121,"sideResp":1,"stimulus":"img/750/equaldotanddens/L/8_Ratio_750_L_4_R_3.png","xmouse":[785,785,783,781,781,781,781,781,781,781,781,781,781,781,781,781,781,781,781,781,781,781,781,781,781,781,781,778,768,747,710,602,550,503,461],"ymouse":[534,534,534,534,534,534,534,534,534,534,534,534,534,534,534,534,534,534,534,534,534,534,534,534,534,534,534,517,462,399,332,199,146,101,59],"timestamp_mouse":[11,30,54,70,90,110,129,149,170,189,209,230,249,269,290,310,329,349,370,391,409,430,450,469,489,509,530,550,569,590,610,631,649,670,690],"xSR":741.5,"ySR":469.95,"xT1":424.9,"yT1":0,"xT2":1058.1,"yT2":0,"toosoon":0,"cond_shown":"equaldotanddens","ratio_trial":750,"smaller_num":"3","larger_num":"4","correct_side":1,"subjID":"julianasofiavargasfranco2","gender":"1","age":"11","school":"6"},{"start_time":1551900366764,"click_time":1551900367482,"finger_time":1551900367362,"fix_duration":860.2726069540803,"trial":68,"RT":598,"MT":120,"sideResp":1,"stimulus":"img/900/randomdotsizeEA/L/10_Ratio_900_L_20_R_18.png","xmouse":[795,795,795,795,795,795,795,795,795,795,795,795,795,795,795,795,795,799,799,799,799,799,799,799,799,799,799,799,790,764,737,662,586,558,514,455],"ymouse":[517,517,517,517,517,517,517,517,517,517,517,517,517,517,517,517,517,503,502,502,502,502,502,502,502,502,502,500,473,433,392,296,206,173,113,28],"timestamp_mouse":[17,37,57,79,97,117,138,159,178,198,219,237,258,277,297,317,337,357,377,397,417,437,457,478,499,518,538,558,578,598,618,639,657,678,697,718],"xSR":741.5,"ySR":469.95,"xT1":424.9,"yT1":0,"xT2":1058.1,"yT2":0,"toosoon":0,"cond_shown":"randomdotsizeEA","ratio_trial":900,"smaller_num":"18","larger_num":"20","correct_side":1,"subjID":"julianasofiavargasfranco2","gender":"1","age":"11","school":"6"},{"start_time":1551900368732,"click_time":1551900369721,"finger_time":1551900369542,"fix_duration":389.1623967473078,"trial":69,"RT":810,"MT":179,"sideResp":1,"stimulus":"img/750/equaldotanddens/L/9_Ratio_750_L_4_R_3.png","xmouse":[805,805,805,805,805,805,805,805,805,805,805,805,805,805,803,803,803,803,803,803,803,803,803,803,803,803,803,803,803,803,803,803,803,803,803,803,803,803,800,782,751,711,668,590,569,559,551,544,530,524],"ymouse":[509,509,509,509,509,509,509,509,509,509,509,509,509,509,510,510,510,510,510,510,510,510,510,510,510,510,510,510,510,510,510,510,510,510,510,510,510,510,510,477,428,368,308,217,193,182,171,155,106,72],"timestamp_mouse":[9,38,49,70,90,109,130,149,170,189,209,230,250,270,289,309,331,350,370,390,411,431,450,469,490,510,530,549,570,589,610,629,649,670,690,709,730,750,769,791,810,830,850,871,889,909,930,949,971,989],"xSR":741.5,"ySR":469.95,"xT1":424.9,"yT1":0,"xT2":1058.1,"yT2":0,"toosoon":0,"cond_shown":"equaldotanddens","ratio_trial":750,"smaller_num":"3","larger_num":"4","correct_side":1,"subjID":"julianasofiavargasfranco2","gender":"1","age":"11","school":"6"},{"start_time":1551900373182,"click_time":1551900374081,"finger_time":1551900373681,"fix_duration":1058.4249278857935,"trial":70,"RT":499,"MT":400,"sideResp":2,"stimulus":"img/750/equaldotanddens/R/5_Ratio_750_L_15_R_20.png","xmouse":[798,798,798,798,798,798,798,798,798,798,798,798,798,798,798,798,798,798,798,798,798,798,798,802,813,860,902,1007,1053,1104,1144,1176,1206,1211,1216,1220,1226,1229,1229,1229,1229,1225,1206,1187,1166,1131],"ymouse":[509,509,509,509,509,509,509,509,509,509,509,509,509,509,509,509,509,509,509,509,509,509,509,508,496,447,414,336,295,251,211,180,145,136,129,118,95,78,63,52,48,42,32,28,26,28],"timestamp_mouse":[1,19,39,60,81,100,120,139,161,180,200,220,241,259,279,299,320,340,360,380,400,419,439,460,480,499,521,541,559,579,599,619,639,659,679,701,720,739,759,780,800,821,840,859,879,899],"xSR":741.5,"ySR":469.95,"xT1":424.9,"yT1":0,"xT2":1058.1,"yT2":0,"toosoon":0,"cond_shown":"equaldotanddens","ratio_trial":750,"smaller_num":"15","larger_num":"20","correct_side":2,"subjID":"julianasofiavargasfranco2","gender":"1","age":"11","school":"6"},{"start_time":1551900375314,"click_time":1551900375861,"finger_time":1551900375741,"fix_duration":311.5055422025899,"trial":71,"RT":427,"MT":120,"sideResp":1,"stimulus":"img/250/equaldotanddens/L/1_Ratio_250_L_8_R_2.png","xmouse":[810,810,810,810,810,810,809,808,808,808,808,808,808,808,808,808,808,808,808,804,796,774,740,696,652,572,528,482],"ymouse":[516,516,516,516,516,516,516,516,516,516,516,516,516,516,516,516,516,516,516,514,492,452,393,328,268,165,104,36],"timestamp_mouse":[10,36,48,69,88,108,127,147,169,188,207,228,247,268,288,307,328,348,368,387,408,427,448,468,487,507,528,547],"xSR":741.5,"ySR":469.95,"xT1":424.9,"yT1":0,"xT2":1058.1,"yT2":0,"toosoon":0,"cond_shown":"equaldotanddens","ratio_trial":250,"smaller_num":"2","larger_num":"8","correct_side":1,"subjID":"julianasofiavargasfranco2","gender":"1","age":"11","school":"6"},{"start_time":1551900378686,"click_time":1551900379521,"finger_time":1551900379102,"fix_duration":641.0808708533787,"trial":72,"RT":416,"MT":419,"sideResp":2,"stimulus":"img/500/equaldotsize/R/3_Ratio_500_L_10_R_20.png","xmouse":[780,780,780,780,780,780,780,780,780,780,780,780,780,780,780,780,780,780,781,785,802,819,848,885,926,978,990,999,1006,1012,1016,1020,1020,1020,1020,1020,1020,1020,1020,1022,1050,1068],"ymouse":[502,502,502,502,502,502,502,502,502,502,502,502,502,502,502,502,502,502,499,492,461,435,384,316,249,158,134,114,85,62,40,14,9,9,9,9,9,9,9,9,22,29],"timestamp_mouse":[15,42,56,76,95,116,136,155,176,197,216,236,257,276,296,317,336,355,376,396,416,435,456,477,495,517,535,555,575,595,616,635,655,676,697,717,737,756,776,795,817,835],"xSR":741.5,"ySR":469.95,"xT1":424.9,"yT1":0,"xT2":1058.1,"yT2":0,"toosoon":0,"cond_shown":"equaldotsize","ratio_trial":500,"smaller_num":"10","larger_num":"20","correct_side":2,"subjID":"julianasofiavargasfranco2","gender":"1","age":"11","school":"6"},{"start_time":1551900381723,"click_time":1551900382321,"finger_time":1551900382202,"fix_duration":1458.7583269963982,"trial":73,"RT":479,"MT":119,"sideResp":1,"stimulus":"img/500/equaldotsize/L/10_Ratio_500_L_4_R_2.png","xmouse":[775,775,775,775,775,775,775,775,775,775,775,775,775,775,775,775,775,775,775,775,775,775,773,768,715,673,620,552,519,491,465],"ymouse":[499,499,499,499,499,499,499,499,499,499,499,499,499,499,499,499,499,499,499,499,499,499,498,482,382,322,260,192,156,130,99],"timestamp_mouse":[1,18,38,59,78,98,119,139,158,179,198,219,239,258,279,298,319,338,358,378,399,419,439,458,479,499,518,539,559,579,598],"xSR":741.5,"ySR":469.95,"xT1":424.9,"yT1":0,"xT2":1058.1,"yT2":0,"toosoon":0,"cond_shown":"equaldotsize","ratio_trial":500,"smaller_num":"2","larger_num":"4","correct_side":1,"subjID":"julianasofiavargasfranco2","gender":"1","age":"11","school":"6"},{"start_time":1551900383155,"click_time":1551900384262,"finger_time":1551900384041,"fix_duration":250,"trial":74,"RT":886,"MT":221,"sideResp":1,"stimulus":"img/750/randomdotsizeEA/L/13_Ratio_750_L_8_R_6.png","xmouse":[825,825,825,825,825,825,825,825,825,825,825,825,825,825,825,825,825,825,825,825,825,825,825,825,825,825,825,825,825,825,825,825,825,825,825,825,825,825,825,825,825,825,817,797,774,742,669,577,540,512,499,497,497,497,497,497],"ymouse":[537,537,537,537,537,537,537,537,537,537,537,537,537,537,537,537,537,537,537,537,537,537,537,537,537,537,537,537,537,537,537,537,537,537,537,537,537,537,537,537,537,537,527,497,459,410,290,170,132,109,101,100,100,100,100,98],"timestamp_mouse":[9,29,47,67,86,108,128,147,167,186,208,227,247,267,286,307,328,346,366,387,406,427,446,468,487,507,526,548,567,587,607,626,646,667,686,708,727,746,767,786,808,826,847,866,886,906,927,948,966,986,1006,1026,1046,1068,1088,1107],"xSR":741.5,"ySR":469.95,"xT1":424.9,"yT1":0,"xT2":1058.1,"yT2":0,"toosoon":0,"cond_shown":"randomdotsizeEA","ratio_trial":750,"smaller_num":"6","larger_num":"8","correct_side":1,"subjID":"julianasofiavargasfranco2","gender":"1","age":"11","school":"6"},{"start_time":1551900387558,"click_time":1551900388382,"finger_time":1551900388082,"fix_duration":834.5342536393083,"trial":75,"RT":524,"MT":300,"sideResp":1,"stimulus":"img/750/equaldotanddens/L/13_Ratio_750_L_8_R_6.png","xmouse":[805,805,805,805,805,805,805,805,805,805,805,805,805,805,805,805,805,805,805,805,805,805,805,805,805,784,734,599,541,508,490,478,461,450,441,433,429,424,424,424,424,427],"ymouse":[513,513,513,513,513,513,513,513,513,513,513,513,513,513,513,513,513,513,513,513,513,513,513,513,513,478,417,315,283,261,247,233,198,174,155,132,118,85,68,55,41,28],"timestamp_mouse":[9,23,43,63,83,104,125,145,164,184,203,223,243,264,285,305,323,344,364,383,404,424,444,465,485,503,524,545,563,583,603,623,645,663,685,704,724,744,763,783,803,823],"xSR":741.5,"ySR":469.95,"xT1":424.9,"yT1":0,"xT2":1058.1,"yT2":0,"toosoon":0,"cond_shown":"equaldotanddens","ratio_trial":750,"smaller_num":"6","larger_num":"8","correct_side":1,"subjID":"julianasofiavargasfranco2","gender":"1","age":"