[{"start_time":1551881144588,"click_time":1551881145718,"finger_time":1551881144600,"fix_duration":1267.5594606080736,"trial":0,"RT":12,"MT":1118,"sideResp":2,"stimulus":"img/250/randomdotsizeEA/R/11_Ratio_250_L_3_R_12.png","xmouse":[803,803,803,803,803,803,803,803,803,803,803,803,803,803,803,803,803,803,803,803,803,803,802,802,801,801,801,801,801,801,801,801,801,801,801,801,801,801,801,805,813,932,1036,1133,1184,1194,1194,1194,1194,1194,1194,1194,1194,1193,1187,1166,1147],"ymouse":[551,551,551,551,551,551,551,551,551,551,551,551,551,551,551,551,551,551,551,551,551,552,559,579,603,615,615,615,615,615,615,615,615,615,615,615,615,615,615,608,596,423,297,177,91,58,44,38,37,37,36,35,35,34,36,42,45],"timestamp_mouse":[12,35,50,70,91,111,131,150,170,190,210,231,251,270,290,310,330,350,371,390,411,431,450,471,490,510,531,551,571,591,610,630,651,671,691,711,730,750,770,791,811,830,852,871,890,911,930,950,970,991,1010,1031,1050,1071,1090,1109,1130],"xSR":741.5,"ySR":501.8,"xT1":424.9,"yT1":0,"xT2":1058.1,"yT2":0,"toosoon":0,"cond_shown":"randomdotsizeEA","ratio_trial":250,"smaller_num":"3","larger_num":"12","correct_side":2,"subjID":"JulianCamiloNobzaArias24","gender":"0","age":"11","school":"6","test":{"fix_dur":[250,1500],"timestim":300,"targets_dim":[100,100],"targets_relative_coord":[0.3,0.7],"size_stim":[880,420],"start_dim":[100,100],"size_start":[300,300],"size_fix":60,"samplingrate":20,"img_types":["equaldotsize","equaldotanddens","randomdotsizeEA"],"ratios":[250,500,750,900],"rep_conds":9,"nTrials":120,"trials_to_rest":500,"Trials_order":[14,62,107,64,8,49,70,78,54,61,92,75,39,55,24,26,10,112,16,96,82,104,90,6,97,89,83,67,30,20,103,34,117,100,31,22,53,29,69,60,77,7,119,21,85,59,35,87,80,65,19,68,118,12,84,18,86,63,95,51,46,111,32,91,56,115,66,4,0,116,93,2,44,40,76,3,88,41,58,38,73,48,28,13,17,5,109,57,98,108,1,15,27,79,72,42,102,106,9,11,110,25,113,105,114,45,52,36,99,71,23,37,33,94,81,74,43,101,47,50],"cond_shown":["randomdotsizeEA","randomdotsizeEA","randomdotsizeEA","equaldotanddens","randomdotsizeEA","equaldotanddens","equaldotanddens","equaldotsize","equaldotsize","equaldotanddens","randomdotsizeEA","equaldotsize","equaldotsize","equaldotanddens","equaldotsize","randomdotsizeEA","equaldotanddens","equaldotanddens","equaldotanddens","equaldotsize","equaldotanddens","randomdotsizeEA","equaldotsize","equaldotsize","equaldotanddens","randomdotsizeEA","randomdotsizeEA","equaldotanddens","equaldotsize","randomdotsizeEA","equaldotanddens","equaldotanddens","equaldotsize","equaldotanddens","equaldotanddens","equaldotanddens","randomdotsizeEA","randomdotsizeEA","equaldotsize","equaldotsize","randomdotsizeEA","equaldotanddens","randomdotsizeEA","equaldotsize","equaldotanddens","randomdotsizeEA","randomdotsizeEA","equaldotsize","randomdotsizeEA","randomdotsizeEA","equaldotanddens","randomdotsizeEA","equaldotanddens","equaldotsize","equaldotsize","equaldotsize","randomdotsizeEA","equaldotsize","randomdotsizeEA","equaldotsize","equaldotanddens","equaldotsize","randomdotsizeEA","equaldotanddens","randomdotsizeEA","equaldotanddens","equaldotsize","equaldotanddens","equaldotsize","randomdotsizeEA","equaldotsize","randomdotsizeEA","randomdotsizeEA","equaldotanddens","equaldotanddens","equaldotsize","equaldotanddens","randomdotsizeEA","equaldotanddens","randomdotsizeEA","equaldotanddens","equaldotsize","equaldotanddens","equaldotanddens","randomdotsizeEA","randomdotsizeEA","equaldotanddens","equaldotsize","randomdotsizeEA","equaldotsize","equaldotanddens","equaldotsize","equaldotsize","equaldotanddens","equaldotsize","equaldotsize","equaldotsize","equaldotanddens","equaldotsize","randomdotsizeEA","randomdotsizeEA","equaldotanddens","randomdotsizeEA","equaldotsize","equaldotsize","equaldotsize","equaldotanddens","equaldotsize","equaldotsize","randomdotsizeEA","randomdotsizeEA","equaldotanddens","equaldotsize","equaldotanddens","equaldotsize","randomdotsizeEA","equaldotanddens","randomdotsizeEA","randomdotsizeEA","randomdotsizeEA"],"ratio_trial":[250,250,900,500,750,250,900,750,750,250,750,500,500,750,250,250,900,500,500,250,900,750,750,750,250,500,900,750,750,750,750,900,900,500,750,900,500,500,900,250,500,750,900,900,250,900,900,500,750,500,750,750,900,250,250,750,250,500,900,500,900,500,750,750,750,750,750,500,250,750,900,250,750,500,500,500,500,500,900,250,250,250,500,250,500,500,250,900,250,250,250,500,500,750,250,750,750,900,900,900,250,250,500,900,750,900,500,250,500,900,900,250,900,900,900,250,750,500,900,250],"smaller_num":["3","2","18","9","15","4","18","3","15","3","15","2","9","18","3","3","9","1","2","2","18","15","3","3","1","2","18","15","3","6","3","18","18","6","6","9","1","2","18","4","10","15","9","18","6","9","18","2","15","9","9","3","18","2","6","15","3","6","9","9","18","10","3","15","15","3","15","10","6","15","18","4","3","4","2","2","9","1","18","3","6","1","1","4","9","2","6","9","3","2","6","9","9","6","2","3","15","18","9","9","3","6","5","18","6","18","6","6","6","18","18","6","18","9","9","3","6","3","18","6"],"larger_num":["12","8","20","18","20","16","20","4","20","12","20","4","18","24","12","12","10","2","4","8","20","20","4","4","4","4","20","20","4","8","4","20","20","12","8","10","2","4","20","16","20","20","10","20","24","10","20","4","20","18","12","4","20","8","24","20","12","12","10","18","20","20","4","20","20","4","20","20","24","20","20","16","4","8","4","4","18","2","20","12","24","4","2","16","18","4","24","10","12","8","24","18","18","8","8","4","20","20","10","10","12","24","10","20","8","20","12","24","12","20","20","24","20","10","10","12","8","6","20","24"],"correct_side":[2,1,1,2,1,1,1,1,1,2,1,1,2,1,2,1,2,2,1,1,2,2,2,1,2,1,1,2,1,1,1,1,2,1,1,2,2,1,1,1,2,2,1,2,2,2,1,1,2,1,2,1,1,2,2,2,2,1,2,1,2,2,1,1,2,1,2,2,1,2,2,2,2,1,1,2,2,2,1,2,2,2,2,1,1,2,1,1,1,1,1,2,1,1,1,1,2,1,2,2,1,2,2,1,1,1,1,1,1,2,1,1,1,1,2,2,1,2,1,1],"img_shown":["img/250/randomdotsizeEA/R/11_Ratio_250_L_3_R_12.png","img/250/randomdotsizeEA/L/7_Ratio_250_L_8_R_2.png","img/900/randomdotsizeEA/L/10_Ratio_900_L_20_R_18.png","img/500/equaldotanddens/R/6_Ratio_500_L_9_R_18.png","img/750/randomdotsizeEA/L/1_Ratio_750_L_20_R_15.png","img/250/equaldotanddens/L/2_Ratio_250_L_16_R_4.png","img/900/equaldotanddens/L/10_Ratio_900_L_20_R_18.png","img/750/equaldotsize/L/9_Ratio_750_L_4_R_3.png","img/750/equaldotsize/L/1_Ratio_750_L_20_R_15.png","img/250/equaldotanddens/R/4_Ratio_250_L_3_R_12.png","img/750/randomdotsizeEA/L/1_Ratio_750_L_20_R_15.png","img/500/equaldotsize/L/5_Ratio_500_L_4_R_2.png","img/500/equaldotsize/R/6_Ratio_500_L_9_R_18.png","img/750/equaldotanddens/L/6_Ratio_750_L_24_R_18.png","img/250/equaldotsize/R/4_Ratio_250_L_3_R_12.png","img/250/randomdotsizeEA/L/14_Ratio_250_L_12_R_3.png","img/900/equaldotanddens/R/3_Ratio_900_L_9_R_10.png","img/500/equaldotanddens/R/15_Ratio_500_L_1_R_2.png","img/500/equaldotanddens/L/10_Ratio_500_L_4_R_2.png","img/250/equaldotsize/L/1_Ratio_250_L_8_R_2.png","img/900/equaldotanddens/R/14_Ratio_900_L_18_R_20.png","img/750/randomdotsizeEA/R/4_Ratio_750_L_15_R_20.png","img/750/equaldotsize/R/12_Ratio_750_L_3_R_4.png","img/750/equaldotsize/L/9_Ratio_750_L_4_R_3.png","img/250/equaldotanddens/R/8_Ratio_250_L_1_R_4.png","img/500/randomdotsizeEA/L/10_Ratio_500_L_4_R_2.png","img/900/randomdotsizeEA/L/2_Ratio_900_L_20_R_18.png","img/750/equaldotanddens/R/5_Ratio_750_L_15_R_20.png","img/750/equaldotsize/L/9_Ratio_750_L_4_R_3.png","img/750/randomdotsizeEA/L/13_Ratio_750_L_8_R_6.png","img/750/equaldotanddens/L/9_Ratio_750_L_4_R_3.png","img/900/equaldotanddens/L/2_Ratio_900_L_20_R_18.png","img/900/equaldotsize/R/11_Ratio_900_L_18_R_20.png","img/500/equaldotanddens/L/11_Ratio_500_L_12_R_6.png","img/750/equaldotanddens/L/13_Ratio_750_L_8_R_6.png","img/900/equaldotanddens/R/7_Ratio_900_L_9_R_10.png","img/500/randomdotsizeEA/R/12_Ratio_500_L_1_R_2.png","img/500/randomdotsizeEA/L/5_Ratio_500_L_4_R_2.png","img/900/equaldotsize/L/10_Ratio_900_L_20_R_18.png","img/250/equaldotsize/L/2_Ratio_250_L_16_R_4.png","img/500/randomdotsizeEA/R/3_Ratio_500_L_10_R_20.png","img/750/equaldotanddens/R/4_Ratio_750_L_15_R_20.png","img/900/randomdotsizeEA/L/1_Ratio_900_L_10_R_9.png","img/900/equaldotsize/R/11_Ratio_900_L_18_R_20.png","img/250/equaldotanddens/R/6_Ratio_250_L_6_R_24.png","img/900/randomdotsizeEA/R/15_Ratio_900_L_9_R_10.png","img/900/randomdotsizeEA/L/4_Ratio_900_L_20_R_18.png","img/500/equaldotsize/L/5_Ratio_500_L_4_R_2.png","img/750/randomdotsizeEA/R/4_Ratio_750_L_15_R_20.png","img/500/randomdotsizeEA/L/4_Ratio_500_L_18_R_9.png","img/750/equaldotanddens/R/15_Ratio_750_L_9_R_12.png","img/750/randomdotsizeEA/L/8_Ratio_750_L_4_R_3.png","img/900/equaldotanddens/L/4_Ratio_900_L_20_R_18.png","img/250/equaldotsize/R/13_Ratio_250_L_2_R_8.png","img/250/equaldotsize/R/6_Ratio_250_L_6_R_24.png","img/750/equaldotsize/R/3_Ratio_750_L_15_R_20.png","img/250/randomdotsizeEA/R/11_Ratio_250_L_3_R_12.png","img/500/equaldotsize/L/11_Ratio_500_L_12_R_6.png","img/900/randomdotsizeEA/R/6_Ratio_900_L_9_R_10.png","img/500/equaldotsize/L/4_Ratio_500_L_18_R_9.png","img/900/equaldotanddens/R/11_Ratio_900_L_18_R_20.png","img/500/equaldotsize/R/3_Ratio_500_L_10_R_20.png","img/750/randomdotsizeEA/L/9_Ratio_750_L_4_R_3.png","img/750/equaldotanddens/L/1_Ratio_750_L_20_R_15.png","img/750/randomdotsizeEA/R/3_Ratio_750_L_15_R_20.png","img/750/equaldotanddens/L/9_Ratio_750_L_4_R_3.png","img/750/equaldotsize/R/5_Ratio_750_L_15_R_20.png","img/500/equaldotanddens/R/3_Ratio_500_L_10_R_20.png","img/250/equaldotsize/L/5_Ratio_250_L_24_R_6.png","img/750/randomdotsizeEA/R/4_Ratio_750_L_15_R_20.png","img/900/equaldotsize/R/14_Ratio_900_L_18_R_20.png","img/250/randomdotsizeEA/R/10_Ratio_250_L_4_R_16.png","img/750/randomdotsizeEA/R/12_Ratio_750_L_3_R_4.png","img/500/equaldotanddens/L/8_Ratio_500_L_8_R_4.png","img/500/equaldotanddens/L/5_Ratio_500_L_4_R_2.png","img/500/equaldotsize/R/9_Ratio_500_L_2_R_4.png","img/500/equaldotanddens/R/6_Ratio_500_L_9_R_18.png","img/500/randomdotsizeEA/R/15_Ratio_500_L_1_R_2.png","img/900/equaldotanddens/L/10_Ratio_900_L_20_R_18.png","img/250/randomdotsizeEA/R/11_Ratio_250_L_3_R_12.png","img/250/equaldotanddens/R/6_Ratio_250_L_6_R_24.png","img/250/equaldotsize/R/8_Ratio_250_L_1_R_4.png","img/500/equaldotanddens/R/15_Ratio_500_L_1_R_2.png","img/250/equaldotanddens/L/2_Ratio_250_L_16_R_4.png","img/500/randomdotsizeEA/L/4_Ratio_500_L_18_R_9.png","img/500/randomdotsizeEA/R/9_Ratio_500_L_2_R_4.png","img/250/equaldotanddens/L/5_Ratio_250_L_24_R_6.png","img/900/equaldotsize/L/1_Ratio_900_L_10_R_9.png","img/250/randomdotsizeEA/L/14_Ratio_250_L_12_R_3.png","img/250/equaldotsize/L/7_Ratio_250_L_8_R_2.png","img/250/equaldotanddens/L/5_Ratio_250_L_24_R_6.png","img/500/equaldotsize/R/6_Ratio_500_L_9_R_18.png","img/500/equaldotsize/L/4_Ratio_500_L_18_R_9.png","img/750/equaldotanddens/L/14_Ratio_750_L_8_R_6.png","img/250/equaldotsize/L/3_Ratio_250_L_8_R_2.png","img/750/equaldotsize/L/8_Ratio_750_L_4_R_3.png","img/750/equaldotsize/R/4_Ratio_750_L_15_R_20.png","img/900/equaldotanddens/L/8_Ratio_900_L_20_R_18.png","img/900/equaldotsize/R/15_Ratio_900_L_9_R_10.png","img/900/randomdotsizeEA/R/7_Ratio_900_L_9_R_10.png","img/250/randomdotsizeEA/L/14_Ratio_250_L_12_R_3.png","img/250/equaldotanddens/R/6_Ratio_250_L_6_R_24.png","img/500/randomdotsizeEA/R/14_Ratio_500_L_5_R_10.png","img/900/equaldotsize/L/8_Ratio_900_L_20_R_18.png","img/750/equaldotsize/L/14_Ratio_750_L_8_R_6.png","img/900/equaldotsize/L/4_Ratio_900_L_20_R_18.png","img/500/equaldotanddens/L/11_Ratio_500_L_12_R_6.png","img/250/equaldotsize/L/5_Ratio_250_L_24_R_6.png","img/500/equaldotsize/L/11_Ratio_500_L_12_R_6.png","img/900/randomdotsizeEA/R/14_Ratio_900_L_18_R_20.png","img/900/randomdotsizeEA/L/4_Ratio_900_L_20_R_18.png","img/250/equaldotanddens/L/5_Ratio_250_L_24_R_6.png","img/900/equaldotsize/L/8_Ratio_900_L_20_R_18.png","img/900/equaldotanddens/L/1_Ratio_900_L_10_R_9.png","img/900/equaldotsize/R/5_Ratio_900_L_9_R_10.png","img/250/randomdotsizeEA/R/11_Ratio_250_L_3_R_12.png","img/750/equaldotanddens/L/14_Ratio_750_L_8_R_6.png","img/500/randomdotsizeEA/R/2_Ratio_500_L_3_R_6.png","img/900/randomdotsizeEA/L/4_Ratio_900_L_20_R_18.png","img/250/randomdotsizeEA/L/5_Ratio_250_L_24_R_6.png"],"Rat0":[["12_Ratio_0_L_9_R_0.png","13_Ratio_0_L_6_R_0.png","5_Ratio_0_L_2_R_0.png","6_Ratio_0_L_4_R_0.png","8_Ratio_0_L_6_R_0.png"],["1_Ratio_0_L_0_R_17.png","10_Ratio_0_L_0_R_22.png","11_Ratio_0_L_0_R_1.png","14_Ratio_0_L_0_R_24.png","15_Ratio_0_L_0_R_4.png","2_Ratio_0_L_0_R_5.png","3_Ratio_0_L_0_R_17.png","4_Ratio_0_L_0_R_7.png","7_Ratio_0_L_0_R_19.png","9_Ratio_0_L_0_R_15.png"]],"Rat250":[["1_Ratio_250_L_8_R_2.png","14_Ratio_250_L_12_R_3.png","15_Ratio_250_L_12_R_3.png","2_Ratio_250_L_16_R_4.png","3_Ratio_250_L_8_R_2.png","5_Ratio_250_L_24_R_6.png","7_Ratio_250_L_8_R_2.png"],["10_Ratio_250_L_4_R_16.png","11_Ratio_250_L_3_R_12.png","12_Ratio_250_L_5_R_20.png","13_Ratio_250_L_2_R_8.png","4_Ratio_250_L_3_R_12.png","6_Ratio_250_L_6_R_24.png","8_Ratio_250_L_1_R_4.png","9_Ratio_250_L_3_R_12.png"]],"Rat500":[["10_Ratio_500_L_4_R_2.png","11_Ratio_500_L_12_R_6.png","13_Ratio_500_L_12_R_6.png","4_Ratio_500_L_18_R_9.png","5_Ratio_500_L_4_R_2.png","7_Ratio_500_L_10_R_5.png","8_Ratio_500_L_8_R_4.png"],["1_Ratio_500_L_9_R_18.png","12_Ratio_500_L_1_R_2.png","14_Ratio_500_L_5_R_10.png","15_Ratio_500_L_1_R_2.png","2_Ratio_500_L_3_R_6.png","3_Ratio_500_L_10_R_20.png","6_Ratio_500_L_9_R_18.png","9_Ratio_500_L_2_R_4.png"]],"Rat750":[["1_Ratio_750_L_20_R_15.png","10_Ratio_750_L_4_R_3.png","13_Ratio_750_L_8_R_6.png","14_Ratio_750_L_8_R_6.png","6_Ratio_750_L_24_R_18.png","8_Ratio_750_L_4_R_3.png","9_Ratio_750_L_4_R_3.png"],["11_Ratio_750_L_12_R_16.png","12_Ratio_750_L_3_R_4.png","15_Ratio_750_L_9_R_12.png","2_Ratio_750_L_6_R_8.png","3_Ratio_750_L_15_R_20.png","4_Ratio_750_L_15_R_20.png","5_Ratio_750_L_15_R_20.png","7_Ratio_750_L_3_R_4.png"]],"Rat900":[["1_Ratio_900_L_10_R_9.png","10_Ratio_900_L_20_R_18.png","2_Ratio_900_L_20_R_18.png","4_Ratio_900_L_20_R_18.png","8_Ratio_900_L_20_R_18.png"],["11_Ratio_900_L_18_R_20.png","12_Ratio_900_L_18_R_20.png","13_Ratio_900_L_18_R_20.png","14_Ratio_900_L_18_R_20.png","15_Ratio_900_L_9_R_10.png","3_Ratio_900_L_9_R_10.png","5_Ratio_900_L_9_R_10.png","6_Ratio_900_L_9_R_10.png","7_Ratio_900_L_9_R_10.png","9_Ratio_900_L_18_R_20.png"]],"Rat1000":[["10_Ratio_1000_L_16_R_16.png","11_Ratio_1000_L_6_R_6.png","12_Ratio_1000_L_14_R_14.png","13_Ratio_1000_L_20_R_20.png","15_Ratio_1000_L_15_R_15.png","2_Ratio_1000_L_17_R_17.png","4_Ratio_1000_L_9_R_9.png","5_Ratio_1000_L_6_R_6.png","6_Ratio_1000_L_19_R_19.png","8_Ratio_1000_L_14_R_14.png","9_Ratio_1000_L_25_R_25.png"],["1_Ratio_1000_L_1_R_1.png","14_Ratio_1000_L_17_R_17.png","3_Ratio_1000_L_17_R_17.png","7_Ratio_1000_L_6_R_6.png"]]}},{"start_time":1551881147570,"click_time":1551881149938,"finger_time":1551881149618,"fix_duration":1031.8042581397451,"trial":1,"RT":2048,"MT":320,"sideResp":1,"stimulus":"img/250/randomdotsizeEA/L/7_Ratio_250_L_8_R_2.png","xmouse":[788,788,788,788,788,788,788,788,788,788,788,788,788,788,788,788,788,788,788,788,788,788,788,788,788,788,788,788,788,788,788,788,788,788,788,788,788,788,788,788,788,788,788,788,788,788,788,788,788,788,788,788,788,788,788,788,788,788,788,788,788,788,788,788,788,788,788,788,788,788,788,788,788,788,788,788,788,788,788,788,788,788,788,788,788,788,788,788,788,788,788,788,788,788,788,788,788,788,788,788,788,787,773,771,770,767,757,736,716,689,663,627,580,563,551,544,535,518,509],"ymouse":[619,619,619,619,619,619,619,619,619,619,619,619,619,619,619,619,619,619,619,619,619,619,619,619,619,619,619,619,619,619,619,619,619,619,619,619,619,619,619,619,619,619,619,619,619,619,619,619,619,619,619,619,619,619,619,619,619,619,619,619,619,619,619,619,619,619,619,619,619,619,619,619,619,619,619,619,619,619,619,619,619,619,619,619,619,619,619,619,619,619,619,619,619,619,619,619,619,619,619,619,616,609,562,551,543,537,514,463,420,377,334,293,239,220,204,189,169,112,89],"timestamp_mouse":[8,30,48,69,89,108,128,148,168,188,208,228,249,269,288,308,329,349,368,390,409,430,448,469,489,508,529,549,569,588,609,628,648,669,689,708,728,749,768,788,809,828,848,868,888,909,930,948,968,988,1008,1029,1050,1069,1089,1109,1129,1150,1168,1188,1208,1228,1249,1268,1289,1308,1328,1348,1368,1388,1409,1428,1449,1468,1488,1508,1528,1549,1568,1588,1608,1628,1648,1668,1689,1708,1728,1748,1769,1788,1809,1828,1848,1868,1888,1908,1929,1949,1968,1988,2008,2028,2048,2068,2088,2109,2129,2149,2169,2188,2209,2228,2248,2269,2289,2309,2328,2347,2368],"xSR":741.5,"ySR":573.95,"xT1":424.9,"yT1":0,"xT2":1058.1,"yT2":0,"toosoon":0,"cond_shown":"randomdotsizeEA","ratio_trial":250,"smaller_num":"2","larger_num":"8","correct_side":1,"subjID":"JulianCamiloNobzaArias24","gender":"0","age":"11","school":"6"},{"start_time":1551881153448,"click_time":1551881154999,"finger_time":1551881154119,"fix_duration":1008.5407367265549,"trial":2,"RT":671,"MT":880,"sideResp":1,"stimulus":"img/900/randomdotsizeEA/L/10_Ratio_900_L_20_R_18.png","xmouse":[800,800,800,800,800,800,800,800,800,800,800,800,800,800,800,800,800,800,800,800,800,800,800,800,800,800,800,800,800,800,800,807,816,869,898,919,937,960,999,1014,1019,1022,1022,1029,1030,1030,1030,1031,1037,1039,1040,1040,1040,1040,1040,1036,1026,1016,1010,1010,1010,1009,1008,1000,994,984,972,954,918,900,879,851,811,699,604,555,530,519],"ymouse":[649,649,649,649,649,649,649,649,649,649,649,649,649,649,649,649,649,649,649,649,649,649,649,649,649,649,649,649,649,649,649,645,635,589,559,529,500,466,389,342,304,269,239,209,205,205,205,204,200,197,196,195,195,195,195,198,204,208,212,212,212,212,212,212,211,207,201,195,183,176,171,162,151,119,93,80,72,67],"timestamp_mouse":[10,30,50,71,90,111,130,150,171,190,210,230,251,270,290,311,330,350,371,391,410,430,450,470,491,510,530,550,570,590,610,630,650,671,690,709,731,750,770,791,810,831,850,870,890,910,930,950,970,990,1010,1031,1050,1070,1091,1110,1130,1150,1170,1190,1210,1230,1250,1271,1290,1310,1330,1351,1370,1390,1411,1431,1450,1470,1490,1510,1531,1551],"xSR":741.5,"ySR":573.95,"xT1":424.9,"yT1":0,"xT2":1058.1,"yT2":0,"toosoon":0,"cond_shown":"randomdotsizeEA","ratio_trial":900,"smaller_num":"18","larger_num":"20","correct_side":1,"subjID":"JulianCamiloNobzaArias24","gender":"0","age":"11","school":"6"},{"start_time":1551881157009,"click_time":1551881158058,"finger_time":1551881157718,"fix_duration":769.9782852384486,"trial":3,"RT":709,"MT":340,"sideResp":2,"stimulus":"img/500/equaldotanddens/R/6_Ratio_500_L_9_R_18.png","xmouse":[784,784,784,784,784,784,784,784,784,784,784,784,784,784,784,784,784,784,784,784,784,784,784,784,784,784,784,784,784,784,784,791,795,805,822,852,874,906,980,1063,1162,1173,1175,1175,1175,1175,1175,1175,1173,1167,1143,1131,1122],"ymouse":[637,637,637,637,637,637,637,637,637,637,637,637,637,637,637,637,637,637,637,637,637,637,637,637,637,637,637,637,637,637,637,623,618,607,587,549,521,484,415,343,274,266,264,264,264,264,264,262,243,212,130,100,81],"timestamp_mouse":[12,39,49,69,89,109,129,150,170,190,209,229,250,269,289,309,329,349,371,389,410,430,449,469,489,509,530,550,569,590,610,630,649,669,689,709,731,749,769,789,809,829,849,869,890,910,929,950,970,990,1009,1029,1049],"xSR":741.5,"ySR":573.95,"xT1":424.9,"yT1":0,"xT2":1058.1,"yT2":0,"toosoon":0,"cond_shown":"equaldotanddens","ratio_trial":500,"smaller_num":"9","larger_num":"18","correct_side":2,"subjID":"JulianCamiloNobzaArias24","gender":"0","age":"11","school":"6"},{"start_time":1551881160060,"click_time":1551881161618,"finger_time":1551881160799,"fix_duration":1119.720977100551,"trial":4,"RT":739,"MT":819,"sideResp":1,"stimulus":"img/750/randomdotsizeEA/L/1_Ratio_750_L_20_R_15.png","xmouse":[839,839,839,839,839,839,839,838,837,836,836,835,834,833,832,832,832,832,832,832,832,832,832,832,832,832,832,832,832,832,832,832,832,831,836,840,846,856,862,864,864,864,864,864,864,863,862,850,844,836,827,813,735,685,651,637,628,621,619,613,602,587,549,547,547,547,547,547,547,547,547,547,547,547,547,547,545,522],"ymouse":[642,642,642,642,642,642,642,642,643,643,643,644,644,645,645,646,646,646,646,646,646,646,646,646,646,646,646,646,646,646,646,646,646,642,629,615,597,560,539,522,510,503,500,500,500,499,499,501,501,500,494,477,365,309,269,251,238,221,210,189,166,142,100,99,98,98,98,98,98,98,98,98,98,98,98,98,98,96],"timestamp_mouse":[18,40,58,78,98,119,138,158,178,199,218,239,260,278,298,318,338,358,378,399,418,439,459,478,499,518,538,558,578,598,619,638,658,678,698,719,739,758,778,798,818,838,859,879,899,918,938,958,979,999,1019,1038,1058,1078,1098,1118,1139,1158,1178,1198,1218,1238,1258,1279,1298,1318,1338,1359,1378,1398,1418,1438,1459,1479,1499,1518,1539,1558],"xSR":741.5,"ySR":573.95,"xT1":424.9,"yT1":0,"xT2":1058.1,"yT2":0,"toosoon":0,"cond_shown":"randomdotsizeEA","ratio_trial":750,"smaller_num":"15","larger_num":"20","correct_side":1,"subjID":"JulianCamiloNobzaArias24","gender":"0","age":"11","school":"6"},{"start_time":1551881162939,"click_time":1551881164100,"finger_time":1551881163778,"fix_duration":339.87379523964455,"trial":5,"RT":839,"MT":322,"sideResp":1,"stimulus":"img/250/equaldotanddens/L/2_Ratio_250_L_16_R_4.png","xmouse":[769,769,769,769,769,769,769,769,769,769,769,769,769,769,769,769,769,769,769,769,769,769,769,769,769,769,769,769,769,769,769,769,769,769,769,769,769,769,769,769,767,758,741,715,669,656,649,646,643,638,632,623,614,609,599,589,570,537,448],"ymouse":[614,614,614,614,614,614,614,614,614,614,614,614,614,614,614,614,614,614,614,614,614,614,614,614,614,614,614,614,614,614,614,614,614,614,614,614,614,614,614,614,606,581,533,466,332,288,266,253,241,220,206,187,174,167,156,148,138,121,73],"timestamp_mouse":[1,20,40,59,80,99,120,139,159,180,200,219,239,259,279,299,320,340,359,379,400,419,439,459,479,500,520,539,560,579,599,620,640,660,680,699,719,740,759,780,800,819,839,860,879,900,919,940,959,979,998,1019,1039,1059,1079,1099,1119,1140,1161],"xSR":741.5,"ySR":573.95,"xT1":424.9,"yT1":0,"xT2":1058.1,"yT2":0,"toosoon":0,"cond_shown":"equaldotanddens","ratio_trial":250,"smaller_num":"4","larger_num":"16","correct_side":1,"subjID":"JulianCamiloNobzaArias24","gender":"0","age":"11","school":"6"},{"start_time":1551881166234,"click_time":1551881167739,"finger_time":1551881166918,"fix_duration":1275.6958654798439,"trial":6,"RT":684,"MT":821,"sideResp":2,"stimulus":"img/900/equaldotanddens/L/10_Ratio_900_L_20_R_18.png","xmouse":[772,772,772,772,772,772,772,772,772,772,772,772,772,772,772,772,772,772,772,772,772,772,772,772,772,772,772,772,772,779,790,803,822,839,871,891,924,958,987,1017,1025,1030,1033,1036,1043,1043,1043,1043,1043,1043,1043,1043,1043,1043,1043,1043,1043,1043,1044,1049,1050,1051,1052,1052,1052,1052,1052,1052,1052,1049,1047,1047,1048,1051,1059,1065],"ymouse":[632,632,632,633,634,634,634,634,634,634,634,634,634,634,634,634,634,634,634,634,634,634,634,634,634,634,634,634,634,631,625,613,596,580,537,499,440,393,356,325,316,309,304,298,284,279,279,279,279,279,279,279,279,279,279,279,279,279,277,267,262,260,256,254,247,244,238,229,213,181,166,153,144,133,104,85],"timestamp_mouse":[9,33,45,64,84,105,125,144,164,184,204,224,244,264,284,304,324,344,364,384,405,424,444,465,485,504,524,545,564,584,605,625,645,664,684,704,724,745,764,784,804,824,844,864,884,904,925,946,965,985,1005,1024,1044,1066,1085,1104,1124,1145,1164,1183,1205,1224,1244,1264,1284,1306,1325,1345,1364,1384,1405,1424,1445,1464,1484,1505],"xSR":741.5,"ySR":573.95,"xT1":424.9,"yT1":0,"xT2":1058.1,"yT2":0,"toosoon":0,"cond_shown":"equaldotanddens","ratio_trial":900,"smaller_num":"18","larger_num":"20","correct_side":1,"subjID":"JulianCamiloNobzaArias24","gender":"0","age":"11","school":"6"},{"start_time":1551881168831,"click_time":1551881181838,"finger_time":1551881171138,"fix_duration":250,"trial":7,"RT":2307,"MT":10700,"sideResp":2,"stimulus":"img/750/equaldotsize/L/9_Ratio_750_L_4_R_3.png","xmouse":[753,753,753,753,753,753,753,753,753,753,753,753,753,753,754,757,759,759,759,759,759,759,759,759,759,759,759,759,759,759,759,759,759,759,759,759,759,759,759,759,759,759,759,759,759,759,759,759,759,759,759,759,759,759,759,759,759,759,759,760,763,770,772,774,775,775,775,777,778,784,785,785,785,785,785,785,785,785,785,785,787,790,795,802,819,821,821,821,821,821,821,821,821,820,810,810,810,810,807,797,788,782,778,777,772,770,768,767,767,767,767,770,772,785,823,850,851,852,852,846,832,810,789,766,743,743,743,743,743,746,753,761,768,771,775,775,776,777,777,777,777,777,777,777,777,777,777,777,777,777,777,777,777,777,782,786,790,793,794,799,801,803,805,805,805,805,805,805,805,805,805,805,803,801,790,785,781,781,781,781,781,781,787,794,816,816,816,816,816,810,799,793,788,784,782,782,782,782,789,808,817,819,819,819,805,797,767,746,727,724,724,724,723,726,730,692,643,587,568,566,566,566,566,568,647,735,835,929,1009,1082,1088,1089,1089,1089,1080,1049,1025,965,880,765,754,753,753,753,753,753,753,753,753,753,753,753,752,753,757,758,758,758,758,758,758,758,758,758,758,758,758,758,758,758,758,758,758,758,758,758,758,758,758,758,758,758,758,758,758,758,758,758,758,758,758,758,758,758,758,758,763,766,771,775,775,775,775,775,775,775,775,775,775,775,775,775,779,780,780,780,780,780,780,780,780,780,780,780,780,780,780,780,780,780,780,780,780,780,780,780,780,780,780,780,780,780,780,780,780,780,780,780,780,780,780,780,780,780,780,780,780,780,780,780,780,780,780,779,776,776,778,778,777,777,771,762,750,729,706,698,694,689,683,673,667,657,652,649,643,642,640,640,640,640,640,640,640,640,640,640,640,640,640,640,640,640,640,640,640,640,640,640,640,640,640,640,640,640,640,640,640,640,640,640,640,640,640,640,640,640,640,640,640,640,640,640,640,640,640,640,640,640,640,640,640,640,640,640,640,640,640,640,640,640,640,640,640,640,640,640,640,640,640,640,640,640,640,640,640,640,640,640,640,640,640,640,640,640,640,640,640,640,640,640,640,640,640,640,640,640,640,640,640,640,640,640,640,640,640,640,640,640,640,640,640,640,640,640,640,640,640,640,640,640,640,640,640,640,640,640,640,640,640,640,640,640,640,640,640,640,640,640,640,640,640,640,640,640,640,640,640,640,640,640,640,640,640,640,640,640,640,640,640,640,640,640,640,640,640,640,640,640,640,640,640,640,640,602,632,641,648,651,654,662,665,671,678,679,685,694,695,695,699,717,730,743,754,759,764,766,770,775,777,780,780,783,785,786,791,792,792,792,792,792,793,794,795,797,797,797,797,797,797,797,797,797,797,797,797,797,797,797,797,797,797,797,797,797,797,797,797,797,797,797,797,797,797,797,797,797,800,804,819,866,893,917,935,950,988,999,1005,1013,1022,1043,1062],"ymouse":[617,617,617,617,617,617,617,617,617,617,617,617,617,617,618,624,628,628,628,628,628,628,628,628,628,628,628,628,628,628,628,628,628,628,628,628,628,628,628,628,628,628,628,628,628,628,628,628,628,628,628,628,628,628,628,628,628,628,629,633,637,645,649,653,657,657,657,659,660,667,668,669,669,669,669,669,669,669,669,669,668,664,657,647,629,627,627,627,627,627,627,627,628,629,632,632,632,632,633,639,644,647,649,650,652,653,655,656,656,656,656,656,655,648,644,644,644,644,644,649,658,675,689,702,717,717,717,717,717,709,690,674,661,655,645,643,641,638,637,637,637,637,637,637,637,637,637,637,637,637,637,637,637,637,635,632,630,629,628,625,625,623,623,622,622,622,622,622,622,622,622,622,622,623,626,627,628,628,628,628,628,628,627,626,626,626,626,626,628,630,632,632,632,632,632,632,632,632,628,619,618,618,618,618,620,621,621,620,617,616,616,616,613,594,472,354,281,223,209,209,209,209,209,215,315,403,494,574,638,702,718,726,729,730,730,726,716,701,674,639,636,635,635,635,635,635,635,635,635,635,635,635,635,633,631,631,631,631,631,631,631,631,631,631,631,631,631,631,631,631,631,631,631,631,631,631,631,631,631,631,631,631,631,631,631,631,631,631,631,631,631,631,631,631,631,631,628,627,624,622,622,622,622,622,622,622,622,622,622,622,622,622,620,619,619,619,619,619,619,619,619,619,619,619,619,619,619,619,619,619,619,619,619,619,619,619,619,619,619,619,619,619,619,619,619,619,619,619,619,619,619,619,619,619,619,619,619,619,619,619,619,619,619,622,650,683,715,742,749,749,752,755,758,764,773,778,780,784,789,803,817,832,842,849,867,874,880,880,880,880,880,880,880,880,880,880,880,880,880,880,880,880,880,880,880,880,880,880,880,880,880,880,880,880,880,880,880,880,880,880,880,880,880,880,880,880,880,880,880,880,880,880,880,880,880,880,880,880,880,880,880,880,880,880,880,880,880,880,880,880,880,880,880,880,880,880,880,880,880,880,880,880,880,880,880,880,880,880,880,880,880,880,880,880,880,880,880,880,880,880,880,880,880,880,880,880,880,880,880,880,880,880,880,880,880,880,880,880,880,880,880,880,880,880,880,880,880,880,880,880,880,880,880,880,880,880,880,880,880,880,880,880,880,880,880,880,880,880,880,880,880,880,880,880,880,880,880,880,880,880,880,880,880,880,880,880,880,880,880,880,880,880,880,880,880,880,880,880,880,880,880,880,880,873,816,794,778,767,758,744,741,736,732,732,730,727,727,726,723,716,712,706,700,696,689,686,683,680,678,675,675,673,672,670,660,656,655,655,655,653,650,648,641,636,633,633,633,633,633,633,633,633,633,633,633,633,633,633,633,633,633,633,633,633,633,633,633,633,633,633,633,633,633,633,633,633,628,623,603,531,486,434,391,342,245,216,191,167,143,89,55],"timestamp_mouse":[10,28,47,67,87,107,127,147,168,187,207,227,248,267,287,308,327,347,368,387,407,427,447,467,487,507,527,547,568,588,607,628,647,667,687,708,727,749,767,788,808,827,847,868,887,908,927,948,967,988,1008,1027,1047,1067,1087,1107,1128,1147,1167,1188,1207,1228,1247,1268,1287,1307,1328,1347,1367,1387,1407,1428,1448,1467,1487,1508,1528,1547,1567,1588,1607,1627,1647,1668,1687,1707,1727,1748,1767,1787,1807,1827,1848,1868,1887,1908,1927,1947,1968,1987,2007,2027,2048,2068,2087,2107,2127,2147,2169,2187,2208,2227,2247,2267,2287,2307,2328,2348,2368,2387,2408,2427,2447,2468,2487,2508,2527,2548,2567,2587,2608,2627,2647,2667,2687,2707,2727,2748,2767,2787,2807,2828,2847,2867,2888,2907,2929,2947,2967,2987,3007,3028,3047,3067,3087,3107,3128,3147,3167,3187,3208,3227,3247,3267,3288,3308,3327,3348,3367,3388,3408,3428,3447,3468,3487,3507,3528,3547,3567,3587,3608,3627,3647,3668,3687,3708,3728,3747,3767,3787,3807,3828,3848,3868,3887,3907,3927,3947,3967,3987,4007,4027,4048,4067,4087,4108,4127,4147,4167,4187,4208,4227,4247,4267,4287,4307,4328,4347,4368,4388,4407,4427,4447,4467,4487,4508,4527,4548,4569,4587,4607,4627,4647,4668,4687,4707,4727,4748,4767,4787,4809,4828,4847,4869,4887,4908,4927,4948,4967,4987,5007,5028,5047,5067,5087,5108,5128,5148,5169,5188,5207,5227,5248,5267,5287,5308,5327,5348,5367,5387,5407,5427,5447,5467,5487,5508,5528,5548,5567,5587,5607,5627,5647,5667,5687,5708,5728,5748,5767,5788,5808,5827,5848,5867,5887,5907,5927,5947,5967,5986,6008,6027,6047,6068,6087,6108,6127,6147,6167,6187,6208,6227,6247,6268,6287,6308,6327,6348,6367,6388,6407,6428,6447,6467,6488,6507,6527,6548,6567,6587,6608,6627,6648,6667,6687,6708,6727,6747,6767,6787,6807,6827,6847,6867,6887,6908,6927,6947,6967,6988,7007,7027,7048,7067,7087,7108,7127,7148,7167,7187,7208,7227,7247,7267,7287,7308,7327,7347,7367,7387,7407,7427,7447,7467,7487,7508,7527,7547,7567,7587,7606,7627,7647,7667,7687,7707,7727,7748,7767,7788,7808,7828,7847,7867,7887,7908,7928,7948,7968,7987,8008,8027,8047,8067,8088,8108,8131,8147,8167,8188,8207,8227,8248,8268,8288,8307,8328,8347,8367,8389,8407,8427,8447,8467,8487,8508,8527,8547,8567,8587,8607,8628,8647,8668,8687,8707,8727,8748,8767,8787,8807,8827,8848,8867,8887,8908,8927,8947,8969,8987,9007,9027,9047,9067,9087,9107,9128,9148,9168,9188,9207,9228,9247,9269,9287,9307,9327,9347,9367,9388,9408,9427,9448,9467,9488,9508,9527,9547,9567,9588,9607,9627,9647,9667,9688,9709,9727,9748,9767,9788,9807,9827,9847,9867,9887,9908,9927,9947,9967,9987,10008,10027,10047,10067,10087,10108,10127,10147,10167,10187,10208,10228,10247,10269,10288,10307,10327,10347,10368,10387,10408,10428,10447,10468,10488,10507,10528,10548,10567,10587,10608,10627,10647,10668,10687,10708,10727,10747,10768,10788,10807,10827,10847,10867,10888,10908,10927,10948,10967,10988,11008,11028,11047,11067,11087,11106,11127,11147,11167,11187,11208,11227,11247,11268,11288,11307,11327,11348,11368,11387,11408,11427,11447,11467,11487,11507,11527,11547,11568,11586,11607,11627,11647,11667,11688,11708,11728,11747,11767,11787,11807,11827,11848,11867,11888,11908,11927,11947,11967,11987,12008,12027,12047,12068,12088,12108,12127,12147,12167,12187,12207,12227,12247,12267,12288,12307,12327,12347,12367,12387,12408,12428,12447,12467,12487,12508,12527,12547,12568,12587,12608,12627,12648,12667,12687,12707,12728,12747,12768,12787,12808,12827,12847,12868,12887,12907,12927,12948,12967,12987,13007],"xSR":741.5,"ySR":573.95,"xT1":424.9,"yT1":0,"xT2":1058.1,"yT2":0,"toosoon":0,"cond_shown":"equaldotsize","ratio_trial":750,"smaller_num":"3","larger_num":"4","correct_side":1,"subjID":"JulianCamiloNobzaArias24","gender":"0","age":"11","school":"6"},{"start_time":1551881185566,"click_time":1551881186718,"finger_time":1551881186318,"fix_duration":925.9809877117632,"trial":8,"RT":752,"MT":400,"sideResp":1,"stimulus":"img/750/equaldotsize/L/1_Ratio_750_L_20_R_15.png","xmouse":[781,781,781,781,781,781,781,781,781,781,781,781,781,781,781,781,781,781,781,781,781,781,781,781,781,781,781,781,781,781,781,781,781,781,781,781,780,755,695,655,616,580,553,529,528,526,524,514,509,507,507,507,508,509,510,510,510,481],"ymouse":[632,632,632,632,632,632,632,632,632,632,632,632,632,632,632,632,632,632,632,632,632,632,632,632,632,632,632,632,632,632,632,632,632,632,632,631,620,567,478,423,370,321,282,239,228,219,210,176,159,150,148,146,140,137,133,126,107,30],"timestamp_mouse":[13,42,52,72,92,113,132,153,173,194,212,233,252,272,292,313,332,352,372,393,413,433,453,472,492,513,532,552,573,593,613,633,653,673,693,713,732,752,773,792,812,833,852,873,892,912,932,952,972,992,1013,1034,1051,1072,1092,1113,1132,1152],"xSR":741.5,"ySR":573.95,"xT1":424.9,"yT1":0,"xT2":1058.1,"yT2":0,"toosoon":0,"cond_shown":"equaldotsize","ratio_trial":750,"smaller_num":"15","larger_num":"20","correct_side":1,"subjID":"JulianCamiloNobzaArias24","gender":"0","age":"11","school":"6"},{"start_time":1551881190329,"click_time":1551881191799,"finger_time":1551881191098,"fix_duration":1490.1009509195828,"trial":9,"RT":769,"MT":701,"sideResp":2,"stimulus":"img/250/equaldotanddens/R/4_Ratio_250_L_3_R_12.png","xmouse":[793,793,793,793,793,793,793,793,793,793,793,793,793,793,793,793,793,793,793,793,793,793,793,793,793,793,793,793,793,793,793,793,793,793,793,794,800,812,849,891,899,905,911,918,952,974,994,1025,1051,1059,1060,1065,1077,1089,1106,1107,1107,1107,1107,1113,1117,1118,1118,1118,1118,1118,1118,1117,1116,1116,1116,1116,1116,1117],"ymouse":[623,623,623,623,623,623,623,623,623,623,623,623,623,623,623,623,623,623,623,623,623,623,623,623,623,623,623,623,623,623,623,623,623,623,623,609,598,576,519,438,410,386,364,344,281,242,207,172,146,140,139,137,131,125,109,106,106,106,106,105,103,103,102,102,102,103,103,103,104,104,104,104,103,96],"timestamp_mouse":[9,38,49,69,89,110,130,150,169,190,210,229,249,270,290,310,330,350,369,390,410,429,449,469,490,510,529,550,569,589,609,630,650,669,690,709,729,750,769,789,809,829,850,869,889,910,929,950,970,989,1010,1029,1049,1070,1089,1110,1129,1150,1169,1189,1209,1229,1249,1269,1290,1309,1329,1349,1370,1389,1410,1429,1449,1470],"xSR":741.5,"ySR":573.95,"xT1":424.9,"yT1":0,"xT2":1058.1,"yT2":0,"toosoon":0,"cond_shown":"equaldotanddens","ratio_trial":250,"smaller_num":"3","larger_num":"12","correct_side":2,"subjID":"JulianCamiloNobzaArias24","gender":"0","age":"11","school":"6"},{"start_time":1551881193734,"click_time":1551881194618,"finger_time":1551881194498,"fix_duration":1235.083008348158,"trial":10,"RT":764,"MT":120,"sideResp":1,"stimulus":"img/750/randomdotsizeEA/L/1_Ratio_750_L_20_R_15.png","xmouse":[794,794,794,794,794,794,794,794,794,794,794,794,794,794,794,794,794,794,794,794,794,794,794,794,794,794,794,794,794,794,794,794,794,794,794,793,789,781,765,748,666,629,594,550,474],"ymouse":[655,655,655,655,655,655,655,655,655,655,655,655,655,655,655,655,655,655,655,655,655,655,655,655,655,655,655,655,655,655,655,655,654,654,649,639,623,598,562,527,390,329,270,202,86],"timestamp_mouse":[14,37,44,64,84,104,124,144,164,184,205,224,244,265,285,304,325,344,365,384,404,424,444,465,484,504,524,545,564,585,604,624,645,664,684,704,724,745,764,784,804,824,844,864,884],"xSR":741.5,"ySR":573.95,"xT1":424.9,"yT1":0,"xT2":1058.1,"yT2":0,"toosoon":0,"cond_shown":"randomdotsizeEA","ratio_trial":750,"smaller_num":"15","larger_num":"20","correct_side":1,"subjID":"JulianCamiloNobzaArias24","gender":"0","age":"11","school":"6"},{"start_time":1551881197502,"click_time":1551881198458,"finger_time":1551881198298,"fix_duration":622.3151163380884,"trial":11,"RT":796,"MT":160,"sideResp":1,"stimulus":"img/500/equaldotsize/L/5_Ratio_500_L_4_R_2.png","xmouse":[771,771,771,771,771,771,771,771,771,771,771,771,771,771,771,771,771,771,771,771,771,771,771,771,771,771,771,771,771,771,771,771,771,771,771,764,762,757,752,746,724,715,699,676,648,589,559,519],"ymouse":[614,614,614,614,614,614,614,614,614,614,614,614,614,614,614,614,614,614,614,614,614,614,614,614,614,614,614,614,614,614,614,614,614,613,607,596,591,583,574,563,522,501,466,410,345,203,135,59],"timestamp_mouse":[16,36,56,77,96,116,137,156,177,196,216,237,256,276,297,316,336,356,376,396,417,436,456,477,496,517,536,557,576,596,617,636,656,676,696,716,736,756,776,796,815,836,856,877,896,916,936,956],"xSR":741.5,"ySR":573.95,"xT1":424.9,"yT1":0,"xT2":1058.1,"yT2":0,"toosoon":0,"cond_shown":"equaldotsize","ratio_trial":500,"smaller_num":"2","larger_num":"4","correct_side":1,"subjID":"JulianCamiloNobzaArias24","gender":"0","age":"11","school":"6"},{"start_time":1551881199959,"click_time":1551881201018,"finger_time":1551881200599,"fix_duration":418.11328408960327,"trial":12,"RT":640,"MT":419,"sideResp":2,"stimulus":"img/500/equaldotsize/R/6_Ratio_500_L_9_R_18.png","xmouse":[807,807,807,807,807,807,807,807,807,807,807,807,807,807,807,807,807,807,807,807,807,807,807,807,807,807,807,807,807,807,807,816,823,877,928,972,1005,1023,1036,1038,1042,1044,1048,1055,1060,1064,1067,1068,1070,1071,1072,1072,1073,1076],"ymouse":[587,587,587,587,587,587,587,587,587,587,587,587,587,587,587,587,587,587,587,587,587,587,587,587,587,587,587,587,587,587,587,580,573,501,428,348,273,223,168,156,147,141,136,131,129,126,123,118,110,107,104,104,103,97],"timestamp_mouse":[1,19,41,59,80,99,119,140,159,180,200,219,239,260,279,300,319,339,359,379,399,419,439,459,479,500,519,540,559,579,600,620,640,659,679,699,719,739,759,779,800,819,840,859,879,899,919,939,959,979,999,1019,1040,1058],"xSR":741.5,"ySR":573.95,"xT1":424.9,"yT1":0,"xT2":1058.1,"yT2":0,"toosoon":0,"cond_shown":"equaldotsize","ratio_trial":500,"smaller_num":"9","larger_num":"18","correct_side":2,"subjID":"JulianCamiloNobzaArias24","gender":"0","age":"11","school":"6"},{"start_time":1551881202370,"click_time":1551881203479,"finger_time":1551881203078,"fix_duration":250,"trial":13,"RT":708,"MT":401,"sideResp":1,"stimulus":"img/750/equaldotanddens/L/6_Ratio_750_L_24_R_18.png","xmouse":[796,796,796,796,796,796,796,796,796,796,796,796,796,796,796,796,796,796,796,796,796,796,796,796,796,796,796,796,796,796,795,796,797,800,802,802,802,802,802,802,802,802,799,794,787,769,740,664,640,622,611,602,580,561,527,492],"ymouse":[585,585,585,585,585,585,585,585,585,585,585,585,585,585,585,585,585,585,585,585,585,585,585,585,585,585,585,585,585,585,585,583,580,577,574,570,568,568,568,568,568,566,555,546,529,500,463,371,336,302,277,252,199,160,102,50],"timestamp_mouse":[8,29,56,68,87,108,128,148,169,188,208,228,248,269,288,308,328,349,369,389,409,428,449,469,487,508,529,548,568,589,608,628,648,667,688,708,729,748,768,788,809,829,847,868,888,908,927,947,968,987,1008,1028,1048,1067,1088,1108],"xSR":741.5,"ySR":573.95,"xT1":424.9,"yT1":0,"xT2":1058.1,"yT2":0,"toosoon":0,"cond_shown":"equaldotanddens","ratio_trial":750,"smaller_num":"18","larger_num":"24","correct_side":1,"subjID":"JulianCamiloNobzaArias24","gender":"0","age":"11","school":"6"},{"start_time":1551881205301,"click_time":1551881206199,"finger_time":1551881205858,"fix_duration":1082.1633193028886,"trial":14,"RT":557,"MT":341,"sideResp":2,"stimulus":"img/250/equaldotsize/R/4_Ratio_250_L_3_R_12.png","xmouse":[780,780,780,780,780,780,780,780,780,780,780,780,780,780,780,780,780,780,780,780,780,780,780,780,780,784,789,796,809,829,885,913,946,980,1006,1024,1027,1028,1030,1032,1041,1047,1054,1058,1059],"ymouse":[592,592,592,592,592,592,592,592,592,592,592,592,592,592,592,592,592,592,592,592,592,592,592,592,592,589,580,567,550,522,437,374,301,216,151,90,80,75,70,66,57,54,50,49,48],"timestamp_mouse":[18,43,57,78,98,118,138,157,176,197,217,237,258,278,298,317,337,358,378,397,417,437,457,478,497,517,538,557,577,597,617,637,657,677,698,717,737,758,778,797,817,837,856,878,898],"xSR":741.5,"ySR":573.95,"xT1":424.9,"yT1":0,"xT2":1058.1,"yT2":0,"toosoon":0,"cond_shown":"equaldotsize","ratio_trial":250,"smaller_num":"3","larger_num":"12","correct_side":2,"subjID":"JulianCamiloNobzaArias24","gender":"0","age":"11","school":"6"},{"start_time":1551881208034,"click_time":1551881209018,"finger_time":1551881208638,"fix_duration":975.4552316658304,"trial":15,"RT":604,"MT":380,"sideResp":1,"stimulus":"img/250/randomdotsizeEA/L/14_Ratio_250_L_12_R_3.png","xmouse":[786,786,786,786,786,786,786,786,786,786,786,786,786,786,786,786,786,786,786,786,786,786,786,786,786,786,786,786,785,777,770,758,740,719,673,661,644,625,610,592,583,573,564,558,544,537,532,528,523,513],"ymouse":[598,598,598,598,598,598,598,598,598,598,598,598,598,598,598,598,598,598,598,598,598,598,598,598,598,598,598,598,598,586,572,551,515,462,365,340,313,286,265,236,216,198,181,170,146,134,126,115,105,79],"timestamp_mouse":[9,35,44,64,85,104,124,145,165,184,204,224,244,265,286,304,325,344,364,385,405,425,444,465,484,505,524,545,565,584,604,624,645,664,684,705,724,745,765,784,805,825,844,864,884,905,924,944,964,984],"xSR":741.5,"ySR":573.95,"xT1":424.9,"yT1":0,"xT2":1058.1,"yT2":0,"toosoon":0,"cond_shown":"randomdotsizeEA","ratio_trial":250,"smaller_num":"3","larger_num":"12","correct_side":1,"subjID":"JulianCamiloNobzaArias24","gender":"0","age":"11","school":"6"},{"start_time":1551881210408,"click_time":1551881211458,"finger_time":1551881211078,"fix_duration":287.59721285172344,"trial":16,"RT":670,"MT":380,"sideResp":2,"stimulus":"img/900/equaldotanddens/R/3_Ratio_900_L_9_R_10.png","xmouse":[803,803,803,803,803,803,803,803,803,803,803,803,803,803,803,803,803,803,803,803,803,803,803,803,803,803,803,803,803,803,805,811,820,832,861,918,951,987,1024,1056,1082,1086,1087,1088,1088,1089,1093,1095,1098,1099,1101,1101,1103],"ymouse":[624,624,624,624,624,624,624,624,624,624,624,624,624,624,624,624,624,624,624,624,624,624,624,624,624,624,624,624,624,624,622,612,595,572,522,431,372,316,259,205,136,121,118,117,117,115,114,112,110,109,105,101,98],"timestamp_mouse":[12,42,50,70,90,110,131,150,170,190,211,231,251,270,290,310,330,350,370,390,411,430,450,470,491,510,531,551,570,591,611,631,650,670,690,710,731,750,770,790,810,831,850,871,890,910,931,950,970,990,1010,1030,1050],"xSR":741.5,"ySR":573.95,"xT1":424.9,"yT1":0,"xT2":1058.1,"yT2":0,"toosoon":0,"cond_shown":"equaldotanddens","ratio_trial":900,"smaller_num":"9","larger_num":"10","correct_side":2,"subjID":"JulianCamiloNobzaArias24","gender":"0","age":"11","school":"6"},{"start_time":1551881213392,"click_time":1551881214278,"finger_time":1551881214099,"fix_duration":1273.9697643658808,"trial":17,"RT":707,"MT":179,"sideResp":2,"stimulus":"img/500/equaldotanddens/R/15_Ratio_500_L_1_R_2.png","xmouse":[763,763,763,763,763,763,763,763,763,763,763,763,763,763,763,763,763,763,763,763,763,763,763,763,763,763,763,763,763,763,766,784,795,808,825,875,968,1005,1032,1045,1056,1065,1069,1073,1076],"ymouse":[623,623,623,623,623,623,623,623,623,623,623,623,623,623,623,623,623,623,623,623,623,623,623,623,623,623,623,623,623,623,622,615,607,596,583,539,443,384,326,283,235,168,141,117,94],"timestamp_mouse":[9,26,46,67,86,106,127,146,166,186,206,226,247,267,286,306,326,347,367,387,406,426,446,485,486,507,526,546,567,586,606,626,646,666,687,707,725,746,766,786,807,826,847,865,886],"xSR":741.5,"ySR":573.95,"xT1":424.9,"yT1":0,"xT2":1058.1,"yT2":0,"toosoon":0,"cond_shown":"equaldotanddens","ratio_trial":500,"smaller_num":"1","larger_num":"2","correct_side":2,"subjID":"JulianCamiloNobzaArias24","gender":"0","age":"11","school":"6"},{"start_time":1551881215289,"click_time":1551881216638,"finger_time":1551881215998,"fix_duration":250,"trial":18,"RT":709,"MT":640,"sideResp":1,"stimulus":"img/500/equaldotanddens/L/10_Ratio_500_L_4_R_2.png","xmouse":[778,778,778,778,778,778,777,777,777,776,776,776,776,776,776,776,776,776,776,776,776,776,776,776,776,776,776,776,776,776,776,775,773,770,764,752,679,637,610,584,565,534,530,529,530,532,532,534,534,534,534,534,534,534,534,534,534,534,534,534,533,527,525,525,525,525,525,523],"ymouse":[628,628,628,628,628,629,630,630,630,630,630,630,630,630,630,630,630,630,630,630,630,630,630,630,630,630,630,630,630,630,630,629,622,612,596,572,451,375,312,256,212,138,124,115,110,101,82,66,52,41,38,37,37,37,37,37,37,37,37,37,37,40,41,41,41,41,41,42],"timestamp_mouse":[9,42,49,70,90,110,129,149,169,189,210,229,250,268,290,309,329,350,369,389,409,428,450,469,489,510,529,549,569,589,609,629,650,670,689,709,730,749,769,790,809,829,850,869,889,909,929,950,970,989,1009,1030,1049,1069,1089,1109,1130,1149,1169,1189,1209,1229,1250,1269,1289,1309,1329,1349],"xSR":741.5,"ySR":573.95,"xT1":424.9,"yT1":0,"xT2":1058.1,"yT2":0,"toosoon":0,"cond_shown":"equaldotanddens","ratio_trial":500,"smaller_num":"2","larger_num":"4","correct_side":1,"subjID":"JulianCamiloNobzaArias24","gender":"0","age":"11","school":"6"},{"start_time":1551881219468,"click_time":1551881220419,"finger_time":1551881220058,"fix_duration":388.6850688015305,"trial":19,"RT":590,"MT":361,"sideResp":1,"stimulus":"img/250/equaldotsize/L/1_Ratio_250_L_8_R_2.png","xmouse":[806,806,806,806,806,806,806,806,806,806,806,806,806,806,806,806,806,806,806,806,806,806,807,807,808,808,808,806,801,794,783,768,701,670,649,634,627,617,612,605,595,585,547,542,542,542,541,524],"ymouse":[628,628,628,628,626,625,624,622,621,621,621,621,621,621,621,621,621,621,621,619,618,617,608,606,602,600,596,584,575,560,543,519,371,298,247,203,159,87,60,39,20,0,0,0,0,0,0,4],"timestamp_mouse":[10,36,50,70,90,110,130,150,171,190,210,230,251,270,291,311,330,351,370,391,411,430,450,470,491,510,531,550,569,590,610,630,650,671,690,711,729,749,771,790,811,831,851,870,890,911,930,950],"xSR":741.5,"ySR":573.95,"xT1":424.9,"yT1":0,"xT2":1058.1,"yT2":0,"toosoon":0,"cond_shown":"equaldotsize","ratio_trial":250,"smaller_num":"2","larger_num":"8","correct_side":1,"subjID":"JulianCamiloNobzaArias24","gender":"0","age":"11","school":"6"},{"start_time":1551881222763,"click_time":1551881223819,"finger_time":1551881223499,"fix_duration":1162.9021895999588,"trial":20,"RT":736,"MT":320,"sideResp":2,"stimulus":"img/900/equaldotanddens/R/14_Ratio_900_L_18_R_20.png","xmouse":[786,786,786,786,786,786,786,786,786,786,786,786,786,786,786,786,786,786,786,786,786,786,786,786,786,786,786,786,786,786,786,786,787,788,791,800,816,931,978,1007,1022,1031,1042,1044,1044,1044,1045,1049,1051,1057,1063,1071,1098],"ymouse":[604,604,604,604,604,604,604,604,604,604,604,604,604,604,604,604,604,604,604,604,604,604,604,604,604,604,604,601,600,600,598,597,595,591,586,575,561,491,459,434,409,386,331,315,306,302,299,284,271,252,233,205,74],"timestamp_mouse":[15,39,56,76,95,115,135,156,175,196,215,236,255,276,295,315,335,356,375,395,415,435,455,476,495,515,535,555,575,596,615,635,655,675,696,715,736,755,775,795,815,835,855,875,895,916,935,955,976,995,1015,1036,1055],"xSR":741.5,"ySR":573.95,"xT1":424.9,"yT1":0,"xT2":1058.1,"yT2":0,"toosoon":0,"cond_shown":"equaldotanddens","ratio_trial":900,"smaller_num":"18","larger_num":"20","correct_side":2,"subjID":"JulianCamiloNobzaArias24","gender":"0","age":"11","school":"6"},{"start_time":1551881225971,"click_time":1551881227218,"finger_time":1551881226518,"fix_duration":250,"trial":21,"RT":547,"MT":700,"sideResp":1,"stimulus":"img/750/randomdotsizeEA/R/4_Ratio_750_L_15_R_20.png","xmouse":[749,749,749,749,749,749,749,749,749,749,749,749,749,749,749,749,749,749,749,749,749,749,749,749,750,752,754,756,757,757,757,757,750,743,736,727,719,708,700,684,651,600,462,385,319,274,256,259,275,293,308,316,320,327,342,361,378,412,414,416,420,424,439],"ymouse":[603,603,603,603,603,603,603,603,603,603,603,603,603,603,603,603,603,603,603,603,603,603,603,598,593,588,582,568,564,561,558,554,533,521,508,499,487,464,447,420,368,297,134,52,0,0,0,0,0,0,0,0,0,0,3,10,23,53,57,59,62,65,72],"timestamp_mouse":[8,28,61,67,87,108,127,148,167,186,207,227,247,267,287,307,328,348,366,387,407,426,447,468,487,508,527,547,567,587,608,627,647,666,686,708,727,747,768,788,808,828,847,868,887,907,927,948,968,987,1007,1028,1047,1067,1087,1107,1128,1148,1167,1187,1207,1228,1247],"xSR":741.5,"ySR":573.95,"xT1":424.9,"yT1":0,"xT2":1058.1,"yT2":0,"toosoon":0,"cond_shown":"randomdotsizeEA","ratio_trial":750,"smaller_num":"15","larger_num":"20","correct_side":2,"subjID":"JulianCamiloNobzaArias24","gender":"0","age":"11","school":"6"},{"start_time":1551881230529,"click_time":1551881231400,"finger_time":1551881231039,"fix_duration":1469.73470256324,"trial":22,"RT":510,"MT":361,"sideResp":2,"stimulus":"img/750/equaldotsize/R/12_Ratio_750_L_3_R_4.png","xmouse":[794,794,794,794,794,794,794,794,794,794,794,794,794,794,794,794,794,794,794,795,797,797,798,798,798,798,799,799,802,811,819,831,848,867,928,974,1021,1062,1083,1097,1097,1099,1099,1099],"ymouse":[621,621,621,621,621,621,621,621,621,621,621,621,621,621,621,621,621,620,619,617,600,593,587,581,575,571,568,563,557,529,511,488,456,410,297,241,196,156,131,108,106,105,103,99],"timestamp_mouse":[9,38,49,68,89,110,129,149,169,189,209,230,249,269,290,310,329,349,369,389,410,430,449,469,489,510,529,550,569,589,610,629,650,669,689,710,728,749,770,789,810,829,850,870],"xSR":741.5,"ySR":573.95,"xT1":424.9,"yT1":0,"xT2":1058.1,"yT2":0,"toosoon":0,"cond_shown":"equaldotsize","ratio_trial":750,"smaller_num":"3","larger_num":"4","correct_side":2,"subjID":"JulianCamiloNobzaArias24","gender":"0","age":"11","school":"6"},{"start_time":1551881232409,"click_time":1551881233558,"finger_time":1551881233218,"fix_duration":490.879591928245,"trial":23,"RT":809,"MT":340,"sideResp":1,"stimulus":"img/750/equaldotsize/L/9_Ratio_750_L_4_R_3.png","xmouse":[788,788,788,788,788,788,788,788,788,788,788,788,788,788,788,788,788,788,788,788,788,788,788,788,788,788,788,788,788,788,788,788,788,788,788,788,788,786,783,773,734,703,676,649,621,574,566,562,560,559,557,555,554,552,547,523,514,501],"ymouse":[634,634,634,634,634,634,634,634,634,634,634,634,634,634,634,634,634,634,634,634,634,634,634,634,634,634,634,634,634,634,634,634,634,634,634,634,633,619,605,584,518,473,433,387,332,228,207,194,187,182,177,175,173,170,163,126,109,87],"timestamp_mouse":[9,30,49,70,89,110,129,149,169,189,209,229,249,269,289,309,330,349,369,389,409,430,449,469,489,509,529,549,570,590,610,630,649,670,689,710,730,750,769,790,809,829,848,869,890,909,928,949,969,989,1009,1029,1049,1070,1089,1109,1130,1149],"xSR":741.5,"ySR":573.95,"xT1":424.9,"yT1":0,"xT2":1058.1,"yT2":0,"toosoon":0,"cond_shown":"equaldotsize","ratio_trial":750,"smaller_num":"3","larger_num":"4","correct_side":1,"subjID":"JulianCamiloNobzaArias24","gender":"0","age":"11","school":"6"},{"start_time":1551881235800,"click_time":1551881236799,"finger_time":1551881236338,"fix_duration":1481.842935522427,"trial":24,"RT":538,"MT":461,"sideResp":2,"stimulus":"img/250/equaldotanddens/R/8_Ratio_250_L_1_R_4.png","xmouse":[818,818,818,818,818,818,818,818,818,818,818,818,818,818,818,818,818,818,818,818,818,818,819,822,823,839,854,878,911,943,983,990,990,990,993,994,994,994,995,999,1008,1015,1026,1039,1054,1065,1065,1065,1065,1067],"ymouse":[620,620,620,620,620,620,620,620,620,620,620,620,620,620,620,620,620,620,620,620,620,620,620,617,615,595,580,559,529,496,389,325,270,237,215,202,196,180,159,142,130,126,119,112,105,100,100,100,100,98],"timestamp_mouse":[19,39,59,78,99,118,138,158,179,199,219,238,258,279,298,318,339,358,378,399,418,439,458,478,498,518,538,557,579,598,618,638,659,678,699,718,738,758,778,798,818,838,858,879,899,918,939,958,978,999],"xSR":741.5,"ySR":573.95,"xT1":424.9,"yT1":0,"xT2":1058.1,"yT2":0,"toosoon":0,"cond_shown":"equaldotanddens","ratio_trial":250,"smaller_num":"1","larger_num":"4","correct_side":2,"subjID":"JulianCamiloNobzaArias24","gender":"0","age":"11","school":"6"},{"start_time":1551881239741,"click_time":1551881240618,"finger_time":1551881240278,"fix_duration":521.9522439491257,"trial":25,"RT":537,"MT":340,"sideResp":1,"stimulus":"img/500/randomdotsizeEA/L/10_Ratio_500_L_4_R_2.png","xmouse":[793,793,793,793,793,793,793,793,793,793,793,793,793,793,793,793,793,793,793,793,793,793,793,793,789,781,757,728,642,613,597,589,582,572,566,562,560,557,548,541,535,531,528,520],"ymouse":[631,631,631,631,631,631,631,631,631,631,631,631,631,631,631,631,631,631,631,631,631,631,631,631,623,605,570,527,404,353,320,294,270,235,222,210,201,190,142,124,109,98,92,82],"timestamp_mouse":[16,48,57,77,98,117,137,158,177,197,217,238,257,277,297,318,338,357,377,397,417,437,457,477,498,517,537,557,577,597,616,637,657,677,698,716,737,757,777,798,817,838,857,877],"xSR":741.5,"ySR":573.95,"xT1":424.9,"yT1":0,"xT2":1058.1,"yT2":0,"toosoon":0,"cond_shown":"randomdotsizeEA","ratio_trial":500,"smaller_num":"2","larger_num":"4","correct_side":1,"subjID":"JulianCamiloNobzaArias24","gender":"0","age":"11","school":"6"},{"start_time":1551881242277,"click_time":1551881243619,"finger_time":1551881242918,"fix_duration":757.9489939241685,"trial":26,"RT":641,"MT":701,"sideResp":2,"stimulus":"img/900/randomdotsizeEA/L/2_Ratio_900_L_20_R_18.png","xmouse":[809,809,809,809,809,809,809,809,809,809,809,809,809,809,809,809,809,809,809,809,809,809,809,809,809,809,809,809,811,815,817,819,830,836,839,841,842,842,842,842,842,842,842,842,842,842,842,842,842,842,842,842,842,842,846,850,856,879,893,908,936,972,1011,1014,1015,1019,1030,1060],"ymouse":[663,663,663,663,663,663,663,663,663,663,663,663,663,663,663,663,663,663,663,663,663,663,663,663,663,663,663,659,649,639,624,610,570,553,540,534,531,530,530,530,530,529,529,529,529,529,529,529,529,529,529,529,529,529,525,518,507,447,373,288,206,142,84,78,75,71,64,32],"timestamp_mouse":[8,22,41,61,81,101,121,141,161,181,201,221,241,261,281,301,322,341,361,382,400,421,441,461,481,501,521,541,561,582,601,621,641,662,681,701,721,742,762,781,801,822,841,860,881,901,922,941,961,981,1001,1021,1041,1061,1082,1102,1122,1141,1161,1182,1201,1222,1241,1262,1281,1302,1322,1341],"xSR":741.5,"ySR":573.95,"xT1":424.9,"yT1":0,"xT2":1058.1,"yT2":0,"toosoon":0,"cond_shown":"randomdotsizeEA","ratio_trial":900,"smaller_num":"18","larger_num":"20","correct_side":1,"subjID":"JulianCamiloNobzaArias24","gender":"0","age":"11","school":"6"},{"start_time":1551881245196,"click_time":1551881246058,"finger_time":1551881245858,"fix_duration":476.5131239159491,"trial":27,"RT":662,"MT":200,"sideResp":2,"stimulus":"img/750/equaldotanddens/R/5_Ratio_750_L_15_R_20.png","xmouse":[764,764,764,764,764,764,764,764,764,764,764,764,764,764,764,764,764,764,764,764,764,764,764,764,764,764,764,764,764,764,764,766,782,803,835,866,954,988,1025,1060,1086,1121,1127,1130],"ymouse":[592,592,592,592,592,592,592,592,592,592,592,592,592,592,592,592,592,592,592,592,592,592,592,592,592,592,592,592,592,592,592,590,574,557,528,497,399,349,300,248,209,145,123,97],"timestamp_mouse":[11,23,47,62,83,103,122,142,162,182,203,223,241,262,283,303,323,343,362,383,402,422,443,463,483,503,522,542,563,581,602,622,642,662,682,703,722,743,762,783,802,822,842,862],"xSR":741.5,"ySR":573.95,"xT1":424.9,"yT1":0,"xT2":1058.1,"yT2":0,"toosoon":0,"cond_shown":"equaldotanddens","ratio_trial":750,"smaller_num":"15","larger_num":"20","correct_side":2,"subjID":"JulianCamiloNobzaArias24","gender":"0","age":"11","school":"6"},{"start_time":1551881247600,"click_time":1551881248799,"finger_time":1551881248418,"fix_duration":638.935578763844,"trial":28,"RT":818,"MT":381,"sideResp":1,"stimulus":"img/750/equaldotsize/L/9_Ratio_750_L_4_R_3.png","xmouse":[763,763,763,763,763,763,763,763,763,763,763,763,763,763,763,763,763,763,763,763,763,763,763,763,763,763,763,763,763,763,767,786,795,798,798,798,798,798,798,798,798,770,744,720,690,642,592,563,554,548,545,537,534,529,522,517,515,515,515,514,506],"ymouse":[638,638,638,638,638,638,638,638,638,638,638,638,638,638,638,638,638,638,638,638,638,638,638,638,638,638,638,638,638,638,635,625,618,614,613,613,613,613,613,611,606,555,519,480,430,325,216,147,119,97,73,16,0,0,0,0,0,0,0,0,7],"timestamp_mouse":[1,33,38,58,78,99,119,138,158,179,198,219,238,258,278,298,318,339,358,378,398,418,438,458,478,498,518,539,558,578,599,618,639,659,679,699,719,738,759,779,799,818,838,858,879,898,918,939,959,979,998,1018,1039,1058,1077,1098,1118,1138,1159,1178,1199],"xSR":741.5,"ySR":573.95,"xT1":424.9,"yT1":0,"xT2":1058.1,"yT2":0,"toosoon":0,"cond_shown":"equaldotsize","ratio_trial":750,"smaller_num":"3","larger_num":"4","correct_side":1,"subjID":"JulianCamiloNobzaArias24","gender":"0","age":"11","school":"6"},{"start_time":1551881250413,"click_time":1551881251499,"finger_time":1551881251118,"fix_duration":874.4631996815041,"trial":29,"RT":705,"MT":381,"sideResp":2,"stimulus":"img/750/randomdotsizeEA/L/13_Ratio_750_L_8_R_6.png","xmouse":[775,775,775,775,775,775,775,775,775,775,775,775,775,775,775,775,775,775,775,775,775,775,775,775,775,775,775,775,775,775,777,781,788,798,811,843,855,863,874,884,919,941,961,978,991,1008,1011,1014,1016,1019,1032,1048,1072,1095,1115],"ymouse":[653,653,653,653,653,653,653,653,653,653,653,653,653,653,653,653,653,653,653,653,653,653,653,653,653,653,653,653,653,653,651,647,643,633,621,592,577,563,544,525,458,416,371,333,298,252,243,237,232,226,198,167,134,103,81],"timestamp_mouse":[12,25,45,66,85,106,126,145,165,186,205,226,246,265,285,305,326,346,365,384,406,425,446,465,486,505,526,546,565,584,606,625,646,666,686,705,725,745,765,786,805,825,845,865,885,904,926,945,965,985,1005,1026,1045,1065,1086],"xSR":741.5,"ySR":573.95,"xT1":424.9,"yT1":0,"xT2":1058.1,"yT2":0,"toosoon":0,"cond_shown":"randomdotsizeEA","ratio_trial":750,"smaller_num":"6","larger_num":"8","correct_side":1,"subjID":"JulianCamiloNobzaArias24","gender":"0","age":"11","school":"6"},{"start_time":1551881252898,"click_time":1551881253718,"finger_time":1551881253438,"fix_duration":678.1823417626889,"trial":30,"RT":540,"MT":280,"sideResp":1,"stimulus":"img/750/equaldotanddens/L/9_Ratio_750_L_4_R_3.png","xmouse":[799,799,799,799,799,799,799,799,799,799,799,799,799,799,799,799,799,799,799,799,799,799,799,794,791,785,761,742,716,683,643,544,535,531,527,524,517,514,507,490,475,472],"ymouse":[627,627,627,627,627,627,627,627,627,627,627,627,627,627,627,627,627,627,627,627,627,627,627,620,615,606,577,556,524,479,422,270,251,236,220,209,186,176,158,127,101,96],"timestamp_mouse":[9,20,42,60,80,99,121,140,161,181,201,220,241,260,280,301,321,340,361,379,400,421,440,460,480,500,520,540,560,581,601,620,640,660,680,700,720,741,760,780,800,820],"xSR":741.5,"ySR":573.95,"xT1":424.9,"yT1":0,"xT2":1058.1,"yT2":0,"toosoon":0,"cond_shown":"equaldotanddens","ratio_trial":750,"smaller_num":"3","larger_num":"4","correct_side":1,"subjID":"JulianCamiloNobzaArias24","gender":"0","age":"11","school":"6"},{"start_time":1551881255409,"click_time":1551881257358,"finger_time":1551881256118,"fix_duration":948.6262104920609,"trial":31,"RT":709,"MT":1240,"sideResp":1,"stimulus":"img/900/equaldotanddens/L/2_Ratio_900_L_20_R_18.png","xmouse":[803,803,803,803,803,803,803,803,803,803,803,803,803,803,803,803,803,803,803,803,803,803,803,803,803,803,803,803,803,803,803,803,805,806,816,841,855,869,885,897,916,920,922,921,920,920,918,912,907,905,900,898,890,871,843,704,658,636,623,617,611,606,598,583,562,534,534,534,534,534,534,534,534,534,534,534,534,534,534,533,533,533,533,533,533,533,533,532,532,532,531,531,531,531,531,527,512,475],"ymouse":[622,622,622,622,622,622,622,622,622,622,622,622,622,622,622,622,622,622,622,622,622,622,622,622,622,622,622,622,622,622,622,622,619,616,604,562,535,505,452,414,361,346,335,326,323,322,322,322,322,322,322,322,321,314,299,240,218,207,199,195,189,185,176,167,152,133,133,133,133,133,133,133,133,133,133,133,133,133,133,132,132,132,132,132,131,130,130,129,129,128,128,128,128,128,128,124,108,65],"timestamp_mouse":[12,43,49,69,89,109,130,150,169,189,210,230,250,270,290,309,330,349,370,390,409,429,450,469,490,510,529,550,569,589,609,629,650,669,689,709,729,749,770,790,809,830,849,869,889,910,929,949,969,989,1010,1029,1049,1069,1089,1109,1129,1150,1169,1190,1209,1230,1249,1270,1290,1309,1330,1349,1369,1389,1410,1429,1449,1469,1489,1509,1530,1549,1569,1589,1610,1630,1649,1669,1690,1709,1729,1750,1770,1789,1809,1830,1849,1870,1890,1908,1930,1949],"xSR":741.5,"ySR":573.95,"xT1":424.9,"yT1":0,"xT2":1058.1,"yT2":0,"toosoon":0,"cond_shown":"equaldotanddens","ratio_trial":900,"smaller_num":"18","larger_num":"20","correct_side":1,"subjID":"JulianCamiloNobzaArias24","gender":"0","age":"11","school":"6"},{"start_time":1551881259566,"click_time":1551881260719,"finger_time":1551881260180,"fix_duration":1027.9708186816063,"trial":32,"RT":614,"MT":539,"sideResp":2,"stimulus":"img/900/equaldotsize/R/11_Ratio_900_L_18_R_20.png","xmouse":[793,793,793,793,793,793,793,793,793,793,793,793,793,793,793,793,793,793,793,793,793,793,793,793,793,793,793,793,794,800,806,820,863,897,958,1034,1145,1246,1267,1275,1279,1279,1275,1265,1261,1251,1239,1216,1205,1197,1191,1188,1184,1181,1178,1173,1168,1149],"ymouse":[623,623,623,623,623,623,623,623,623,623,623,623,623,623,623,623,623,623,623,623,623,623,623,623,623,623,623,612,601,587,571,546,488,439,352,254,133,15,0,0,0,0,0,6,10,18,23,33,38,40,43,44,46,47,48,51,53,63],"timestamp_mouse":[12,45,53,72,92,112,132,153,172,192,212,233,253,272,292,312,332,352,372,392,414,434,453,474,493,514,534,552,574,594,614,633,653,673,692,714,733,753,772,794,813,834,853,872,894,913,933,953,973,994,1013,1033,1053,1072,1094,1114,1133,1153],"xSR":741.5,"ySR":573.95,"xT1":424.9,"yT1":0,"xT2":1058.1,"yT2":0,"toosoon":0,"cond_shown":"equaldotsize","ratio_trial":900,"smaller_num":"18","larger_num":"20","correct_side":2,"subjID":"JulianCamiloNobzaArias24","gender":"0","age":"11","school":"6"},{"start_time":1551881262134,"click_time":1551881263319,"finger_time":1551881262659,"fix_duration":474.68257666399074,"trial":33,"RT":525,"MT":660,"sideResp":1,"stimulus":"img/500/equaldotanddens/L/11_Ratio_500_L_12_R_6.png","xmouse":[766,766,766,766,766,766,766,766,766,766,766,766,766,766,766,766,766,766,766,766,766,766,766,766,758,751,745,737,729,689,673,650,631,612,584,569,556,530,483,313,270,265,265,267,289,301,308,314,320,326,329,338,351,364,376,399,406,409,413,444],"ymouse":[607,607,607,607,607,607,607,607,607,607,607,607,607,607,607,607,607,607,607,607,607,607,607,605,589,578,564,541,508,389,334,280,232,191,110,68,24,0,0,0,0,0,0,0,25,41,55,68,77,85,90,97,103,107,108,108,106,104,102,86],"timestamp_mouse":[11,36,44,66,85,105,125,146,165,185,206,226,245,266,286,304,325,345,366,386,405,426,446,464,486,505,525,545,566,585,606,625,645,666,685,706,726,745,765,786,805,826,844,866,885,905,925,945,965,985,1004,1024,1046,1065,1085,1105,1126,1145,1165,1185],"xSR":741.5,"ySR":573.95,"xT1":424.9,"yT1":0,"xT2":1058.1,"yT2":0,"toosoon":0,"cond_shown":"equaldotanddens","ratio_trial":500,"smaller_num":"6","larger_num":"12","correct_side":1,"subjID":"JulianCamiloNobzaArias24","gender":"0","age":"11","school":"6"},{"start_time":1551881265136,"click_time":1551881267060,"finger_time":1551881266019,"fix_duration":935.3923884776555,"trial":34,"RT":883,"MT":1041,"sideResp":2,"stimulus":"img/750/equaldotanddens/L/13_Ratio_750_L_8_R_6.png","xmouse":[783,783,783,783,783,783,783,783,783,783,783,783,783,783,783,783,783,783,783,783,783,783,783,783,783,783,783,783,783,783,783,783,783,783,783,783,782,782,782,782,782,789,801,813,841,857,877,902,937,1018,1040,1052,1061,1065,1072,1075,1075,1076,1076,1075,1073,1072,1071,1070,1068,1067,1066,1066,1066,1066,1066,1066,1066,1066,1066,1066,1066,1066,1066,1066,1066,1066,1066,1066,1066,1066,1066,1066,1066,1066,1066,1066,1065,1065,1071,1079,1094],"ymouse":[613,613,613,613,613,613,613,613,613,613,613,613,613,613,613,613,613,613,613,613,613,613,613,613,613,613,613,613,613,613,613,613,613,613,613,611,610,610,610,610,609,605,598,591,571,559,549,530,497,386,340,299,256,221,172,159,155,154,154,154,154,154,155,155,156,157,157,157,157,157,157,157,157,157,157,157,157,157,157,157,157,157,157,157,157,157,157,157,157,157,157,157,157,155,137,104,25],"timestamp_mouse":[8,22,43,65,82,103,122,144,162,183,204,223,243,263,282,302,324,344,363,383,404,423,444,464,484,504,523,544,562,584,603,624,643,664,683,704,724,743,764,784,803,823,844,864,883,903,924,943,963,983,1003,1023,1042,1063,1084,1103,1123,1144,1162,1183,1203,1223,1243,1263,1283,1303,1323,1343,1363,1384,1404,1423,1443,1463,1483,1502,1523,1543,1563,1583,1604,1624,1644,1662,1684,1704,1723,1743,1762,1784,1803,1823,1844,1864,1883,1904,1924],"xSR":741.5,"ySR":573.95,"xT1":424.9,"yT1":0,"xT2":1058.1,"yT2":0,"toosoon":0,"cond_shown":"equaldotanddens","ratio_trial":750,"smaller_num":"6","larger_num":"8","correct_side":1,"subjID":"JulianCamiloNobzaArias24","gender":"0","age":"11","school":"6"},{"start_time":1551881269616,"click_time":1551881271019,"finger_time":1551881270600,"fix_duration":753.8121887651694,"trial":35,"RT":984,"MT":419,"sideResp":1,"stimulus":"img/900/equaldotanddens/R/7_Ratio_900_L_9_R_10.png","xmouse":[766,766,766,766,766,766,766,766,766,766,766,766,766,766,766,766,766,766,766,766,766,766,766,766,766,766,766,766,766,766,766,766,766,766,766,766,766,766,766,766,766,763,760,754,750,747,745,743,742,740,728,713,690,647,604,560,497,486,475,464,454,454,454,459,469,482,484,484,484,484,484],"ymouse":[632,632,632,632,632,632,632,632,632,632,632,632,632,632,632,632,632,632,632,632,632,632,632,632,632,632,632,632,632,632,632,632,632,632,632,632,632,632,632,632,632,629,622,611,604,599,597,595,593,591,576,559,532,486,445,403,323,305,285,267,237,230,224,217,207,186,175,163,151,137,97],"timestamp_mouse":[11,22,46,62,84,104,123,143,163,183,204,223,243,264,283,303,323,344,363,383,415,424,443,464,484,503,524,543,562,583,604,624,643,663,683,704,723,742,763,783,803,822,843,862,883,903,923,944,964,984,1003,1023,1043,1063,1083,1102,1123,1143,1164,1183,1202,1222,1243,1264,1283,1303,1323,1343,1363,1384,1403],"xSR":741.5,"ySR":573.95,"xT1":424.9,"yT1":0,"xT2":1058.1,"yT2":0,"toosoon":0,"cond_shown":"equaldotanddens","ratio_trial":900,"smaller_num":"9","larger_num":"10","correct_side":2,"subjID":"JulianCamiloNobzaArias24","gender":"0","age":"11","school":"6"},{"start_time":1551881274154,"click_time":1551881275659,"finger_time":1551881274618,"fix_duration":1033.948782439921,"trial":36,"RT":464,"MT":1041,"sideResp":2,"stimulus":"img/500/randomdotsizeEA/R/12_Ratio_500_L_1_R_2.png","xmouse":[819,819,819,819,819,819,819,819,819,819,819,819,818,817,817,817,815,804,797,797,797,795,793,784,782,780,780,780,780,780,780,780,780,780,780,780,780,780,780,784,803,831,871,998,1055,1086,1112,1124,1144,1150,1152,1154,1157,1157,1157,1157,1157,1157,1157,1157,1157,1154,1144,1130,1126,1126,1126,1126,1126,1126,1126,1126,1125,1123,1121,1119],"ymouse":[631,631,631,631,631,631,631,631,631,631,631,631,634,634,634,634,632,612,605,605,605,617,637,680,684,686,686,686,686,686,686,686,686,686,686,686,686,686,686,669,628,580,532,441,399,371,339,321,279,261,246,234,226,224,224,224,224,224,224,224,221,207,187,155,150,149,149,148,146,146,146,146,145,122,106,91],"timestamp_mouse":[8,39,45,66,86,104,125,144,166,185,206,225,244,265,286,305,326,346,366,385,405,426,445,464,486,505,526,545,565,585,606,625,645,666,685,706,725,745,765,785,804,826,846,865,886,905,925,945,965,985,1005,1025,1046,1065,1086,1105,1125,1145,1165,1185,1205,1225,1246,1265,1285,1305,1325,1345,1365,1385,1405,1425,1445,1465,1485,1505],"xSR":741.5,"ySR":573.95,"xT1":424.9,"yT1":0,"xT2":1058.1,"yT2":0,"toosoon":0,"cond_shown":"randomdotsizeEA","ratio_trial":500,"smaller_num":"1","larger_num":"2","correct_side":2,"subjID":"JulianCamiloNobzaArias24","gender":"0","age":"11","school":"6"},{"start_time":1551881277752,"click_time":1551881279519,"finger_time":1551881278519,"fix_duration":250,"trial":37,"RT":767,"MT":1000,"sideResp":1,"stimulus":"img/500/randomdotsizeEA/L/5_Ratio_500_L_4_R_2.png","xmouse":[802,802,802,802,802,802,802,802,802,802,802,802,802,802,802,802,802,802,802,802,802,802,802,802,802,802,802,802,802,802,802,802,802,802,802,802,797,785,740,718,703,692,684,672,667,661,657,651,643,639,633,626,617,601,589,578,572,568,554,552,551,551,548,541,535,524,511,491,457,450,447,445,445,445,445,445,444,444,444,444,444,444,444,444,444,444,446,451,456],"ymouse":[663,663,663,663,663,663,663,663,663,663,663,663,663,663,663,663,663,663,663,663,663,663,663,663,663,663,663,663,663,663,663,663,663,663,663,663,664,663,627,607,589,569,547,511,494,475,460,446,418,403,385,366,344,293,270,251,238,230,210,208,207,205,203,194,188,178,164,151,126,122,119,116,116,116,116,116,115,115,115,115,115,115,115,115,115,115,111,101,73],"timestamp_mouse":[8,35,48,67,87,107,126,147,167,187,207,227,247,268,287,307,328,346,367,387,407,427,447,468,487,507,527,547,567,586,607,627,648,667,687,708,727,747,767,787,806,827,846,866,886,907,928,948,967,987,1007,1028,1047,1067,1087,1107,1127,1148,1166,1187,1208,1226,1247,1267,1287,1307,1327,1348,1367,1386,1407,1427,1448,1467,1487,1508,1528,1548,1568,1587,1607,1627,1647,1667,1687,1707,1727,1747,1767],"xSR":741.5,"ySR":573.95,"xT1":424.9,"yT1":0,"xT2":1058.1,"yT2":0,"toosoon":0,"cond_shown":"randomdotsizeEA","ratio_trial":500,"smaller_num":"2","larger_num":"4","correct_side":1,"subjID":"JulianCamiloNobzaArias24","gender":"0","age":"11","school":"6"},{"start_time":1551881281205,"click_time":1551881283339,"finger_time":1551881281918,"fix_duration":784.5343578394463,"trial":38,"RT":713,"MT":1421,"sideResp":2,"stimulus":"img/900/equaldotsize/L/10_Ratio_900_L_20_R_18.png","xmouse":[811,811,811,811,811,811,811,811,811,811,811,811,811,811,811,811,811,811,811,811,811,811,811,811,811,811,811,811,811,811,811,811,811,813,828,848,871,874,878,883,898,910,920,933,943,971,985,1002,1023,1046,1080,1088,1095,1099,1102,1108,1110,1111,1111,1111,1111,1111,1111,1111,1111,1111,1111,1111,1111,1111,1111,1111,1111,1111,1111,1111,1111,1111,1111,1111,1111,1111,1110,1110,1110,1109,1109,1109,1109,1109,1109,1109,1109,1109,1109,1108,1108,1108,1108,1108,1108,1108,1108,1108,1108,1108,1108],"ymouse":[665,665,665,665,665,665,665,665,665,665,665,665,665,665,665,665,665,665,665,665,665,665,665,665,665,665,665,665,665,665,665,665,664,662,654,638,590,574,560,547,518,501,486,470,457,417,401,384,367,351,321,308,293,283,269,233,216,198,184,170,152,149,148,147,147,147,147,146,146,144,142,139,138,137,137,137,137,137,137,137,133,130,127,124,122,119,119,118,118,118,118,117,117,117,117,115,112,110,108,107,106,106,105,104,103,100,99],"timestamp_mouse":[14,33,62,75,94,114,133,154,173,195,215,233,254,274,293,314,335,354,374,394,414,435,454,475,495,514,534,555,574,595,614,634,654,675,694,713,734,754,775,795,814,834,854,875,895,914,935,954,975,994,1014,1035,1054,1075,1095,1114,1133,1154,1175,1195,1214,1235,1254,1275,1295,1314,1333,1355,1374,1395,1414,1435,1454,1474,1495,1515,1535,1554,1574,1593,1614,1634,1654,1675,1694,1714,1735,1754,1774,1793,1814,1835,1854,1874,1895,1914,1934,1954,1973,1994,2014,2033,2053,2074,2094,2114,2134],"xSR":741.5,"ySR":573.95,"xT1":424.9,"yT1":0,"xT2":1058.1,"yT2":0,"toosoon":0,"cond_shown":"equaldotsize","ratio_trial":900,"smaller_num":"18","larger_num":"20","correct_side":1,"subjID":"JulianCamiloNobzaArias24","gender":"0","age":"11","school":"6"},{"start_time":1551881285692,"click_time":1551881287119,"finger_time":1551881286380,"fix_duration":1129.4019186456012,"trial":39,"RT":688,"MT":739,"sideResp":1,"stimulus":"img/250/equaldotsize/L/2_Ratio_250_L_16_R_4.png","xmouse":[780,780,780,780,780,780,780,780,780,780,780,780,780,780,780,780,780,780,780,780,780,780,780,780,780,780,780,780,780,780,779,771,762,753,739,724,695,681,671,662,653,628,619,613,608,606,602,600,596,593,590,579,576,573,569,562,549,544,538,537,535,533,532,531,530,527,520,515,509,505,498,487],"ymouse":[634,634,634,634,634,634,634,634,634,634,634,634,634,634,634,634,634,634,634,634,634,634,634,634,634,634,634,634,634,634,633,630,625,620,612,601,577,563,548,533,514,464,448,432,417,401,372,360,346,337,327,309,302,297,290,280,259,250,240,236,232,225,221,218,213,205,183,169,158,147,131,95],"timestamp_mouse":[11,26,46,68,88,108,127,148,168,188,206,227,248,267,287,307,326,348,368,388,407,428,447,468,487,507,526,548,566,588,606,627,647,667,688,708,727,747,767,788,808,827,847,867,887,908,927,947,967,987,1006,1027,1047,1067,1087,1107,1127,1146,1168,1187,1208,1227,1247,1267,1286,1307,1327,1347,1367,1387,1407,1427],"xSR":741.5,"ySR":573.95,"xT1":424.9,"yT1":0,"xT2":1058.1,"yT2":0,"toosoon":0,"cond_shown":"equaldotsize","ratio_trial":250,"smaller_num":"4","larger_num":"16","correct_side":1,"subjID":"JulianCamiloNobzaArias24","gender":"0","age":"11","school":"6"},{"start_time":1551881290533,"click_time":1551881291860,"finger_time":1551881291239,"fix_duration":612.7467258748261,"trial":40,"RT":706,"MT":621,"sideResp":2,"stimulus":"img/500/randomdotsizeEA/R/3_Ratio_500_L_10_R_20.png","xmouse":[789,789,789,789,789,789,789,789,789,789,789,789,789,789,789,789,789,789,789,789,789,789,789,789,789,789,789,789,789,789,789,789,789,789,791,799,810,822,835,875,896,924,960,1013,1132,1183,1225,1249,1265,1283,1285,1285,1283,1273,1250,1240,1235,1232,1230,1221,1217,1212,1204,1194,1175,1164,1148],"ymouse":[599,599,599,599,599,599,599,599,599,599,599,599,599,599,599,599,599,599,599,599,599,599,599,599,599,599,599,599,599,599,599,599,599,599,591,573,546,523,496,439,411,381,346,304,225,195,171,156,144,127,122,115,102,85,53,46,44,42,42,41,41,41,40,38,36,36,36],"timestamp_mouse":[9,39,45,67,87,106,127,147,167,187,207,227,246,267,286,306,326,346,366,386,406,427,445,466,486,507,526,546,566,586,606,627,646,666,686,706,726,746,765,785,806,826,845,867,886,907,926,947,967,985,1006,1025,1046,1067,1086,1106,1126,1146,1167,1186,1207,1226,1246,1266,1286,1306,1326],"xSR":741.5,"ySR":573.95,"xT1":424.9,"yT1":0,"xT2":1058.1,"yT2":0,"toosoon":0,"cond_shown":"randomdotsizeEA","ratio_trial":500,"smaller_num":"10","larger_num":"20","correct_side":2,"subjID":"JulianCamiloNobzaArias24","gender":"0","age":"11","school":"6"},{"start_time":1551881294618,"click_time":1551881295819,"finger_time":1551881294840,"fix_duration":1237.6132811374878,"trial":41,"RT":222,"MT":979,"sideResp":2,"stimulus":"img/750/equaldotanddens/R/4_Ratio_750_L_15_R_20.png","xmouse":[794,794,794,794,794,794,794,794,794,793,797,801,803,805,805,805,805,805,805,805,805,805,805,805,805,805,805,805,805,805,805,805,805,805,817,849,860,874,889,909,933,941,948,957,972,1007,1010,1013,1015,1017,1022,1023,1025,1026,1027,1032,1036,1041,1046,1054,1096],"ymouse":[622,622,622,622,622,618,613,608,604,601,574,558,548,539,536,535,535,535,535,535,535,535,535,535,535,535,535,535,535,535,535,535,535,528,501,406,368,338,314,293,278,271,261,248,229,201,198,196,195,195,192,191,187,184,181,175,171,167,162,149,84],"timestamp_mouse":[8,22,40,63,80,100,121,142,162,181,201,222,242,261,281,300,322,341,361,381,401,421,442,461,480,502,521,540,561,582,602,621,641,661,681,700,721,741,761,782,801,822,842,861,881,901,922,941,961,982,1001,1020,1042,1061,1081,1101,1121,1141,1162,1182,1201],"xSR":741.5,"ySR":573.95,"xT1":424.9,"yT1":0,"xT2":1058.1,"yT2":0,"toosoon":0,"cond_shown":"equaldotanddens","ratio_trial":750,"smaller_num":"15","larger_num":"20","correct_side":2,"subjID":"JulianCamiloNobzaArias24","gender":"0","age":"11","school":"6"},{"start_time":1551881300792,"click_time":1551881302619,"finger_time":1551881301619,"fix_duration":250,"trial":42,"RT":827,"MT":1000,"sideResp":1,"stimulus":"img/900/randomdotsizeEA/L/1_Ratio_900_L_10_R_9.png","xmouse":[789,789,789,789,789,789,789,789,789,789,789,789,789,789,789,789,789,789,789,789,789,789,789,789,789,789,789,789,789,790,790,791,795,798,800,802,812,817,822,827,832,857,874,890,906,935,985,1003,1015,1022,1029,1038,1042,1047,1050,1052,1052,1052,1052,1052,1052,1052,1052,1049,1026,996,916,891,865,834,801,719,686,660,641,638,638,637,623,602,579,555,554,552,551,550,549,547,543,539,526,483],"ymouse":[635,635,635,635,635,635,635,635,635,635,635,635,635,635,635,635,635,635,635,635,635,635,635,635,635,635,635,635,635,635,634,627,622,617,614,609,602,599,593,585,576,546,531,517,503,474,427,408,389,372,350,277,229,196,171,159,155,155,155,155,155,155,155,153,146,137,124,120,119,115,113,109,107,104,103,103,103,103,102,99,94,90,90,89,89,89,89,88,87,86,85,71],"timestamp_mouse":[9,42,47,67,87,107,127,147,166,187,208,226,247,267,287,307,326,348,367,387,407,427,448,467,487,507,527,547,567,588,607,627,648,668,688,707,727,747,768,788,807,827,847,867,888,907,927,947,967,987,1008,1027,1048,1066,1087,1108,1127,1147,1167,1187,1207,1227,1247,1268,1288,1307,1327,1348,1366,1387,1408,1427,1446,1467,1488,1508,1528,1548,1567,1588,1607,1627,1647,1667,1687,1707,1727,1746,1766,1787,1807,1827],"xSR":741.5,"ySR":573.95,"xT1":424.9,"yT1":0,"xT2":1058.1,"yT2":0,"toosoon":0,"cond_shown":"randomdotsizeEA","ratio_trial":900,"smaller_num":"9","larger_num":"10","correct_side":1,"subjID":"JulianCamiloNobzaArias24","gender":"0","age":"11","school":"6"},{"start_time":1551881304838,"click_time":1551881306399,"finger_time":1551881305560,"fix_duration":1298.5438479260135,"trial":43,"RT":722,"MT":839,"sideResp":2,"stimulus":"img/900/equaldotsize/R/11_Ratio_900_L_18_R_20.png","xmouse":[806,806,806,806,806,806,806,806,806,806,806,806,806,806,806,806,806,806,806,806,806,806,806,806,806,806,806,806,806,806,806,806,808,813,830,838,845,851,856,878,895,926,964,985,998,998,1001,1005,1010,1014,1014,1015,1015,1016,1021,1024,1029,1035,1042,1056,1063,1066,1066,1066,1066,1066,1066,1066,1066,1063,1061,1061,1061,1061,1061,1061,1064,1075,1105],"ymouse":[622,622,622,622,622,622,622,622,622,622,622,622,622,622,622,622,622,622,622,622,622,622,622,622,622,622,622,622,622,622,622,622,620,615,597,587,573,557,534,419,346,276,219,194,181,181,180,178,176,174,174,173,173,173,166,162,158,154,147,134,125,119,119,119,119,119,119,119,119,122,123,123,123,123,123,123,123,111,73],"timestamp_mouse":[9,28,41,61,81,101,121,142,162,180,201,222,242,261,281,302,321,342,360,381,400,421,441,461,482,500,521,541,561,581,602,620,641,662,681,701,722,742,761,781,801,822,840,861,881,902,920,942,961,981,1001,1021,1041,1062,1081,1102,1122,1141,1161,1181,1201,1221,1241,1261,1281,1302,1322,1342,1361,1381,1401,1421,1441,1462,1481,1501,1521,1542,1561],"xSR":741.5,"ySR":573.95,"xT1":424.9,"yT1":0,"xT2":1058.1,"yT2":0,"toosoon":0,"cond_shown":"equaldotsize","ratio_trial":900,"smaller_num":"18","larger_num":"20","correct_side":2,"subjID":"JulianCamiloNobzaArias24","gender":"0","age":"11","school":"6"},{"start_time":1551881308393,"click_time":1551881310399,"finger_time":1551881309400,"fix_duration":973.4152063867522,"trial":44,"RT":1007,"MT":999,"sideResp":2,"stimulus":"img/250/equaldotanddens/R/6_Ratio_250_L_6_R_24.png","xmouse":[791,791,791,791,791,791,791,791,791,791,791,791,791,791,791,791,791,791,791,791,791,791,791,792,792,792,792,792,792,792,792,792,792,792,792,792,792,792,792,792,792,792,792,792,792,792,794,799,804,816,831,850,858,864,876,898,985,1019,1047,1075,1096,1114,1115,1115,1115,1115,1115,1115,1115,1115,1115,1115,1115,1115,1115,1115,1115,1115,1115,1115,1115,1115,1115,1115,1115,1115,1115,1115,1115,1115,1115,1115,1115,1115,1115,1115,1115,1115,1115,1114,1113],"ymouse":[592,592,592,592,592,592,592,592,592,592,592,592,592,592,592,592,592,592,592,592,592,592,592,592,592,592,592,592,592,592,592,592,592,592,592,592,592,592,592,592,592,592,592,592,592,592,592,590,586,577,565,545,527,505,470,409,203,118,38,0,0,0,0,0,0,0,0,0,0,0,0,0,0,0,0,0,0,0,0,0,0,0,0,0,0,0,0,0,0,0,0,0,0,0,0,0,0,0,0,0,1],"timestamp_mouse":[9,39,47,66,86,106,126,146,167,186,206,227,247,266,286,306,325,346,366,386,406,426,445,466,487,507,526,546,566,586,607,626,646,666,686,706,727,746,767,786,807,826,846,866,886,906,925,946,967,987,1007,1026,1045,1066,1087,1106,1126,1147,1167,1187,1207,1226,1247,1267,1286,1307,1326,1346,1366,1387,1407,1427,1447,1467,1485,1507,1526,1547,1567,1586,1605,1627,1646,1667,1686,1706,1727,1746,1766,1786,1806,1826,1846,1866,1886,1905,1926,1945,1967,1986,2006],"xSR":741.5,"ySR":573.95,"xT1":424.9,"yT1":0,"xT2":1058.1,"yT2":0,"toosoon":0,"cond_shown":"equaldotanddens","ratio_trial":250,"smaller_num":"6","larger_num":"24","correct_side":2,"subjID":"JulianCamiloNobzaArias24","gender":"0","age":"11","school":"6"},{"start_time":1551881312354,"click_time":1551881313419,"finger_time":1551881313158,"fix_duration":793.7167860468344,"trial":45,"RT":804,"MT":261,"sideResp":2,"stimulus":"img/900/randomdotsizeEA/R/15_Ratio_900_L_9_R_10.png","xmouse":[795,795,795,795,795,795,795,795,795,795,795,795,795,795,795,795,795,795,795,795,795,795,795,795,795,795,795,795,795,795,795,795,795,795,795,795,795,795,819,837,851,867,877,907,930,955,974,993,1008,1013,1024,1038,1058,1087],"ymouse":[649,649,649,649,649,649,649,649,649,649,649,649,649,649,649,649,649,649,649,649,649,649,649,649,649,649,649,649,649,649,649,649,649,649,649,649,649,649,627,612,592,573,557,512,474,429,386,345,253,224,193,163,133,89],"timestamp_mouse":[4,25,45,65,85,105,126,144,166,184,205,226,244,265,285,305,326,345,364,385,405,426,445,465,485,505,525,545,565,585,605,625,644,665,685,705,724,745,765,786,804,825,845,865,886,906,926,945,965,985,1005,1026,1045,1065],"xSR":741.5,"ySR":573.95,"xT1":424.9,"yT1":0,"xT2":1058.1,"yT2":0,"toosoon":0,"cond_shown":"randomdotsizeEA","ratio_trial":900,"smaller_num":"9","larger_num":"10","correct_side":2,"subjID":"JulianCamiloNobzaArias24","gender":"0","age":"11","school":"6"},{"start_time":1551881315467,"click_time":1551881316719,"finger_time":1551881315819,"fix_duration":1247.173898079044,"trial":46,"RT":352,"MT":900,"sideResp":2,"stimulus":"img/900/randomdotsizeEA/L/4_Ratio_900_L_20_R_18.png","xmouse":[817,817,817,817,817,817,817,817,817,817,817,817,817,817,817,819,826,840,845,855,869,888,924,933,938,943,948,965,973,979,988,1000,1041,1058,1072,1082,1087,1090,1090,1091,1094,1095,1096,1096,1096,1096,1096,1096,1096,1096,1096,1096,1096,1096,1096,1096,1096,1096,1096,1096,1096,1096,1107],"ymouse":[596,596,596,596,596,596,596,596,596,596,596,596,596,596,596,592,585,569,561,554,545,532,490,471,455,438,417,373,347,323,293,257,180,156,138,126,121,117,117,116,114,113,110,110,110,110,110,110,110,110,110,110,110,110,110,110,110,110,110,110,106,106,81],"timestamp_mouse":[13,32,51,72,92,112,132,152,172,193,212,232,252,272,291,313,333,352,373,392,412,432,452,473,492,512,532,552,573,592,612,632,652,673,692,712,732,752,772,792,813,832,851,873,892,912,932,953,972,993,1013,1031,1051,1072,1092,1112,1132,1152,1171,1193,1212,1232,1252],"xSR":741.5,"ySR":573.95,"xT1":424.9,"yT1":0,"xT2":1058.1,"yT2":0,"toosoon":0,"cond_shown":"randomdotsizeEA","ratio_trial":900,"smaller_num":"18","larger_num":"20","correct_side":1,"subjID":"JulianCamiloNobzaArias24","gender":"0","age":"11","school":"6"},{"start_time":1551881318973,"click_time":1551881319919,"finger_time":1551881319580,"fix_duration":1293.9776588281572,"trial":47,"RT":607,"MT":339,"sideResp":1,"stimulus":"img/500/equaldotsize/L/5_Ratio_500_L_4_R_2.png","xmouse":[790,790,790,790,790,790,790,790,790,790,790,790,790,790,790,790,790,790,790,790,790,790,790,790,790,790,790,790,785,775,763,743,691,673,665,658,655,644,632,617,606,592,569,560,551,540,529,496],"ymouse":[614,614,614,614,614,614,614,614,614,614,614,614,614,614,614,614,614,614,614,614,614,614,614,614,614,614,614,614,608,589,560,519,392,350,329,312,299,275,256,233,212,189,149,132,116,99,83,51],"timestamp_mouse":[11,33,46,66,86,105,126,146,166,186,207,226,246,266,286,307,326,346,366,385,406,426,446,466,485,507,526,547,566,586,607,627,645,665,685,706,727,746,766,786,806,826,846,867,886,906,927,945],"xSR":741.5,"ySR":573.95,"xT1":424.9,"yT1":0,"xT2":1058.1,"yT2":0,"toosoon":0,"cond_shown":"equaldotsize","ratio_trial":500,"smaller_num":"2","larger_num":"4","correct_side":1,"subjID":"JulianCamiloNobzaArias24","gender":"0","age":"11","school":"6"},{"start_time":1551881321560,"click_time":1551881322662,"finger_time":1551881322301,"fix_duration":617.807217987405,"trial":48,"RT":741,"MT":361,"sideResp":2,"stimulus":"img/750/randomdotsizeEA/R/4_Ratio_750_L_15_R_20.png","xmouse":[784,784,784,784,784,784,784,784,784,784,784,784,784,784,784,784,784,784,784,784,784,784,784,784,784,784,784,784,784,784,784,784,784,784,789,796,806,815,838,850,876,923,970,1008,1017,1020,1022,1026,1032,1036,1041,1044,1050,1063,1073,1089],"ymouse":[598,598,598,598,598,598,598,598,598,598,598,598,598,598,598,598,598,598,598,598,598,598,598,598,598,598,598,598,598,598,598,598,598,598,596,589,580,569,539,523,491,444,399,343,328,317,306,292,250,233,215,199,180,146,125,99],"timestamp_mouse":[8,21,43,61,81,101,121,141,161,181,201,222,242,261,282,302,322,342,362,381,402,421,441,462,481,501,521,541,561,582,601,622,641,662,681,701,722,741,761,782,801,821,841,861,882,901,922,942,961,982,1001,1021,1041,1062,1082,1102],"xSR":741.5,"ySR":573.95,"xT1":424.9,"yT1":0,"xT2":1058.1,"yT2":0,"toosoon":0,"cond_shown":"randomdotsizeEA","ratio_trial":750,"smaller_num":"15","larger_num":"20","correct_side":2,"subjID":"JulianCamiloNobzaArias24","gender":"0","age":"11","school":"6"},{"start_time":1551881324435,"click_time":1551881325881,"finger_time":1551881325001,"fix_duration":593.6797528687949,"trial":49,"RT":566,"MT":880,"sideResp":1,"stimulus":"img/500/randomdotsizeEA/L/4_Ratio_500_L_18_R_9.png","xmouse":[786,786,786,786,786,786,786,786,786,786,786,786,786,786,786,786,786,786,786,786,786,786,786,786,786,783,776,764,743,696,673,651,633,618,610,610,610,610,610,610,610,610,604,594,563,545,521,502,494,492,492,492,492,492,492,492,492,492,492,492,492,492,492,492,492,492,492,492,492,492,492,492,492],"ymouse":[652,652,652,652,652,652,652,652,652,652,652,652,652,652,652,652,652,652,652,652,652,652,652,652,651,635,615,588,547,441,382,333,291,253,215,209,202,193,185,156,136,112,86,62,18,6,0,0,0,0,0,0,0,0,0,0,0,0,0,0,0,0,0,0,0,0,0,0,0,0,0,0,1],"timestamp_mouse":[9,38,46,66,86,107,126,147,166,186,206,227,246,267,288,307,327,347,367,387,407,426,447,466,485,507,527,546,566,586,607,626,647,666,686,707,727,746,767,786,806,827,847,867,886,906,927,946,966,987,1007,1026,1046,1067,1087,1106,1126,1147,1167,1187,1206,1226,1246,1266,1286,1306,1326,1346,1367,1387,1406,1426,1446],"xSR":741.5,"ySR":573.95,"xT1":424.9,"yT1":0,"xT2":1058.1,"yT2":0,"toosoon":0,"cond_shown":"randomdotsizeEA","ratio_trial":500,"smaller_num":"9","larger_num":"18","correct_side":1,"subjID":"JulianCamiloNobzaArias24","gender":"0","age":"11","school":"6"},{"start_time":1551881327857,"click_time":1551881328641,"finger_time":1551881328302,"fix_duration":1034.7055322767892,"trial":50,"RT":445,"MT":339,"sideResp":2,"stimulus":"img/750/equaldotanddens/R/15_Ratio_750_L_9_R_12.png","xmouse":[773,773,773,773,773,773,773,773,773,773,773,773,773,773,773,773,773,773,773,773,779,786,798,811,820,829,844,859,935,975,1006,1024,1037,1051,1051,1052,1054,1055,1057,1059],"ymouse":[617,617,617,617,617,617,617,617,617,617,617,617,617,617,617,617,617,617,617,613,601,587,565,538,523,507,487,462,326,234,162,119,92,75,75,74,73,72,72,71],"timestamp_mouse":[4,24,45,64,84,105,125,144,165,184,204,224,244,264,284,304,324,344,365,384,404,424,445,464,485,504,524,544,564,585,604,625,644,664,685,704,725,745,764,784],"xSR":741.5,"ySR":573.95,"xT1":424.9,"yT1":0,"xT2":1058.1,"yT2":0,"toosoon":0,"cond_shown":"equaldotanddens","ratio_trial":750,"smaller_num":"9","larger_num":"12","correct_side":2,"subjID":"JulianCamiloNobzaArias24","gender":"0","age":"11","school":"6"},{"start_time":1551881330970,"click_time":1551881332103,"finger_time":1551881331602,"fix_duration":1147.8266870585708,"trial":51,"RT":632,"MT":501,"sideResp":1,"stimulus":"img/750/randomdotsizeEA/L/8_Ratio_750_L_4_R_3.png","xmouse":[765,765,765,765,765,765,765,765,765,765,765,765,765,765,765,765,765,765,765,765,765,765,765,765,765,765,764,760,759,756,751,740,673,611,550,503,469,444,443,443,447,460,493,506,515,531,549,562,562,562,562,551,489,463,448,437,434],"ymouse":[605,605,605,605,605,605,605,605,605,605,605,605,605,605,605,605,605,605,605,605,605,605,605,603,601,600,597,590,588,582,574,561,501,451,400,355,315,262,251,244,237,230,213,208,205,205,205,206,206,206,206,191,144,126,113,103,99],"timestamp_mouse":[11,31,52,71,91,111,131,151,171,192,212,231,252,272,292,312,331,352,372,392,411,431,451,471,493,512,531,551,571,591,612,632,651,671,691,711,732,751,772,791,812,831,851,872,891,912,932,951,972,991,1012,1032,1051,1071,1092,1112,1133],"xSR":741.5,"ySR":573.95,"xT1":424.9,"yT1":0,"xT2":1058.1,"yT2":0,"toosoon":0,"cond_shown":"randomdotsizeEA","ratio_trial":750,"smaller_num":"3","larger_num":"4","correct_side":1,"subjID":"JulianCamiloNobzaArias24","gender":"0","age":"11","school":"6"},{"start_time":1551881333782,"click_time":1551881335201,"finger_time":1551881334661,"fix_duration":800.2018303744601,"trial":52,"RT":879,"MT":540,"sideResp":1,"stimulus":"img/900/equaldotanddens/L/4_Ratio_900_L_20_R_18.png","xmouse":[773,773,773,773,773,773,773,773,773,773,773,773,773,773,773,773,773,773,773,773,773,773,773,773,773,773,773,773,773,773,773,773,773,773,773,773,773,773,773,773,777,788,796,804,818,831,855,858,858,858,858,849,824,780,728,669,581,567,558,553,549,542,540,538,536,535,533,533,533,529,519],"ymouse":[627,627,627,627,627,627,627,627,627,627,627,627,627,627,627,627,627,627,627,627,627,627,627,627,627,627,627,627,627,627,627,627,627,627,627,627,627,627,627,627,621,597,576,553,521,485,430,422,418,418,417,411,398,373,340,299,222,205,191,179,165,137,125,113,102,93,87,87,85,81,71],"timestamp_mouse":[20,40,60,79,99,120,139,159,179,199,219,240,259,279,299,319,339,359,379,400,420,440,460,479,500,519,539,560,579,599,620,640,659,679,700,719,740,759,779,799,819,839,860,879,899,920,939,959,979,999,1019,1039,1059,1079,1100,1120,1139,1160,1179,1200,1220,1239,1261,1279,1299,1319,1339,1359,1379,1400,1419],"xSR":741.5,"ySR":573.95,"xT1":424.9,"yT1":0,"xT2":1058.1,"yT2":0,"toosoon":0,"cond_shown":"equaldotanddens","ratio_trial":900,"smaller_num":"18","larger_num":"20","correct_side":1,"subjID":"JulianCamiloNobzaArias24","gender":"0","age":"11","school":"6"},{"start_time":1551881336172,"click_time":1551881337461,"finger_time":1551881337221,"fix_duration":250,"trial":53,"RT":1049,"MT":240,"sideResp":2,"stimulus":"img/250/equaldotsize/R/13_Ratio_250_L_2_R_8.png","xmouse":[780,778,773,773,773,773,773,773,773,773,773,773,773,773,773,773,773,773,773,773,774,776,779,779,779,779,779,779,779,779,779,779,779,779,779,779,779,779,779,779,779,779,779,779,779,779,779,779,779,779,788,793,812,820,826,835,859,916,948,972,991,1019,1060,1074,1085],"ymouse":[574,574,575,575,575,575,575,575,575,575,575,575,575,575,575,575,575,575,578,582,585,590,594,594,594,594,594,594,594,594,594,594,594,594,594,594,594,594,594,594,594,594,594,594,594,594,594,594,594,594,587,583,561,549,537,524,500,455,424,386,347,280,159,114,87],"timestamp_mouse":[9,29,49,69,89,109,130,149,169,190,209,229,249,269,290,310,330,349,369,390,410,429,449,469,489,510,529,550,570,589,610,629,649,669,689,709,730,750,769,789,810,829,849,870,891,910,930,949,970,989,1009,1030,1049,1070,1090,1110,1129,1149,1170,1189,1210,1229,1250,1269,1289],"xSR":741.5,"ySR":573.95,"xT1":424.9,"yT1":0,"xT2":1058.1,"yT2":0,"toosoon":0,"cond_shown":"equaldotsize","ratio_trial":250,"smaller_num":"2","larger_num":"8","correct_side":2,"subjID":"JulianCamiloNobzaArias24","gender":"0","age":"11","school":"6"},{"start_time":1551881338974,"click_time":1551881339642,"finger_time":1551881339521,"fix_duration":250,"trial":54,"RT":547,"MT":121,"sideResp":2,"stimulus":"img/250/equaldotsize/R/6_Ratio_250_L_6_R_24.png","xmouse":[800,800,800,800,800,800,800,800,800,800,800,800,800,800,800,800,800,800,800,800,800,800,800,800,800,801,804,843,875,907,945,990,1109,1157],"ymouse":[604,604,604,604,604,604,604,604,604,604,604,604,604,604,604,604,604,604,604,604,604,604,604,604,604,601,593,514,458,405,345,283,145,84],"timestamp_mouse":[8,28,47,68,88,107,128,147,167,188,207,228,247,267,288,308,327,347,368,387,407,427,448,467,487,507,528,547,567,587,607,627,647,668],"xSR":741.5,"ySR":573.95,"xT1":424.9,"yT1":0,"xT2":1058.1,"yT2":0,"toosoon":0,"cond_shown":"equaldotsize","ratio_trial":250,"smaller_num":"6","larger_num":"24","correct_side":2,"subjID":"JulianCamiloNobzaArias24","gender":"0","age":"11","school":"6"},{"start_time":1551881343984,"click_time":1551881344982,"finger_time":1551881344581,"fix_duration":942.2926283588677,"trial":55,"RT":597,"MT":401,"sideResp":1,"stimulus":"img/750/equaldotsize/R/3_Ratio_750_L_15_R_20.png","xmouse":[795,795,795,795,795,795,795,795,795,795,795,795,795,795,795,795,795,795,795,795,795,795,795,795,795,795,795,795,793,791,790,779,767,755,734,711,637,612,598,590,587,586,585,581,574,564,542,526,516,511],"ymouse":[611,611,611,611,611,611,611,611,611,611,611,611,611,611,611,611,611,611,611,611,611,611,611,611,611,611,610,592,584,572,561,534,514,492,453,413,295,257,232,219,213,211,210,203,191,174,141,115,100,91],"timestamp_mouse":[18,48,57,77,97,118,137,158,177,197,218,238,257,278,298,318,337,357,378,397,417,438,457,478,497,518,537,557,577,597,617,637,658,677,698,718,737,757,777,798,818,837,857,878,898,917,937,957,977,998],"xSR":741.5,"ySR":573.95,"xT1":424.9,"yT1":0,"xT2":1058.1,"yT2":0,"toosoon":0,"cond_shown":"equaldotsize","ratio_trial":750,"smaller_num":"15","larger_num":"20","correct_side":2,"subjID":"JulianCamiloNobzaArias24","gender":"0","age":"11","school":"6"},{"start_time":1551881346081,"click_time":1551881346921,"finger_time":1551881346421,"fix_duration":377.6543287895735,"trial":56,"RT":340,"MT":500,"sideResp":2,"stimulus":"img/250/randomdotsizeEA/R/11_Ratio_250_L_3_R_12.png","xmouse":[801,801,801,801,801,801,801,801,801,801,801,801,801,801,801,801,800,839,878,899,918,932,946,946,946,946,946,944,940,937,935,931,986,1015,1019,1019,1019,1026,1049,1078,1098,1111,1118],"ymouse":[622,622,622,622,622,622,622,622,622,622,622,622,622,622,622,622,619,473,307,145,10,0,0,0,0,0,17,60,73,96,117,150,224,237,238,238,238,237,218,185,147,108,68],"timestamp_mouse":[9,20,40,61,80,100,121,140,160,180,201,220,240,260,280,300,320,340,361,380,400,420,440,461,481,500,521,540,560,582,601,621,640,660,680,701,720,740,761,781,800,821,840],"xSR":741.5,"ySR":573.95,"xT1":424.9,"yT1":0,"xT2":1058.1,"yT2":0,"toosoon":0,"cond_shown":"randomdotsizeEA","ratio_trial":250,"smaller_num":"3","larger_num":"12","correct_side":2,"subjID":"JulianCamiloNobzaArias24","gender":"0","age":"11","school":"6"},{"start_time":1551881349872,"click_time":1551881350421,"finger_time":1551881350361,"fix_duration":730.3783272854691,"trial":57,"RT":489,"MT":60,"sideResp":1,"stimulus":"img/500/equaldotsize/L/11_Ratio_500_L_12_R_6.png","xmouse":[799,799,799,799,799,799,799,799,799,799,799,799,799,799,799,799,799,799,799,799,799,799,798,775,730,672,603,438],"ymouse":[608,608,608,608,608,608,608,608,608,608,608,608,608,608,608,608,608,608,608,608,608,608,606,592,531,435,319,94],"timestamp_mouse":[10,33,49,69,91,110,130,149,169,190,210,230,250,269,289,309,330,349,369,390,410,429,449,470,489,509,529,549],"xSR":741.5,"ySR":573.95,"xT1":424.9,"yT1":0,"xT2":1058.1,"yT2":0,"toosoon":0,"cond_shown":"equaldotsize","ratio_trial":500,"smaller_num":"6","larger_num":"12","correct_side":1,"subjID":"JulianCamiloNobzaArias24","gender":"0","age":"11","school":"6"},{"start_time":1551881351706,"click_time":1551881352521,"finger_time":1551881352141,"fix_duration":624.2238081909519,"trial":58,"RT":435,"MT":380,"sideResp":2,"stimulus":"img/900/randomdotsizeEA/R/6_Ratio_900_L_9_R_10.png","xmouse":[766,766,766,766,766,766,766,766,766,766,766,766,766,766,766,766,766,766,766,766,770,792,834,909,973,1103,1149,1174,1180,1181,1181,1181,1181,1181,1182,1184,1179,1164,1146,1127,1124],"ymouse":[579,579,579,579,579,579,579,579,579,579,579,579,579,579,579,579,579,579,579,579,577,565,542,499,444,279,211,167,151,148,148,148,147,144,142,140,134,128,118,107,96],"timestamp_mouse":[15,38,55,76,95,115,137,156,176,196,216,235,256,275,296,315,336,356,375,396,415,435,455,476,495,515,535,555,575,595,616,635,655,675,696,715,736,755,775,796,815],"xSR":741.5,"ySR":573.95,"xT1":424.9,"yT1":0,"xT2":1058.1,"yT2":0,"toosoon":0,"cond_shown":"randomdotsizeEA","ratio_trial":900,"smaller_num":"9","larger_num":"10","correct_side":2,"subjID":"JulianCamiloNobzaArias24","gender":"0","age":"11","school":"6"},{"start_time":1551881353673,"click_time":1551881355121,"finger_time":1551881354381,"fix_duration":250,"trial":59,"RT":708,"MT":740,"sideResp":1,"stimulus":"img/500/equaldotsize/L/4_Ratio_500_L_18_R_9.png","xmouse":[802,802,807,809,810,810,810,810,810,810,810,810,810,810,810,810,810,810,810,810,810,810,810,810,810,810,810,810,810,810,810,811,798,790,779,760,736,681,643,607,573,534,507,501,497,494,493,493,493,493,493,498,586,650,715,750,764,758,747,734,714,686,630,619,615,613,612,611,610,609,602,588,521],"ymouse":[598,598,598,600,600,600,600,600,600,600,600,600,600,600,600,600,600,600,600,600,600,600,600,600,600,600,600,600,600,600,600,600,592,586,574,548,511,386,305,216,136,46,0,0,0,0,0,0,0,0,0,0,47,98,153,186,209,220,225,230,230,221,192,184,181,179,178,173,172,170,160,144,89],"timestamp_mouse":[8,29,48,68,89,110,129,148,169,189,209,228,249,268,288,309,330,348,368,388,409,428,448,469,489,509,528,548,568,588,609,628,648,668,689,708,729,748,768,788,809,828,849,868,888,909,928,948,969,988,1008,1028,1047,1068,1089,1109,1128,1148,1168,1188,1208,1229,1248,1268,1288,1309,1328,1348,1369,1388,1408,1428,1448],"xSR":741.5,"ySR":573.95,"xT1":424.9,"yT1":0,"xT2":1058.1,"yT2":0,"toosoon":0,"cond_shown":"equaldotsize","ratio_trial":500,"smaller_num":"9","larger_num":"18","correct_side":1,"subjID":"JulianCamiloNobzaArias24","gender":"0","age":"11","school":"6"},{"start_time":1551881357254,"click_time":1551881357862,"finger_time":1551881357721,"fix_duration":1131.8905475665865,"trial":60,"RT":467,"MT":141,"sideResp":2,"stimulus":"img/900/equaldotanddens/R/11_Ratio_900_L_18_R_20.png","xmouse":[819,819,819,819,819,819,819,819,819,819,819,819,819,819,819,819,819,819,819,819,819,818,823,857,885,920,944,972,1036,1067,1087],"ymouse":[627,627,627,627,627,627,627,627,627,627,627,627,627,627,627,627,627,627,627,627,627,618,595,492,440,381,338,283,162,113,83],"timestamp_mouse":[8,38,47,67,88,108,127,148,168,187,208,227,247,267,287,307,327,348,368,387,407,427,447,467,487,507,528,547,567,588,608],"xSR":741.5,"ySR":573.95,"xT1":424.9,"yT1":0,"xT2":1058.1,"yT2":0,"toosoon":0,"cond_shown":"equaldotanddens","ratio_trial":900,"smaller_num":"18","larger_num":"20","correct_side":2,"subjID":"JulianCamiloNobzaArias24","gender":"0","age":"11","school":"6"},{"start_time":1551881359270,"click_time":1551881360361,"finger_time":1551881359761,"fix_duration":506.5064734355761,"trial":61,"RT":491,"MT":600,"sideResp":2,"stimulus":"img/500/equaldotsize/R/3_Ratio_500_L_10_R_20.png","xmouse":[783,783,783,783,783,783,783,783,783,783,783,783,783,783,783,783,783,783,783,783,783,783,783,783,782,781,781,781,781,781,781,790,825,904,963,1029,1072,1125,1130,1131,1126,1115,1070,1062,1060,1060,1060,1060,1059,1057,1056,1055,1057,1063,1070],"ymouse":[579,579,579,579,579,579,579,579,579,579,579,579,579,579,579,579,579,579,579,579,579,579,579,576,569,564,560,558,558,557,556,547,529,486,459,427,399,334,309,288,267,246,205,198,197,197,197,190,182,172,164,157,138,118,94],"timestamp_mouse":[11,31,51,71,91,111,132,152,171,191,211,231,251,271,291,311,332,351,371,392,412,431,451,471,491,512,531,551,571,591,612,632,651,671,691,711,732,752,772,792,812,832,851,871,891,911,931,951,972,991,1011,1031,1051,1071,1091],"xSR":741.5,"ySR":573.95,"xT1":424.9,"yT1":0,"xT2":1058.1,"yT2":0,"toosoon":0,"cond_shown":"equaldotsize","ratio_trial":500,"smaller_num":"10","larger_num":"20","correct_side":2,"subjID":"JulianCamiloNobzaArias24","gender":"0","age":"11","school":"6"},{"start_time":1551881361712,"click_time":1551881363001,"finger_time":1551881362161,"fix_duration":708.3050495090372,"trial":62,"RT":449,"MT":840,"sideResp":1,"stimulus":"img/750/randomdotsizeEA/L/9_Ratio_750_L_4_R_3.png","xmouse":[792,792,792,792,792,792,792,792,792,792,792,792,792,792,792,792,79