[{"start_time":1551881198892,"click_time":1551881199683,"finger_time":1551881198903,"fix_duration":428.6715365201786,"trial":0,"RT":11,"MT":780,"sideResp":2,"stimulus":"img/500/equaldotanddens/R/15_Ratio_500_L_1_R_2.png","xmouse":[796,796,796,796,796,796,796,796,796,796,796,796,796,796,796,796,789,786,782,779,779,779,779,779,779,779,779,779,779,779,781,791,799,809,837,895,1032,1062,1073,1080],"ymouse":[510,510,510,510,510,510,510,510,510,510,510,510,510,510,510,511,546,565,578,585,589,590,590,590,590,590,590,591,595,603,616,638,643,640,612,547,304,196,117,73],"timestamp_mouse":[11,29,49,70,90,110,130,150,170,190,210,230,251,271,289,311,331,350,370,389,410,430,450,470,491,509,531,550,570,591,609,630,649,670,689,711,730,751,770,790],"xSR":741.5,"ySR":449.15000000000003,"xT1":424.9,"yT1":0,"xT2":1058.1,"yT2":0,"toosoon":0,"cond_shown":"equaldotanddens","ratio_trial":500,"smaller_num":"1","larger_num":"2","correct_side":2,"subjID":"juliandavidtapiascedeño29","gender":"0","age":"12","school":"6","test":{"fix_dur":[250,1500],"timestim":300,"targets_dim":[100,100],"targets_relative_coord":[0.3,0.7],"size_stim":[880,420],"start_dim":[100,100],"size_start":[300,300],"size_fix":60,"samplingrate":20,"img_types":["equaldotsize","equaldotanddens","randomdotsizeEA"],"ratios":[250,500,750,900],"rep_conds":9,"nTrials":120,"trials_to_rest":500,"Trials_order":[28,117,27,95,20,76,69,72,1,90,19,71,47,32,98,70,73,17,26,67,105,40,57,45,43,4,112,113,109,24,33,88,62,2,78,101,38,83,99,106,93,49,111,110,6,94,116,44,50,16,15,68,52,35,39,9,89,61,11,65,0,118,14,97,84,12,119,59,104,42,60,48,51,54,5,91,66,13,30,10,34,75,18,3,53,86,77,96,80,7,82,8,92,102,64,103,55,79,36,56,114,37,63,74,85,21,81,100,115,107,25,22,29,31,58,41,108,23,46,87],"cond_shown":["equaldotanddens","equaldotsize","equaldotsize","randomdotsizeEA","randomdotsizeEA","equaldotanddens","equaldotsize","equaldotsize","equaldotanddens","equaldotsize","equaldotanddens","randomdotsizeEA","randomdotsizeEA","randomdotsizeEA","randomdotsizeEA","equaldotanddens","equaldotanddens","randomdotsizeEA","randomdotsizeEA","equaldotanddens","equaldotsize","equaldotanddens","equaldotsize","equaldotsize","equaldotanddens","equaldotanddens","equaldotanddens","randomdotsizeEA","equaldotanddens","equaldotsize","equaldotsize","equaldotanddens","randomdotsizeEA","randomdotsizeEA","equaldotsize","randomdotsizeEA","randomdotsizeEA","randomdotsizeEA","equaldotsize","equaldotanddens","equaldotsize","equaldotanddens","equaldotsize","randomdotsizeEA","equaldotsize","equaldotanddens","randomdotsizeEA","randomdotsizeEA","randomdotsizeEA","equaldotanddens","equaldotsize","randomdotsizeEA","equaldotanddens","randomdotsizeEA","equaldotsize","equaldotsize","randomdotsizeEA","equaldotanddens","randomdotsizeEA","randomdotsizeEA","equaldotsize","equaldotanddens","randomdotsizeEA","equaldotanddens","equaldotsize","equaldotsize","randomdotsizeEA","randomdotsizeEA","randomdotsizeEA","equaldotsize","equaldotsize","equaldotsize","equaldotsize","equaldotsize","randomdotsizeEA","equaldotanddens","equaldotsize","equaldotanddens","equaldotsize","equaldotanddens","equaldotanddens","equaldotsize","equaldotsize","equaldotsize","randomdotsizeEA","randomdotsizeEA","randomdotsizeEA","equaldotsize","randomdotsizeEA","equaldotanddens","equaldotanddens","randomdotsizeEA","randomdotsizeEA","equaldotsize","equaldotanddens","equaldotanddens","equaldotanddens","equaldotanddens","equaldotsize","randomdotsizeEA","equaldotsize","equaldotanddens","equaldotsize","randomdotsizeEA","equaldotanddens","equaldotsize","equaldotsize","equaldotanddens","equaldotanddens","randomdotsizeEA","equaldotanddens","equaldotanddens","randomdotsizeEA","equaldotanddens","equaldotanddens","randomdotsizeEA","equaldotsize","randomdotsizeEA","equaldotanddens","equaldotsize"],"ratio_trial":[500,900,500,900,750,500,900,250,250,750,750,900,900,750,250,900,250,500,250,750,900,500,900,900,750,500,500,500,250,250,900,500,250,250,750,500,250,900,500,900,900,250,500,250,750,900,750,750,250,500,500,750,500,900,500,900,500,250,900,500,250,900,250,250,250,250,900,900,750,750,250,250,500,750,500,750,750,250,750,900,900,500,750,500,500,250,500,250,750,750,900,750,750,750,500,750,750,750,250,750,750,250,500,250,250,900,900,500,750,900,250,900,500,750,900,500,250,900,900,500],"smaller_num":["1","9","6","18","3","2","9","4","3","3","15","9","9","3","4","18","2","1","5","6","9","2","9","18","3","5","5","6","2","3","9","10","6","4","3","2","3","18","4","9","18","4","5","3","6","18","6","9","3","5","5","15","5","18","6","18","10","6","9","2","2","18","3","2","3","3","9","9","3","15","3","4","10","6","9","3","15","2","15","18","9","6","6","6","9","4","1","2","3","15","18","15","15","6","5","15","3","3","5","15","3","1","3","6","3","18","18","5","15","18","5","9","1","3","18","1","1","18","9","4"],"larger_num":["2","10","12","20","4","4","10","16","12","4","20","10","10","4","16","20","8","2","20","8","10","4","10","20","4","10","10","12","8","12","10","20","24","16","4","4","12","20","8","10","20","16","10","12","8","20","8","12","12","10","10","20","10","20","12","20","20","24","10","4","8","20","12","8","12","12","10","10","4","20","12","16","20","8","18","4","20","8","20","20","10","12","8","12","18","16","2","8","4","20","20","20","20","8","10","20","4","4","20","20","4","4","6","24","12","20","20","10","20","20","20","10","2","4","20","2","4","20","10","8"],"correct_side":[2,1,1,2,1,1,2,1,2,1,2,1,2,1,2,1,1,2,2,1,1,1,2,2,1,1,2,1,1,2,2,2,2,1,2,1,2,2,1,1,1,2,1,1,1,2,2,2,2,1,1,2,1,2,1,1,2,1,2,1,1,1,1,1,2,2,2,1,1,1,2,1,2,1,2,1,2,1,2,1,2,1,1,1,2,1,2,1,1,2,1,2,1,1,2,2,1,1,2,2,2,2,2,2,1,1,1,1,2,2,2,2,2,2,2,2,2,2,2,1],"img_shown":["img/500/equaldotanddens/R/15_Ratio_500_L_1_R_2.png","img/900/equaldotsize/L/1_Ratio_900_L_10_R_9.png","img/500/equaldotsize/L/13_Ratio_500_L_12_R_6.png","img/900/randomdotsizeEA/R/14_Ratio_900_L_18_R_20.png","img/750/randomdotsizeEA/L/10_Ratio_750_L_4_R_3.png","img/500/equaldotanddens/L/10_Ratio_500_L_4_R_2.png","img/900/equaldotsize/R/3_Ratio_900_L_9_R_10.png","img/250/equaldotsize/L/2_Ratio_250_L_16_R_4.png","img/250/equaldotanddens/R/9_Ratio_250_L_3_R_12.png","img/750/equaldotsize/L/9_Ratio_750_L_4_R_3.png","img/750/equaldotanddens/R/4_Ratio_750_L_15_R_20.png","img/900/randomdotsizeEA/L/1_Ratio_900_L_10_R_9.png","img/900/randomdotsizeEA/R/6_Ratio_900_L_9_R_10.png","img/750/randomdotsizeEA/L/10_Ratio_750_L_4_R_3.png","img/250/randomdotsizeEA/R/10_Ratio_250_L_4_R_16.png","img/900/equaldotanddens/L/4_Ratio_900_L_20_R_18.png","img/250/equaldotanddens/L/7_Ratio_250_L_8_R_2.png","img/500/randomdotsizeEA/R/12_Ratio_500_L_1_R_2.png","img/250/randomdotsizeEA/R/12_Ratio_250_L_5_R_20.png","img/750/equaldotanddens/L/14_Ratio_750_L_8_R_6.png","img/900/equaldotsize/L/1_Ratio_900_L_10_R_9.png","img/500/equaldotanddens/L/5_Ratio_500_L_4_R_2.png","img/900/equaldotsize/R/5_Ratio_900_L_9_R_10.png","img/900/equaldotsize/R/13_Ratio_900_L_18_R_20.png","img/750/equaldotanddens/L/8_Ratio_750_L_4_R_3.png","img/500/equaldotanddens/L/7_Ratio_500_L_10_R_5.png","img/500/equaldotanddens/R/14_Ratio_500_L_5_R_10.png","img/500/randomdotsizeEA/L/13_Ratio_500_L_12_R_6.png","img/250/equaldotanddens/L/3_Ratio_250_L_8_R_2.png","img/250/equaldotsize/R/11_Ratio_250_L_3_R_12.png","img/900/equaldotsize/R/5_Ratio_900_L_9_R_10.png","img/500/equaldotanddens/R/3_Ratio_500_L_10_R_20.png","img/250/randomdotsizeEA/R/6_Ratio_250_L_6_R_24.png","img/250/randomdotsizeEA/L/2_Ratio_250_L_16_R_4.png","img/750/equaldotsize/R/7_Ratio_750_L_3_R_4.png","img/500/randomdotsizeEA/L/5_Ratio_500_L_4_R_2.png","img/250/randomdotsizeEA/R/4_Ratio_250_L_3_R_12.png","img/900/randomdotsizeEA/R/9_Ratio_900_L_18_R_20.png","img/500/equaldotsize/L/8_Ratio_500_L_8_R_4.png","img/900/equaldotanddens/L/1_Ratio_900_L_10_R_9.png","img/900/equaldotsize/L/4_Ratio_900_L_20_R_18.png","img/250/equaldotanddens/R/10_Ratio_250_L_4_R_16.png","img/500/equaldotsize/L/7_Ratio_500_L_10_R_5.png","img/250/randomdotsizeEA/L/15_Ratio_250_L_12_R_3.png","img/750/equaldotsize/L/13_Ratio_750_L_8_R_6.png","img/900/equaldotanddens/R/14_Ratio_900_L_18_R_20.png","img/750/randomdotsizeEA/R/2_Ratio_750_L_6_R_8.png","img/750/randomdotsizeEA/R/15_Ratio_750_L_9_R_12.png","img/250/randomdotsizeEA/R/9_Ratio_250_L_3_R_12.png","img/500/equaldotanddens/L/7_Ratio_500_L_10_R_5.png","img/500/equaldotsize/L/7_Ratio_500_L_10_R_5.png","img/750/randomdotsizeEA/R/3_Ratio_750_L_15_R_20.png","img/500/equaldotanddens/L/7_Ratio_500_L_10_R_5.png","img/900/randomdotsizeEA/R/11_Ratio_900_L_18_R_20.png","img/500/equaldotsize/L/13_Ratio_500_L_12_R_6.png","img/900/equaldotsize/L/2_Ratio_900_L_20_R_18.png","img/500/randomdotsizeEA/R/3_Ratio_500_L_10_R_20.png","img/250/equaldotanddens/L/5_Ratio_250_L_24_R_6.png","img/900/randomdotsizeEA/R/3_Ratio_900_L_9_R_10.png","img/500/randomdotsizeEA/L/5_Ratio_500_L_4_R_2.png","img/250/equaldotsize/L/1_Ratio_250_L_8_R_2.png","img/900/equaldotanddens/L/2_Ratio_900_L_20_R_18.png","img/250/randomdotsizeEA/L/14_Ratio_250_L_12_R_3.png","img/250/equaldotanddens/L/7_Ratio_250_L_8_R_2.png","img/250/equaldotsize/R/4_Ratio_250_L_3_R_12.png","img/250/equaldotsize/R/11_Ratio_250_L_3_R_12.png","img/900/randomdotsizeEA/R/6_Ratio_900_L_9_R_10.png","img/900/randomdotsizeEA/L/1_Ratio_900_L_10_R_9.png","img/750/randomdotsizeEA/L/10_Ratio_750_L_4_R_3.png","img/750/equaldotsize/L/1_Ratio_750_L_20_R_15.png","img/250/equaldotsize/R/4_Ratio_250_L_3_R_12.png","img/250/equaldotsize/L/2_Ratio_250_L_16_R_4.png","img/500/equaldotsize/R/3_Ratio_500_L_10_R_20.png","img/750/equaldotsize/L/13_Ratio_750_L_8_R_6.png","img/500/randomdotsizeEA/R/1_Ratio_500_L_9_R_18.png","img/750/equaldotanddens/L/10_Ratio_750_L_4_R_3.png","img/750/equaldotsize/R/4_Ratio_750_L_15_R_20.png","img/250/equaldotanddens/L/3_Ratio_250_L_8_R_2.png","img/750/equaldotsize/R/3_Ratio_750_L_15_R_20.png","img/900/equaldotanddens/L/4_Ratio_900_L_20_R_18.png","img/900/equaldotanddens/R/6_Ratio_900_L_9_R_10.png","img/500/equaldotsize/L/13_Ratio_500_L_12_R_6.png","img/750/equaldotsize/L/13_Ratio_750_L_8_R_6.png","img/500/equaldotsize/L/13_Ratio_500_L_12_R_6.png","img/500/randomdotsizeEA/R/6_Ratio_500_L_9_R_18.png","img/250/randomdotsizeEA/L/2_Ratio_250_L_16_R_4.png","img/500/randomdotsizeEA/R/12_Ratio_500_L_1_R_2.png","img/250/equaldotsize/L/7_Ratio_250_L_8_R_2.png","img/750/randomdotsizeEA/L/9_Ratio_750_L_4_R_3.png","img/750/equaldotanddens/R/4_Ratio_750_L_15_R_20.png","img/900/equaldotanddens/L/4_Ratio_900_L_20_R_18.png","img/750/randomdotsizeEA/R/4_Ratio_750_L_15_R_20.png","img/750/randomdotsizeEA/L/1_Ratio_750_L_20_R_15.png","img/750/equaldotsize/L/14_Ratio_750_L_8_R_6.png","img/500/equaldotanddens/R/14_Ratio_500_L_5_R_10.png","img/750/equaldotanddens/R/4_Ratio_750_L_15_R_20.png","img/750/equaldotanddens/L/9_Ratio_750_L_4_R_3.png","img/750/equaldotanddens/L/8_Ratio_750_L_4_R_3.png","img/250/equaldotsize/R/12_Ratio_250_L_5_R_20.png","img/750/randomdotsizeEA/R/4_Ratio_750_L_15_R_20.png","img/750/equaldotsize/R/7_Ratio_750_L_3_R_4.png","img/250/equaldotanddens/R/8_Ratio_250_L_1_R_4.png","img/500/equaldotsize/R/2_Ratio_500_L_3_R_6.png","img/250/randomdotsizeEA/R/6_Ratio_250_L_6_R_24.png","img/250/equaldotanddens/L/15_Ratio_250_L_12_R_3.png","img/900/equaldotsize/L/2_Ratio_900_L_20_R_18.png","img/900/equaldotsize/L/2_Ratio_900_L_20_R_18.png","img/500/equaldotanddens/L/7_Ratio_500_L_10_R_5.png","img/750/equaldotanddens/R/5_Ratio_750_L_15_R_20.png","img/900/randomdotsizeEA/R/9_Ratio_900_L_18_R_20.png","img/250/equaldotanddens/R/12_Ratio_250_L_5_R_20.png","img/900/equaldotanddens/R/5_Ratio_900_L_9_R_10.png","img/500/randomdotsizeEA/R/15_Ratio_500_L_1_R_2.png","img/750/equaldotanddens/R/7_Ratio_750_L_3_R_4.png","img/900/equaldotanddens/R/13_Ratio_900_L_18_R_20.png","img/500/randomdotsizeEA/R/12_Ratio_500_L_1_R_2.png","img/250/equaldotsize/R/8_Ratio_250_L_1_R_4.png","img/900/randomdotsizeEA/R/9_Ratio_900_L_18_R_20.png","img/900/equaldotanddens/R/7_Ratio_900_L_9_R_10.png","img/500/equaldotsize/L/8_Ratio_500_L_8_R_4.png"],"Rat0":[["12_Ratio_0_L_9_R_0.png","13_Ratio_0_L_6_R_0.png","5_Ratio_0_L_2_R_0.png","6_Ratio_0_L_4_R_0.png","8_Ratio_0_L_6_R_0.png"],["1_Ratio_0_L_0_R_17.png","10_Ratio_0_L_0_R_22.png","11_Ratio_0_L_0_R_1.png","14_Ratio_0_L_0_R_24.png","15_Ratio_0_L_0_R_4.png","2_Ratio_0_L_0_R_5.png","3_Ratio_0_L_0_R_17.png","4_Ratio_0_L_0_R_7.png","7_Ratio_0_L_0_R_19.png","9_Ratio_0_L_0_R_15.png"]],"Rat250":[["1_Ratio_250_L_8_R_2.png","14_Ratio_250_L_12_R_3.png","15_Ratio_250_L_12_R_3.png","2_Ratio_250_L_16_R_4.png","3_Ratio_250_L_8_R_2.png","5_Ratio_250_L_24_R_6.png","7_Ratio_250_L_8_R_2.png"],["10_Ratio_250_L_4_R_16.png","11_Ratio_250_L_3_R_12.png","12_Ratio_250_L_5_R_20.png","13_Ratio_250_L_2_R_8.png","4_Ratio_250_L_3_R_12.png","6_Ratio_250_L_6_R_24.png","8_Ratio_250_L_1_R_4.png","9_Ratio_250_L_3_R_12.png"]],"Rat500":[["10_Ratio_500_L_4_R_2.png","11_Ratio_500_L_12_R_6.png","13_Ratio_500_L_12_R_6.png","4_Ratio_500_L_18_R_9.png","5_Ratio_500_L_4_R_2.png","7_Ratio_500_L_10_R_5.png","8_Ratio_500_L_8_R_4.png"],["1_Ratio_500_L_9_R_18.png","12_Ratio_500_L_1_R_2.png","14_Ratio_500_L_5_R_10.png","15_Ratio_500_L_1_R_2.png","2_Ratio_500_L_3_R_6.png","3_Ratio_500_L_10_R_20.png","6_Ratio_500_L_9_R_18.png","9_Ratio_500_L_2_R_4.png"]],"Rat750":[["1_Ratio_750_L_20_R_15.png","10_Ratio_750_L_4_R_3.png","13_Ratio_750_L_8_R_6.png","14_Ratio_750_L_8_R_6.png","6_Ratio_750_L_24_R_18.png","8_Ratio_750_L_4_R_3.png","9_Ratio_750_L_4_R_3.png"],["11_Ratio_750_L_12_R_16.png","12_Ratio_750_L_3_R_4.png","15_Ratio_750_L_9_R_12.png","2_Ratio_750_L_6_R_8.png","3_Ratio_750_L_15_R_20.png","4_Ratio_750_L_15_R_20.png","5_Ratio_750_L_15_R_20.png","7_Ratio_750_L_3_R_4.png"]],"Rat900":[["1_Ratio_900_L_10_R_9.png","10_Ratio_900_L_20_R_18.png","2_Ratio_900_L_20_R_18.png","4_Ratio_900_L_20_R_18.png","8_Ratio_900_L_20_R_18.png"],["11_Ratio_900_L_18_R_20.png","12_Ratio_900_L_18_R_20.png","13_Ratio_900_L_18_R_20.png","14_Ratio_900_L_18_R_20.png","15_Ratio_900_L_9_R_10.png","3_Ratio_900_L_9_R_10.png","5_Ratio_900_L_9_R_10.png","6_Ratio_900_L_9_R_10.png","7_Ratio_900_L_9_R_10.png","9_Ratio_900_L_18_R_20.png"]],"Rat1000":[["10_Ratio_1000_L_16_R_16.png","11_Ratio_1000_L_6_R_6.png","12_Ratio_1000_L_14_R_14.png","13_Ratio_1000_L_20_R_20.png","15_Ratio_1000_L_15_R_15.png","2_Ratio_1000_L_17_R_17.png","4_Ratio_1000_L_9_R_9.png","5_Ratio_1000_L_6_R_6.png","6_Ratio_1000_L_19_R_19.png","8_Ratio_1000_L_14_R_14.png","9_Ratio_1000_L_25_R_25.png"],["1_Ratio_1000_L_1_R_1.png","14_Ratio_1000_L_17_R_17.png","3_Ratio_1000_L_17_R_17.png","7_Ratio_1000_L_6_R_6.png"]]}},{"start_time":1551881200774,"click_time":1551881202442,"finger_time":1551881202102,"fix_duration":250,"trial":1,"RT":1328,"MT":340,"sideResp":1,"stimulus":"img/900/equaldotsize/L/1_Ratio_900_L_10_R_9.png","xmouse":[785,785,785,785,785,785,785,785,785,785,785,785,785,785,785,785,785,785,785,785,785,785,785,785,785,785,785,785,785,785,785,785,785,785,785,785,785,785,785,785,785,785,785,785,785,785,785,785,785,785,785,785,785,785,785,785,785,786,786,786,786,786,786,786,786,786,775,700,648,629,616,601,577,577,577,576,573,569,566,558,550,543,532,521],"ymouse":[617,617,617,617,617,617,617,617,617,617,617,617,617,617,617,617,617,617,617,617,617,617,617,617,617,617,617,617,617,617,617,617,617,617,617,617,617,617,617,617,617,617,617,617,617,617,617,617,617,617,617,617,617,617,617,617,617,617,617,617,617,617,617,617,617,617,561,268,18,0,0,0,0,0,0,0,0,0,2,8,12,14,14,16],"timestamp_mouse":[8,28,48,69,88,107,127,148,167,188,209,229,248,268,289,307,327,349,367,388,409,427,449,468,488,509,528,547,568,589,608,629,649,667,689,709,727,748,768,787,809,828,849,867,889,907,927,948,967,988,1009,1027,1049,1069,1087,1109,1128,1148,1169,1187,1209,1228,1247,1268,1289,1307,1328,1348,1369,1388,1408,1428,1449,1468,1488,1508,1527,1549,1569,1588,1608,1628,1649,1668],"xSR":741.5,"ySR":573.95,"xT1":424.9,"yT1":0,"xT2":1058.1,"yT2":0,"toosoon":0,"cond_shown":"equaldotsize","ratio_trial":900,"smaller_num":"9","larger_num":"10","correct_side":1,"subjID":"juliandavidtapiascedeño29","gender":"0","age":"12","school":"6"},{"start_time":1551881205157,"click_time":1551881205962,"finger_time":1551881205742,"fix_duration":1034.2222429542142,"trial":2,"RT":585,"MT":220,"sideResp":1,"stimulus":"img/500/equaldotsize/L/13_Ratio_500_L_12_R_6.png","xmouse":[805,805,805,805,805,805,805,805,805,805,805,805,805,805,805,805,805,805,805,805,805,805,805,805,805,805,805,805,801,746,682,629,593,579,577,576,576,572,553,537,512],"ymouse":[645,645,645,645,645,645,645,645,645,645,645,645,645,645,645,645,645,645,645,645,645,645,645,645,645,645,645,634,592,460,348,245,164,110,105,104,104,103,89,73,53],"timestamp_mouse":[4,25,45,65,85,105,126,145,164,184,205,226,244,266,286,304,325,345,364,384,406,426,445,465,485,505,526,545,565,585,605,625,646,664,685,706,725,745,765,786,805],"xSR":741.5,"ySR":573.95,"xT1":424.9,"yT1":0,"xT2":1058.1,"yT2":0,"toosoon":0,"cond_shown":"equaldotsize","ratio_trial":500,"smaller_num":"6","larger_num":"12","correct_side":1,"subjID":"juliandavidtapiascedeño29","gender":"0","age":"12","school":"6"},{"start_time":1551881209983,"click_time":1551881211263,"finger_time":1551881210921,"fix_duration":1320.8454841705498,"trial":3,"RT":938,"MT":342,"sideResp":1,"stimulus":"img/900/randomdotsizeEA/R/14_Ratio_900_L_18_R_20.png","xmouse":[783,783,783,783,783,783,783,783,783,783,783,783,783,783,783,783,783,783,783,783,783,783,783,783,783,783,783,783,783,783,783,783,783,783,783,783,783,783,783,783,783,783,783,784,781,773,766,756,742,723,707,662,649,642,636,628,607,599,592,585,577,564,501,462],"ymouse":[626,626,626,626,626,626,626,626,626,626,626,626,626,626,626,626,626,626,626,626,626,626,626,626,626,626,626,626,626,626,626,626,626,626,626,626,626,626,626,626,626,626,626,621,603,575,534,466,437,410,394,351,334,323,310,296,266,255,246,238,226,208,134,89],"timestamp_mouse":[18,40,58,78,100,120,140,159,178,199,219,238,259,279,299,319,340,358,378,398,419,439,460,479,498,519,538,560,579,599,619,639,659,680,699,718,740,758,779,799,819,838,859,879,898,920,938,958,979,998,1019,1039,1059,1078,1098,1119,1139,1159,1179,1199,1219,1238,1258,1280],"xSR":741.5,"ySR":573.95,"xT1":424.9,"yT1":0,"xT2":1058.1,"yT2":0,"toosoon":0,"cond_shown":"randomdotsizeEA","ratio_trial":900,"smaller_num":"18","larger_num":"20","correct_side":2,"subjID":"juliandavidtapiascedeño29","gender":"0","age":"12","school":"6"},{"start_time":1551881214016,"click_time":1551881214942,"finger_time":1551881214721,"fix_duration":633.7518527409131,"trial":4,"RT":705,"MT":221,"sideResp":2,"stimulus":"img/750/randomdotsizeEA/L/10_Ratio_750_L_4_R_3.png","xmouse":[779,779,779,779,779,779,779,779,779,779,779,779,779,779,779,779,779,779,779,779,779,779,779,779,779,779,779,779,779,779,779,779,779,779,782,832,877,908,943,964,983,992,998,1005,1016,1046,1060],"ymouse":[624,624,624,624,624,624,624,624,624,624,624,624,624,624,624,624,624,624,624,624,624,624,624,624,624,624,624,624,624,624,624,624,624,613,602,495,408,343,274,221,160,144,130,118,101,61,45],"timestamp_mouse":[6,25,46,65,86,106,126,146,165,187,206,225,246,267,287,306,325,345,366,387,407,426,447,465,487,506,526,546,567,586,606,627,646,666,685,705,726,746,766,786,806,826,846,866,886,905,926],"xSR":741.5,"ySR":573.95,"xT1":424.9,"yT1":0,"xT2":1058.1,"yT2":0,"toosoon":0,"cond_shown":"randomdotsizeEA","ratio_trial":750,"smaller_num":"3","larger_num":"4","correct_side":1,"subjID":"juliandavidtapiascedeño29","gender":"0","age":"12","school":"6"},{"start_time":1551881218153,"click_time":1551881218481,"finger_time":1551881218382,"fix_duration":250,"trial":5,"RT":229,"MT":99,"sideResp":1,"stimulus":"img/500/equaldotanddens/L/10_Ratio_500_L_4_R_2.png","xmouse":[790,790,790,790,790,790,790,790,790,790,789,784,768,703,634,557,518],"ymouse":[611,611,611,611,611,611,611,611,611,608,590,563,506,348,240,134,70],"timestamp_mouse":[9,29,49,70,88,109,129,150,168,189,209,229,248,269,289,310,328],"xSR":741.5,"ySR":573.95,"xT1":424.9,"yT1":0,"xT2":1058.1,"yT2":0,"toosoon":0,"cond_shown":"equaldotanddens","ratio_trial":500,"smaller_num":"2","larger_num":"4","correct_side":1,"subjID":"juliandavidtapiascedeño29","gender":"0","age":"12","school":"6"},{"start_time":1551881219721,"click_time":1551881220522,"finger_time":1551881220021,"fix_duration":458.05741680212765,"trial":6,"RT":300,"MT":501,"sideResp":1,"stimulus":"img/900/equaldotsize/R/3_Ratio_900_L_9_R_10.png","xmouse":[785,785,785,785,785,785,785,785,785,785,785,785,782,779,773,758,748,738,727,715,670,639,611,574,558,550,550,550,550,550,550,550,550,550,550,550,549,546,540,535,522],"ymouse":[612,612,612,612,612,612,612,612,612,612,612,611,601,590,577,548,530,511,492,469,364,291,227,139,104,84,80,80,80,80,80,80,80,80,80,80,79,79,76,74,68],"timestamp_mouse":[2,22,42,61,81,102,122,141,162,181,200,221,241,260,282,300,321,340,360,381,401,421,440,460,480,500,520,540,560,580,600,622,640,660,680,700,721,742,762,781,801],"xSR":741.5,"ySR":573.95,"xT1":424.9,"yT1":0,"xT2":1058.1,"yT2":0,"toosoon":0,"cond_shown":"equaldotsize","ratio_trial":900,"smaller_num":"9","larger_num":"10","correct_side":2,"subjID":"juliandavidtapiascedeño29","gender":"0","age":"12","school":"6"},{"start_time":1551881221894,"click_time":1551881222682,"finger_time":1551881222221,"fix_duration":311.05997650089745,"trial":7,"RT":327,"MT":461,"sideResp":2,"stimulus":"img/250/equaldotsize/L/2_Ratio_250_L_16_R_4.png","xmouse":[781,781,781,781,781,781,781,781,781,781,781,781,781,781,782,788,816,847,883,914,944,970,972,972,972,972,972,972,977,981,987,1000,1012,1019,1030,1040,1050,1056,1058,1061],"ymouse":[606,606,606,606,606,606,606,606,606,606,606,606,606,606,604,592,544,493,417,337,262,176,152,148,148,148,147,144,136,130,124,115,101,91,83,75,67,58,56,54],"timestamp_mouse":[8,32,49,69,88,108,127,148,167,189,209,229,249,268,288,309,327,347,368,389,409,428,448,469,488,509,528,548,568,589,609,628,649,668,688,708,727,748,768,788],"xSR":741.5,"ySR":573.95,"xT1":424.9,"yT1":0,"xT2":1058.1,"yT2":0,"toosoon":0,"cond_shown":"equaldotsize","ratio_trial":250,"smaller_num":"4","larger_num":"16","correct_side":1,"subjID":"juliandavidtapiascedeño29","gender":"0","age":"12","school":"6"},{"start_time":1551881223653,"click_time":1551881224043,"finger_time":1551881223963,"fix_duration":250,"trial":8,"RT":310,"MT":80,"sideResp":1,"stimulus":"img/250/equaldotanddens/R/9_Ratio_250_L_3_R_12.png","xmouse":[778,778,778,778,778,778,778,778,778,777,777,777,776,774,770,762,734,703,592,523],"ymouse":[604,604,604,604,604,604,604,604,604,605,605,605,605,601,584,554,474,398,176,68],"timestamp_mouse":[9,30,49,70,89,109,129,149,170,188,209,228,250,269,290,310,329,348,369,389],"xSR":741.5,"ySR":573.95,"xT1":424.9,"yT1":0,"xT2":1058.1,"yT2":0,"toosoon":0,"cond_shown":"equaldotanddens","ratio_trial":250,"smaller_num":"3","larger_num":"12","correct_side":2,"subjID":"juliandavidtapiascedeño29","gender":"0","age":"12","school":"6"},{"start_time":1551881231909,"click_time":1551881232862,"finger_time":1551881232242,"fix_duration":306.45366345389914,"trial":9,"RT":333,"MT":620,"sideResp":1,"stimulus":"img/750/equaldotsize/L/9_Ratio_750_L_4_R_3.png","xmouse":[763,763,763,763,763,763,763,763,763,763,763,763,763,763,763,763,762,757,749,743,723,710,689,674,662,650,647,646,645,645,642,628,604,591,586,576,572,569,562,556,539,530,514,507,501,492,490,489],"ymouse":[628,628,628,628,628,628,628,628,628,628,628,628,628,620,612,587,571,550,526,503,464,446,421,406,396,384,381,381,379,377,372,347,322,308,302,291,285,280,271,262,236,217,185,166,147,114,101,93],"timestamp_mouse":[14,33,54,73,92,114,133,152,173,193,214,233,252,273,292,314,333,352,372,392,413,433,453,473,493,514,533,553,574,594,612,633,653,673,692,713,733,753,773,794,813,832,853,873,892,913,933,953],"xSR":741.5,"ySR":573.95,"xT1":424.9,"yT1":0,"xT2":1058.1,"yT2":0,"toosoon":0,"cond_shown":"equaldotsize","ratio_trial":750,"smaller_num":"3","larger_num":"4","correct_side":1,"subjID":"juliandavidtapiascedeño29","gender":"0","age":"12","school":"6"},{"start_time":1551881234957,"click_time":1551881235943,"finger_time":1551881235602,"fix_duration":1334.904277344139,"trial":10,"RT":645,"MT":341,"sideResp":2,"stimulus":"img/750/equaldotanddens/R/4_Ratio_750_L_15_R_20.png","xmouse":[785,785,785,785,785,785,785,785,785,785,785,785,785,785,785,785,785,785,785,785,785,785,785,785,785,785,785,785,785,785,785,796,814,859,869,898,967,1051,1206,1243,1260,1270,1272,1275,1275,1275,1275,1272,1181,1111],"ymouse":[611,611,611,611,611,611,611,611,611,611,611,611,611,611,611,611,611,611,611,611,611,611,611,611,611,611,611,611,611,611,611,595,564,471,439,379,296,216,87,45,22,7,5,0,0,0,0,0,9,20],"timestamp_mouse":[4,25,46,64,85,105,125,146,165,184,206,224,245,266,285,306,326,345,366,386,406,426,446,464,485,506,524,546,566,585,605,624,645,664,685,705,724,745,765,786,805,824,845,865,885,905,925,945,966,985],"xSR":741.5,"ySR":573.95,"xT1":424.9,"yT1":0,"xT2":1058.1,"yT2":0,"toosoon":0,"cond_shown":"equaldotanddens","ratio_trial":750,"smaller_num":"15","larger_num":"20","correct_side":2,"subjID":"juliandavidtapiascedeño29","gender":"0","age":"12","school":"6"},{"start_time":1551881238260,"click_time":1551881239402,"finger_time":1551881239083,"fix_duration":1418.5558223568512,"trial":11,"RT":823,"MT":319,"sideResp":1,"stimulus":"img/900/randomdotsizeEA/L/1_Ratio_900_L_10_R_9.png","xmouse":[803,803,803,803,803,803,803,803,803,803,803,803,803,803,803,803,803,803,803,803,803,803,803,803,803,803,803,803,803,803,803,803,803,803,803,803,803,803,803,803,762,663,562,456,445,437,432,430,425,413,406,404,403,410,418,429,439,449],"ymouse":[646,646,646,646,646,646,646,646,646,646,646,646,646,646,646,646,646,646,646,646,646,646,646,646,646,646,646,646,646,646,646,646,646,646,646,646,646,646,646,646,613,523,422,304,283,262,252,243,232,204,187,172,161,142,132,118,107,97],"timestamp_mouse":[4,22,42,62,82,102,123,141,163,183,203,223,242,262,282,302,322,341,362,382,401,421,442,462,482,503,521,543,562,583,603,623,642,661,683,702,721,742,762,782,801,823,843,861,882,902,922,943,962,982,1001,1022,1041,1062,1082,1102,1122,1142],"xSR":741.5,"ySR":573.95,"xT1":424.9,"yT1":0,"xT2":1058.1,"yT2":0,"toosoon":0,"cond_shown":"randomdotsizeEA","ratio_trial":900,"smaller_num":"9","larger_num":"10","correct_side":1,"subjID":"juliandavidtapiascedeño29","gender":"0","age":"12","school":"6"},{"start_time":1551881242294,"click_time":1551881243842,"finger_time":1551881242962,"fix_duration":1470.3728411556601,"trial":12,"RT":668,"MT":880,"sideResp":1,"stimulus":"img/900/randomdotsizeEA/R/6_Ratio_900_L_9_R_10.png","xmouse":[799,799,799,799,799,799,799,799,799,799,799,799,799,799,799,799,799,799,799,799,799,799,799,799,799,799,799,799,799,799,799,799,798,798,805,811,811,791,764,730,681,619,495,472,458,451,450,450,450,451,454,464,474,484,487,491,493,493,492,491,490,490,489,488,488,488,488,488,488,488,488,488,488,488,488,488,488,488],"ymouse":[603,603,603,603,603,603,603,603,603,603,603,603,603,603,603,603,603,603,603,603,603,603,603,603,603,603,603,603,603,603,603,603,585,561,536,505,424,378,342,315,294,277,247,240,235,233,232,232,230,224,219,205,194,179,168,155,134,128,125,123,121,119,117,115,115,114,114,113,113,111,110,108,106,106,104,104,100,96],"timestamp_mouse":[8,29,49,68,89,109,128,149,167,188,209,228,249,269,288,309,327,349,369,387,409,428,449,468,488,508,529,548,567,589,608,627,649,668,688,707,728,748,768,789,808,828,847,868,888,908,928,948,968,987,1008,1027,1048,1068,1088,1107,1128,1148,1167,1188,1207,1228,1248,1268,1288,1308,1327,1347,1367,1388,1408,1428,1447,1468,1488,1508,1528,1548],"xSR":741.5,"ySR":573.95,"xT1":424.9,"yT1":0,"xT2":1058.1,"yT2":0,"toosoon":0,"cond_shown":"randomdotsizeEA","ratio_trial":900,"smaller_num":"9","larger_num":"10","correct_side":2,"subjID":"juliandavidtapiascedeño29","gender":"0","age":"12","school":"6"},{"start_time":1551881252647,"click_time":1551881253923,"finger_time":1551881253422,"fix_duration":1484.2676769860586,"trial":13,"RT":775,"MT":501,"sideResp":2,"stimulus":"img/750/randomdotsizeEA/L/10_Ratio_750_L_4_R_3.png","xmouse":[812,812,812,812,812,812,812,812,812,812,812,812,812,812,812,812,812,812,812,812,812,812,812,812,812,812,812,812,812,812,812,812,812,812,812,812,815,821,839,856,868,875,879,900,944,1046,1117,1170,1236,1245,1246,1248,1248,1251,1252,1252,1252,1252,1252,1246,1227,1206,1183,1143],"ymouse":[630,630,630,630,630,630,630,630,630,630,630,630,630,630,630,630,630,630,630,630,630,630,630,630,630,630,630,630,630,630,630,630,630,630,630,630,628,614,564,528,496,475,452,398,337,218,125,39,0,0,0,0,0,0,0,0,0,0,0,0,0,0,4,16],"timestamp_mouse":[16,34,54,75,95,115,136,156,174,196,215,235,256,275,295,316,336,356,375,396,414,435,455,476,496,516,534,555,575,595,616,636,654,676,695,715,735,756,775,794,816,834,855,875,895,915,936,955,975,996,1014,1036,1056,1074,1095,1115,1135,1154,1176,1195,1215,1235,1255,1275],"xSR":741.5,"ySR":573.95,"xT1":424.9,"yT1":0,"xT2":1058.1,"yT2":0,"toosoon":0,"cond_shown":"randomdotsizeEA","ratio_trial":750,"smaller_num":"3","larger_num":"4","correct_side":1,"subjID":"juliandavidtapiascedeño29","gender":"0","age":"12","school":"6"},{"start_time":1551881255675,"click_time":1551881256063,"finger_time":1551881255962,"fix_duration":531.0355874718888,"trial":14,"RT":287,"MT":101,"sideResp":1,"stimulus":"img/250/randomdotsizeEA/R/10_Ratio_250_L_4_R_16.png","xmouse":[791,791,791,791,791,791,791,791,791,791,791,791,790,783,770,744,698,561,493,448],"ymouse":[631,631,631,631,631,631,631,631,631,631,631,631,624,602,566,499,422,237,156,98],"timestamp_mouse":[8,29,48,68,86,108,127,148,168,187,207,227,247,268,287,307,326,347,368,388],"xSR":741.5,"ySR":573.95,"xT1":424.9,"yT1":0,"xT2":1058.1,"yT2":0,"toosoon":0,"cond_shown":"randomdotsizeEA","ratio_trial":250,"smaller_num":"4","larger_num":"16","correct_side":2,"subjID":"juliandavidtapiascedeño29","gender":"0","age":"12","school":"6"},{"start_time":1551881258693,"click_time":1551881260023,"finger_time":1551881258742,"fix_duration":250,"trial":15,"RT":49,"MT":1281,"sideResp":2,"stimulus":"img/900/equaldotanddens/L/4_Ratio_900_L_20_R_18.png","xmouse":[819,819,820,838,876,948,1149,1243,1312,1346,1361,1378,1381,1392,1395,1395,1395,1395,1395,1396,1396,1396,1396,1396,1396,1396,1392,1382,1357,1297,1211,1031,969,904,876,855,824,814,807,805,805,802,802,804,814,834,936,1026,1134,1227,1294,1349,1349,1340,1337,1337,1336,1331,1312,1273,1240,1190,1185,1174,1168,1163,1154],"ymouse":[673,673,674,681,697,726,789,808,822,833,838,844,844,844,844,844,844,844,844,844,844,842,841,839,839,838,834,829,819,794,757,678,652,628,619,611,598,593,587,586,583,574,569,566,562,553,514,467,399,324,244,120,98,79,78,78,78,77,71,58,48,33,32,29,29,29,29],"timestamp_mouse":[9,34,49,69,90,108,130,149,169,190,210,229,249,269,290,309,329,349,369,389,408,429,449,469,490,508,529,549,570,590,608,629,649,669,689,709,729,749,770,789,809,828,849,869,889,910,929,950,969,989,1009,1029,1050,1068,1089,1109,1128,1149,1168,1190,1209,1229,1249,1268,1289,1308,1329],"xSR":741.5,"ySR":573.95,"xT1":424.9,"yT1":0,"xT2":1058.1,"yT2":0,"toosoon":0,"cond_shown":"equaldotanddens","ratio_trial":900,"smaller_num":"18","larger_num":"20","correct_side":1,"subjID":"juliandavidtapiascedeño29","gender":"0","age":"12","school":"6"},{"start_time":1551881266124,"click_time":1551881266722,"finger_time":1551881266522,"fix_duration":1101.9022793936597,"trial":16,"RT":398,"MT":200,"sideResp":1,"stimulus":"img/250/equaldotanddens/L/7_Ratio_250_L_8_R_2.png","xmouse":[774,774,774,774,774,774,774,774,774,774,774,774,774,774,774,774,774,775,775,769,765,749,725,700,642,614,586,561,541,513],"ymouse":[614,614,614,614,614,614,614,614,614,614,614,614,614,614,614,614,614,614,600,554,521,472,385,331,225,186,154,126,105,70],"timestamp_mouse":[18,39,57,77,99,117,138,158,178,197,219,237,258,279,298,317,339,359,377,398,417,438,457,478,498,518,538,559,577,598],"xSR":741.5,"ySR":573.95,"xT1":424.9,"yT1":0,"xT2":1058.1,"yT2":0,"toosoon":0,"cond_shown":"equaldotanddens","ratio_trial":250,"smaller_num":"2","larger_num":"8","correct_side":1,"subjID":"juliandavidtapiascedeño29","gender":"0","age":"12","school":"6"},{"start_time":1551881268406,"click_time":1551881270022,"finger_time":1551881269583,"fix_duration":683.344958031066,"trial":17,"RT":1177,"MT":439,"sideResp":2,"stimulus":"img/500/randomdotsizeEA/R/12_Ratio_500_L_1_R_2.png","xmouse":[809,809,809,809,809,809,809,809,809,809,809,809,809,808,807,807,807,807,807,807,807,807,807,807,807,807,807,807,807,807,807,807,807,807,807,807,807,807,807,807,807,808,809,811,811,811,811,811,811,811,811,811,811,811,811,811,814,815,821,829,860,891,926,961,992,1036,1047,1059,1063,1067,1076,1079,1083,1087,1092,1098,1100,1101,1103,1103,1104],"ymouse":[649,649,649,649,649,649,649,649,649,649,649,647,643,638,634,629,629,629,629,629,629,629,629,629,629,629,629,629,629,629,629,629,629,629,629,629,629,629,629,624,617,612,608,604,603,603,603,603,603,603,603,603,603,603,602,597,586,582,563,544,497,459,421,385,350,290,273,252,245,235,216,202,187,168,152,127,115,112,105,101,98],"timestamp_mouse":[20,35,55,77,96,116,136,156,177,196,216,236,257,275,296,315,336,357,377,396,416,437,457,476,496,516,536,557,575,597,616,636,655,677,695,717,736,755,775,796,816,836,856,876,896,916,937,957,977,995,1016,1037,1056,1076,1097,1116,1137,1156,1177,1195,1216,1236,1256,1275,1297,1316,1336,1356,1375,1395,1415,1436,1455,1477,1497,1516,1537,1556,1575,1596,1616],"xSR":741.5,"ySR":573.95,"xT1":424.9,"yT1":0,"xT2":1058.1,"yT2":0,"toosoon":0,"cond_shown":"randomdotsizeEA","ratio_trial":500,"smaller_num":"1","larger_num":"2","correct_side":2,"subjID":"juliandavidtapiascedeño29","gender":"0","age":"12","school":"6"},{"start_time":1551881290057,"click_time":1551881291441,"finger_time":1551881290482,"fix_duration":1334.4367538335798,"trial":18,"RT":425,"MT":959,"sideResp":2,"stimulus":"img/250/randomdotsizeEA/R/12_Ratio_250_L_5_R_20.png","xmouse":[772,772,772,772,772,772,772,772,772,772,772,772,772,772,772,772,772,772,773,774,774,774,774,774,772,772,771,768,756,744,726,697,664,608,596,592,592,592,592,592,592,592,592,598,609,623,649,667,702,721,741,761,781,836,883,896,936,962,984,994,1002,1010,1021,1065,1081,1089,1103,1108,1114,1118],"ymouse":[616,616,616,616,616,616,616,616,616,616,616,616,616,616,616,616,615,611,598,587,574,558,539,524,505,503,494,485,451,424,383,335,291,227,216,212,212,212,212,212,212,212,212,218,229,243,268,287,322,338,352,366,381,411,424,425,424,409,393,387,380,373,363,329,306,281,228,189,120,96],"timestamp_mouse":[4,28,44,64,85,104,124,145,165,184,205,226,244,265,285,305,324,344,365,384,405,425,444,464,484,504,525,545,564,584,604,625,645,665,685,705,725,745,765,784,804,824,845,864,884,905,924,944,965,985,1004,1025,1046,1064,1085,1104,1124,1145,1165,1185,1205,1225,1244,1264,1284,1305,1325,1345,1365,1384],"xSR":741.5,"ySR":573.95,"xT1":424.9,"yT1":0,"xT2":1058.1,"yT2":0,"toosoon":0,"cond_shown":"randomdotsizeEA","ratio_trial":250,"smaller_num":"5","larger_num":"20","correct_side":2,"subjID":"juliandavidtapiascedeño29","gender":"0","age":"12","school":"6"},{"start_time":1551881293390,"click_time":1551881295061,"finger_time":1551881294161,"fix_duration":866.4602670519218,"trial":19,"RT":771,"MT":900,"sideResp":1,"stimulus":"img/750/equaldotanddens/L/14_Ratio_750_L_8_R_6.png","xmouse":[801,801,801,801,801,801,801,801,801,801,801,801,801,801,801,801,801,801,801,801,801,801,801,801,801,801,801,801,801,801,801,801,801,801,801,800,806,822,854,944,1024,1166,1199,1206,1206,1203,1170,1104,1005,865,825,802,787,766,720,619,276,132,36,34,34,34,35,51,77,112,169,181,188,197,214,255,268,275,279,283,290,315,327,335,351,403,420,432],"ymouse":[652,652,652,652,652,652,652,652,652,652,652,652,652,652,652,652,652,652,652,652,652,652,652,652,652,652,652,652,652,652,652,652,652,652,652,652,646,635,614,554,508,420,390,374,365,353,319,285,249,209,193,170,150,128,98,60,0,0,0,0,0,0,0,3,12,28,51,57,60,64,71,85,90,92,92,92,92,90,88,85,81,75,74,74],"timestamp_mouse":[13,32,53,71,92,111,132,151,172,193,212,231,252,271,292,311,332,351,373,393,411,432,451,471,493,511,531,552,573,592,612,631,653,671,691,713,732,751,771,791,812,832,852,871,891,912,931,952,971,992,1012,1032,1052,1071,1091,1111,1131,1152,1172,1192,1213,1232,1251,1272,1291,1311,1333,1352,1372,1392,1412,1433,1452,1472,1493,1512,1532,1551,1571,1592,1612,1631,1652,1671],"xSR":741.5,"ySR":573.95,"xT1":424.9,"yT1":0,"xT2":1058.1,"yT2":0,"toosoon":0,"cond_shown":"equaldotanddens","ratio_trial":750,"smaller_num":"6","larger_num":"8","correct_side":1,"subjID":"juliandavidtapiascedeño29","gender":"0","age":"12","school":"6"},{"start_time":1551881297162,"click_time":1551881298141,"finger_time":1551881297942,"fix_duration":1119.308854929506,"trial":20,"RT":780,"MT":199,"sideResp":1,"stimulus":"img/900/equaldotsize/L/1_Ratio_900_L_10_R_9.png","xmouse":[774,774,774,774,774,774,774,774,774,774,774,774,774,774,774,774,774,774,774,774,774,774,774,774,774,774,774,774,774,774,774,774,774,774,774,774,774,774,765,747,706,674,645,584,558,546,537,533,526,523],"ymouse":[641,641,641,641,641,641,641,641,641,641,641,641,641,641,641,641,641,641,641,641,641,641,641,641,641,641,641,641,641,641,641,641,641,641,641,641,641,627,580,522,429,378,330,214,152,111,82,62,42,35],"timestamp_mouse":[1,19,39,59,81,99,119,140,160,179,200,220,241,261,279,300,320,339,359,381,400,420,440,461,480,499,519,541,561,580,600,621,641,659,679,701,720,739,759,780,800,820,840,860,879,899,920,939,960,979],"xSR":741.5,"ySR":573.95,"xT1":424.9,"yT1":0,"xT2":1058.1,"yT2":0,"toosoon":0,"cond_shown":"equaldotsize","ratio_trial":900,"smaller_num":"9","larger_num":"10","correct_side":1,"subjID":"juliandavidtapiascedeño29","gender":"0","age":"12","school":"6"},{"start_time":1551881300408,"click_time":1551881302142,"finger_time":1551881301121,"fix_duration":1286.980920885442,"trial":21,"RT":713,"MT":1021,"sideResp":1,"stimulus":"img/500/equaldotanddens/L/5_Ratio_500_L_4_R_2.png","xmouse":[750,750,750,750,750,750,750,750,750,750,750,750,750,750,750,750,750,750,750,750,750,750,750,750,750,750,750,750,750,750,750,750,750,749,746,738,733,729,725,723,717,714,708,703,699,687,675,668,662,657,650,647,643,638,634,627,610,596,587,577,555,548,546,544,543,535,532,531,530,530,529,529,540,548,549,546,540,538,536,532,530,529,527,526,525,519,513],"ymouse":[599,599,599,599,599,599,599,599,599,599,599,599,599,599,599,599,599,599,599,599,599,599,599,599,599,599,599,599,599,599,599,599,597,595,589,571,557,531,513,493,456,437,419,401,385,355,334,323,315,307,298,293,289,283,277,268,245,230,221,210,190,182,180,175,172,161,158,153,149,145,135,128,118,113,112,111,111,111,110,107,104,104,103,103,102,100,97],"timestamp_mouse":[13,33,53,74,94,113,133,154,173,194,214,233,253,273,293,314,334,353,374,394,415,435,453,474,493,513,534,554,574,593,613,635,653,673,694,713,733,754,774,794,813,833,853,873,893,914,933,953,974,994,1014,1033,1053,1074,1094,1114,1135,1154,1173,1193,1214,1234,1255,1274,1293,1314,1333,1354,1373,1393,1413,1434,1453,1473,1493,1514,1534,1554,1575,1594,1614,1634,1653,1674,1694,1714,1734],"xSR":741.5,"ySR":573.95,"xT1":424.9,"yT1":0,"xT2":1058.1,"yT2":0,"toosoon":0,"cond_shown":"equaldotanddens","ratio_trial":500,"smaller_num":"2","larger_num":"4","correct_side":1,"subjID":"juliandavidtapiascedeño29","gender":"0","age":"12","school":"6"},{"start_time":1551881306891,"click_time":1551881307941,"finger_time":1551881307521,"fix_duration":988.2158870031951,"trial":22,"RT":630,"MT":420,"sideResp":2,"stimulus":"img/900/equaldotsize/R/5_Ratio_900_L_9_R_10.png","xmouse":[800,800,800,800,800,800,800,800,800,800,800,800,800,800,800,800,800,800,800,800,800,800,800,800,800,800,800,800,800,802,806,850,900,915,926,933,943,951,958,965,972,987,991,1004,1012,1022,1053,1066,1078,1087,1092,1095,1104],"ymouse":[604,604,604,604,604,604,604,604,604,604,604,604,604,604,604,604,604,604,604,604,604,604,604,604,604,604,604,604,604,603,600,562,521,502,486,471,440,424,402,377,351,295,273,244,226,209,166,146,129,117,109,105,97],"timestamp_mouse":[11,30,50,70,91,112,130,150,171,192,211,230,251,270,291,311,330,352,371,390,411,431,451,470,491,511,530,550,571,590,610,630,651,670,691,711,731,750,770,790,810,831,851,870,890,910,930,950,970,991,1010,1030,1050],"xSR":741.5,"ySR":573.95,"xT1":424.9,"yT1":0,"xT2":1058.1,"yT2":0,"toosoon":0,"cond_shown":"equaldotsize","ratio_trial":900,"smaller_num":"9","larger_num":"10","correct_side":2,"subjID":"juliandavidtapiascedeño29","gender":"0","age":"12","school":"6"},{"start_time":1551881327133,"click_time":1551881328403,"finger_time":1551881328041,"fix_duration":250,"trial":23,"RT":908,"MT":362,"sideResp":2,"stimulus":"img/900/equaldotsize/R/13_Ratio_900_L_18_R_20.png","xmouse":[815,815,815,815,815,815,815,815,815,815,815,815,815,815,815,815,815,815,815,815,815,815,815,815,815,815,815,815,815,815,815,815,815,815,815,815,816,817,818,820,823,823,824,827,841,858,881,922,977,1035,1040,1042,1042,1042,1040,1040,1040,1042,1046,1049,1052,1057,1060,1066],"ymouse":[656,656,656,656,656,656,656,656,656,656,656,656,656,656,656,656,656,656,656,656,656,656,656,656,656,656,656,656,656,656,656,656,656,655,646,642,638,636,633,626,620,619,617,610,583,563,541,514,472,395,373,361,342,325,278,256,234,208,177,131,118,110,105,98],"timestamp_mouse":[10,28,49,68,90,108,129,149,169,189,208,229,250,268,289,308,328,348,370,388,410,428,450,469,488,509,530,550,569,589,608,629,650,668,688,709,729,748,768,788,808,829,848,869,888,908,928,949,969,988,1008,1028,1048,1069,1088,1108,1129,1149,1169,1188,1209,1229,1250,1270],"xSR":741.5,"ySR":573.95,"xT1":424.9,"yT1":0,"xT2":1058.1,"yT2":0,"toosoon":0,"cond_shown":"equaldotsize","ratio_trial":900,"smaller_num":"18","larger_num":"20","correct_side":2,"subjID":"juliandavidtapiascedeño29","gender":"0","age":"12","school":"6"},{"start_time":1551881329973,"click_time":1551881331182,"finger_time":1551881330821,"fix_duration":250,"trial":24,"RT":848,"MT":361,"sideResp":1,"stimulus":"img/750/equaldotanddens/L/8_Ratio_750_L_4_R_3.png","xmouse":[772,772,772,772,772,772,772,772,772,772,772,772,772,772,772,772,772,772,772,772,772,772,772,772,772,772,772,772,772,772,772,772,772,772,772,772,772,772,772,773,773,773,769,755,728,698,663,594,571,559,557,557,557,557,557,557,555,548,538,528,520],"ymouse":[629,629,629,629,629,629,629,629,629,629,629,629,629,629,629,629,629,629,629,629,629,629,629,629,629,629,629,629,629,629,629,629,629,629,629,629,629,629,629,625,612,590,502,431,346,261,185,70,37,22,20,20,20,20,20,20,20,20,24,30,41],"timestamp_mouse":[8,28,49,69,90,108,129,150,169,189,208,228,249,270,288,309,330,348,368,389,410,428,449,470,490,508,528,549,569,589,610,628,649,668,689,708,730,748,768,789,809,828,848,868,889,909,929,948,969,989,1008,1028,1048,1068,1088,1108,1129,1148,1168,1189,1209],"xSR":741.5,"ySR":573.95,"xT1":424.9,"yT1":0,"xT2":1058.1,"yT2":0,"toosoon":0,"cond_shown":"equaldotanddens","ratio_trial":750,"smaller_num":"3","larger_num":"4","correct_side":1,"subjID":"juliandavidtapiascedeño29","gender":"0","age":"12","school":"6"},{"start_time":1551881332716,"click_time":1551881333662,"finger_time":1551881333341,"fix_duration":634.0555055939355,"trial":25,"RT":625,"MT":321,"sideResp":1,"stimulus":"img/500/equaldotanddens/L/7_Ratio_500_L_10_R_5.png","xmouse":[799,799,799,799,799,799,799,799,799,799,799,799,799,799,799,799,799,799,799,799,800,800,800,800,800,800,800,800,800,797,784,771,747,696,669,628,601,563,538,530,529,529,529,529,529,529,528,521],"ymouse":[630,630,630,630,630,630,630,630,630,630,630,630,630,630,630,630,630,630,630,630,630,630,630,630,630,630,630,625,620,608,577,547,485,390,311,179,127,74,50,39,36,36,36,36,36,36,36,40],"timestamp_mouse":[6,25,46,66,86,105,125,146,165,186,206,225,246,265,286,307,326,346,365,387,406,425,445,465,485,506,526,546,566,585,605,625,646,665,686,705,726,746,765,787,807,826,846,866,886,905,925,946],"xSR":741.5,"ySR":573.95,"xT1":424.9,"yT1":0,"xT2":1058.1,"yT2":0,"toosoon":0,"cond_shown":"equaldotanddens","ratio_trial":500,"smaller_num":"5","larger_num":"10","correct_side":1,"subjID":"juliandavidtapiascedeño29","gender":"0","age":"12","school":"6"},{"start_time":1551881335608,"click_time":1551881336421,"finger_time":1551881336142,"fix_duration":1065.2809486720737,"trial":26,"RT":534,"MT":279,"sideResp":2,"stimulus":"img/500/equaldotanddens/R/14_Ratio_500_L_5_R_10.png","xmouse":[819,818,818,818,818,817,817,817,817,817,817,817,817,817,817,817,817,817,817,817,817,817,817,817,817,828,845,866,909,967,1016,1037,1051,1060,1068,1074,1074,1075,1078,1086,1099],"ymouse":[599,599,599,599,599,599,599,599,599,599,599,599,599,599,599,599,599,599,599,599,599,599,599,599,598,585,569,543,490,386,265,212,184,163,145,129,125,123,119,106,82],"timestamp_mouse":[13,33,53,74,93,114,134,153,173,194,214,234,254,275,293,313,333,354,373,394,414,433,453,475,495,514,534,555,574,593,613,633,653,673,693,713,733,755,774,793,813],"xSR":741.5,"ySR":573.95,"xT1":424.9,"yT1":0,"xT2":1058.1,"yT2":0,"toosoon":0,"cond_shown":"equaldotanddens","ratio_trial":500,"smaller_num":"5","larger_num":"10","correct_side":2,"subjID":"juliandavidtapiascedeño29","gender":"0","age":"12","school":"6"},{"start_time":1551881338214,"click_time":1551881339401,"finger_time":1551881339002,"fix_duration":972.6109178926448,"trial":27,"RT":788,"MT":399,"sideResp":1,"stimulus":"img/500/randomdotsizeEA/L/13_Ratio_500_L_12_R_6.png","xmouse":[785,785,785,785,785,785,785,785,785,785,785,785,785,785,785,785,785,785,785,785,787,788,788,789,789,789,789,789,789,790,792,792,793,793,793,793,793,793,792,781,714,667,643,636,632,632,631,627,615,605,583,574,572,567,560,553,552,547,538,518],"ymouse":[655,655,655,655,655,655,655,655,655,655,655,655,655,655,655,655,655,655,655,654,650,648,648,647,647,647,647,647,646,646,643,643,641,641,641,639,637,626,598,544,314,201,152,132,126,125,124,128,142,146,153,153,153,153,150,135,119,101,79,50],"timestamp_mouse":[8,27,48,67,88,107,128,147,168,187,207,227,247,268,288,307,327,347,368,389,407,427,447,469,487,509,528,547,569,587,607,627,647,668,687,707,728,749,767,788,808,828,847,868,888,908,927,948,969,987,1008,1028,1047,1067,1088,1108,1127,1149,1168,1187],"xSR":741.5,"ySR":573.95,"xT1":424.9,"yT1":0,"xT2":1058.1,"yT2":0,"toosoon":0,"cond_shown":"randomdotsizeEA","ratio_trial":500,"smaller_num":"6","larger_num":"12","correct_side":1,"subjID":"juliandavidtapiascedeño29","gender":"0","age":"12","school":"6"},{"start_time":1551881342474,"click_time":1551881343161,"finger_time":1551881343001,"fix_duration":250,"trial":28,"RT":527,"MT":160,"sideResp":1,"stimulus":"img/250/equaldotanddens/L/3_Ratio_250_L_8_R_2.png","xmouse":[818,818,818,818,818,818,818,818,818,818,818,818,818,818,818,818,818,818,818,818,816,816,813,810,805,797,787,745,710,673,635,588,507,487,471],"ymouse":[614,614,614,614,614,614,614,614,614,614,614,614,614,614,614,614,614,614,614,614,614,614,614,612,605,589,569,491,428,368,311,246,136,103,69],"timestamp_mouse":[8,28,47,67,88,107,128,148,168,188,207,227,247,268,288,307,327,347,368,388,408,427,447,468,488,507,527,547,568,587,607,627,647,669,687],"xSR":741.5,"ySR":573.95,"xT1":424.9,"yT1":0,"xT2":1058.1,"yT2":0,"toosoon":0,"cond_shown":"equaldotanddens","ratio_trial":250,"smaller_num":"2","larger_num":"8","correct_side":1,"subjID":"juliandavidtapiascedeño29","gender":"0","age":"12","school":"6"},{"start_time":1551881348213,"click_time":1551881349162,"finger_time":1551881348722,"fix_duration":849.8672679659561,"trial":29,"RT":509,"MT":440,"sideResp":2,"stimulus":"img/250/equaldotsize/R/11_Ratio_250_L_3_R_12.png","xmouse":[799,799,799,799,799,799,799,799,799,799,799,799,799,799,799,799,799,799,799,799,799,799,799,799,800,809,813,834,857,883,943,967,994,1005,1008,1010,1011,1013,1014,1015,1022,1028,1033,1039,1044,1052,1057,1066],"ymouse":[587,587,587,587,587,587,587,587,587,587,587,587,587,587,587,587,587,587,587,587,587,587,587,587,587,561,550,495,438,379,256,216,175,159,151,146,144,139,137,136,132,128,124,120,114,94,79,39],"timestamp_mouse":[9,28,48,69,89,108,130,148,170,189,208,230,250,268,289,309,329,348,369,388,408,429,449,469,489,509,529,549,568,589,608,628,649,669,690,709,728,749,769,788,809,829,848,869,888,909,929,948],"xSR":741.5,"ySR":573.95,"xT1":424.9,"yT1":0,"xT2":1058.1,"yT2":0,"toosoon":0,"cond_shown":"equaldotsize","ratio_trial":250,"smaller_num":"3","larger_num":"12","correct_side":2,"subjID":"juliandavidtapiascedeño29","gender":"0","age":"12","school":"6"},{"start_time":1551881351060,"click_time":1551881352042,"finger_time":1551881351702,"fix_duration":438.2167738635635,"trial":30,"RT":642,"MT":340,"sideResp":2,"stimulus":"img/900/equaldotsize/R/5_Ratio_900_L_9_R_10.png","xmouse":[813,813,813,812,811,811,811,811,811,811,811,811,811,811,811,811,811,811,811,811,811,811,811,811,811,811,811,811,811,811,813,834,868,977,1023,1057,1062,1062,1062,1065,1070,1073,1074,1076,1078,1080,1080,1082,1083,1088],"ymouse":[665,663,661,655,650,650,650,650,650,650,650,650,650,650,650,650,650,650,650,650,650,650,650,650,650,650,650,650,650,649,635,609,577,489,448,383,345,306,271,205,181,162,150,142,134,122,117,113,106,97],"timestamp_mouse":[1,22,41,61,81,101,122,143,162,182,202,223,242,261,282,301,322,342,361,382,403,421,441,463,482,501,523,541,562,581,601,621,642,661,681,701,721,741,761,781,801,822,843,862,881,901,921,941,961,982],"xSR":741.5,"ySR":573.95,"xT1":424.9,"yT1":0,"xT2":1058.1,"yT2":0,"toosoon":0,"cond_shown":"equaldotsize","ratio_trial":900,"smaller_num":"9","larger_num":"10","correct_side":2,"subjID":"juliandavidtapiascedeño29","gender":"0","age":"12","school":"6"},{"start_time":1551881353465,"click_time":1551881354343,"finger_time":1551881353901,"fix_duration":382.36455981059436,"trial":31,"RT":436,"MT":442,"sideResp":2,"stimulus":"img/500/equaldotanddens/R/3_Ratio_500_L_10_R_20.png","xmouse":[821,821,821,821,821,821,821,821,821,821,821,821,821,821,821,821,821,821,826,833,839,851,862,908,942,963,978,992,999,1006,1010,1013,1017,1020,1024,1027,1030,1045,1056,1068,1081,1092,1111,1124],"ymouse":[662,662,662,662,662,662,662,662,662,662,662,662,662,662,662,661,659,654,627,605,580,546,512,407,337,300,277,248,236,226,221,216,205,197,187,182,177,162,152,142,132,122,102,91],"timestamp_mouse":[17,36,57,76,96,116,138,156,178,196,217,237,256,276,296,317,336,356,376,396,416,436,457,478,496,516,537,556,577,596,617,637,656,677,696,717,736,757,777,796,818,836,856,878],"xSR":741.5,"ySR":573.95,"xT1":424.9,"yT1":0,"xT2":1058.1,"yT2":0,"toosoon":0,"cond_shown":"equaldotanddens","ratio_trial":500,"smaller_num":"10","larger_num":"20","correct_side":2,"subjID":"juliandavidtapiascedeño29","gender":"0","age":"12","school":"6"},{"start_time":1551881357369,"click_time":1551881358401,"finger_time":1551881358002,"fix_duration":447.6294623614192,"trial":32,"RT":633,"MT":399,"sideResp":2,"stimulus":"img/250/randomdotsizeEA/R/6_Ratio_250_L_6_R_24.png","xmouse":[789,789,789,789,789,789,789,789,789,789,789,789,789,789,789,789,790,790,790,791,791,792,792,792,792,792,792,794,798,803,811,840,938,992,1038,1057,1064,1069,1077,1079,1079,1077,1067,1064,1061,1061,1061,1077,1087,1093,1099,1105],"ymouse":[651,651,651,651,651,651,651,651,651,651,651,651,651,651,651,651,650,649,647,643,640,637,631,630,628,626,624,616,606,595,575,526,399,337,298,285,277,269,253,243,237,232,222,217,211,203,196,167,148,128,108,90],"timestamp_mouse":[13,33,52,72,93,113,133,154,172,192,214,233,252,272,292,313,333,353,374,393,412,432,453,472,493,512,532,552,572,592,613,633,652,672,693,712,733,753,774,792,812,832,852,873,893,913,932,953,973,992,1013,1032],"xSR":741.5,"ySR":573.95,"xT1":424.9,"yT1":0,"xT2":1058.1,"yT2":0,"toosoon":0,"cond_shown":"randomdotsizeEA","ratio_trial":250,"smaller_num":"6","larger_num":"24","correct_side":2,"subjID":"juliandavidtapiascedeño29","gender":"0","age":"12","school":"6"},{"start_time":1551881360673,"click_time":1551881361522,"finger_time":1551881361203,"fix_duration":250,"trial":33,"RT":530,"MT":319,"sideResp":1,"stimulus":"img/250/randomdotsizeEA/L/2_Ratio_250_L_16_R_4.png","xmouse":[803,803,803,803,803,803,803,803,803,803,803,803,803,803,803,803,803,803,803,803,803,803,803,803,790,767,733,633,580,530,500,486,483,483,484,486,488,497,500,502,503,503,503],"ymouse":[615,615,615,615,615,615,615,615,615,615,615,615,615,615,615,615,615,615,615,615,615,615,615,615,602,575,535,417,355,296,250,215,190,185,178,174,168,151,142,133,124,115,98],"timestamp_mouse":[8,28,48,68,90,108,128,149,169,188,209,229,250,269,288,309,330,348,369,389,409,428,448,469,489,509,530,549,568,588,608,629,649,669,688,708,728,749,769,790,810,828,849],"xSR":741.5,"ySR":573.95,"xT1":424.9,"yT1":0,"xT2":1058.1,"yT2":0,"toosoon":0,"cond_shown":"randomdotsizeEA","ratio_trial":250,"smaller_num":"4","larger_num":"16","correct_side":1,"subjID":"juliandavidtapiascedeño29","gender":"0","age":"12","school":"6"},{"start_time":1551881362969,"click_time":1551881364322,"finger_time":1551881363762,"fix_duration":666.7884289999074,"trial":34,"RT":793,"MT":560,"sideResp":2,"stimulus":"img/750/equaldotsize/R/7_Ratio_750_L_3_R_4.png","xmouse":[835,835,835,835,835,835,835,835,835,835,835,835,835,835,835,835,835,835,835,835,835,835,835,835,835,835,835,835,835,835,835,835,835,835,835,834,834,829,823,811,770,734,654,638,631,630,630,643,664,691,733,755,867,923,976,1006,1018,1021,1021,1021,1022,1024,1027,1029,1032,1037,1044,1059],"ymouse":[619,619,619,619,619,619,619,619,619,619,619,619,619,619,619,619,619,619,619,619,619,619,619,619,619,619,619,619,619,619,619,619,619,619,619,618,616,600,583,557,494,440,325,296,276,263,257,245,237,224,196,179,115,83,53,35,26,23,23,23,21,20,18,18,18,18,22,32],"timestamp_mouse":[12,33,52,74,94,112,132,153,172,193,212,234,252,272,293,314,332,353,374,394,412,433,452,474,492,512,533,552,573,594,613,633,652,673,693,712,732,752,772,793,813,834,853,872,892,913,933,952,973,993,1013,1032,1052,1073,1093,1113,1132,1152,1174,1194,1214,1232,1253,1272,1293,1312,1333,1353],"xSR":741.5,"ySR":573.95,"xT1":424.9,"yT1":0,"xT2":1058.1,"yT2":0,"toosoon":0,"cond_shown":"equaldotsize","ratio_trial":750,"smaller_num":"3","larger_num":"4","correct_side":2,"subjID":"juliandavidtapiascedeño29","gender":"0","age":"12","school":"6"},{"start_time":1551881365394,"click_time":1551881366522,"finger_time":1551881366121,"fix_duration":250,"trial":35,"RT":727,"MT":401,"sideResp":1,"stimulus":"img/500/randomdotsizeEA/L/5_Ratio_500_L_4_R_2.png","xmouse":[803,803,803,803,803,803,803,803,803,803,803,803,803,803,803,803,803,803,803,803,803,803,803,803,803,803,803,803,803,803,803,803,803,803,800,797,791,784,781,761,729,647,602,569,553,544,541,535,534,533,532,530,529,528,528,527,523],"ymouse":[592,592,592,592,592,592,592,592,592,592,592,592,592,592,592,592,592,592,592,592,592,592,592,592,592,592,592,592,592,592,592,592,592,592,590,586,571,550,541,491,433,308,255,217,195,182,173,160,157,156,154,144,138,129,123,116,95],"timestamp_mouse":[7,28,47,67,87,108,127,149,167,189,209,227,248,268,288,308,328,348,368,387,407,427,448,468,487,508,527,548,568,587,607,627,647,668,688,707,727,748,767,788,807,828,847,868,887,907,927,947,968,987,1007,1027,1048,1067,1088,1107,1128],"xSR":741.5,"ySR":573.95,"xT1":424.9,"yT1":0,"xT2":1058.1,"yT2":0,"toosoon":0,"cond_shown":"randomdotsizeEA","ratio_trial":500,"smaller_num":"2","larger_num":"4","correct_side":1,"subjID":"juliandavidtapiascedeño29","gender":"0","age":"12","school":"6"},{"start_time":1551881367701,"click_time":1551881368741,"finger_time":1551881368281,"fix_duration":518.032021178536,"trial":36,"RT":580,"MT":460,"sideResp":2,"stimulus":"img/250/randomdotsizeEA/R/4_Ratio_250_L_3_R_12.png","xmouse":[804,804,804,804,804,804,804,804,804,804,804,804,804,804,804,804,804,804,804,804,804,805,807,809,812,814,819,824,832,842,870,960,1002,1028,1033,1035,1036,1036,1036,1036,1036,1035,1032,1032,1031,1031,1032,1034,1039,1049,1055,1058,1061],"ymouse":[645,645,645,645,645,645,645,645,645,645,645,645,645,645,645,645,645,645,645,644,641,638,635,631,628,625,616,607,590,566,506,281,153,36,16,14,13,13,13,13,13,13,19,21,29,34,41,43,45,48,48,48,48],"timestamp_mouse":[3,24,41,61,81,100,121,140,160,180,201,220,241,260,281,300,321,341,360,381,400,420,440,460,481,500,521,540,560,580,602,621,641,661,680,700,720,740,761,780,800,820,841,860,880,900,921,941,960,980,1000,1020,1040],"xSR":741.5,"ySR":573.95,"xT1":424.9,"yT1":0,"xT2":1058.1,"yT2":0,"toosoon":0,"cond_shown":"randomdotsizeEA","ratio_trial":250,"smaller_num":"3","larger_num":"12","correct_side":2,"subjID":"juliandavidtapiascedeño29","gender":"0","age":"12","school":"6"},{"start_time":1551881370510,"click_time":1551881371562,"finger_time":1551881371201,"fix_duration":547.3941823851295,"trial":37,"RT":691,"MT":361,"sideResp":2,"stimulus":"img/900/randomdotsizeEA/R/9_Ratio_900_L_18_R_20.png","xmouse":[816,816,816,816,816,816,816,816,816,816,816,816,816,816,816,816,816,815,815,815,814,814,814,814,814,814,814,814,814,814,814,816,820,832,849,888,904,915,928,938,972,991,1004,1021,1027,1031,1031,1032,1036,1042,1055,1063,1072],"ymouse":[640,640,640,640,640,640,640,640,640,640,640,640,640,640,640,640,640,640,640,640,636,635,633,632,631,631,631,631,631,629,626,620,612,593,573,513,480,441,398,357,265,224,195,162,148,140,138,138,134,127,111,101,90],"timestamp_mouse":[13,32,52,72,91,112,132,152,172,192,211,232,251,271,291,312,332,352,371,391,412,433,452,472,491,512,531,551,572,592,612,632,651,671,691,712,731,752,771,791,812,832,852,871,891,912,931,951,972,993,1011,1031,1052],"xSR":741.5,"ySR":573.95,"xT1":424.9,"yT1":0,"xT2":1058.1,"yT2":0,"toosoon":0,"cond_shown":"randomdotsizeEA","ratio_trial":900,"smaller_num":"18","larger_num":"20","correct_side":2,"subjID":"juliandavidtapiascedeño29","gender":"0","age":"12","school":"6"},{"start_time":1551881373593,"click_time":1551881374561,"finger_time":1551881374142,"fix_duration":1310.7749559173114,"trial":38,"RT":549,"MT":419,"sideResp":1,"stimulus":"img/500/equaldotsize/L/8_Ratio_500_L_8_R_4.png","xmouse":[805,805,805,805,805,805,805,805,805,805,805,805,805,805,805,805,805,805,805,805,805,805,806,809,809,809,803,786,759,710,688,649,634,619,612,607,601,592,576,563,547,502,490,485,482,481,481,481,481],"ymouse":[633,633,633,633,633,633,633,633,633,633,634,636,636,636,636,636,636,636,636,636,636,637,637,636,633,621,579,541,484,401,359,291,271,258,254,250,236,223,204,189,172,136,126,118,112,106,101,100,98],"timestamp_mouse":[9,32,49,68,89,108,128,149,168,188,208,229,249,268,288,310,328,349,369,389,408,429,448,469,488,508,528,549,568,588,609,629,648,669,688,708,728,750,769,789,809,829,848,869,888,909,929,948,968],"xSR":741.5,"ySR":573.95,"xT1":424.9,"yT1":0,"xT2":1058.1,"yT2":0,"toosoon":0,"cond_shown":"equaldotsize","ratio_trial":500,"smaller_num":"4","larger_num":"8","correct_side":1,"subjID":"juliandavidtapiascedeño29","gender":"0","age":"12","school":"6"},{"start_time":1551881376483,"click_time":1551881377341,"finger_time":1551881377002,"fix_duration":860.7205265950082,"trial":39,"RT":519,"MT":339,"sideResp":2,"stimulus":"img/900/equaldotanddens/L/1_Ratio_900_L_10_R_9.png","xmouse":[774,774,774,774,774,774,774,774,774,774,774,776,776,776,776,776,776,776,776,777,778,781,785,788,791,794,808,820,851,912,993,1158,1203,1217,1219,1219,1219,1219,1218,1216,1204,1166,1147],"ymouse":[616,616,616,616,616,616,616,616,616,616,616,616,616,616,616,616,616,616,616,615,614,606,598,586,575,560,520,497,456,381,294,101,23,0,0,0,0,0,0,0,0,3,9],"timestamp_mouse":[18,40,58,78,98,119,139,158,180,198,218,238,259,280,299,320,340,358,378,399,420,439,459,478,498,519,539,558,578,599,619,638,659,680,699,718,738,759,779,799,818,838,858],"xSR":741.5,"ySR":573.95,"xT1":424.9,"yT1":0,"xT2":1058.1,"yT2":0,"toosoon":0,"cond_shown":"equaldotanddens","ratio_trial":900,"smaller_num":"9","larger_num":"10","correct_side":1,"subjID":"juliandavidtapiascedeño29","gender":"0","age":"12","school":"6"},{"start_time":1551881384559,"click_time":1551881385481,"finger_time":1551881384962,"fix_duration":1095.4042363611122,"trial":40,"RT":403,"MT":519,"sideResp":1,"stimulus":"img/900/equaldotsize/L/4_Ratio_900_L_20_R_18.png","xmouse":[769,769,769,769,769,769,769,769,769,769,769,769,769,769,769,769,769,769,759,749,737,727,716,700,693,685,675,657,632,622,608,596,583,563,560,558,558,555,545,541,539,539,539,539,531,526,521],"ymouse":[631,631,631,631,631,631,631,631,631,631,631,631,631,631,631,631,631,631,618,607,595,588,580,563,551,533,511,478,407,358,318,291,270,233,214,194,173,151,113,96,87,87,87,86,83,81,80],"timestamp_mouse":[4,24,43,63,82,103,124,142,163,183,202,223,243,262,283,304,323,343,363,382,403,423,442,463,482,503,524,543,562,583,603,623,643,662,682,702,724,743,763,782,802,822,843,863,882,902,922],"xSR":741.5,"ySR":573.95,"xT1":424.9,"yT1":0,"xT2":1058.1,"yT2":0,"toosoon":0,"cond_shown":"equaldotsize","ratio_trial":900,"smaller_num":"18","larger_num":"20","correct_side":1,"subjID":"juliandavidtapiascedeño29","gender":"0","age":"12","school":"6"},{"start_time":1551881386693,"click_time":1551881387822,"finger_time":1551881387161,"fix_duration":250,"trial":41,"RT":468,"MT":661,"sideResp":2,"stimulus":"img/250/equaldotanddens/R/10_Ratio_250_L_4_R_16.png","xmouse":[777,777,777,777,777,777,777,777,777,777,777,777,777,777,777,777,777,777,777,777,777,780,785,801,815,826,846,858,884,958,1060,1247,1269,1270,1270,1269,1267,1265,1261,1249,1233,1207,1199,1189,1182,1178,1173,1172,1170,1170,1169,1167,1165,1162,1160,1159,1156],"ymouse":[601,601,601,601,601,601,601,601,601,601,601,601,601,601,601,601,601,601,601,601,601,598,592,571,552,531,485,452,399,313,224,65,34,28,28,27,25,23,20,16,13,12,12,16,19,22,27,30,32,33,35,37,39,40,41,42,44],"timestamp_mouse":[10,29,49,69,90,108,128,149,168,188,209,230,248,270,290,308,328,349,370,388,408,429,449,468,489,508,528,549,569,589,610,628,649,669,688,708,728,748,769,789,809,828,849,869,889,908,929,949,968,989,1009,1029,1049,1068,1088,1108,1129],"xSR":741.5,"ySR":573.95,"xT1":424.9,"yT1":0,"xT2":1058.1,"yT2":0,"toosoon":0,"cond_shown":"equaldotanddens","ratio_trial":250,"smaller_num":"4","larger_num":"16","correct_side":2,"subjID":"juliandavidtapiascedeño29","gender":"0","age":"12","school":"6"},{"start_time":1551881389679,"click_time":1551881390681,"finger_time":1551881390121,"fix_duration":415.1549758852394,"trial":42,"RT":442,"MT":560,"sideResp":1,"stimulus":"img/500/equaldotsize/L/7_Ratio_500_L_10_R_5.png","xmouse":[817,816,816,816,816,816,816,816,816,816,816,816,816,816,816,816,816,816,816,814,805,782,722,691,671,667,666,655,648,639,631,623,601,593,584,577,573,570,566,560,551,544,531,523,514,507,506,504,492,476,461],"ymouse":[636,635,635,635,635,635,635,635,635,635,635,635,634,632,631,629,628,627,624,618,609,597,569,551,524,501,469,364,325,296,276,261,234,226,209,196,189,186,181,179,174,169,158,151,145,139,138,130,118,104,89],"timestamp_mouse":[2,22,44,62,82,104,124,143,162,183,202,223,243,263,284,302,324,342,362,382,404,424,442,462,482,502,522,542,563,583,602,622,642,662,682,703,723,743,762,783,803,822,842,862,882,902,922,943,963,983,1002],"xSR":741.5,"ySR":573.95,"xT1":424.9,"yT1":0,"xT2":1058.1,"yT2":0,"toosoon":0,"cond_shown":"equaldotsize","ratio_trial":500,"smaller_num":"5","larger_num":"10","correct_side":1,"subjID":"juliandavidtapiascedeño29","gender":"0","age":"12","school":"6"},{"start_time":1551881392222,"click_time":1551881393463,"finger_time":1551881392803,"fix_duration":499.53193103773685,"trial":43,"RT":581,"MT":660,"sideResp":1,"stimulus":"img/250/randomdotsizeEA/L/15_Ratio_250_L_12_R_3.png","xmouse":[779,779,779,779,779,779,779,779,779,779,779,779,779,779,779,779,779,779,779,779,779,779,779,779,779,779,777,775,772,765,736,715,697,684,673,637,620,601,566,538,498,490,486,486,485,485,486,491,506,512,514,514,514,514,515,516,516,516,516,516,516,516,514],"ymouse":[643,643,643,643,643,643,643,643,643,643,643,643,643,643,643,643,643,643,643,644,645,645,645,645,645,645,637,625,605,573,477,424,383,353,333,300,291,281,262,247,226,221,217,216,213,203,196,185,165,155,143,137,131,125,119,115,115,115,115,115,107,100,93],"timestamp_mouse":[1,19,39,59,81,101,120,139,160,179,200,221,239,259,280,299,319,341,359,380,400,420,439,459,479,501,519,540,559,581,599,619,640,660,681,699,719,740,760,779,800,820,841,860,879,899,919,939,960,980,1000,1020,1040,1060,1081,1100,1119,1140,1160,1179,1200,1219,1241],"xSR":741.5,"ySR":573.95,"xT1":424.9,"yT1":0,"xT2":1058.1,"yT2":0,"toosoon":0,"cond_shown":"randomdotsizeEA","ratio_trial":250,"smaller_num":"3","larger_num":"12","correct_side":1,"subjID":"juliandavidtapiascedeño29","gender":"0","age":"12","school":"6"},{"start_time":1551881395416,"click_time":1551881396342,"finger_time":1551881396041,"fix_duration":993.8849914049837,"trial":44,"RT":625,"MT":301,"sideResp":1,"stimulus":"img/750/equaldotsize/L/13_Ratio_750_L_8_R_6.png","xmouse":[760,760,760,760,760,760,760,760,760,760,760,760,760,760,760,760,760,760,760,760,760,760,760,761,761,762,762,764,764,764,764,761,757,752,746,709,687,682,670,661,642,627,610,588,559,537,515],"ymouse":[602,602,602,602,602,602,602,602,602,602,602,602,602,602,602,602,602,602,602,602,602,602,602,601,599,597,595,591,589,586,575,564,550,532,509,358,234,197,126,102,75,65,57,47,36,26,18],"timestamp_mouse":[7,26,47,66,85,106,127,145,165,187,206,226,246,265,286,307,325,345,366,386,405,426,447,465,486,506,527,546,566,585,605,625,645,666,685,706,725,745,765,787,806,825,846,865,885,905,926],"xSR":741.5,"ySR":573.95,"xT1":424.9,"yT1":0,"xT2":1058.1,"yT2":0,"toosoon":0,"cond_shown":"equaldotsize","ratio_trial":750,"smaller_num":"6","larger_num":"8","correct_side":1,"subjID":"juliandavidtapiascedeño29","gender":"0","age":"12","school":"6"},{"start_time":1551881397617,"click_time":1551881398422,"finger_time":1551881398222,"fix_duration":475.64447155360557,"trial":45,"RT":605,"MT":200,"sideResp":2,"stimulus":"img/900/equaldotanddens/R/14_Ratio_900_L_18_R_20.png","xmouse":[806,806,806,806,806,806,806,806,806,806,806,806,806,806,806,806,806,806,806,806,806,806,806,806,806,806,806,811,818,826,839,849,858,874,890,919,956,974,1052,1113,1138],"ymouse":[615,615,615,615,615,615,615,615,615,615,615,615,615,615,615,615,615,615,615,615,615,615,615,615,615,615,616,613,606,596,564,540,517,485,449,368,293,268,178,129,96],"timestamp_mouse":[4,25,45,64,85,106,125,145,164,185,205,225,245,265,286,304,325,345,366,385,404,425,444,465,486,504,524,545,565,585,605,624,646,664,684,704,725,744,764,786,805],"xSR":741.5,"ySR":573.95,"xT1":424.9,"yT1":0,"xT2":1058.1,"yT2":0,"toosoon":0,"cond_shown":"equaldotanddens","ratio_trial":900,"smaller_num":"18","larger_num":"20","correct_side":2,"subjID":"juliandavidtapiascedeño29","gender":"0","age":"12","school":"6"},{"start_time":1551881400461,"click_time":1551881401543,"finger_time":1551881401181,"fix_duration":837.0822899266756,"trial":46,"RT":720,"MT":362,"sideResp":2,"stimulus":"img/750/randomdotsizeEA/R/2_Ratio_750_L_6_R_8.png","xmouse":[788,788,788,788,788,788,788,788,788,788,788,788,788,788,788,788,788,788,788,788,788,788,788,788,788,788,788,788,788,790,790,791,792,795,798,804,812,831,857,919,939,950,957,966,979,988,992,995,1004,1012,1018,1025,1034,1054,1061],"ymouse":[658,658,658,658,658,658,658,658,658,658,658,658,658,658,658,658,658,658,658,658,658,658,658,658,658,658,658,658,654,649,645,639,632,621,609,589,569,527,452,302,265,245,231,211,191,176,165,154,131,119,109,98,88,73,66],"timestamp_mouse":[4,22,40,60,80,101,121,140,160,182,200,220,240,261,280,301,322,340,360,382,400,422,441,460,481,502,521,540,561,580,600,620,640,660,682,700,720,741,760,780,800,820,841,861,881,901,921,940,961,981,1001,1021,1040,1061,1081],"xSR":741.5,"ySR":573.95,"xT1":424.9,"yT1":0,"xT2":1058.1,"yT2":0,"toosoon":0,"cond_shown":"randomdotsizeEA","ratio_trial":750,"smaller_num":"6","larger_num":"8","correct_side":2,"subjID":"juliandavidtapiascedeño29","gender":"0","age":"12","school":"6"},{"start_time":1551881405007,"click_time":1551881406161,"finger_time":1551881405621,"fix_duration":385.68560603641043,"trial":47,"RT":614,"MT":540,"sideResp":2,"stimulus":"img/750/randomdotsizeEA/R/15_Ratio_750_L_9_R_12.png","xmouse":[803,803,803,803,803,803,803,803,803,803,803,803,803,803,803,803,803,803,803,803,803,803,803,803,803,803,803,803,806,810,825,845,880,905,919,946,958,971,982,987,995,996,996,998,1007,1019,1021,1024,1025,1025,1026,1029,1034,1039,1044,1051,1058,1064],"ymouse":[615,615,615,615,615,615,615,615,615,615,615,615,615,615,615,615,615,615,615,615,615,615,615,615,615,613,609,599,592,579,545,520,482,456,436,396,377,359,344,330,298,268,219,190,161,115,111,105,103,102,102,101,99,97,94,88,84,82],"timestamp_mouse":[16,36,55,75,95,114,134,155,175,194,215,236,254,275,296,315,334,354,376,395,414,435,455,474,494,515,534,555,574,595,614,635,654,676,695,714,734,755,775,795,815,834,854,875,894,915,936,954,975,994,1014,1035,1055,1075,1095,1114,1135,1154],"xSR":741.5,"ySR":573.95,"xT1":424.9,"yT1":0,"xT2":1058.1,"yT2":0,"toosoon":0,"cond_shown":"randomdotsizeEA","ratio_trial":750,"smaller_num":"9","larger_num":"12","correct_side":2,"subjID":"juliandavidtapiascedeño29","gender":"0","age":"12","school":"6"},{"start_time":1551881408634,"click_time":1551881409702,"finger_time":1551881409202,"fix_duration":1491.5580692588946,"trial":48,"RT":568,"MT":500,"sideResp":2,"stimulus":"img/250/randomdotsizeEA/R/9_Ratio_250_L_3_R_12.png","xmouse":[814,814,814,814,814,814,814,814,814,814,814,814,814,814,814,814,814,814,814,814,814,814,814,814,814,817,823,841,864,909,927,948,965,983,986,986,986,986,986,990,999,1009,1017,1022,1027,1032,1034,1042,1046,1050,1050,1051,1055,1060],"ymouse":[628,628,628,628,628,628,628,628,628,628,628,628,628,628,628,628,628,628,628,628,628,628,628,628,628,625,615,575,530,396,323,252,190,135,42,34,34,34,34,31,28,22,18,18,20,25,28,35,38,43,43,44,45,46],"timestamp_mouse":[8,27,48,68,88,107,127,147,167,188,207,228,248,268,288,307,328,348,368,387,407,428,448,468,488,507,527,549,568,588,608,628,647,669,687,708,727,748,768,787,808,828,848,869,887,907,928,948,968,988,1007,1028,1048,1068],"xSR":741.5,"ySR":573.95,"xT1":424.9,"yT1":0,"xT2":1058.1,"yT2":0,"toosoon":0,"cond_shown":"randomdotsizeEA","ratio_trial":250,"smaller_num":"3","larger_num":"12","correct_side":2,"subjID":"juliandavidtapiascedeño29","gender":"0","age":"12","school":"6"},{"start_time":1551881411042,"click_time":1551881411962,"finger_time":1551881411562,"fix_duration":719.019730054757,"trial":49,"RT":520,"MT":400,"sideResp":1,"stimulus":"img/500/equaldotanddens/L/7_Ratio_500_L_10_R_5.png","xmouse":[785,785,785,785,785,785,785,785,785,785,785,785,785,785,785,785,785,785,785,785,785,785,785,785,779,749,716,681,645,634,625,611,596,570,565,563,562,561,552,542,533,525,516,497,482,472],"ymouse":[657,657,657,657,657,657,657,657,657,657,657,657,657,657,657,657,657,657,657,657,657,657,652,626,596,508,454,405,350,332,319,300,282,260,256,255,255,254,238,224,207,189,169,130,102,86],"timestamp_mouse":[20,40,60,80,100,119,140,160,180,200,220,241,260,281,301,320,341,361,380,401,420,441,459,480,501,520,541,560,581,599,620,640,660,680,701,721,739,759,781,800,821,841,860,880,900,920],"xSR":741.5,"ySR":573.95,"xT1":424.9,"yT1":0,"xT2":1058.1,"yT2":0,"toosoon":0,"cond_shown":"equaldotanddens","ratio_trial":500,"smaller_num":"5","larger_num":"10","correct_side":1,"subjID":"juliandavidtapiascedeño29","gender":"0","age":"12","school":"6"},{"start_time":1551881413635,"click_time":1551881414602,"finger_time":1551881414081,"fix_duration":753.0981335392727,"trial":50,"RT":446,"MT":521,"sideResp":1,"stimulus":"img/500/equaldotsize/L/7_Ratio_500_L_10_R_5.png","xmouse":[767,767,767,767,767,767,767,767,767,767,767,770,774,786,802,809,811,812,814,816,816,816,816,811,788,773,717,592,496,344,297,279,278,284,290,301,314,323,327,333,337,340,347,362,400,420,424,424,425],"ymouse":[630,630,630,630,630,630,630,630,630,630,630,630,629,625,614,606,602,598,593,585,579,576,572,563,536,522,480,390,312,145,69,17,1,0,0,0,0,0,0,0,0,0,5,19,53,77,81,82,83],"timestamp_mouse":[8,27,47,67,87,108,127,146,167,187,208,226,248,266,287,307,326,346,368,387,407,427,446,467,487,506,528,547,568,587,606,628,647,667,687,707,726,747,768,788,807,828,847,867,887,907,927,947,967],"xSR":741.5,"ySR":573.95,"xT1":424.9,"yT1":0,"xT2":1058.1,"yT2":0,"toosoon":0,"cond_shown":"equaldotsize","ratio_trial":500,"smaller_num":"5","larger_num":"10","correct_side":1,"subjID":"juliandavidtapiascedeño29","gender":"0","age":"12","school":"6"},{"start_time":1551881417024,"click_time":1551881417962,"finger_time":1551881417562,"fix_duration":1240.1799850152127,"trial":51,"RT":538,"MT":400,"sideResp":2,"stimulus":"img/750/randomdotsizeEA/R/3_Ratio_750_L_15_R_20.png","xmouse":[759,759,759,759,759,759,759,759,759,760,761,762,762,763,768,769,769,769,769,773,781,787,791,794,799,803,812,821,834,854,924,958,989,1006,1020,1026,1030,1034,1038,1041,1043,1045,1047,1049,1051,1057,1061],"ymouse":[618,618,618,618,618,618,618,618,618,617,617,617,617,616,612,611,611,611,611,610,607,604,600,595,585,575,554,533,504,467,364,317,275,248,210,191,163,146,133,115,106,102,96,93,87,71,64],"timestamp_mouse":[20,39,58,78,98,118,138,158,178,199,218,239,257,278,298,318,338,358,378,397,418,438,458,478,498,517,538,559,578,597,618,637,659,678,697,718,738,758,779,799,818,839,859,878,897,918,938],"xSR":741.5,"ySR":573.95,"xT1":424.9,"yT1":0,"xT2":1058.1,"yT2":0,"toosoon":0,"cond_shown":"randomdotsizeEA","ratio_trial":750,"smaller_num":"15","larger_num":"20","correct_side":2,"subjID":"juliandavidtapiascedeño29","gender":"0","age":"12","school":"6"},{"start_time":1551881420365,"click_time":1551881421023,"finger_time":1551881420962,"fix_duration":1242.4127211458924,"trial":52,"RT":597,"MT":61,"sideResp":1,"stimulus":"img/500/equaldotanddens/L/7_Ratio_500_L_10_R_5.png","xmouse":[821,821,821,821,821,821,821,821,821,821,821,821,821,821,821,821,821,821,821,821,821,821,821,821,821,821,821,819,816,808,760,668,485],"ymouse":[642,642,642,642,642,642,642,642,642,642,642,642,642,642,642,642,642,642,642,642,642,642,642,642,642,642,642,634,619,564,446,275,46],"timestamp_mouse":[17,37,56,78,97,117,138,157,178,198,217,236,256,277,297,318,337,357,377,397,417,438,457,477,497,517,538,557,577,597,618,637,657],"xSR":741.5,"ySR":573.95,"xT1":424.9,"yT1":0,"xT2":1058.1,"yT2":0,"toosoon":0,"cond_shown":"equaldotanddens","ratio_trial":500,"smaller_num":"5","larger_num":"10","correct_side":1,"subjID":"juliandavidtapiascedeño29","gender":"0","age":"12","school":"6"},{"start_time":1551881425167,"click_time":1551881426142,"finger_time":1551881425822,"fix_duration":982.4481470263196,"trial":53,"RT":655,"MT":320,"sideResp":1,"stimulus":"img/900/randomdotsizeEA/R/11_Ratio_900_L_18_R_20.png","xmouse":[793,793,793,793,793,793,793,793,793,793,793,793,793,793,793,793,793,793,793,793,793,793,793,793,793,793,793,791,788,779,770,759,714,659,593,532,486,448,438,438,440,445,457,466,471,475,478,481,482],"ymouse":[638,638,638,638,638,638,638,638,638,638,638,638,638,638,638,638,638,638,638,638,638,638,638,638,638,638,638,637,631,612,594,575,488,421,360,307,266,219,195,183,170,161,143,136,129,120,113,103,96],"timestamp_mouse":[15,35,56,74,95,116,136,154,175,195,215,236,255,275,295,316,336,356,375,395,415,435,455,475,495,516,535,555,574,595,616,636,655,676,694,716,735,755,775,795,814,834,855,874,894,915,935,955,974],"xSR":741.5,"ySR":573.95,"xT1":424.9,"yT1":0,"xT2":1058.1,"yT2":0,"toosoon":0,"cond_shown":"randomdotsizeEA","ratio_trial":900,"smaller_num":"18","larger_num":"20","correct_side":2,"subjID":"juliandavidtapiascedeño29","gender":"0","age":"12","school":"6"},{"start_time":1551881429144,"click_time":1551881430322,"finger_time":1551881429722,"fix_duration":602.7370600518911,"trial":54,"RT":578,"MT":600,"sideResp":1,"stimulus":"img/500/equaldotsize/L/13_Ratio_500_L_12_R_6.png","xmouse":[815,815,815,815,815,815,815,815,815,815,815,816,816,816,816,816,816,817,818,818,819,819,819,819,819,821,822,823,799,783,730,611,564,555,555,554,554,554,553,549,548,547,546,542,540,537,532,527,524,523,521,519,515,512,512,512,511,509,507],"ymouse":[627,627,627,628,628,628,628,628,628,628,628,628,628,628,628,628,628,628,628,628,628,628,628,628,628,626,620,613,536,504,428,267,195,174,172,171,171,171,171,169,169,168,168,164,162,160,155,149,142,139,134,129,122,113,110,108,106,100,92],"timestamp_mouse":[18,38,58,78,97,119,139,158,178,198,218,239,257,279,297,318,338,357,378,398,418,438,458,478,498,518,537,558,578,598,618,639,658,678,698,719,738,758,778,798,818,839,858,878,898,918,938,959,978,998,1018,1038,1059,1078,1099,1117,1139,1158,1178],"xSR":741.5,"ySR":573.95,"xT1":424.9,"yT1":0,"xT2":1058.1,"yT2":0,"toosoon":0,"cond_shown":"equaldotsize","ratio_trial":500,"smaller_num":"6","larger_num":"12","correct_side":1,"subjID":"juliandavidtapiascedeño29","gender":"0","age":"12","school":"6"},{"start_time":1551881433305,"click_time":1551881434042,"finger_time":1551881433823,"fix_duration":1440.303362481085,"trial":55,"RT":518,"MT":219,"sideResp":2,"stimulus":"img/900/equaldotsize/L/2_Ratio_900_L_20_R_18.png","xmouse":[788,788,788,788,788,788,788,788,788,788,788,788,788,788,788,788,790,791,791,791,791,791,791,794,805,847,870,888,900,907,924,932,943,968,987,1029,1086],"ymouse":[602,602,602,602,602,602,602,602,602,602,602,602,602,602,602,600,595,593,591,591,591,591,591,587,579,547,522,490,459,427,377,356,335,282,234,153,76],"timestamp_mouse":[17,38,57,77,97,117,137,157,177,197,218,237,257,276,297,317,336,357,377,398,416,437,457,476,496,518,536,556,578,597,617,636,658,677,698,717,737],"xSR":741.5,"ySR":573.95,"xT1":424.9,"yT1":0,"xT2":1058.1,"yT2":0,"toosoon":0,"cond_shown":"equaldotsize","ratio_trial":900,"smaller_num":"18","larger_num":"20","correct_side":1,"subjID":"juliandavidtapiascedeño29","gender":"0","age":"12","school":"6"},{"start_time":1551881438655,"click_time":1551881439282,"finger_time":1551881439122,"fix_duration":751.9654613446713,"trial":56,"RT":467,"MT":160,"sideResp":2,"stimulus":"img/500/randomdotsizeEA/R/3_Ratio_500_L_10_R_20.png","xmouse":[799,799,799,799,799,799,799,799,799,799,799,799,799,799,799,799,799,799,799,799,799,802,805,826,854,897,951,983,1042,1068,1087,1099],"ymouse":[613,613,613,613,613,613,613,613,613,613,613,613,613,613,613,613,613,613,613,612,607,601,589,546,500,435,340,282,178,138,114,98],"timestamp_mouse":[7,27,48,66,87,108,127,147,167,187,207,227,247,267,288,307,328,347,367,386,407,427,446,467,487,506,527,547,567,587,607,627],"xSR":741.5,"ySR":573.95,"xT1":424.9,"yT1":0,"xT2":1058.1,"yT2":0,"toosoon":0,"cond_shown":"randomdotsizeEA","ratio_trial":500,"smaller_num":"10","larger_num":"20","correct_side":2,"subjID":"juliandavidtapiascedeño29","gender":"0","age":"12","school":"6"},{"start_time":1551881443013,"click_time":1551881443922,"finger_time":1551881443522,"fix_duration":1409.5950145047277,"trial":57,"RT":509,"MT":400,"sideResp":1,"stimulus":"img/250/equaldotanddens/L/5_Ratio_250_L_24_R_6.png","xmouse":[808,808,808,808,808,808,808,808,808,808,808,808,808,808,808,808,808,808,808,808,808,808,808,808,802,725,645,585,550,545,543,543,543,542,538,505,481,468,464,464,464,464,464,464,464,465],"ymouse":[626,626,626,626,626,626,626,626,626,626,626,626,626,626,626,626,626,626,626,626,626,626,626,626,614,542,477,419,373,362,349,347,345,341,329,238,177,142,127,126,121,118,113,109,104,96],"timestamp_mouse":[9,29,48,70,88,109,129,149,170,190,208,229,249,269,290,309,329,350,370,389,409,429,449,469,488,508,529,550,569,589,609,628,648,669,689,709,729,749,769,789,809,829,850,870,890,909],"xSR":741.5,"ySR":573.95,"xT1":424.9,"yT1":0,"xT2":1058.1,"yT2":0,"toosoon":0,"cond_shown":"equaldotanddens","ratio_trial":250,"smaller_num":"6","larger_num":"24","correct_side":1,"subjID":"juliandavidtapiascedeño29","gender":"0","age":"12","school":"6"},{"start_time":1551881445220,"click_time":1551881446301,"finger_time":1551881445782,"fix_duration":497.05948965252236,"trial":58,"RT":562,"MT":519,"sideResp":2,"stimulus":"img/900/randomdotsizeEA/R/3_Ratio_900_L_9_R_10.png","xmouse":[785,785,785,785,785,785,785,785,785,785,785,785,785,785,785,785,785,785,786,786,786,786,787,788,789,795,800,807,815,824,858,877,896,920,943,968,972,976,986,993,1001,1003,1006,1011,1017,1031,1036,1050,1057,1079,1096,1102,1105,1106,1108],"ymouse":[598,598,598,598,598,598,598,598,598,598,598,598,598,598,598,598,598,598,598,598,598,598,597,596,594,590,585,578,563,537,467,423,380,323,276,243,238,232,217,208,196,194,192,187,182,169,165,154,149,132,116,110,105,100,95],"timestamp_mouse":[3,22,43,62,82,102,123,142,162,181,203,223,242,262,282,302,322,341,362,383,402,422,442,461,481,501,522,543,562,582,602,621,642,662,682,701,721,742,761,781,802,822,842,862,882,901,921,941,963,981,1002,1022,1042,1063,1081],"xSR":741.5,"ySR":573.95,"xT1":424.9,"yT1":0,"xT2":1058.1,"yT2":0,"toosoon":0,"cond_shown":"randomdotsizeEA","ratio_trial":900,"smaller_num":"9","larger_num":"10","correct_side":2,"subjID":"juliandavidtapiascedeño29","gender":"0","age":"12","school":"6"},{"start_time":1551881451834,"click_time":1551881452882,"finger_time":1551881452522,"fix_duration":1410.5654843028572,"trial":59,"RT":688,"MT":360,"sideResp":1,"stimulus":"img/500/randomdotsizeEA/L/5_Ratio_500_L_4_R_2.png","xmouse":[799,799,799,799,799,799,799,799,799,799,799,799,799,799,799,799,799,799,799,799,799,799,799,799,799,799,799,799,799,799,799,799,799,798,765,727,682,619,591,552,545,540,535,530,512,499,490,488,487,484,480,477,472],"ymouse":[650,650,650,650,649,648,648,648,648,648,648,648,648,648,648,648,648,648,648,648,648,648,648,648,648,648,648,648,648,648,642,628,607,580,492,437,388,326,289,224,209,197,188,179,159,148,139,132,130,124,117,108,98],"timestamp_mouse":[9,28,49,68,88,108,127,148,168,188,209,229,247,268,288,309,328,348,367,388,409,428,447,469,488,509,529,548,569,589,607,629,647,669,688,707,728,748,768,788,808,828,847,867,888,908,928,949,969,987,1008,1029,1048],"xSR":741.5,"ySR":573.95,"xT1":424.9,"yT1":0,"xT2":1058.1,"yT2":0,"toosoon":0,"cond_shown":"randomdotsizeEA","ratio_trial":500,"smaller_num":"2","larger_num":"4","correct_side":1,"subjID":"juliandavidtapiascedeño29","gender":"0","age":"12","school":"6"},{"start_time":1551881454014,"click_time":1551881454942,"finger_time":1551881454662,"fix_duration":250,"trial":60,"RT":648,"MT":280,"sideResp":1,"stimulus":"img/250/equaldotsize/L/1_Ratio_250_L_8_R_2.png","xmouse":[776,776,776,776,776,776,776,776,776,776,775,775,775,775,775,775,775,775,775,775,775,775,775,775,775,775,775,775,775,775,770,759,727,662,581,482,475,472,470,466,456,453,450,446,443,440,439],"ymouse":[654,653,653,653,653,653,653,653,652,651,648,646,645,644,643,643,643,643,643,643,643,643,643,643,643,643,643,643,643,641,625,604,558,487,416,313,296,287,279,267,241,230,208,187,161,111,93],"timestamp_mouse":[7,27,47,69,88,108,128,148,168,189,207,227,247,268,289,309,328,349,368,389,408,428,448,468,489,508,529,548,568,588,607,627,648,669,688,708,728,747,768,787,807,828,848,868,888,908,928],"xSR":741.5,"ySR":573.95,"xT1":424.9,"yT1":0,"xT2":1058.1,"yT2":0,"toosoon":0,"cond_shown":"equaldotsize","ratio_trial":250,"smaller_num":"2","larger_num":"8","correct_side":1,"subjID":"juliandavidtapiascedeño29","gender":"0","age":"12","school":"6"},{"start_time":1551881456427,"click_time":1551881457362,"finger_time":1551881456983,"fix_duration":763.725993399031,"trial":61,"RT":556,"MT":379,"sideResp":2,"stimulus":"img/900/equaldotanddens/L/2_Ratio_900_L_20_R_18.png","xmouse":[830,830,830,830,830,830,830,830,830,830,830,830,830,830,830,830,830,830,830,830,830,830,830,828,828,828,830,838,859,919,957,999,1047,1116,1235,1244,1245,1245,1245,1245,1245,1239,1228,1209,1155,1116,1068],"ymouse":[627,627,627,627,627,627,627,627,627,627,627,627,627,627,627,627,627,627,627,627,627,627,627,623,610,603,591,569,523,412,343,278,210,136,29,21,19,18,15,5,1,0,0,0,0,0,9],"timestamp_mouse":[14,35,56,75,95,115,135,154,176,196,214,235,255,274,296,314,335,355,374,395,415,435,455,475,495,516,535,556,575,596,615,635,654,675,695,715,735,756,775,794,815,835,856,875,895,915,935],"xSR":741.5,"ySR":573.95,"xT1":424.9,"yT1":0,"xT2":1058.1,"yT2":0,"toosoon":0,"cond_shown":"equaldotanddens","ratio_trial":900,"smaller_num":"18","larger_num":"20","correct_side":1,"subjID":"juliandavidtapiascedeño29","gender":"0","age":"12","school":"6"},{"start_time":1551881459711,"click_time":1551881460541,"finger_time":1551881460122,"fix_duration":688.9863308152457,"trial":62,"RT":411,"MT":419,"sideResp":1,"stimulus":"img/250/randomdotsizeEA/L/14_Ratio_250_L_12_R_3.png","xmouse":[807,807,807,807,807,807,807,807,807,807,807,807,807,807,807,808,809,809,809,809,801,773,747,712,674,625,534,513,509,508,508,508,512,515,519,522,525,525,525,524,520,500],"ymouse":[624,624,624,624,624,624,624,624,624,622,622,622,622,622,622,622,621,619,615,607,566,505,460,411,351,290,189,170,164,162,160,157,150,145,141,137,130,126,122,116,109,87],"timestamp_mouse":[12,31,52,71,90,111,131,152,171,190,211,231,252,271,291,311,330,350,371,391,411,431,451,471,491,510,531,552,572,591,611,630,650,671,691,710,731,751,771,791,811,830],"xSR":741.5,"ySR":573.95,"xT1":424.9,"yT1":0,"xT2":1058.1,"yT2":0,"toosoon":0,"cond_shown":"randomdotsizeEA","ratio_trial":250,"smaller_num":"3","larger_num":"12","correct_side":1,"subjID":"juliandavidtapiascedeño29","gender":"0","age":"12","school":"6"},{"start_time":1551881462394,"click_time":1551881463102,"finger_time":1551881462863,"fix_duration":1112.1095340129411,"trial":63,"RT":469,"MT":239,"sideResp":1,"stimulus":"img/250/equaldotanddens/L/7_Ratio_250_L_8_R_2.png","xmouse":[769,767,766,766,766,766,766,766,766,766,766,766,766,766,766,766,767,768,769,770,770,770,769,766,761,751,694,649,581,557,550,541,536,532,527,521],"ymouse":[610,610,611,611,611,611,611,611,611,611,611,611,611,611,611,611,610,607,602,598,594,586,581,571,557,533,398,308,186,139,122,105,98,93,85,75],"timestamp_mouse":[9,29,48,69,89,109,128,148,168,187,209,229,248,267,288,307,328,349,368,388,408,429,448,469,488,508,528,548,568,588,608,629,648,668,688,708],"xSR":741.5,"ySR":573.95,"xT1":424.9,"yT1":0,"xT2":1058.1,"yT2":0,"toosoon":0,"cond_shown":"equaldotanddens","ratio_trial":250,"smaller_num":"2","larger_num":"8","correct_side":1,"subjID":"juliandavidtapiascedeño29","gender":"0","age":"12","school":"6"},{"start_time":1551881467530,"click_time":1551881468522,"finger_time":1551881467942,"fix_duration":807.9875819852474,"trial":64,"RT":412,"MT":580,"sideResp":2,"stimulus":"img/250/equaldotsize/R/4_Ratio_250_L_3_R_12.png","xmouse":[790,790,790,790,790,790,790,790,790,789,789,788,788,787,787,787,787,787,789,808,838,861,884,901,917,922,926,931,935,947,955,962,968,974,1013,1029,1041,1046,1048,1053,1061,1067,1070,1072,1073,1074,1074,1076,1077,1081],"ymouse":[656,656,656,656,656,656,656,656,656,654,651,649,647,645,641,638,633,628,619,584,534,487,445,402,356,340,322,305,290,254,235,220,205,197,161,148,140,137,136,135,126,120,116,111,107,105,104,102,101,93],"timestamp_mouse":[13,32,53,72,92,111,132,152,173,192,212,232,251,272,293,313,331,352,372,392,412,432,452,472,492,512,532,552,573,592,612,633,653,672,692,712,733,752,771,792,812,831,851,872,893,912,932,953,972,992],"xSR":741.5,"ySR":573.95,"xT1":424.9,"yT1":0,"xT2":1058.1,"yT2":0,"toosoon":0,"cond_shown":"equaldotsize","ratio_trial":250,"smaller_num":"3","larger_num":"12","correct_side":2,"subjID":"juliandavidtapiascedeño29","gender":"0","age":"12","school":"6"},{"start_time":1551881471728,"click_time":1551881472381,"finger_time":1551881472222,"fix_duration":406.7374901260288,"trial":65,"RT":494,"MT":159,"sideResp":2,"stimulus":"img/250/equaldotsize/R/11_Ratio_250_L_3_R_12.png","xmouse":[810,810,810,810,810,810,810,810,810,810,810,811,812,814,814,814,814,814,814,814,816,821,827,841,912,962,997,1036,1084,1126,1131,1135,1142],"ymouse":[665,660,659,659,659,658,658,657,656,652,639,629,622,617,616,616,616,616,616,616,615,613,609,596,524,474,412,338,239,151,116,102,86],"timestamp_mouse":[18,33,53,74,94,113,135,155,175,193,213,233,254,274,294,314,334,354,373,393,414,433,454,473,494,514,533,554,573,593,613,633,653],"xSR":741.5,"ySR":573.95,"xT1":424.9,"yT1":0,"xT2":1058.1,"yT2":0,"toosoon":0,"cond_shown":"equaldotsize","ratio_trial":250,"smaller_num":"3","larger_num":"12","correct_side":2,"subjID":"juliandavidtapiascedeño29","gender":"0","age":"12","school":"6"},{"start_time":1551881474175,"click_time":1551881475221,"finger_time":1551881474861,"fix_duration":432.9939224404383,"trial":66,"RT":686,"MT":360,"sideResp":1,"stimulus":"img/900/randomdotsizeEA/R/6_Ratio_900_L_9_R_10.png","xmouse":[817,817,817,817,817,817,817,817,817,817,817,817,817,817,817,817,817,817,817,817,817,817,817,817,817,817,817,817,817,817,816,813,794,770,727,679,633,574,567,563,555,550,541,537,535,530,524,505,499,494,491,489,487],"ymouse":[641,641,641,641,641,641,641,641,641,641,641,641,641,641,641,641,641,641,641,641,641,641,641,641,641,641,641,641,641,641,641,641,611,584,533,481,425,345,324,309,290,282,263,248,229,202,167,127,115,108,105,102,97],"timestamp_mouse":[6,26,46,67,87,107,127,146,166,186,207,228,246,266,288,307,326,346,366,388,406,426,446,467,487,507,526,547,566,586,608,627,647,666,686,706,728,747,766,787,807,828,846,866,887,907,927,947,967,987,1006,1026,1046],"xSR":741.5,"ySR":573.95,"xT1":424.9,"yT1":0,"xT2":1058.1,"yT2":0,"toosoon":0,"cond_shown":"randomdotsizeEA","ratio_trial":900,"smaller_num":"9","larger_num":"10","correct_side":2,"subjID":"juliandavidtapiascedeño29","gender":"0","age":"12","school":"6"},{"start_time":1551881476573,"click_time":1551881477422,"finger_time":1551881476961,"fix_duration":250,"trial":67,"RT":388,"MT":461,"sideResp":1,"stimulus":"img/900/randomdotsizeEA/L/1_Ratio_900_L_10_R_9.png","xmouse":[808,808,808,808,808,808,808,808,808,808,808,808,808,808,808,813,819,831,836,844,851,859,870,871,867,855,832,736,664,549,481,431,410,402,402,402,407,418,431,436,449,455,461],"ymouse":[645,645,645,645,645,645,645,645,645,645,645,645,645,644,638,626,611,585,575,556,541,522,494,487,477,462,444,399,372,322,290,261,243,212,196,180,166,143,130,126,116,107,94],"timestamp_mouse":[9,29,49,68,90,109,128,148,168,188,208,229,248,269,289,308,329,348,370,388,408,428,449,468,488,508,530,549,569,588,608,629,648,668,689,709,729,748,769,789,808,829,849],"xSR":741.5,"ySR":573.95,"xT1":424.9,"yT1":0,"xT2":1058.1,"yT2":0,"toosoon":0,"cond_shown":"randomdotsizeEA","ratio_trial":900,"smaller_num":"9","larger_num":"10","correct_side":1,"subjID":"juliandavidtapiascedeño29","gender":"0","age":"12","school":"6"},{"start_time":1551881478786,"click_time":1551881479522,"finger_time":1551881479141,"fix_duration":563.0143082047433,"trial":68,"RT":355,"MT":381,"sideResp":2,"stimulus":"img/750/randomdotsizeEA/L/10_Ratio_750_L_4_R_3.png","xmouse":[789,789,789,789,789,789,789,789,789,789,789,789,789,790,792,796,812,824,849,862,873,894,934,950,959,967,1002,1012,1018,1028,1032,1042,1046,1049,1052,1055,1062],"ymouse":[621,621,621,621,621,621,621,621,621,621,621,621,620,617,612,603,576,559,528,505,480,413,332,305,285,266,193,174,161,142,134,121,114,109,105,102,94],"timestamp_mouse":[17,36,55,75,96,116,135,155,177,196,216,236,255,277,296,316,335,355,375,396,416,436,456,475,496,517,536,556,575,596,616,636,655,675,697,717,736],"xSR":741.5,"ySR":573.95,"xT1":424.9,"yT1":0,"xT2":1058.1,"yT2":0,"toosoon":0,"cond_shown":"randomdotsizeEA","ratio_trial":750,"smaller_num":"3","larger_num":"4","correct_side":1,"subjID":"juliandavidtapiascedeño29","gender":"0","age":"12","school":"6"},{"start_time":1551881482405,"click_time":1551881483222,"finger_time":1551881482962,"fix_duration":262.20737974805377,"trial":69,"RT":557,"MT":260,"sideResp":1,"stimulus":"img/750/equaldotsize/L/1_Ratio_750_L_20_R_15.png","xmouse":[770,773,776,776,778,780,780,780,780,780,780,780,780,780,780,780,780,780,780,780,780,780,780,780,780,780,779,768,747,719,649,619,595,576,562,540,533,529,527,526,522],"ymouse":[643,632,622,617,612,607,605,604,603,603,603,603,603,603,603,603,603,603,603,603,603,603,603,603,603,599,585,548,497,432,298,240,191,157,134,101,92,87,84,82,81],"timestamp_mouse":[19,38,56,77,97,116,137,157,177,197,218,236,256,277,296,316,336,357,378,396,416,436,456,477,496,516,537,557,576,597,617,637,657,676,698,717,737,757,777,797,817],"xSR":741.5,"ySR":573.95,"xT1":424.9,"yT1":0,"xT2":1058.1,"yT2":0,"toosoon":0,"cond_shown":"equaldotsize","ratio_trial":750,"smaller_num":"15","larger_num":"20","correct_side":1,"subjID":"juliandavidtapiascedeño29","gender":"0","age":"12","school":"6"},{"start_time":1551881491472,"click_time":1551881492682,"finger_time":1551881492682,"fix_duration":1110.9867426871174,"trial":70,"RT":1210,"MT":0,"sideResp":2,"stimulus":"img/250/equaldotsize/R/4_Ratio_250_L_3_R_12.png","xmouse":[793,793,793,793,793,793,793,793,793,793,793,793,793,793,793,793,793,793,793,793,793,793,793,793,793,793,793,793,793,793,793,793,793,793,793,793,793,793,793,793,793,793,793,793,793,793,793,793,793,793,793,793,793,793,793,793,793,793,793,793,1071],"ymouse":[634,634,634,634,634,634,634,634,634,634,634,634,634,634,634,634,634,634,634,634,634,634,634,634,634,634,634,634,634,634,634,634,634,634,634,634,634,634,634,634,634,634,634,634,634,634,634,634,634,634,634,634,634,634,634,634,634,634,634,634,69],"timestamp_mouse":[9,29,49,71,90,110,130,151,170,189,211,229,249,270,291,309,330,350,370,390,410,429,449,469,490,510,529,549,569,590,610,629,650,669,689,709,730,749,769,790,810,830,849,869,890,910,930,949,969,989,1011,1029,1050,1069,1089,1110,1129,1150,1170,1189,1210],"xSR":741.5,"ySR":573.95,"xT1":424.9,"yT1":0,"xT2":1058.1,"yT2":0,"toosoon":0,"cond_shown":"equaldotsize","ratio_trial":250,"smaller_num":"3","larger_num":"12","correct_side":2,"subjID":"juliandavidtapiascedeño29","gender":"0","age":"12","school":"6"},{"start_time":1551881496346,"click_time":1551881497202,"finger_time":1551881496882,"fix_duration":1203.4035619519148,"trial":71,"RT":536,"MT":320,"sideResp":1,"stimulus":"img/250/equaldotsize/L/2_Ratio_250_L_16_R_4.png","xmouse":[784,784,784,784,784,784,784,784,784,784,784,784,784,784,784,784,784,784,784,784,784,784,784,783,781,781,780,779,758,725,704,686,668,647,644,641,635,617,572,552,542,532,524],"ymouse":[601,601,601,601,601,601,601,601,601,601,601,601,601,601,601,601,601,601,601,601,601,601,601,598,592,581,562,534,406,294,224,164,121,77,71,65,59,48,22,11,8,7,7],"timestamp_mouse":[18,37,57,75,96,116,135,157,175,195,216,236,256,275,296,317,336,355,375,396,415,435,455,475,495,515,536,556,575,596,616,636,656,676,696,716,736,755,775,797,815,835,856],"xSR":741.5,"ySR":573.95,"xT1":424.9,"yT1":0,"xT2":1058.1,"yT2":0,"toosoon":0,"cond_shown":"equaldotsize","ratio_trial":250,"smaller_num":"4","larger_num":"16","correct_side":1,"subjID":"juliandavidtapiascedeño29","gender":"0","age":"12","school":"6"},{"start_time":1551881500236,"click_time":1551881501022,"finger_time":1551881500561,"fix_duration":1433.996208473483,"trial":72,"RT":325,"MT":461,"sideResp":2,"stimulus":"img/500/equaldotsize/R/3_Ratio_500_L_10_R_20.png","xmouse":[780,780,780,780,780,780,780,780,780,780,780,781,782,784,786,787,788,790,791,799,810,830,859,890,932,978,992,999,1003,1008,1010,1011,1015,1018,1026,1032,1042,1049,1054,1062],"ymouse":[591,590,589,589,589,589,589,589,589,588,588,587,586,584,583,581,573,568,563,546,531,507,465,417,315,221,172,150,137,124,119,116,110,104,95,93,91,90,87,82],"timestamp_mouse":[5,25,46,67,85,106,125,146,167,186,205,226,245,267,286,307,325,345,365,386,405,426,446,466,485,506,525,546,566,586,606,626,645,667,685,705,726,747,766,786],"xSR":741.5,"ySR":573.95,"xT1":424.9,"yT1":0,"xT2":1058.1,"yT2":0,"toosoon":0,"cond_shown":"equaldotsize","ratio_trial":500,"smaller_num":"10","larger_num":"20","correct_side":2,"subjID":"juliandavidtapiascedeño29","gender":"0","age":"12","school":"6"},{"start_time":1551881503784,"click_time":1551881504562,"finger_time":1551881504181,"fix_duration":961.9939004713145,"trial":73,"RT":397,"MT":381,"sideResp":1,"stimulus":"img/750/equaldotsize/L/13_Ratio_750_L_8_R_6.png","xmouse":[794,794,794,794,794,794,794,794,794,794,794,794,794,794,794,794,794,796,798,800,801,801,786,749,692,640,588,578,576,576,576,572,569,565,561,561,548,532,509],"ymouse":[605,605,605,605,605,605,605,605,605,605,605,605,605,605,605,603,602,589,578,563,544,498,468,416,347,285,230,221,220,218,218,207,198,181,160,136,91,72,54],"timestamp_mouse":[17,38,57,77,97,117,137,157,177,197,217,237,257,277,297,317,337,357,377,397,417,437,457,478,498,517,537,557,577,597,617,638,657,677,697,717,737,759,778],"xSR":741.5,"ySR":573.95,"xT1":424.9,"yT1":0,"xT2":1058.1,"yT2":0,"toosoon":0,"cond_shown":"equaldotsize","ratio_trial":750,"smaller_num":"6","larger_num":"8","correct_side":1,"subjID":"juliandavidtapiascedeño29","gender":"0","age":"12","school":"6"},{"start_time":1551881508210,"click_time":1551881509222,"finger_time":1551881508761,"fix_duration":1387.0612948381781,"trial":74,"RT":551,"MT":461,"sideResp":1,"stimulus":"img/500/randomdotsizeEA/R/1_Ratio_500_L_9_R_18.png","xmouse":[825,825,825,825,825,825,825,825,825,825,825,825,825,825,825,825,825,825,825,825,825,825,825,824,824,824,824,827,832,836,833,802,760,731,716,694,684,651,608,581,552,547,546,539,533,523,519,515,510,506,497],"ymouse":[622,622,622,622,622,622,622,622,622,622,622,622,622,622,622,622,622,622,622,622,622,622,622,622,617,606,596,573,548,517,459,408,353,322,309,285,274,259,247,243,232,229,226,217,208,177,163,142,124,110,88],"timestamp_mouse":[11,31,52,71,92,111,132,152,172,192,213,231,251,272,293,312,332,352,371,391,412,432,452,471,492,511,531,551,572,592,612,632,651,671,692,711,732,751,771,792,811,832,853,872,893,912,931,952,972,992,1012],"xSR":741.5,"ySR":573.95,"xT1":424.9,"yT1":0,"xT2":1058.1,"yT2":0,"toosoon":0,"cond_shown":"randomdotsizeEA","ratio_trial":500,"smaller_num":"9","larger_num":"18","correct_side":2,"subjID":"juliandavidtapiascedeño29","gender":"0","age":"12","school":"6"},{"start_time":1551881512836,"click_time":1551881513341,"finger_time":1551881513082,"fix_duration":1352.672737763405,"trial":75,"RT":246,"MT":259,"sideResp":2,"stimulus":"img/750/equaldotanddens/L/10_Ratio_750_L_4_R_3.png","xmouse":[776,776,776,776,776,776,776,776,776,776,781,789,805,822,882,909,945,988,1014,1031,1032,1034,1035,1037,1067,1079],"ymouse":[601,601,601,601,601,601,601,601,601,601,597,586,565,534,404,354,287,206,169,143,137,133,127,123,102,89],"timestamp_mouse":[6,26,46,65,87,106,125,146,165,185,205,226,246,267,285,306,326,345,366,386,406,427,446,465,486,505],"xSR":741.5,"ySR":573.95,"xT1":424.9,"yT1":0,"xT2":1058.1,"yT2":0,"toosoon":0,"cond_shown":"equaldotanddens","ratio_trial":750,"smaller_num":"3","larger_num":"4","correct_side":1,"subjID":"juliandavidtapiascedeño29","gender":"0","age":"12","school":"6"},{"start_time":1551881514430,"click_time":1551881515301,"finger_time":1551881515081,"fix_duration":347.9636771254642,"trial":76,"RT":651,"MT":220,"sideResp":2,"stimulus":"img/750/equaldotsize/R/4_Ratio_750_L_15_R_20.png","xmouse":[808,808,807,807,807,807,807,807,807,806,805,805,805,805,805,805,805,804,804,804,804,804,804,804,804,804,804,804,804,804,813,831,860,893,930,944,970,1004,1023,1049,1055,1059,1061,1064],"ymouse":[665,667,668,669,669,669,669,669,669,669,668,667,667,667,667,666,662,659,658,658,658,658,658,658,658,658,658,658,658,652,637,614,575,526,430,376,296,228,190,133,118,110,105,97],"timestamp_mouse":[11,33,52,71,91,112,132,152,173,191,211,232,253,272,291,311,331,352,371,392,411,432,451,472,491,513,532,551,572,592,612,631,651,671,692,712,732,752,772,792,811,832,851,871],"xSR":741.5,"ySR":573.95,"xT1":424.9,"yT1":0,"xT2":1058.1,"yT2":0,"toosoon":0,"cond_shown":"equaldotsize","ratio_trial":750,"smaller_num":"15","larger_num":"20","correct_side":2,"subjID":"juliandavidtapiascedeño29","gender":"0","age":"12","school":"6"},{"start_time":1551881517324,"click_time":1551881518341,"finger_time":1551881517721,"fix_duration":742.0149988755635,"trial":77,"RT":397,"MT":620,"sideResp":1,"stimulus":"img/250/equaldotanddens/L/3_Ratio_250_L_8_R_2.png","xmouse":[820,820,820,820,820,820,820,820,820,820,820,820,820,820,820,820,820,818,814,778,747,697,615,573,544,542,541,541,541,540,540,539,538,538,537,536,535,532,528,523,522,522,522,522,521,517,512,507,503,495,488],"ymouse":[650,650,650,650,650,650,650,650,650,650,650,650,650,650,650,650,650,650,645,551,479,401,314,274,236,231,228,225,224,224,224,224,222,217,215,210,203,194,186,177,176,176,176,176,164,149,136,125,116,103,95],"timestamp_mouse":[18,38,58,79,99,118,139,158,177,199,218,239,257,278,299,317,337,357,377,397,417,438,457,477,497,518,539,557,577,598,617,637,658,678,698,718,737,757,778,797,818,837,858,877,898,917,938,959,979,997,1017],"xSR":741.5,"ySR":573.95,"xT1":424.9,"yT1":0,"xT2":1058.1,"yT2":0,"toosoon":0,"cond_shown":"equaldotanddens","ratio_trial":250,"smaller_num":"2","larger_num":"8","correct_side":1,"subjID":"juliandavidtapiascedeño29","gender":"0","age":"12","school":"6"},{"start_time":