[{"start_time":1551880546377,"click_time":1551880549535,"finger_time":1551880546399,"fix_duration":600.8965645349637,"trial":0,"RT":22,"MT":3136,"sideResp":1,"stimulus":[],"xmouse":[828,828,827,825,825,824,822,820,813,812,811,811,811,811,811,811,811,811,811,811,811,811,811,808,806,805,803,801,798,798,798,798,798,802,805,807,808,810,814,817,818,819,820,823,823,823,823,823,823,823,823,823,823,823,823,823,823,823,823,823,824,825,826,827,828,829,830,831,833,834,835,835,836,836,836,836,836,836,836,836,836,836,836,836,836,836,836,836,836,836,838,838,840,841,841,841,841,841,841,841,841,841,841,841,841,841,841,841,841,841,841,841,841,841,841,841,841,841,841,841,841,841,841,841,841,841,841,841,841,841,841,841,841,841,841,841,841,841,841,841,841,841,841,841,841,841,841,841,842,842,842,843,844,844,829,777,647,490],"ymouse":[529,529,528,527,527,527,527,527,528,528,528,528,528,528,528,528,528,528,528,528,528,528,528,530,532,535,541,546,551,552,554,561,566,580,583,586,589,591,597,600,601,602,603,606,606,606,606,606,606,606,606,605,605,604,603,603,603,603,602,602,600,599,598,597,595,594,593,592,589,586,584,583,582,582,582,582,582,582,582,582,582,582,582,582,582,582,582,582,582,582,580,577,575,572,571,571,571,571,571,571,571,571,571,571,571,571,571,571,571,571,571,571,571,571,571,571,571,571,571,571,571,571,571,571,571,571,571,571,571,571,571,571,571,571,571,571,571,571,571,571,571,571,571,571,571,571,571,571,571,571,571,570,570,546,503,404,239,53],"timestamp_mouse":[22,38,58,78,99,117,137,157,177,198,217,239,259,278,297,317,338,359,378,397,417,437,457,478,497,518,538,558,577,598,618,637,657,678,697,718,738,757,777,797,817,838,857,877,898,918,938,959,978,999,1018,1038,1057,1078,1097,1118,1137,1159,1178,1198,1217,1237,1257,1278,1298,1318,1338,1357,1377,1399,1417,1437,1458,1477,1498,1518,1537,1558,1579,1597,1619,1638,1659,1678,1698,1717,1739,1757,1779,1798,1818,1837,1858,1878,1898,1917,1937,1957,1977,1997,2017,2038,2058,2078,2098,2119,2139,2157,2178,2199,2218,2238,2258,2279,2298,2319,2337,2358,2377,2399,2419,2437,2458,2478,2497,2517,2538,2559,2578,2599,2618,2639,2658,2678,2698,2717,2737,2758,2778,2797,2817,2839,2857,2878,2898,2919,2937,2957,2977,2998,3018,3038,3057,3078,3098,3118,3137,3157],"xSR":741.5,"ySR":479.7,"xT1":424.9,"yT1":0,"xT2":1058.1,"yT2":0,"toosoon":0,"cond_shown":"Incongruent","ratio_trial":300,"L_num":4,"L_den":20,"R_num":2,"R_den":4,"correct_side":2,"subjID":"JulianDavidTapiasCedeño29","gender":"0","age":"12","school":"6","test":{"fix_dur":[250,1500],"timestim":1000,"targets_dim":[100,100],"targets_relative_coord":[0.3,0.7],"size_stim":[880,420],"start_dim":[100,100],"size_start":[300,300],"size_fix":60,"samplingrate":20,"img_types":["Congruent","Incongruent"],"ratios":[100,200,300],"rep_conds":19,"nTrials":120,"trials_to_rest":500,"Trials_order":[53,0,64,115,10,74,119,11,33,88,67,87,83,114,109,66,117,12,81,78,72,25,1,15,102,68,97,71,103,90,96,24,27,7,32,34,98,29,89,22,61,69,99,101,77,105,2,82,63,47,86,43,113,79,38,112,30,116,70,16,85,41,46,54,28,76,39,95,93,80,58,3,48,26,51,37,35,75,100,13,31,42,23,111,49,36,20,19,73,118,108,21,56,110,104,106,62,40,14,17,92,94,57,84,44,60,18,59,52,45,107,55,8,65,9,5,91,6,50,4],"cond_shown":["Incongruent","Congruent","Congruent","Incongruent","Congruent","Congruent","Incongruent","Incongruent","Incongruent","Congruent","Incongruent","Incongruent","Incongruent","Congruent","Incongruent","Congruent","Incongruent","Congruent","Incongruent","Congruent","Congruent","Incongruent","Incongruent","Incongruent","Congruent","Congruent","Incongruent","Incongruent","Incongruent","Congruent","Congruent","Congruent","Incongruent","Incongruent","Congruent","Congruent","Congruent","Incongruent","Incongruent","Congruent","Incongruent","Incongruent","Incongruent","Incongruent","Incongruent","Incongruent","Congruent","Congruent","Incongruent","Incongruent","Congruent","Incongruent","Incongruent","Incongruent","Congruent","Congruent","Congruent","Congruent","Congruent","Congruent","Incongruent","Incongruent","Congruent","Congruent","Congruent","Congruent","Incongruent","Incongruent","Incongruent","Congruent","Congruent","Incongruent","Congruent","Congruent","Incongruent","Incongruent","Incongruent","Incongruent","Congruent","Incongruent","Incongruent","Congruent","Incongruent","Incongruent","Incongruent","Congruent","Congruent","Incongruent","Incongruent","Congruent","Congruent","Incongruent","Congruent","Congruent","Congruent","Congruent","Congruent","Congruent","Congruent","Incongruent","Congruent","Congruent","Incongruent","Congruent","Congruent","Congruent","Congruent","Incongruent","Congruent","Incongruent","Incongruent","Incongruent","Congruent","Incongruent","Incongruent","Incongruent","Incongruent","Congruent","Congruent","Congruent"],"ratio_trial":[300,100,300,100,300,200,300,300,200,300,100,200,300,100,100,100,200,100,200,100,100,100,100,200,100,200,100,300,100,100,100,100,200,100,200,300,200,300,300,300,100,200,200,300,300,200,200,300,200,300,200,100,300,100,200,300,100,200,300,300,100,300,300,100,300,300,200,300,200,200,300,200,100,200,200,100,300,200,300,100,100,100,300,200,100,100,200,100,100,300,100,200,200,200,200,300,200,300,200,300,200,300,200,100,200,100,100,300,300,200,300,100,200,300,200,300,100,100,200,300],"left_num":[4,15,11,6,24,13,13,13,7,2,3,4,1,11,12,2,7,4,6,4,11,6,9,1,4,16,6,4,11,1,7,7,4,3,16,4,13,13,13,9,8,6,3,2,7,3,8,3,11,4,5,8,13,4,1,11,3,16,1,4,12,8,12,6,1,9,4,13,9,3,20,1,10,3,7,3,4,7,1,3,6,6,4,4,6,11,5,6,9,1,6,1,11,3,3,1,15,1,3,4,8,20,4,1,3,15,4,4,20,14,4,13,16,8,4,4,3,10,7,1],"right_num":[2,13,4,3,8,14,12,12,4,10,4,1,2,4,9,6,4,6,3,15,4,13,14,3,6,9,7,2,9,3,15,9,14,7,9,1,14,12,12,3,1,3,11,6,8,11,7,4,3,6,14,1,12,8,21,4,2,9,11,1,2,14,2,15,11,3,1,12,8,9,8,3,3,9,6,8,6,12,7,4,3,5,6,6,13,6,14,7,6,6,15,2,3,14,14,3,4,8,14,8,2,5,1,18,14,13,6,2,14,6,6,12,9,9,1,2,7,3,2,19],"left_den":[20,25,22,12,30,26,26,26,15,20,6,30,2,22,24,5,15,8,20,10,22,10,15,2,8,30,10,20,22,2,14,14,6,9,30,10,26,26,26,10,20,20,4,4,10,4,15,6,20,5,10,20,26,8,2,22,6,30,5,10,30,10,24,12,5,10,30,26,15,12,25,2,25,12,15,5,5,10,20,6,12,20,5,5,10,22,10,10,18,5,12,3,22,6,6,5,25,30,10,5,15,25,30,2,10,25,8,20,25,30,5,26,30,10,30,20,9,25,21,3],"right_den":[4,26,20,5,16,20,15,15,6,25,10,3,10,10,15,12,6,10,6,30,10,26,28,10,10,27,14,4,15,5,25,15,30,30,27,10,20,15,15,5,2,6,20,30,20,20,21,5,4,12,20,2,15,20,30,20,5,27,22,10,4,28,10,25,22,5,3,15,10,20,16,10,10,20,9,16,12,24,20,10,5,25,12,10,26,15,20,14,10,12,25,15,10,20,20,6,10,24,28,16,6,10,3,30,28,26,10,4,28,9,12,20,27,18,3,4,30,10,15,30],"correct_side":[2,1,1,2,1,2,2,2,2,2,1,2,1,1,2,2,2,2,2,2,1,1,1,1,2,1,1,2,2,2,2,2,1,1,1,1,2,2,2,1,2,2,1,1,1,1,1,2,2,1,2,2,2,1,2,1,1,1,2,1,2,1,1,2,2,1,2,2,2,2,1,1,1,2,2,1,1,1,2,1,2,1,1,1,1,1,2,1,2,2,2,1,1,2,2,2,1,2,2,1,1,1,2,2,2,1,2,2,1,2,1,2,1,1,2,2,1,1,1,2],"img_shown":["img2/300/Incongruent/R/I_Dist_300_LN_4_LD_20_RN_2_RD_4_1.png","img2/100/Congruent/L/C_Dist_100_LN_15_LD_25_RN_13_RD_26_0.png","img2/300/Congruent/L/C_Dist_300_LN_11_LD_22_RN_4_RD_20_0.png","img2/100/Incongruent/R/I_Dist_100_LN_6_LD_12_RN_3_RD_5_1.png","img2/300/Congruent/L/C_Dist_300_LN_24_LD_30_RN_8_RD_16_0.png","img2/200/Congruent/R/C_Dist_200_LN_13_LD_26_RN_14_RD_20_1.png","img2/300/Incongruent/R/I_Dist_300_LN_13_LD_26_RN_12_RD_15_1.png","img2/300/Incongruent/R/I_Dist_300_LN_13_LD_26_RN_12_RD_15_1.png","img2/200/Incongruent/R/I_Dist_200_LN_7_LD_15_RN_4_RD_6_1.png","img2/300/Congruent/R/C_Dist_300_LN_2_LD_20_RN_10_RD_25_1.png","img2/100/Incongruent/L/I_Dist_100_LN_3_LD_6_RN_4_RD_10_0.png","img2/200/Incongruent/R/I_Dist_200_LN_4_LD_30_RN_1_RD_3_1.png","img2/300/Incongruent/L/I_Dist_300_LN_1_LD_2_RN_2_RD_10_0.png","img2/100/Congruent/L/C_Dist_100_LN_11_LD_22_RN_4_RD_10_0.png","img2/100/Incongruent/R/I_Dist_100_LN_12_LD_24_RN_9_RD_15_1.png","img2/100/Congruent/R/C_Dist_100_LN_2_LD_5_RN_6_RD_12_1.png","img2/200/Incongruent/R/I_Dist_200_LN_7_LD_15_RN_4_RD_6_1.png","img2/100/Congruent/R/C_Dist_100_LN_4_LD_8_RN_6_RD_10_1.png","img2/200/Incongruent/R/I_Dist_200_LN_6_LD_20_RN_3_RD_6_1.png","img2/100/Congruent/R/C_Dist_100_LN_4_LD_10_RN_15_RD_30_1.png","img2/100/Congruent/L/C_Dist_100_LN_11_LD_22_RN_4_RD_10_0.png","img2/100/Incongruent/L/I_Dist_100_LN_6_LD_10_RN_13_RD_26_0.png","img2/100/Incongruent/L/I_Dist_100_LN_9_LD_15_RN_14_RD_28_0.png","img2/200/Incongruent/L/I_Dist_200_LN_1_LD_2_RN_3_RD_10_0.png","img2/100/Congruent/R/C_Dist_100_LN_4_LD_8_RN_6_RD_10_1.png","img2/200/Congruent/L/C_Dist_200_LN_16_LD_30_RN_9_RD_27_0.png","img2/100/Incongruent/L/I_Dist_100_LN_6_LD_10_RN_7_RD_14_0.png","img2/300/Incongruent/R/I_Dist_300_LN_4_LD_20_RN_2_RD_4_1.png","img2/100/Incongruent/R/I_Dist_100_LN_11_LD_22_RN_9_RD_15_1.png","img2/100/Congruent/R/C_Dist_100_LN_1_LD_2_RN_3_RD_5_1.png","img2/100/Congruent/R/C_Dist_100_LN_7_LD_14_RN_15_RD_25_1.png","img2/100/Congruent/R/C_Dist_100_LN_7_LD_14_RN_9_RD_15_1.png","img2/200/Incongruent/L/I_Dist_200_LN_4_LD_6_RN_14_RD_30_0.png","img2/100/Incongruent/L/I_Dist_100_LN_3_LD_9_RN_7_RD_30_0.png","img2/200/Congruent/L/C_Dist_200_LN_16_LD_30_RN_9_RD_27_0.png","img2/300/Congruent/L/C_Dist_300_LN_4_LD_10_RN_1_RD_10_0.png","img2/200/Congruent/R/C_Dist_200_LN_13_LD_26_RN_14_RD_20_1.png","img2/300/Incongruent/R/I_Dist_300_LN_13_LD_26_RN_12_RD_15_1.png","img2/300/Incongruent/R/I_Dist_300_LN_13_LD_26_RN_12_RD_15_1.png","img2/300/Congruent/L/C_Dist_300_LN_9_LD_10_RN_3_RD_5_0.png","img2/100/Incongruent/R/I_Dist_100_LN_8_LD_20_RN_1_RD_2_1.png","img2/200/Incongruent/R/I_Dist_200_LN_6_LD_20_RN_3_RD_6_1.png","img2/200/Incongruent/L/I_Dist_200_LN_3_LD_4_RN_11_RD_20_0.png","img2/300/Incongruent/L/I_Dist_300_LN_2_LD_4_RN_6_RD_30_0.png","img2/300/Incongruent/L/I_Dist_300_LN_7_LD_10_RN_8_RD_20_0.png","img2/200/Incongruent/L/I_Dist_200_LN_3_LD_4_RN_11_RD_20_0.png","img2/200/Congruent/L/C_Dist_200_LN_8_LD_15_RN_7_RD_21_0.png","img2/300/Congruent/R/C_Dist_300_LN_3_LD_6_RN_4_RD_5_1.png","img2/200/Incongruent/R/I_Dist_200_LN_11_LD_20_RN_3_RD_4_1.png","img2/300/Incongruent/L/I_Dist_300_LN_4_LD_5_RN_6_RD_12_0.png","img2/200/Congruent/R/C_Dist_200_LN_5_LD_10_RN_14_RD_20_1.png","img2/100/Incongruent/R/I_Dist_100_LN_8_LD_20_RN_1_RD_2_1.png","img2/300/Incongruent/R/I_Dist_300_LN_13_LD_26_RN_12_RD_15_1.png","img2/100/Incongruent/L/I_Dist_100_LN_4_LD_8_RN_8_RD_20_0.png","img2/200/Congruent/R/C_Dist_200_LN_1_LD_2_RN_21_RD_30_1.png","img2/300/Congruent/L/C_Dist_300_LN_11_LD_22_RN_4_RD_20_0.png","img2/100/Congruent/L/C_Dist_100_LN_3_LD_6_RN_2_RD_5_0.png","img2/200/Congruent/L/C_Dist_200_LN_16_LD_30_RN_9_RD_27_0.png","img2/300/Congruent/R/C_Dist_300_LN_1_LD_5_RN_11_RD_22_1.png","img2/300/Congruent/L/C_Dist_300_LN_4_LD_10_RN_1_RD_10_0.png","img2/100/Incongruent/R/I_Dist_100_LN_12_LD_30_RN_2_RD_4_1.png","img2/300/Incongruent/L/I_Dist_300_LN_8_LD_10_RN_14_RD_28_0.png","img2/300/Congruent/L/C_Dist_300_LN_12_LD_24_RN_2_RD_10_0.png","img2/100/Congruent/R/C_Dist_100_LN_6_LD_12_RN_15_RD_25_1.png","img2/300/Congruent/R/C_Dist_300_LN_1_LD_5_RN_11_RD_22_1.png","img2/300/Congruent/L/C_Dist_300_LN_9_LD_10_RN_3_RD_5_0.png","img2/200/Incongruent/R/I_Dist_200_LN_4_LD_30_RN_1_RD_3_1.png","img2/300/Incongruent/R/I_Dist_300_LN_13_LD_26_RN_12_RD_15_1.png","img2/200/Incongruent/R/I_Dist_200_LN_9_LD_15_RN_8_RD_10_1.png","img2/200/Congruent/R/C_Dist_200_LN_3_LD_12_RN_9_RD_20_1.png","img2/300/Congruent/L/C_Dist_300_LN_20_LD_25_RN_8_RD_16_0.png","img2/200/Incongruent/L/I_Dist_200_LN_1_LD_2_RN_3_RD_10_0.png","img2/100/Congruent/L/C_Dist_100_LN_10_LD_25_RN_3_RD_10_0.png","img2/200/Congruent/R/C_Dist_200_LN_3_LD_12_RN_9_RD_20_1.png","img2/200/Incongruent/R/I_Dist_200_LN_7_LD_15_RN_6_RD_9_1.png","img2/100/Incongruent/L/I_Dist_100_LN_3_LD_5_RN_8_RD_16_0.png","img2/300/Incongruent/L/I_Dist_300_LN_4_LD_5_RN_6_RD_12_0.png","img2/200/Incongruent/L/I_Dist_200_LN_7_LD_10_RN_12_RD_24_0.png","img2/300/Congruent/R/C_Dist_300_LN_1_LD_20_RN_7_RD_20_1.png","img2/100/Incongruent/L/I_Dist_100_LN_3_LD_6_RN_4_RD_10_0.png","img2/100/Incongruent/R/I_Dist_100_LN_6_LD_12_RN_3_RD_5_1.png","img2/100/Congruent/L/C_Dist_100_LN_6_LD_20_RN_5_RD_25_0.png","img2/300/Incongruent/L/I_Dist_300_LN_4_LD_5_RN_6_RD_12_0.png","img2/200/Incongruent/L/I_Dist_200_LN_4_LD_5_RN_6_RD_10_0.png","img2/100/Incongruent/L/I_Dist_100_LN_6_LD_10_RN_13_RD_26_0.png","img2/100/Congruent/L/C_Dist_100_LN_11_LD_22_RN_6_RD_15_0.png","img2/200/Congruent/R/C_Dist_200_LN_5_LD_10_RN_14_RD_20_1.png","img2/100/Incongruent/L/I_Dist_100_LN_6_LD_10_RN_7_RD_14_0.png","img2/100/Incongruent/R/I_Dist_100_LN_9_LD_18_RN_6_RD_10_1.png","img2/300/Congruent/R/C_Dist_300_LN_1_LD_5_RN_6_RD_12_1.png","img2/100/Congruent/R/C_Dist_100_LN_6_LD_12_RN_15_RD_25_1.png","img2/200/Incongruent/L/I_Dist_200_LN_1_LD_3_RN_2_RD_15_0.png","img2/200/Congruent/L/C_Dist_200_LN_11_LD_22_RN_3_RD_10_0.png","img2/200/Congruent/R/C_Dist_200_LN_3_LD_6_RN_14_RD_20_1.png","img2/200/Congruent/R/C_Dist_200_LN_3_LD_6_RN_14_RD_20_1.png","img2/300/Congruent/R/C_Dist_300_LN_1_LD_5_RN_3_RD_6_1.png","img2/200/Congruent/L/C_Dist_200_LN_15_LD_25_RN_4_RD_10_0.png","img2/300/Congruent/R/C_Dist_300_LN_1_LD_30_RN_8_RD_24_1.png","img2/200/Congruent/R/C_Dist_200_LN_3_LD_10_RN_14_RD_28_1.png","img2/300/Incongruent/L/I_Dist_300_LN_4_LD_5_RN_8_RD_16_0.png","img2/200/Congruent/L/C_Dist_200_LN_8_LD_15_RN_2_RD_6_0.png","img2/300/Congruent/L/C_Dist_300_LN_20_LD_25_RN_5_RD_10_0.png","img2/200/Incongruent/R/I_Dist_200_LN_4_LD_30_RN_1_RD_3_1.png","img2/100/Congruent/R/C_Dist_100_LN_1_LD_2_RN_18_RD_30_1.png","img2/200/Congruent/R/C_Dist_200_LN_3_LD_10_RN_14_RD_28_1.png","img2/100/Congruent/L/C_Dist_100_LN_15_LD_25_RN_13_RD_26_0.png","img2/100/Congruent/R/C_Dist_100_LN_4_LD_8_RN_6_RD_10_1.png","img2/300/Incongruent/R/I_Dist_300_LN_4_LD_20_RN_2_RD_4_1.png","img2/300/Congruent/L/C_Dist_300_LN_20_LD_25_RN_14_RD_28_0.png","img2/200/Incongruent/R/I_Dist_200_LN_14_LD_30_RN_6_RD_9_1.png","img2/300/Incongruent/L/I_Dist_300_LN_4_LD_5_RN_6_RD_12_0.png","img2/100/Incongruent/R/I_Dist_100_LN_13_LD_26_RN_12_RD_20_1.png","img2/200/Congruent/L/C_Dist_200_LN_16_LD_30_RN_9_RD_27_0.png","img2/300/Incongruent/L/I_Dist_300_LN_8_LD_10_RN_9_RD_18_0.png","img2/200/Incongruent/R/I_Dist_200_LN_4_LD_30_RN_1_RD_3_1.png","img2/300/Incongruent/R/I_Dist_300_LN_4_LD_20_RN_2_RD_4_1.png","img2/100/Incongruent/L/I_Dist_100_LN_3_LD_9_RN_7_RD_30_0.png","img2/100/Congruent/L/C_Dist_100_LN_10_LD_25_RN_3_RD_10_0.png","img2/200/Congruent/L/C_Dist_200_LN_7_LD_21_RN_2_RD_15_0.png","img2/300/Congruent/R/C_Dist_300_LN_1_LD_3_RN_19_RD_30_1.png"],"dist100_C":[["C_Dist_100_LN_10_LD_25_RN_3_RD_10_0.png","C_Dist_100_LN_11_LD_22_RN_4_RD_10_0.png","C_Dist_100_LN_11_LD_22_RN_6_RD_15_0.png","C_Dist_100_LN_15_LD_25_RN_13_RD_26_0.png","C_Dist_100_LN_3_LD_6_RN_2_RD_5_0.png","C_Dist_100_LN_6_LD_20_RN_5_RD_25_0.png","C_Dist_100_LN_8_LD_16_RN_2_RD_5_0.png","C_Dist_100_LN_9_LD_15_RN_8_RD_16_0.png"],["C_Dist_100_LN_1_LD_2_RN_18_RD_30_1.png","C_Dist_100_LN_1_LD_2_RN_3_RD_5_1.png","C_Dist_100_LN_12_LD_30_RN_13_RD_26_1.png","C_Dist_100_LN_2_LD_5_RN_11_RD_22_1.png","C_Dist_100_LN_2_LD_5_RN_6_RD_12_1.png","C_Dist_100_LN_3_LD_20_RN_4_RD_16_1.png","C_Dist_100_LN_4_LD_10_RN_15_RD_30_1.png","C_Dist_100_LN_4_LD_8_RN_6_RD_10_1.png","C_Dist_100_LN_6_LD_12_RN_15_RD_25_1.png","C_Dist_100_LN_7_LD_14_RN_15_RD_25_1.png","C_Dist_100_LN_7_LD_14_RN_9_RD_15_1.png"]],"dist100_I":[["I_Dist_100_LN_1_LD_2_RN_8_RD_20_0.png","I_Dist_100_LN_2_LD_4_RN_6_RD_15_0.png","I_Dist_100_LN_2_LD_4_RN_8_RD_20_0.png","I_Dist_100_LN_3_LD_5_RN_11_RD_22_0.png","I_Dist_100_LN_3_LD_5_RN_8_RD_16_0.png","I_Dist_100_LN_3_LD_6_RN_4_RD_10_0.png","I_Dist_100_LN_3_LD_9_RN_7_RD_30_0.png","I_Dist_100_LN_4_LD_8_RN_8_RD_20_0.png","I_Dist_100_LN_6_LD_10_RN_11_RD_22_0.png","I_Dist_100_LN_6_LD_10_RN_13_RD_26_0.png","I_Dist_100_LN_6_LD_10_RN_7_RD_14_0.png","I_Dist_100_LN_9_LD_10_RN_20_RD_25_0.png","I_Dist_100_LN_9_LD_15_RN_13_RD_26_0.png","I_Dist_100_LN_9_LD_15_RN_14_RD_28_0.png"],["I_Dist_100_LN_10_LD_25_RN_8_RD_16_1.png","I_Dist_100_LN_10_LD_25_RN_9_RD_18_1.png","I_Dist_100_LN_11_LD_22_RN_9_RD_15_1.png","I_Dist_100_LN_12_LD_24_RN_9_RD_15_1.png","I_Dist_100_LN_12_LD_30_RN_2_RD_4_1.png","I_Dist_100_LN_13_LD_26_RN_12_RD_20_1.png","I_Dist_100_LN_13_LD_26_RN_6_RD_10_1.png","I_Dist_100_LN_17_LD_30_RN_10_RD_15_1.png","I_Dist_100_LN_6_LD_12_RN_3_RD_5_1.png","I_Dist_100_LN_8_LD_16_RN_6_RD_10_1.png","I_Dist_100_LN_8_LD_20_RN_1_RD_2_1.png","I_Dist_100_LN_9_LD_18_RN_6_RD_10_1.png"]],"dist100_S":[["E_Dist_100_LN_2_LD_12_RN_2_RD_30_0.png","E_Dist_100_LN_6_LD_10_RN_6_RD_12_0.png"],["E_Dist_100_LN_6_LD_12_RN_6_RD_10_1.png"]],"dist200_C":[["C_Dist_200_LN_11_LD_22_RN_3_RD_10_0.png","C_Dist_200_LN_12_LD_15_RN_6_RD_10_0.png","C_Dist_200_LN_12_LD_20_RN_6_RD_15_0.png","C_Dist_200_LN_14_LD_28_RN_6_RD_20_0.png","C_Dist_200_LN_15_LD_25_RN_4_RD_10_0.png","C_Dist_200_LN_16_LD_20_RN_12_RD_20_0.png","C_Dist_200_LN_16_LD_30_RN_9_RD_27_0.png","C_Dist_200_LN_20_LD_25_RN_9_RD_15_0.png","C_Dist_200_LN_21_LD_30_RN_2_RD_4_0.png","C_Dist_200_LN_4_LD_10_RN_3_RD_15_0.png","C_Dist_200_LN_4_LD_8_RN_3_RD_10_0.png","C_Dist_200_LN_6_LD_15_RN_3_RD_15_0.png","C_Dist_200_LN_7_LD_21_RN_2_RD_15_0.png","C_Dist_200_LN_8_LD_15_RN_2_RD_6_0.png","C_Dist_200_LN_8_LD_15_RN_3_RD_9_0.png","C_Dist_200_LN_8_LD_15_RN_7_RD_21_0.png","C_Dist_200_LN_9_LD_20_RN_4_RD_16_0.png"],["C_Dist_200_LN_1_LD_2_RN_21_RD_30_1.png","C_Dist_200_LN_13_LD_26_RN_14_RD_20_1.png","C_Dist_200_LN_3_LD_10_RN_11_RD_22_1.png","C_Dist_200_LN_3_LD_10_RN_14_RD_28_1.png","C_Dist_200_LN_3_LD_10_RN_7_RD_14_1.png","C_Dist_200_LN_3_LD_12_RN_9_RD_20_1.png","C_Dist_200_LN_3_LD_6_RN_14_RD_20_1.png","C_Dist_200_LN_5_LD_10_RN_14_RD_20_1.png","C_Dist_200_LN_6_LD_12_RN_7_RD_10_1.png","C_Dist_200_LN_6_LD_20_RN_11_RD_22_1.png","C_Dist_200_LN_7_LD_15_RN_18_RD_27_1.png","C_Dist_200_LN_9_LD_30_RN_13_RD_26_1.png"]],"dist200_I":[["I_Dist_200_LN_1_LD_2_RN_3_RD_10_0.png","I_Dist_200_LN_1_LD_3_RN_2_RD_15_0.png","I_Dist_200_LN_3_LD_4_RN_11_RD_20_0.png","I_Dist_200_LN_4_LD_5_RN_6_RD_10_0.png","I_Dist_200_LN_4_LD_6_RN_14_RD_30_0.png","I_Dist_200_LN_7_LD_10_RN_12_RD_24_0.png","I_Dist_200_LN_7_LD_10_RN_14_RD_28_0.png","I_Dist_200_LN_7_LD_10_RN_8_RD_16_0.png"],["I_Dist_200_LN_11_LD_20_RN_3_RD_4_1.png","I_Dist_200_LN_14_LD_30_RN_12_RD_18_1.png","I_Dist_200_LN_14_LD_30_RN_6_RD_9_1.png","I_Dist_200_LN_3_LD_10_RN_1_RD_2_1.png","I_Dist_200_LN_4_LD_30_RN_1_RD_3_1.png","I_Dist_200_LN_6_LD_20_RN_3_RD_6_1.png","I_Dist_200_LN_7_LD_15_RN_4_RD_6_1.png","I_Dist_200_LN_7_LD_15_RN_6_RD_9_1.png","I_Dist_200_LN_9_LD_15_RN_8_RD_10_1.png"]],"dist200_S":[["E_Dist_200_LN_3_LD_6_RN_3_RD_10_0.png"],["E_Dist_200_LN_3_LD_10_RN_3_RD_6_1.png"]],"dist300_C":[["C_Dist_300_LN_11_LD_22_RN_1_RD_5_0.png","C_Dist_300_LN_11_LD_22_RN_2_RD_10_0.png","C_Dist_300_LN_11_LD_22_RN_4_RD_20_0.png","C_Dist_300_LN_12_LD_24_RN_2_RD_10_0.png","C_Dist_300_LN_18_LD_20_RN_9_RD_15_0.png","C_Dist_300_LN_20_LD_25_RN_13_RD_26_0.png","C_Dist_300_LN_20_LD_25_RN_14_RD_28_0.png","C_Dist_300_LN_20_LD_25_RN_5_RD_10_0.png","C_Dist_300_LN_20_LD_25_RN_8_RD_16_0.png","C_Dist_300_LN_20_LD_25_RN_9_RD_18_0.png","C_Dist_300_LN_24_LD_30_RN_2_RD_4_0.png","C_Dist_300_LN_24_LD_30_RN_8_RD_16_0.png","C_Dist_300_LN_3_LD_6_RN_2_RD_10_0.png","C_Dist_300_LN_4_LD_10_RN_1_RD_10_0.png","C_Dist_300_LN_4_LD_5_RN_2_RD_4_0.png","C_Dist_300_LN_8_LD_16_RN_1_RD_5_0.png","C_Dist_300_LN_9_LD_10_RN_3_RD_5_0.png"],["C_Dist_300_LN_1_LD_20_RN_7_RD_20_1.png","C_Dist_300_LN_1_LD_3_RN_19_RD_30_1.png","C_Dist_300_LN_1_LD_30_RN_8_RD_24_1.png","C_Dist_300_LN_1_LD_5_RN_11_RD_22_1.png","C_Dist_300_LN_1_LD_5_RN_3_RD_6_1.png","C_Dist_300_LN_1_LD_5_RN_6_RD_12_1.png","C_Dist_300_LN_2_LD_10_RN_12_RD_24_1.png","C_Dist_300_LN_2_LD_20_RN_10_RD_25_1.png","C_Dist_300_LN_3_LD_12_RN_11_RD_20_1.png","C_Dist_300_LN_3_LD_6_RN_4_RD_5_1.png","C_Dist_300_LN_4_LD_20_RN_13_RD_26_1.png","C_Dist_300_LN_5_LD_25_RN_6_RD_12_1.png","C_Dist_300_LN_5_LD_25_RN_7_RD_14_1.png","C_Dist_300_LN_7_LD_14_RN_20_RD_25_1.png","C_Dist_300_LN_8_LD_15_RN_10_RD_12_1.png"]],"dist300_I":[["I_Dist_300_LN_1_LD_2_RN_2_RD_10_0.png","I_Dist_300_LN_1_LD_2_RN_3_RD_15_0.png","I_Dist_300_LN_2_LD_4_RN_6_RD_30_0.png","I_Dist_300_LN_3_LD_6_RN_4_RD_20_0.png","I_Dist_300_LN_4_LD_5_RN_6_RD_12_0.png","I_Dist_300_LN_4_LD_5_RN_8_RD_16_0.png","I_Dist_300_LN_7_LD_10_RN_8_RD_20_0.png","I_Dist_300_LN_8_LD_10_RN_14_RD_28_0.png","I_Dist_300_LN_8_LD_10_RN_9_RD_18_0.png"],["I_Dist_300_LN_13_LD_26_RN_12_RD_15_1.png","I_Dist_300_LN_4_LD_20_RN_2_RD_4_1.png"]],"dist300_S":[["E_Dist_300_LN_9_LD_12_RN_9_RD_20_0.png"],["E_Dist_300_LN_18_LD_30_RN_18_RD_20_1.png","E_Dist_300_LN_3_LD_10_RN_3_RD_5_1.png","E_Dist_300_LN_9_LD_20_RN_9_RD_12_1.png"]],"dist500_C":[["C_Dist_500_LN_10_LD_13_RN_7_RD_26_0.png","C_Dist_500_LN_10_LD_15_RN_4_RD_24_0.png","C_Dist_500_LN_12_LD_16_RN_3_RD_12_0.png","C_Dist_500_LN_12_LD_18_RN_4_RD_24_0.png","C_Dist_500_LN_15_LD_18_RN_5_RD_15_0.png","C_Dist_500_LN_15_LD_20_RN_1_RD_4_0.png","C_Dist_500_LN_18_LD_27_RN_1_RD_6_0.png","C_Dist_500_LN_20_LD_24_RN_1_RD_3_0.png","C_Dist_500_LN_20_LD_24_RN_3_RD_9_0.png","C_Dist_500_LN_20_LD_24_RN_7_RD_21_0.png","C_Dist_500_LN_20_LD_28_RN_3_RD_14_0.png","C_Dist_500_LN_21_LD_28_RN_6_RD_24_0.png","C_Dist_500_LN_22_LD_28_RN_2_RD_7_0.png","C_Dist_500_LN_25_LD_30_RN_9_RD_27_0.png","C_Dist_500_LN_4_LD_6_RN_1_RD_6_0.png","C_Dist_500_LN_5_LD_6_RN_2_RD_6_0.png","C_Dist_500_LN_6_LD_9_RN_1_RD_6_0.png","C_Dist_500_LN_7_LD_10_RN_1_RD_5_0.png","C_Dist_500_LN_8_LD_12_RN_1_RD_6_0.png","C_Dist_500_LN_8_LD_12_RN_4_RD_24_0.png"],["C_Dist_500_LN_1_LD_4_RN_12_RD_16_1.png","C_Dist_500_LN_1_LD_4_RN_9_RD_12_1.png","C_Dist_500_LN_1_LD_9_RN_11_RD_18_1.png","C_Dist_500_LN_10_LD_24_RN_22_RD_24_1.png","C_Dist_500_LN_2_LD_12_RN_10_RD_15_1.png","C_Dist_500_LN_2_LD_12_RN_12_RD_18_1.png","C_Dist_500_LN_2_LD_12_RN_4_RD_6_1.png","C_Dist_500_LN_2_LD_24_RN_7_RD_12_1.png","C_Dist_500_LN_2_LD_5_RN_18_RD_20_1.png","C_Dist_500_LN_2_LD_5_RN_9_RD_10_1.png","C_Dist_500_LN_2_LD_8_RN_12_RD_16_1.png","C_Dist_500_LN_2_LD_8_RN_21_RD_28_1.png","C_Dist_500_LN_3_LD_10_RN_4_RD_5_1.png","C_Dist_500_LN_3_LD_12_RN_15_RD_20_1.png","C_Dist_500_LN_3_LD_30_RN_6_RD_10_1.png","C_Dist_500_LN_3_LD_8_RN_14_RD_16_1.png","C_Dist_500_LN_4_LD_16_RN_15_RD_20_1.png","C_Dist_500_LN_4_LD_24_RN_12_RD_18_1.png","C_Dist_500_LN_5_LD_14_RN_6_RD_7_1.png","C_Dist_500_LN_7_LD_21_RN_20_RD_24_1.png","C_Dist_500_LN_7_LD_28_RN_12_RD_16_1.png","C_Dist_500_LN_7_LD_28_RN_9_RD_12_1.png","C_Dist_500_LN_9_LD_27_RN_20_RD_24_1.png"]],"dist500_I":[["I_Dist_500_LN_2_LD_3_RN_4_RD_24_0.png","I_Dist_500_LN_5_LD_6_RN_6_RD_18_0.png","I_Dist_500_LN_7_LD_8_RN_9_RD_24_0.png"],["I_Dist_500_LN_7_LD_21_RN_5_RD_6_1.png"]],"dist500_S":[["E_Dist_500_LN_6_LD_8_RN_6_RD_24_0.png"],["E_Dist_500_LN_2_LD_12_RN_2_RD_3_1.png","E_Dist_500_LN_6_LD_24_RN_6_RD_8_1.png"]]}},{"start_time":1551880555378,"click_time":1551880557375,"finger_time":1551880557114,"fix_duration":442.2307536446798,"trial":1,"RT":1736,"MT":261,"sideResp":1,"stimulus":[],"xmouse":[784,784,784,784,784,784,784,784,784,784,784,784,784,784,784,784,784,784,784,784,784,784,784,784,784,784,784,784,784,784,784,784,784,784,784,784,784,784,784,784,784,784,784,784,784,784,784,784,784,784,784,784,784,784,784,784,784,784,784,784,784,784,784,784,784,784,784,784,784,784,784,784,784,784,784,784,784,784,784,784,784,784,785,784,778,767,741,696,595,496,424,379,359,347,347,347,348,357,390,435],"ymouse":[645,645,645,645,645,645,645,645,645,645,645,645,645,645,645,645,645,645,645,645,645,645,645,645,645,645,645,645,645,645,645,645,645,645,645,645,645,645,645,645,645,645,645,645,645,645,645,645,645,645,645,645,645,645,645,645,645,645,645,645,645,645,645,645,645,645,645,645,645,645,645,645,645,645,645,645,645,645,645,645,645,645,644,635,618,594,552,498,366,237,151,93,63,44,44,44,44,44,46,51],"timestamp_mouse":[17,37,57,78,96,117,136,156,176,197,217,237,257,277,297,318,337,356,377,397,416,438,457,477,496,518,537,557,576,598,616,636,658,677,696,716,738,756,776,796,817,836,857,878,896,916,937,956,977,997,1017,1036,1056,1076,1098,1118,1137,1158,1177,1196,1216,1236,1257,1276,1296,1318,1338,1358,1376,1398,1417,1436,1456,1478,1497,1516,1536,1557,1578,1598,1616,1637,1656,1677,1697,1717,1736,1756,1776,1797,1817,1837,1856,1877,1896,1917,1937,1956,1976,1996],"xSR":741.5,"ySR":573.95,"xT1":424.9,"yT1":0,"xT2":1058.1,"yT2":0,"toosoon":0,"cond_shown":"Congruent","ratio_trial":100,"L_num":15,"L_den":25,"R_num":13,"R_den":26,"correct_side":1,"subjID":"JulianDavidTapiasCedeño29","gender":"0","school":"6","age":"12"},{"start_time":1551880577486,"click_time":1551880579995,"finger_time":1551880579414,"fix_duration":250,"trial":2,"RT":1928,"MT":581,"sideResp":1,"stimulus":[],"xmouse":[811,811,811,811,811,811,811,811,811,811,811,811,811,811,811,811,811,811,811,811,811,811,811,811,811,811,811,811,811,811,811,811,811,811,811,811,811,811,811,811,811,811,811,811,811,811,811,811,811,811,811,811,811,810,810,810,810,810,810,810,810,810,810,810,810,809,807,804,792,787,783,781,781,781,781,781,781,781,781,781,781,781,781,780,780,780,780,780,780,780,780,780,780,780,780,776,769,755,720,712,708,705,698,658,642,623,606,586,554,543,531,520,512,509,509,509,509,508,507,506,504,500,498,496,493,490],"ymouse":[647,647,647,647,647,647,647,647,647,647,647,647,647,647,647,647,647,647,647,647,647,647,647,647,647,647,647,647,647,647,647,647,647,647,647,647,647,647,647,647,647,647,647,647,647,647,647,647,647,647,647,647,647,645,642,641,641,641,641,641,641,641,641,641,641,640,638,630,608,600,593,591,590,590,590,590,590,590,590,590,590,590,591,593,595,598,600,600,600,601,601,601,601,601,597,577,552,520,458,446,440,435,423,363,336,304,277,248,202,183,163,144,128,124,124,124,123,120,119,116,114,111,108,103,100,95],"timestamp_mouse":[8,29,50,70,88,109,129,150,169,188,210,228,248,270,289,309,330,350,368,389,410,428,449,468,488,509,528,549,568,588,609,629,648,670,688,708,729,749,769,788,808,829,849,869,889,910,929,949,969,989,1009,1028,1049,1068,1089,1110,1128,1149,1170,1188,1209,1229,1249,1270,1289,1308,1330,1348,1369,1389,1408,1428,1449,1470,1489,1509,1528,1549,1568,1590,1608,1630,1650,1668,1689,1709,1729,1748,1769,1788,1808,1828,1849,1870,1890,1909,1928,1948,1968,1988,2009,2029,2048,2068,2088,2108,2129,2149,2168,2188,2208,2228,2250,2269,2289,2308,2329,2349,2368,2388,2408,2428,2449,2468,2489,2509],"xSR":741.5,"ySR":573.95,"xT1":424.9,"yT1":0,"xT2":1058.1,"yT2":0,"toosoon":0,"cond_shown":"Congruent","ratio_trial":300,"L_num":11,"L_den":22,"R_num":4,"R_den":20,"correct_side":1,"subjID":"JulianDavidTapiasCedeño29","gender":"0","school":"6","age":"12"},{"start_time":1551880581606,"click_time":1551880584054,"finger_time":1551880583455,"fix_duration":650.4181062005665,"trial":3,"RT":1849,"MT":599,"sideResp":2,"stimulus":[],"xmouse":[779,779,779,780,780,780,780,780,780,780,780,780,780,780,780,780,780,780,780,780,780,780,780,780,780,780,780,780,780,780,780,780,780,780,780,780,780,780,780,780,780,781,781,781,781,781,781,781,781,781,781,781,781,781,781,781,781,781,781,781,781,781,781,781,781,781,781,781,781,781,781,781,781,781,781,782,783,788,791,792,792,792,792,792,792,792,792,794,803,813,820,822,823,825,829,837,848,907,962,1006,1087,1146,1271,1286,1290,1290,1287,1272,1243,1222,1208,1200,1192,1188,1185,1184,1180,1177,1175,1171,1169,1166,1158],"ymouse":[609,609,609,609,609,609,609,609,609,609,609,609,609,609,609,609,609,609,609,609,609,609,609,609,609,609,609,609,609,609,609,609,609,609,609,609,609,609,609,609,609,609,609,609,609,609,609,609,609,609,609,609,609,609,609,609,609,609,609,609,609,609,609,609,609,609,609,609,609,609,609,609,609,609,609,609,609,601,598,598,597,597,597,597,597,597,597,596,592,585,579,577,573,570,562,547,526,420,324,264,193,143,46,12,0,0,0,0,0,0,0,1,5,7,9,10,13,18,20,25,30,33,42],"timestamp_mouse":[9,28,48,68,90,109,129,149,169,190,208,229,249,270,290,308,329,348,368,389,410,429,449,469,489,510,529,549,568,589,610,630,648,669,690,709,730,748,769,789,809,829,848,868,890,908,928,948,968,988,1008,1029,1050,1069,1089,1109,1129,1150,1168,1188,1210,1229,1249,1269,1289,1309,1330,1348,1368,1388,1408,1430,1448,1468,1489,1508,1529,1548,1568,1589,1609,1629,1649,1668,1690,1710,1729,1748,1770,1789,1809,1828,1849,1868,1888,1908,1928,1948,1969,1989,2009,2028,2048,2068,2088,2109,2129,2149,2169,2188,2208,2229,2249,2268,2289,2308,2328,2349,2369,2388,2408,2428,2448],"xSR":741.5,"ySR":573.95,"xT1":424.9,"yT1":0,"xT2":1058.1,"yT2":0,"toosoon":0,"cond_shown":"Incongruent","ratio_trial":100,"L_num":6,"L_den":12,"R_num":3,"R_den":5,"correct_side":2,"subjID":"JulianDavidTapiasCedeño29","gender":"0","school":"6","age":"12"},{"start_time":1551880586892,"click_time":1551880588375,"finger_time":1551880588255,"fix_duration":1337.2365023585355,"trial":4,"RT":1363,"MT":120,"sideResp":1,"stimulus":[],"xmouse":[806,806,806,806,806,806,806,806,806,806,806,806,806,806,806,806,806,806,806,806,806,806,806,806,806,806,806,806,806,806,806,806,806,806,806,806,806,806,806,806,806,806,806,806,806,806,806,806,806,806,806,806,806,806,806,806,806,806,806,806,806,806,806,806,806,806,805,800,750,695,627,570,524,468,444],"ymouse":[658,658,658,658,658,658,658,658,658,658,658,658,658,658,658,658,658,658,658,658,658,658,658,658,658,658,658,658,658,658,658,658,658,658,658,658,658,658,658,658,658,658,658,658,658,658,658,658,658,658,658,658,658,658,658,659,660,660,660,660,660,660,660,660,660,660,659,643,550,478,385,302,234,135,91],"timestamp_mouse":[3,23,44,62,84,103,122,144,163,182,202,223,242,264,283,303,323,342,363,382,402,423,443,464,483,504,523,542,563,584,603,622,642,664,682,704,723,743,764,782,804,823,842,864,884,902,922,943,963,982,1002,1023,1044,1063,1082,1103,1124,1143,1163,1183,1204,1224,1243,1262,1284,1302,1323,1342,1363,1382,1403,1423,1443,1462,1482],"xSR":741.5,"ySR":573.95,"xT1":424.9,"yT1":0,"xT2":1058.1,"yT2":0,"toosoon":0,"cond_shown":"Congruent","ratio_trial":300,"L_num":24,"L_den":30,"R_num":8,"R_den":16,"correct_side":1,"subjID":"JulianDavidTapiasCedeño29","gender":"0","school":"6","age":"12"},{"start_time":1551880590898,"click_time":1551880592595,"finger_time":1551880592394,"fix_duration":682.1522707962525,"trial":5,"RT":1496,"MT":201,"sideResp":2,"stimulus":[],"xmouse":[793,793,793,793,793,793,793,793,793,793,793,793,793,793,793,793,793,793,793,793,793,793,793,793,793,793,793,793,793,793,793,793,793,793,793,793,793,793,793,793,793,793,793,793,793,793,793,793,793,793,793,793,793,793,793,793,793,793,793,793,793,793,793,793,793,793,793,793,793,797,798,803,825,837,848,862,881,928,952,979,1012,1045,1077,1079,1078],"ymouse":[630,630,630,630,630,630,630,630,630,630,630,630,630,630,630,630,630,630,630,630,630,630,630,630,630,630,630,630,630,630,630,630,630,630,630,630,630,630,630,630,630,630,630,630,630,630,630,630,630,630,630,630,630,630,630,630,630,630,630,630,630,630,630,630,630,630,630,630,630,628,627,621,599,581,559,533,492,408,365,318,257,196,135,112,97],"timestamp_mouse":[17,37,56,76,97,117,137,156,176,197,217,237,256,277,297,318,337,356,377,397,418,436,456,476,497,518,537,557,577,596,618,637,656,676,698,718,737,756,776,798,818,836,856,877,896,918,937,957,976,997,1017,1036,1056,1076,1098,1116,1136,1156,1176,1197,1217,1238,1256,1278,1297,1317,1337,1357,1377,1396,1417,1438,1456,1476,1496,1518,1537,1557,1576,1596,1616,1637,1657,1676,1696],"xSR":741.5,"ySR":573.95,"xT1":424.9,"yT1":0,"xT2":1058.1,"yT2":0,"toosoon":0,"cond_shown":"Congruent","ratio_trial":200,"L_num":13,"L_den":26,"R_num":14,"R_den":20,"correct_side":2,"subjID":"JulianDavidTapiasCedeño29","gender":"0","school":"6","age":"12"},{"start_time":1551880595646,"click_time":1551880597295,"finger_time":1551880596954,"fix_duration":1351.330065367551,"trial":6,"RT":1308,"MT":341,"sideResp":2,"stimulus":[],"xmouse":[804,804,804,804,804,804,804,804,804,804,804,804,804,804,804,804,804,804,804,804,804,804,804,804,804,804,804,804,804,804,804,804,804,804,804,804,804,804,804,804,804,804,804,804,804,804,804,804,804,804,804,804,804,804,804,804,804,804,804,804,804,805,808,818,834,918,1000,1058,1096,1100,1047,1032,1027,1026,1026,1028,1047,1054,1056,1056,1057,1058,1059],"ymouse":[641,641,641,641,641,641,641,641,641,641,641,641,641,641,641,641,641,641,641,641,641,641,641,641,641,641,641,641,641,641,641,641,641,641,641,641,641,641,641,641,641,641,641,641,641,641,641,641,641,641,641,641,641,641,641,641,641,641,641,641,641,640,638,633,620,530,401,307,226,177,65,37,28,26,26,25,23,22,20,20,20,20,20],"timestamp_mouse":[10,28,49,69,90,108,130,149,169,188,208,228,250,268,288,310,328,348,370,390,409,428,449,468,490,508,529,548,568,588,609,630,648,668,688,709,729,749,769,789,808,828,849,868,890,909,928,950,969,989,1009,1028,1048,1069,1088,1109,1129,1150,1169,1190,1208,1228,1248,1269,1288,1308,1328,1349,1368,1388,1408,1428,1448,1469,1489,1509,1529,1548,1569,1588,1609,1630,1649],"xSR":741.5,"ySR":573.95,"xT1":424.9,"yT1":0,"xT2":1058.1,"yT2":0,"toosoon":0,"cond_shown":"Incongruent","ratio_trial":300,"L_num":13,"L_den":26,"R_num":12,"R_den":15,"correct_side":2,"subjID":"JulianDavidTapiasCedeño29","gender":"0","school":"6","age":"12"},{"start_time":1551880598946,"click_time":1551880599936,"finger_time":1551880599595,"fix_duration":570.3130873978316,"trial":7,"RT":649,"MT":341,"sideResp":2,"stimulus":[],"xmouse":[790,790,790,790,790,790,790,790,790,791,794,796,797,797,799,800,800,800,800,800,800,800,800,800,800,800,800,800,802,804,810,841,860,877,896,942,968,989,1006,1018,1025,1029,1031,1033,1038,1044,1051,1054,1058,1060],"ymouse":[638,638,637,635,635,634,634,634,633,632,627,624,622,621,619,617,617,617,617,617,617,617,617,617,617,617,617,617,615,613,610,591,574,551,519,419,340,269,209,158,116,95,90,85,79,69,62,59,55,55],"timestamp_mouse":[9,28,48,69,90,109,129,150,168,188,208,228,248,269,289,309,330,349,368,388,410,430,448,468,488,510,529,549,568,590,608,628,649,668,688,708,729,749,768,790,808,828,848,869,888,908,928,948,969,990],"xSR":741.5,"ySR":573.95,"xT1":424.9,"yT1":0,"xT2":1058.1,"yT2":0,"toosoon":0,"cond_shown":"Incongruent","ratio_trial":300,"L_num":13,"L_den":26,"R_num":12,"R_den":15,"correct_side":2,"subjID":"JulianDavidTapiasCedeño29","gender":"0","school":"6","age":"12"},{"start_time":1551880601948,"click_time":1551880603355,"finger_time":1551880603195,"fix_duration":832.8909942503092,"trial":8,"RT":1247,"MT":160,"sideResp":2,"stimulus":[],"xmouse":[777,777,777,777,777,777,777,777,777,777,777,777,777,777,777,777,777,777,777,777,777,777,777,777,777,777,777,777,777,777,777,777,777,777,777,777,777,777,777,777,777,777,777,777,777,777,777,777,777,777,777,777,777,777,777,777,777,777,777,779,790,813,834,861,887,922,945,978,1012,1040,1069],"ymouse":[607,607,607,607,607,607,607,607,607,607,607,607,607,607,607,607,607,607,607,607,607,607,607,607,607,607,607,607,607,607,607,607,607,607,607,607,607,607,607,607,607,607,607,607,607,607,607,607,607,607,607,607,607,607,607,607,607,607,606,604,594,576,558,527,487,410,354,283,198,113,69],"timestamp_mouse":[7,27,46,68,86,106,127,147,166,187,206,228,246,268,287,307,327,347,367,387,408,426,447,467,488,508,526,547,567,588,607,627,647,668,686,708,728,746,766,787,806,826,847,868,886,907,928,948,966,987,1007,1026,1047,1068,1087,1106,1127,1147,1166,1187,1207,1226,1247,1268,1286,1306,1326,1346,1367,1388,1407],"xSR":741.5,"ySR":573.95,"xT1":424.9,"yT1":0,"xT2":1058.1,"yT2":0,"toosoon":0,"cond_shown":"Incongruent","ratio_trial":200,"L_num":7,"L_den":15,"R_num":4,"R_den":6,"correct_side":2,"subjID":"JulianDavidTapiasCedeño29","gender":"0","school":"6","age":"12"},{"start_time":1551880605615,"click_time":1551880607075,"finger_time":1551880606835,"fix_duration":898.2039323771769,"trial":9,"RT":1220,"MT":240,"sideResp":2,"stimulus":[],"xmouse":[784,784,784,784,784,784,784,784,784,784,784,784,784,784,784,784,784,784,784,784,784,784,784,784,784,784,784,784,784,784,784,784,784,784,784,784,784,784,784,784,784,784,784,784,784,784,784,784,784,784,784,784,784,784,784,784,784,784,784,789,795,811,828,831,840,865,900,975,1000,1014,1025,1037,1058,1070],"ymouse":[622,622,622,622,622,622,622,622,622,622,622,622,622,622,622,622,622,622,622,622,622,622,622,622,622,622,622,622,622,622,622,622,622,622,622,622,622,622,622,622,622,622,622,622,622,622,622,622,622,622,622,622,622,622,622,622,622,622,622,613,599,566,534,523,501,454,393,234,179,149,128,108,80,66],"timestamp_mouse":[0,20,40,61,80,101,121,140,161,181,200,221,240,260,280,300,320,341,361,380,401,421,440,461,480,500,521,540,561,581,601,620,640,661,681,700,720,740,760,781,800,820,841,861,880,901,921,940,961,981,1000,1021,1040,1060,1081,1101,1121,1139,1161,1180,1201,1220,1240,1260,1280,1300,1321,1340,1360,1380,1400,1420,1440,1460],"xSR":741.5,"ySR":573.95,"xT1":424.9,"yT1":0,"xT2":1058.1,"yT2":0,"toosoon":0,"cond_shown":"Congruent","ratio_trial":300,"L_num":2,"L_den":20,"R_num":10,"R_den":25,"correct_side":2,"subjID":"JulianDavidTapiasCedeño29","gender":"0","school":"6","age":"12"},{"start_time":1551880608466,"click_time":1551880610755,"finger_time":1551880610435,"fix_duration":431.39815992252807,"trial":10,"RT":1969,"MT":320,"sideResp":1,"stimulus":[],"xmouse":[818,818,818,818,818,818,818,818,818,818,818,818,818,818,818,818,818,818,818,818,818,818,818,818,818,818,818,818,818,818,818,818,818,818,818,818,818,818,818,818,818,818,818,818,818,818,818,818,818,818,818,818,818,818,818,818,818,818,818,818,818,818,818,818,818,818,818,818,818,818,818,818,818,818,818,818,818,818,818,818,818,818,818,820,820,822,824,827,829,830,830,830,830,830,830,830,818,786,742,639,609,592,578,567,553,545,534,519,511,508,506,503,499,495,492],"ymouse":[643,643,643,643,643,643,643,643,643,643,643,643,643,643,643,643,643,643,643,643,643,643,643,643,643,643,643,643,643,643,643,643,643,643,643,643,643,643,643,643,643,643,643,643,643,643,643,643,643,643,643,643,643,643,643,643,643,643,643,643,643,643,643,643,643,643,643,643,643,643,643,643,643,643,643,643,643,643,643,643,643,643,643,642,642,641,639,637,634,633,633,633,633,633,633,631,615,583,540,445,408,370,329,295,252,231,211,187,173,156,144,128,115,103,98],"timestamp_mouse":[10,29,49,69,89,109,129,149,169,190,209,229,249,269,289,309,329,349,369,389,410,429,449,469,489,509,529,549,569,589,609,629,650,669,689,709,729,749,771,789,810,829,849,869,889,909,929,948,970,990,1008,1029,1049,1069,1090,1110,1129,1149,1169,1189,1209,1230,1249,1270,1290,1309,1330,1349,1370,1389,1409,1429,1450,1469,1489,1510,1529,1549,1570,1589,1610,1630,1649,1670,1689,1709,1729,1750,1769,1789,1810,1829,1849,1869,1889,1910,1929,1949,1969,1989,2009,2030,2049,2069,2089,2109,2129,2149,2169,2190,2209,2230,2249,2270,2289],"xSR":741.5,"ySR":573.95,"xT1":424.9,"yT1":0,"xT2":1058.1,"yT2":0,"toosoon":0,"cond_shown":"Incongruent","ratio_trial":100,"L_num":3,"L_den":6,"R_num":4,"R_den":10,"correct_side":1,"subjID":"JulianDavidTapiasCedeño29","gender":"0","school":"6","age":"12"},{"start_time":1551880612487,"click_time":1551880613875,"finger_time":1551880613215,"fix_duration":831.8281824080585,"trial":11,"RT":728,"MT":660,"sideResp":2,"stimulus":[],"xmouse":[763,764,764,764,764,764,764,764,764,764,765,766,767,767,767,767,767,767,767,767,767,767,767,767,767,767,767,767,767,767,767,767,767,767,767,775,791,805,824,825,825,825,825,825,825,826,826,826,826,826,826,826,826,828,860,890,908,916,937,964,992,1022,1047,1071,1077,1078,1079,1080,1096,1101],"ymouse":[607,606,606,606,606,606,606,606,606,606,606,606,607,607,607,607,607,607,607,607,607,607,607,607,607,607,607,607,607,607,607,607,607,604,598,577,566,563,562,562,562,562,562,562,562,562,562,563,567,572,576,579,580,580,554,527,504,482,431,381,328,275,228,159,143,139,136,130,103,91],"timestamp_mouse":[9,28,49,68,89,108,129,148,168,188,208,229,248,268,288,308,327,349,368,388,408,429,449,468,488,509,529,549,568,588,608,628,648,668,689,708,728,748,768,789,808,828,848,868,889,908,929,948,968,988,1008,1028,1048,1068,1088,1108,1129,1148,1168,1188,1208,1228,1249,1268,1288,1308,1328,1348,1369,1388],"xSR":741.5,"ySR":573.95,"xT1":424.9,"yT1":0,"xT2":1058.1,"yT2":0,"toosoon":0,"cond_shown":"Incongruent","ratio_trial":200,"L_num":4,"L_den":30,"R_num":1,"R_den":3,"correct_side":2,"subjID":"JulianDavidTapiasCedeño29","gender":"0","school":"6","age":"12"},{"start_time":1551880618222,"click_time":1551880619416,"finger_time":1551880619256,"fix_duration":1266.2915932085534,"trial":12,"RT":1034,"MT":160,"sideResp":1,"stimulus":[],"xmouse":[795,795,795,795,795,795,795,795,796,796,797,797,797,797,797,797,797,797,797,797,797,797,797,797,797,797,797,797,797,797,797,797,797,797,797,797,797,797,797,797,797,797,797,796,795,794,791,790,789,787,783,753,717,661,591,524,462,449,447,445],"ymouse":[624,624,624,624,624,624,624,624,624,626,628,629,629,629,629,629,629,629,629,629,629,629,629,629,629,629,629,629,629,629,629,629,629,629,629,629,629,629,629,629,629,629,629,625,623,620,614,612,611,606,598,549,490,406,303,220,154,126,107,92],"timestamp_mouse":[12,33,53,74,94,113,133,153,173,193,213,234,254,273,293,313,333,353,374,393,414,433,454,473,493,513,533,553,573,594,613,633,654,674,694,713,734,754,773,793,813,833,853,873,893,914,933,953,973,994,1014,1034,1053,1073,1093,1113,1133,1153,1173,1194],"xSR":741.5,"ySR":573.95,"xT1":424.9,"yT1":0,"xT2":1058.1,"yT2":0,"toosoon":0,"cond_shown":"Incongruent","ratio_trial":300,"L_num":1,"L_den":2,"R_num":2,"R_den":10,"correct_side":1,"subjID":"JulianDavidTapiasCedeño29","gender":"0","school":"6","age":"12"},{"start_time":1551880622567,"click_time":1551880624515,"finger_time":1551880624155,"fix_duration":750.275442810107,"trial":13,"RT":1588,"MT":360,"sideResp":2,"stimulus":[],"xmouse":[823,823,823,823,823,823,823,823,823,823,823,823,823,823,823,823,823,823,823,823,823,823,823,823,823,823,823,823,823,823,823,823,823,823,823,823,823,823,823,823,823,823,823,823,823,823,823,823,823,823,823,823,823,823,823,823,823,823,823,823,823,823,823,823,823,823,823,823,823,823,823,823,823,823,823,823,823,823,832,862,910,945,971,990,1022,1029,1031,1031,1031,1034,1035,1036,1038,1041,1052,1058,1064,1069],"ymouse":[626,626,626,626,626,626,626,626,626,626,626,626,626,626,626,626,626,626,626,626,626,626,626,626,626,626,626,626,626,626,626,626,626,626,626,626,626,626,626,626,626,626,626,626,626,626,626,626,626,626,626,626,626,626,626,626,626,626,626,626,626,626,626,626,626,626,626,626,626,626,626,626,626,626,626,626,625,624,613,581,534,489,449,415,318,274,237,212,199,180,174,168,163,154,129,116,103,93],"timestamp_mouse":[8,28,48,68,88,109,128,148,168,188,208,228,249,268,288,308,328,349,368,388,409,428,448,469,489,508,528,549,569,588,608,629,649,668,689,708,728,749,768,788,809,829,850,868,888,909,928,949,968,988,1008,1028,1048,1068,1089,1109,1128,1148,1168,1189,1208,1228,1248,1268,1288,1308,1328,1347,1369,1389,1408,1428,1448,1468,1488,1509,1528,1548,1569,1588,1608,1629,1649,1668,1688,1708,1728,1748,1769,1788,1809,1828,1848,1868,1888,1908,1928,1948],"xSR":741.5,"ySR":573.95,"xT1":424.9,"yT1":0,"xT2":1058.1,"yT2":0,"toosoon":0,"cond_shown":"Congruent","ratio_trial":100,"L_num":11,"L_den":22,"R_num":4,"R_den":10,"correct_side":1,"subjID":"JulianDavidTapiasCedeño29","gender":"0","school":"6","age":"12"},{"start_time":1551880635285,"click_time":1551880636995,"finger_time":1551880636635,"fix_duration":509.96320067880686,"trial":14,"RT":1350,"MT":360,"sideResp":2,"stimulus":[],"xmouse":[777,777,777,777,777,777,777,777,777,777,777,777,777,777,777,777,777,777,777,777,777,777,777,777,777,777,777,777,777,777,777,777,777,777,777,777,777,778,780,781,781,781,781,781,781,781,781,781,781,781,781,781,781,781,781,781,781,781,781,781,781,781,781,781,781,784,827,881,977,1001,1015,1021,1026,1037,1040,1048,1056,1062,1072,1076,1080,1087,1094,1090,1079,1075],"ymouse":[615,615,615,615,615,615,615,615,615,615,615,615,615,615,615,615,615,615,615,615,615,615,615,615,615,615,615,615,615,615,615,615,615,615,615,615,615,615,615,615,615,615,615,615,615,615,615,615,615,615,615,615,615,615,615,615,615,615,615,615,615,615,615,615,615,615,590,552,484,463,446,430,411,367,344,314,297,283,258,246,230,210,181,129,107,93],"timestamp_mouse":[10,31,50,71,90,110,130,150,171,190,211,230,250,270,290,310,331,350,370,390,410,430,450,470,490,510,530,550,570,590,610,629,650,670,690,710,731,750,770,790,810,831,850,870,891,910,930,950,970,990,1011,1031,1050,1070,1091,1110,1131,1150,1170,1190,1210,1230,1250,1270,1290,1310,1330,1350,1370,1390,1411,1430,1450,1470,1490,1510,1530,1550,1570,1590,1610,1630,1651,1670,1690,1710],"xSR":741.5,"ySR":573.95,"xT1":424.9,"yT1":0,"xT2":1058.1,"yT2":0,"toosoon":0,"cond_shown":"Incongruent","ratio_trial":100,"L_num":12,"L_den":24,"R_num":9,"R_den":15,"correct_side":2,"subjID":"JulianDavidTapiasCedeño29","gender":"0","school":"6","age":"12"},{"start_time":1551880638891,"click_time":1551880640475,"finger_time":1551880640295,"fix_duration":915.3591323894698,"trial":15,"RT":1404,"MT":180,"sideResp":1,"stimulus":[],"xmouse":[761,761,761,761,761,761,761,761,761,761,761,761,761,761,761,761,761,761,761,761,761,761,762,762,762,762,762,762,762,762,762,762,762,762,762,762,762,762,762,762,762,762,762,764,765,766,767,770,770,770,770,770,770,770,770,770,770,770,770,770,770,770,770,770,770,770,770,770,770,762,729,670,577,451,443,438,436,436,436,436],"ymouse":[603,603,603,603,603,603,603,603,603,603,603,603,603,603,603,603,603,603,603,603,603,603,604,604,604,604,604,604,604,604,604,604,604,604,604,604,604,604,604,604,604,604,604,605,605,606,606,607,607,607,607,607,607,607,607,607,607,607,607,607,607,607,607,607,607,607,607,607,607,591,542,460,350,168,145,127,119,113,104,99],"timestamp_mouse":[4,25,45,64,85,105,125,145,164,184,205,224,244,265,284,304,325,344,364,384,404,424,445,465,484,504,524,544,565,584,605,624,644,665,685,704,724,744,764,784,804,824,844,865,884,904,924,945,963,984,1005,1024,1044,1065,1085,1103,1125,1144,1165,1185,1205,1225,1244,1265,1285,1304,1325,1345,1364,1384,1404,1424,1445,1464,1484,1504,1524,1544,1564,1584],"xSR":741.5,"ySR":573.95,"xT1":424.9,"yT1":0,"xT2":1058.1,"yT2":0,"toosoon":0,"cond_shown":"Congruent","ratio_trial":100,"L_num":2,"L_den":5,"R_num":6,"R_den":12,"correct_side":2,"subjID":"JulianDavidTapiasCedeño29","gender":"0","school":"6","age":"12"},{"start_time":1551880643620,"click_time":1551880645355,"finger_time":1551880645155,"fix_duration":1184.7492463478943,"trial":16,"RT":1535,"MT":200,"sideResp":2,"stimulus":[],"xmouse":[806,806,806,806,806,806,806,806,806,806,806,806,806,806,806,806,806,806,806,806,806,806,806,806,806,806,806,806,806,806,806,806,806,806,806,806,806,806,806,806,806,806,806,806,806,806,806,806,806,806,806,806,806,806,806,806,806,806,806,806,806,806,806,806,806,806,806,806,806,806,806,806,806,806,806,807,821,838,876,905,935,1020,1074,1116,1142,1147,1147],"ymouse":[580,580,580,580,580,580,580,580,580,580,580,580,580,580,580,580,580,580,580,580,580,580,580,580,580,580,580,580,580,580,580,580,580,580,580,580,580,580,580,580,580,580,580,580,580,580,580,580,580,580,580,580,580,580,580,580,580,580,580,580,580,580,580,580,580,580,580,580,580,580,580,580,580,580,579,577,558,540,505,477,442,349,280,210,149,108,57],"timestamp_mouse":[15,35,55,75,95,116,135,155,176,195,215,235,255,276,296,316,335,355,376,396,415,435,455,475,496,515,535,556,575,595,615,635,655,675,695,715,735,756,776,795,815,835,855,875,896,915,935,955,975,995,1015,1036,1055,1076,1095,1115,1135,1155,1175,1196,1215,1236,1255,1276,1295,1316,1334,1355,1376,1395,1416,1435,1455,1475,1495,1515,1535,1555,1575,1595,1615,1635,1655,1676,1695,1716,1735],"xSR":741.5,"ySR":573.95,"xT1":424.9,"yT1":0,"xT2":1058.1,"yT2":0,"toosoon":0,"cond_shown":"Incongruent","ratio_trial":200,"L_num":7,"L_den":15,"R_num":4,"R_den":6,"correct_side":2,"subjID":"JulianDavidTapiasCedeño29","gender":"0","school":"6","age":"12"},{"start_time":1551880651237,"click_time":1551880654395,"finger_time":1551880652854,"fix_duration":380.77177221257085,"trial":17,"RT":1617,"MT":1541,"sideResp":2,"stimulus":[],"xmouse":[785,785,785,785,785,785,785,785,785,785,785,785,785,785,785,785,785,785,785,785,785,785,785,785,785,785,785,785,785,785,785,785,785,785,785,785,785,785,785,785,785,785,785,785,785,785,785,785,785,785,785,785,785,785,785,785,785,785,786,787,788,788,788,789,789,790,790,790,791,792,796,798,799,803,806,811,813,816,820,829,885,949,1015,1057,1073,1076,1076,1076,1076,1076,1074,1071,1068,1067,1067,1066,1065,1064,1064,1064,1064,1064,1064,1063,1063,1063,1063,1063,1063,1063,1063,1063,1063,1063,1063,1063,1063,1063,1063,1063,1063,1063,1063,1063,1063,1063,1063,1063,1063,1063,1063,1063,1063,1063,1063,1061,1061,1061,1061,1061,1061,1061,1061,1061,1061,1065,1073,1084,1109,1120,1131,1131,1132,1134,1136,1143,1149,1157],"ymouse":[605,605,605,605,605,605,605,605,605,605,605,605,605,605,605,605,605,605,605,605,605,605,605,605,605,605,605,605,605,605,605,605,605,605,605,606,606,606,606,606,606,606,606,606,606,606,606,606,606,606,606,606,606,606,606,606,606,606,606,606,606,606,606,606,606,606,606,606,606,606,606,606,606,606,605,603,602,599,597,590,538,460,385,330,305,296,296,296,296,296,297,300,302,303,304,306,307,308,309,309,309,309,309,310,310,311,312,312,312,312,312,312,312,312,312,312,312,312,312,312,312,312,312,312,312,312,312,312,312,312,312,312,312,312,312,312,312,312,312,312,312,312,312,312,312,302,284,258,214,193,168,162,159,154,146,122,105,87],"timestamp_mouse":[18,39,58,78,98,118,138,158,178,198,218,239,259,278,298,318,338,358,378,399,419,439,459,478,498,519,538,558,578,598,618,639,658,678,698,718,738,759,778,799,818,839,859,878,898,919,939,958,978,998,1018,1038,1059,1079,1099,1118,1139,1158,1179,1198,1218,1239,1258,1278,1299,1318,1338,1358,1379,1398,1418,1438,1459,1478,1499,1518,1538,1558,1579,1598,1617,1638,1658,1678,1698,1719,1738,1758,1778,1798,1818,1838,1859,1878,1899,1918,1938,1958,1979,1998,2018,2038,2058,2077,2098,2118,2138,2158,2178,2198,2218,2239,2258,2278,2299,2318,2338,2359,2379,2399,2418,2439,2458,2478,2498,2518,2538,2558,2578,2598,2619,2638,2658,2678,2699,2719,2738,2758,2778,2798,2819,2838,2858,2878,2899,2918,2938,2958,2978,2998,3018,3037,3059,3078,3098,3118,3138,3158],"xSR":741.5,"ySR":573.95,"xT1":424.9,"yT1":0,"xT2":1058.1,"yT2":0,"toosoon":0,"cond_shown":"Congruent","ratio_trial":100,"L_num":4,"L_den":8,"R_num":6,"R_den":10,"correct_side":2,"subjID":"JulianDavidTapiasCedeño29","gender":"0","school":"6","age":"12"},{"start_time":1551880660930,"click_time":1551880663155,"finger_time":1551880663035,"fix_duration":1333.2437681978654,"trial":18,"RT":2105,"MT":120,"sideResp":1,"stimulus":[],"xmouse":[809,809,809,809,809,809,809,809,809,809,809,809,809,809,809,809,809,809,809,809,809,809,809,809,809,809,809,809,809,809,809,809,809,809,809,809,809,809,809,809,809,809,809,809,809,809,809,809,809,809,809,809,809,809,809,809,809,809,809,809,809,809,809,809,809,809,809,809,809,809,809,809,809,809,809,809,809,809,809,809,809,809,809,809,809,809,809,809,809,809,809,809,809,809,809,809,809,809,809,809,809,809,805,800,796,789,724,641,547,496,488,492],"ymouse":[644,643,643,643,643,643,643,643,643,643,643,643,643,643,643,643,643,643,643,643,643,643,643,643,643,643,643,643,643,643,643,643,643,643,643,643,643,643,643,643,643,643,643,643,643,643,643,643,643,643,643,643,643,643,643,643,643,643,643,643,643,643,643,643,643,643,643,643,643,643,643,643,643,643,643,643,643,643,643,643,643,643,643,643,643,643,643,643,643,643,643,643,643,643,643,643,643,643,641,640,634,615,603,587,577,564,496,425,341,255,164,84],"timestamp_mouse":[6,27,46,66,86,106,125,146,166,185,205,225,245,265,286,305,325,345,365,385,405,425,445,465,485,505,525,545,566,585,605,625,645,665,685,705,725,745,765,785,805,825,846,865,886,905,925,945,966,985,1005,1025,1045,1065,1085,1105,1125,1145,1166,1186,1205,1225,1246,1266,1285,1305,1325,1346,1366,1385,1406,1426,1446,1465,1485,1505,1525,1545,1566,1585,1606,1626,1645,1666,1686,1705,1725,1745,1766,1785,1805,1826,1846,1865,1886,1906,1925,1945,1965,1985,2005,2025,2045,2065,2085,2105,2125,2145,2165,2185,2205,2225],"xSR":741.5,"ySR":573.95,"xT1":424.9,"yT1":0,"xT2":1058.1,"yT2":0,"toosoon":0,"cond_shown":"Incongruent","ratio_trial":200,"L_num":6,"L_den":20,"R_num":3,"R_den":6,"correct_side":2,"subjID":"JulianDavidTapiasCedeño29","gender":"0","school":"6","age":"12"},{"start_time":1551880667240,"click_time":1551880669475,"finger_time":1551880668936,"fix_duration":943.3709601607214,"trial":19,"RT":1696,"MT":539,"sideResp":1,"stimulus":[],"xmouse":[773,773,773,773,773,773,773,773,773,773,773,773,773,773,773,773,773,773,773,773,773,773,773,773,773,773,773,773,773,773,773,773,773,773,773,773,773,773,773,773,773,773,773,773,773,773,773,773,773,773,773,773,773,773,773,773,773,773,773,773,773,773,773,773,773,773,773,773,773,773,773,773,773,773,773,773,773,773,773,773,773,773,767,758,629,514,396,310,273,263,256,256,256,262,274,286,298,315,348,366,377,377,377,377,377,382,389,392,394,401,422,427],"ymouse":[647,647,647,647,647,647,647,647,647,647,647,647,647,647,647,647,647,647,647,647,647,647,647,647,647,647,647,647,647,647,647,647,647,647,647,647,647,647,647,647,647,647,647,647,647,647,647,647,647,647,647,647,647,647,647,647,647,647,647,647,647,647,647,647,647,647,647,647,647,647,647,647,647,647,647,647,647,647,647,647,647,647,640,629,526,461,383,309,264,234,208,198,174,147,109,93,85,76,66,64,60,60,60,60,60,59,59,59,59,59,60,61],"timestamp_mouse":[16,36,56,75,96,115,135,156,175,195,215,235,255,276,295,315,335,355,375,395,415,435,455,476,495,515,535,555,576,595,615,635,655,675,695,716,735,755,775,796,815,835,856,876,895,915,935,956,975,995,1016,1035,1056,1075,1095,1115,1135,1156,1176,1195,1216,1235,1255,1276,1295,1315,1336,1355,1375,1396,1415,1435,1455,1475,1496,1516,1536,1555,1575,1595,1616,1636,1655,1675,1696,1715,1735,1756,1776,1795,1815,1835,1855,1876,1895,1915,1936,1955,1975,1995,2015,2035,2055,2075,2095,2115,2135,2155,2175,2195,2215,2235],"xSR":741.5,"ySR":573.95,"xT1":424.9,"yT1":0,"xT2":1058.1,"yT2":0,"toosoon":0,"cond_shown":"Congruent","ratio_trial":100,"L_num":4,"L_den":10,"R_num":15,"R_den":30,"correct_side":2,"subjID":"JulianDavidTapiasCedeño29","gender":"0","school":"6","age":"12"},{"start_time":1551880671300,"click_time":1551880672975,"finger_time":1551880672755,"fix_duration":484.6178540867183,"trial":20,"RT":1455,"MT":220,"sideResp":1,"stimulus":[],"xmouse":[810,810,810,810,810,810,810,810,810,810,810,810,810,810,810,810,810,810,810,810,810,810,810,810,810,810,810,810,810,810,810,810,810,810,810,810,810,810,810,810,810,810,810,810,810,810,810,810,810,810,810,810,810,810,810,810,810,810,810,810,810,810,810,810,810,810,810,810,810,810,810,807,783,759,729,697,646,578,554,541,535,532,522,513],"ymouse":[593,593,593,593,593,593,593,593,593,593,593,593,593,593,593,593,593,593,593,593,593,593,593,593,593,593,593,593,593,593,593,593,593,593,593,593,593,593,593,593,593,593,593,593,593,593,593,593,593,593,593,593,593,593,593,593,593,593,593,593,593,593,593,593,593,593,593,593,593,593,590,587,556,528,489,442,349,222,180,156,140,130,112,93],"timestamp_mouse":[16,35,55,76,95,115,136,156,175,196,216,235,255,276,296,316,336,356,376,395,415,435,455,476,495,516,535,556,575,596,616,636,655,676,696,715,736,756,775,796,815,835,855,875,896,915,936,955,976,996,1015,1035,1055,1076,1096,1115,1136,1155,1176,1196,1216,1236,1255,1275,1296,1315,1335,1355,1376,1398,1415,1435,1455,1475,1495,1515,1535,1556,1575,1595,1615,1636,1655,1675],"xSR":741.5,"ySR":573.95,"xT1":424.9,"yT1":0,"xT2":1058.1,"yT2":0,"toosoon":0,"cond_shown":"Congruent","ratio_trial":100,"L_num":11,"L_den":22,"R_num":4,"R_den":10,"correct_side":1,"subjID":"JulianDavidTapiasCedeño29","gender":"0","school":"6","age":"12"},{"start_time":1551880673985,"click_time":1551880675615,"finger_time":1551880675395,"fix_duration":250,"trial":21,"RT":1410,"MT":220,"sideResp":1,"stimulus":[],"xmouse":[800,800,800,800,803,804,805,807,807,807,808,809,809,809,809,809,809,809,809,809,809,809,810,810,810,810,810,810,810,810,810,810,810,810,810,810,810,810,810,810,810,810,810,810,810,810,810,810,810,810,810,810,810,810,810,810,810,810,810,810,810,810,809,808,807,805,803,796,773,763,756,745,731,698,680,657,637,613,580,556,538,520],"ymouse":[618,618,618,618,618,618,618,617,617,617,617,616,616,616,616,616,616,616,616,616,616,616,615,615,615,615,615,615,615,615,615,615,615,615,615,615,615,615,614,614,614,614,614,614,614,614,614,614,614,614,614,614,614,614,614,614,614,614,614,614,614,614,614,612,611,609,607,599,582,576,570,556,540,510,493,467,433,386,264,188,122,73],"timestamp_mouse":[11,30,51,70,90,111,130,150,170,190,210,231,250,270,291,310,331,350,370,390,410,430,451,470,491,511,530,551,571,590,611,630,650,671,690,710,730,750,770,790,810,830,851,871,890,910,931,951,970,990,1011,1031,1050,1070,1090,1110,1130,1151,1170,1190,1211,1230,1250,1270,1290,1311,1330,1350,1370,1390,1410,1430,1450,1470,1490,1510,1530,1550,1570,1590,1610,1630],"xSR":741.5,"ySR":573.95,"xT1":424.9,"yT1":0,"xT2":1058.1,"yT2":0,"toosoon":0,"cond_shown":"Incongruent","ratio_trial":100,"L_num":6,"L_den":10,"R_num":13,"R_den":26,"correct_side":1,"subjID":"JulianDavidTapiasCedeño29","gender":"0","school":"6","age":"12"},{"start_time":1551880677385,"click_time":1551880678915,"finger_time":1551880678656,"fix_duration":729.4319645752589,"trial":22,"RT":1271,"MT":259,"sideResp":1,"stimulus":[],"xmouse":[815,815,815,815,815,815,815,815,815,815,815,815,815,815,815,815,815,815,815,815,815,815,815,815,815,815,815,815,815,815,815,815,815,815,815,815,815,815,815,815,815,815,815,815,815,815,815,815,815,815,815,815,815,815,815,815,815,815,815,815,815,815,803,736,678,614,551,505,469,466,466,466,466,473,477,481,485],"ymouse":[621,621,621,621,621,621,621,621,621,621,621,621,621,621,621,621,621,621,621,621,621,621,621,621,621,621,621,621,621,621,621,621,621,621,621,621,621,621,621,621,621,621,621,621,621,621,621,621,621,621,621,621,621,621,621,621,621,621,621,621,617,612,581,498,431,356,281,213,153,146,144,144,142,123,114,104,95],"timestamp_mouse":[10,30,51,70,90,110,131,150,170,190,210,230,250,271,291,311,330,351,371,390,410,430,450,471,490,510,530,550,570,590,611,630,650,670,690,710,731,750,770,791,811,830,850,870,890,910,931,951,970,990,1010,1030,1050,1070,1090,1110,1130,1150,1171,1190,1210,1230,1250,1271,1290,1310,1330,1350,1370,1390,1410,1430,1450,1470,1490,1510,1530],"xSR":741.5,"ySR":573.95,"xT1":424.9,"yT1":0,"xT2":1058.1,"yT2":0,"toosoon":0,"cond_shown":"Incongruent","ratio_trial":100,"L_num":9,"L_den":15,"R_num":14,"R_den":28,"correct_side":1,"subjID":"JulianDavidTapiasCedeño29","gender":"0","school":"6","age":"12"},{"start_time":1551880680186,"click_time":1551880681335,"finger_time":1551880680875,"fix_duration":250,"trial":23,"RT":689,"MT":460,"sideResp":1,"stimulus":[],"xmouse":[812,812,812,812,812,812,812,812,812,812,812,812,812,812,812,812,812,812,812,812,812,812,812,812,812,812,812,812,812,812,812,812,812,805,791,775,766,762,758,751,751,751,751,751,751,751,751,751,749,739,712,659,599,517,503,494,487,481],"ymouse":[597,597,597,597,597,597,597,597,597,597,597,597,597,597,597,597,597,597,597,597,597,597,597,597,597,597,597,597,597,597,597,597,597,584,563,545,531,522,512,499,498,498,498,498,498,498,498,498,490,468,424,356,286,176,143,121,105,90],"timestamp_mouse":[9,30,50,70,89,109,129,149,169,190,209,229,249,269,290,310,329,349,370,390,410,430,450,469,489,509,529,549,570,589,609,629,649,670,689,710,729,749,769,790,809,829,849,869,889,909,929,949,968,990,1010,1030,1049,1069,1089,1109,1129,1149],"xSR":741.5,"ySR":573.95,"xT1":424.9,"yT1":0,"xT2":1058.1,"yT2":0,"toosoon":0,"cond_shown":"Incongruent","ratio_trial":200,"L_num":1,"L_den":2,"R_num":3,"R_den":10,"correct_side":1,"subjID":"JulianDavidTapiasCedeño29","gender":"0","school":"6","age":"12"},{"start_time":1551880682974,"click_time":1551880684715,"finger_time":1551880684335,"fix_duration":717.8126177664735,"trial":24,"RT":1361,"MT":380,"sideResp":2,"stimulus":[],"xmouse":[765,765,765,766,766,766,766,766,766,766,766,766,766,766,766,766,766,766,766,766,766,766,766,766,766,766,766,766,766,766,766,766,766,766,766,766,766,766,766,766,766,766,766,766,766,766,766,766,766,766,766,766,766,766,766,766,766,766,766,766,766,766,766,767,768,773,779,793,810,877,955,1004,1038,1070,1092,1093,1093,1093,1093,1088,1087,1086,1085,1085,1085,1085,1086,1090],"ymouse":[600,600,600,601,601,601,601,601,601,601,601,601,601,601,601,601,601,601,601,601,601,601,601,601,601,601,601,601,601,601,601,601,601,601,601,601,601,601,601,601,601,601,601,601,601,601,601,601,601,601,601,601,601,601,601,601,601,601,601,601,601,601,601,601,600,596,589,576,559,497,422,366,319,266,201,190,180,172,164,144,138,134,133,133,128,119,111,98],"timestamp_mouse":[4,21,41,61,81,103,122,141,161,182,202,221,242,262,282,302,322,342,361,382,402,421,442,462,481,501,522,541,562,581,601,622,642,661,681,702,721,742,761,781,802,821,841,862,881,902,922,941,962,981,1001,1022,1041,1061,1081,1102,1121,1141,1161,1182,1202,1221,1241,1261,1282,1301,1322,1341,1361,1381,1401,1421,1441,1461,1481,1501,1522,1541,1562,1582,1601,1621,1641,1661,1681,1701,1722,1741],"xSR":741.5,"ySR":573.95,"xT1":424.9,"yT1":0,"xT2":1058.1,"yT2":0,"toosoon":0,"cond_shown":"Congruent","ratio_trial":100,"L_num":4,"L_den":8,"R_num":6,"R_den":10,"correct_side":2,"subjID":"JulianDavidTapiasCedeño29","gender":"0","school":"6","age":"12"},{"start_time":1551880688383,"click_time":1551880689995,"finger_time":1551880689775,"fix_duration":1387.2958208191228,"trial":25,"RT":1392,"MT":220,"sideResp":1,"stimulus":[],"xmouse":[783,783,783,783,783,783,783,783,783,783,783,783,783,783,783,783,783,783,783,783,783,783,783,783,783,783,783,783,783,783,783,783,783,783,783,783,783,783,783,783,783,783,783,783,783,783,783,783,783,783,783,783,783,783,783,783,783,783,783,783,783,783,783,783,783,779,776,771,764,724,692,670,657,632,611,586,572,561,547,532,521],"ymouse":[617,617,617,617,617,617,617,617,617,617,617,617,617,617,617,617,617,617,617,617,617,617,617,617,617,617,617,617,617,617,617,617,617,617,617,617,617,617,617,617,617,617,617,617,617,617,617,617,617,617,617,617,617,617,617,617,617,617,617,617,617,617,617,617,617,615,609,602,589,503,440,392,348,238,199,165,145,129,107,86,77],"timestamp_mouse":[13,32,52,72,93,112,132,152,172,192,212,232,253,272,292,313,332,353,372,392,412,432,453,473,492,512,532,552,573,593,612,632,652,672,692,712,732,752,772,792,813,832,853,873,892,912,933,952,973,992,1012,1032,1052,1072,1092,1112,1132,1152,1173,1192,1212,1233,1252,1272,1292,1313,1332,1353,1372,1392,1413,1432,1452,1472,1492,1512,1532,1552,1572,1592,1612],"xSR":741.5,"ySR":573.95,"xT1":424.9,"yT1":0,"xT2":1058.1,"yT2":0,"toosoon":0,"cond_shown":"Congruent","ratio_trial":200,"L_num":16,"L_den":30,"R_num":9,"R_den":27,"correct_side":1,"subjID":"JulianDavidTapiasCedeño29","gender":"0","school":"6","age":"12"},{"start_time":1551880692393,"click_time":1551880694035,"finger_time":1551880693675,"fix_duration":1457.0462882365284,"trial":26,"RT":1282,"MT":360,"sideResp":2,"stimulus":[],"xmouse":[799,799,799,799,799,799,799,799,799,799,799,799,799,799,799,799,799,799,799,799,799,799,799,799,799,799,799,799,799,799,799,799,799,799,799,799,798,795,784,778,777,776,775,773,772,772,772,772,772,772,772,772,772,772,772,772,772,772,772,772,772,772,772,772,772,772,772,772,772,772,780,793,818,861,894,930,954,978,1006,1014,1033,1047,1060],"ymouse":[605,605,605,605,605,605,605,605,605,605,605,605,605,605,605,605,605,605,605,605,605,605,605,605,605,605,605,605,605,605,605,605,605,605,605,605,605,605,603,602,602,601,601,600,599,599,599,599,599,599,599,599,599,599,599,599,599,599,599,599,599,599,598,593,571,563,556,551,546,543,532,514,481,398,307,224,178,149,116,108,95,82,69],"timestamp_mouse":[4,23,42,63,82,102,123,143,162,182,203,222,243,262,282,303,323,342,362,383,403,423,442,462,482,502,523,542,562,583,603,622,642,662,682,702,722,742,762,782,802,822,842,862,882,902,922,942,963,983,1002,1022,1042,1062,1082,1103,1122,1142,1162,1181,1202,1222,1242,1262,1282,1302,1322,1343,1362,1382,1402,1423,1442,1463,1482,1502,1522,1543,1562,1582,1602,1623,1642],"xSR":741.5,"ySR":573.95,"xT1":424.9,"yT1":0,"xT2":1058.1,"yT2":0,"toosoon":0,"cond_shown":"Incongruent","ratio_trial":100,"L_num":6,"L_den":10,"R_num":7,"R_den":14,"correct_side":1,"subjID":"JulianDavidTapiasCedeño29","gender":"0","school":"6","age":"12"},{"start_time":1551880696096,"click_time":1551880697215,"finger_time":1551880696875,"fix_duration":819.4848818478022,"trial":27,"RT":779,"MT":340,"sideResp":2,"stimulus":[],"xmouse":[819,819,819,819,819,819,819,819,819,819,819,819,819,819,819,819,819,818,818,818,818,818,818,818,818,818,818,818,818,818,818,818,818,818,818,819,822,836,851,867,893,919,950,964,973,985,997,1019,1025,1025,1030,1034,1052,1060,1068,1069],"ymouse":[624,624,624,624,624,624,624,624,624,624,624,624,624,624,624,624,624,623,623,623,623,623,623,623,623,623,623,623,623,623,623,623,623,622,622,620,617,599,580,557,521,476,399,342,305,271,246,206,191,177,163,151,121,109,100,99],"timestamp_mouse":[19,39,60,79,100,119,139,160,179,199,220,239,259,279,300,319,339,360,380,399,419,439,459,480,499,519,539,559,579,599,619,639,660,680,699,719,739,760,779,799,819,839,859,879,899,919,939,959,979,999,1019,1039,1059,1079,1099,1119],"xSR":741.5,"ySR":573.95,"xT1":424.9,"yT1":0,"xT2":1058.1,"yT2":0,"toosoon":0,"cond_shown":"Incongruent","ratio_trial":300,"L_num":4,"L_den":20,"R_num":2,"R_den":4,"correct_side":2,"subjID":"JulianDavidTapiasCedeño29","gender":"0","school":"6","age":"12"},{"start_time":1551880698381,"click_time":1551880699595,"finger_time":1551880699376,"fix_duration":305.63097215468395,"trial":28,"RT":995,"MT":219,"sideResp":2,"stimulus":[],"xmouse":[825,825,825,825,825,825,825,825,825,825,825,825,825,825,825,825,825,825,825,825,825,825,825,825,825,825,825,825,825,825,825,825,825,825,825,825,826,826,826,826,826,826,826,826,826,826,827,827,834,848,863,880,899,941,962,984,1005,1035,1094,1116,1130],"ymouse":[592,592,592,592,592,592,592,592,592,592,592,592,592,592,592,592,592,592,592,592,592,592,592,592,592,592,592,592,592,591,590,590,590,590,590,590,589,589,589,589,589,589,589,589,589,589,589,589,585,575,563,550,530,463,421,375,319,266,169,126,90],"timestamp_mouse":[14,34,54,74,95,114,134,154,175,195,214,234,254,274,295,314,334,355,374,394,414,435,454,475,494,514,534,554,574,595,614,635,654,674,694,714,735,755,774,795,814,834,854,874,894,915,934,955,974,995,1014,1034,1054,1074,1094,1115,1134,1155,1174,1194,1214],"xSR":741.5,"ySR":573.95,"xT1":424.9,"yT1":0,"xT2":1058.1,"yT2":0,"toosoon":0,"cond_shown":"Incongruent","ratio_trial":100,"L_num":11,"L_den":22,"R_num":9,"R_den":15,"correct_side":2,"subjID":"JulianDavidTapiasCedeño29","gender":"0","school":"6","age":"12"},{"start_time":1551880702349,"click_time":1551880704515,"finger_time":1551880703655,"fix_duration":972.7174224829771,"trial":29,"RT":1306,"MT":860,"sideResp":1,"stimulus":[],"xmouse":[798,798,798,798,798,798,798,798,798,798,798,798,798,798,798,798,798,798,798,798,798,798,798,798,798,798,798,798,798,798,798,798,798,798,798,798,798,798,798,798,798,798,798,798,798,798,798,798,798,798,798,798,798,798,798,798,798,798,798,798,798,798,798,797,799,809,815,820,827,832,850,870,885,892,895,896,896,897,897,898,899,900,900,901,902,902,903,904,904,905,907,907,907,907,907,898,887,869,839,798,675,620,591,584,580,571,560,539,519],"ymouse":[593,593,593,593,593,593,593,593,593,593,593,593,593,593,593,593,593,593,593,593,593,593,593,593,593,593,593,593,593,593,593,593,593,593,593,593,593,593,593,593,593,593,593,593,593,593,593,593,593,593,593,593,593,593,593,593,593,593,593,593,593,593,593,589,581,550,537,526,517,511,497,485,474,467,462,460,459,459,459,458,456,455,455,454,453,452,451,449,448,446,440,436,434,432,429,420,410,395,371,335,244,195,158,141,129,107,94,79,68],"timestamp_mouse":[6,26,47,66,86,106,127,146,166,186,206,227,246,267,286,306,326,347,367,386,406,426,446,466,486,506,526,546,567,586,607,627,646,667,686,706,727,746,767,786,806,826,846,867,886,906,926,946,966,986,1006,1026,1046,1067,1086,1106,1126,1146,1166,1187,1206,1226,1246,1267,1286,1306,1326,1347,1366,1387,1406,1426,1446,1466,1486,1506,1526,1546,1567,1586,1606,1627,1646,1666,1686,1706,1726,1746,1766,1786,1806,1826,1846,1866,1886,1906,1926,1947,1966,1987,2006,2026,2046,2066,2086,2106,2126,2146,2166],"xSR":741.5,"ySR":573.95,"xT1":424.9,"yT1":0,"xT2":1058.1,"yT2":0,"toosoon":0,"cond_shown":"Congruent","ratio_trial":100,"L_num":1,"L_den":2,"R_num":3,"R_den":5,"correct_side":2,"subjID":"JulianDavidTapiasCedeño29","gender":"0","school":"6","age":"12"},{"start_time":1551880708519,"click_time":1551880710015,"finger_time":1551880709736,"fix_duration":1442.9670081733827,"trial":30,"RT":1217,"MT":279,"sideResp":2,"stimulus":[],"xmouse":[800,800,800,800,800,800,800,800,800,800,800,800,800,800,800,800,800,800,800,800,800,800,800,800,800,800,800,800,800,800,800,800,800,800,800,800,800,800,800,800,800,800,800,800,800,800,804,806,810,817,821,826,826,826,826,827,827,829,832,838,849,871,886,899,931,962,1008,1021,1028,1032,1035,1039,1047,1052,1059],"ymouse":[632,632,632,632,632,632,632,632,632,632,632,632,632,632,632,632,632,632,632,632,632,632,632,632,632,632,632,632,632,632,632,632,632,632,632,632,632,632,632,632,632,632,632,632,632,629,623,620,616,611,608,602,600,598,598,597,597,592,590,580,566,523,494,465,383,316,205,159,135,118,111,100,86,75,66],"timestamp_mouse":[16,36,57,76,96,117,136,156,176,196,216,236,256,276,296,316,336,356,377,396,417,436,456,477,496,516,536,557,576,596,617,637,656,676,696,716,736,757,776,796,817,837,856,876,897,916,936,956,976,996,1017,1036,1056,1077,1097,1116,1136,1156,1176,1196,1217,1237,1256,1276,1296,1316,1337,1356,1376,1396,1417,1437,1456,1476,1496],"xSR":741.5,"ySR":573.95,"xT1":424.9,"yT1":0,"xT2":1058.1,"yT2":0,"toosoon":0,"cond_shown":"Congruent","ratio_trial":100,"L_num":7,"L_den":14,"R_num":15,"R_den":25,"correct_side":2,"subjID":"JulianDavidTapiasCedeño29","gender":"0","school":"6","age":"12"},{"start_time":1551880711106,"click_time":1551880712495,"finger_time":1551880712355,"fix_duration":250,"trial":31,"RT":1249,"MT":140,"sideResp":2,"stimulus":[],"xmouse":[799,799,799,799,799,799,799,799,799,799,799,799,799,799,799,799,799,799,799,799,799,799,799,799,799,799,799,799,799,799,799,799,799,799,799,799,799,800,801,802,802,802,802,802,802,802,802,802,802,802,802,802,802,802,802,802,802,802,802,803,804,808,843,878,922,973,997,1049,1086,1125],"ymouse":[631,631,631,631,631,631,631,631,631,631,631,631,631,631,631,631,631,631,631,631,631,631,631,631,631,631,631,631,631,631,631,631,631,631,631,631,631,630,629,628,628,628,628,628,628,628,628,628,628,628,628,628,628,628,628,628,628,628,628,625,620,600,544,499,441,365,322,220,161,94],"timestamp_mouse":[10,30,50,69,89,110,129,150,169,189,209,229,250,269,289,309,329,350,369,390,409,429,449,469,489,510,529,549,569,590,609,629,649,669,689,709,730,750,769,789,809,829,850,869,890,909,929,949,969,990,1010,1030,1049,1069,1090,1109,1129,1149,1169,1190,1209,1229,1249,1269,1289,1310,1329,1349,1368,1389],"xSR":741.5,"ySR":573.95,"xT1":424.9,"yT1":0,"xT2":1058.1,"yT2":0,"toosoon":0,"cond_shown":"Congruent","ratio_trial":100,"L_num":7,"L_den":14,"R_num":9,"R_den":15,"correct_side":2,"subjID":"JulianDavidTapiasCedeño29","gender":"0","school":"6","age":"12"},{"start_time":1551880714748,"click_time":1551880716155,"finger_time":1551880715815,"fix_duration":412.4146247819197,"trial":32,"RT":1067,"MT":340,"sideResp":1,"stimulus":[],"xmouse":[799,799,799,799,799,799,799,799,799,799,799,799,799,799,799,799,799,799,799,799,799,799,800,800,800,800,800,800,800,800,800,800,800,800,800,800,800,800,800,800,800,800,800,800,800,800,800,800,800,800,797,791,783,767,739,695,689,683,679,672,661,650,642,629,611,572,558,547,537,526,514],"ymouse":[636,636,636,636,636,636,636,636,636,636,636,636,636,636,636,636,636,636,636,636,636,636,636,636,636,636,636,636,636,636,636,636,636,636,636,636,635,634,634,634,634,634,634,634,634,634,634,634,634,634,622,603,578,538,473,331,277,239,217,201,184,170,164,157,150,133,127,122,115,107,97],"timestamp_mouse":[7,27,47,67,87,107,127,147,167,187,207,227,247,267,287,307,327,348,368,387,407,427,447,469,487,507,527,547,567,588,607,626,647,667,687,707,728,747,767,788,808,827,847,868,888,908,927,947,967,987,1007,1027,1047,1067,1087,1107,1127,1147,1167,1187,1207,1227,1247,1269,1287,1308,1327,1348,1367,1388,1407],"xSR":741.5,"ySR":573.95,"xT1":424.9,"yT1":0,"xT2":1058.1,"yT2":0,"toosoon":0,"cond_shown":"Incongruent","ratio_trial":200,"L_num":4,"L_den":6,"R_num":14,"R_den":30,"correct_side":1,"subjID":"JulianDavidTapiasCedeño29","gender":"0","school":"6","age":"12"},{"start_time":1551880719391,"click_time":1551880721416,"finger_time":1551880720776,"fix_duration":1075.8683671878941,"trial":33,"RT":1385,"MT":640,"sideResp":1,"stimulus":[],"xmouse":[803,801,801,800,800,800,800,800,800,800,800,800,800,800,800,800,800,800,800,800,800,800,800,800,800,800,799,797,796,795,795,795,795,795,795,795,795,795,795,795,795,795,795,795,795,795,795,795,795,795,795,795,795,795,795,795,795,795,795,795,795,795,795,795,795,795,795,795,786,773,740,706,696,694,693,690,684,679,676,676,675,673,671,659,649,636,609,569,511,510,509,509,508,507,505,504,503,503,500,482,479,477],"ymouse":[625,627,628,629,629,629,629,629,629,629,629,629,629,629,629,629,629,629,629,629,629,629,629,629,629,629,629,629,628,627,625,625,625,624,624,624,624,624,624,624,623,623,623,623,623,623,623,623,623,623,623,623,623,623,623,623,623,623,623,623,623,623,623,623,623,622,621,617,591,560,502,455,434,423,417,411,403,394,386,379,374,366,357,330,311,290,258,226,183,183,181,179,175,164,158,153,153,149,141,107,100,97],"timestamp_mouse":[4,24,45,64,84,105,124,145,164,184,204,225,244,264,284,304,324,344,364,384,405,424,444,464,485,504,524,544,564,585,604,624,644,664,684,705,724,744,764,785,804,826,844,865,885,905,924,944,964,985,1004,1024,1044,1064,1084,1104,1124,1145,1164,1184,1204,1225,1244,1264,1284,1304,1324,1345,1364,1385,1404,1424,1444,1464,1484,1505,1524,1545,1564,1584,1604,1625,1644,1664,1684,1704,1724,1745,1764,1784,1804,1824,1844,1863,1884,1904,1924,1944,1964,1984,2004,2025],"xSR":741.5,"ySR":573.95,"xT1":424.9,"yT1":0,"xT2":1058.1,"yT2":0,"toosoon":0,"cond_shown":"Incongruent","ratio_trial":100,"L_num":3,"L_den":9,"R_num":7,"R_den":30,"correct_side":1,"subjID":"JulianDavidTapiasCedeño29","gender":"0","school":"6","age":"12"},{"start_time":1551880728887,"click_time":1551880730596,"finger_time":1551880730055,"fix_duration":250,"trial":34,"RT":1168,"MT":541,"sideResp":1,"stimulus":[],"xmouse":[813,813,813,813,812,812,812,812,812,812,812,812,812,812,812,812,812,812,812,811,811,811,811,811,811,811,811,811,811,810,810,810,810,810,809,809,809,809,809,809,808,808,808,807,807,806,806,806,806,806,806,806,807,807,808,808,808,808,804,799,791,785,783,782,782,774,753,721,653,614,579,562,555,549,549,549,548,545,531,528,522,515,513,511,510,510],"ymouse":[599,599,599,599,599,599,599,599,599,599,599,599,599,599,599,599,599,599,599,599,599,599,599,599,599,599,599,599,599,599,599,599,599,599,599,599,599,599,599,599,599,599,599,598,598,598,598,597,596,594,594,592,590,587,580,577,575,574,573,576,579,581,582,573,554,518,452,382,285,255,234,221,208,194,193,193,193,190,174,167,157,145,135,117,107,99],"timestamp_mouse":[9,28,49,68,89,108,128,149,168,188,210,228,248,268,289,308,328,348,368,388,408,430,449,468,488,508,528,549,568,589,608,628,648,668,688,708,728,750,769,789,809,829,849,868,889,908,930,948,968,988,1008,1028,1048,1068,1088,1108,1129,1148,1168,1188,1209,1228,1249,1268,1288,1309,1328,1348,1368,1388,1408,1428,1449,1468,1488,1508,1529,1549,1568,1588,1608,1628,1648,1668,1688,1709],"xSR":741.5,"ySR":573.95,"xT1":424.9,"yT1":0,"xT2":1058.1,"yT2":0,"toosoon":0,"cond_shown":"Congruent","ratio_trial":200,"L_num":16,"L_den":30,"R_num":9,"R_den":27,"correct_side":1,"subjID":"JulianDavidTapiasCedeño29","gender":"0","school":"6","age":"12"},{"start_time":1551880733978,"click_time":1551880735435,"finger_time":1551880734735,"fix_duration":1382.5852841046196,"trial":35,"RT":757,"MT":700,"sideResp":1,"stimulus":[],"xmouse":[806,806,806,806,806,806,806,806,805,805,805,805,805,805,805,805,805,805,805,805,806,807,809,811,811,811,812,812,816,817,817,817,817,817,815,813,811,808,806,806,805,805,805,803,800,795,785,776,759,752,740,730,722,685,668,649,629,608,574,567,567,566,566,563,560,557,554,550,545,530,527,525,522],"ymouse":[606,606,606,606,606,606,606,606,606,606,607,607,607,607,607,607,607,607,607,607,607,607,607,607,605,604,603,601,596,594,593,592,588,582,581,579,575,570,566,566,565,565,565,563,558,552,542,535,504,485,442,384,325,216,183,157,135,113,74,62,60,58,58,57,57,57,57,57,57,57,57,57,57],"timestamp_mouse":[19,37,57,77,98,117,137,157,177,197,217,238,258,277,297,317,337,357,377,398,418,437,457,478,498,517,537,557,577,597,617,637,657,678,697,717,737,757,777,798,817,837,858,877,897,919,937,958,977,997,1017,1037,1057,1077,1097,1118,1137,1157,1177,1197,1217,1237,1258,1277,1297,1318,1337,1357,1377,1398,1417,1437,1457],"xSR":741.5,"ySR":573.95,"xT1":424.9,"yT1":0,"xT2":1058.1,"yT2":0,"toosoon":0,"cond_shown":"Congruent","ratio_trial":300,"L_num":4,"L_den":10,"R_num":1,"R_den":10,"correct_side":1,"subjID":"JulianDavidTapiasCedeño29","gender":"0","school":"6","age":"12"},{"start_time":1551880740187,"click_time":1551880741755,"finger_time":1551880741515,"fix_duration":250,"trial":36,"RT":1328,"MT":240,"sideResp":2,"stimulus":[],"xmouse":[776,776,776,776,776,776,776,776,776,776,776,776,776,776,776,776,776,776,776,776,776,776,776,776,776,776,776,776,776,776,776,776,776,776,776,776,776,776,776,776,776,776,776,776,776,776,776,776,776,776,776,776,776,776,776,776,776,776,776,776,776,776,776,776,781,785,803,838,878,998,1037,1058,1068,1074,1075,1077,1079,1081,1083],"ymouse":[624,624,624,624,624,624,624,624,624,624,624,624,624,624,624,624,624,624,624,624,624,624,624,624,624,624,624,624,624,624,624,624,624,624,624,624,624,624,624,624,624,624,624,624,624,624,624,624,624,624,624,624,624,624,624,624,624,624,624,624,624,624,624,624,618,607,572,520,448,255,193,156,136,122,116,112,108,102,98],"timestamp_mouse":[8,28,49,68,88,109,128,149,168,188,208,229,248,268,288,308,328,348,368,388,410,428,448,469,488,508,528,548,569,588,608,629,649,668,688,708,728,748,768,788,808,828,848,868,888,908,928,949,969,988,1008,1029,1049,1069,1088,1109,1128,1148,1168,1189,1208,1228,1249,1269,1288,1308,1328,1348,1368,1389,1408,1429,1449,1468,1488,1508,1528,1549,1568],"xSR":741.5,"ySR":573.95,"xT1":424.9,"yT1":0,"xT2":1058.1,"yT2":0,"toosoon":0,"cond_shown":"Congruent","ratio_trial":200,"L_num":13,"L_den":26,"R_num":14,"R_den":20,"correct_side":2,"subjID":"JulianDavidTapiasCedeño29","gender":"0","school":"6","age":"12"},{"start_time":1551880743966,"click_time":1551880745435,"finger_time":1551880745216,"fix_duration":1250.1669213114428,"trial":37,"RT":1250,"MT":219,"sideResp":2,"stimulus":[],"xmouse":[815,815,815,815,815,815,815,815,815,815,815,815,815,815,815,815,815,815,815,815,815,815,815,815,815,815,815,815,815,815,815,815,815,815,815,815,815,815,815,815,815,815,815,815,815,815,815,815,815,815,815,815,815,815,815,817,817,818,819,820,828,837,848,862,925,951,971,982,999,1027,1046,1056,1066,1073],"ymouse":[616,616,616,616,616,616,616,616,616,616,616,616,616,616,616,616,616,616,616,616,616,616,616,616,616,616,616,616,616,616,616,616,616,616,616,616,616,616,616,616,616,616,616,616,616,616,616,616,616,616,616,616,616,616,616,615,615,613,613,612,606,601,592,581,492,437,391,353,294,198,156,132,110,92],"timestamp_mouse":[14,29,49,69,89,109,129,149,169,190,209,229,249,269,290,309,329,349,370,389,409,429,449,469,490,509,529,549,569,589,609,629,649,669,690,709,730,749,769,789,810,830,850,870,889,909,930,949,969,989,1009,1029,1049,1070,1089,1109,1130,1150,1170,1189,1209,1229,1250,1269,1289,1309,1329,1349,1369,1389,1409,1429,1449,1469],"xSR":741.5,"ySR":573.95,"xT1":424.9,"yT1":0,"xT2":1058.1,"yT2":0,"toosoon":0,"cond_shown":"Incongruent","ratio_trial":300,"L_num":13,"L_den":26,"R_num":12,"R_den":15,"correct_side":2,"subjID":"JulianDavidTapiasCedeño29","gender":"0","school":"6","age":"12"},{"start_time":1551880748699,"click_time":1551880750276,"finger_time":1551880749675,"fix_duration":623.9006972676568,"trial":38,"RT":976,"MT":601,"sideResp":2,"stimulus":[],"xmouse":[819,819,819,819,819,819,819,819,819,819,819,819,819,819,819,819,819,819,819,819,819,819,819,819,819,819,819,819,819,819,819,819,819,819,819,819,819,819,819,819,819,819,819,819,820,821,825,839,847,857,864,868,870,872,873,873,873,873,873,873,873,877,920,1044,1132,1199,1230,1244,1246,1248,1252,1254,1258,1257,1254,1248,1236,1188,1153],"ymouse":[635,635,635,635,635,635,635,635,635,635,635,635,635,635,635,635,635,635,635,635,635,635,635,635,635,635,635,635,635,635,635,635,635,635,635,635,635,635,635,635,635,635,635,635,634,633,628,607,592,575,561,552,547,542,538,535,534,533,533,533,532,529,498,399,314,216,144,83,69,54,36,18,0,0,0,0,0,7,17],"timestamp_mouse":[18,36,56,76,96,117,136,157,177,196,217,237,256,277,296,316,337,356,376,396,416,437,456,476,497,516,537,556,576,597,617,637,656,676,697,717,737,756,776,796,817,837,856,876,896,917,937,957,976,996,1016,1036,1056,1076,1096,1116,1136,1157,1176,1196,1216,1236,1256,1276,1296,1316,1336,1356,1376,1398,1416,1437,1456,1476,1496,1516,1536,1556,1576],"xSR":741.5,"ySR":573.95,"xT1":424.9,"yT1":0,"xT2":1058.1,"yT2":0,"toosoon":0,"cond_shown":"Incongruent","ratio_trial":300,"L_num":13,"L_den":26,"R_num":12,"R_den":15,"correct_side":2,"subjID":"JulianDavidTapiasCedeño29","gender":"0","school":"6","age":"12"},{"start_time":1551880752512,"click_time":1551880753955,"finger_time":1551880753535,"fix_duration":1054.6102613597793,"trial":39,"RT":1023,"MT":420,"sideResp":1,"stimulus":[],"xmouse":[785,785,785,785,785,785,785,785,785,785,785,785,785,785,785,785,785,785,785,785,785,785,785,785,785,785,784,782,782,781,780,780,780,780,780,780,780,780,780,780,780,780,780,780,780,780,779,777,775,773,770,768,759,750,745,740,723,659,618,600,596,592,588,587,587,585,582,577,572,562,548,531,497],"ymouse":[592,592,592,592,592,592,592,592,592,592,592,592,592,592,592,592,592,592,592,592,592,592,592,592,592,591,589,588,587,587,587,587,587,587,587,587,587,587,587,587,587,587,587,587,587,587,586,584,582,579,575,571,550,525,506,492,460,347,291,260,244,232,220,215,211,204,195,176,166,151,136,120,94],"timestamp_mouse":[4,24,44,64,83,104,124,143,163,183,203,225,244,263,283,303,323,343,364,383,404,423,443,464,483,503,524,543,563,583,603,623,643,663,684,703,723,743,764,783,803,824,843,863,883,903,924,944,963,983,1003,1023,1043,1063,1083,1103,1123,1144,1163,1183,1203,1224,1243,1264,1283,1303,1323,1343,1363,1385,1403,1423,1443],"xSR":741.5,"ySR":573.95,"xT1":424.9,"yT1":0,"xT2":1058.1,"yT2":0,"toosoon":0,"cond_shown":"Congruent","ratio_trial":300,"L_num":9,"L_den":10,"R_num":3,"R_den":5,"correct_side":1,"subjID":"JulianDavidTapiasCedeño29","gender":"0","school":"6","age":"12"},{"start_time":1551880756397,"click_time":1551880758956,"finger_time":1551880758715,"fix_duration":940.8971916909986,"trial":40,"RT":2318,"MT":241,"sideResp":2,"stimulus":[],"xmouse":[786,786,786,786,786,786,786,786,786,786,786,786,786,786,786,786,786,786,786,786,786,786,786,786,786,786,786,786,786,786,786,786,786,786,786,786,786,786,786,786,786,786,786,786,786,786,786,786,786,786,786,786,786,786,786,786,786,786,786,786,786,786,786,786,786,786,786,786,786,786,786,786,786,786,786,786,786,786,786,786,786,786,786,786,786,786,786,786,786,786,786,786,786,786,786,786,786,786,786,786,786,786,786,786,786,786,786,786,786,786,786,786,792,802,815,842,877,910,976,995,1005,1015,1031,1040,1047,1053,1057,1061],"ymouse":[645,645,645,645,645,645,645,645,645,645,645,645,645,645,645,645,645,645,645,645,645,645,645,645,645,645,645,645,645,645,645,645,645,645,645,645,645,645,645,645,645,645,645,645,645,645,645,645,645,645,645,645,645,645,645,645,645,645,645,645,645,645,645,645,645,645,645,645,645,645,645,645,645,645,645,645,645,645,645,645,645,645,645,645,645,645,645,645,645,645,645,645,645,645,645,645,644,643,643,642,641,640,638,637,637,637,637,637,637,637,637,637,629,616,593,546,482,414,237,196,174,147,122,116,108,102,96,89],"timestamp_mouse":[18,39,58,79,98,118,139,158,178,198,218,238,258,278,298,319,338,358,378,398,418,438,459,478,498,519,539,558,578,599,618,638,659,678,699,718,738,759,778,799,818,838,858,878,898,918,938,958,978,998,1018,1038,1058,1079,1098,1118,1139,1159,1178,1198,1219,1238,1260,1278,1298,1319,1339,1360,1379,1398,1419,1438,1459,1479,1498,1518,1538,1558,1579,1599,1618,1639,1659,1679,1698,1719,1738,1758,1779,1799,1819,1838,1858,1879,1898,1919,1938,1959,1978,1998,2019,2038,2059,2079,2100,2119,2138,2158,2179,2200,2218,2238,2259,2278,2298,2318,2338,2358,2378,2398,2418,2438,2458,2478,2499,2518,2538,2559],"xSR":741.5,"ySR":573.95,"xT1":424.9,"yT1":0,"xT2":1058.1,"yT2":0,"toosoon":0,"cond_shown":"Incongruent","ratio_trial":100,"L_num":8,"L_den":20,"R_num":1,"R_den":2,"correct_side":2,"subjID":"JulianDavidTapiasCedeño29","gender":"0","school":"6","age":"12"},{"start_time":1551880765486,"click_time":1551880767595,"finger_time":1551880767035,"fix_duration":748.5847636133335,"trial":41,"RT":1549,"MT":560,"sideResp":2,"stimulus":[],"xmouse":[788,788,788,788,788,788,788,788,788,788,788,788,788,788,788,788,788,788,788,788,788,788,788,788,788,788,788,788,788,788,788,788,788,788,788,788,788,788,788,788,788,788,788,788,788,788,788,788,788,788,788,788,788,788,788,788,788,788,788,788,788,788,788,788,788,788,788,788,788,788,788,788,788,788,788,788,788,684,684,684,684,684,684,684,686,692,696,702,720,762,836,930,1023,1158,1179,1182,1183,1183,1188,1193,1194,1194,1194,1194,1161,1141],"ymouse":[608,608,608,608,608,608,608,608,608,608,608,608,608,608,608,608,608,608,608,608,608,608,608,608,608,608,608,608,608,608,608,608,608,608,608,608,608,608,608,608,608,608,608,608,608,608,608,608,608,608,608,608,608,608,608,608,608,608,608,608,608,608,608,608,608,608,608,608,608,608,608,608,608,608,608,608,608,617,617,617,617,617,617,607,602,590,573,555,506,437,336,218,91,0,0,0,0,0,1,2,2,2,2,6,25,33],"timestamp_mouse":[9,30,50,70,90,109,129,150,169,189,209,229,250,269,289,309,330,349,370,389,409,429,449,469,489,509,529,549,569,589,609,629,649,670,690,709,730,749,770,789,809,830,850,869,889,909,929,949,969,989,1010,1029,1049,1069,1089,1109,1129,1149,1169,1189,1209,1229,1249,1269,1289,1310,1329,1349,1371,1389,1409,1430,1449,1469,1490,1509,1529,1549,1569,1589,1609,1629,1650,1669,1689,1709,1729,1749,1770,1789,1809,1829,1849,1869,1890,1909,1929,1950,1969,1989,2009,2029,2049,2069,2089,2109],"xSR":741.5,"ySR":573.95,"xT1":424.9,"yT1":0,"xT2":1058.1,"yT2":0,"toosoon":0,"cond_shown":"Incongruent","ratio_trial":200,"L_num":6,"L_den":20,"R_num":3,"R_den":6,"correct_side":2,"subjID":"JulianDavidTapiasCedeño29","gender":"0","school":"6","age":"12"},{"start_time":1551880768947,"click_time":1551880770656,"finger_time":1551880770275,"fix_duration":250,"trial":42,"RT":1328,"MT":381,"sideResp":1,"stimulus":[],"xmouse":[789,789,789,789,789,789,789,789,789,789,789,789,789,789,789,789,789,789,789,789,789,789,789,789,789,789,789,789,789,789,789,789,789,789,789,789,789,789,789,789,789,789,789,789,789,789,789,789,789,789,789,789,789,789,789,789,789,789,788,788,787,787,787,786,781,751,722,688,671,661,642,642,641,639,637,631,622,609,596,585,577,561,556,550,544,520],"ymouse":[652,652,651,651,651,650,650,650,650,650,650,650,650,650,650,650,650,650,650,650,650,650,650,650,650,650,650,650,650,650,650,650,650,650,650,650,650,650,650,650,650,650,650,650,650,650,650,650,650,650,650,650,650,650,650,650,650,650,649,649,649,649,649,649,643,591,540,462,392,327,166,143,128,122,121,120,116,106,95,86,81,71,68,66,60,53],"timestamp_mouse":[8,29,49,68,89,108,128,148,169,188,208,228,248,269,290,308,329,348,369,388,408,428,448,468,488,509,528,548,568,589,608,628,648,668,688,708,728,748,768,788,809,828,848,868,889,909,928,948,968,988,1008,1028,1048,1068,1089,1108,1128,1149,1169,1188,1208,1228,1248,1268,1288,1309,1328,1349,1368,1388,1408,1429,1448,1468,1488,1508,1528,1548,1568,1588,1608,1628,1648,1668,1688,1709],"xSR":741.5,"ySR":573.95,"xT1":424.9,"yT1":0,"xT2":1058.1,"yT2":0,"toosoon":0,"cond_shown":"Incongruent","ratio_trial":200,"L_num":3,"L_den":4,"R_num":11,"R_den":20,"correct_side":1,"subjID":"JulianDavidTapiasCedeño29","gender":"0","school":"6","age":"12"},{"start_time":1551880772400,"click_time":1551880774675,"finger_time":1551880774056,"fix_duration":863.0593794328173,"trial":43,"RT":1656,"MT":619,"sideResp":1,"stimulus":[],"xmouse":[779,779,779,779,779,779,779,779,779,779,779,779,779,779,779,779,779,779,779,779,779,779,779,779,779,779,779,779,779,779,779,779,779,779,779,779,779,779,779,779,779,779,779,779,779,779,779,779,779,779,779,779,779,779,779,779,779,779,779,779,779,779,779,779,779,777,775,768,766,765,765,765,765,765,765,765,765,765,765,762,758,745,708,686,668,657,649,641,636,634,633,632,631,629,628,627,625,619,614,608,599,588,556,543,532,520,513,505,505,505,505,505,508,509],"ymouse":[647,647,647,647,647,647,647,647,647,647,647,647,647,647,647,647,647,647,647,647,647,647,647,647,647,647,647,647,647,647,647,647,647,647,647,647,647,647,647,647,647,647,647,647,647,647,647,647,647,647,647,647,647,647,647,647,647,647,647,647,647,647,647,647,646,645,641,633,630,629,629,629,629,629,629,629,629,629,629,629,628,622,611,605,599,597,596,594,591,589,588,585,581,578,574,569,564,547,528,512,493,459,350,309,278,245,227,202,188,176,162,147,115,99],"timestamp_mouse":[15,35,55,75,95,115,135,155,176,196,215,235,255,275,296,315,335,355,375,395,416,436,455,475,495,515,536,555,576,595,615,635,656,675,695,715,735,755,777,795,815,835,855,875,896,915,935,955,975,995,1016,1035,1055,1075,1095,1115,1135,1155,1175,1195,1215,1236,1255,1276,1297,1315,1335,1355,1377,1395,1415,1435,1456,1476,1495,1515,1535,1555,1576,1595,1616,1635,1656,1675,1696,1715,1735,1755,1775,1795,1816,1835,1856,1875,1896,1915,1935,1955,1976,1995,2015,2035,2056,2075,2095,2115,2135,2156,2176,2195,2215,2235,2256,2275],"xSR":741.5,"ySR":573.95,"xT1":424.9,"yT1":0,"xT2":1058.1,"yT2":0,"toosoon":0,"cond_shown":"Incongruent","ratio_trial":300,"L_num":2,"L_den":4,"R_num":6,"R_den":30,"correct_side":1,"subjID":"JulianDavidTapiasCedeño29","gender":"0","school":"6","age":"12"},{"start_time":1551880778247,"click_time":1551880779855,"finger_time":1551880779376,"fix_duration":890.4420791774204,"trial":44,"RT":1129,"MT":479,"sideResp":1,"stimulus":[],"xmouse":[773,773,773,773,773,773,773,773,773,773,773,773,773,773,773,773,773,773,773,773,773,773,773,773,773,773,773,773,773,773,773,773,774,774,775,776,776,776,776,776,776,776,774,771,769,768,768,766,764,762,762,762,761,759,758,749,729,713,700,691,670,662,654,647,645,635,628,625,621,616,603,596,583,567,554,542,538,534,529,523,516],"ymouse":[622,622,622,622,622,622,622,622,622,622,622,622,622,622,622,622,622,622,622,622,622,622,622,622,622,622,622,622,622,622,622,622,620,619,619,616,615,613,611,609,607,605,604,602,602,602,602,602,602,602,602,602,602,600,596,579,554,535,518,504,470,453,437,418,399,345,301,275,251,231,206,199,192,185,177,165,154,145,133,119,90],"timestamp_mouse":[9,28,49,68,89,108,128,148,168,189,209,228,249,268,289,308,328,349,368,388,409,428,448,468,488,508,529,548,568,588,608,629,648,668,688,708,728,748,769,788,808,830,848,868,888,909,928,948,969,988,1008,1029,1050,1068,1088,1108,1129,1149,1168,1188,1209,1228,1248,1268,1290,1308,1328,1348,1368,1388,1409,1428,1448,1468,1489,1508,1528,1548,1568,1588,1608],"xSR":741.5,"ySR":573.95,"xT1":424.9,"yT1":0,"xT2":1058.1,"yT2":0,"toosoon":0,"cond_shown":"Incongruent","ratio_trial":300,"L_num":7,"L_den":10,"R_num":8,"R_den":20,"correct_side":1,"subjID":"JulianDavidTapiasCedeño29","gender":"0","school":"6","age":"12"},{"start_time":1551880781662,"click_time":1551880783335,"finger_time":1551880782916,"fix_duration":266.6207243695521,"trial":45,"RT":1254,"MT":419,"sideResp":1,"stimulus":[],"xmouse":[840,839,838,837,836,835,834,834,834,834,834,834,834,834,834,834,834,834,834,834,834,834,834,834,834,834,834,834,834,834,834,834,834,833,833,833,833,833,833,833,833,833,833,833,833,833,833,833,833,833,833,833,833,833,833,833,833,832,832,827,824,822,818,816,807,799,791,765,721,652,625,609,596,585,578,573,570,568,568,563,559,547,532,521],"ymouse":[649,649,649,649,649,649,649,649,649,649,649,649,649,649,649,649,649,649,649,649,649,649,649,649,649,649,649,649,649,649,649,649,649,649,649,649,649,649,649,649,649,649,649,649,649,649,649,649,649,649,649,649,649,649,649,649,649,647,643,617,601,582,562,540,486,461,434,382,314,216,177,155,134,119,106,100,96,94,93,93,93,93,93,92],"timestamp_mouse":[14,34,53,74,93,113,133,154,174,193,214,233,254,273,293,313,333,353,373,393,413,433,454,473,493,513,533,554,573,593,613,633,653,674,693,713,734,753,775,794,814,834,854,874,893,913,933,953,973,994,1013,1033,1053,1074,1093,1113,1133,1154,1173,1194,1213,1234,1254,1274,1293,1313,1333,1353,1373,1393,1413,1433,1453,1474,1493,1514,1534,1553,1573,1594,1613,1633,1653,1673],"xSR":741.5,"ySR":573.95,"xT1":424.9,"yT1":0,"xT2":1058.1,"yT2":0,"toosoon":0,"cond_shown":"Incongruent","ratio_trial":200,"L_num":3,"L_den":4,"R_num":11,"R_den":20,"correct_side":1,"subjID":"JulianDavidTapiasCedeño29","gender":"0","school":"6","age":"12"},{"start_time":1551880785718,"click_time":1551880787255,"finger_time":1551880786796,"fix_duration":1342.4365590712573,"trial":46,"RT":1078,"MT":459,"sideResp":1,"stimulus":[],"xmouse":[812,812,812,812,812,812,812,812,811,811,811,811,811,811,811,811,811,810,810,810,810,810,810,810,810,810,809,809,808,808,808,808,808,807,807,807,807,807,807,807,807,807,807,807,807,807,806,806,805,804,803,803,795,787,778,766,735,723,707,689,665,615,587,573,566,562,552,545,536,530,524,519,516,512,508,503,502],"ymouse":[619,619,619,619,619,619,619,619,619,619,619,619,619,619,619,619,619,619,619,619,619,619,619,619,619,619,619,619,619,619,619,619,619,619,619,619,619,619,619,619,619,619,619,619,619,618,618,615,612,606,600,588,576,560,539,504,390,339,294,253,222,184,164,153,145,141,130,124,120,117,116,115,115,114,110,102,96],"timestamp_mouse":[17,37,57,77,98,117,137,157,178,197,219,238,257,277,297,317,337,357,377,398,417,437,457,477,498,517,537,557,578,597,617,637,657,677,697,719,737,757,777,797,817,839,857,877,897,919,937,957,978,997,1017,1037,1058,1078,1097,1117,1138,1157,1178,1197,1217,1237,1258,1277,1297,1317,1337,1357,1378,1397,1418,1437,1457,1477,1497,1517,1537],"xSR":741.5,"ySR":573.95,"xT1":424.9,"yT1":0,"xT2":1058.1,"yT2":0,"toosoon":0,"cond_shown":"Congruent","ratio_trial":200,"L_num":8,"L_den":15,"R_num":7,"R_den":21,"correct_side":1,"subjID":"JulianDavidTapiasCedeño29","gender":"0","school":"6","age":"12"},{"start_time":1551880789303,"click_time":1551880790975,"finger_time":1551880790694,"fix_duration":1107.5326429843362,"trial":47,"RT":1391,"MT":281,"sideResp":2,"stimulus":[],"xmouse":[756,756,756,756,756,756,756,756,756,756,756,756,756,756,756,756,756,756,756,756,756,756,756,756,756,756,756,756,756,756,756,756,756,756,756,756,756,756,756,756,756,756,756,756,756,756,756,756,756,756,756,756,756,753,752,751,751,751,751,751,751,751,751,751,751,751,751,751,756,764,769,780,845,916,943,957,963,972,979,994,1008,1023,1051,1063],"ymouse":[613,613,613,613,613,613,613,613,613,613,613,613,613,613,613,613,613,613,613,613,613,613,613,613,613,613,613,613,613,613,613,613,613,613,613,613,613,613,613,613,613,613,612,611,611,611,611,611,611,611,611,610,607,596,592,591,591,591,591,591,591,591,591,591,591,591,591,590,578,555,526,488,352,254,219,197,184,166,160,156,147,136,99,83],"timestamp_mouse":[12,33,52,73,91,112,132,153,172,193,212,232,252,273,292,313,332,352,372,393,412,432,452,471,493,513,532,551,572,592,612,632,652,672,693,712,731,752,773,791,811,832,851,871,891,912,932,952,971,991,1012,1032,1051,1072,1091,1112,1132,1152,1172,1192,1213,1231,1251,1273,1292,1312,1332,1353,1372,1391,1411,1432,1452,1472,1491,1512,1531,1551,1572,1592,1612,1632,1651,1672],"xSR":741.5,"ySR":573.95,"xT1":424.9,"yT1":0,"xT2":1058.1,"yT2":0,"toosoon":0,"cond_shown":"Congruent","ratio_trial":300,"L_num":3,"L_den":6,"R_num":4,"R_den":5,"correct_side":2,"subjID":"JulianDavidTapiasCedeño29","gender":"0","school":"6","age":"12"},{"start_time":1551880793575,"click_time":1551880794955,"finger_time":1551880794554,"fix_duration":700.5417083132616,"trial":48,"RT":979,"MT":401,"sideResp":2,"stimulus":[],"xmouse":[792,792,792,792,792,792,792,792,792,792,792,792,792,792,792,792,792,792,792,792,792,792,792,792,792,792,792,792,792,792,792,792,792,792,792,793,794,796,796,796,796,796,797,797,799,802,807,815,845,881,935,967,993,1035,1044,1045,1043,1041,1037,1035,1034,1032,1031,1030,1030,1030,1033,1050,1088],"ymouse":[646,646,646,646,646,646,646,646,646,646,646,646,646,646,646,646,646,646,646,646,646,646,646,646,646,646,646,646,646,646,646,646,646,646,646,645,644,644,643,643,643,643,643,642,637,627,618,603,563,513,395,317,248,151,134,126,121,117,109,103,93,85,81,79,78,78,77,75,75],"timestamp_mouse":[20,40,60,80,100,120,140,160,180,200,220,240,260,279,299,321,340,361,381,400,421,439,460,480,501,520,540,560,580,601,619,641,660,680,700,719,741,759,780,800,820,841,859,880,899,920,940,960,979,999,1019,1041,1060,1081,1100,1120,1140,1159,1179,1199,1219,1240,1260,1280,1299,1320,1339,1359,1380],"xSR":741.5,"ySR":573.95,"xT1":424.9,"yT1":0,"xT2":1058.1,"yT2":0,"toosoon":0,"cond_shown":"Incongruent","ratio_trial":200,"L_num":11,"L_den":20,"R_num":3,"R_den":4,"correct_side":2,"subjID":"JulianDavidTapiasCedeño29","gender":"0","school":"6","age":"12"},{"start_time":1551880805073,"click_time":1551880806675,"finger_time":1551880806256,"fix_duration":596.8436531551652,"trial":49,"RT":1183,"MT":419,"sideResp":1,"stimulus":[],"xmouse":[769,769,769,769,769,769,769,769,769,769,769,769,769,769,769,769,769,769,769,769,769,769,769,769,769,769,769,769,769,769,769,769,769,769,769,769,769,769,769,769,769,769,769,769,769,769,769,769,769,769,769,769,769,769,769,769,769,769,769,752,723,686,652,628,606,595,587,576,566,540,526,521,520,520,517,511,503,494,487,484,479],"ymouse":[612,612,612,612,612,612,612,612,612,612,612,612,612,612,612,612,612,612,612,612,612,612,612,612,612,612,612,612,612,612,612,612,612,612,612,612,612,612,612,612,612,612,612,612,612,612,612,612,612,612,612,612,612,612,612,612,612,612,609,557,490,426,372,340,316,299,286,265,241,201,186,181,175,173,165,152,140,126,111,102,92],"timestamp_mouse":[3,24,41,61,82,101,122,142,161,182,202,221,242,263,282,302,323,341,363,383,402,423,442,461,483,503,523,543,562,583,602,622,643,661,682,702,723,743,761,783,802,822,842,861,882,902,923,942,961,983,1003,1021,1042,1063,1082,1102,1123,1142,1163,1183,1201,1221,1241,1262,1282,1302,1322,1343,1361,1383,1402,1423,1441,1462,1481,1501,1521,1543,1561,1581,1601],"xSR":741.5,"ySR":573.95,"xT1":424.9,"yT1":0,"xT2":1058.1,"yT2":0,"toosoon":0,"cond_shown":"Incongruent","ratio_trial":300,"L_num":4,"L_den":5,"R_num":6,"R_den":12,"correct_side":1,"subjID":"JulianDavidTapiasCedeño29","gender":"0","school":"6","age":"12"},{"start_time":1551880808491,"click_time":1551880809775,"finger_time":1551880809415,"fix_duration":435.78504551176223,"trial":50,"RT":924,"MT":360,"sideResp":2,"stimulus":[],"xmouse":[809,809,809,809,809,809,809,809,809,809,809,810,811,811,811,811,811,811,811,811,811,811,811,811,811,811,811,811,811,811,811,811,811,811,811,811,811,811,811,811,811,811,811,811,811,813,857,941,1148,1223,1249,1251,1251,1251,1251,1251,1251,1251,1243,1227,1206,1189,1179,1159,1155],"ymouse":[606,606,606,606,606,606,606,606,606,606,606,605,605,604,604,604,604,604,604,604,604,604,604,604,604,604,604,604,604,604,604,604,604,604,604,604,604,604,604,604,604,604,604,604,604,603,559,462,238,132,68,46,43,42,42,42,42,42,42,42,42,42,43,51,53],"timestamp_mouse":[5,26,44,65,85,105,125,144,164,184,204,223,244,264,283,304,323,345,364,384,405,423,443,465,483,503,524,545,563,585,604,623,643,664,684,703,725,743,764,784,804,824,844,864,884,903,924,943,965,984,1003,1024,1044,1065,1085,1103,1124,1144,1165,1183,1203,1223,1245,1264,1284],"xSR":741.5,"ySR":573.95,"xT1":424.9,"yT1":0,"xT2":1058.1,"yT2":0,"toosoon":0,"cond_shown":"Congruent","ratio_trial":200,"L_num":5,"L_den":10,"R_num":14,"R_den":20,"correct_side":2,"subjID":"JulianDavidTapiasCedeño29","gender":"0","school":"6","age":"12"},{"start_time":1551880821297,"click_time":1551880822915,"finger_time":1551880822354,"fix_duration":680.6230885910204,"trial":51,"RT":1057,"MT":561,"sideResp":2,"stimulus":[],"xmouse":[802,802,802,802,802,802,802,802,802,802,802,802,802,802,802,802,802,802,802,802,802,802,802,802,802,802,802,802,802,802,802,802,802,802,802,802,802,802,802,802,802,802,802,802,802,807,814,823,824,825,828,838,871,912,937,955,971,1005,1026,1044,1061,1076,1100,1108,1111,1111,1111,1111,1111,1111,1111,1111,1111,1111,1112,1114,1118,1121,1121,1121,1121],"ymouse":[634,634,634,634,634,634,634,634,634,634,634,634,634,634,634,634,634,634,634,634,634,634,634,634,634,634,634,634,634,634,634,634,634,634,634,634,634,634,634,634,634,634,634,633,629,620,608,596,595,593,589,576,527,457,412,379,350,294,263,242,222,202,158,140,133,133