[{"start_time":1551892576183,"click_time":1551892580887,"finger_time":1551892576192,"fix_duration":551.8161694397267,"trial":0,"RT":9,"MT":4695,"sideResp":2,"stimulus":"img/500/randomdotsizeEA/R/2_Ratio_500_L_3_R_6.png","xmouse":[793,793,794,796,799,799,799,799,799,799,799,799,799,799,799,799,799,799,799,799,799,799,799,795,791,773,765,759,757,757,757,757,757,757,757,757,757,757,761,762,762,762,762,762,762,762,762,762,762,762,762,762,762,762,762,762,762,762,762,762,762,762,762,762,762,762,762,762,762,762,762,762,762,762,762,762,762,762,762,762,762,762,762,762,762,765,771,775,781,787,791,798,799,800,800,800,800,800,800,800,800,800,800,800,800,800,800,800,800,800,800,800,800,800,800,800,800,800,800,800,800,800,800,800,800,800,800,800,800,800,800,800,800,800,800,800,800,800,800,800,800,800,800,800,800,800,800,800,800,800,800,800,800,800,800,800,800,800,800,800,800,800,800,800,800,800,800,800,800,800,802,806,810,817,823,839,843,846,846,846,846,844,835,826,808,786,781,779,779,779,779,788,809,850,871,881,882,882,882,874,862,826,810,799,796,796,796,800,805,819,854,867,878,885,900,925,946,983,1027,1077,1121,1199,1229,1243,1250,1250,1242,1237,1233,1228,1224,1210,1193,1188,1169,1158],"ymouse":[528,528,526,524,521,521,521,521,521,521,521,521,521,521,521,521,521,521,521,521,521,521,521,526,534,574,593,606,612,615,615,615,615,615,615,615,615,616,615,615,615,615,615,615,615,615,615,615,615,615,615,615,615,615,615,615,615,615,615,615,615,615,615,615,615,615,615,615,615,615,615,615,615,615,615,615,615,615,615,615,615,615,615,615,615,615,616,618,621,623,624,626,626,626,626,626,626,626,626,626,626,626,626,626,626,626,626,626,626,626,626,626,626,626,626,626,626,626,626,626,626,626,626,626,626,626,626,626,626,626,626,626,626,626,626,626,626,626,626,626,626,626,626,626,626,626,626,626,626,626,626,626,626,626,626,626,626,626,626,626,626,626,626,626,626,626,626,626,626,626,626,625,622,618,615,609,609,609,609,609,609,610,615,619,626,633,634,635,635,635,635,634,627,620,619,619,619,620,621,623,626,635,637,637,637,637,637,636,635,631,625,623,622,620,611,582,553,510,461,400,342,237,181,151,126,119,108,103,97,90,82,67,56,53,45,41],"timestamp_mouse":[9,23,43,63,83,103,124,144,163,184,203,223,243,263,283,304,323,344,363,384,404,424,443,464,483,504,524,543,563,583,603,623,643,663,684,703,723,743,763,783,803,824,844,863,883,903,924,944,965,985,1004,1024,1043,1063,1083,1103,1123,1143,1164,1185,1203,1223,1243,1263,1283,1303,1323,1343,1365,1383,1403,1424,1445,1463,1484,1503,1524,1543,1563,1583,1604,1624,1643,1663,1685,1705,1724,1743,1765,1783,1803,1823,1843,1863,1883,1903,1923,1943,1964,1983,2004,2024,2043,2064,2084,2103,2123,2145,2164,2184,2205,2223,2243,2265,2283,2304,2323,2344,2364,2385,2403,2423,2443,2464,2484,2504,2523,2543,2564,2584,2604,2624,2643,2665,2684,2703,2723,2744,2763,2785,2803,2824,2843,2863,2883,2903,2923,2944,2963,2984,3004,3023,3044,3064,3083,3103,3124,3144,3164,3184,3204,3223,3244,3265,3284,3304,3323,3343,3364,3385,3404,3423,3444,3463,3484,3505,3523,3545,3564,3583,3604,3624,3645,3663,3684,3705,3723,3743,3763,3785,3803,3824,3843,3863,3883,3903,3924,3944,3964,3985,4004,4023,4043,4063,4084,4103,4123,4143,4164,4183,4204,4223,4244,4263,4283,4304,4323,4344,4365,4383,4403,4423,4443,4463,4484,4503,4524,4543,4565,4585,4603,4623,4644,4663,4684,4704],"xSR":741.5,"ySR":458.25,"xT1":424.9,"yT1":0,"xT2":1058.1,"yT2":0,"toosoon":0,"cond_shown":"randomdotsizeEA","ratio_trial":500,"smaller_num":"3","larger_num":"6","correct_side":2,"subjID":"AnaSofiaGil9","gender":"1","age":"11","school":"6","test":{"fix_dur":[250,1500],"timestim":300,"targets_dim":[100,100],"targets_relative_coord":[0.3,0.7],"size_stim":[880,420],"start_dim":[100,100],"size_start":[300,300],"size_fix":60,"samplingrate":20,"img_types":["equaldotsize","equaldotanddens","randomdotsizeEA"],"ratios":[250,500,750,900],"rep_conds":9,"nTrials":120,"trials_to_rest":500,"Trials_order":[113,94,54,7,27,9,12,19,97,44,5,8,14,87,60,95,41,23,62,24,89,49,110,52,119,93,16,43,74,35,34,81,117,78,29,0,64,46,32,80,84,2,3,108,85,30,33,83,77,90,115,107,55,72,4,15,71,67,61,86,37,38,45,65,59,101,92,100,104,42,10,53,39,82,51,75,40,99,56,96,20,50,58,22,79,105,116,21,98,68,36,57,47,114,112,6,25,13,109,11,102,28,63,106,91,103,17,69,48,66,118,88,31,26,1,18,70,76,73,111],"cond_shown":["randomdotsizeEA","equaldotanddens","equaldotsize","equaldotanddens","equaldotsize","equaldotsize","equaldotsize","equaldotanddens","equaldotanddens","randomdotsizeEA","randomdotsizeEA","randomdotsizeEA","randomdotsizeEA","equaldotsize","equaldotsize","randomdotsizeEA","randomdotsizeEA","randomdotsizeEA","randomdotsizeEA","equaldotsize","randomdotsizeEA","equaldotanddens","randomdotsizeEA","equaldotanddens","randomdotsizeEA","equaldotsize","equaldotanddens","equaldotanddens","randomdotsizeEA","randomdotsizeEA","equaldotanddens","equaldotsize","equaldotsize","equaldotsize","randomdotsizeEA","equaldotsize","equaldotanddens","equaldotanddens","randomdotsizeEA","randomdotsizeEA","equaldotsize","randomdotsizeEA","equaldotsize","equaldotsize","equaldotanddens","equaldotsize","equaldotsize","randomdotsizeEA","randomdotsizeEA","equaldotsize","equaldotanddens","randomdotsizeEA","equaldotanddens","equaldotsize","equaldotanddens","equaldotsize","randomdotsizeEA","equaldotanddens","equaldotanddens","randomdotsizeEA","equaldotanddens","randomdotsizeEA","equaldotsize","randomdotsizeEA","randomdotsizeEA","randomdotsizeEA","randomdotsizeEA","equaldotanddens","randomdotsizeEA","equaldotsize","equaldotanddens","randomdotsizeEA","equaldotsize","equaldotanddens","equaldotsize","equaldotsize","equaldotanddens","equaldotsize","randomdotsizeEA","equaldotsize","randomdotsizeEA","randomdotsizeEA","equaldotanddens","equaldotanddens","equaldotanddens","equaldotsize","randomdotsizeEA","equaldotsize","randomdotsizeEA","randomdotsizeEA","equaldotsize","equaldotsize","randomdotsizeEA","equaldotsize","equaldotanddens","equaldotsize","equaldotanddens","equaldotanddens","equaldotanddens","randomdotsizeEA","equaldotsize","equaldotanddens","equaldotsize","equaldotanddens","equaldotanddens","equaldotanddens","randomdotsizeEA","equaldotsize","equaldotsize","equaldotsize","equaldotanddens","equaldotanddens","equaldotanddens","randomdotsizeEA","equaldotanddens","equaldotsize","equaldotanddens","equaldotanddens","equaldotanddens","equaldotsize"],"ratio_trial":[500,900,750,750,500,900,250,750,250,750,500,750,250,500,250,900,500,900,250,250,500,250,250,500,900,900,500,750,250,900,900,900,900,750,500,250,500,900,750,750,250,250,500,250,250,750,900,900,500,750,750,900,750,250,500,500,900,750,250,250,250,250,900,500,900,500,750,500,750,750,900,500,500,900,500,500,500,500,750,250,750,250,900,900,750,900,750,900,250,750,250,900,900,750,500,750,250,250,250,900,750,500,500,900,750,750,500,900,250,750,900,500,750,250,250,750,900,500,250,500],"smaller_num":["3","18","12","6","2","18","3","15","3","3","2","15","6","6","3","9","2","9","3","3","1","1","2","2","18","18","6","15","2","18","18","18","9","3","6","3","5","18","6","15","2","3","9","3","3","18","18","9","1","3","3","18","3","4","6","10","18","3","4","4","6","4","18","9","18","1","6","2","15","6","18","1","6","18","1","5","6","9","6","3","3","3","18","18","12","18","15","9","3","6","6","18","18","3","9","15","2","3","3","18","9","1","9","9","3","6","6","18","6","3","9","2","6","3","6","15","18","4","3","4"],"larger_num":["6","20","16","8","4","20","12","20","12","4","4","20","24","12","12","10","4","10","12","12","2","4","8","4","20","20","12","20","8","20","20","20","10","4","12","12","10","20","8","20","8","12","18","12","12","24","20","10","2","4","4","20","4","16","12","20","20","4","16","16","24","16","20","18","20","2","8","4","20","8","20","2","12","20","2","10","12","18","8","12","4","12","20","20","16","20","20","10","12","8","24","20","20","4","18","20","8","12","12","20","12","2","18","10","4","8","12","20","24","4","10","4","8","12","24","20","20","8","12","8"],"correct_side":[2,1,2,1,2,2,2,2,1,1,1,2,1,1,2,2,2,2,1,2,2,2,1,2,1,1,1,1,2,1,2,2,2,1,1,2,1,1,1,1,1,2,2,2,1,1,1,2,2,1,1,2,1,2,1,2,1,1,1,2,1,1,2,1,2,2,1,1,1,1,1,2,1,1,2,1,1,1,2,2,1,2,2,2,2,2,2,2,2,1,1,1,2,1,1,1,1,2,1,2,2,2,2,2,2,1,1,1,1,1,2,1,2,1,2,1,1,1,2,1],"img_shown":["img/500/randomdotsizeEA/R/2_Ratio_500_L_3_R_6.png","img/900/equaldotanddens/L/8_Ratio_900_L_20_R_18.png","img/750/equaldotsize/R/11_Ratio_750_L_12_R_16.png","img/750/equaldotanddens/L/13_Ratio_750_L_8_R_6.png","img/500/equaldotsize/R/9_Ratio_500_L_2_R_4.png","img/900/equaldotsize/R/11_Ratio_900_L_18_R_20.png","img/250/equaldotsize/R/4_Ratio_250_L_3_R_12.png","img/750/equaldotanddens/R/4_Ratio_750_L_15_R_20.png","img/250/equaldotanddens/L/14_Ratio_250_L_12_R_3.png","img/750/randomdotsizeEA/L/8_Ratio_750_L_4_R_3.png","img/500/randomdotsizeEA/L/5_Ratio_500_L_4_R_2.png","img/750/randomdotsizeEA/R/4_Ratio_750_L_15_R_20.png","img/250/randomdotsizeEA/L/5_Ratio_250_L_24_R_6.png","img/500/equaldotsize/L/13_Ratio_500_L_12_R_6.png","img/250/equaldotsize/R/4_Ratio_250_L_3_R_12.png","img/900/randomdotsizeEA/R/3_Ratio_900_L_9_R_10.png","img/500/randomdotsizeEA/R/9_Ratio_500_L_2_R_4.png","img/900/randomdotsizeEA/R/6_Ratio_900_L_9_R_10.png","img/250/randomdotsizeEA/L/15_Ratio_250_L_12_R_3.png","img/250/equaldotsize/R/4_Ratio_250_L_3_R_12.png","img/500/randomdotsizeEA/R/15_Ratio_500_L_1_R_2.png","img/250/equaldotanddens/R/8_Ratio_250_L_1_R_4.png","img/250/randomdotsizeEA/L/3_Ratio_250_L_8_R_2.png","img/500/equaldotanddens/R/9_Ratio_500_L_2_R_4.png","img/900/randomdotsizeEA/L/8_Ratio_900_L_20_R_18.png","img/900/equaldotsize/L/10_Ratio_900_L_20_R_18.png","img/500/equaldotanddens/L/13_Ratio_500_L_12_R_6.png","img/750/equaldotanddens/L/1_Ratio_750_L_20_R_15.png","img/250/randomdotsizeEA/R/13_Ratio_250_L_2_R_8.png","img/900/randomdotsizeEA/L/8_Ratio_900_L_20_R_18.png","img/900/equaldotanddens/R/9_Ratio_900_L_18_R_20.png","img/900/equaldotsize/R/11_Ratio_900_L_18_R_20.png","img/900/equaldotsize/R/5_Ratio_900_L_9_R_10.png","img/750/equaldotsize/L/10_Ratio_750_L_4_R_3.png","img/500/randomdotsizeEA/L/13_Ratio_500_L_12_R_6.png","img/250/equaldotsize/R/4_Ratio_250_L_3_R_12.png","img/500/equaldotanddens/L/7_Ratio_500_L_10_R_5.png","img/900/equaldotanddens/L/10_Ratio_900_L_20_R_18.png","img/750/randomdotsizeEA/L/14_Ratio_750_L_8_R_6.png","img/750/randomdotsizeEA/L/1_Ratio_750_L_20_R_15.png","img/250/equaldotsize/L/3_Ratio_250_L_8_R_2.png","img/250/randomdotsizeEA/R/11_Ratio_250_L_3_R_12.png","img/500/equaldotsize/R/1_Ratio_500_L_9_R_18.png","img/250/equaldotsize/R/11_Ratio_250_L_3_R_12.png","img/250/equaldotanddens/L/15_Ratio_250_L_12_R_3.png","img/750/equaldotsize/L/6_Ratio_750_L_24_R_18.png","img/900/equaldotsize/L/10_Ratio_900_L_20_R_18.png","img/900/randomdotsizeEA/R/7_Ratio_900_L_9_R_10.png","img/500/randomdotsizeEA/R/15_Ratio_500_L_1_R_2.png","img/750/equaldotsize/L/9_Ratio_750_L_4_R_3.png","img/750/equaldotanddens/L/8_Ratio_750_L_4_R_3.png","img/900/randomdotsizeEA/R/13_Ratio_900_L_18_R_20.png","img/750/equaldotanddens/L/8_Ratio_750_L_4_R_3.png","img/250/equaldotsize/R/10_Ratio_250_L_4_R_16.png","img/500/equaldotanddens/L/13_Ratio_500_L_12_R_6.png","img/500/equaldotsize/R/3_Ratio_500_L_10_R_20.png","img/900/randomdotsizeEA/L/4_Ratio_900_L_20_R_18.png","img/750/equaldotanddens/L/9_Ratio_750_L_4_R_3.png","img/250/equaldotanddens/L/2_Ratio_250_L_16_R_4.png","img/250/randomdotsizeEA/R/10_Ratio_250_L_4_R_16.png","img/250/equaldotanddens/L/5_Ratio_250_L_24_R_6.png","img/250/randomdotsizeEA/L/2_Ratio_250_L_16_R_4.png","img/900/equaldotsize/R/11_Ratio_900_L_18_R_20.png","img/500/randomdotsizeEA/L/4_Ratio_500_L_18_R_9.png","img/900/randomdotsizeEA/R/12_Ratio_900_L_18_R_20.png","img/500/randomdotsizeEA/R/15_Ratio_500_L_1_R_2.png","img/750/randomdotsizeEA/L/13_Ratio_750_L_8_R_6.png","img/500/equaldotanddens/L/10_Ratio_500_L_4_R_2.png","img/750/randomdotsizeEA/L/1_Ratio_750_L_20_R_15.png","img/750/equaldotsize/L/14_Ratio_750_L_8_R_6.png","img/900/equaldotanddens/L/4_Ratio_900_L_20_R_18.png","img/500/randomdotsizeEA/R/15_Ratio_500_L_1_R_2.png","img/500/equaldotsize/L/13_Ratio_500_L_12_R_6.png","img/900/equaldotanddens/L/4_Ratio_900_L_20_R_18.png","img/500/equaldotsize/R/15_Ratio_500_L_1_R_2.png","img/500/equaldotsize/L/7_Ratio_500_L_10_R_5.png","img/500/equaldotanddens/L/11_Ratio_500_L_12_R_6.png","img/500/equaldotsize/L/4_Ratio_500_L_18_R_9.png","img/750/randomdotsizeEA/R/2_Ratio_750_L_6_R_8.png","img/250/equaldotsize/R/9_Ratio_250_L_3_R_12.png","img/750/randomdotsizeEA/L/8_Ratio_750_L_4_R_3.png","img/250/randomdotsizeEA/R/4_Ratio_250_L_3_R_12.png","img/900/equaldotanddens/R/9_Ratio_900_L_18_R_20.png","img/900/equaldotanddens/R/14_Ratio_900_L_18_R_20.png","img/750/equaldotanddens/R/11_Ratio_750_L_12_R_16.png","img/900/equaldotsize/R/14_Ratio_900_L_18_R_20.png","img/750/randomdotsizeEA/R/3_Ratio_750_L_15_R_20.png","img/900/equaldotsize/R/15_Ratio_900_L_9_R_10.png","img/250/randomdotsizeEA/R/9_Ratio_250_L_3_R_12.png","img/750/randomdotsizeEA/L/14_Ratio_750_L_8_R_6.png","img/250/equaldotsize/L/5_Ratio_250_L_24_R_6.png","img/900/equaldotsize/L/8_Ratio_900_L_20_R_18.png","img/900/randomdotsizeEA/R/13_Ratio_900_L_18_R_20.png","img/750/equaldotsize/L/8_Ratio_750_L_4_R_3.png","img/500/equaldotanddens/L/4_Ratio_500_L_18_R_9.png","img/750/equaldotsize/L/1_Ratio_750_L_20_R_15.png","img/250/equaldotanddens/L/1_Ratio_250_L_8_R_2.png","img/250/equaldotanddens/R/11_Ratio_250_L_3_R_12.png","img/250/equaldotanddens/L/15_Ratio_250_L_12_R_3.png","img/900/randomdotsizeEA/R/13_Ratio_900_L_18_R_20.png","img/750/equaldotsize/R/15_Ratio_750_L_9_R_12.png","img/500/equaldotanddens/R/12_Ratio_500_L_1_R_2.png","img/500/equaldotsize/R/1_Ratio_500_L_9_R_18.png","img/900/equaldotanddens/R/7_Ratio_900_L_9_R_10.png","img/750/equaldotanddens/R/12_Ratio_750_L_3_R_4.png","img/750/equaldotanddens/L/13_Ratio_750_L_8_R_6.png","img/500/randomdotsizeEA/L/11_Ratio_500_L_12_R_6.png","img/900/equaldotsize/L/2_Ratio_900_L_20_R_18.png","img/250/equaldotsize/L/5_Ratio_250_L_24_R_6.png","img/750/equaldotsize/L/10_Ratio_750_L_4_R_3.png","img/900/equaldotanddens/R/15_Ratio_900_L_9_R_10.png","img/500/equaldotanddens/L/5_Ratio_500_L_4_R_2.png","img/750/equaldotanddens/R/2_Ratio_750_L_6_R_8.png","img/250/randomdotsizeEA/L/14_Ratio_250_L_12_R_3.png","img/250/equaldotanddens/R/6_Ratio_250_L_6_R_24.png","img/750/equaldotsize/L/1_Ratio_750_L_20_R_15.png","img/900/equaldotanddens/L/8_Ratio_900_L_20_R_18.png","img/500/equaldotanddens/L/8_Ratio_500_L_8_R_4.png","img/250/equaldotanddens/R/9_Ratio_250_L_3_R_12.png","img/500/equaldotsize/L/8_Ratio_500_L_8_R_4.png"],"Rat0":[["12_Ratio_0_L_9_R_0.png","13_Ratio_0_L_6_R_0.png","5_Ratio_0_L_2_R_0.png","6_Ratio_0_L_4_R_0.png","8_Ratio_0_L_6_R_0.png"],["1_Ratio_0_L_0_R_17.png","10_Ratio_0_L_0_R_22.png","11_Ratio_0_L_0_R_1.png","14_Ratio_0_L_0_R_24.png","15_Ratio_0_L_0_R_4.png","2_Ratio_0_L_0_R_5.png","3_Ratio_0_L_0_R_17.png","4_Ratio_0_L_0_R_7.png","7_Ratio_0_L_0_R_19.png","9_Ratio_0_L_0_R_15.png"]],"Rat250":[["1_Ratio_250_L_8_R_2.png","14_Ratio_250_L_12_R_3.png","15_Ratio_250_L_12_R_3.png","2_Ratio_250_L_16_R_4.png","3_Ratio_250_L_8_R_2.png","5_Ratio_250_L_24_R_6.png","7_Ratio_250_L_8_R_2.png"],["10_Ratio_250_L_4_R_16.png","11_Ratio_250_L_3_R_12.png","12_Ratio_250_L_5_R_20.png","13_Ratio_250_L_2_R_8.png","4_Ratio_250_L_3_R_12.png","6_Ratio_250_L_6_R_24.png","8_Ratio_250_L_1_R_4.png","9_Ratio_250_L_3_R_12.png"]],"Rat500":[["10_Ratio_500_L_4_R_2.png","11_Ratio_500_L_12_R_6.png","13_Ratio_500_L_12_R_6.png","4_Ratio_500_L_18_R_9.png","5_Ratio_500_L_4_R_2.png","7_Ratio_500_L_10_R_5.png","8_Ratio_500_L_8_R_4.png"],["1_Ratio_500_L_9_R_18.png","12_Ratio_500_L_1_R_2.png","14_Ratio_500_L_5_R_10.png","15_Ratio_500_L_1_R_2.png","2_Ratio_500_L_3_R_6.png","3_Ratio_500_L_10_R_20.png","6_Ratio_500_L_9_R_18.png","9_Ratio_500_L_2_R_4.png"]],"Rat750":[["1_Ratio_750_L_20_R_15.png","10_Ratio_750_L_4_R_3.png","13_Ratio_750_L_8_R_6.png","14_Ratio_750_L_8_R_6.png","6_Ratio_750_L_24_R_18.png","8_Ratio_750_L_4_R_3.png","9_Ratio_750_L_4_R_3.png"],["11_Ratio_750_L_12_R_16.png","12_Ratio_750_L_3_R_4.png","15_Ratio_750_L_9_R_12.png","2_Ratio_750_L_6_R_8.png","3_Ratio_750_L_15_R_20.png","4_Ratio_750_L_15_R_20.png","5_Ratio_750_L_15_R_20.png","7_Ratio_750_L_3_R_4.png"]],"Rat900":[["1_Ratio_900_L_10_R_9.png","10_Ratio_900_L_20_R_18.png","2_Ratio_900_L_20_R_18.png","4_Ratio_900_L_20_R_18.png","8_Ratio_900_L_20_R_18.png"],["11_Ratio_900_L_18_R_20.png","12_Ratio_900_L_18_R_20.png","13_Ratio_900_L_18_R_20.png","14_Ratio_900_L_18_R_20.png","15_Ratio_900_L_9_R_10.png","3_Ratio_900_L_9_R_10.png","5_Ratio_900_L_9_R_10.png","6_Ratio_900_L_9_R_10.png","7_Ratio_900_L_9_R_10.png","9_Ratio_900_L_18_R_20.png"]],"Rat1000":[["10_Ratio_1000_L_16_R_16.png","11_Ratio_1000_L_6_R_6.png","12_Ratio_1000_L_14_R_14.png","13_Ratio_1000_L_20_R_20.png","15_Ratio_1000_L_15_R_15.png","2_Ratio_1000_L_17_R_17.png","4_Ratio_1000_L_9_R_9.png","5_Ratio_1000_L_6_R_6.png","6_Ratio_1000_L_19_R_19.png","8_Ratio_1000_L_14_R_14.png","9_Ratio_1000_L_25_R_25.png"],["1_Ratio_1000_L_1_R_1.png","14_Ratio_1000_L_17_R_17.png","3_Ratio_1000_L_17_R_17.png","7_Ratio_1000_L_6_R_6.png"]]}},{"start_time":1551892582158,"click_time":1551892583387,"finger_time":1551892583007,"fix_duration":250,"trial":1,"RT":849,"MT":380,"sideResp":1,"stimulus":"img/900/equaldotanddens/L/8_Ratio_900_L_20_R_18.png","xmouse":[783,784,784,784,784,784,784,784,784,784,784,784,784,784,784,784,784,784,784,784,784,784,784,784,784,784,784,784,784,784,784,784,784,784,784,784,784,784,784,784,774,762,707,673,633,586,559,553,551,551,552,555,555,555,555,553,550,545,541,537,532,514],"ymouse":[630,630,630,630,630,630,630,630,630,630,630,630,630,630,630,630,630,630,630,630,630,630,630,630,630,630,630,630,630,630,630,630,630,630,630,630,630,630,630,630,626,620,573,514,447,367,296,270,241,210,182,160,108,75,67,56,53,54,57,58,59,60],"timestamp_mouse":[9,36,48,69,88,108,128,150,169,188,210,230,248,268,288,308,328,348,370,390,408,428,448,468,488,508,528,549,570,588,608,628,648,669,688,708,728,749,768,789,808,830,849,869,888,908,930,948,968,989,1008,1029,1049,1070,1088,1110,1129,1148,1168,1189,1209,1228],"xSR":741.5,"ySR":573.95,"xT1":424.9,"yT1":0,"xT2":1058.1,"yT2":0,"toosoon":0,"cond_shown":"equaldotanddens","ratio_trial":900,"smaller_num":"18","larger_num":"20","correct_side":1,"subjID":"AnaSofiaGil9","gender":"1","age":"11","school":"6"},{"start_time":1551892586537,"click_time":1551892587506,"finger_time":1551892587167,"fix_duration":989.2334937353215,"trial":2,"RT":630,"MT":339,"sideResp":2,"stimulus":"img/750/equaldotsize/R/11_Ratio_750_L_12_R_16.png","xmouse":[809,809,809,809,809,809,809,809,809,809,809,809,809,809,809,809,809,809,809,809,809,809,809,809,809,809,809,809,809,820,840,855,858,858,860,866,871,924,964,1007,1044,1072,1089,1114,1122,1129,1132,1133,1134],"ymouse":[650,650,650,650,650,650,650,650,650,650,650,650,650,650,650,650,650,650,650,650,650,650,650,650,650,650,650,650,650,649,649,650,650,650,650,648,644,585,535,474,420,367,322,233,193,151,131,114,83],"timestamp_mouse":[10,31,50,71,89,109,129,150,169,189,210,230,250,269,291,310,330,349,369,391,409,430,450,469,489,509,529,549,571,590,610,630,649,670,690,709,730,749,769,791,810,830,849,869,889,909,930,949,969],"xSR":741.5,"ySR":573.95,"xT1":424.9,"yT1":0,"xT2":1058.1,"yT2":0,"toosoon":0,"cond_shown":"equaldotsize","ratio_trial":750,"smaller_num":"12","larger_num":"16","correct_side":2,"subjID":"AnaSofiaGil9","gender":"1","age":"11","school":"6"},{"start_time":1551892588508,"click_time":1551892589387,"finger_time":1551892589107,"fix_duration":360.84857858934004,"trial":3,"RT":599,"MT":280,"sideResp":1,"stimulus":"img/750/equaldotanddens/L/13_Ratio_750_L_8_R_6.png","xmouse":[786,786,786,786,786,786,786,786,786,786,786,786,786,786,786,786,786,786,786,786,786,786,786,786,786,786,786,784,777,725,686,642,605,575,546,536,529,526,528,535,535,535,527,514],"ymouse":[599,599,599,599,599,599,599,599,599,599,599,599,599,599,599,599,599,599,599,599,599,599,599,599,599,599,599,599,592,494,420,337,259,208,138,110,83,44,27,11,10,10,12,18],"timestamp_mouse":[33,39,58,78,98,118,139,160,180,198,219,238,258,278,299,320,339,359,380,399,419,440,458,478,499,519,538,560,578,599,619,638,658,679,698,718,739,759,778,798,818,839,860,879],"xSR":741.5,"ySR":573.95,"xT1":424.9,"yT1":0,"xT2":1058.1,"yT2":0,"toosoon":0,"cond_shown":"equaldotanddens","ratio_trial":750,"smaller_num":"6","larger_num":"8","correct_side":1,"subjID":"AnaSofiaGil9","gender":"1","age":"11","school":"6"},{"start_time":1551892590517,"click_time":1551892591527,"finger_time":1551892591106,"fix_duration":250,"trial":4,"RT":589,"MT":421,"sideResp":2,"stimulus":"img/500/equaldotsize/R/9_Ratio_500_L_2_R_4.png","xmouse":[781,781,781,781,781,781,781,781,781,781,781,781,781,781,781,781,781,781,781,781,781,781,781,781,782,786,788,795,825,866,922,981,1044,1097,1146,1150,1155,1162,1169,1176,1180,1185,1187,1196,1196,1193,1184,1182,1170,1162,1154],"ymouse":[638,638,638,638,638,638,638,638,638,638,638,638,638,638,638,638,638,638,638,638,638,638,638,638,636,635,634,633,625,610,587,553,506,465,392,365,328,289,249,212,198,185,167,130,123,116,108,106,92,86,81],"timestamp_mouse":[11,33,49,70,89,110,129,149,171,189,209,230,250,269,290,309,329,349,371,389,409,430,449,470,489,509,531,549,569,589,610,629,650,669,689,709,729,749,769,789,809,829,850,870,889,909,929,949,970,989,1009],"xSR":741.5,"ySR":573.95,"xT1":424.9,"yT1":0,"xT2":1058.1,"yT2":0,"toosoon":0,"cond_shown":"equaldotsize","ratio_trial":500,"smaller_num":"2","larger_num":"4","correct_side":2,"subjID":"AnaSofiaGil9","gender":"1","age":"11","school":"6"},{"start_time":1551892592558,"click_time":1551892593407,"finger_time":1551892593107,"fix_duration":250,"trial":5,"RT":549,"MT":300,"sideResp":1,"stimulus":"img/900/equaldotsize/R/11_Ratio_900_L_18_R_20.png","xmouse":[780,780,780,780,780,780,780,780,780,780,780,780,780,780,780,780,780,780,780,780,780,780,780,780,780,780,755,724,686,646,600,536,518,507,500,499,502,504,507,507,507,507,507],"ymouse":[606,606,606,606,606,606,606,606,606,606,606,606,606,606,606,606,606,606,606,606,606,606,606,606,606,606,585,561,527,477,411,309,269,235,210,200,197,191,178,162,139,105,99],"timestamp_mouse":[9,37,49,68,89,109,129,150,168,188,209,229,248,268,288,309,329,350,368,388,409,428,448,469,489,509,528,549,569,588,608,629,648,669,690,708,728,748,768,789,810,829,849],"xSR":741.5,"ySR":573.95,"xT1":424.9,"yT1":0,"xT2":1058.1,"yT2":0,"toosoon":0,"cond_shown":"equaldotsize","ratio_trial":900,"smaller_num":"18","larger_num":"20","correct_side":2,"subjID":"AnaSofiaGil9","gender":"1","age":"11","school":"6"},{"start_time":1551892600717,"click_time":1551892601786,"finger_time":1551892601368,"fix_duration":1248.452660213559,"trial":6,"RT":651,"MT":418,"sideResp":2,"stimulus":"img/250/equaldotsize/R/4_Ratio_250_L_3_R_12.png","xmouse":[790,790,790,790,790,790,790,790,790,790,790,790,790,790,790,790,790,790,790,790,790,790,790,790,790,790,790,790,790,790,792,809,855,888,926,953,982,1005,1037,1046,1057,1064,1069,1070,1070,1073,1074,1074,1074,1074,1075,1076,1077,1080],"ymouse":[616,616,616,616,616,616,616,616,616,616,616,616,616,616,616,616,616,616,616,616,616,616,616,616,616,616,616,616,616,616,613,609,605,602,579,559,535,506,423,390,354,326,297,250,226,203,179,148,120,112,107,104,102,99],"timestamp_mouse":[11,34,50,70,89,109,129,149,169,190,210,230,250,270,289,310,329,349,369,389,409,429,451,470,490,510,530,549,570,591,610,630,651,669,691,711,729,749,769,789,810,830,851,870,889,909,929,950,970,989,1009,1029,1049,1069],"xSR":741.5,"ySR":573.95,"xT1":424.9,"yT1":0,"xT2":1058.1,"yT2":0,"toosoon":0,"cond_shown":"equaldotsize","ratio_trial":250,"smaller_num":"3","larger_num":"12","correct_side":2,"subjID":"AnaSofiaGil9","gender":"1","age":"11","school":"6"},{"start_time":1551892604063,"click_time":1551892604987,"finger_time":1551892604586,"fix_duration":1375.5188645285086,"trial":7,"RT":523,"MT":401,"sideResp":2,"stimulus":"img/750/equaldotanddens/R/4_Ratio_750_L_15_R_20.png","xmouse":[774,774,774,774,774,774,774,774,774,774,774,774,774,774,774,774,774,774,774,774,774,774,774,783,804,830,853,885,890,891,891,891,892,894,899,910,920,953,986,1031,1077,1113,1156,1160,1161,1160,1153],"ymouse":[624,624,624,624,624,624,624,624,624,624,624,624,624,624,624,624,624,624,624,624,624,624,624,623,618,611,601,580,575,573,572,571,566,558,542,514,490,443,392,331,244,178,119,109,103,95,86],"timestamp_mouse":[8,39,44,63,83,103,123,145,164,184,203,223,243,263,283,303,325,343,364,384,405,423,444,464,485,503,523,543,563,584,604,624,643,664,685,704,723,743,763,783,804,823,843,864,883,905,923],"xSR":741.5,"ySR":573.95,"xT1":424.9,"yT1":0,"xT2":1058.1,"yT2":0,"toosoon":0,"cond_shown":"equaldotanddens","ratio_trial":750,"smaller_num":"15","larger_num":"20","correct_side":2,"subjID":"AnaSofiaGil9","gender":"1","age":"11","school":"6"},{"start_time":1551892606960,"click_time":1551892607767,"finger_time":1551892607646,"fix_duration":1353.459629121504,"trial":8,"RT":686,"MT":121,"sideResp":1,"stimulus":"img/250/equaldotanddens/L/14_Ratio_250_L_12_R_3.png","xmouse":[778,778,778,778,778,778,778,779,779,779,779,779,779,779,779,779,779,779,779,779,779,779,779,779,779,779,779,779,779,779,779,779,769,743,712,642,537,494,467,456,452],"ymouse":[605,605,605,605,605,605,606,609,610,612,613,614,614,614,615,616,618,618,619,619,619,619,619,619,619,619,619,619,619,619,619,619,610,576,532,432,245,173,125,101,89],"timestamp_mouse":[10,40,47,67,87,107,126,147,166,187,206,227,248,266,286,306,326,348,367,387,406,426,446,466,487,507,526,546,566,586,606,626,646,667,686,706,726,748,767,788,807],"xSR":741.5,"ySR":573.95,"xT1":424.9,"yT1":0,"xT2":1058.1,"yT2":0,"toosoon":0,"cond_shown":"equaldotanddens","ratio_trial":250,"smaller_num":"3","larger_num":"12","correct_side":1,"subjID":"AnaSofiaGil9","gender":"1","age":"11","school":"6"},{"start_time":1551892609654,"click_time":1551892610706,"finger_time":1551892610486,"fix_duration":1065.2145850232018,"trial":9,"RT":832,"MT":220,"sideResp":2,"stimulus":"img/750/randomdotsizeEA/L/8_Ratio_750_L_4_R_3.png","xmouse":[797,797,797,797,797,797,797,797,797,797,797,797,797,797,797,797,797,797,797,797,797,797,797,797,797,797,797,797,797,797,797,797,797,797,797,797,798,798,799,800,810,869,897,926,947,975,1052,1071,1080,1083,1085,1089,1095],"ymouse":[631,631,631,631,631,631,631,631,631,631,631,631,631,631,631,631,631,631,631,631,631,631,631,631,631,631,631,631,631,631,631,631,631,631,629,627,625,625,624,623,616,566,527,481,442,394,216,170,144,129,121,103,90],"timestamp_mouse":[12,33,53,72,93,112,134,152,173,192,214,233,252,272,292,313,333,354,372,393,414,432,452,474,493,512,533,552,572,592,613,632,652,673,692,713,734,754,774,792,812,832,852,872,892,912,932,952,972,993,1013,1033,1052],"xSR":741.5,"ySR":573.95,"xT1":424.9,"yT1":0,"xT2":1058.1,"yT2":0,"toosoon":0,"cond_shown":"randomdotsizeEA","ratio_trial":750,"smaller_num":"3","larger_num":"4","correct_side":1,"subjID":"AnaSofiaGil9","gender":"1","age":"11","school":"6"},{"start_time":1551892612996,"click_time":1551892613987,"finger_time":1551892613807,"fix_duration":1407.8270742538896,"trial":10,"RT":811,"MT":180,"sideResp":1,"stimulus":"img/500/randomdotsizeEA/L/5_Ratio_500_L_4_R_2.png","xmouse":[769,769,769,769,769,769,769,769,769,769,769,769,769,769,769,769,769,769,769,769,769,769,769,769,769,769,769,769,769,769,769,769,769,769,769,769,769,769,768,754,734,709,679,647,574,537,514,509,509,509],"ymouse":[615,615,615,615,615,615,615,615,615,615,615,615,615,615,615,615,615,615,615,615,615,615,615,615,615,615,615,615,615,615,615,615,615,615,615,615,615,615,614,599,575,541,495,439,268,192,144,119,101,79],"timestamp_mouse":[20,37,51,70,91,111,130,151,170,192,211,231,251,271,290,311,331,352,370,391,410,430,452,471,492,510,531,552,571,591,611,630,650,671,692,711,730,750,770,791,811,830,851,871,891,912,930,950,970,991],"xSR":741.5,"ySR":573.95,"xT1":424.9,"yT1":0,"xT2":1058.1,"yT2":0,"toosoon":0,"cond_shown":"randomdotsizeEA","ratio_trial":500,"smaller_num":"2","larger_num":"4","correct_side":1,"subjID":"AnaSofiaGil9","gender":"1","age":"11","school":"6"},{"start_time":1551892616025,"click_time":1551892617187,"finger_time":1551892616886,"fix_duration":1337.4333915811171,"trial":11,"RT":861,"MT":301,"sideResp":1,"stimulus":"img/750/randomdotsizeEA/R/4_Ratio_750_L_15_R_20.png","xmouse":[790,790,790,790,790,790,790,790,790,790,790,790,790,790,790,790,790,790,790,790,790,790,790,790,790,790,790,790,790,790,790,790,790,790,790,790,790,790,790,790,790,788,782,702,645,595,575,566,557,555,555,553,551,551,551,551,547,534,505],"ymouse":[626,626,626,626,626,626,626,626,626,626,626,626,626,626,626,626,626,626,626,626,626,626,626,626,626,626,626,626,626,626,626,626,626,626,626,626,626,626,626,626,624,617,595,430,341,263,212,175,103,77,59,44,35,31,31,31,30,30,28],"timestamp_mouse":[9,32,41,61,82,101,121,143,162,182,202,222,242,263,281,301,322,341,361,382,402,422,442,461,482,502,522,541,561,581,601,622,642,662,681,702,723,743,761,782,803,821,841,861,881,901,921,942,962,982,1001,1022,1042,1061,1082,1101,1121,1141,1161],"xSR":741.5,"ySR":573.95,"xT1":424.9,"yT1":0,"xT2":1058.1,"yT2":0,"toosoon":0,"cond_shown":"randomdotsizeEA","ratio_trial":750,"smaller_num":"15","larger_num":"20","correct_side":2,"subjID":"AnaSofiaGil9","gender":"1","age":"11","school":"6"},{"start_time":1551892618981,"click_time":1551892619926,"finger_time":1551892619586,"fix_duration":1073.40567782869,"trial":12,"RT":605,"MT":340,"sideResp":1,"stimulus":"img/250/randomdotsizeEA/L/5_Ratio_250_L_24_R_6.png","xmouse":[791,791,791,791,791,790,788,787,786,785,785,785,785,785,785,785,785,785,785,785,785,784,784,784,784,783,781,779,777,773,761,752,742,731,709,657,638,618,610,607,603,596,587,576,564,540,531,519],"ymouse":[602,602,602,602,602,602,603,603,604,604,604,604,604,604,604,604,604,604,604,604,604,604,604,604,604,605,605,605,603,593,558,539,512,470,394,208,140,96,76,68,62,61,56,50,41,19,14,11],"timestamp_mouse":[14,34,45,67,85,105,125,145,166,186,206,225,245,266,286,305,327,345,365,387,405,425,445,465,486,505,526,546,565,585,605,626,645,665,685,705,725,746,765,786,806,826,845,865,885,906,925,945],"xSR":741.5,"ySR":573.95,"xT1":424.9,"yT1":0,"xT2":1058.1,"yT2":0,"toosoon":0,"cond_shown":"randomdotsizeEA","ratio_trial":250,"smaller_num":"6","larger_num":"24","correct_side":1,"subjID":"AnaSofiaGil9","gender":"1","age":"11","school":"6"},{"start_time":1551892621018,"click_time":1551892621887,"finger_time":1551892621668,"fix_duration":250,"trial":13,"RT":650,"MT":219,"sideResp":1,"stimulus":"img/500/equaldotsize/L/13_Ratio_500_L_12_R_6.png","xmouse":[769,769,769,770,771,771,771,772,772,773,773,774,775,775,775,775,775,775,775,775,775,775,775,775,775,775,775,775,775,775,767,759,732,699,638,617,597,579,555,547,542,533,531,504],"ymouse":[598,599,599,604,605,606,608,611,612,617,623,627,631,635,636,636,636,636,636,636,636,636,636,636,636,636,636,636,636,635,610,585,490,402,262,218,181,149,113,101,94,84,81,68],"timestamp_mouse":[10,34,49,69,89,108,129,149,168,189,210,229,250,269,288,308,328,349,369,388,409,428,448,468,489,508,528,548,568,588,608,629,650,670,689,710,729,749,769,788,809,828,848,869],"xSR":741.5,"ySR":573.95,"xT1":424.9,"yT1":0,"xT2":1058.1,"yT2":0,"toosoon":0,"cond_shown":"equaldotsize","ratio_trial":500,"smaller_num":"6","larger_num":"12","correct_side":1,"subjID":"AnaSofiaGil9","gender":"1","age":"11","school":"6"},{"start_time":1551892623570,"click_time":1551892624407,"finger_time":1551892624068,"fix_duration":1042.1776994844652,"trial":14,"RT":498,"MT":339,"sideResp":2,"stimulus":"img/250/equaldotsize/R/4_Ratio_250_L_3_R_12.png","xmouse":[792,792,792,792,792,792,792,792,792,792,792,792,792,792,792,792,792,792,792,792,792,794,800,816,850,878,979,1031,1078,1130,1185,1192,1192,1170,1158,1147,1145,1142,1138,1129,1120,1102],"ymouse":[618,618,618,618,618,618,618,618,618,618,618,618,618,618,618,618,618,618,618,618,618,619,619,619,614,605,553,516,482,435,363,330,301,256,233,200,185,167,147,125,105,70],"timestamp_mouse":[34,36,56,76,98,116,136,157,177,197,216,236,256,276,296,317,336,356,378,397,416,436,456,476,498,516,537,556,576,596,617,636,656,677,697,717,736,756,777,797,816,836],"xSR":741.5,"ySR":573.95,"xT1":424.9,"yT1":0,"xT2":1058.1,"yT2":0,"toosoon":0,"cond_shown":"equaldotsize","ratio_trial":250,"smaller_num":"3","larger_num":"12","correct_side":2,"subjID":"AnaSofiaGil9","gender":"1","age":"11","school":"6"},{"start_time":1551892625464,"click_time":1551892626447,"finger_time":1551892626146,"fix_duration":476.5162423277942,"trial":15,"RT":682,"MT":301,"sideResp":2,"stimulus":"img/900/randomdotsizeEA/R/3_Ratio_900_L_9_R_10.png","xmouse":[780,780,780,780,780,780,780,780,780,780,780,780,780,780,780,779,779,779,779,779,779,779,779,779,779,779,779,779,779,783,790,797,821,837,854,883,932,1043,1078,1102,1118,1118,1118,1118,1118,1118,1119,1119,1119,1119],"ymouse":[613,613,613,613,613,613,613,613,613,613,613,613,613,613,614,615,615,615,615,615,615,615,615,615,615,615,615,615,615,615,615,614,610,605,599,581,546,450,405,356,284,241,186,166,152,139,127,107,101,98],"timestamp_mouse":[6,23,43,62,83,102,123,144,162,183,203,223,244,263,283,304,323,343,363,383,403,423,444,463,484,503,522,542,563,583,603,623,643,664,682,702,722,742,762,783,802,823,842,862,883,903,922,942,962,983],"xSR":741.5,"ySR":573.95,"xT1":424.9,"yT1":0,"xT2":1058.1,"yT2":0,"toosoon":0,"cond_shown":"randomdotsizeEA","ratio_trial":900,"smaller_num":"9","larger_num":"10","correct_side":2,"subjID":"AnaSofiaGil9","gender":"1","age":"11","school":"6"},{"start_time":1551892628480,"click_time":1551892629867,"finger_time":1551892629066,"fix_duration":1231.8765875201404,"trial":16,"RT":586,"MT":801,"sideResp":2,"stimulus":"img/500/randomdotsizeEA/R/9_Ratio_500_L_2_R_4.png","xmouse":[788,788,788,788,788,788,788,788,788,788,788,788,788,788,788,788,788,788,788,788,788,788,788,788,788,788,785,778,763,735,679,677,677,677,677,677,677,677,681,687,695,723,743,767,790,807,824,825,825,826,842,863,901,963,1052,1124,1206,1224,1227,1221,1211,1201,1201,1201,1201,1201,1195,1181,1170,1158],"ymouse":[615,615,615,615,615,615,615,615,615,615,615,615,615,615,615,615,615,615,615,615,615,615,615,615,615,615,614,605,587,558,511,509,509,509,509,509,509,509,512,518,529,554,571,591,611,625,636,637,637,637,635,625,604,563,501,427,293,238,198,154,130,96,84,75,68,62,52,46,45,45],"timestamp_mouse":[14,37,47,66,86,108,126,147,166,186,206,226,247,268,286,307,326,347,366,387,408,428,446,467,486,507,527,547,568,586,607,626,647,667,686,706,727,748,768,787,806,826,846,867,887,906,926,947,967,986,1008,1026,1046,1067,1086,1106,1126,1146,1167,1186,1207,1227,1257,1267,1288,1307,1327,1346,1367,1387],"xSR":741.5,"ySR":573.95,"xT1":424.9,"yT1":0,"xT2":1058.1,"yT2":0,"toosoon":0,"cond_shown":"randomdotsizeEA","ratio_trial":500,"smaller_num":"2","larger_num":"4","correct_side":2,"subjID":"AnaSofiaGil9","gender":"1","age":"11","school":"6"},{"start_time":1551892631267,"click_time":1551892632307,"finger_time":1551892632007,"fix_duration":619.2047447656935,"trial":17,"RT":740,"MT":300,"sideResp":1,"stimulus":"img/900/randomdotsizeEA/R/6_Ratio_900_L_9_R_10.png","xmouse":[777,777,777,777,777,777,777,777,777,777,777,777,777,777,777,777,777,777,777,777,777,777,777,777,777,777,777,777,777,777,777,777,777,777,777,777,775,758,714,697,645,620,596,590,582,577,568,559,551,548,543,537,515],"ymouse":[612,612,612,612,612,612,612,612,612,612,612,612,612,612,612,612,612,612,612,612,612,612,612,612,612,612,612,612,612,612,612,612,612,612,612,612,611,572,488,456,377,333,267,226,171,138,97,80,68,64,59,57,49],"timestamp_mouse":[1,19,39,60,79,101,120,140,161,180,200,220,240,260,279,299,320,340,360,379,399,419,439,459,480,501,519,540,560,579,599,621,640,660,679,699,720,740,759,781,800,819,840,860,880,900,920,940,960,979,999,1020,1039],"xSR":741.5,"ySR":573.95,"xT1":424.9,"yT1":0,"xT2":1058.1,"yT2":0,"toosoon":0,"cond_shown":"randomdotsizeEA","ratio_trial":900,"smaller_num":"9","larger_num":"10","correct_side":2,"subjID":"AnaSofiaGil9","gender":"1","age":"11","school":"6"},{"start_time":1551892634107,"click_time":1551892635127,"finger_time":1551892634787,"fix_duration":1037.879712896943,"trial":18,"RT":680,"MT":340,"sideResp":1,"stimulus":"img/250/randomdotsizeEA/L/15_Ratio_250_L_12_R_3.png","xmouse":[787,787,787,787,787,787,785,784,784,784,784,784,783,782,782,782,782,782,782,782,782,782,782,782,782,782,782,782,782,782,782,782,779,773,725,675,621,573,513,475,467,464,463,461,452,447,444,444,443,444,452,456],"ymouse":[607,607,607,607,607,607,608,610,611,616,616,616,618,618,619,622,624,626,629,630,633,634,634,634,634,634,634,634,634,634,634,634,634,629,581,531,469,413,337,279,264,253,240,218,175,158,148,137,128,123,101,91],"timestamp_mouse":[4,21,43,60,80,99,120,140,160,180,200,221,241,260,280,300,320,339,359,380,400,420,440,459,481,499,519,539,559,580,599,619,641,660,680,699,720,740,760,780,800,820,839,860,880,900,919,940,960,979,999,1019],"xSR":741.5,"ySR":573.95,"xT1":424.9,"yT1":0,"xT2":1058.1,"yT2":0,"toosoon":0,"cond_shown":"randomdotsizeEA","ratio_trial":250,"smaller_num":"3","larger_num":"12","correct_side":1,"subjID":"AnaSofiaGil9","gender":"1","age":"11","school":"6"},{"start_time":1551892636139,"click_time":1551892637146,"finger_time":1551892636846,"fix_duration":250,"trial":19,"RT":707,"MT":300,"sideResp":2,"stimulus":"img/250/equaldotsize/R/4_Ratio_250_L_3_R_12.png","xmouse":[804,804,804,804,804,804,804,804,804,804,804,804,804,804,804,804,804,804,804,804,804,804,804,804,804,804,804,804,804,804,804,804,804,804,806,845,910,1017,1066,1120,1167,1203,1230,1230,1225,1200,1193,1162,1155,1148,1139],"ymouse":[625,625,625,625,625,625,625,625,625,625,625,625,625,625,625,625,625,625,625,625,625,625,625,625,625,625,625,625,625,625,625,625,625,625,619,603,575,531,500,451,386,319,202,150,99,29,14,0,0,0,7],"timestamp_mouse":[7,31,48,67,87,107,127,148,167,189,208,227,247,267,287,309,328,347,367,388,407,427,447,468,487,507,527,548,567,589,608,627,648,667,689,707,729,748,767,787,808,829,849,867,888,907,927,948,967,987,1007],"xSR":741.5,"ySR":573.95,"xT1":424.9,"yT1":0,"xT2":1058.1,"yT2":0,"toosoon":0,"cond_shown":"equaldotsize","ratio_trial":250,"smaller_num":"3","larger_num":"12","correct_side":2,"subjID":"AnaSofiaGil9","gender":"1","age":"11","school":"6"},{"start_time":1551892639318,"click_time":1551892640986,"finger_time":1551892640106,"fix_duration":1349.344529214705,"trial":20,"RT":788,"MT":880,"sideResp":2,"stimulus":"img/500/randomdotsizeEA/R/15_Ratio_500_L_1_R_2.png","xmouse":[777,777,777,777,777,777,777,777,777,777,777,777,777,777,777,777,777,777,777,777,777,777,777,777,777,777,777,777,777,777,777,777,777,777,777,777,777,771,752,713,698,692,688,686,682,680,678,676,676,676,676,676,676,678,686,703,724,758,782,792,800,806,815,837,856,880,919,990,1039,1124,1159,1185,1206,1212,1202,1189,1183,1180,1177,1173,1170,1164,1159,1150],"ymouse":[601,601,601,601,601,601,601,601,601,601,601,601,601,601,601,601,601,601,601,601,601,601,601,601,601,601,601,601,601,601,601,601,601,601,601,601,601,601,590,565,554,549,545,543,536,530,517,511,510,510,510,510,510,512,521,535,549,573,592,600,605,608,612,612,610,597,575,516,464,344,280,214,153,112,69,49,36,23,0,0,0,0,0,3],"timestamp_mouse":[14,31,48,68,89,108,129,150,168,189,208,229,250,269,289,308,328,350,368,388,409,428,450,468,489,509,528,548,569,589,608,628,648,668,689,708,728,750,768,788,808,828,849,870,888,908,929,949,970,989,1009,1029,1049,1069,1088,1108,1129,1149,1169,1188,1209,1228,1248,1270,1289,1309,1328,1348,1370,1388,1410,1428,1448,1468,1489,1509,1528,1550,1569,1588,1609,1629,1649,1668],"xSR":741.5,"ySR":573.95,"xT1":424.9,"yT1":0,"xT2":1058.1,"yT2":0,"toosoon":0,"cond_shown":"randomdotsizeEA","ratio_trial":500,"smaller_num":"1","larger_num":"2","correct_side":2,"subjID":"AnaSofiaGil9","gender":"1","age":"11","school":"6"},{"start_time":1551892642870,"click_time":1551892643846,"finger_time":1551892643566,"fix_duration":1321.1397564728252,"trial":21,"RT":696,"MT":280,"sideResp":2,"stimulus":"img/250/equaldotanddens/R/8_Ratio_250_L_1_R_4.png","xmouse":[777,777,777,777,777,777,777,777,777,777,777,777,777,777,777,777,777,777,777,777,777,777,777,777,777,777,777,777,778,779,780,785,796,817,843,889,1006,1052,1095,1099,1100,1097,1097,1097,1105,1110,1112,1109,1108],"ymouse":[638,638,638,638,638,638,638,638,638,638,638,638,638,638,638,638,638,638,638,638,638,638,637,637,637,637,636,636,635,634,633,627,618,601,579,538,406,338,261,234,218,202,192,177,159,141,119,110,92],"timestamp_mouse":[16,36,57,76,97,116,137,156,176,197,218,236,256,276,296,318,336,356,377,398,416,436,457,476,497,516,536,557,577,597,617,638,656,676,696,716,736,756,777,797,817,837,858,877,898,917,936,957,976],"xSR":741.5,"ySR":573.95,"xT1":424.9,"yT1":0,"xT2":1058.1,"yT2":0,"toosoon":0,"cond_shown":"equaldotanddens","ratio_trial":250,"smaller_num":"1","larger_num":"4","correct_side":2,"subjID":"AnaSofiaGil9","gender":"1","age":"11","school":"6"},{"start_time":1551892644997,"click_time":1551892645847,"finger_time":1551892645626,"fix_duration":250,"trial":22,"RT":629,"MT":221,"sideResp":1,"stimulus":"img/250/randomdotsizeEA/L/3_Ratio_250_L_8_R_2.png","xmouse":[794,794,794,794,794,794,794,794,793,792,792,792,792,792,792,792,792,792,792,792,792,792,792,792,792,792,792,792,792,792,783,747,734,688,646,585,563,546,531,520,498,490,478],"ymouse":[594,594,594,594,594,594,594,594,596,596,596,596,596,596,596,597,597,597,597,597,597,597,597,597,597,597,597,597,597,597,594,567,555,495,430,300,246,206,175,153,119,100,74],"timestamp_mouse":[12,36,49,69,89,110,129,149,170,190,209,231,250,271,289,309,330,349,370,390,409,431,449,470,490,510,531,549,569,589,611,629,649,670,690,709,730,750,771,791,810,829,850],"xSR":741.5,"ySR":573.95,"xT1":424.9,"yT1":0,"xT2":1058.1,"yT2":0,"toosoon":0,"cond_shown":"randomdotsizeEA","ratio_trial":250,"smaller_num":"2","larger_num":"8","correct_side":1,"subjID":"AnaSofiaGil9","gender":"1","age":"11","school":"6"},{"start_time":1551892648034,"click_time":1551892648987,"finger_time":1551892648566,"fix_duration":1244.697899624672,"trial":23,"RT":532,"MT":421,"sideResp":2,"stimulus":"img/500/equaldotanddens/R/9_Ratio_500_L_2_R_4.png","xmouse":[779,779,779,779,779,779,779,779,779,779,779,779,779,779,779,779,779,779,779,779,779,779,780,784,791,801,814,853,904,958,998,1008,1016,1016,1016,1016,1016,1015,1015,1015,1019,1028,1036,1055,1065,1072,1077,1083],"ymouse":[597,597,597,597,597,597,597,597,597,597,597,597,597,597,597,597,597,597,597,597,597,597,596,593,587,579,566,534,501,454,399,375,327,304,280,256,232,214,190,183,174,164,155,136,128,116,108,98],"timestamp_mouse":[12,35,52,72,92,112,132,152,173,192,213,232,254,272,292,313,333,352,372,392,412,432,452,472,493,514,532,553,572,593,614,632,653,672,693,712,732,752,773,792,813,832,854,873,892,912,932,953],"xSR":741.5,"ySR":573.95,"xT1":424.9,"yT1":0,"xT2":1058.1,"yT2":0,"toosoon":0,"cond_shown":"equaldotanddens","ratio_trial":500,"smaller_num":"2","larger_num":"4","correct_side":2,"subjID":"AnaSofiaGil9","gender":"1","age":"11","school":"6"},{"start_time":1551892649999,"click_time":1551892651587,"finger_time":1551892650746,"fix_duration":250,"trial":24,"RT":747,"MT":841,"sideResp":2,"stimulus":"img/900/randomdotsizeEA/L/8_Ratio_900_L_20_R_18.png","xmouse":[762,762,762,762,762,762,762,762,762,762,762,762,762,762,762,762,762,762,762,762,762,762,762,762,762,762,762,762,762,762,762,762,760,758,756,756,755,752,747,725,710,685,668,659,651,637,630,626,621,613,611,609,607,605,605,605,605,605,605,604,604,606,610,625,662,684,707,729,757,794,913,1025,1088,1125,1144,1154,1154,1154,1150,1141],"ymouse":[602,602,602,602,602,602,602,602,602,602,602,602,602,602,602,602,602,602,602,602,602,602,602,602,602,602,602,602,602,602,602,600,591,584,578,576,576,570,565,534,514,472,432,390,338,264,242,225,213,199,197,194,192,190,189,189,189,189,189,189,193,200,212,234,268,278,288,292,294,294,286,261,241,221,203,162,142,125,111,83],"timestamp_mouse":[10,36,47,67,87,108,128,149,167,187,207,227,247,267,287,308,329,349,368,387,408,428,447,468,488,508,527,547,568,589,608,627,647,668,689,708,727,747,767,788,807,828,848,867,888,908,927,947,968,988,1007,1027,1048,1068,1088,1108,1128,1147,1167,1187,1207,1228,1248,1267,1288,1307,1328,1348,1368,1387,1408,1428,1447,1468,1487,1507,1527,1549,1567,1588],"xSR":741.5,"ySR":573.95,"xT1":424.9,"yT1":0,"xT2":1058.1,"yT2":0,"toosoon":0,"cond_shown":"randomdotsizeEA","ratio_trial":900,"smaller_num":"18","larger_num":"20","correct_side":1,"subjID":"AnaSofiaGil9","gender":"1","age":"11","school":"6"},{"start_time":1551892652578,"click_time":1551892653768,"finger_time":1551892653607,"fix_duration":270.85071791238937,"trial":25,"RT":1029,"MT":161,"sideResp":2,"stimulus":"img/900/equaldotsize/L/10_Ratio_900_L_20_R_18.png","xmouse":[773,773,773,773,773,774,774,774,774,775,775,775,775,775,775,775,775,775,775,775,775,775,775,775,775,775,775,775,775,775,775,775,775,775,775,775,775,775,775,775,776,777,778,780,781,783,785,787,797,815,836,879,913,926,977,1006,1055,1075,1091,1099],"ymouse":[650,650,650,650,650,649,649,649,649,648,648,648,648,648,648,648,648,648,648,648,648,648,648,648,648,648,648,648,648,648,648,648,648,648,648,648,648,648,648,648,647,646,644,644,642,641,640,638,636,631,624,603,571,550,447,372,234,176,134,99],"timestamp_mouse":[8,28,49,69,88,108,128,149,169,188,209,228,248,268,288,309,329,350,369,389,408,429,448,468,488,508,528,550,570,589,608,630,649,668,688,710,728,749,769,789,808,828,848,868,888,908,929,949,969,989,1008,1029,1050,1068,1090,1108,1128,1149,1168,1190],"xSR":741.5,"ySR":573.95,"xT1":424.9,"yT1":0,"xT2":1058.1,"yT2":0,"toosoon":0,"cond_shown":"equaldotsize","ratio_trial":900,"smaller_num":"18","larger_num":"20","correct_side":1,"subjID":"AnaSofiaGil9","gender":"1","age":"11","school":"6"},{"start_time":1551892655461,"click_time":1551892656248,"finger_time":1551892656087,"fix_duration":851.6084665094266,"trial":26,"RT":626,"MT":161,"sideResp":1,"stimulus":"img/500/equaldotanddens/L/13_Ratio_500_L_12_R_6.png","xmouse":[769,769,769,769,769,769,769,769,769,769,769,769,769,769,769,769,769,769,769,769,769,769,769,769,769,769,769,769,769,769,764,696,655,621,597,577,515,493,485,483],"ymouse":[632,632,632,632,632,632,632,632,632,632,632,632,632,632,632,632,632,632,632,632,632,632,632,632,632,632,632,632,632,632,628,531,469,422,389,360,246,170,108,74],"timestamp_mouse":[14,26,45,66,87,105,125,145,165,185,206,225,247,266,285,306,326,346,366,386,405,426,446,465,486,505,525,545,567,585,605,626,645,666,685,706,725,745,766,786],"xSR":741.5,"ySR":573.95,"xT1":424.9,"yT1":0,"xT2":1058.1,"yT2":0,"toosoon":0,"cond_shown":"equaldotanddens","ratio_trial":500,"smaller_num":"6","larger_num":"12","correct_side":1,"subjID":"AnaSofiaGil9","gender":"1","age":"11","school":"6"},{"start_time":1551892659920,"click_time":1551892661186,"finger_time":1551892660666,"fix_duration":1451.7479610682865,"trial":27,"RT":746,"MT":520,"sideResp":1,"stimulus":"img/750/equaldotanddens/L/1_Ratio_750_L_20_R_15.png","xmouse":[799,799,799,799,799,799,799,799,799,799,799,799,799,799,799,799,799,799,799,799,799,799,799,799,799,799,799,799,799,799,799,799,799,799,799,796,778,765,746,713,698,684,670,647,637,627,614,598,580,574,568,563,561,557,546,538,538,537,537,536,534,532,528,524],"ymouse":[625,625,625,625,625,625,625,625,625,625,625,625,625,625,625,625,625,625,625,625,625,625,625,625,625,625,625,625,625,625,625,625,625,625,618,611,580,553,502,395,348,305,260,195,169,139,107,75,50,44,39,36,35,35,36,38,38,39,39,39,41,42,44,46],"timestamp_mouse":[9,43,46,68,87,106,127,146,167,186,206,226,248,266,287,306,327,347,368,388,407,427,447,466,487,508,526,546,568,587,606,627,647,667,686,707,726,746,766,787,807,827,846,866,886,906,926,948,967,986,1007,1027,1046,1066,1086,1107,1126,1147,1167,1186,1206,1228,1248,1266],"xSR":741.5,"ySR":573.95,"xT1":424.9,"yT1":0,"xT2":1058.1,"yT2":0,"toosoon":0,"cond_shown":"equaldotanddens","ratio_trial":750,"smaller_num":"15","larger_num":"20","correct_side":1,"subjID":"AnaSofiaGil9","gender":"1","age":"11","school":"6"},{"start_time":1551892662718,"click_time":1551892663827,"finger_time":1551892663426,"fix_duration":730.0579377022037,"trial":28,"RT":708,"MT":401,"sideResp":2,"stimulus":"img/250/randomdotsizeEA/R/13_Ratio_250_L_2_R_8.png","xmouse":[783,783,783,783,783,783,783,783,783,783,783,783,783,783,783,783,783,783,783,783,783,783,783,783,783,783,783,783,783,783,783,783,785,796,814,837,889,932,1035,1075,1108,1129,1142,1151,1161,1165,1169,1171,1171,1171,1171,1171,1167,1162,1161,1157],"ymouse":[607,607,607,607,607,607,607,607,607,607,607,607,607,607,607,607,607,607,607,607,607,607,607,607,607,607,607,607,607,607,607,607,606,596,579,547,475,412,270,220,182,158,141,124,88,72,60,52,50,50,49,49,45,39,39,39],"timestamp_mouse":[10,31,49,68,88,110,128,148,169,188,208,228,248,268,288,308,328,348,369,389,409,429,450,468,489,509,529,548,569,589,608,629,650,669,688,708,728,748,769,788,809,829,849,868,888,908,929,948,968,990,1008,1029,1048,1069,1089,1109],"xSR":741.5,"ySR":573.95,"xT1":424.9,"yT1":0,"xT2":1058.1,"yT2":0,"toosoon":0,"cond_shown":"randomdotsizeEA","ratio_trial":250,"smaller_num":"2","larger_num":"8","correct_side":2,"subjID":"AnaSofiaGil9","gender":"1","age":"11","school":"6"},{"start_time":1551892664859,"click_time":1551892666126,"finger_time":1551892665226,"fix_duration":250,"trial":29,"RT":367,"MT":900,"sideResp":2,"stimulus":"img/900/randomdotsizeEA/L/8_Ratio_900_L_20_R_18.png","xmouse":[801,801,801,801,801,801,801,801,801,801,801,801,801,801,801,801,801,800,795,782,768,749,740,733,727,726,732,736,738,738,738,738,738,738,739,745,752,757,763,773,790,861,897,919,928,932,941,944,949,950,950,939,938,938,943,953,982,1001,1023,1046,1065,1093,1097,1099],"ymouse":[599,599,599,599,599,599,599,599,599,599,599,599,599,599,599,599,599,590,567,554,538,515,500,483,465,454,442,439,436,436,436,436,436,436,438,444,449,452,455,458,463,469,469,467,461,451,396,353,315,286,261,203,188,178,172,166,152,143,134,126,120,109,105,97],"timestamp_mouse":[10,45,49,68,87,109,127,147,168,187,208,227,247,268,287,307,327,348,367,387,408,428,447,467,488,508,528,547,568,588,608,628,648,667,688,709,727,747,768,787,807,827,847,868,888,908,928,948,967,988,1009,1027,1047,1067,1088,1107,1128,1147,1167,1188,1209,1227,1247,1267],"xSR":741.5,"ySR":573.95,"xT1":424.9,"yT1":0,"xT2":1058.1,"yT2":0,"toosoon":0,"cond_shown":"randomdotsizeEA","ratio_trial":900,"smaller_num":"18","larger_num":"20","correct_side":1,"subjID":"AnaSofiaGil9","gender":"1","age":"11","school":"6"},{"start_time":1551892668264,"click_time":1551892669227,"finger_time":1551892669108,"fix_duration":1276.6731363438673,"trial":30,"RT":844,"MT":119,"sideResp":2,"stimulus":"img/900/equaldotanddens/R/9_Ratio_900_L_18_R_20.png","xmouse":[779,779,779,778,778,778,778,778,778,778,778,778,778,778,778,778,778,778,778,778,778,778,778,778,778,778,778,778,778,778,778,778,778,778,778,778,778,778,778,778,785,830,872,915,964,1010,1085,1112,1125],"ymouse":[624,624,624,623,623,623,623,623,623,623,623,623,623,623,623,623,623,623,623,623,623,623,623,623,623,623,623,623,623,623,623,623,623,623,623,623,623,623,623,623,617,587,553,506,433,353,176,121,94],"timestamp_mouse":[10,36,42,63,83,103,123,143,162,183,203,223,243,262,284,302,323,343,362,382,402,423,442,463,482,502,522,543,562,583,602,623,642,662,684,702,723,743,762,782,803,822,844,863,883,902,922,942,962],"xSR":741.5,"ySR":573.95,"xT1":424.9,"yT1":0,"xT2":1058.1,"yT2":0,"toosoon":0,"cond_shown":"equaldotanddens","ratio_trial":900,"smaller_num":"18","larger_num":"20","correct_side":2,"subjID":"AnaSofiaGil9","gender":"1","age":"11","school":"6"},{"start_time":1551892670497,"click_time":1551892671186,"finger_time":1551892671047,"fix_duration":409.1068925545723,"trial":31,"RT":550,"MT":139,"sideResp":2,"stimulus":"img/900/equaldotsize/R/11_Ratio_900_L_18_R_20.png","xmouse":[784,784,784,784,784,784,784,784,785,786,786,786,786,786,786,786,786,788,788,788,788,788,788,788,790,813,840,872,916,1018,1056,1086,1096,1096,1093],"ymouse":[607,607,607,607,607,607,607,607,606,605,605,605,605,605,605,605,605,604,604,604,604,604,604,604,603,596,586,572,542,386,294,199,134,100,77],"timestamp_mouse":[10,38,49,69,89,110,130,149,169,190,210,230,251,270,289,310,330,349,370,390,409,429,451,469,489,510,529,550,569,589,611,630,649,671,689],"xSR":741.5,"ySR":573.95,"xT1":424.9,"yT1":0,"xT2":1058.1,"yT2":0,"toosoon":0,"cond_shown":"equaldotsize","ratio_trial":900,"smaller_num":"18","larger_num":"20","correct_side":2,"subjID":"AnaSofiaGil9","gender":"1","age":"11","school":"6"},{"start_time":1551892672894,"click_time":1551892673786,"finger_time":1551892673567,"fix_duration":846.9488113635504,"trial":32,"RT":673,"MT":219,"sideResp":2,"stimulus":"img/900/equaldotsize/R/5_Ratio_900_L_9_R_10.png","xmouse":[783,783,783,783,783,783,783,783,784,791,796,799,802,803,807,809,812,812,812,811,811,811,811,811,811,811,811,811,811,811,811,819,827,848,904,942,985,1041,1056,1109,1117,1121,1121,1117,1106],"ymouse":[620,620,620,620,620,620,621,624,635,658,666,670,671,671,668,662,653,647,642,638,638,638,638,638,638,638,638,638,638,638,638,636,635,634,634,630,620,576,552,397,324,253,187,134,75],"timestamp_mouse":[12,38,52,73,92,112,132,152,173,193,212,233,252,272,293,313,333,353,374,392,412,432,453,474,492,513,533,553,572,594,612,632,652,673,693,712,732,752,773,792,813,832,852,873,892],"xSR":741.5,"ySR":573.95,"xT1":424.9,"yT1":0,"xT2":1058.1,"yT2":0,"toosoon":0,"cond_shown":"equaldotsize","ratio_trial":900,"smaller_num":"9","larger_num":"10","correct_side":2,"subjID":"AnaSofiaGil9","gender":"1","age":"11","school":"6"},{"start_time":1551892675879,"click_time":1551892677128,"finger_time":1551892676408,"fix_duration":1491.526217080596,"trial":33,"RT":529,"MT":720,"sideResp":1,"stimulus":"img/750/equaldotsize/L/10_Ratio_750_L_4_R_3.png","xmouse":[772,772,772,772,772,772,772,772,772,772,772,772,772,772,772,772,772,772,772,772,772,772,772,778,784,824,856,881,898,914,922,922,922,922,922,922,922,922,922,920,863,801,743,696,658,591,551,506,457,419,384,383,383,383,381,374,374,374,374,374,379,420,445],"ymouse":[623,623,623,623,623,623,623,623,623,623,623,623,623,623,623,623,623,623,623,623,623,623,623,623,623,616,606,596,584,564,550,549,549,549,549,549,549,549,549,549,542,525,505,482,455,373,315,262,208,167,95,70,47,27,11,0,0,0,0,0,4,41,60],"timestamp_mouse":[10,38,47,67,87,108,127,148,167,188,207,227,248,267,288,308,329,347,369,387,408,427,448,468,488,508,529,547,567,588,607,628,648,669,688,707,727,747,768,788,807,827,847,867,887,908,928,947,967,989,1007,1028,1047,1067,1087,1107,1128,1147,1167,1188,1207,1227,1248],"xSR":741.5,"ySR":573.95,"xT1":424.9,"yT1":0,"xT2":1058.1,"yT2":0,"toosoon":0,"cond_shown":"equaldotsize","ratio_trial":750,"smaller_num":"3","larger_num":"4","correct_side":1,"subjID":"AnaSofiaGil9","gender":"1","age":"11","school":"6"},{"start_time":1551892678372,"click_time":1551892679566,"finger_time":1551892679206,"fix_duration":363.23606872668336,"trial":34,"RT":834,"MT":360,"sideResp":1,"stimulus":"img/500/randomdotsizeEA/L/13_Ratio_500_L_12_R_6.png","xmouse":[785,785,785,785,785,785,785,785,785,785,785,783,783,782,781,781,781,781,781,781,781,781,781,781,781,781,781,781,781,781,781,781,781,781,781,781,781,781,781,778,768,712,605,534,466,419,394,389,386,382,380,380,380,381,381,381,382,393,409,426],"ymouse":[596,596,596,596,596,596,596,596,596,597,598,599,600,601,602,603,603,603,603,603,603,603,603,603,603,603,603,603,603,603,603,603,603,603,603,603,603,603,603,602,591,532,430,352,276,213,171,156,140,122,105,84,82,81,81,81,81,81,81,81],"timestamp_mouse":[15,35,54,75,94,115,136,154,175,196,216,234,255,275,295,315,335,354,375,395,414,436,454,475,495,515,535,555,575,594,616,635,654,675,695,714,735,754,774,794,815,834,855,874,895,915,935,955,974,994,1014,1035,1055,1074,1094,1115,1135,1154,1175,1194],"xSR":741.5,"ySR":573.95,"xT1":424.9,"yT1":0,"xT2":1058.1,"yT2":0,"toosoon":0,"cond_shown":"randomdotsizeEA","ratio_trial":500,"smaller_num":"6","larger_num":"12","correct_side":1,"subjID":"AnaSofiaGil9","gender":"1","age":"11","school":"6"},{"start_time":1551892681743,"click_time":1551892682607,"finger_time":1551892682188,"fix_duration":1195.4680789206407,"trial":35,"RT":445,"MT":419,"sideResp":2,"stimulus":"img/250/equaldotsize/R/4_Ratio_250_L_3_R_12.png","xmouse":[773,773,773,773,773,773,773,773,773,773,773,773,773,773,773,773,773,773,773,776,781,798,880,936,991,1054,1077,1089,1089,1085,1077,1069,1059,1055,1055,1051,1051,1050,1049,1049,1051,1056,1064,1064],"ymouse":[602,602,602,602,602,602,602,602,602,602,602,602,602,602,602,602,602,602,602,604,605,610,624,626,617,575,541,483,455,425,398,370,329,301,294,271,252,203,177,151,132,118,100,97],"timestamp_mouse":[10,33,44,65,83,104,123,144,164,184,203,224,243,264,283,303,324,344,363,383,403,424,445,463,484,504,524,544,563,583,604,623,644,663,684,703,724,744,763,783,804,825,844,864],"xSR":741.5,"ySR":573.95,"xT1":424.9,"yT1":0,"xT2":1058.1,"yT2":0,"toosoon":0,"cond_shown":"equaldotsize","ratio_trial":250,"smaller_num":"3","larger_num":"12","correct_side":2,"subjID":"AnaSofiaGil9","gender":"1","age":"11","school":"6"},{"start_time":1551892684191,"click_time":1551892685146,"finger_time":1551892684768,"fix_duration":783.432386091895,"trial":36,"RT":577,"MT":378,"sideResp":1,"stimulus":"img/500/equaldotanddens/L/7_Ratio_500_L_10_R_5.png","xmouse":[778,778,778,778,778,778,778,778,778,778,778,778,778,778,778,778,778,778,778,778,778,778,778,778,778,777,767,742,715,681,600,558,510,501,490,501,517,527,530,530,530,530,530,529,528,528,526,516],"ymouse":[603,603,603,603,603,603,603,603,603,603,603,603,603,603,603,603,603,603,603,603,603,603,603,603,603,603,601,584,563,527,417,357,288,272,231,171,133,108,92,87,81,75,65,55,52,52,52,54],"timestamp_mouse":[15,35,55,75,95,116,137,157,175,196,215,237,256,275,296,316,335,356,377,395,417,436,456,476,495,515,535,555,577,595,615,636,656,676,696,715,736,755,776,796,816,835,855,876,896,915,935,955],"xSR":741.5,"ySR":573.95,"xT1":424.9,"yT1":0,"xT2":1058.1,"yT2":0,"toosoon":0,"cond_shown":"equaldotanddens","ratio_trial":500,"smaller_num":"5","larger_num":"10","correct_side":1,"subjID":"AnaSofiaGil9","gender":"1","age":"11","school":"6"},{"start_time":1551892686726,"click_time":1551892687887,"finger_time":1551892687528,"fix_duration":778.5617355920873,"trial":37,"RT":802,"MT":359,"sideResp":2,"stimulus":"img/900/equaldotanddens/L/10_Ratio_900_L_20_R_18.png","xmouse":[797,797,797,797,797,797,797,797,797,797,797,797,797,797,797,797,797,797,797,797,797,797,797,797,797,797,797,797,797,797,797,797,797,797,797,797,797,798,816,831,844,859,871,894,908,921,941,954,966,982,990,1001,1018,1031,1049,1052,1055,1058,1067],"ymouse":[620,620,620,620,620,620,620,620,620,620,620,620,620,620,620,620,620,620,620,620,620,620,620,620,620,620,620,620,620,620,620,620,620,620,620,620,620,620,609,596,584,566,550,517,497,477,444,421,396,356,332,308,270,236,183,159,130,115,94],"timestamp_mouse":[8,33,41,60,80,100,121,142,160,180,200,221,240,261,280,301,320,341,362,380,401,420,440,461,480,502,521,541,560,581,600,620,640,662,680,700,721,740,761,780,802,821,840,861,880,900,921,940,961,981,1001,1022,1040,1060,1081,1100,1120,1141,1161],"xSR":741.5,"ySR":573.95,"xT1":424.9,"yT1":0,"xT2":1058.1,"yT2":0,"toosoon":0,"cond_shown":"equaldotanddens","ratio_trial":900,"smaller_num":"18","larger_num":"20","correct_side":1,"subjID":"AnaSofiaGil9","gender":"1","age":"11","school":"6"},{"start_time":1551892689787,"click_time":1551892690606,"finger_time":1551892690487,"fix_duration":1059.77309521448,"trial":38,"RT":700,"MT":119,"sideResp":1,"stimulus":"img/750/randomdotsizeEA/L/14_Ratio_750_L_8_R_6.png","xmouse":[800,800,800,800,800,800,800,800,800,800,800,800,800,800,800,800,800,800,800,800,800,800,800,800,800,800,800,800,800,800,800,800,800,800,793,711,664,611,571,541,508,503],"ymouse":[633,633,633,633,633,633,633,633,633,633,633,633,633,633,633,633,633,633,633,633,633,633,633,633,633,633,633,633,633,633,633,633,633,633,622,507,444,373,301,236,134,98],"timestamp_mouse":[8,30,39,59,80,99,120,140,160,180,199,219,239,261,279,300,320,339,359,379,401,420,439,461,480,499,519,539,560,580,600,619,640,659,679,700,719,740,760,779,800,819],"xSR":741.5,"ySR":573.95,"xT1":424.9,"yT1":0,"xT2":1058.1,"yT2":0,"toosoon":0,"cond_shown":"randomdotsizeEA","ratio_trial":750,"smaller_num":"6","larger_num":"8","correct_side":1,"subjID":"AnaSofiaGil9","gender":"1","age":"11","school":"6"},{"start_time":1551892691692,"click_time":1551892692948,"finger_time":1551892692607,"fix_duration":424.1495973328443,"trial":39,"RT":915,"MT":341,"sideResp":2,"stimulus":"img/750/randomdotsizeEA/L/1_Ratio_750_L_20_R_15.png","xmouse":[790,790,790,790,790,790,790,790,790,790,790,788,784,781,780,780,780,780,780,780,780,780,780,780,780,780,780,780,780,780,780,780,780,780,780,780,780,780,781,790,797,805,811,821,838,931,1036,1067,1127,1158,1163,1163,1163,1163,1163,1163,1163,1162,1162,1162,1161,1159,1156],"ymouse":[655,655,655,655,655,655,655,655,655,655,655,650,643,638,637,637,637,637,637,637,637,637,637,637,637,637,637,637,637,634,632,631,629,629,629,629,629,629,629,629,629,630,630,630,624,568,483,458,384,286,243,202,174,148,125,98,93,90,90,90,89,86,83],"timestamp_mouse":[28,34,54,74,96,114,135,154,174,196,214,234,255,274,295,314,334,355,375,395,415,435,454,475,494,514,535,555,576,595,614,635,654,676,694,714,735,754,774,795,815,835,855,875,894,914,936,954,974,995,1014,1035,1054,1075,1095,1114,1135,1155,1175,1195,1214,1234,1256],"xSR":741.5,"ySR":573.95,"xT1":424.9,"yT1":0,"xT2":1058.1,"yT2":0,"toosoon":0,"cond_shown":"randomdotsizeEA","ratio_trial":750,"smaller_num":"15","larger_num":"20","correct_side":1,"subjID":"AnaSofiaGil9","gender":"1","age":"11","school":"6"},{"start_time":1551892696995,"click_time":1551892698026,"finger_time":1551892697787,"fix_duration":1306.6724957020708,"trial":40,"RT":792,"MT":239,"sideResp":1,"stimulus":"img/250/equaldotsize/L/3_Ratio_250_L_8_R_2.png","xmouse":[818,818,812,808,802,788,783,782,782,782,782,782,782,782,782,782,782,782,782,782,782,782,782,782,782,782,782,782,782,782,782,782,782,782,782,782,782,769,758,699,655,609,567,509,482,450,450,452,453,454,454,455],"ymouse":[620,620,620,620,620,615,613,612,612,612,612,612,612,612,612,612,612,612,612,612,612,612,612,612,612,612,612,612,612,612,612,612,612,612,612,612,612,600,590,525,481,425,365,276,216,127,117,113,111,104,101,96],"timestamp_mouse":[13,38,52,71,92,111,132,151,172,192,211,233,252,271,291,311,331,352,372,391,411,431,451,472,491,511,532,552,571,591,611,632,651,673,692,713,732,751,773,792,811,831,852,872,891,911,932,951,971,992,1011,1031],"xSR":741.5,"ySR":573.95,"xT1":424.9,"yT1":0,"xT2":1058.1,"yT2":0,"toosoon":0,"cond_shown":"equaldotsize","ratio_trial":250,"smaller_num":"2","larger_num":"8","correct_side":1,"subjID":"AnaSofiaGil9","gender":"1","age":"11","school":"6"},{"start_time":1551892700051,"click_time":1551892701147,"finger_time":1551892700827,"fix_duration":1323.4755227262492,"trial":41,"RT":776,"MT":320,"sideResp":2,"stimulus":"img/250/randomdotsizeEA/R/11_Ratio_250_L_3_R_12.png","xmouse":[785,778,778,778,778,781,786,793,796,797,797,797,796,790,782,775,771,771,771,771,773,784,788,789,789,789,789,787,785,778,776,774,774,774,774,779,795,815,843,876,909,950,966,982,990,994,996,998,1000,1002,1004,1010,1042,1055,1068],"ymouse":[637,638,638,638,638,638,637,635,632,632,632,632,632,633,635,635,636,636,636,636,635,631,628,628,628,628,628,628,628,629,629,629,629,629,629,626,619,610,594,560,463,324,279,239,209,182,140,125,111,103,100,96,79,74,70],"timestamp_mouse":[19,36,55,77,95,116,136,155,176,196,215,235,255,275,296,316,337,356,375,397,415,436,456,477,496,516,535,556,575,596,615,637,656,676,697,716,735,755,776,796,816,836,855,877,896,915,936,955,976,996,1016,1035,1055,1075,1095],"xSR":741.5,"ySR":573.95,"xT1":424.9,"yT1":0,"xT2":1058.1,"yT2":0,"toosoon":0,"cond_shown":"randomdotsizeEA","ratio_trial":250,"smaller_num":"3","larger_num":"12","correct_side":2,"subjID":"AnaSofiaGil9","gender":"1","age":"11","school":"6"},{"start_time":1551892703407,"click_time":1551892704307,"finger_time":1551892703926,"fix_duration":1478.5796570546115,"trial":42,"RT":519,"MT":381,"sideResp":2,"stimulus":"img/500/equaldotsize/R/1_Ratio_500_L_9_R_18.png","xmouse":[772,772,772,772,772,772,772,772,772,772,772,772,772,772,772,772,772,772,772,772,772,772,772,772,778,830,857,903,962,1060,1100,1135,1160,1180,1186,1186,1186,1185,1183,1179,1176,1170,1163,1148,1136,1116],"ymouse":[611,611,611,611,611,611,611,611,611,611,611,611,611,611,611,611,611,611,611,611,611,611,611,611,613,614,609,587,548,435,366,305,264,227,199,193,188,185,179,170,165,157,149,134,120,83],"timestamp_mouse":[1,31,40,59,79,99,119,140,159,181,199,219,239,259,279,301,321,340,359,379,399,421,439,460,479,499,519,539,560,580,599,619,641,660,680,699,720,739,760,780,799,820,839,859,880,900],"xSR":741.5,"ySR":573.95,"xT1":424.9,"yT1":0,"xT2":1058.1,"yT2":0,"toosoon":0,"cond_shown":"equaldotsize","ratio_trial":500,"smaller_num":"9","larger_num":"18","correct_side":2,"subjID":"AnaSofiaGil9","gender":"1","age":"11","school":"6"},{"start_time":1551892705766,"click_time":1551892706846,"finger_time":1551892706386,"fix_duration":419.74896528528916,"trial":43,"RT":620,"MT":460,"sideResp":2,"stimulus":"img/250/equaldotsize/R/11_Ratio_250_L_3_R_12.png","xmouse":[809,809,809,809,809,809,809,809,809,809,809,809,809,809,809,809,809,809,809,809,809,809,809,809,809,809,809,815,822,826,833,846,895,930,971,995,1032,1043,1055,1065,1072,1088,1121,1135,1149,1152,1152,1151,1150,1150,1148,1139,1134,1128,1120],"ymouse":[639,639,639,639,639,639,639,639,639,639,639,639,639,639,639,639,639,639,639,639,639,639,639,639,639,639,639,639,638,637,636,633,617,602,574,551,500,475,441,398,354,309,251,229,193,174,165,156,153,147,138,117,109,100,88],"timestamp_mouse":[11,21,40,60,81,101,122,140,161,180,201,222,240,261,281,300,321,341,361,380,400,420,440,461,482,501,520,540,561,581,600,620,641,661,681,701,721,740,760,781,801,820,841,861,880,900,920,940,960,980,1001,1021,1040,1061,1080],"xSR":741.5,"ySR":573.95,"xT1":424.9,"yT1":0,"xT2":1058.1,"yT2":0,"toosoon":0,"cond_shown":"equaldotsize","ratio_trial":250,"smaller_num":"3","larger_num":"12","correct_side":2,"subjID":"AnaSofiaGil9","gender":"1","age":"11","school":"6"},{"start_time":1551892708500,"click_time":1551892709706,"finger_time":1551892709346,"fix_duration":250,"trial":44,"RT":846,"MT":360,"sideResp":1,"stimulus":"img/250/equaldotanddens/L/15_Ratio_250_L_12_R_3.png","xmouse":[803,803,803,803,803,803,803,803,803,803,803,803,803,803,803,803,803,803,803,803,803,803,803,803,803,803,803,803,803,803,803,803,803,803,803,803,803,803,803,802,791,770,735,686,563,510,469,436,393,367,360,360,360,363,368,378,380,384,398,409,431],"ymouse":[653,653,653,653,653,653,653,653,653,653,653,653,653,653,653,653,653,653,653,653,653,653,653,653,653,653,653,653,653,653,653,653,653,653,653,653,653,653,653,650,622,585,527,453,299,237,182,130,54,6,0,0,0,0,0,0,0,0,11,20,42],"timestamp_mouse":[9,33,46,67,87,106,126,146,168,188,207,226,247,267,287,307,326,346,367,386,408,426,446,466,487,507,527,546,567,586,606,627,647,666,687,707,726,747,767,786,807,826,846,867,887,907,926,946,966,987,1006,1026,1047,1067,1086,1106,1127,1146,1166,1186,1206],"xSR":741.5,"ySR":573.95,"xT1":424.9,"yT1":0,"xT2":1058.1,"yT2":0,"toosoon":0,"cond_shown":"equaldotanddens","ratio_trial":250,"smaller_num":"3","larger_num":"12","correct_side":1,"subjID":"AnaSofiaGil9","gender":"1","age":"11","school":"6"},{"start_time":1551892711342,"click_time":1551892712606,"finger_time":1551892712287,"fix_duration":334.73619199865345,"trial":45,"RT":945,"MT":319,"sideResp":2,"stimulus":"img/750/equaldotsize/L/6_Ratio_750_L_24_R_18.png","xmouse":[780,780,780,780,780,780,780,780,780,780,780,780,780,780,780,780,780,780,780,780,780,780,780,780,780,780,780,780,780,780,780,780,780,780,780,780,780,780,780,780,780,781,784,794,804,825,841,870,889,914,938,962,981,1001,1009,1017,1026,1039,1045,1054,1060,1067,1075,1084],"ymouse":[630,630,630,630,630,630,630,630,630,630,630,630,630,630,630,630,630,630,630,630,630,630,630,630,630,630,630,630,630,630,630,630,630,630,630,630,630,630,630,630,630,630,630,628,626,621,613,575,541,494,451,411,377,323,296,267,238,213,201,184,165,144,125,92],"timestamp_mouse":[14,24,44,64,85,105,124,146,164,185,204,226,244,265,285,304,325,345,366,385,405,424,445,464,484,505,524,544,565,584,604,625,644,664,684,704,724,745,766,785,806,825,845,864,885,905,925,945,964,984,1005,1024,1045,1066,1085,1104,1124,1145,1164,1185,1204,1224,1245,1264],"xSR":741.5,"ySR":573.95,"xT1":424.9,"yT1":0,"xT2":1058.1,"yT2":0,"toosoon":0,"cond_shown":"equaldotsize","ratio_trial":750,"smaller_num":"18","larger_num":"24","correct_side":1,"subjID":"AnaSofiaGil9","gender":"1","age":"11","school":"6"},{"start_time":1551892713598,"click_time":1551892714407,"finger_time":1551892714087,"fix_duration":250,"trial":46,"RT":489,"MT":320,"sideResp":2,"stimulus":"img/900/equaldotsize/L/10_Ratio_900_L_20_R_18.png","xmouse":[790,790,790,790,790,790,790,790,790,790,790,790,790,790,790,790,790,790,790,790,792,794,813,833,912,955,997,1033,1061,1078,1096,1098,1098,1098,1098,1091,1091,1091,1091,1091,1088],"ymouse":[646,646,646,646,646,646,646,646,646,646,646,646,646,646,646,646,646,646,646,646,646,646,646,640,614,596,573,547,517,484,438,417,382,356,323,251,213,174,145,123,89],"timestamp_mouse":[8,37,49,68,88,108,128,148,168,188,208,229,250,268,288,309,329,349,368,389,408,429,448,469,489,508,528,549,569,588,608,628,648,668,689,709,728,749,769,789,809],"xSR":741.5,"ySR":573.95,"xT1":424.9,"yT1":0,"xT2":1058.1,"yT2":0,"toosoon":0,"cond_shown":"equaldotsize","ratio_trial":900,"smaller_num":"18","larger_num":"20","correct_side":1,"subjID":"AnaSofiaGil9","gender":"1","age":"11","school":"6"},{"start_time":1551892715855,"click_time":1551892716606,"finger_time":1551892716206,"fix_duration":606.6983971965905,"trial":47,"RT":351,"MT":400,"sideResp":2,"stimulus":"img/900/randomdotsizeEA/R/7_Ratio_900_L_9_R_10.png","xmouse":[756,756,756,756,756,756,757,759,760,761,763,765,773,780,790,802,817,847,862,882,900,940,961,983,1004,1022,1038,1065,1078,1090,1092,1089,1086,1085,1084,1084,1084,1083],"ymouse":[626,626,626,626,626,626,626,626,626,626,626,626,626,626,625,624,623,620,618,612,606,587,572,544,505,457,400,295,251,201,178,144,135,128,123,118,102,97],"timestamp_mouse":[12,38,51,72,91,111,132,151,172,192,212,231,251,273,291,311,331,351,371,392,412,432,451,472,491,511,531,552,572,591,612,632,651,671,691,713,732,751],"xSR":741.5,"ySR":573.95,"xT1":424.9,"yT1":0,"xT2":1058.1,"yT2":0,"toosoon":0,"cond_shown":"randomdotsizeEA","ratio_trial":900,"smaller_num":"9","larger_num":"10","correct_side":2,"subjID":"AnaSofiaGil9","gender":"1","age":"11","school":"6"},{"start_time":1551892718585,"click_time":1551892719827,"finger_time":1551892719468,"fix_duration":877.0909244623723,"trial":48,"RT":883,"MT":359,"sideResp":2,"stimulus":"img/500/randomdotsizeEA/R/15_Ratio_500_L_1_R_2.png","xmouse":[790,790,790,790,790,790,790,790,790,790,790,790,790,790,790,790,790,790,790,790,790,790,790,790,790,790,790,790,794,796,796,797,797,797,797,797,797,797,797,797,797,801,813,840,875,964,1009,1051,1091,1124,1156,1159,1163,1173,1183,1194,1199,1199,1199,1191,1182,1164,1158],"ymouse":[625,625,625,625,625,625,625,625,625,625,625,625,625,625,625,625,625,625,625,625,625,625,625,625,625,625,625,625,625,625,625,625,625,625,625,625,625,625,625,625,625,622,615,597,570,482,422,349,273,197,117,100,81,42,16,0,0,0,0,1,9,25,28],"timestamp_mouse":[8,33,41,62,82,103,121,142,161,181,201,222,243,261,281,301,321,341,361,382,402,421,441,462,481,502,522,541,563,581,602,622,641,661,682,702,721,742,761,782,802,821,842,861,883,902,921,942,962,981,1002,1021,1042,1061,1082,1102,1121,1141,1162,1181,1201,1221,1242],"xSR":741.5,"ySR":573.95,"xT1":424.9,"yT1":0,"xT2":1058.1,"yT2":0,"toosoon":0,"cond_shown":"randomdotsizeEA","ratio_trial":500,"smaller_num":"1","larger_num":"2","correct_side":2,"subjID":"AnaSofiaGil9","gender":"1","age":"11","school":"6"},{"start_time":1551892720924,"click_time":1551892721966,"finger_time":1551892721606,"fix_duration":276.4675969360778,"trial":49,"RT":682,"MT":360,"sideResp":1,"stimulus":"img/750/equaldotsize/L/9_Ratio_750_L_4_R_3.png","xmouse":[810,809,809,809,807,806,805,804,803,802,801,800,800,800,800,800,800,800,800,800,800,800,800,800,800,800,800,800,800,800,800,791,784,761,681,624,535,498,481,475,475,475,475,475,478,478,478,483,485,485,485,485,483],"ymouse":[637,637,637,637,637,637,636,636,636,636,635,634,634,634,634,634,634,634,634,634,634,634,634,634,634,634,634,634,634,634,634,634,627,614,560,524,466,435,417,394,381,365,350,338,304,278,252,209,184,142,126,113,96],"timestamp_mouse":[4,37,42,62,82,104,124,143,164,182,202,223,243,262,282,302,323,342,362,383,402,422,443,463,483,502,522,542,563,582,602,622,642,663,682,703,722,743,762,782,803,823,842,863,883,903,922,942,963,982,1002,1022,1042],"xSR":741.5,"ySR":573.95,"xT1":424.9,"yT1":0,"xT2":1058.1,"yT2":0,"toosoon":0,"cond_shown":"equaldotsize","ratio_trial":750,"smaller_num":"3","larger_num":"4","correct_side":1,"subjID":"AnaSofiaGil9","gender":"1","age":"11","school":"6"},{"start_time":1551892723215,"click_time":1551892724506,"finger_time":1551892724146,"fix_duration":367.55374363564033,"trial":50,"RT":931,"MT":360,"sideResp":1,"stimulus":"img/750/equaldotanddens/L/8_Ratio_750_L_4_R_3.png","xmouse":[792,792,792,792,792,792,792,792,792,792,788,783,781,779,779,779,779,779,779,779,783,783,783,783,783,783,783,783,783,783,783,783,783,783,783,783,781,777,765,750,749,748,747,747,746,744,733,696,631,528,506,486,478,469,466,466,466,466,466,466,470,472,472,472,472],"ymouse":[628,628,628,628,628,628,628,628,628,628,628,629,629,630,630,630,630,630,630,630,629,629,629,629,629,629,629,629,629,629,629,629,629,629,629,629,629,628,625,620,619,618,617,616,615,611,597,548,484,368,319,258,230,191,178,175,174,174,174,173,160,142,126,101,87],"timestamp_mouse":[12,36,52,71,92,112,131,151,171,192,211,231,252,272,291,312,331,353,373,391,411,433,451,471,491,511,531,552,571,591,612,631,651,672,692,711,731,751,771,792,812,832,853,871,891,912,931,951,972,992,1011,1032,1053,1072,1091,1112,1132,1153,1173,1191,1211,1231,1251,1272,1291],"xSR":741.5,"ySR":573.95,"xT1":424.9,"yT1":0,"xT2":1058.1,"yT2":0,"toosoon":0,"cond_shown":"equaldotanddens","ratio_trial":750,"smaller_num":"3","larger_num":"4","correct_side":1,"subjID":"AnaSofiaGil9","gender":"1","age":"11","school":"6"},{"start_time":1551892726347,"click_time":1551892727466,"finger_time":1551892727126,"fix_duration":900.0412580029296,"trial":51,"RT":779,"MT":340,"sideResp":2,"stimulus":"img/900/randomdotsizeEA/R/13_Ratio_900_L_18_R_20.png","xmouse":[797,797,797,797,797,797,797,797,797,797,797,797,797,797,797,797,797,797,797,797,797,797,797,797,797,797,797,797,797,797,797,797,797,797,797,797,799,812,848,906,978,1097,1134,1165,1170,1172,1172,1159,1153,1144,1133,1118,1090,1079,1069,1065],"ymouse":[621,621,621,621,621,621,621,621,621,621,621,621,621,621,621,621,621,621,621,621,621,621,621,621,621,621,621,621,621,621,621,621,621,621,621,621,621,621,615,604,573,462,403,322,281,255,236,213,208,202,195,185,152,130,100,86],"timestamp_mouse":[20,39,61,79,99,120,140,160,181,199,219,239,259,280,300,319,340,359,379,400,421,440,459,479,499,521,541,560,581,599,620,639,660,680,700,720,739,760,779,799,819,840,859,880,899,919,940,960,980,999,1019,1039,1059,1080,1100,1119],"xSR":741.5,"ySR":573.95,"xT1":424.9,"yT1":0,"xT2":1058.1,"yT2":0,"toosoon":0,"cond_shown":"randomdotsizeEA","ratio_trial":900,"smaller_num":"18","larger_num":"20","correct_side":2,"subjID":"AnaSofiaGil9","gender":"1","age":"11","school":"6"},{"start_time":1551892728913,"click_time":1551892729727,"finger_time":1551892729487,"fix_duration":565.6933987032118,"trial":52,"RT":574,"MT":240,"sideResp":2,"stimulus":"img/750/equaldotanddens/L/8_Ratio_750_L_4_R_3.png","xmouse":[812,812,812,812,812,812,812,812,812,812,812,812,812,812,812,812,812,812,812,812,812,812,812,812,812,812,819,834,878,900,930,962,998,1036,1052,1060,1065,1065,1065,1063,1060],"ymouse":[626,626,626,626,626,626,626,626,626,626,626,626,626,626,626,626,626,626,626,626,626,626,626,626,626,626,624,622,613,600,577,549,512,481,464,437,386,288,155,110,84],"timestamp_mouse":[14,36,53,73,94,113,134,153,174,194,214,233,253,274,293,313,334,353,373,393,413,434,454,474,495,513,533,554,574,594,615,634,654,674,693,713,735,754,774,793,814],"xSR":741.5,"ySR":573.95,"xT1":424.9,"yT1":0,"xT2":1058.1,"yT2":0,"toosoon":0,"cond_shown":"equaldotanddens","ratio_trial":750,"smaller_num":"3","larger_num":"4","correct_side":1,"subjID":"AnaSofiaGil9","gender":"1","age":"11","school":"6"},{"start_time":1551892731909,"click_time":1551892732727,"finger_time":1551892732506,"fix_duration":1322.238760576172,"trial":53,"RT":597,"MT":221,"sideResp":2,"stimulus":"img/250/equaldotsize/R/10_Ratio_250_L_4_R_16.png","xmouse":[778,778,778,778,778,778,778,778,778,778,778,778,778,778,778,778,778,778,778,778,778,778,778,778,778,778,778,779,795,846,881,917,954,1033,1070,1103,1123,1136,1136,1136,1134],"ymouse":[637,637,637,637,637,637,637,637,637,637,637,637,637,637,637,637,637,637,637,637,637,637,637,637,637,637,637,635,625,581,550,516,480,393,340,280,222,156,109,102,99],"timestamp_mouse":[21,43,58,77,97,119,139,157,177,197,218,237,257,278,299,318,337,357,379,398,418,438,458,477,497,518,538,558,577,597,617,638,657,678,697,718,737,757,778,797,818],"xSR":741.5,"ySR":573.95,"xT1":424.9,"yT1":0,"xT2":1058.1,"yT2":0,"toosoon":0,"cond_shown":"equaldotsize","ratio_trial":250,"smaller_num":"4","larger_num":"16","correct_side":2,"subjID":"AnaSofiaGil9","gender":"1","age":"11","school":"6"},{"start_time":1551892733857,"click_time":1551892734706,"finger_time":1551892734466,"fix_duration":250,"trial":54,"RT":609,"MT":240,"sideResp":1,"stimulus":"img/500/equaldotanddens/L/13_Ratio_500_L_12_R_6.png","xmouse":[777,777,777,777,777,777,777,777,777,777,777,777,777,777,777,777,777,777,777,777,777,777,777,777,777,777,777,777,777,773,740,626,580,555,531,509,491,465,456,452,452,464,472],"ymouse":[608,608,608,608,608,608,608,608,608,608,608,608,608,608,608,608,608,608,608,608,608,608,608,608,608,608,608,608,608,608,586,497,456,422,382,333,276,190,168,148,137,106,86],"timestamp_mouse":[10,31,50,69,89,109,129,149,170,189,211,229,250,269,290,310,330,349,370,389,409,430,450,471,489,511,530,549,569,591,609,629,649,670,690,710,730,749,770,790,810,830,849],"xSR":741.5,"ySR":573.95,"xT1":424.9,"yT1":0,"xT2":1058.1,"yT2":0,"toosoon":0,"cond_shown":"equaldotanddens","ratio_trial":500,"smaller_num":"6","larger_num":"12","correct_side":1,"subjID":"AnaSofiaGil9","gender":"1","age":"11","school":"6"},{"start_time":1551892735638,"click_time":1551892736487,"finger_time":1551892736106,"fix_duration":250,"trial":55,"RT":468,"MT":381,"sideResp":2,"stimulus":"img/500/equaldotsize/R/3_Ratio_500_L_10_R_20.png","xmouse":[810,810,810,810,810,810,810,810,810,810,810,810,810,810,810,810,810,810,810,810,812,816,827,868,895,919,946,975,1005,1005,1005,999,994,988,987,987,988,989,989,989,991,1009,1062],"ymouse":[592,592,592,592,592,592,592,592,592,592,592,592,592,592,592,592,592,592,592,592,592,592,591,579,567,552,526,478,329,256,198,156,138,111,94,77,71,68,68,68,68,74,79],"timestamp_mouse":[12,34,48,68,88,108,129,149,170,188,208,230,249,268,290,309,329,349,368,389,409,429,449,468,488,510,528,549,569,588,609,629,649,668,689,709,728,749,768,789,808,829,849],"xSR":741.5,"ySR":573.95,"xT1":424.9,"yT1":0,"xT2":1058.1,"yT2":0,"toosoon":0,"cond_shown":"equaldotsize","ratio_trial":500,"smaller_num":"10","larger_num":"20","correct_side":2,"subjID":"AnaSofiaGil9","gender":"1","age":"11","school":"6"},{"start_time":1551892737418,"click_time":1551892738287,"finger_time":1551892737926,"fix_duration":250,"trial":56,"RT":508,"MT":361,"sideResp":1,"stimulus":"img/900/randomdotsizeEA/L/4_Ratio_900_L_20_R_18.png","xmouse":[788,788,788,788,788,781,777,774,773,773,773,773,773,773,770,759,751,750,749,749,749,749,749,749,744,726,702,674,650,612,592,557,539,514,505,496,488,481,472,472,469,468,468,470],"ymouse":[648,648,648,648,648,641,637,633,629,629,629,629,629,629,625,618,616,615,615,615,615,615,615,615,611,599,580,552,527,479,448,391,361,319,299,278,255,232,186,166,149,136,117,98],"timestamp_mouse":[8,33,50,68,88,110,128,148,168,189,208,229,249,268,289,309,330,350,369,388,408,428,449,468,489,508,529,548,569,588,609,629,648,668,688,708,729,749,768,788,808,828,849,869],"xSR":741.5,"ySR":573.95,"xT1":424.9,"yT1":0,"xT2":1058.1,"yT2":0,"toosoon":0,"cond_shown":"randomdotsizeEA","ratio_trial":900,"smaller_num":"18","larger_num":"20","correct_side":1,"subjID":"AnaSofiaGil9","gender":"1","age":"11","school":"6"},{"start_time":1551892740166,"click_time":1551892741346,"finger_time":1551892740966,"fix_duration":1078.9830639663398,"trial":57,"RT":800,"MT":380,"sideResp":1,"stimulus":"img/750/equaldotanddens/L/9_Ratio_750_L_4_R_3.png","xmouse":[799,799,799,799,799,799,799,799,799,799,799,799,799,799,799,799,799,799,799,799,799,800,802,805,806,806,806,806,808,811,817,830,834,834,834,834,835,827,800,759,710,587,537,497,442,418,396,375,369,364,362,362,367,371,374,378,398,408,423,434],"ymouse":[633,633,633,633,633,633,633,633,633,633,633,633,633,633,633,633,633,633,633,633,633,633,634,634,635,635,635,635,635,635,635,632,632,632,632,632,631,626,613,596,570,483,435,375,267,203,147,76,53,36,22,0,0,0,0,0,9,14,19,22],"timestamp_mouse":[12,38,40,61,80,101,121,140,161,180,200,221,240,260,282,301,320,340,360,382,400,421,440,460,481,500,521,541,560,580,601,620,640,660,682,700,721,741,760,781,800,821,840,860,880,901,920,941,960,981,1000,1021,1040,1060,1080,1101,1121,1140,1161,1180],"xSR":741.5,"ySR":573.95,"xT1":424.9,"yT1":0,"xT2":1058.1,"yT2":0,"toosoon":0,"cond_shown":"equaldotanddens","ratio_trial":750,"smaller_num":"3","larger_num":"4","correct_side":1,"subjID":"AnaSofiaGil9","gender":"1","age":"11","school":"6"},{"start_time":1551892745141,"click_time":1551892745887,"finger_time":1551892745747,"fix_duration":1494.1014378537284,"trial":58,"RT":606,"MT":140,"sideResp":1,"stimulus":"img/250/equaldotanddens/L/2_Ratio_250_L_16_R_4.png","xmouse":[786,786,786,786,786,786,786,786,786,786,786,786,786,786,786,786,786,786,786,786,786,786,786,786,786,786,786,786,782,764,733,682,629,517,464,447,443,440],"ymouse":[631,631,631,631,631,631,631,631,631,631,631,631,631,631,631,631,631,631,631,631,631,631,631,631,631,631,631,631,622,582,507,424,350,221,154,123,113,83],"timestamp_mouse":[10,32,45,65,86,105,126,145,165,187,205,225,246,265,285,306,325,346,365,386,405,425,445,466,485,507,525,545,565,585,606,626,646,667,686,705,725,746],"xSR":741.5,"ySR":573.95,"xT1":424.9,"yT1":0,"xT2":1058.1,"yT2":0,"toosoon":0,"cond_shown":"equaldotanddens","ratio_trial":250,"smaller_num":"4","larger_num":"16","correct_side":1,"subjID":"AnaSofiaGil9","gender":"1","age":"11","school":"6"},{"start_time":1551892747348,"click_time":1551892748347,"finger_time":1551892747887,"fix_duration":759.3217274182396,"trial":59,"RT":539,"MT":460,"sideResp":2,"stimulus":"img/250/randomdotsizeEA/R/10_Ratio_250_L_4_R_16.png","xmouse":[776,776,776,776,776,776,776,776,776,776,776,776,776,776,776,776,776,776,776,776,776,776,776,776,776,783,807,873,907,939,958,970,981,990,987,981,976,973,973,973,973,978,982,995,1005,1015,1037,1058,1063,1068,1074],"ymouse":[625,625,625,625,625,625,625,625,625,625,625,625,625,625,625,625,625,625,625,625,625,625,625,625,625,620,606,567,542,515,493,471,450,409,382,364,345,328,292,276,260,244,229,197,179,164,140,118,110,103,96],"timestamp_mouse":[1,18,38,59,80,99,118,139,160,180,199,219,239,260,278,300,319,338,359,379,398,420,438,458,478,499,518,539,558,580,598,619,638,659,678,698,718,739,759,780,799,818,839,859,879,899,918,939,958,978,999],"xSR":741.5,"ySR":573.95,"xT1":424.9,"yT1":0,"xT2":1058.1,"yT2":0,"toosoon":0,"cond_shown":"randomdotsizeEA","ratio_trial":250,"smaller_num":"4","larger_num":"16","correct_side":2,"subjID":"AnaSofiaGil9","gender":"1","age":"11","school":"6"},{"start_time":1551892750447,"click_time":1551892751046,"finger_time":1551892750887,"fix_duration":1298.697823754423,"trial":60,"RT":440,"MT":159,"sideResp":1,"stimulus":"img/250/equaldotanddens/L/5_Ratio_250_L_24_R_6.png","xmouse":[786,786,786,786,786,786,786,786,786,786,786,786,786,786,786,786,786,786,786,786,786,786,743,709,668,623,584,533,512,495,474],"ymouse":[622,622,622,622,622,622,622,622,622,622,622,622,622,622,622,622,622,622,622,622,622,617,551,504,447,393,341,222,159,109,47],"timestamp_mouse":[1,19,39,59,80,101,119,140,159,181,199,219,239,259,280,299,319,340,361,380,399,421,440,459,479,499,519,540,560,580,599],"xSR":741.5,"ySR":573.95,"xT1":424.9,"yT1":0,"xT2":1058.1,"yT2":0,"toosoon":0,"cond_shown":"equaldotanddens","ratio_trial":250,"smaller_num":"6","larger_num":"24","correct_side":1,"subjID":"AnaSofiaGil9","gender":"1","age":"11","school":"6"},{"start_time":1551892752928,"click_time":1551892753908,"finger_time":1551892753507,"fix_duration":1139.0811714790655,"trial":61,"RT":579,"MT":401,"sideResp":1,"stimulus":"img/250/randomdotsizeEA/L/2_Ratio_250_L_16_R_4.png","xmouse":[806,806,806,806,806,806,806,806,806,806,806,806,806,806,806,806,806,806,806,806,806,806,806,806,806,806,806,806,805,762,714,644,590,568,558,555,553,553,553,553,553,553,551,546,533,526,511,499,487,466],"ymouse":[611,611,611,611,611,611,611,611,611,611,611,611,611,611,611,611,611,611,611,611,611,611,611,611,611,611,611,611,611,572,524,466,419,396,371,362,353,348,337,326,311,293,269,247,201,180,149,129,115,90],"timestamp_mouse":[1,32,39,60,79,99,119,139,160,179,199,219,240,259,279,301,319,339,359,380,400,420,439,460,481,500,519,540,559,579,600,620,639,660,679,699,720,740,760,779,800,820,840,859,881,900,920,940,960,980],"xSR":741.5,"ySR":573.95,"xT1":424.9,"yT1":0,"xT2":1058.1,"yT2":0,"toosoon":0,"cond_shown":"randomdotsizeEA","ratio_trial":250,"smaller_num":"4","larger_num":"16","correct_side":1,"subjID":"AnaSofiaGil9","gender":"1","age":"11","school":"6"},{"start_time":1551892754721,"click_time":1551892755888,"finger_time":1551892755287,"fix_duration":253.82731056599272,"trial":62,"RT":566,"MT":601,"sideResp":2,"stimulus":"img/900/equaldotsize/R/11_Ratio_900_L_18_R_20.png","xmouse":[795,795,795,795,795,795,795,795,795,795,795,795,795,795,795,795,795,795,795,795,795,795,795,795,795,795,808,829,859,982,1048,1115,1179,1270,1293,1306,1311,1314,1314,1310,1304,1298,1292,1285,1264,1249,1224,1206,1188,1167,1163,1162,1162,1162,1162,1161,1161,1160,1152],"ymouse":[641,641,641,641,641,641,641,641,641,641,641,641,641,641,641,641,641,641,641,641,641,641,641,641,641,641,640,634,623,571,539,494,430,277,221,189,152,129,76,49,30,19,13,10,9,15,27,32,36,44,46,47,47,47,47,48,50,54,65],"timestamp_mouse":[7,30,46,66,87,106,126,146,166,186,206,227,246,267,286,306,326,346,366,388,407,426,447,466,486,506,527,546,566,587,606,626,646,667,686,706,726,747,767,786,806,827,846,866,887,906,927,946,966,987,1006,1026,1047,1066,1087,1107,1128,1146,1167],"xSR":741.5,"ySR":573.95,"xT1":424.9,"yT1":0,"xT2":1058.1,"yT2":0,"toosoon":0,"cond_shown":"equaldotsize","ratio_trial":900,"smaller_num":"18","larger_num":"20","correct_side":2,"subjID":"AnaSofiaGil9","gender":"1","age":"11","school":"6"},{"start_time":1551892757539,"click_time":1551892758407,"finger_time":1551892758087,"fix_duration":791.7804890961452,"trial":63,"RT":548,"MT":320,"sideResp":2,"stimulus":"img/500/randomdotsizeEA/L/4_Ratio_500_L_18_R_9.png","xmouse":[782,782,782,782,782,782,782,782,782,782,782,782,782,782,782,782,782,782,782,782,782,782,782,782,788,808,826,845,870,875,886,903,923,995,1042,1077,1122,1143,1171,1175,1174,1167,1160,1155],"ymouse":[612,612,612,612,612,612,612,612,612,612,612,612,612,612,612,612,612,612,612,612,612,612,612,612,612,612,612,609,604,601,595,581,559,477,432,390,317,273,168,132,100,75,51,43],"timestamp_mouse":[10,33,49,69,90,108,128,149,169,189,209,230,248,269,289,308,328,349,369,388,409,429,449,469,488,508,528,548,570,589,608,628,648,669,688,709,728,749,769,788,808,828,849,868],"xSR":741.5,"ySR":573.95,"xT1":424.9,"yT1":0,"xT2":1058.1,"yT2":0,"toosoon":0,"cond_shown":"randomdotsizeEA","ratio_trial":500,"smaller_num":"9","larger_num":"18","correct_side":1,"subjID":"AnaSofiaGil9","gender":"1","age":"11","school":"6"},{"start_time":1551892760293,"click_time":1551892761367,"finger_time":1551892760807,"fix_duration":1024.5480556075534,"trial":64,"RT":514,"MT":560,"sideResp":2,"stimulus":"img/900/randomdotsizeEA/R/12_Ratio_900_L_18_R_20.png","xmouse":[779,779,779,779,779,779,779,779,779,779,779,779,779,779,779,779,779,779,779,779,780,786,795,808,826,862,883,920,952,987,1080,1129,1170,1205,1229,1249,1253,1253,1253,1253,1253,1253,1253,1253,1253,1253,1253,1249,1225,1186,1173,1165,1160,1153],"ymouse":[613,613,613,613,613,613,613,613,613,613,613,613,613,613,613,613,613,613,613,613,613,613,613,613,614,614,611,592,564,519,398,327,248,177,113,41,23,11,8,4,0,0,0,0,0,0,0,3,14,22,24,24,27,28],"timestamp_mouse":[16,41,54,74,95,114,134,155,174,194,214,234,255,274,294,314,334,354,375,394,414,435,455,474,495,514,535,554,575,595,615,634,655,675,695,715,734,754,774,795,814,835,854,874,895,914,935,954,974,995,1014,1034,1054,1074],"xSR":741.5,"ySR":573.95,"xT1":424.9,"yT1":0,"xT2":1058.1,"yT2":0,"toosoon":0,"cond_shown":"randomdotsizeEA","ratio_trial":900,"smaller_num":"18","larger_num":"20","correct_side":2,"subjID":"AnaSofiaGil9","gender":"1","age":"11","school":"6"},{"start_time":1551892762618,"click_time":1551892763807,"finger_time":1551892763327,"fix_duration":250,"trial":65,"RT":709,"MT":480,"sideResp":2,"stimulus":"img/500/randomdotsizeEA/R/15_Ratio_500_L_1_R_2.png","xmouse":[807,807,807,807,807,807,807,807,807,807,807,807,807,807,807,807,807,807,807,807,808,805,804,804,804,804,804,804,804,804,804,804,804,811,833,861,912,964,1092,1146,1194,1237,1248,1255,1253,1245,1234,1228,1224,1214,1208,1197,1189,1183,1180,1180,1178,1174,1164,1158],"ymouse":[616,616,616,616,616,616,616,616,616,616,616,616,616,616,616,616,616,616,616,616,617,618,618,618,618,618,618,618,618,618,618,618,618,618,612,603,582,547,388,298,239,187,165,128,108,87,72,66,64,64,63,60,56,55,55,55,55,55,55,55],"timestamp_mouse":[10,36,51,71,90,109,129,149,170,190,209,230,250,269,290,310,330,349,369,389,410,429,449,470,490,509,529,550,569,589,610,631,649,669,689,709,729,749,771,789,809,830,849,870,889,909,930,950,970,990,1010,1029,1050,1069,1090,1109,1131,1150,1170,1189],"xSR":741.5,"ySR":573.95,"xT1":424.9,"yT1":0,"xT2":1058.1,"yT2":0,"toosoon":0,"cond_shown":"randomdotsizeEA","ratio_trial":500,"smaller_num":"1","larger_num":"2","correct_side":2,"subjID":"AnaSofiaGil9","gender":"1","age":"11","school":"6"},{"start_time":1551892766293,"click_time":1551892767187,"finger_time":1551892767007,"fix_duration":1204.6466605661005,"trial":66,"RT":714,"MT":180,"sideResp":1,"stimulus":"img/750/randomdotsizeEA/L/13_Ratio_750_L_8_R_6.png","xmouse":[782,782,782,782,782,782,782,782,782,782,782,782,782,782,782,782,782,782,782,782,782,782,782,782,782,782,782,782,782,782,782,782,782,775,766,707,645,592,538,501,464,456,447,443,441],"ymouse":[623,623,623,623,623,623,623,623,623,623,623,623,623,623,623,623,623,623,623,623,623,623,623,623,623,623,623,623,623,623,623,623,623,619,607,540,462,395,326,274,190,160,131,111,92],"timestamp_mouse":[15,34,55,76,94,115,134,156,175,194,215,234,255,275,294,316,334,355,376,394,414,435,455,476,494,515,535,554,574,594,614,634,655,675,695,714,735,755,775,794,814,834,854,875,894],"xSR":741.5,"ySR":573.95,"xT1":424.9,"yT1":0,"xT2":1058.1,"yT2":0,"toosoon":0,"cond_shown":"randomdotsizeEA","ratio_trial":750,"smaller_num":"6","larger_num":"8","correct_side":1,"subjID":"AnaSofiaGil9","gender":"1","age":"11","school":"6"},{"start_time":1551892769186,"click_time":1551892770248,"finger_time":1551892769927,"fix_duration":1177.8845892379518,"trial":67,"RT":741,"MT":321,"sideResp":1,"stimulus":"img/500/equaldotanddens/L/10_Ratio_500_L_4_R_2.png","xmouse":[774,774,774,774,774,774,774,774,774,774,774,774,774,774,774,774,774,774,774,774,774,774,774,774,774,774,774,774,774,774,774,774,774,774,774,773,750,727,699,662,585,565,565,565,565,564,558,558,558,557,557,544,529,509],"ymouse":[615,615,615,615,615,615,615,615,615,615,615,615,615,615,615,615,615,615,615,615,615,615,615,615,615,615,615,615,615,615,615,615,615,615,615,614,577,539,491,434,315,242,223,168,141,119,94,88,86,86,86,88,90,91],"timestamp_mouse":[8,35,42,61,82,102,121,141,162,181,201,221,243,262,282,301,322,341,363,381,402,422,441,461,481,502,521,541,563,581,601,622,643,661,682,702,721,741,762,781,802,821,841,862,882,902,922,942,962,981,1002,1021,1042,1062],"xSR":741.5,"ySR":573.95,"xT1":424.9,"yT1":0,"xT2":1058.1,"yT2":0,"toosoon":0,"cond_shown":"equaldotanddens","ratio_trial":500,"smaller_num":"2","larger_num":"4","correct_side":1,"subjID":"AnaSofiaGil9","gender":"1","age":"11","school":"6"},{"start_time":1551892771706,"click_time":1551892772728,"finger_time":1551892772368,"fix_duration":298.37433329548634,"trial":68,"RT":662,"MT":360,"sideResp":1,"stimulus":"img/750/randomdotsizeEA/L/1_Ratio_750_L_20_R_15.png","xmouse":[779,779,779,779,779,779,779,779,779,779,779,779,779,779,779,779,779,779,779,779,779,779,779,779,779,779,779,779,779,780,773,764,757,748,746,746,745,745,740,718,701,686,669,655,614,575,563,535,524,505,498,493],"ymouse":[618,618,618,618,618,618,618,618,618,618,618,618,618,618,618,618,618,618,618,618,618,618,618,618,618,618,618,618,618,617,610,595,582,566,560,559,557,556,547,520,499,475,443,404,314,252,233,192,171,132,114,97],"timestamp_mouse":[9,32,41,61,82,101,122,141,162,182,201,221,241,261,282,302,322,341,362,382,401,422,442,462,481,502,521,542,561,581,603,622,642,662,682,702,721,742,761,781,801,821,843,863,882,901,922,941,961,981,1001,1022],"xSR":741.5,"ySR":573.95,"xT1":424.9,"yT1":0,"xT2":1058.1,"yT2":0,"toosoon":0,"cond_shown":"randomdotsizeEA","ratio_trial":750,"smaller_num":"15","larger_num":"20","correct_side":1,"subjID":"AnaSofiaGil9","gender":"1","age":"11","school":"6"},{"start_time":1551892773876,"click_time":1551892774988,"finger_time":1551892774708,"fix_duration":268.962413576149,"trial":69,"RT":832,"MT":280,"sideResp":2,"stimulus":"img/750/equaldotsize/L/14_Ratio_750_L_8_R_6.png","xmouse":[782,782,782,782,782,782,782,782,782,782,782,782,782,782,782,782,782,782,782,782,783,784,785,785,786,788,791,795,796,798,799,799,799,799,799,799,799,800,802,808,838,869,910,961,1001,1057,1068,1074,1077,1086,1099,1106,1113,1119,1124,1129],"ymouse":[623,623,623,623,623,623,623,623,623,623,623,623,623,623,623,623,623,623,623,623,623,622,622,622,622,622,621,621,621,620,620,620,620,620,620,620,620,620,618,615,598,581,552,512,476,387,346,320,297,267,222,199,175,154,132,99],"timestamp_mouse":[12,36,52,72,92,112,132,152,172,193,211,232,252,271,292,312,333,352,372,392,412,432,452,473,491,511,531,551,572,592,611,631,652,672,691,711,732,752,772,791,811,832,852,871,892,911,931,952,973,991,1011,1031,1052,1071,1092,1112],"xSR":741.5,"ySR":573.95,"xT1":424.9,"yT1":0,"xT2":1058.1,"yT2":0,"toosoon":0,"cond_shown":"equaldotsize","ratio_trial":750,"smaller_num":"6","larger_num":"8","correct_side":1,"subjID":"AnaSofiaGil9","gender":"1","age":"11","school":"6"},{"start_time":1551892777035,"click_time":1551892777969,"finger_time":1551892777627,"fix_duration":1305.9478564539168,"trial":70,"RT":592,"MT":342,"sideResp":2,"stimulus":"img/900/equaldotanddens/L/4_Ratio_900_L_20_R_18.png","xmouse":[798,798,798,798,798,798,798,798,798,794,792,788,788,788,788,788,788,788,788,788,788,788,788,788,788,789,791,799,827,847,876,926,986,1013,1034,1048,1058,1063,1063,1060,1052,1051,1050,1053,1056,1058,1059],"ymouse":[633,633,633,633,633,633,633,633,633,631,630,628,628,628,628,628,628,628,628,628,628,628,628,628,628,627,625,620,599,584,559,513,439,398,351,308,262,197,172,151,126,120,99,94,90,88,87],"timestamp_mouse":[12,33,52,72,93,113,134,152,172,192,213,232,252,272,294,313,333,352,372,392,412,433,453,472,493,513,532,552,573,592,612,632,652,672,693,713,732,752,772,792,812,832,852,872,892,914,934],"xSR":741.5,"ySR":573.95,"xT1":424.9,"yT1":0,"xT2":1058.1,"yT2":0,"toosoon":0,"cond_shown":"equaldotanddens","ratio_trial":900,"smaller_num":"18","larger_num":"20","correct_side":1,"subjID":"AnaSofiaGil9","gender":"1","age":"11","school":"6"},{"start_time":1551892780560,"click_time":1551892781927,"finger_time":1551892781507,"fix_duration":250,"trial":71,"RT":947,"MT":420,"sideResp":2,"stimulus":"img/500/randomdotsizeEA/R/15_Ratio_500_L_1_R_2.png","xmouse":[769,769,769,769,769,769,769,769,769,769,769,769,769,769,769,769,769,769,769,769,769,769,769,769,769,769,769,769,769,769,769,769,769,769,769,769,769,769,769,769,769,769,769,769,769,778,823,867,924,983,1037,1134,1174,1200,1220,1225,1225,1220,1214,1210,1209,1208,1208,1208,1205,1198,1181,1169,1155],"ymouse":[634,634,634,634,634,634,634,634,634,634,634,634,634,634,634,634,634,634,634,634,634,634,634,634,634,634,634,634,634,634,634,634,634,634,634,634,634,634,634,634,634,634,634,634,633,632,619,606,583,542,487,343,276,227,170,137,84,67,51,40,38,37,37,37,37,37,40,40,44],"timestamp_mouse":[10,42,48,67,87,107,128,149,168,187,208,228,248,267,287,308,327,348,367,388,407,427,449,467,489,507,527,548,567,588,607,628,648,667,688,708,728,747,768,787,807,828,847,868,889,907,927,947,967,988,1008,1027,1047,1067,1088,1107,1127,1147,1167,1187,1207,1228,1247,1268,1287,1308,1328,1347,1367],"xSR":741.5,"ySR":573.95,"xT1":424.9,"yT1":0,"xT2":1058.1,"yT2":0,"toosoon":0,"cond_shown":"randomdotsizeEA","ratio_trial":500,"smaller_num":"1","larger_num":"2","correct_side":2,"subjID":"AnaSofiaGil9","gender":"1","age":"11","school":"6"},{"start_time":1551892782908,"click_time":1551892783807,"finger_time":1551892783408,"fix_duration":339.4916877933799,"trial":72,"RT":500,"MT":399,"sideResp":1,"stimulus":"img/500/equaldotsize/L/13_Ratio_500_L_12_R_6.png","xmouse":[772,772,773,781,787,791,792,792,792,792,792,792,792,792,792,792,792,792,793,793,793,793,791,767,741,713,686,654,629,617,604,597,591,591,594,595,595,595,584,577,567,555,543,512,494],"ymouse":[631,631,631,631,631,631,631,631,631,631,631,631,631,631,631,631,631,631,630,630,630,630,627,609,594,578,562,532,460,417,376,348,321,289,276,266,258,245,224,211,198,180,163,120,96],"timestamp_mouse":[30,39,59,79,100,120,140,159,179,200,220,241,259,280,301,320,340,361,380,399,420,439,459,479,500,520,539,560,579,599,619,640,660,679,699,719,740,759,780,799,820,839,859,879,899],"xSR":741.5,"ySR":573.95,"xT1":424.9,"yT1":0,"xT2":1058.1,"yT2":0,"toosoon":0,"cond_shown":"equaldotsize","ratio_trial":500,"smaller_num":"6","larger_num":"12","correct_side":1,"subjID":"AnaSofiaGil9","gender":"1","age":"11","school":"6"},{"start_time":1551892785221,"click_time":1551892786147,"finger_time":1551892785807,"fix_duration":790.5420736710884,"trial":73,"RT":586,"MT":340,"sideResp":2,"stimulus":"img/900/equaldotanddens/L/4_Ratio_900_L_20_R_18.png","xmouse":[782,782,782,782,782,782,782,782,782,782,782,782,782,782,782,782,782,782,782,782,782,782,782,782,782,782,782,786,837,886,946,1008,1085,1121,1158,1166,1168,1170,1170,1168,1165,1162,1160,1155,1151,1145,1139],"ymouse":[640,640,640,640,640,640,640,640,640,640,640,640,640,640,640,640,640,640,640,640,640,640,640,640,640,640,640,636,595,551,495,442,364,321,265,245,229,212,184,169,155,138,130,115,109,101,94],"timestamp_mouse":[10,34,47,67,88,107,127,147,168,186,207,227,247,266,287,306,327,347,367,386,407,426,446,467,486,507,526,547,567,586,606,626,646,667,687,707,726,747,766,786,806,828,847,866,886,906,926],"xSR":741.5,"ySR":573.95,"xT1":424.9,"yT1":0,"xT2":1058.1,"yT2":0,"toosoon":0,"cond_shown":"equaldotanddens","ratio_trial":900,"smaller_num":"18","larger_num":"20","correct_side":1,"subjID":"AnaSofiaGil9","gender":"1","age":"11","school":"6"},{"start_time":1551892787160,"click_time":1551892788127,"finger_time":1551892787688,"fix_duration":250,"trial":74,"RT":528,"MT":439,"sideResp":2,"stimulus":"img/500/equaldotsize/R/15_Ratio_500_L_1_R_2.png","xmouse":[788,788,788,788,788,788,788,788,788,788,788,788,788,788,788,788,788,788,788,788,788,788,788,788,789,808,857,884,910,943,980,1068,1119,1173,1234,1254,1263,1262,1257,1254,1250,1245,1241,1236,1227,1214,1186,1171,1153],"ymouse":[628,628,628,628,628,628,628,628,628,628,628,628,628,628,628,628,628,628,628,628,628,628,628,628,626,622,612,606,594,577,547,453,390,311,202,156,106,92,83,75,66,59,56,54,52,50,50,50,50],"timestamp_mouse":[10,27,47,67,89,107,128,149,167,188,207,227,247,267,287,307,328,347,367,388,407,427,447,467,488,507,528,547,567,588,607,627,647,668,688,708,727,748,767,788,807,828,847,867,888,908,928,947,967],"xSR":