[{"start_time":1551891205928,"click_time":1551891219826,"finger_time":1551891205937,"fix_duration":1178.8298997469367,"trial":0,"RT":9,"MT":13889,"sideResp":2,"stimulus":[],"xmouse":[782,782,782,782,782,782,782,782,782,782,782,782,782,782,782,782,782,782,782,782,782,782,782,782,782,782,782,782,782,782,782,782,782,782,782,782,782,782,782,782,782,782,782,782,782,782,782,782,782,782,782,782,782,782,782,782,782,782,782,782,782,782,782,782,782,778,776,775,776,780,790,797,804,812,821,832,834,834,832,826,811,803,793,779,760,732,727,723,722,726,746,754,760,763,766,776,779,782,782,782,782,782,782,782,782,782,782,782,782,782,782,782,782,782,782,782,781,781,781,781,797,807,813,815,819,831,833,833,833,829,827,826,815,804,796,792,792,792,792,792,798,802,804,804,804,804,801,794,787,785,784,784,784,784,784,785,786,787,788,792,815,830,847,866,886,907,909,909,901,886,842,825,814,809,809,809,810,810,811,814,824,833,843,849,852,853,853,853,853,853,853,853,851,848,844,839,838,838,837,837,837,838,838,838,840,840,842,845,847,848,848,845,841,833,820,779,758,742,732,728,730,735,740,745,753,776,787,796,802,803,803,803,803,803,803,803,803,802,798,792,781,780,779,779,779,779,779,779,780,782,787,787,787,787,787,787,787,787,787,789,789,790,790,790,788,774,764,758,754,750,748,748,752,760,770,801,817,828,832,833,820,803,785,780,780,784,789,794,797,797,796,796,796,794,792,784,784,784,785,789,813,824,830,831,831,831,829,819,816,807,800,800,800,800,801,803,805,807,807,807,806,801,796,794,793,793,793,795,797,804,811,811,811,811,810,803,801,801,801,801,801,801,805,807,807,807,803,800,793,791,791,791,791,791,797,810,817,818,818,818,815,810,806,804,804,804,804,796,787,782,781,781,779,768,752,739,739,739,740,749,762,767,770,770,770,770,766,750,730,721,715,722,738,758,778,806,815,818,818,815,781,757,727,703,689,689,710,748,806,896,939,940,938,918,884,833,821,819,819,826,895,936,958,961,961,854,727,600,506,476,526,618,732,859,964,1029,1024,954,732,602,540,567,703,902,1131,1434,1449,1448,1310,1078,505,356,333,341,429,766,925,1015,1027,1011,665,474,360,346,352,586,749,870,909,891,572,392,327,336,469,948,1158,1256,1264,1191,592,269,73,53,100,512,739,923,1008,1002,677,471,369,358,380,635,750,818,831,827,674,617,597,592,592,592,592,596,600,602,603,623,685,769,854,947,952,952,950,919,870,870,870,870,870,870,871,873,873,873,873,873,873,873,873,867,864,857,831,810,757,726,706,691,688,688,688,690,695,712,748,764,782,800,816,833,833,833,833,833,833,833,833,833,833,833,833,833,833,829,800,774,743,722,713,712,712,712,712,713,713,713,713,713,713,713,714,717,723,725,728,728,728,728,730,739,746,753,759,765,768,773,782,793,801,804,804,804,804,804,804,804,804,802,800,795,795,794,794,794,793,791,791,791,791,791,791,791,791,791,791,791,790,792,795,811,829,865,905,947,1045,1079,1097,1111,1123,1142,1153,1168,1179,1195,1230,1245,1253,1258,1261,1267,1268,1269,1269,1269,1267,1260,1256,1246,1232,1215,1212,1208,1198,1194,1193,1193,1193,1193,1193,1193,1193,1193,1193,1193,1193,1193,1193,1193,1193,1193,1193,1193,1193,1193,1192,1186,1180,1172,1164,1150],"ymouse":[474,474,474,474,474,474,474,474,474,474,474,474,474,474,474,474,474,474,474,474,474,474,474,475,477,493,501,515,527,537,557,564,569,573,577,586,591,594,597,599,599,599,599,599,599,599,599,599,599,599,599,599,599,599,599,599,599,599,599,599,599,599,603,607,611,624,633,645,652,657,663,663,663,657,648,625,611,598,579,570,558,557,557,558,564,579,585,594,612,623,636,637,637,634,630,608,594,571,557,544,515,502,490,481,477,477,477,477,477,477,477,477,477,477,478,496,512,530,560,587,637,652,658,659,659,629,608,581,575,563,562,562,576,602,625,646,646,646,646,646,619,596,577,569,568,568,570,586,602,606,607,607,607,607,607,602,601,600,599,598,592,582,566,544,514,462,448,441,439,444,516,576,637,690,731,769,774,774,775,769,731,712,699,693,691,691,691,691,691,691,691,691,688,681,671,653,650,648,646,644,640,634,627,623,620,617,614,610,603,598,586,580,576,574,573,589,605,624,655,673,702,710,716,718,718,704,694,684,675,673,673,673,673,673,673,673,673,671,668,662,651,649,647,646,646,645,644,643,641,635,628,627,627,627,627,627,627,627,627,627,627,627,627,627,632,642,651,658,665,672,675,675,675,669,661,646,644,644,644,644,659,673,686,689,689,686,677,664,654,643,636,636,636,635,638,658,662,664,664,662,630,611,598,590,585,585,584,594,602,631,658,662,662,662,662,654,645,634,630,630,633,644,656,664,666,666,666,659,653,631,604,601,601,601,604,621,631,636,637,637,637,630,617,610,608,608,615,623,639,651,653,653,651,645,627,587,572,569,569,569,582,599,613,622,624,624,625,602,580,566,563,563,562,578,598,626,629,629,629,607,559,538,520,509,505,505,505,516,540,557,590,602,610,611,610,595,585,573,570,563,560,567,582,598,611,624,629,629,625,599,576,572,566,564,563,572,578,581,582,582,582,582,582,582,582,585,585,585,594,599,607,607,607,607,599,588,588,588,588,589,598,601,601,601,601,579,574,573,573,575,634,657,664,664,664,664,664,664,664,664,664,664,664,664,663,629,597,568,536,516,481,502,523,531,552,575,575,575,575,571,562,562,579,584,584,584,584,576,564,562,538,548,571,581,592,633,641,641,641,641,631,631,632,633,633,633,628,619,611,610,610,610,619,630,632,632,632,632,632,635,641,641,641,641,641,641,645,647,640,632,630,630,630,630,630,627,624,621,618,618,618,618,621,625,626,626,626,625,624,621,621,621,621,621,621,621,621,621,621,621,621,621,621,621,621,621,621,621,620,619,615,615,615,615,615,616,617,618,618,618,618,618,618,618,618,618,618,619,620,620,622,622,622,622,623,623,623,623,623,623,623,623,622,619,617,615,615,615,615,615,615,615,615,615,614,612,612,611,611,611,611,611,611,611,611,611,611,611,611,611,611,611,611,609,608,600,592,576,553,520,446,417,398,381,363,332,311,279,252,220,152,124,101,75,54,20,9,0,0,0,0,0,0,0,0,0,0,1,5,6,7,7,7,7,7,7,7,7,7,7,7,7,7,7,7,7,7,7,7,7,8,12,14,16,19,24],"timestamp_mouse":[9,18,39,57,79,98,117,138,157,177,198,219,238,258,279,298,318,338,357,378,398,417,437,457,478,498,518,537,557,577,597,618,637,659,678,698,718,739,757,778,799,818,839,858,877,898,918,938,958,979,999,1019,1037,1059,1078,1098,1118,1138,1158,1178,1198,1218,1238,1259,1279,1298,1318,1338,1359,1379,1398,1417,1437,1458,1478,1498,1518,1538,1558,1578,1598,1618,1638,1659,1677,1698,1719,1739,1758,1778,1797,1818,1839,1858,1878,1898,1918,1938,1959,1979,1999,2018,2037,2058,2077,2098,2118,2139,2158,2178,2197,2218,2238,2258,2279,2298,2319,2338,2357,2377,2398,2418,2438,2458,2478,2498,2518,2538,2558,2577,2598,2618,2638,2659,2679,2698,2717,2739,2757,2778,2797,2818,2838,2858,2879,2898,2918,2937,2958,2979,2997,3018,3039,3057,3078,3098,3119,3138,3157,3178,3198,3218,3238,3258,3278,3298,3318,3338,3359,3378,3398,3418,3438,3459,3479,3498,3518,3539,3558,3579,3598,3618,3638,3658,3678,3697,3718,3738,3757,3777,3797,3818,3839,3859,3879,3898,3918,3938,3959,3978,3998,4018,4038,4058,4079,4098,4118,4139,4157,4178,4197,4218,4238,4259,4277,4298,4318,4339,4359,4378,4398,4417,4438,4458,4477,4498,4518,4539,4559,4579,4598,4618,4639,4657,4677,4698,4719,4738,4758,4778,4797,4818,4839,4858,4878,4897,4918,4938,4957,4978,4997,5018,5039,5058,5078,5099,5117,5137,5159,5178,5198,5218,5238,5258,5278,5298,5319,5339,5359,5379,5398,5418,5438,5458,5478,5497,5518,5538,5558,5577,5599,5618,5637,5659,5678,5698,5719,5738,5759,5777,5798,5818,5838,5858,5877,5897,5917,5938,5958,5979,5998,6018,6038,6059,6078,6098,6117,6138,6158,6179,6197,6218,6239,6258,6278,6298,6319,6338,6359,6378,6399,6417,6438,6458,6478,6498,6517,6538,6558,6578,6598,6617,6638,6658,6678,6697,6717,6738,6759,6777,6797,6818,6838,6858,6877,6899,6918,6937,6957,6979,6997,7018,7039,7059,7079,7098,7118,7138,7158,7177,7198,7218,7238,7258,7277,7298,7318,7338,7357,7378,7399,7418,7437,7457,7478,7498,7518,7538,7558,7579,7598,7618,7637,7657,7677,7698,7719,7738,7759,7777,7799,7818,7838,7859,7879,7898,7919,7937,7958,7977,7998,8018,8038,8059,8078,8098,8119,8138,8159,8177,8198,8217,8238,8259,8278,8297,8317,8338,8357,8378,8399,8418,8438,8457,8478,8498,8518,8538,8558,8579,8598,8618,8638,8658,8679,8698,8719,8737,8757,8778,8799,8818,8838,8858,8879,8897,8917,8938,8957,8978,8998,9017,9038,9059,9079,9097,9118,9137,9158,9178,9197,9218,9239,9257,9279,9297,9318,9337,9357,9377,9397,9418,9438,9458,9477,9497,9518,9537,9558,9578,9598,9618,9638,9659,9678,9697,9718,9738,9759,9778,9798,9818,9838,9857,9878,9897,9917,9938,9958,9978,9997,10018,10038,10059,10078,10097,10118,10139,10158,10179,10197,10217,10238,10257,10278,10297,10317,10337,10357,10377,10399,10418,10438,10458,10477,10497,10517,10537,10557,10577,10597,10618,10638,10657,10677,10697,10718,10738,10759,10778,10797,10818,10839,10858,10877,10899,10919,10939,10958,10978,10997,11018,11038,11057,11078,11098,11118,11139,11157,11178,11197,11219,11237,11257,11279,11297,11318,11338,11358,11379,11399,11418,11438,11459,11478,11498,11518,11538,11557,11578,11599,11618,11639,11658,11678,11698,11717,11737,11758,11778,11798,11818,11837,11857,11877,11898,11918,11939,11958,11979,11998,12018,12037,12057,12079,12098,12118,12138,12157,12178,12197,12217,12237,12258,12278,12299,12318,12339,12357,12377,12398,12417,12438,12457,12477,12499,12519,12538,12558,12577,12597,12619,12638,12658,12678,12697,12718,12738,12759,12779,12798,12818,12838,12857,12878,12898,12918,12938,12958,12978,12997,13018,13038,13059,13078,13098,13118,13137,13157,13178,13197,13217,13237,13259,13277,13297,13318,13338,13359,13377,13399,13419,13438,13458,13478,13498,13518,13538,13559,13577,13597,13618,13638,13658,13679,13699,13717,13738,13759,13778,13797,13818,13839,13858,13879,13898],"xSR":741.5,"ySR":458.25,"xT1":424.9,"yT1":0,"xT2":1058.1,"yT2":0,"toosoon":0,"cond_shown":"Incongruent","ratio_trial":100,"L_num":11,"L_den":22,"R_num":9,"R_den":15,"correct_side":2,"subjID":"AnaSofiaGil9","gender":"1","age":"11","school":"6","test":{"fix_dur":[250,1500],"timestim":1000,"targets_dim":[100,100],"targets_relative_coord":[0.3,0.7],"size_stim":[880,420],"start_dim":[100,100],"size_start":[300,300],"size_fix":60,"samplingrate":20,"img_types":["Congruent","Incongruent"],"ratios":[100,200,300],"rep_conds":19,"nTrials":120,"trials_to_rest":500,"Trials_order":[25,32,99,73,36,63,108,64,24,65,82,86,13,38,76,56,77,15,6,35,8,59,57,5,80,62,43,60,52,2,26,94,74,7,78,39,104,83,112,45,0,41,23,10,75,106,111,54,109,105,66,3,110,114,58,49,79,20,69,92,67,37,91,72,14,71,18,28,30,103,119,81,84,53,55,17,31,4,88,22,115,102,19,47,42,48,117,12,113,90,16,21,33,89,40,9,101,98,34,116,1,27,61,68,87,96,51,85,93,50,107,44,46,29,100,70,118,95,11,97],"cond_shown":["Incongruent","Congruent","Incongruent","Incongruent","Congruent","Incongruent","Congruent","Congruent","Congruent","Incongruent","Congruent","Congruent","Incongruent","Congruent","Congruent","Congruent","Incongruent","Incongruent","Congruent","Incongruent","Congruent","Incongruent","Incongruent","Incongruent","Congruent","Congruent","Incongruent","Congruent","Congruent","Congruent","Congruent","Congruent","Congruent","Incongruent","Congruent","Incongruent","Congruent","Incongruent","Congruent","Incongruent","Congruent","Incongruent","Incongruent","Congruent","Incongruent","Congruent","Incongruent","Congruent","Incongruent","Incongruent","Congruent","Incongruent","Congruent","Congruent","Congruent","Incongruent","Incongruent","Congruent","Incongruent","Congruent","Incongruent","Incongruent","Incongruent","Congruent","Congruent","Incongruent","Congruent","Congruent","Congruent","Incongruent","Incongruent","Incongruent","Congruent","Incongruent","Incongruent","Incongruent","Incongruent","Congruent","Congruent","Congruent","Incongruent","Congruent","Incongruent","Incongruent","Congruent","Congruent","Incongruent","Congruent","Incongruent","Congruent","Congruent","Incongruent","Incongruent","Incongruent","Congruent","Incongruent","Incongruent","Congruent","Congruent","Congruent","Incongruent","Incongruent","Incongruent","Congruent","Incongruent","Congruent","Incongruent","Incongruent","Incongruent","Congruent","Incongruent","Congruent","Congruent","Incongruent","Congruent","Congruent","Congruent","Incongruent","Incongruent","Incongruent"],"ratio_trial":[100,200,200,100,100,200,100,300,100,300,300,200,100,200,300,200,300,200,100,300,200,300,200,300,200,200,100,100,300,200,200,300,200,100,100,200,200,300,300,200,100,300,300,300,200,300,200,100,100,200,100,200,200,100,300,100,100,200,200,200,100,100,100,100,200,300,100,300,100,100,300,200,100,300,100,300,100,300,300,300,100,100,100,300,100,100,200,100,300,100,300,200,200,300,300,200,300,200,300,200,100,200,100,200,200,100,200,100,200,200,300,200,300,300,300,300,300,300,300,100],"left_num":[11,16,1,9,4,3,1,3,3,4,1,8,9,9,1,6,3,14,1,1,20,8,3,8,9,14,17,2,11,6,14,11,9,10,2,11,11,4,8,11,12,1,4,20,4,1,6,6,3,6,10,14,9,7,20,4,6,20,6,8,6,6,9,10,3,13,11,20,4,11,4,1,12,2,12,4,13,12,11,1,10,3,6,3,1,4,7,1,4,2,20,3,3,4,1,7,1,13,1,8,12,14,6,3,1,10,9,3,1,7,4,9,1,13,2,1,7,8,3,12],"right_num":[9,9,3,14,15,1,18,2,2,6,11,7,20,13,3,11,4,6,3,3,9,9,11,9,4,6,10,6,2,3,6,4,4,9,6,3,3,2,10,3,13,2,6,9,1,7,3,15,8,3,3,6,13,15,14,8,7,9,3,3,11,7,14,3,14,12,6,14,15,9,2,3,13,6,2,2,6,2,2,11,8,2,7,4,3,6,8,3,8,6,5,1,11,2,7,14,3,14,6,2,2,6,11,14,3,3,8,7,3,18,2,4,11,12,10,3,20,14,4,2],"left_den":[22,30,2,15,10,10,2,6,6,5,5,15,10,30,5,20,6,30,2,2,25,10,4,10,20,28,30,5,22,15,28,22,20,25,5,20,22,20,15,20,30,2,5,25,30,20,20,12,5,20,25,30,30,14,25,8,10,25,20,15,10,10,15,25,10,26,22,25,10,22,20,2,30,4,30,20,26,24,22,5,25,6,10,6,2,8,10,2,5,5,25,10,4,20,20,10,2,26,5,15,30,30,10,6,2,25,15,9,2,15,20,20,5,26,20,5,14,10,6,30],"right_den":[15,27,10,28,30,2,30,10,5,12,22,21,25,26,6,22,20,9,5,15,15,18,20,18,16,20,15,12,10,15,20,20,16,18,12,4,10,4,12,4,26,10,12,18,3,20,6,25,16,6,10,9,26,25,28,20,14,15,6,9,22,14,28,10,28,15,15,28,30,15,4,10,26,30,4,4,10,10,10,22,16,5,14,20,5,10,16,5,16,12,10,2,20,4,20,28,15,20,12,6,4,9,22,20,10,10,10,30,10,27,4,16,22,15,25,6,25,28,20,4],"correct_side":[2,1,1,1,2,2,2,1,1,1,2,1,1,2,2,2,1,2,2,1,1,1,1,1,1,1,2,2,1,1,1,1,1,2,2,2,1,2,2,2,2,1,1,1,2,2,2,2,1,2,1,2,2,2,1,1,1,1,2,1,1,1,1,1,2,2,1,1,2,2,2,1,2,1,2,2,2,1,1,2,2,1,1,1,2,2,1,2,1,2,1,2,1,2,2,1,1,2,2,1,2,2,1,2,1,1,2,1,1,2,2,1,2,2,2,2,2,1,1,2],"img_shown":["img2/100/Incongruent/R/I_Dist_100_LN_11_LD_22_RN_9_RD_15_1.png","img2/200/Congruent/L/C_Dist_200_LN_16_LD_30_RN_9_RD_27_0.png","img2/200/Incongruent/L/I_Dist_200_LN_1_LD_2_RN_3_RD_10_0.png","img2/100/Incongruent/L/I_Dist_100_LN_9_LD_15_RN_14_RD_28_0.png","img2/100/Congruent/R/C_Dist_100_LN_4_LD_10_RN_15_RD_30_1.png","img2/200/Incongruent/R/I_Dist_200_LN_3_LD_10_RN_1_RD_2_1.png","img2/100/Congruent/R/C_Dist_100_LN_1_LD_2_RN_18_RD_30_1.png","img2/300/Congruent/L/C_Dist_300_LN_3_LD_6_RN_2_RD_10_0.png","img2/100/Congruent/L/C_Dist_100_LN_3_LD_6_RN_2_RD_5_0.png","img2/300/Incongruent/L/I_Dist_300_LN_4_LD_5_RN_6_RD_12_0.png","img2/300/Congruent/R/C_Dist_300_LN_1_LD_5_RN_11_RD_22_1.png","img2/200/Congruent/L/C_Dist_200_LN_8_LD_15_RN_7_RD_21_0.png","img2/100/Incongruent/L/I_Dist_100_LN_9_LD_10_RN_20_RD_25_0.png","img2/200/Congruent/R/C_Dist_200_LN_9_LD_30_RN_13_RD_26_1.png","img2/300/Congruent/R/C_Dist_300_LN_1_LD_5_RN_3_RD_6_1.png","img2/200/Congruent/R/C_Dist_200_LN_6_LD_20_RN_11_RD_22_1.png","img2/300/Incongruent/L/I_Dist_300_LN_3_LD_6_RN_4_RD_20_0.png","img2/200/Incongruent/R/I_Dist_200_LN_14_LD_30_RN_6_RD_9_1.png","img2/100/Congruent/R/C_Dist_100_LN_1_LD_2_RN_3_RD_5_1.png","img2/300/Incongruent/L/I_Dist_300_LN_1_LD_2_RN_3_RD_15_0.png","img2/200/Congruent/L/C_Dist_200_LN_20_LD_25_RN_9_RD_15_0.png","img2/300/Incongruent/L/I_Dist_300_LN_8_LD_10_RN_9_RD_18_0.png","img2/200/Incongruent/L/I_Dist_200_LN_3_LD_4_RN_11_RD_20_0.png","img2/300/Incongruent/L/I_Dist_300_LN_8_LD_10_RN_9_RD_18_0.png","img2/200/Congruent/L/C_Dist_200_LN_9_LD_20_RN_4_RD_16_0.png","img2/200/Congruent/L/C_Dist_200_LN_14_LD_28_RN_6_RD_20_0.png","img2/100/Incongruent/R/I_Dist_100_LN_17_LD_30_RN_10_RD_15_1.png","img2/100/Congruent/R/C_Dist_100_LN_2_LD_5_RN_6_RD_12_1.png","img2/300/Congruent/L/C_Dist_300_LN_11_LD_22_RN_2_RD_10_0.png","img2/200/Congruent/L/C_Dist_200_LN_6_LD_15_RN_3_RD_15_0.png","img2/200/Congruent/L/C_Dist_200_LN_14_LD_28_RN_6_RD_20_0.png","img2/300/Congruent/L/C_Dist_300_LN_11_LD_22_RN_4_RD_20_0.png","img2/200/Congruent/L/C_Dist_200_LN_9_LD_20_RN_4_RD_16_0.png","img2/100/Incongruent/R/I_Dist_100_LN_10_LD_25_RN_9_RD_18_1.png","img2/100/Congruent/R/C_Dist_100_LN_2_LD_5_RN_6_RD_12_1.png","img2/200/Incongruent/R/I_Dist_200_LN_11_LD_20_RN_3_RD_4_1.png","img2/200/Congruent/L/C_Dist_200_LN_11_LD_22_RN_3_RD_10_0.png","img2/300/Incongruent/R/I_Dist_300_LN_4_LD_20_RN_2_RD_4_1.png","img2/300/Congruent/R/C_Dist_300_LN_8_LD_15_RN_10_RD_12_1.png","img2/200/Incongruent/R/I_Dist_200_LN_11_LD_20_RN_3_RD_4_1.png","img2/100/Congruent/R/C_Dist_100_LN_12_LD_30_RN_13_RD_26_1.png","img2/300/Incongruent/L/I_Dist_300_LN_1_LD_2_RN_2_RD_10_0.png","img2/300/Incongruent/L/I_Dist_300_LN_4_LD_5_RN_6_RD_12_0.png","img2/300/Congruent/L/C_Dist_300_LN_20_LD_25_RN_9_RD_18_0.png","img2/200/Incongruent/R/I_Dist_200_LN_4_LD_30_RN_1_RD_3_1.png","img2/300/Congruent/R/C_Dist_300_LN_1_LD_20_RN_7_RD_20_1.png","img2/200/Incongruent/R/I_Dist_200_LN_6_LD_20_RN_3_RD_6_1.png","img2/100/Congruent/R/C_Dist_100_LN_6_LD_12_RN_15_RD_25_1.png","img2/100/Incongruent/L/I_Dist_100_LN_3_LD_5_RN_8_RD_16_0.png","img2/200/Incongruent/R/I_Dist_200_LN_6_LD_20_RN_3_RD_6_1.png","img2/100/Congruent/L/C_Dist_100_LN_10_LD_25_RN_3_RD_10_0.png","img2/200/Incongruent/R/I_Dist_200_LN_14_LD_30_RN_6_RD_9_1.png","img2/200/Congruent/R/C_Dist_200_LN_9_LD_30_RN_13_RD_26_1.png","img2/100/Congruent/R/C_Dist_100_LN_7_LD_14_RN_15_RD_25_1.png","img2/300/Congruent/L/C_Dist_300_LN_20_LD_25_RN_14_RD_28_0.png","img2/100/Incongruent/L/I_Dist_100_LN_4_LD_8_RN_8_RD_20_0.png","img2/100/Incongruent/L/I_Dist_100_LN_6_LD_10_RN_7_RD_14_0.png","img2/200/Congruent/L/C_Dist_200_LN_20_LD_25_RN_9_RD_15_0.png","img2/200/Incongruent/R/I_Dist_200_LN_6_LD_20_RN_3_RD_6_1.png","img2/200/Congruent/L/C_Dist_200_LN_8_LD_15_RN_3_RD_9_0.png","img2/100/Incongruent/L/I_Dist_100_LN_6_LD_10_RN_11_RD_22_0.png","img2/100/Incongruent/L/I_Dist_100_LN_6_LD_10_RN_7_RD_14_0.png","img2/100/Incongruent/L/I_Dist_100_LN_9_LD_15_RN_14_RD_28_0.png","img2/100/Congruent/L/C_Dist_100_LN_10_LD_25_RN_3_RD_10_0.png","img2/200/Congruent/R/C_Dist_200_LN_3_LD_10_RN_14_RD_28_1.png","img2/300/Incongruent/R/I_Dist_300_LN_13_LD_26_RN_12_RD_15_1.png","img2/100/Congruent/L/C_Dist_100_LN_11_LD_22_RN_6_RD_15_0.png","img2/300/Congruent/L/C_Dist_300_LN_20_LD_25_RN_14_RD_28_0.png","img2/100/Congruent/R/C_Dist_100_LN_4_LD_10_RN_15_RD_30_1.png","img2/100/Incongruent/R/I_Dist_100_LN_11_LD_22_RN_9_RD_15_1.png","img2/300/Incongruent/R/I_Dist_300_LN_4_LD_20_RN_2_RD_4_1.png","img2/200/Incongruent/L/I_Dist_200_LN_1_LD_2_RN_3_RD_10_0.png","img2/100/Congruent/R/C_Dist_100_LN_12_LD_30_RN_13_RD_26_1.png","img2/300/Incongruent/L/I_Dist_300_LN_2_LD_4_RN_6_RD_30_0.png","img2/100/Incongruent/R/I_Dist_100_LN_12_LD_30_RN_2_RD_4_1.png","img2/300/Incongruent/R/I_Dist_300_LN_4_LD_20_RN_2_RD_4_1.png","img2/100/Incongruent/R/I_Dist_100_LN_13_LD_26_RN_6_RD_10_1.png","img2/300/Congruent/L/C_Dist_300_LN_12_LD_24_RN_2_RD_10_0.png","img2/300/Congruent/L/C_Dist_300_LN_11_LD_22_RN_2_RD_10_0.png","img2/300/Congruent/R/C_Dist_300_LN_1_LD_5_RN_11_RD_22_1.png","img2/100/Incongruent/R/I_Dist_100_LN_10_LD_25_RN_8_RD_16_1.png","img2/100/Congruent/L/C_Dist_100_LN_3_LD_6_RN_2_RD_5_0.png","img2/100/Incongruent/L/I_Dist_100_LN_6_LD_10_RN_7_RD_14_0.png","img2/300/Incongruent/L/I_Dist_300_LN_3_LD_6_RN_4_RD_20_0.png","img2/100/Congruent/R/C_Dist_100_LN_1_LD_2_RN_3_RD_5_1.png","img2/100/Congruent/R/C_Dist_100_LN_4_LD_8_RN_6_RD_10_1.png","img2/200/Incongruent/L/I_Dist_200_LN_7_LD_10_RN_8_RD_16_0.png","img2/100/Congruent/R/C_Dist_100_LN_1_LD_2_RN_3_RD_5_1.png","img2/300/Incongruent/L/I_Dist_300_LN_4_LD_5_RN_8_RD_16_0.png","img2/100/Congruent/R/C_Dist_100_LN_2_LD_5_RN_6_RD_12_1.png","img2/300/Congruent/L/C_Dist_300_LN_20_LD_25_RN_5_RD_10_0.png","img2/200/Incongruent/R/I_Dist_200_LN_3_LD_10_RN_1_RD_2_1.png","img2/200/Incongruent/L/I_Dist_200_LN_3_LD_4_RN_11_RD_20_0.png","img2/300/Incongruent/R/I_Dist_300_LN_4_LD_20_RN_2_RD_4_1.png","img2/300/Congruent/R/C_Dist_300_LN_1_LD_20_RN_7_RD_20_1.png","img2/200/Incongruent/L/I_Dist_200_LN_7_LD_10_RN_14_RD_28_0.png","img2/300/Incongruent/L/I_Dist_300_LN_1_LD_2_RN_3_RD_15_0.png","img2/200/Congruent/R/C_Dist_200_LN_13_LD_26_RN_14_RD_20_1.png","img2/300/Congruent/R/C_Dist_300_LN_1_LD_5_RN_6_RD_12_1.png","img2/200/Congruent/L/C_Dist_200_LN_8_LD_15_RN_2_RD_6_0.png","img2/100/Incongruent/R/I_Dist_100_LN_12_LD_30_RN_2_RD_4_1.png","img2/200/Incongruent/R/I_Dist_200_LN_14_LD_30_RN_6_RD_9_1.png","img2/100/Incongruent/L/I_Dist_100_LN_6_LD_10_RN_11_RD_22_0.png","img2/200/Congruent/R/C_Dist_200_LN_3_LD_6_RN_14_RD_20_1.png","img2/200/Incongruent/L/I_Dist_200_LN_1_LD_2_RN_3_RD_10_0.png","img2/100/Congruent/L/C_Dist_100_LN_10_LD_25_RN_3_RD_10_0.png","img2/200/Incongruent/R/I_Dist_200_LN_9_LD_15_RN_8_RD_10_1.png","img2/100/Incongruent/L/I_Dist_100_LN_3_LD_9_RN_7_RD_30_0.png","img2/200/Incongruent/L/I_Dist_200_LN_1_LD_2_RN_3_RD_10_0.png","img2/200/Congruent/R/C_Dist_200_LN_7_LD_15_RN_18_RD_27_1.png","img2/300/Incongruent/R/I_Dist_300_LN_4_LD_20_RN_2_RD_4_1.png","img2/200/Congruent/L/C_Dist_200_LN_9_LD_20_RN_4_RD_16_0.png","img2/300/Congruent/R/C_Dist_300_LN_1_LD_5_RN_11_RD_22_1.png","img2/300/Incongruent/R/I_Dist_300_LN_13_LD_26_RN_12_RD_15_1.png","img2/300/Congruent/R/C_Dist_300_LN_2_LD_20_RN_10_RD_25_1.png","img2/300/Congruent/R/C_Dist_300_LN_1_LD_5_RN_3_RD_6_1.png","img2/300/Congruent/R/C_Dist_300_LN_7_LD_14_RN_20_RD_25_1.png","img2/300/Incongruent/L/I_Dist_300_LN_8_LD_10_RN_14_RD_28_0.png","img2/300/Incongruent/L/I_Dist_300_LN_3_LD_6_RN_4_RD_20_0.png","img2/100/Incongruent/R/I_Dist_100_LN_12_LD_30_RN_2_RD_4_1.png"],"dist100_C":[["C_Dist_100_LN_10_LD_25_RN_3_RD_10_0.png","C_Dist_100_LN_11_LD_22_RN_4_RD_10_0.png","C_Dist_100_LN_11_LD_22_RN_6_RD_15_0.png","C_Dist_100_LN_15_LD_25_RN_13_RD_26_0.png","C_Dist_100_LN_3_LD_6_RN_2_RD_5_0.png","C_Dist_100_LN_6_LD_20_RN_5_RD_25_0.png","C_Dist_100_LN_8_LD_16_RN_2_RD_5_0.png","C_Dist_100_LN_9_LD_15_RN_8_RD_16_0.png"],["C_Dist_100_LN_1_LD_2_RN_18_RD_30_1.png","C_Dist_100_LN_1_LD_2_RN_3_RD_5_1.png","C_Dist_100_LN_12_LD_30_RN_13_RD_26_1.png","C_Dist_100_LN_2_LD_5_RN_11_RD_22_1.png","C_Dist_100_LN_2_LD_5_RN_6_RD_12_1.png","C_Dist_100_LN_3_LD_20_RN_4_RD_16_1.png","C_Dist_100_LN_4_LD_10_RN_15_RD_30_1.png","C_Dist_100_LN_4_LD_8_RN_6_RD_10_1.png","C_Dist_100_LN_6_LD_12_RN_15_RD_25_1.png","C_Dist_100_LN_7_LD_14_RN_15_RD_25_1.png","C_Dist_100_LN_7_LD_14_RN_9_RD_15_1.png"]],"dist100_I":[["I_Dist_100_LN_1_LD_2_RN_8_RD_20_0.png","I_Dist_100_LN_2_LD_4_RN_6_RD_15_0.png","I_Dist_100_LN_2_LD_4_RN_8_RD_20_0.png","I_Dist_100_LN_3_LD_5_RN_11_RD_22_0.png","I_Dist_100_LN_3_LD_5_RN_8_RD_16_0.png","I_Dist_100_LN_3_LD_6_RN_4_RD_10_0.png","I_Dist_100_LN_3_LD_9_RN_7_RD_30_0.png","I_Dist_100_LN_4_LD_8_RN_8_RD_20_0.png","I_Dist_100_LN_6_LD_10_RN_11_RD_22_0.png","I_Dist_100_LN_6_LD_10_RN_13_RD_26_0.png","I_Dist_100_LN_6_LD_10_RN_7_RD_14_0.png","I_Dist_100_LN_9_LD_10_RN_20_RD_25_0.png","I_Dist_100_LN_9_LD_15_RN_13_RD_26_0.png","I_Dist_100_LN_9_LD_15_RN_14_RD_28_0.png"],["I_Dist_100_LN_10_LD_25_RN_8_RD_16_1.png","I_Dist_100_LN_10_LD_25_RN_9_RD_18_1.png","I_Dist_100_LN_11_LD_22_RN_9_RD_15_1.png","I_Dist_100_LN_12_LD_24_RN_9_RD_15_1.png","I_Dist_100_LN_12_LD_30_RN_2_RD_4_1.png","I_Dist_100_LN_13_LD_26_RN_12_RD_20_1.png","I_Dist_100_LN_13_LD_26_RN_6_RD_10_1.png","I_Dist_100_LN_17_LD_30_RN_10_RD_15_1.png","I_Dist_100_LN_6_LD_12_RN_3_RD_5_1.png","I_Dist_100_LN_8_LD_16_RN_6_RD_10_1.png","I_Dist_100_LN_8_LD_20_RN_1_RD_2_1.png","I_Dist_100_LN_9_LD_18_RN_6_RD_10_1.png"]],"dist100_S":[["E_Dist_100_LN_2_LD_12_RN_2_RD_30_0.png","E_Dist_100_LN_6_LD_10_RN_6_RD_12_0.png"],["E_Dist_100_LN_6_LD_12_RN_6_RD_10_1.png"]],"dist200_C":[["C_Dist_200_LN_11_LD_22_RN_3_RD_10_0.png","C_Dist_200_LN_12_LD_15_RN_6_RD_10_0.png","C_Dist_200_LN_12_LD_20_RN_6_RD_15_0.png","C_Dist_200_LN_14_LD_28_RN_6_RD_20_0.png","C_Dist_200_LN_15_LD_25_RN_4_RD_10_0.png","C_Dist_200_LN_16_LD_20_RN_12_RD_20_0.png","C_Dist_200_LN_16_LD_30_RN_9_RD_27_0.png","C_Dist_200_LN_20_LD_25_RN_9_RD_15_0.png","C_Dist_200_LN_21_LD_30_RN_2_RD_4_0.png","C_Dist_200_LN_4_LD_10_RN_3_RD_15_0.png","C_Dist_200_LN_4_LD_8_RN_3_RD_10_0.png","C_Dist_200_LN_6_LD_15_RN_3_RD_15_0.png","C_Dist_200_LN_7_LD_21_RN_2_RD_15_0.png","C_Dist_200_LN_8_LD_15_RN_2_RD_6_0.png","C_Dist_200_LN_8_LD_15_RN_3_RD_9_0.png","C_Dist_200_LN_8_LD_15_RN_7_RD_21_0.png","C_Dist_200_LN_9_LD_20_RN_4_RD_16_0.png"],["C_Dist_200_LN_1_LD_2_RN_21_RD_30_1.png","C_Dist_200_LN_13_LD_26_RN_14_RD_20_1.png","C_Dist_200_LN_3_LD_10_RN_11_RD_22_1.png","C_Dist_200_LN_3_LD_10_RN_14_RD_28_1.png","C_Dist_200_LN_3_LD_10_RN_7_RD_14_1.png","C_Dist_200_LN_3_LD_12_RN_9_RD_20_1.png","C_Dist_200_LN_3_LD_6_RN_14_RD_20_1.png","C_Dist_200_LN_5_LD_10_RN_14_RD_20_1.png","C_Dist_200_LN_6_LD_12_RN_7_RD_10_1.png","C_Dist_200_LN_6_LD_20_RN_11_RD_22_1.png","C_Dist_200_LN_7_LD_15_RN_18_RD_27_1.png","C_Dist_200_LN_9_LD_30_RN_13_RD_26_1.png"]],"dist200_I":[["I_Dist_200_LN_1_LD_2_RN_3_RD_10_0.png","I_Dist_200_LN_1_LD_3_RN_2_RD_15_0.png","I_Dist_200_LN_3_LD_4_RN_11_RD_20_0.png","I_Dist_200_LN_4_LD_5_RN_6_RD_10_0.png","I_Dist_200_LN_4_LD_6_RN_14_RD_30_0.png","I_Dist_200_LN_7_LD_10_RN_12_RD_24_0.png","I_Dist_200_LN_7_LD_10_RN_14_RD_28_0.png","I_Dist_200_LN_7_LD_10_RN_8_RD_16_0.png"],["I_Dist_200_LN_11_LD_20_RN_3_RD_4_1.png","I_Dist_200_LN_14_LD_30_RN_12_RD_18_1.png","I_Dist_200_LN_14_LD_30_RN_6_RD_9_1.png","I_Dist_200_LN_3_LD_10_RN_1_RD_2_1.png","I_Dist_200_LN_4_LD_30_RN_1_RD_3_1.png","I_Dist_200_LN_6_LD_20_RN_3_RD_6_1.png","I_Dist_200_LN_7_LD_15_RN_4_RD_6_1.png","I_Dist_200_LN_7_LD_15_RN_6_RD_9_1.png","I_Dist_200_LN_9_LD_15_RN_8_RD_10_1.png"]],"dist200_S":[["E_Dist_200_LN_3_LD_6_RN_3_RD_10_0.png"],["E_Dist_200_LN_3_LD_10_RN_3_RD_6_1.png"]],"dist300_C":[["C_Dist_300_LN_11_LD_22_RN_1_RD_5_0.png","C_Dist_300_LN_11_LD_22_RN_2_RD_10_0.png","C_Dist_300_LN_11_LD_22_RN_4_RD_20_0.png","C_Dist_300_LN_12_LD_24_RN_2_RD_10_0.png","C_Dist_300_LN_18_LD_20_RN_9_RD_15_0.png","C_Dist_300_LN_20_LD_25_RN_13_RD_26_0.png","C_Dist_300_LN_20_LD_25_RN_14_RD_28_0.png","C_Dist_300_LN_20_LD_25_RN_5_RD_10_0.png","C_Dist_300_LN_20_LD_25_RN_8_RD_16_0.png","C_Dist_300_LN_20_LD_25_RN_9_RD_18_0.png","C_Dist_300_LN_24_LD_30_RN_2_RD_4_0.png","C_Dist_300_LN_24_LD_30_RN_8_RD_16_0.png","C_Dist_300_LN_3_LD_6_RN_2_RD_10_0.png","C_Dist_300_LN_4_LD_10_RN_1_RD_10_0.png","C_Dist_300_LN_4_LD_5_RN_2_RD_4_0.png","C_Dist_300_LN_8_LD_16_RN_1_RD_5_0.png","C_Dist_300_LN_9_LD_10_RN_3_RD_5_0.png"],["C_Dist_300_LN_1_LD_20_RN_7_RD_20_1.png","C_Dist_300_LN_1_LD_3_RN_19_RD_30_1.png","C_Dist_300_LN_1_LD_30_RN_8_RD_24_1.png","C_Dist_300_LN_1_LD_5_RN_11_RD_22_1.png","C_Dist_300_LN_1_LD_5_RN_3_RD_6_1.png","C_Dist_300_LN_1_LD_5_RN_6_RD_12_1.png","C_Dist_300_LN_2_LD_10_RN_12_RD_24_1.png","C_Dist_300_LN_2_LD_20_RN_10_RD_25_1.png","C_Dist_300_LN_3_LD_12_RN_11_RD_20_1.png","C_Dist_300_LN_3_LD_6_RN_4_RD_5_1.png","C_Dist_300_LN_4_LD_20_RN_13_RD_26_1.png","C_Dist_300_LN_5_LD_25_RN_6_RD_12_1.png","C_Dist_300_LN_5_LD_25_RN_7_RD_14_1.png","C_Dist_300_LN_7_LD_14_RN_20_RD_25_1.png","C_Dist_300_LN_8_LD_15_RN_10_RD_12_1.png"]],"dist300_I":[["I_Dist_300_LN_1_LD_2_RN_2_RD_10_0.png","I_Dist_300_LN_1_LD_2_RN_3_RD_15_0.png","I_Dist_300_LN_2_LD_4_RN_6_RD_30_0.png","I_Dist_300_LN_3_LD_6_RN_4_RD_20_0.png","I_Dist_300_LN_4_LD_5_RN_6_RD_12_0.png","I_Dist_300_LN_4_LD_5_RN_8_RD_16_0.png","I_Dist_300_LN_7_LD_10_RN_8_RD_20_0.png","I_Dist_300_LN_8_LD_10_RN_14_RD_28_0.png","I_Dist_300_LN_8_LD_10_RN_9_RD_18_0.png"],["I_Dist_300_LN_13_LD_26_RN_12_RD_15_1.png","I_Dist_300_LN_4_LD_20_RN_2_RD_4_1.png"]],"dist300_S":[["E_Dist_300_LN_9_LD_12_RN_9_RD_20_0.png"],["E_Dist_300_LN_18_LD_30_RN_18_RD_20_1.png","E_Dist_300_LN_3_LD_10_RN_3_RD_5_1.png","E_Dist_300_LN_9_LD_20_RN_9_RD_12_1.png"]],"dist500_C":[["C_Dist_500_LN_10_LD_13_RN_7_RD_26_0.png","C_Dist_500_LN_10_LD_15_RN_4_RD_24_0.png","C_Dist_500_LN_12_LD_16_RN_3_RD_12_0.png","C_Dist_500_LN_12_LD_18_RN_4_RD_24_0.png","C_Dist_500_LN_15_LD_18_RN_5_RD_15_0.png","C_Dist_500_LN_15_LD_20_RN_1_RD_4_0.png","C_Dist_500_LN_18_LD_27_RN_1_RD_6_0.png","C_Dist_500_LN_20_LD_24_RN_1_RD_3_0.png","C_Dist_500_LN_20_LD_24_RN_3_RD_9_0.png","C_Dist_500_LN_20_LD_24_RN_7_RD_21_0.png","C_Dist_500_LN_20_LD_28_RN_3_RD_14_0.png","C_Dist_500_LN_21_LD_28_RN_6_RD_24_0.png","C_Dist_500_LN_22_LD_28_RN_2_RD_7_0.png","C_Dist_500_LN_25_LD_30_RN_9_RD_27_0.png","C_Dist_500_LN_4_LD_6_RN_1_RD_6_0.png","C_Dist_500_LN_5_LD_6_RN_2_RD_6_0.png","C_Dist_500_LN_6_LD_9_RN_1_RD_6_0.png","C_Dist_500_LN_7_LD_10_RN_1_RD_5_0.png","C_Dist_500_LN_8_LD_12_RN_1_RD_6_0.png","C_Dist_500_LN_8_LD_12_RN_4_RD_24_0.png"],["C_Dist_500_LN_1_LD_4_RN_12_RD_16_1.png","C_Dist_500_LN_1_LD_4_RN_9_RD_12_1.png","C_Dist_500_LN_1_LD_9_RN_11_RD_18_1.png","C_Dist_500_LN_10_LD_24_RN_22_RD_24_1.png","C_Dist_500_LN_2_LD_12_RN_10_RD_15_1.png","C_Dist_500_LN_2_LD_12_RN_12_RD_18_1.png","C_Dist_500_LN_2_LD_12_RN_4_RD_6_1.png","C_Dist_500_LN_2_LD_24_RN_7_RD_12_1.png","C_Dist_500_LN_2_LD_5_RN_18_RD_20_1.png","C_Dist_500_LN_2_LD_5_RN_9_RD_10_1.png","C_Dist_500_LN_2_LD_8_RN_12_RD_16_1.png","C_Dist_500_LN_2_LD_8_RN_21_RD_28_1.png","C_Dist_500_LN_3_LD_10_RN_4_RD_5_1.png","C_Dist_500_LN_3_LD_12_RN_15_RD_20_1.png","C_Dist_500_LN_3_LD_30_RN_6_RD_10_1.png","C_Dist_500_LN_3_LD_8_RN_14_RD_16_1.png","C_Dist_500_LN_4_LD_16_RN_15_RD_20_1.png","C_Dist_500_LN_4_LD_24_RN_12_RD_18_1.png","C_Dist_500_LN_5_LD_14_RN_6_RD_7_1.png","C_Dist_500_LN_7_LD_21_RN_20_RD_24_1.png","C_Dist_500_LN_7_LD_28_RN_12_RD_16_1.png","C_Dist_500_LN_7_LD_28_RN_9_RD_12_1.png","C_Dist_500_LN_9_LD_27_RN_20_RD_24_1.png"]],"dist500_I":[["I_Dist_500_LN_2_LD_3_RN_4_RD_24_0.png","I_Dist_500_LN_5_LD_6_RN_6_RD_18_0.png","I_Dist_500_LN_7_LD_8_RN_9_RD_24_0.png"],["I_Dist_500_LN_7_LD_21_RN_5_RD_6_1.png"]],"dist500_S":[["E_Dist_500_LN_6_LD_8_RN_6_RD_24_0.png"],["E_Dist_500_LN_2_LD_12_RN_2_RD_3_1.png","E_Dist_500_LN_6_LD_24_RN_6_RD_8_1.png"]]}},{"start_time":1551891222567,"click_time":1551891236127,"finger_time":1551891235566,"fix_duration":1180.7662831246987,"trial":1,"RT":12999,"MT":561,"sideResp":2,"stimulus":[],"xmouse":[793,793,793,793,793,793,793,793,793,793,793,793,793,793,793,793,793,793,793,793,793,793,793,793,793,793,793,793,793,793,793,793,793,793,793,793,793,793,793,793,793,793,793,793,793,793,793,793,793,793,793,793,793,793,793,793,793,793,793,793,793,793,793,793,793,793,793,793,793,793,793,793,793,793,793,793,793,793,793,793,793,793,793,793,793,793,793,793,793,793,793,793,793,793,793,793,793,793,793,793,793,793,793,793,793,793,793,793,793,793,793,793,793,793,793,793,793,793,793,788,788,788,789,790,794,798,798,798,798,798,798,798,798,798,798,798,798,798,798,798,798,798,798,798,798,798,798,798,798,798,798,798,798,798,798,798,798,798,798,798,798,798,798,798,798,798,798,798,798,798,798,798,798,798,798,798,798,798,798,798,798,798,798,798,798,798,798,798,798,798,798,798,798,798,798,798,798,798,798,798,798,798,798,798,798,798,798,798,798,798,798,798,798,798,798,798,798,798,798,798,798,798,798,798,798,798,798,798,798,798,798,798,798,798,798,798,798,798,798,798,798,798,798,798,798,798,798,798,798,798,798,798,798,798,798,798,798,798,798,798,798,798,798,798,798,798,798,798,798,798,798,798,798,798,798,798,798,798,798,798,798,798,798,798,798,798,798,798,798,798,798,798,798,798,798,798,798,798,798,798,798,798,798,798,798,798,798,798,798,798,798,798,798,798,798,798,798,798,798,798,798,798,798,798,798,798,798,798,798,798,798,798,798,798,798,798,798,798,798,798,798,798,798,798,798,798,798,798,798,798,798,798,798,798,798,798,798,798,798,798,798,798,798,798,798,798,798,798,798,798,798,798,798,798,798,798,798,798,798,798,798,798,798,798,798,798,798,798,798,798,798,798,798,798,798,798,798,798,798,798,798,798,798,798,798,798,798,798,798,798,798,798,798,798,798,798,798,798,798,798,798,798,798,798,798,798,798,798,798,798,798,798,798,798,798,798,798,798,798,798,798,798,798,798,798,798,798,798,798,798,798,798,798,798,798,798,798,798,798,798,798,798,798,798,798,798,798,798,798,798,798,798,798,798,798,798,798,798,798,798,798,798,798,798,798,798,798,798,798,798,798,798,798,798,798,798,798,798,798,798,798,798,798,798,798,798,798,798,798,798,798,798,798,798,798,798,798,798,798,798,798,798,798,798,798,798,798,798,798,798,798,798,798,798,798,798,798,798,798,798,798,798,798,798,798,798,798,798,798,798,798,798,798,798,798,798,798,798,798,798,798,798,798,798,798,798,798,798,798,798,798,798,798,798,798,798,798,798,798,798,798,798,798,798,798,798,798,798,798,798,798,798,798,798,798,798,798,798,798,798,798,798,798,798,798,798,798,798,798,798,798,798,798,798,798,798,798,798,798,798,798,798,798,798,798,798,798,798,798,798,798,798,798,798,798,798,798,798,798,798,798,798,798,798,798,798,798,798,817,886,959,1030,1119,1127,1128,1127,1127,1127,1127,1126,1125,1124,1126,1129,1131,1131,1124,1109,1104,1100,1097,1097,1097,1097,1097,1097,1097,1097],"ymouse":[649,649,649,649,649,649,649,649,649,649,649,649,649,649,649,649,649,649,649,649,649,649,649,649,649,649,649,649,649,649,649,649,649,649,648,645,644,643,642,642,642,642,642,642,642,642,642,642,642,642,642,642,642,642,642,642,642,642,642,642,642,642,642,642,642,642,642,642,642,642,642,642,642,642,642,642,642,642,642,642,642,642,642,642,642,642,642,642,642,642,642,642,642,642,642,642,642,642,642,642,642,642,642,642,642,642,642,642,642,642,642,642,642,642,642,642,642,642,642,642,642,642,639,639,638,637,637,637,637,637,637,637,637,637,637,637,637,637,637,637,637,637,637,637,637,637,637,637,637,637,637,637,637,637,637,637,637,637,637,637,637,637,637,637,637,637,637,637,637,637,637,637,637,637,637,637,637,637,637,637,637,637,637,637,637,637,637,637,637,637,637,637,637,637,637,637,637,637,637,637,637,637,637,637,637,637,637,637,637,637,637,637,637,637,637,637,637,637,637,637,637,637,637,637,637,637,637,637,637,637,637,637,637,637,637,637,637,637,637,637,637,637,637,637,637,637,637,637,637,637,637,637,637,637,637,637,637,637,637,637,637,637,637,637,637,637,637,637,637,637,637,637,637,637,637,637,637,637,637,637,637,637,637,637,637,637,637,637,637,637,637,637,637,637,637,637,637,637,637,637,637,637,637,637,637,637,637,637,637,637,637,637,637,637,637,637,637,637,637,637,637,637,637,637,637,637,637,637,637,637,637,637,637,637,637,637,637,637,637,637,637,637,637,637,637,637,637,637,637,637,637,637,637,637,637,637,637,637,637,637,637,637,637,637,637,637,637,637,637,637,637,637,637,637,637,637,637,637,637,637,637,637,637,637,637,637,637,637,637,637,637,637,637,637,637,637,637,637,637,637,637,637,637,637,637,637,637,637,637,637,637,637,637,637,637,637,637,637,637,637,637,637,637,637,637,637,637,637,637,637,637,637,637,637,637,637,637,637,637,637,637,637,637,637,637,637,637,637,637,637,637,637,637,637,637,637,637,637,637,637,637,637,637,637,637,637,637,637,637,637,637,637,637,637,637,637,637,637,637,637,637,637,637,637,637,637,637,637,637,637,637,637,637,637,637,637,637,637,637,637,637,637,637,637,637,637,637,637,637,637,637,637,637,637,637,637,637,637,637,637,637,637,637,637,637,637,637,637,637,637,637,637,637,637,637,637,637,637,637,637,637,637,637,637,637,637,637,637,637,637,637,637,637,637,637,637,637,637,637,637,637,637,637,637,637,637,637,637,637,637,637,637,637,637,637,637,637,637,637,637,637,637,637,637,637,637,637,637,637,637,637,637,637,637,637,637,637,637,637,637,637,637,637,637,637,637,637,637,637,637,637,637,637,637,637,637,637,637,637,637,637,637,637,637,637,637,637,637,637,637,637,637,637,637,637,637,637,637,637,637,637,637,637,637,637,637,637,637,616,536,468,420,361,344,333,324,320,320,320,318,313,302,276,255,232,193,166,121,112,107,102,102,102,102,102,102,102,94],"timestamp_mouse":[18,43,58,78,99,119,139,158,180,199,219,238,258,278,299,319,339,358,380,398,419,438,460,479,499,518,539,558,578,599,620,640,659,679,699,720,739,760,778,799,820,839,858,879,899,918,940,960,978,999,1020,1039,1059,1078,1099,1119,1139,1159,1178,1199,1218,1239,1259,1279,1299,1318,1339,1359,1380,1398,1419,1438,1460,1480,1498,1520,1539,1560,1578,1600,1618,1639,1658,1680,1699,1719,1740,1758,1778,1799,1819,1839,1859,1878,1900,1920,1939,1958,1980,1998,2020,2040,2058,2080,2098,2118,2139,2158,2180,2198,2219,2238,2260,2279,2298,2320,2338,2358,2379,2400,2420,2439,2459,2480,2499,2520,2540,2558,2580,2599,2619,2640,2659,2680,2699,2720,2739,2759,2779,2799,2818,2839,2858,2880,2898,2920,2939,2958,2979,3000,3020,3040,3059,3078,3099,3119,3140,3159,3179,3199,3220,3238,3259,3279,3299,3319,3340,3360,3379,3399,3420,3439,3458,3478,3499,3518,3539,3559,3578,3598,3619,3638,3658,3678,3699,3719,3739,3758,3780,3799,3820,3838,3858,3878,3900,3919,3939,3959,3980,3998,4019,4038,4060,4080,4099,4120,4140,4158,4180,4199,4220,4240,4260,4280,4298,4320,4339,4358,4380,4400,4420,4438,4459,4479,4498,4518,4539,4558,4578,4600,4619,4640,4659,4679,4699,4720,4740,4759,4779,4799,4819,4838,4859,4878,4900,4918,4939,4959,4979,4999,5019,5039,5059,5079,5099,5119,5139,5158,5178,5199,5218,5240,5258,5278,5300,5319,5338,5358,5380,5400,5418,5439,5459,5479,5498,5519,5540,5558,5579,5599,5618,5640,5658,5678,5699,5718,5740,5759,5779,5799,5818,5840,5858,5878,5900,5919,5940,5959,5979,6000,6018,6039,6058,6080,6098,6120,6138,6160,6180,6198,6220,6239,6260,6280,6299,6318,6339,6358,6378,6399,6419,6438,6460,6478,6498,6518,6538,6558,6578,6600,6620,6639,6659,6680,6699,6718,6739,6759,6780,6799,6819,6839,6858,6878,6899,6918,6940,6958,6978,6999,7020,7040,7059,7079,7098,7119,7140,7160,7178,7200,7220,7239,7259,7280,7299,7319,7339,7360,7378,7400,7419,7439,7459,7480,7498,7520,7539,7559,7580,7599,7620,7639,7660,7678,7698,7719,7738,7759,7780,7798,7820,7838,7858,7880,7898,7919,7939,7960,7980,7999,8018,8039,8058,8078,8098,8119,8139,8158,8178,8199,8219,8240,8258,8278,8300,8319,8338,8360,8379,8400,8418,8439,8460,8478,8498,8518,8539,8559,8579,8598,8618,8639,8660,8678,8698,8719,8739,8758,8779,8799,8819,8839,8860,8879,8899,8918,8939,8958,8979,8998,9019,9040,9059,9078,9100,9118,9138,9160,9179,9199,9218,9238,9259,9280,9299,9320,9339,9360,9378,9399,9419,9439,9459,9480,9499,9518,9539,9560,9578,9600,9620,9638,9660,9679,9700,9719,9738,9758,9779,9798,9818,9839,9858,9880,9900,9919,9939,9959,9979,9998,10020,10038,10060,10080,10099,10119,10138,10159,10180,10198,10220,10239,10259,10278,10299,10318,10340,10359,10378,10399,10419,10439,10458,10479,10498,10520,10539,10559,10580,10598,10619,10639,10658,10680,10699,10719,10738,10760,10780,10798,10818,10838,10860,10878,10900,10920,10938,10958,10980,10998,11020,11038,11059,11080,11098,11120,11139,11160,11179,11200,11218,11238,11259,11279,11299,11320,11339,11358,11380,11400,11418,11438,11459,11479,11498,11518,11539,11559,11580,11599,11618,11640,11659,11679,11700,11718,11739,11760,11780,11800,11819,11838,11860,11880,11899,11918,11939,11960,11978,11999,12020,12038,12059,12079,12099,12120,12138,12158,12180,12198,12220,12240,12258,12278,12300,12318,12340,12358,12380,12400,12418,12438,12460,12478,12498,12518,12540,12559,12580,12598,12619,12640,12660,12679,12699,12720,12739,12759,12778,12800,12820,12840,12858,12878,12899,12919,12939,12959,12979,12999,13019,13040,13059,13079,13099,13119,13138,13160,13179,13199,13220,13239,13258,13279,13299,13318,13340,13358,13379,13399,13418,13439,13459,13480,13500,13520,13539,13559],"xSR":741.5,"ySR":573.95,"xT1":424.9,"yT1":0,"xT2":1058.1,"yT2":0,"toosoon":0,"cond_shown":"Congruent","ratio_trial":200,"L_num":16,"L_den":30,"R_num":9,"R_den":27,"correct_side":1,"subjID":"AnaSofiaGil9","gender":"1","school":"6","age":"11"},{"start_time":1551891237457,"click_time":1551891239307,"finger_time":1551891238786,"fix_duration":250,"trial":2,"RT":1329,"MT":521,"sideResp":2,"stimulus":[],"xmouse":[808,808,808,807,805,805,804,804,804,804,804,804,804,804,804,804,804,804,804,804,804,804,804,804,804,804,804,804,804,804,804,804,804,804,804,804,804,804,804,804,804,804,804,804,804,804,804,804,804,804,804,804,804,804,804,804,804,804,804,804,804,804,804,804,799,785,778,774,771,771,771,771,772,774,774,774,774,774,778,784,806,818,864,959,1016,1066,1109,1142,1164,1164,1164,1164,1155],"ymouse":[589,589,589,591,592,592,593,593,593,593,593,593,593,593,593,593,593,593,593,593,593,593,593,593,593,593,593,593,593,593,593,593,593,593,593,593,593,593,593,593,593,593,593,593,593,593,593,593,593,593,593,593,593,593,593,593,593,593,593,593,593,593,593,593,591,578,570,567,559,558,558,557,557,556,556,556,556,556,555,555,552,549,544,508,474,436,395,344,263,224,175,123,38],"timestamp_mouse":[9,31,50,69,89,108,128,149,169,189,209,230,250,270,289,310,328,348,369,389,408,430,448,470,489,509,528,549,569,590,609,628,650,670,690,709,729,749,770,790,809,829,849,868,890,910,929,949,969,989,1009,1029,1048,1069,1090,1108,1128,1149,1170,1188,1208,1228,1248,1270,1289,1309,1329,1348,1368,1390,1409,1428,1448,1468,1489,1509,1528,1549,1569,1588,1608,1630,1649,1670,1688,1708,1728,1749,1769,1788,1809,1830,1849],"xSR":741.5,"ySR":573.95,"xT1":424.9,"yT1":0,"xT2":1058.1,"yT2":0,"toosoon":0,"cond_shown":"Incongruent","ratio_trial":200,"L_num":1,"L_den":2,"R_num":3,"R_den":10,"correct_side":1,"subjID":"AnaSofiaGil9","gender":"1","school":"6","age":"11"},{"start_time":1551891241897,"click_time":1551891243887,"finger_time":1551891243606,"fix_duration":1448.971196221875,"trial":3,"RT":1709,"MT":281,"sideResp":1,"stimulus":[],"xmouse":[768,768,768,768,768,768,768,768,768,768,768,768,768,768,768,768,768,768,768,768,768,768,768,768,768,768,768,768,768,768,768,768,768,768,768,768,768,768,768,768,768,768,768,768,768,768,768,768,768,768,768,768,768,768,768,768,768,768,768,768,768,768,768,768,768,768,768,768,768,768,768,768,768,768,768,768,768,768,768,768,768,768,768,768,763,754,707,675,654,628,612,582,572,563,557,554,546,538,527,512],"ymouse":[617,617,617,617,617,617,617,617,617,617,617,617,617,617,617,617,617,617,617,617,617,617,617,617,617,617,617,617,617,617,617,617,617,617,617,617,617,617,617,617,617,617,617,617,617,617,617,617,617,617,617,617,617,617,617,617,617,617,617,617,617,617,617,617,617,617,617,617,617,617,617,617,617,617,617,617,617,617,617,617,617,617,617,606,595,573,485,434,397,343,300,209,182,164,149,140,114,89,68,45],"timestamp_mouse":[9,29,55,69,88,109,129,149,168,188,209,228,250,268,288,309,329,348,368,389,409,428,449,468,490,509,528,548,569,588,608,630,650,669,688,710,728,748,769,788,810,830,848,869,890,910,929,949,969,989,1010,1028,1050,1070,1088,1110,1128,1150,1169,1189,1208,1229,1250,1270,1289,1309,1329,1349,1370,1389,1409,1429,1450,1469,1490,1508,1529,1550,1569,1590,1610,1628,1649,1670,1689,1709,1729,1749,1769,1789,1809,1828,1848,1869,1889,1910,1928,1949,1969,1990],"xSR":741.5,"ySR":573.95,"xT1":424.9,"yT1":0,"xT2":1058.1,"yT2":0,"toosoon":0,"cond_shown":"Incongruent","ratio_trial":100,"L_num":9,"L_den":15,"R_num":14,"R_den":28,"correct_side":1,"subjID":"AnaSofiaGil9","gender":"1","school":"6","age":"11"},{"start_time":1551891245296,"click_time":1551891247546,"finger_time":1551891247007,"fix_duration":250,"trial":4,"RT":1711,"MT":539,"sideResp":1,"stimulus":[],"xmouse":[797,797,797,797,797,793,792,792,792,792,792,792,792,792,792,792,792,792,792,792,792,792,792,792,792,792,792,792,792,792,792,792,792,792,792,792,792,792,792,792,792,792,792,792,792,792,792,792,792,792,792,792,792,792,792,792,792,792,792,792,792,792,792,792,792,792,792,792,792,792,792,792,792,792,792,792,792,791,791,791,791,787,782,776,764,746,682,672,671,672,691,701,702,702,702,702,702,702,702,702,702,706,711,717,719,719,719,719,713,674,622,504,458],"ymouse":[623,623,623,623,623,623,623,623,623,623,623,623,623,623,623,623,623,623,623,623,623,623,623,623,623,623,623,623,623,623,623,623,623,623,623,623,623,623,623,623,623,623,623,623,623,623,623,623,623,623,623,623,623,623,623,623,623,623,623,623,623,623,623,623,623,623,623,623,623,623,623,623,623,623,623,623,623,623,623,623,623,621,617,612,596,565,474,461,460,463,479,494,495,495,495,495,498,501,502,504,507,519,529,538,543,543,543,542,510,410,314,126,58],"timestamp_mouse":[11,32,50,69,90,111,130,149,171,189,209,230,250,270,289,311,331,351,370,390,409,430,450,470,491,511,531,549,569,591,611,629,650,669,691,711,730,750,771,789,809,831,849,871,890,911,929,950,970,990,1009,1031,1049,1069,1090,1111,1130,1150,1169,1189,1209,1230,1250,1269,1291,1310,1330,1351,1369,1390,1410,1429,1451,1469,1489,1511,1530,1550,1569,1591,1609,1630,1649,1669,1690,1711,1730,1750,1770,1791,1810,1830,1850,1871,1891,1909,1929,1949,1970,1991,2010,2030,2049,2071,2091,2111,2131,2150,2169,2190,2211,2231,2250],"xSR":741.5,"ySR":573.95,"xT1":424.9,"yT1":0,"xT2":1058.1,"yT2":0,"toosoon":0,"cond_shown":"Congruent","ratio_trial":100,"L_num":4,"L_den":10,"R_num":15,"R_den":30,"correct_side":2,"subjID":"AnaSofiaGil9","gender":"1","school":"6","age":"11"},{"start_time":1551891250194,"click_time":1551891252186,"finger_time":1551891251766,"fix_duration":1426.0497365161837,"trial":5,"RT":1572,"MT":420,"sideResp":2,"stimulus":[],"xmouse":[774,774,774,774,774,774,774,774,774,774,774,774,774,774,774,774,774,774,774,774,774,774,774,774,774,774,774,774,774,774,774,774,774,774,774,774,774,774,774,774,774,774,774,774,774,774,774,774,774,774,774,774,774,774,774,774,774,774,774,774,774,774,774,774,776,782,787,787,787,787,787,787,787,787,787,787,787,800,837,911,1005,1164,1207,1231,1236,1236,1236,1233,1230,1227,1222,1213,1204,1190,1174,1168,1162,1161,1159,1158],"ymouse":[618,618,618,618,618,618,618,618,618,618,618,618,618,618,618,618,618,618,618,618,618,618,618,618,618,618,618,618,618,618,618,618,618,618,618,618,618,618,618,618,618,618,618,618,618,618,618,618,618,618,618,618,618,618,618,618,618,618,618,618,618,618,618,618,615,610,606,605,605,605,605,605,605,605,605,605,605,592,561,506,431,274,214,157,138,132,131,129,127,121,112,102,95,91,85,82,76,75,75,74],"timestamp_mouse":[13,33,52,71,91,112,131,151,173,192,212,233,251,272,291,311,333,351,372,392,411,432,451,472,492,512,531,552,571,591,611,632,652,672,692,712,733,752,771,792,811,831,851,872,892,911,931,952,973,991,1011,1031,1053,1071,1091,1113,1131,1152,1173,1191,1212,1231,1252,1271,1292,1313,1332,1352,1372,1393,1413,1432,1452,1473,1493,1512,1531,1552,1572,1592,1611,1632,1651,1672,1691,1712,1732,1752,1771,1793,1812,1831,1851,1871,1892,1913,1932,1952,1971,1992],"xSR":741.5,"ySR":573.95,"xT1":424.9,"yT1":0,"xT2":1058.1,"yT2":0,"toosoon":0,"cond_shown":"Incongruent","ratio_trial":200,"L_num":3,"L_den":10,"R_num":1,"R_den":2,"correct_side":2,"subjID":"AnaSofiaGil9","gender":"1","school":"6","age":"11"},{"start_time":1551891254713,"click_time":1551891256326,"finger_time":1551891256226,"fix_duration":1126.5149241584406,"trial":6,"RT":1513,"MT":100,"sideResp":1,"stimulus":[],"xmouse":[810,810,810,810,810,810,810,810,810,810,810,810,810,810,810,810,810,810,810,810,810,810,810,810,810,810,810,810,810,810,810,810,810,810,810,810,810,810,810,810,810,810,810,810,810,810,810,810,810,810,810,810,810,810,810,810,810,810,810,810,810,810,810,810,810,810,810,810,810,810,810,810,809,808,801,759,717,664,582,542,493],"ymouse":[655,655,655,655,655,655,655,655,655,655,655,655,655,655,655,655,655,655,655,655,655,655,655,655,655,655,655,655,655,655,655,655,655,655,655,655,655,655,655,655,655,655,655,655,655,655,655,655,655,655,655,655,655,655,655,655,655,655,655,655,655,655,655,655,655,655,655,655,655,655,655,655,654,653,638,561,494,418,289,204,94],"timestamp_mouse":[14,36,53,74,93,113,134,152,173,192,214,232,252,273,292,314,333,352,374,392,412,434,453,473,493,514,532,552,572,593,612,632,653,673,692,714,733,754,772,793,813,833,852,873,892,914,933,952,974,992,1012,1033,1052,1073,1092,1114,1132,1153,1172,1194,1214,1232,1253,1272,1294,1313,1333,1353,1373,1394,1413,1433,1453,1473,1492,1513,1533,1552,1573,1593,1613],"xSR":741.5,"ySR":573.95,"xT1":424.9,"yT1":0,"xT2":1058.1,"yT2":0,"toosoon":0,"cond_shown":"Congruent","ratio_trial":100,"L_num":1,"L_den":2,"R_num":18,"R_den":30,"correct_side":2,"subjID":"AnaSofiaGil9","gender":"1","school":"6","age":"11"},{"start_time":1551891263436,"click_time":1551891265325,"finger_time":1551891264926,"fix_duration":269.687349390533,"trial":7,"RT":1490,"MT":399,"sideResp":1,"stimulus":[],"xmouse":[802,802,802,802,802,802,802,802,802,802,802,802,802,802,802,802,801,801,800,799,799,799,799,799,799,799,799,799,799,799,799,799,799,799,799,799,799,799,799,799,799,799,799,799,799,799,799,799,799,799,799,799,799,797,796,795,795,795,795,795,795,795,795,795,793,793,793,793,793,793,793,792,790,783,728,681,633,590,546,439,409,383,361,337,329,329,331,334,337,349,368,376,399,414,425],"ymouse":[636,636,636,636,636,636,636,636,636,636,636,636,636,636,636,636,635,635,634,634,634,634,634,634,634,634,634,634,634,634,634,634,634,634,634,634,634,634,634,634,634,634,634,634,634,634,634,634,634,634,634,634,634,633,632,632,632,632,632,632,632,632,632,632,630,630,630,630,630,630,630,630,628,618,557,506,447,379,297,118,50,0,0,0,0,0,0,0,0,5,21,30,53,64,71],"timestamp_mouse":[10,37,48,69,88,109,128,149,169,188,209,228,250,268,288,308,329,349,369,390,410,430,450,468,489,508,528,549,569,589,608,628,649,669,688,709,728,749,769,789,808,829,848,869,888,909,930,948,968,989,1010,1030,1049,1069,1089,1109,1129,1149,1169,1189,1208,1228,1250,1268,1290,1309,1330,1349,1369,1388,1410,1428,1450,1468,1490,1509,1529,1548,1570,1589,1609,1628,1649,1668,1689,1709,1729,1750,1769,1789,1808,1828,1849,1870,1888],"xSR":741.5,"ySR":573.95,"xT1":424.9,"yT1":0,"xT2":1058.1,"yT2":0,"toosoon":0,"cond_shown":"Congruent","ratio_trial":300,"L_num":3,"L_den":6,"R_num":2,"R_den":10,"correct_side":1,"subjID":"AnaSofiaGil9","gender":"1","school":"6","age":"11"},{"start_time":1551891267008,"click_time":1551891269705,"finger_time":1551891269225,"fix_duration":642.25969806454,"trial":8,"RT":2217,"MT":480,"sideResp":2,"stimulus":[],"xmouse":[769,769,769,769,769,769,769,769,769,769,769,769,769,769,769,769,769,769,769,769,769,769,769,769,769,769,769,769,769,769,769,769,769,769,769,769,769,769,769,769,769,769,769,769,769,769,769,769,769,769,769,769,769,769,769,769,769,769,769,769,769,769,769,769,769,769,769,769,769,769,769,769,769,769,769,769,769,769,769,769,769,769,769,769,769,769,769,769,769,769,769,769,769,769,769,769,769,769,769,769,769,769,769,769,769,769,769,778,791,808,867,923,934,957,967,997,1016,1029,1032,1035,1037,1037,1036,1033,1032,1034,1035,1037,1041,1046,1061,1069,1073,1082,1087],"ymouse":[635,635,635,635,635,635,635,635,635,635,635,635,635,635,635,635,635,635,635,635,635,635,635,635,635,635,635,635,635,635,635,635,635,635,635,635,635,635,635,635,635,635,635,635,635,635,635,635,635,635,635,635,635,635,635,635,635,635,635,635,635,635,635,635,635,635,635,635,635,635,635,635,635,635,635,635,635,635,635,635,635,635,635,635,635,635,635,635,635,635,635,635,635,635,635,635,635,635,635,635,635,635,635,635,635,635,636,637,637,633,614,596,592,571,554,462,409,368,340,318,284,260,252,228,215,197,192,185,173,162,137,121,115,103,96],"timestamp_mouse":[17,37,57,76,97,117,137,157,176,197,217,236,258,277,297,318,336,358,377,397,416,436,457,478,497,517,536,557,578,597,616,637,657,677,698,718,738,757,776,798,818,837,857,877,896,918,938,957,978,998,1017,1038,1057,1078,1097,1117,1137,1157,1176,1197,1216,1236,1257,1276,1297,1316,1337,1356,1376,1397,1418,1438,1457,1477,1497,1518,1538,1557,1578,1598,1616,1637,1657,1678,1696,1718,1736,1757,1777,1798,1818,1836,1858,1877,1898,1917,1937,1957,1977,1997,2018,2037,2056,2077,2097,2118,2136,2156,2178,2197,2217,2236,2256,2278,2298,2317,2337,2357,2378,2398,2416,2437,2457,2477,2496,2517,2536,2556,2576,2597,2617,2637,2656,2676,2696],"xSR":741.5,"ySR":573.95,"xT1":424.9,"yT1":0,"xT2":1058.1,"yT2":0,"toosoon":0,"cond_shown":"Congruent","ratio_trial":100,"L_num":3,"L_den":6,"R_num":2,"R_den":5,"correct_side":1,"subjID":"AnaSofiaGil9","gender":"1","school":"6","age":"11"},{"start_time":1551891271313,"click_time":1551891272406,"finger_time":1551891272144,"fix_duration":546.6447687835121,"trial":9,"RT":831,"MT":262,"sideResp":1,"stimulus":[],"xmouse":[836,836,836,836,836,836,836,836,836,836,836,836,836,836,836,836,836,836,836,836,836,836,836,836,836,836,836,836,836,836,836,836,836,836,836,812,794,785,783,782,773,750,712,661,616,569,554,539,509,500,486,486,486,486,486],"ymouse":[619,619,619,619,619,619,619,619,619,619,619,619,619,619,619,619,619,619,619,619,619,619,619,619,619,619,619,619,619,619,619,619,619,619,618,610,604,601,600,600,584,530,441,333,228,120,75,14,0,0,0,0,0,0,3],"timestamp_mouse":[27,32,52,73,93,112,131,151,171,192,212,231,251,272,293,311,332,352,372,391,412,432,452,471,492,512,532,551,572,592,612,632,652,671,692,712,732,752,772,792,813,831,853,873,893,912,932,952,972,992,1013,1033,1053,1073,1093],"xSR":741.5,"ySR":573.95,"xT1":424.9,"yT1":0,"xT2":1058.1,"yT2":0,"toosoon":0,"cond_shown":"Incongruent","ratio_trial":300,"L_num":4,"L_den":5,"R_num":6,"R_den":12,"correct_side":1,"subjID":"AnaSofiaGil9","gender":"1","school":"6","age":"11"},{"start_time":1551891274074,"click_time":1551891276025,"finger_time":1551891275666,"fix_duration":528.77129631567,"trial":10,"RT":1592,"MT":359,"sideResp":2,"stimulus":[],"xmouse":[763,763,763,763,763,763,763,763,763,763,763,763,763,763,764,765,768,769,769,769,769,769,769,769,769,769,769,769,770,770,770,770,770,770,770,770,770,770,770,770,770,770,770,770,770,770,770,770,770,770,770,770,770,770,770,770,770,770,770,770,770,770,770,770,770,770,770,770,770,770,770,770,770,775,782,789,800,821,834,851,873,902,934,939,942,943,946,955,969,978,1006,1029,1085,1112,1127,1138,1143,1144],"ymouse":[642,642,642,642,642,642,642,642,642,642,642,642,642,642,642,642,642,642,642,642,642,642,642,642,642,642,642,642,642,642,642,642,642,642,642,642,642,642,642,642,642,642,642,642,642,642,642,642,642,642,642,642,642,642,642,642,642,642,642,642,642,642,642,642,642,642,642,642,642,642,642,642,642,642,641,641,641,643,643,643,642,629,613,610,608,608,606,594,562,542,487,440,309,244,197,156,128,89],"timestamp_mouse":[12,32,50,71,90,112,131,151,170,192,212,231,252,270,292,311,330,350,372,390,410,430,452,471,491,511,531,551,571,592,610,631,651,672,690,711,730,752,771,791,810,832,850,872,891,912,931,951,971,991,1011,1031,1051,1072,1091,1112,1130,1150,1171,1191,1211,1232,1250,1271,1292,1311,1330,1351,1371,1391,1412,1432,1451,1471,1491,1511,1531,1550,1572,1592,1611,1631,1650,1670,1691,1711,1731,1751,1770,1790,1810,1830,1850,1870,1890,1911,1932,1951],"xSR":741.5,"ySR":573.95,"xT1":424.9,"yT1":0,"xT2":1058.1,"yT2":0,"toosoon":0,"cond_shown":"Congruent","ratio_trial":300,"L_num":1,"L_den":5,"R_num":11,"R_den":22,"correct_side":2,"subjID":"AnaSofiaGil9","gender":"1","school":"6","age":"11"},{"start_time":1551891279801,"click_time":1551891281784,"finger_time":1551891281446,"fix_duration":1393.1129359667855,"trial":11,"RT":1645,"MT":338,"sideResp":1,"stimulus":[],"xmouse":[783,783,783,783,783,783,783,783,783,783,783,783,783,783,783,783,783,783,783,783,783,783,783,783,783,783,783,783,783,783,783,783,783,783,783,783,783,783,783,783,783,783,783,783,783,783,783,783,783,783,783,783,783,783,783,783,783,783,783,783,783,783,783,783,783,783,783,783,783,783,783,783,783,783,783,783,783,783,783,783,782,762,726,697,660,629,589,575,564,548,533,518,517,517,522,524,524,522,517,509],"ymouse":[657,657,657,657,657,657,657,657,657,657,657,657,657,657,657,657,657,657,657,657,657,657,657,657,657,657,657,657,657,657,657,657,657,657,657,657,657,657,657,657,657,657,657,657,657,657,657,657,657,657,657,657,657,657,657,657,657,657,657,657,657,657,657,657,657,657,657,657,657,657,657,657,657,657,657,657,657,657,657,657,653,607,546,496,437,386,303,267,237,208,181,158,153,143,129,123,120,116,108,91],"timestamp_mouse":[15,34,44,64,83,104,124,143,165,183,203,225,243,263,284,304,325,344,365,385,403,425,444,464,484,504,524,543,565,583,604,624,643,664,683,703,723,744,765,785,805,824,845,863,883,904,924,943,965,985,1003,1024,1044,1064,1085,1103,1125,1145,1163,1185,1205,1225,1245,1265,1285,1303,1324,1343,1363,1385,1403,1425,1444,1464,1485,1505,1525,1545,1564,1584,1605,1624,1645,1664,1685,1705,1724,1743,1764,1784,1804,1824,1845,1865,1884,1904,1924,1944,1965,1983],"xSR":741.5,"ySR":573.95,"xT1":424.9,"yT1":0,"xT2":1058.1,"yT2":0,"toosoon":0,"cond_shown":"Congruent","ratio_trial":200,"L_num":8,"L_den":15,"R_num":7,"R_den":21,"correct_side":1,"subjID":"AnaSofiaGil9","gender":"1","school":"6","age":"11"},{"start_time":1551891283287,"click_time":1551891284985,"finger_time":1551891284604,"fix_duration":579.612503545275,"trial":12,"RT":1317,"MT":381,"sideResp":1,"stimulus":[],"xmouse":[789,789,789,789,789,789,789,789,789,789,789,789,789,789,789,789,789,789,789,789,789,789,789,789,789,789,789,789,789,789,789,789,789,789,789,789,789,789,789,789,789,789,789,789,789,789,789,789,789,789,789,789,789,789,789,789,789,789,789,789,789,789,789,789,783,769,714,681,659,648,644,623,610,598,596,595,595,595,584,572,567,550,542,531,524],"ymouse":[623,623,623,623,623,623,623,623,623,623,623,623,623,623,623,623,623,623,623,623,623,623,623,623,623,623,623,623,623,623,623,623,623,623,623,623,623,623,623,623,623,623,623,623,623,623,623,623,623,623,623,623,623,623,623,623,623,623,623,623,623,623,623,620,606,566,447,396,367,350,340,284,256,240,237,232,183,134,102,83,78,70,65,57,52],"timestamp_mouse":[18,47,58,79,98,119,137,157,178,198,218,239,257,278,299,317,339,359,377,399,417,439,459,479,498,517,539,559,577,599,619,637,658,679,697,718,737,758,778,798,817,839,857,879,897,917,938,959,977,998,1019,1039,1058,1079,1099,1118,1139,1158,1177,1199,1219,1238,1259,1279,1297,1317,1337,1358,1378,1398,1418,1438,1458,1478,1498,1517,1538,1558,1577,1598,1618,1639,1658,1679,1698],"xSR":741.5,"ySR":573.95,"xT1":424.9,"yT1":0,"xT2":1058.1,"yT2":0,"toosoon":0,"cond_shown":"Incongruent","ratio_trial":100,"L_num":9,"L_den":10,"R_num":20,"R_den":25,"correct_side":1,"subjID":"AnaSofiaGil9","gender":"1","school":"6","age":"11"},{"start_time":1551891286987,"click_time":1551891288605,"finger_time":1551891288285,"fix_duration":1280.1533341348302,"trial":13,"RT":1298,"MT":320,"sideResp":2,"stimulus":[],"xmouse":[794,794,794,794,794,794,794,794,794,794,794,794,794,794,794,794,794,794,794,794,794,794,794,794,794,794,794,794,794,794,794,794,794,794,794,794,794,794,794,794,794,794,794,794,794,794,794,794,794,794,794,794,794,794,794,794,794,794,794,794,794,794,806,831,866,956,1035,1054,1067,1068,1060,1057,1056,1056,1056,1056,1056,1056,1056,1058,1060],"ymouse":[628,628,628,628,628,628,628,628,628,628,628,628,628,628,628,628,628,628,628,628,628,628,628,628,628,628,628,628,628,628,628,628,628,628,628,628,628,628,628,628,628,628,628,628,628,628,628,628,628,628,628,628,628,628,628,628,628,628,628,628,628,628,622,602,571,498,431,397,353,320,271,254,238,213,188,159,140,129,116,109,99],"timestamp_mouse":[22,40,58,79,98,118,138,159,177,199,219,238,258,277,299,317,338,358,378,397,419,439,458,478,498,519,537,558,578,597,619,638,657,679,699,717,737,758,779,799,818,837,857,878,899,918,938,957,979,997,1018,1039,1059,1077,1098,1119,1138,1157,1178,1197,1218,1238,1258,1279,1298,1319,1338,1358,1378,1398,1419,1437,1459,1479,1499,1518,1538,1557,1577,1598,1618],"xSR":741.5,"ySR":573.95,"xT1":424.9,"yT1":0,"xT2":1058.1,"yT2":0,"toosoon":0,"cond_shown":"Congruent","ratio_trial":200,"L_num":9,"L_den":30,"R_num":13,"R_den":26,"correct_side":2,"subjID":"AnaSofiaGil9","gender":"1","school":"6","age":"11"},{"start_time":1551891290634,"click_time":1551891292405,"finger_time":1551891292024,"fix_duration":1407.7170403793568,"trial":14,"RT":1390,"MT":381,"sideResp":2,"stimulus":[],"xmouse":[778,778,778,778,778,778,778,778,778,778,778,778,778,778,778,778,778,778,778,778,778,778,778,778,778,778,778,778,778,778,778,778,778,778,778,778,778,778,778,778,778,778,778,778,778,778,778,778,778,778,778,778,778,778,778,778,778,778,778,778,778,778,778,778,778,778,785,798,817,859,877,914,961,1009,1087,1113,1146,1171,1188,1196,1198,1198,1195,1194,1191,1187,1181,1164,1145],"ymouse":[638,638,638,638,638,638,638,638,638,638,638,638,638,638,638,638,638,638,638,638,638,638,638,638,638,638,638,638,638,638,638,638,638,638,638,638,638,638,638,638,638,638,638,638,638,638,638,638,638,638,638,638,638,638,638,638,638,638,638,638,638,638,638,638,638,637,634,629,620,603,592,561,509,436,291,224,148,77,32,0,0,0,0,0,0,0,0,6,15],"timestamp_mouse":[11,35,51,71,91,111,130,152,171,191,210,231,252,270,292,312,331,352,371,392,411,430,452,471,490,510,531,550,571,591,612,631,651,670,691,710,732,751,771,791,810,831,851,870,892,910,930,950,970,990,1012,1031,1050,1070,1092,1111,1132,1150,1170,1191,1211,1230,1250,1272,1291,1311,1331,1352,1371,1390,1411,1430,1451,1471,1490,1511,1530,1551,1571,1591,1610,1631,1652,1670,1692,1711,1730,1751,1771],"xSR":741.5,"ySR":573.95,"xT1":424.9,"yT1":0,"xT2":1058.1,"yT2":0,"toosoon":0,"cond_shown":"Congruent","ratio_trial":300,"L_num":1,"L_den":5,"R_num":3,"R_den":6,"correct_side":2,"subjID":"AnaSofiaGil9","gender":"1","school":"6","age":"11"},{"start_time":1551891294801,"click_time":1551891296425,"finger_time":1551891295964,"fix_duration":1354.7118546372712,"trial":15,"RT":1163,"MT":461,"sideResp":2,"stimulus":[],"xmouse":[793,793,793,793,793,793,793,793,793,793,793,793,793,793,793,793,793,793,793,793,793,793,793,793,793,793,793,793,793,793,793,793,793,793,793,793,793,793,793,793,793,793,793,793,793,793,793,793,793,793,793,793,792,794,808,816,832,838,848,857,871,907,935,951,970,990,1035,1050,1060,1069,1070,1073,1075,1077,1082,1088,1088,1086,1085,1086,1093,1107],"ymouse":[622,622,622,622,622,622,622,622,622,622,622,622,622,622,622,622,622,622,622,622,622,622,622,622,622,622,622,622,622,622,622,622,622,622,622,622,622,622,622,622,622,622,622,622,622,622,622,622,622,622,622,622,621,618,602,595,583,580,574,569,560,534,515,503,485,458,383,356,333,307,294,266,242,216,185,170,152,143,132,120,108,88],"timestamp_mouse":[14,39,44,65,85,104,124,144,163,184,204,224,244,264,283,304,325,344,363,384,404,425,444,463,485,505,525,543,564,585,604,625,643,663,684,703,725,744,765,783,803,823,845,864,884,904,924,943,965,984,1004,1024,1044,1063,1084,1104,1124,1144,1163,1184,1204,1224,1244,1263,1285,1304,1324,1344,1364,1384,1404,1424,1445,1463,1483,1504,1523,1544,1564,1584,1604,1624],"xSR":741.5,"ySR":573.95,"xT1":424.9,"yT1":0,"xT2":1058.1,"yT2":0,"toosoon":0,"cond_shown":"Congruent","ratio_trial":200,"L_num":6,"L_den":20,"R_num":11,"R_den":22,"correct_side":2,"subjID":"AnaSofiaGil9","gender":"1","school":"6","age":"11"},{"start_time":1551891297638,"click_time":1551891299324,"finger_time":1551891299025,"fix_duration":250,"trial":16,"RT":1387,"MT":299,"sideResp":1,"stimulus":[],"xmouse":[780,780,780,780,780,780,780,780,780,780,780,780,780,780,780,780,780,780,780,780,780,780,780,780,780,780,780,780,780,780,780,780,780,779,775,774,774,774,774,774,774,774,774,774,774,774,774,774,774,774,774,774,774,774,774,774,774,774,774,774,774,774,774,774,774,774,774,774,774,755,725,684,643,609,593,586,572,557,544,533,531,529,525,520,502],"ymouse":[639,639,639,639,639,639,639,639,639,639,639,639,639,639,639,639,639,639,639,639,639,639,639,639,639,639,639,639,639,639,639,639,639,639,618,613,613,613,613,613,613,613,613,613,613,613,613,613,613,613,613,613,613,613,613,613,613,613,613,613,613,613,613,613,613,613,613,613,608,519,431,357,302,264,246,238,223,206,194,176,165,150,128,113,82],"timestamp_mouse":[11,32,47,68,86,107,127,146,167,187,206,228,248,268,287,306,327,346,368,388,406,426,447,467,487,506,526,548,568,587,607,627,646,667,686,707,728,746,768,788,807,827,848,866,887,907,927,947,967,986,1006,1026,1047,1067,1086,1108,1128,1148,1167,1186,1208,1228,1246,1267,1286,1308,1326,1346,1368,1387,1406,1426,1447,1466,1487,1507,1527,1547,1566,1586,1607,1627,1647,1666,1686],"xSR":741.5,"ySR":573.95,"xT1":424.9,"yT1":0,"xT2":1058.1,"yT2":0,"toosoon":0,"cond_shown":"Incongruent","ratio_trial":300,"L_num":3,"L_den":6,"R_num":4,"R_den":20,"correct_side":1,"subjID":"AnaSofiaGil9","gender":"1","school":"6","age":"11"},{"start_time":1551891301452,"click_time":1551891303145,"finger_time":1551891302785,"fix_duration":1185.1712689724839,"trial":17,"RT":1333,"MT":360,"sideResp":2,"stimulus":[],"xmouse":[790,790,790,790,790,790,790,790,790,790,790,790,790,790,790,790,790,790,790,790,790,790,790,790,790,790,790,790,790,790,790,790,790,790,790,790,790,790,790,790,790,790,790,790,790,790,790,790,790,790,790,790,790,790,790,790,790,790,790,790,790,790,790,790,790,826,886,960,1111,1160,1199,1236,1265,1280,1280,1280,1280,1274,1243,1228,1212,1207,1195,1160,1144],"ymouse":[637,637,637,637,637,637,637,637,637,637,637,637,637,637,637,637,637,637,637,637,637,637,637,637,637,637,637,637,637,637,637,637,637,637,637,637,637,637,637,637,637,637,637,637,637,637,637,637,637,637,637,637,637,637,637,637,637,637,637,637,637,637,637,637,636,625,607,577,515,483,437,361,251,154,127,105,82,56,10,0,0,0,0,17,26],"timestamp_mouse":[15,38,52,73,94,112,133,153,172,194,212,234,254,274,294,313,333,353,372,393,414,433,453,473,492,514,533,553,574,593,612,632,652,673,692,714,733,752,774,793,814,834,854,874,892,913,933,952,972,992,1013,1034,1052,1072,1094,1113,1133,1152,1173,1194,1214,1234,1254,1273,1293,1314,1333,1353,1373,1393,1413,1433,1453,1473,1492,1513,1533,1554,1573,1593,1613,1632,1653,1672,1692],"xSR":741.5,"ySR":573.95,"xT1":424.9,"yT1":0,"xT2":1058.1,"yT2":0,"toosoon":0,"cond_shown":"Incongruent","ratio_trial":200,"L_num":14,"L_den":30,"R_num":6,"R_den":9,"correct_side":2,"subjID":"AnaSofiaGil9","gender":"1","school":"6","age":"11"},{"start_time":1551891306232,"click_time":1551891308025,"finger_time":1551891307625,"fix_duration":706.7572011327338,"trial":18,"RT":1393,"MT":400,"sideResp":1,"stimulus":[],"xmouse":[794,794,794,794,794,794,794,794,794,794,794,794,794,794,794,794,794,794,794,794,794,794,794,794,794,794,794,794,794,794,794,794,794,794,794,794,794,794,794,794,794,794,794,794,794,794,794,794,794,794,794,794,794,794,794,794,794,794,794,794,794,794,794,794,794,794,794,793,788,731,691,660,636,629,616,605,592,578,562,550,549,546,541,523,507,503,498,495,492,479],"ymouse":[618,618,618,618,618,618,618,618,618,618,618,618,618,618,618,618,618,618,618,618,618,618,618,618,618,618,618,618,618,618,618,618,618,618,618,618,618,618,618,618,618,618,618,618,618,618,618,618,618,618,618,618,618,618,618,618,618,618,618,618,618,618,618,618,618,618,618,611,600,488,428,382,334,317,293,272,249,231,211,196,192,183,172,148,128,122,114,106,104,91],"timestamp_mouse":[14,38,52,74,93,112,134,154,172,193,213,234,254,274,293,313,334,354,374,392,414,434,452,474,494,514,534,553,574,593,614,633,652,673,692,713,734,752,773,793,813,833,852,873,892,913,932,952,974,992,1014,1032,1053,1072,1092,1113,1133,1152,1173,1194,1212,1234,1252,1273,1294,1312,1334,1353,1374,1393,1413,1433,1452,1472,1492,1512,1534,1553,1572,1592,1612,1633,1653,1672,1692,1713,1733,1753,1773,1792],"xSR":741.5,"ySR":573.95,"xT1":424.9,"yT1":0,"xT2":1058.1,"yT2":0,"toosoon":0,"cond_shown":"Congruent","ratio_trial":100,"L_num":1,"L_den":2,"R_num":3,"R_den":5,"correct_side":2,"subjID":"AnaSofiaGil9","gender":"1","school":"6","age":"11"},{"start_time":1551891309378,"click_time":1551891310645,"finger_time":1551891310385,"fix_duration":250,"trial":19,"RT":1007,"MT":260,"sideResp":1,"stimulus":[],"xmouse":[765,765,767,769,769,769,769,769,770,773,775,777,779,780,780,780,780,780,780,780,780,780,780,780,780,780,780,780,780,780,780,780,780,780,780,780,780,780,780,780,780,780,780,780,780,780,780,780,775,767,760,753,741,724,673,640,619,610,606,595,575,547,503,491],"ymouse":[657,654,652,648,648,648,648,648,648,644,639,636,631,629,628,628,628,628,628,628,628,628,628,628,628,628,628,628,628,628,628,628,628,628,628,628,628,628,628,628,628,628,628,628,628,628,628,624,609,589,573,560,530,493,388,334,307,294,278,252,215,174,116,99],"timestamp_mouse":[8,27,46,68,88,107,128,147,166,188,207,227,247,267,286,308,326,348,367,387,407,426,448,467,488,506,528,547,567,586,608,627,646,667,686,708,727,746,768,787,808,827,848,867,887,907,927,947,966,987,1007,1027,1046,1067,1086,1106,1127,1146,1167,1188,1207,1226,1246,1266],"xSR":741.5,"ySR":573.95,"xT1":424.9,"yT1":0,"xT2":1058.1,"yT2":0,"toosoon":0,"cond_shown":"Incongruent","ratio_trial":300,"L_num":1,"L_den":2,"R_num":3,"R_den":15,"correct_side":1,"subjID":"AnaSofiaGil9","gender":"1","school":"6","age":"11"},{"start_time":1551891312597,"click_time":1551891314205,"finger_time":1551891313445,"fix_duration":1171.0843923977284,"trial":20,"RT":848,"MT":760,"sideResp":1,"stimulus":[],"xmouse":[809,809,809,809,809,809,809,809,809,809,809,809,809,809,809,809,809,809,809,809,809,809,809,809,809,809,809,809,809,809,809,809,809,809,809,809,809,809,805,797,789,751,732,716,702,692,654,631,614,603,598,586,579,569,562,559,555,554,552,552,550,543,535,527,511,496,485,478,474,471,471,471,471,471,471,471,471,471,470,469,469],"ymouse":[630,630,630,630,630,630,630,630,630,630,630,630,630,630,630,630,630,630,630,630,630,630,630,630,630,630,630,630,630,630,630,630,630,630,630,630,630,630,629,623,616,584,567,554,540,529,486,459,434,413,392,347,323,300,269,257,236,231,227,225,217,157,105,43,0,0,0,0,0,0,0,0,0,0,0,0,0,0,0,0,1],"timestamp_mouse":[10,40,48,68,89,107,127,148,167,189,209,228,247,267,289,309,329,347,368,389,409,428,448,468,488,508,529,547,569,589,608,627,648,669,688,707,729,747,768,788,808,827,848,868,887,907,929,948,968,988,1008,1028,1047,1068,1087,1108,1128,1147,1168,1188,1208,1228,1248,1268,1287,1307,1327,1347,1367,1388,1409,1429,1449,1468,1488,1508,1529,1549,1568,1587,1608],"xSR":741.5,"ySR":573.95,"xT1":424.9,"yT1":0,"xT2":1058.1,"yT2":0,"toosoon":0,"cond_shown":"Congruent","ratio_trial":200,"L_num":20,"L_den":25,"R_num":9,"R_den":15,"correct_side":1,"subjID":"AnaSofiaGil9","gender":"1","school":"6","age":"11"},{"start_time":1551891317650,"click_time":1551891318524,"finger_time":1551891318426,"fix_duration":1242.0830153782554,"trial":21,"RT":776,"MT":98,"sideResp":1,"stimulus":[],"xmouse":[788,788,788,788,788,788,788,788,788,788,788,788,788,788,788,788,788,788,788,788,788,788,788,788,788,788,788,788,788,788,788,788,788,788,788,788,783,781,758,726,668,555,502,466],"ymouse":[606,606,606,606,606,606,606,606,606,606,606,606,606,606,606,606,606,606,606,606,606,606,606,606,606,606,606,606,606,606,606,606,606,606,606,606,599,593,535,452,343,188,114,54],"timestamp_mouse":[15,40,54,74,95,115,135,155,175,196,215,235,256,276,295,316,336,355,374,395,415,434,456,474,496,515,534,555,574,595,616,636,654,676,694,715,734,755,776,794,815,836,855,874],"xSR":741.5,"ySR":573.95,"xT1":424.9,"yT1":0,"xT2":1058.1,"yT2":0,"toosoon":0,"cond_shown":"Incongruent","ratio_trial":300,"L_num":8,"L_den":10,"R_num":9,"R_den":18,"correct_side":1,"subjID":"AnaSofiaGil9","gender":"1","school":"6","age":"11"},{"start_time":1551891321905,"click_time":1551891323264,"finger_time":1551891322525,"fix_duration":1059.2290660806952,"trial":22,"RT":620,"MT":739,"sideResp":2,"stimulus":[],"xmouse":[789,789,789,789,789,789,789,789,789,789,789,789,789,789,789,789,789,789,789,789,789,789,789,789,789,789,789,789,789,789,790,855,880,887,890,890,890,890,890,890,890,890,890,890,890,890,890,890,890,899,912,955,975,987,991,992,978,967,960,950,948,954,960,970,981,998,1053,1107,1136],"ymouse":[627,627,627,627,627,627,627,627,627,627,627,627,627,627,627,627,627,627,627,627,627,627,627,627,627,627,627,627,627,627,627,602,592,588,587,587,587,587,587,587,587,587,586,586,586,586,584,574,570,537,506,407,358,326,306,279,230,214,202,181,175,163,155,145,137,128,109,101,97],"timestamp_mouse":[8,32,40,59,80,100,120,141,161,181,200,221,240,260,281,300,319,340,359,380,399,419,440,460,479,501,519,541,559,580,600,620,639,660,680,701,721,741,760,781,800,820,840,860,880,901,920,939,959,980,999,1019,1040,1059,1079,1099,1120,1140,1160,1181,1200,1220,1240,1260,1279,1300,1319,1340,1359],"xSR":741.5,"ySR":573.95,"xT1":424.9,"yT1":0,"xT2":1058.1,"yT2":0,"toosoon":0,"cond_shown":"Incongruent","ratio_trial":200,"L_num":3,"L_den":4,"R_num":11,"R_den":20,"correct_side":1,"subjID":"AnaSofiaGil9","gender":"1","school":"6","age":"11"},{"start_time":1551891324593,"click_time":1551891325825,"finger_time":1551891325345,"fix_duration":584.9692165585357,"trial":23,"RT":752,"MT":480,"sideResp":1,"stimulus":[],"xmouse":[788,788,788,788,788,788,788,788,788,788,788,788,788,788,788,788,788,788,788,788,788,788,788,788,788,788,788,788,788,788,788,788,788,788,788,788,774,748,713,675,645,629,626,626,626,626,614,610,609,609,608,600,590,586,581,574,559,546,535,521,509,481],"ymouse":[619,619,619,619,619,619,619,619,619,619,619,619,619,619,619,619,619,619,619,619,619,619,619,619,619,619,619,619,619,619,619,619,619,619,619,617,583,530,469,412,369,332,314,306,276,246,193,181,180,180,177,162,147,143,138,134,130,126,122,116,109,94],"timestamp_mouse":[13,33,52,73,92,113,133,154,172,194,213,232,252,273,292,312,332,354,373,393,413,432,452,473,492,512,532,554,573,592,612,634,652,673,692,712,732,752,773,792,813,832,853,872,892,912,933,953,974,992,1013,1033,1054,1072,1093,1113,1132,1152,1172,1192,1213,1232],"xSR":741.5,"ySR":573.95,"xT1":424.9,"yT1":0,"xT2":1058.1,"yT2":0,"toosoon":0,"cond_shown":"Incongruent","ratio_trial":300,"L_num":8,"L_den":10,"R_num":9,"R_den":18,"correct_side":1,"subjID":"AnaSofiaGil9","gender":"1","school":"6","age":"11"},{"start_time":1551891326877,"click_time":1551891328706,"finger_time":1551891328527,"fix_duration":250,"trial":24,"RT":1650,"MT":179,"sideResp":1,"stimulus":[],"xmouse":[780,780,780,780,780,780,780,780,780,780,780,780,780,780,780,780,780,780,780,780,780,780,780,780,780,780,780,780,780,780,780,780,780,780,780,780,780,780,780,780,780,780,780,780,780,780,780,780,780,780,780,780,780,780,780,780,780,780,780,780,780,780,780,780,780,780,780,780,780,780,780,780,780,780,780,780,780,780,780,780,779,760,668,610,565,539,529,522,516,507,496,492],"ymouse":[616,616,616,616,616,616,616,616,616,616,616,616,616,616,616,616,616,616,616,616,616,616,616,616,616,616,616,616,616,616,616,616,616,616,616,616,616,616,616,616,616,616,616,616,616,616,616,616,616,616,616,616,616,616,616,616,616,616,616,616,616,616,616,616,616,616,616,616,616,616,616,616,616,616,616,616,616,616,616,616,617,597,449,370,295,243,216,169,147,125,100,88],"timestamp_mouse":[10,33,49,69,89,109,128,150,168,190,209,228,248,268,290,308,328,349,368,389,410,429,448,468,490,508,529,549,568,590,608,629,649,669,688,708,729,749,770,788,808,828,848,869,889,910,928,948,969,989,1009,1029,1048,1069,1090,1110,1128,1149,1169,1188,1209,1229,1249,1269,1289,1308,1329,1348,1369,1389,1408,1429,1449,1468,1488,1509,1529,1548,1569,1588,1608,1629,1650,1668,1688,1709,1729,1748,1769,1789,1810,1829],"xSR":741.5,"ySR":573.95,"xT1":424.9,"yT1":0,"xT2":1058.1,"yT2":0,"toosoon":0,"cond_shown":"Congruent","ratio_trial":200,"L_num":9,"L_den":20,"R_num":4,"R_den":16,"correct_side":1,"subjID":"AnaSofiaGil9","gender":"1","school":"6","age":"11"},{"start_time":1551891329778,"click_time":1551891331425,"finger_time":1551891331126,"fix_duration":250,"trial":25,"RT":1348,"MT":299,"sideResp":1,"stimulus":[],"xmouse":[772,772,772,772,772,772,772,772,772,772,772,772,772,772,772,772,772,772,772,772,772,772,772,772,772,772,772,772,772,772,772,772,772,772,772,772,772,772,772,772,772,772,772,772,772,772,772,772,772,772,772,772,772,772,772,772,772,772,772,772,772,772,772,772,772,769,761,726,701,673,654,639,597,584,574,567,565,563,560,556,550,537,504],"ymouse":[621,621,621,621,621,621,621,621,621,621,621,621,621,621,621,621,621,621,621,621,621,621,621,621,621,621,621,621,621,621,621,621,621,621,621,621,621,621,621,621,621,621,621,621,621,621,621,621,621,621,621,621,621,621,621,621,621,621,621,621,621,621,621,621,621,621,604,532,475,398,320,236,76,35,8,0,0,0,0,0,0,4,19],"timestamp_mouse":[10,31,48,67,87,107,128,147,167,187,207,227,248,267,287,308,327,347,367,387,407,428,447,468,487,508,528,548,567,588,608,628,647,669,688,707,727,747,767,789,807,827,849,867,888,909,928,947,967,988,1007,1028,1047,1067,1088,1109,1128,1147,1168,1187,1208,1229,1249,1268,1287,1308,1328,1348,1367,1389,1408,1427,1447,1467,1487,1508,1527,1548,1567,1587,1608,1627,1647],"xSR":741.5,"ySR":573.95,"xT1":424.9,"yT1":0,"xT2":1058.1,"yT2":0,"toosoon":0,"cond_shown":"Congruent","ratio_trial":200,"L_num":14,"L_den":28,"R_num":6,"R_den":20,"correct_side":1,"subjID":"AnaSofiaGil9","gender":"1","school":"6","age":"11"},{"start_time":1551891332577,"click_time":1551891333766,"finger_time":1551891333386,"fix_duration":250,"trial":26,"RT":809,"MT":380,"sideResp":2,"stimulus":[],"xmouse":[764,764,764,764,764,764,764,764,764,764,764,764,764,764,764,764,764,764,764,764,764,764,764,764,764,764,764,764,764,764,764,764,764,764,764,764,764,764,765,821,907,983,1091,1122,1142,1165,1176,1191,1196,1197,1197,1197,1185,1179,1170,1151,1144,1138,1137,1137],"ymouse":[625,625,625,625,625,625,625,625,625,625,625,625,625,625,625,625,625,625,625,625,625,625,625,625,625,625,625,625,625,625,625,625,625,625,625,625,625,625,626,625,614,581,501,466,431,372,336,270,237,214,201,189,162,151,136,114,108,101,100,97],"timestamp_mouse":[11,34,50,70,88,108,129,148,168,188,209,228,248,268,289,308,329,349,368,388,410,429,448,468,490,509,530,549,569,590,608,628,648,669,688,709,728,749,768,788,809,829,848,869,888,908,929,950,968,990,1009,1029,1048,1069,1089,1110,1129,1148,1168,1189],"xSR":741.5,"ySR":573.95,"xT1":424.9,"yT1":0,"xT2":1058.1,"yT2":0,"toosoon":0,"cond_shown":"Incongruent","ratio_trial":100,"L_num":17,"L_den":30,"R_num":10,"R_den":15,"correct_side":2,"subjID":"AnaSofiaGil9","gender":"1","school":"6","age":"11"},{"start_time":1551891335455,"click_time":1551891337807,"finger_time":1551891337545,"fix_duration":808.931262516687,"trial":27,"RT":2090,"MT":262,"sideResp":1,"stimulus":[],"xmouse":[794,794,794,794,794,794,794,794,794,794,794,794,794,794,794,794,794,794,794,794,794,794,794,794,794,794,794,794,794,794,794,794,794,794,794,794,794,794,794,794,794,794,794,794,794,794,794,794,794,794,794,794,794,794,794,794,794,794,794,794,794,794,794,794,794,794,795,799,803,803,803,803,803,803,803,803,803,803,803,803,803,803,803,799,795,792,792,792,792,792,792,792,792,792,792,792,792,792,792,792,792,791,789,759,727,685,656,636,603,586,552,533,520,503,498,494,492,487],"ymouse":[613,613,613,613,613,613,613,613,613,613,613,613,613,613,613,613,613,613,613,613,613,613,613,613,613,613,613,613,613,613,613,613,613,613,613,613,613,613,613,613,613,613,613,613,613,613,613,613,613,613,613,613,613,613,613,613,613,613,613,613,613,613,613,613,613,613,611,609,607,607,607,607,607,607,607,607,607,607,607,607,607,607,607,607,609,609,609,609,609,609,609,609,609,609,609,609,609,609,609,609,609,609,609,592,564,508,448,391,298,260,208,184,165,135,122,112,104,94],"timestamp_mouse":[11,32,51,71,90,111,131,150,171,192,212,230,252,272,290,312,330,351,372,391,412,430,450,470,491,510,531,550,571,590,610,631,651,670,691,710,731,751,771,791,810,831,851,870,891,910,932,950,970,990,1011,1032,1051,1072,1090,1110,1130,1151,1170,1190,1212,1230,1250,1272,1290,1311,1330,1352,1370,1391,1411,1431,1450,1472,1491,1511,1530,1551,1571,1590,1611,1631,1650,1672,1690,1710,1731,1751,1770,1791,1810,1831,1850,1870,1891,1912,1930,1951,1972,1990,2011,2031,2051,2071,2090,2110,2132,2150,2170,2191,2210,2231,2250,2270,2290,2311,2331,2352],"xSR":741.5,"ySR":573.95,"xT1":424.9,"yT1":0,"xT2":1058.1,"yT2":0,"toosoon":0,"cond_shown":"Congruent","ratio_trial":100,"L_num":2,"L_den":5,"R_num":6,"R_den":12,"correct_side":2,"subjID":"AnaSofiaGil9","gender":"1","school":"6","age":"11"},{"start_time":1551891339529,"click_time":1551891340625,"finger_time":1551891340366,"fix_duration":843.9445644883552,"trial":28,"RT":837,"MT":259,"sideResp":1,"stimulus":[],"xmouse":[793,793,793,793,793,793,793,793,793,794,799,803,805,807,813,813,813,813,813,813,813,808,807,797,792,785,779,774,773,773,773,773,772,771,763,760,759,758,757,751,746,740,732,719,668,643,598,575,563,547,539,532,523,513,500],"ymouse":[652,652,656,657,657,658,658,658,658,658,648,629,614,598,577,576,576,576,576,576,576,584,588,605,613,626,637,645,646,646,646,646,647,647,643,642,641,641,641,640,636,627,608,575,451,382,298,267,251,218,192,165,139,117,87],"timestamp_mouse":[34,36,57,77,97,116,137,158,176,197,216,236,257,277,296,316,337,357,376,396,416,437,457,478,496,517,537,556,577,597,617,637,656,676,696,716,737,756,777,797,816,837,857,877,896,917,936,957,976,996,1016,1037,1056,1076,1096],"xSR":741.5,"ySR":573.95,"xT1":424.9,"yT1":0,"xT2":1058.1,"yT2":0,"toosoon":0,"cond_shown":"Congruent","ratio_trial":300,"L_num":11,"L_den":22,"R_num":2,"R_den":10,"correct_side":1,"subjID":"AnaSofiaGil9","gender":"1","school":"6","age":"11"},{"start_time":1551891341818,"click_time":1551891343245,"finger_time":1551891342727,"fix_duration":250,"trial":29,"RT":909,"MT":518,"sideResp":1,"stimulus":[],"xmouse":[776,776,776,776,776,776,776,776,776,776,776,776,776,776,776,776,776,776,776,776,776,776,776,776,776,776,776,776,776,776,776,776,776,776,776,776,776,776,776,776,776,776,776,776,772,720,688,662,647,639,620,614,608,604,600,590,583,578,574,571,566,564,563,561,558,554,554,554,553,549,529,516],"ymouse":[634,634,634,634,634,634,634,634,634,634,634,634,634,634,634,634,634,634,634,634,634,634,634,634,634,634,634,634,634,634,634,634,634,634,634,634,634,634,634,634,634,634,634,634,634,587,551,511,461,401,271,229,202,189,176,149,136,124,113,103,84,76,71,67,63,61,61,61,60,59,56,56],"timestamp_mouse":[10,37,48,67,88,107,127,149,167,187,207,228,248,267,287,307,327,347,369,388,408,428,447,468,487,508,527,548,569,587,607,628,647,669,688,707,727,748,769,787,808,827,847,867,888,909,928,947,968,988,1007,1028,1047,1068,1088,1107,1127,1148,1168,1187,1207,1228,1248,1267,1287,1307,1327,1348,1367,1388,1407,1427],"xSR":741.5,"ySR":573.95,"xT1":424.9,"yT1":0,"xT2":1058.1,"yT2":0,"toosoon":0,"cond_shown":"Congruent","ratio_trial":200,"L_num":6,"L_den":15,"R_num":3,"R_den":15,"correct_side":1,"subjID":"AnaSofiaGil9","gender":"1","school":"6","age":"11"},{"start_time":1551891344627,"click_time":1551891345866,"finger_time":1551891345625,"fix_duration":599.0204114781387,"trial":30,"RT":998,"MT":241,"sideResp":1,"stimulus":[],"xmouse":[782,782,782,782,782,782,782,782,782,782,782,782,782,782,781,779,779,779,779,779,779,779,779,779,779,779,779,779,779,779,779,779,779,779,779,779,779,779,779,779,779,779,779,779,779,779,779,779,765,754,682,649,622,606,595,574,566,555,542,532,522,519,512],"ymouse":[646,646,646,646,646,646,646,646,646,646,646,646,646,646,643,637,637,637,636,636,636,636,636,636,636,636,636,636,636,636,636,636,636,636,636,636,636,636,636,636,636,636,636,636,636,636,636,636,619,602,477,396,327,260,224,188,179,168,153,138,118,108,99],"timestamp_mouse":[1,34,39,58,78,100,119,139,158,180,198,218,239,259,278,299,319,340,359,378,398,419,438,458,479,499,518,539,560,578,599,618,638,658,678,698,718,740,759,778,798,819,839,858,878,900,918,940,958,978,998,1018,1038,1060,1079,1099,1118,1138,1159,1179,1198,1218,1239],"xSR":741.5,"ySR":573.95,"xT1":424.9,"yT1":0,"xT2":1058.1,"yT2":0,"toosoon":0,"cond_shown":"Congruent","ratio_trial":200,"L_num":14,"L_den":28,"R_num":6,"R_den":20,"correct_side":1,"subjID":"AnaSofiaGil9","gender":"1","school":"6","age":"11"},{"start_time":1551891347321,"click_time":1551891348326,"finger_time":1551891348126,"fix_duration":854.7719011303514,"trial":31,"RT":805,"MT":200,"sideResp":1,"stimulus":[],"xmouse":[786,786,786,786,786,786,786,786,786,786,786,786,786,786,786,786,786,786,786,786,786,786,786,786,786,786,786,786,786,786,786,786,786,786,786,786,786,786,784,776,688,621,582,565,563,560,547,531,513,506,499],"ymouse":[632,632,632,632,632,632,632,632,632,632,632,632,632,632,632,632,632,632,632,632,632,632,632,632,632,632,632,632,632,632,632,632,632,632,632,632,632,632,632,628,487,392,335,301,281,232,198,165,129,113,86],"timestamp_mouse":[10,33,45,64,84,105,126,145,164,184,205,224,246,264,285,306,325,345,364,384,404,426,445,464,485,506,524,544,566,585,605,626,644,664,686,705,724,745,764,785,805,825,844,864,884,904,925,945,965,984,1005],"xSR":741.5,"ySR":573.95,"xT1":424.9,"yT1":0,"xT2":1058.1,"yT2":0,"toosoon":0,"cond_shown":"Congruent","ratio_trial":300,"L_num":11,"L_den":22,"R_num":4,"R_den":20,"correct_side":1,"subjID":"AnaSofiaGil9","gender":"1","school":"6","age":"11"},{"start_time":1551891350577,"click_time":1551891351726,"finger_time":1551891351385,"fix_duration":1469.5667715828954,"trial":32,"RT":808,"MT":341,"sideResp":1,"stimulus":[],"xmouse":[794,794,794,794,794,794,794,794,794,794,794,794,794,794,794,794,794,794,794,794,794,794,794,794,794,794,794,794,794,794,794,794,794,794,794,794,791,781,773,761,747,725,672,651,630,606,595,583,578,573,567,561,558,556,554,544,534,515],"ymouse":[622,622,622,622,622,622,622,622,622,622,622,622,622,622,622,622,622,622,622,622,622,622,622,622,622,622,622,622,622,622,622,622,622,622,622,623,623,618,608,591,568,528,407,333,268,210,187,163,153,146,138,130,125,123,119,98,75,39],"timestamp_mouse":[11,34,49,69,88,109,128,148,168,188,209,230,249,269,289,308,330,348,368,390,409,430,448,470,488,509,528,549,569,588,609,628,649,668,689,709,728,749,768,789,808,829,848,868,889,909,929,949,968,988,1008,1029,1048,1069,1088,1110,1129,1149],"xSR":741.5,"ySR":573.95,"xT1":424.9,"yT1":0,"xT2":1058.1,"yT2":0,"toosoon":0,"cond_shown":"Congruent","ratio_trial":200,"L_num":9,"L_den":20,"R_num":4,"R_den":16,"correct_side":1,"subjID":"AnaSofiaGil9","gender":"1","school":"6","age":"11"},{"start_time":1551891352877,"click_time":1551891353765,"finger_time":1551891353625,"fix_duration":250,"trial":33,"RT":748,"MT":140,"sideResp":2,"stimulus":[],"xmouse":[816,816,816,816,816,816,816,816,816,816,816,816,816,816,816,816,816,816,816,816,816,816,816,816,816,816,816,816,816,816,816,816,816,816,816,817,824,881,932,990,1027,1058,1102,1113,1126],"ymouse":[627,627,627,627,627,627,627,627,627,627,627,627,627,627,627,627,627,627,627,627,627,627,627,627,627,627,627,627,627,627,627,627,627,627,627,626,621,583,536,461,402,344,202,118,33],"timestamp_mouse":[8,38,49,68,88,110,128,149,170,188,209,228,248,270,288,310,329,348,368,388,409,429,450,468,489,509,528,548,568,589,608,628,649,669,688,708,728,748,768,788,809,829,849,869,888],"xSR":741.5,"ySR":573.95,"xT1":424.9,"yT1":0,"xT2":1058.1,"yT2":0,"toosoon":0,"cond_shown":"Incongruent","ratio_trial":100,"L_num":10,"L_den":25,"R_num":9,"R_den":18,"correct_side":2,"subjID":"AnaSofiaGil9","gender":"1","school":"6","age":"11"},{"start_time":1551891356121,"click_time":1551891357186,"finger_time":1551891356865,"fix_duration":1373.5689134646823,"trial":34,"RT":744,"MT":321,"sideResp":1,"stimulus":[],"xmouse":[783,783,783,783,783,783,783,783,782,782,782,782,781,781,781,780,780,780,780,780,780,779,779,779,779,779,779,779,779,779,779,779,779,778,775,761,753,746,742,735,726,719,711,706,702,694,687,675,647,618,542,508,482,463],"ymouse":[627,627,627,627,627,627,627,626,623,623,623,623,623,623,623,623,623,623,623,623,623,623,624,624,626,627,627,627,628,628,628,628,628,627,625,601,580,560,540,523,502,480,456,438,427,408,391,363,299,251,156,120,101,88],"timestamp_mouse":[13,36,44,65,86,105,124,145,164,185,205,224,245,264,285,305,325,344,364,385,405,426,446,465,484,506,524,544,565,586,604,624,644,664,685,704,724,744,765,785,805,824,845,865,884,904,924,944,966,986,1004,1024,1046,1065],"xSR":741.5,"ySR":573.95,"xT1":424.9,"yT1":0,"xT2":1058.1,"yT2":0,"toosoon":0,"cond_shown":"Congruent","ratio_trial":100,"L_num":2,"L_den":5,"R_num":6,"R_den":12,"correct_side":2,"subjID":"AnaSofiaGil9","gender":"1","school":"6","age":"11"},{"start_time":1551891359696,"click_time":1551891361007,"finger_time":1551891360526,"fix_duration":250,"trial":35,"RT":830,"MT":481,"sideResp":2,"stimulus":[],"xmouse":[800,800,800,800,800,800,800,800,800,800,800,800,800,800,800,800,800,800,800,800,800,800,800,800,800,800,800,800,800,800,800,800,800,800,800,800,800,800,800,804,814,875,907,940,962,980,1001,1010,1016,1020,1020,1020,1020,1020,1020,1021,1023,1023,1023,1023,1024,1028,1031,1036,1045,1094],"ymouse":[635,635,635,635,635,635,635,635,635,635,635,635,635,635,635,635,635,635,635,635,635,635,635,635,635,635,635,635,635,635,635,635,635,635,635,635,635,635,635,631,626,582,548,510,481,448,391,371,351,315,284,243,228,211,199,188,166,161,159,158,157,150,145,141,132,97],"timestamp_mouse":[14,40,49,70,89,109,129,149,169,191,210,230,249,269,289,310,330,349,370,389,410,429,449,469,489,510,529,551,570,590,611,630,651,670,690,710,730,751,770,791,810,830,849,871,891,910,929,949,969,990,1010,1029,1050,1070,1089,1110,1129,1151,1171,1191,1210,1230,1249,1270,1290,1311],"xSR":741.5,"ySR":573.95,"xT1":424.9,"yT1":0,"xT2":1058.1,"yT2":0,"toosoon":0,"cond_shown":"Incongruent","ratio_trial":200,"L_num":11,"L_den":20,"R_num":3,"R_den":4,"correct_side":2,"subjID":"AnaSofiaGil9","gender":"1","school":"6","age":"11"},{"start_time":1551891364707,"click_time":1551891366047,"finger_time":1551891365606,"fix_duration":1360.1094068866523,"trial":36,"RT":899,"MT":441,"sideResp":1,"stimulus":[],"xmouse":[793,793,793,793,793,793,793,793,793,793,793,793,793,793,793,793,793,793,793,793,793,793,793,793,793,793,793,793,793,793,793,793,793,793,793,793,793,793,793,793,793,793,787,778,750,679,651,622,607,593,572,564,556,549,546,542,542,542,540,533,503,494,492,491,491,481,470],"ymouse":[619,619,619,619,619,619,619,619,619,619,619,619,619,619,619,619,619,619,619,619,619,619,619,619,619,619,619,619,619,619,619,619,619,619,619,619,619,619,619,619,619,619,604,589,550,464,428,371,334,303,252,234,219,205,195,189,189,189,187,178,156,148,142,139,137,118,97],"timestamp_mouse":[33,38,59,80,99,118,138,158,179,199,219,238,258,279,299,320,338,359,379,399,418,439,460,478,498,518,538,560,578,599,618,638,659,678,698,718,739,759,778,799,818,840,859,878,899,918,938,958,979,998,1018,1038,1060,1079,1098,1118,1139,1158,1179,1199,1220,1238,1259,1278,1299,1319,1340],"xSR":741.5,"ySR":573.95,"xT1":424.9,"yT1":0,"xT2":1058.1,"yT2":0,"toosoon":0,"cond_shown":"Congruent","ratio_trial":200,"L_num":11,"L_den":22,"R_num":3,"R_den":10,"correct_side":1,"subjID":"AnaSofiaGil9","gender":"1","school":"6","age":"11"},{"start_time":1551891367179,"click_time":1551891368587,"finger_time":1551891368327,"fix_duration":250,"trial":37,"RT":1148,"MT":260,"sideResp":2,"stimulus":[],"xmouse":[790,790,790,790,790,790,791,795,798,801,798,797,796,796,793,793,793,793,793,793,793,793,793,793,793,793,793,793,793,793,793,793,793,793,793,793,793,793,793,793,793,793,793,793,793,793,793,793,793,793,793,793,793,791,790,792,799,849,894,937,984,1022,1064,1075,1078,1079,1079,1079,1085,1092,1096],"ymouse":[622,622,622,622,622,623,624,629,640,648,648,647,647,647,646,645,645,644,644,644,644,644,644,644,644,644,644,644,644,644,644,644,644,644,644,644,644,644,644,644,644,644,644,644,644,644,644,644,644,644,644,644,644,648,650,649,638,567,501,436,366,306,237,214,193,169,154,133,118,102,91],"timestamp_mouse":[8,32,48,67,87,108,126,147,166,186,207,228,248,266,287,307,327,346,366,386,407,427,446,467,486,506,527,548,566,586,607,627,647,667,688,706,726,746,767,786,806,826,847,866,886,906,926,948,966,986,1006,1027,1046,1066,1086,1107,1128,1148,1166,1186,1207,1226,1246,1267,1287,1307,1327,1347,1367,1387,1408],"xSR":741.5,"ySR":573.95,"xT1":424.9,"yT1":0,"xT2":1058.1,"yT2":0,"toosoon":0,"cond_shown":"Incongruent","ratio_trial":300,"L_num":4,"L_den":20,"R_num":2,"R_den":4,"correct_side":2,"subjID":"AnaSofiaGil9","gender":"1","school":"6","age":"11"},{"start_time":1551891370268,"click_time":1551891371506,"finger_time":1551891371106,"fix_duration":741.9321980057432,"trial":38,"RT":838,"MT":400,"sideResp":2,"stimulus":[],"xmouse":[772,772,772,773,773,773,773,773,773,773,773,773,773,773,773,773,773,773,777,781,782,783,783,783,783,783,783,784,784,786,786,786,786,786,786,786,788,794,803,822,835,852,887,903,918,925,933,951,969,982,994,1005,1021,1026,1030,1034,1037,1050,1058,1066,1077,1082],"ymouse":[607,614,623,625,625,625,625,625,625,625,625,625,625,625,625,625,625,625,625,625,625,625,625,625,625,625,625,625,625,625,625,625,625,625,625,625,625,621,614,598,587,572,533,514,494,477,460,417,379,357,336,316,275,254,231,207,184,144,128,115,100,91],"timestamp_mouse":[19,38,58,78,99,119,138,158,179,197,218,238,258,278,298,319,338,357,377,397,417,438,457,477,499,517,538,557,577,598,617,637,657,677,697,719,737,757,779,797,818,838,857,878,897,918,938,957,978,997,1017,1037,1058,1077,1099,1118,1138,1157,1178,1198,1217,1238],"xSR":741.5,"ySR":573.95,"xT1":424.9,"yT1":0,"xT2":1058.1,"yT2":0,"toosoon":0,"cond_shown":"Congruent","ratio_trial":300,"L_num":8,"L_den":15,"R_num":10,"R_den":12,"correct_side":2,"subjID":"AnaSofiaGil9","gender":"1","school":"6","age":"11"},{"start_time":1551891373166,"click_time":1551891374385,"finger_time":1551891373785,"fix_duration":440.37477098829805,"trial":39,"RT":619,"MT":600,"sideResp":2,"stimulus":[],"xmouse":[782,782,782,782,782,782,782,782,782,782,782,782,782,782,782,782,782,782,782,782,782,782,782,782,782,782,783,787,811,832,853,867,876,877,877,877,877,909,930,967,1007,1043,1086,1099,1112,1132,1148,1170,1172,1172,1172,1172,1172,1172,1169,1153,1141,1120,1116,1113,1112],"ymouse":[617,617,617,617,617,617,617,617,617,617,617,617,617,617,617,617,617,617,617,617,617,617,617,617,617,617,618,618,605,594,583,575,569,568,568,568,568,547,533,506,472,425,341,295,244,194,173,146,139,137,137,137,137,137,137,134,130,118,111,102,95],"timestamp_mouse":[21,40,60,80,101,120,140,159,179,199,219,240,260,279,299,319,340,359,379,399,419,439,459,479,499,519,540,560,579,599,619,640,661,679,700,721,740,761,779,800,821,840,859,880,899,919,939,960,979,999,1019,1040,1059,1080,1099,1120,1140,1159,1179,1199,1219],"xSR":741.5,"ySR":573.95,"xT1":424.9,"yT1":0,"xT2":1058.1,"yT2":0,"toosoon":0,"cond_shown":"Incongruent","ratio_trial":200,"L_num":11,"L_den":20,"R_num":3,"R_den":4,"correct_side":2,"subjID":"AnaSofiaGil9","gender":"1","school":"6","age":"11"},{"start_time":1551891376537,"click_time":1551891378066,"finger_time":1551891377825,"fix_duration":1290.2340731951335,"trial":40,"RT":1288,"MT":241,"sideResp":2,"stimulus":[],"xmouse":[804,804,804,804,804,804,804,804,804,804,804,804,804,804,804,804,804,804,804,804,804,804,804,804,804,804,804,804,804,804,804,804,804,804,804,804,804,804,804,804,804,804,804,804,804,804,804,806,812,819,821,822,823,823,823,823,823,823,823,823,823,823,825,832,870,894,914,941,956,988,1006,1024,1041,1078,1097,1111,1118],"ymouse":[632,632,632,632,632,632,632,632,632,632,632,632,632,632,632,632,632,632,632,632,632,632,632,632,632,632,632,632,632,632,632,632,632,632,632,632,632,632,632,632,632,632,632,632,632,632,632,632,629,628,628,628,628,628,628,628,628,628,628,628,628,628,626,623,605,589,576,534,497,405,362,319,281,195,152,105,73],"timestamp_mouse":[10,37,49,70,88,108,128,150,168,189,208,230,249,268,289,309,328,350,369,388,409,430,448,468,489,509,529,548,570,589,609,628,649,669,688,708,729,749,768,788,809,829,850,869,889,908,928,949,969,989,1009,1030,1048,1069,1088,1108,1129,1149,1170,1188,1208,1229,1248,1270,1288,1308,1329,1349,1369,1389,1408,1430,1449,1470,1488,1510,1529],"xSR":741.5,"ySR":573.95,"xT1":424.9,"yT1":0,"xT2":1058.1,"yT2":0,"toosoon":0,"cond_shown":"Congruent","ratio_trial":100,"L_num":12,"L_den":30,"R_num":13,"R_den":26,"correct_side":2,"subjID":"AnaSofiaGil9","gender":"1","school":"6","age":"11"},{"start_time":1551891378996,"click_time":1551891380566,"finger_time":1551891380126,"fix_duration":250,"trial":41,"RT":1130,"MT":440,"sideResp":2,"stimulus":[],"xmouse":[776,776,776,776,776,776,776,776,776,776,776,776,776,776,776,776,776,776,776,777,779,785,786,786,786,786,786,787,788,789,793,795,795,795,795,795,795,795,795,795,795,795,795,795,795,795,795,795,795,795,795,795,795,801,807,830,889,928,958,984,1042,1063,1076,1083,1085,1088,1095,1099,1101,1103,1103,1103,1103,1103,1103,1103,1103,1103,1103],"ymouse":[609,609,609,609,609,609,609,609,609,609,609,609,609,609,609,609,609,609,611,612,615,620,621,621,621,621,621,621,622,622,623,623,623,623,623,623,623,623,623,623,623,623,623,623,623,623,623,623,623,623,623,623,623,623,623,623,614,602,586,566,452,399,355,313,277,258,216,195,177,161,145,142,142,142,139,127,118,106,94],"timestamp_mouse":[10,30,49,70,90,110,130,151,170,191,209,229,249,270,291,310,330,349,370,389,409,429,450,469,489,509,531,549,569,590,610,630,649,669,691,710,730,751,769,790,810,830,851,869,889,911,931,950,969,990,1009,1029,1049,1069,1090,1110,1130,1149,1171,1190,1211,1230,1250,1270,1289,1309,1329,1350,1370,1390,1411,1429,1449,1470,1490,1510,1530,1549,1570],"xSR":741.5,"ySR":573.95,"xT1":424.9,"yT1":0,"xT2":1058.1,"yT2":0,"toosoon":0,"cond_shown":"Incongruent","ratio_trial":300,"L_num":1,"L_den":2,"R_num":2,"R_den":10,"correct_side":1,"subjID":"AnaSofiaGil9","gender":"1","school":"6","age":"11"},{"start_time":1551891382291,"click_time":1551891383306,"finger_time":1551891382965,"fix_duration":564.4159272749167,"trial":42,"RT":674,"MT":341,"sideResp":1,"stimulus":[],"xmouse":[774,774,774,774,774,774,774,774,774,774,774,774,774,774,774,774,774,774,774,774,774,774,774,774,774,774,774,774,774,774,774,784,785,769,710,506,431,394,382,376,375,374,374,374,374,374,374,384,406,421,429],"ymouse":[649,649,649,649,649,649,649,649,649,649,649,649,649,649,649,649,649,649,649,649,649,649,649,649,649,649,649,649,649,649,649,617,597,568,518,366,289,228,184,143,124,102,97,95,94,94,93,92,89,89,89],"timestamp_mouse":[15,38,55,76,95,115,135,156,175,194,214,235,254,274,296,316,335,355,374,394,415,434,454,474,496,516,534,554,576,595,614,635,654,674,695,716,734,756,776,795,815,834,854,876,896,914,934,954,975,994,1015],"xSR":741.5,"ySR":573.95,"xT1":424.9,"yT1":0,"xT2":1058.1,"yT2":0,"toosoon":0,"cond_shown":"Incongruent","ratio_trial":300,"L_num":4,"L_den":5,"R_num":6,"R_den":12,"correct_side":1,"subjID":"AnaSofiaGil9","gender":"1","school":"6","age":"11"},{"start_time":1551891385714,"click_time":1551891386906,"finger_time":1551891386486,"fix_duration":1447.0652741595845,"trial":43,"RT":772,"MT":420,"sideResp":1,"stimulus":[],"xmouse":[784,784,784,784,784,784,784,784,784,784,784,784,784,784,784,784,784,784,784,784,784,784,784,784,784,784,784,784,784,784,784,784,784,784,784,784,784,776,750,732,715,706,693,681,669,649,641,632,628,625,612,599,590,584,578,562,548,529,526,517],"ymouse":[634,634,634,634,634,634,634,634,634,634,634,634,634,634,634,634,634,634,634,634,634,634,634,634,634,634,634,634,634,634,634,634,634,634,634,634,634,603,541,513,479,458,428,395,369,324,307,288,269,242,198,178,164,155,150,133,120,102,98,84],"timestamp_mouse":[12,41,53,73,92,112,131,153,171,193,211,232,253,272,292,313,332,352,371,393,412,432,451,472,492,512,531,552,572,593,613,631,652,672,691,713,731,751,772,792,812,831,852,872,892,912,932,951,972,992,1011,1032,1052,1072,1093,1111,1132,1151,1172,1192],"xSR":741.5,"ySR":573.95,"xT1":424.9,"yT1":0,"xT2":1058.1,"yT2":0,"toosoon":0,"cond_shown":"Congruent","ratio_trial":300,"L_num":20,"L_den":25,"R_num":9,"R_den":18,"correct_side":1,"subjID":"AnaSofiaGil9","gender":"1","school":"6","age":"11"},{"start_time":1551891388955,"click_time":1551891390606,"finger_time":1551891389606,"fix_duration":1129.6840913648462,"trial":44,"RT":651,"MT":1000,"sideResp":1,"stimulus":[],"xmouse":[807,807,807,807,807,807,807,807,807,807,807,807,807,807,807,807,807,807,807,807,807,807,807,807,807,807,807,807,807,807,809,818,852,954,980,988,988,988,988,988,988,988,988,988,988,988,988,988,999,1006,1010,1012,1012,1012,1012,1012,1012,1012,1012,1012,1012,1009,1005,979,941,868,720,537,509,498,489,483,474,460,454,453,453,453,454,457,457,454,433],"ymouse":[629,629,629,629,629,629,629,629,629,629,629,629,629,629,629,629,629,629,629,629,629,629,629,629,629,629,629,629,629,629,626,617,590,493,457,441,436,435,435,435,435,435,435,435,435,435,435,427,395,371,352,339,333,330,330,330,330,330,330,330,329,329,331,348,368,401,454,491,490,485,470,450,425,364,329,284,248,228,183,162,140,119,62],"timestamp_mouse":[11,35,50,71,92,110,131,151,170,192,210,232,252,272,291,311,331,352,372,391,412,431,451,470,492,511,530,552,572,592,611,631,651,670,691,711,731,750,771,790,811,831,852,870,890,911,931,951,971,991,1011,1031,1052,1072,1090,1111,1130,1150,1171,1191,1211,1231,1251,1270,1290,1311,1332,1352,1371,1391,1412,1431,1451,1470,1491,1512,1532,1551,1571,1592,1610,1630,1651],"xSR":741.5,"ySR":573.95,"xT1":424.9,"yT1":0,"xT2":1058.1,"yT2":0,"toosoon":0,"cond_shown":"Incongruent","ratio_trial":200,"L_num":4,"L_den":30,"R_num":1,"R_den":3,"correct_side":2,"subjID":"AnaSofiaGil9","gender":"1","school":"6","age":"11"},{"start_time":1551891392795,"click_time":1551891393926,"finger_time":1551891393706,"fix_duration":1369.9528947190038,"trial":45,"RT":911,"MT":220,"sideResp":2,"stimulus":[],"xmouse":[784,784,784,784,784,784,784,784,784,784,784,784,784,784,784,784,784,784,784,784,784,784,784,784,784,784,784,784,784,784,784,784,784,784,784,784,784,784,784,784,784,794,814,837,840,843,852,861,874,895,927,1017,1041,1059,1072,1084,1099],"ymouse":[636,636,636,636,636,636,636,636,636,636,636,636,636,636,636,636,636,636,636,636,636,636,636,636,636,636,636,636,636,636,636,636,636,636,636,636,636,636,636,636,636,636,630,625,624,623,620,616,610,596,568,401,