[{"start_time":1551790212224,"click_time":1551790214048,"finger_time":1551790213548,"fix_duration":250,"trial":0,"RT":1324,"MT":500,"sideResp":2,"stimulus":[],"xmouse":[804,804,804,804,804,804,804,804,804,804,804,804,804,804,804,804,804,804,804,804,804,804,804,804,804,804,804,804,804,804,804,804,804,804,804,804,804,804,804,804,804,804,804,804,804,804,804,804,804,804,804,804,804,804,804,804,804,804,804,804,805,805,809,811,825,891,932,960,980,985,986,986,986,983,981,981,985,993,1008,1020,1039,1051,1062,1068,1071,1071,1071,1071,1070,1068,1067],"ymouse":[535,535,535,535,535,535,535,535,535,535,535,535,535,535,535,535,535,535,535,535,535,535,535,535,535,535,535,535,535,535,535,535,535,535,535,535,535,535,535,535,535,535,535,535,535,535,535,535,535,535,535,535,535,535,535,535,535,535,535,535,534,534,531,528,512,440,400,374,342,324,305,296,287,278,269,249,234,219,201,187,171,163,154,147,141,137,136,131,115,104,86],"timestamp_mouse":[10,49,65,86,105,124,145,166,185,204,224,244,264,285,304,325,344,364,384,406,425,445,464,485,505,524,545,566,584,605,625,644,666,684,705,724,744,764,784,805,825,844,865,884,906,925,945,965,986,1004,1024,1044,1066,1085,1104,1125,1144,1165,1186,1205,1226,1245,1266,1284,1304,1324,1345,1365,1384,1404,1425,1445,1465,1485,1505,1524,1544,1564,1585,1606,1625,1644,1664,1685,1704,1724,1744,1766,1784,1804,1824],"xSR":741.5,"ySR":500.5,"xT1":424.9,"yT1":0,"xT2":1058.1,"yT2":0,"toosoon":0,"cond_shown":"Incongruent","ratio_trial":100,"L_num":1,"L_den":2,"R_num":8,"R_den":20,"correct_side":1,"subjID":"JULIANSANCHEZMESA33","gender":"0","age":"11","school":"CAFAM","test":{"fix_dur":[250,1500],"timestim":1000,"targets_dim":[100,100],"targets_relative_coord":[0.3,0.7],"size_stim":[880,420],"start_dim":[100,100],"size_start":[300,300],"size_fix":60,"samplingrate":20,"img_types":["Congruent","Incongruent"],"ratios":[100,200,300],"rep_conds":19,"nTrials":120,"trials_to_rest":500,"Trials_order":[1,88,17,119,98,76,35,24,29,105,99,5,108,59,112,47,4,92,42,74,33,81,44,57,53,34,19,116,38,43,14,22,80,90,60,2,27,50,111,82,40,87,89,106,67,83,100,13,32,77,55,9,86,103,102,23,58,73,6,65,61,46,107,41,117,91,10,114,64,18,28,37,11,71,97,20,3,93,63,66,95,70,30,72,68,51,78,113,16,84,79,109,48,115,69,56,104,54,15,7,96,0,52,36,8,101,39,49,75,62,118,25,110,12,31,26,85,45,94,21],"cond_shown":["Incongruent","Congruent","Incongruent","Incongruent","Congruent","Congruent","Incongruent","Congruent","Incongruent","Incongruent","Incongruent","Incongruent","Congruent","Incongruent","Congruent","Incongruent","Congruent","Congruent","Congruent","Congruent","Incongruent","Incongruent","Congruent","Incongruent","Incongruent","Congruent","Incongruent","Congruent","Congruent","Incongruent","Congruent","Congruent","Congruent","Congruent","Congruent","Congruent","Incongruent","Congruent","Incongruent","Congruent","Congruent","Incongruent","Incongruent","Congruent","Incongruent","Incongruent","Congruent","Incongruent","Congruent","Incongruent","Incongruent","Incongruent","Congruent","Incongruent","Congruent","Incongruent","Congruent","Incongruent","Congruent","Incongruent","Incongruent","Congruent","Incongruent","Incongruent","Incongruent","Incongruent","Congruent","Congruent","Congruent","Congruent","Congruent","Incongruent","Incongruent","Incongruent","Incongruent","Congruent","Incongruent","Incongruent","Incongruent","Congruent","Incongruent","Congruent","Congruent","Congruent","Congruent","Incongruent","Congruent","Incongruent","Congruent","Congruent","Incongruent","Incongruent","Congruent","Incongruent","Incongruent","Congruent","Congruent","Congruent","Incongruent","Incongruent","Congruent","Congruent","Congruent","Congruent","Congruent","Incongruent","Incongruent","Incongruent","Incongruent","Congruent","Congruent","Incongruent","Congruent","Congruent","Incongruent","Congruent","Incongruent","Incongruent","Congruent","Incongruent"],"ratio_trial":[100,300,300,300,200,300,300,100,300,200,200,300,100,300,300,300,300,200,100,200,200,200,200,200,300,300,100,200,200,100,200,300,200,100,100,200,200,200,200,300,300,200,300,300,100,300,300,100,200,300,100,200,200,100,100,300,300,100,100,300,100,300,300,300,200,100,300,100,300,100,300,100,300,300,100,200,200,200,200,100,300,300,100,100,200,200,100,300,300,100,100,100,100,100,200,200,200,100,200,100,100,100,300,100,200,300,200,100,200,200,300,100,200,100,100,200,100,200,300,200],"left_num":[1,20,4,4,5,5,4,12,1,11,6,8,10,13,2,1,3,9,10,4,7,3,12,7,1,5,6,16,16,10,6,3,11,7,2,6,6,4,7,2,9,1,13,4,10,4,5,3,3,8,10,7,21,13,3,1,8,8,2,8,2,24,3,8,7,10,4,4,11,15,5,3,3,4,10,20,7,4,7,3,13,24,4,2,3,6,6,4,5,10,10,8,2,10,1,4,12,7,7,3,11,6,20,3,9,13,4,3,11,20,24,6,16,11,3,13,9,1,3,7],"right_num":[8,13,6,8,14,7,6,13,3,3,3,14,3,12,12,2,11,13,3,3,6,1,6,4,2,6,13,9,9,9,3,4,3,15,11,3,3,3,6,10,3,3,12,13,8,2,6,4,14,9,8,12,2,12,4,2,1,1,6,14,6,2,4,9,14,9,1,6,4,13,7,11,4,2,9,9,6,14,14,2,12,2,6,11,14,3,5,2,6,3,8,6,6,8,3,3,6,15,12,7,4,5,9,2,13,12,1,4,3,9,8,11,12,4,11,14,6,3,11,14],"left_den":[2,25,5,5,10,25,5,30,2,20,20,10,25,26,10,2,12,30,25,10,15,10,20,15,2,25,10,30,30,25,15,6,22,14,5,15,20,8,15,20,10,2,26,20,25,20,25,6,10,10,25,10,30,26,20,2,16,20,5,10,4,30,6,10,10,25,10,8,22,25,25,5,6,20,25,25,15,6,10,6,26,30,8,5,10,20,20,20,25,25,25,16,5,25,2,8,20,14,10,9,22,20,25,6,30,26,30,6,20,25,30,10,20,22,5,26,18,2,12,10],"right_den":[20,26,12,16,20,14,12,26,15,4,6,28,10,15,24,10,20,26,10,15,9,2,15,6,10,12,26,27,27,18,15,5,10,25,22,15,6,10,9,25,5,10,15,26,16,4,12,10,28,18,16,24,4,20,16,10,5,2,12,28,15,4,20,18,28,18,10,10,20,26,14,22,20,4,18,15,9,30,28,5,15,4,10,22,28,6,25,4,12,10,16,10,12,16,10,10,15,25,24,30,10,25,18,5,26,15,3,10,4,15,16,22,20,10,22,20,10,10,20,28],"correct_side":[1,1,1,1,2,2,1,2,1,2,2,1,1,2,2,1,2,2,1,1,2,2,1,2,1,2,1,1,1,2,1,2,1,2,2,1,2,1,2,2,1,1,2,2,2,2,2,1,2,1,2,1,1,2,2,1,1,2,2,1,1,1,1,1,1,2,1,2,1,1,2,1,1,2,2,1,2,1,1,1,2,1,2,2,2,2,1,2,2,1,2,2,2,2,1,1,1,2,1,1,1,1,1,1,2,2,2,1,2,1,1,1,1,1,1,2,2,1,2,1],"img_shown":["img2/100/Incongruent/L/I_Dist_100_LN_1_LD_2_RN_8_RD_20_0.png","img2/300/Congruent/L/C_Dist_300_LN_20_LD_25_RN_13_RD_26_0.png","img2/300/Incongruent/L/I_Dist_300_LN_4_LD_5_RN_6_RD_12_0.png","img2/300/Incongruent/L/I_Dist_300_LN_4_LD_5_RN_8_RD_16_0.png","img2/200/Congruent/R/C_Dist_200_LN_5_LD_10_RN_14_RD_20_1.png","img2/300/Congruent/R/C_Dist_300_LN_5_LD_25_RN_7_RD_14_1.png","img2/300/Incongruent/L/I_Dist_300_LN_4_LD_5_RN_6_RD_12_0.png","img2/100/Congruent/R/C_Dist_100_LN_12_LD_30_RN_13_RD_26_1.png","img2/300/Incongruent/L/I_Dist_300_LN_1_LD_2_RN_3_RD_15_0.png","img2/200/Incongruent/R/I_Dist_200_LN_11_LD_20_RN_3_RD_4_1.png","img2/200/Incongruent/R/I_Dist_200_LN_6_LD_20_RN_3_RD_6_1.png","img2/300/Incongruent/L/I_Dist_300_LN_8_LD_10_RN_14_RD_28_0.png","img2/100/Congruent/L/C_Dist_100_LN_10_LD_25_RN_3_RD_10_0.png","img2/300/Incongruent/R/I_Dist_300_LN_13_LD_26_RN_12_RD_15_1.png","img2/300/Congruent/R/C_Dist_300_LN_2_LD_10_RN_12_RD_24_1.png","img2/300/Incongruent/L/I_Dist_300_LN_1_LD_2_RN_2_RD_10_0.png","img2/300/Congruent/R/C_Dist_300_LN_3_LD_12_RN_11_RD_20_1.png","img2/200/Congruent/R/C_Dist_200_LN_9_LD_30_RN_13_RD_26_1.png","img2/100/Congruent/L/C_Dist_100_LN_10_LD_25_RN_3_RD_10_0.png","img2/200/Congruent/L/C_Dist_200_LN_4_LD_10_RN_3_RD_15_0.png","img2/200/Incongruent/R/I_Dist_200_LN_7_LD_15_RN_6_RD_9_1.png","img2/200/Incongruent/R/I_Dist_200_LN_3_LD_10_RN_1_RD_2_1.png","img2/200/Congruent/L/C_Dist_200_LN_12_LD_20_RN_6_RD_15_0.png","img2/200/Incongruent/R/I_Dist_200_LN_7_LD_15_RN_4_RD_6_1.png","img2/300/Incongruent/L/I_Dist_300_LN_1_LD_2_RN_2_RD_10_0.png","img2/300/Congruent/R/C_Dist_300_LN_5_LD_25_RN_6_RD_12_1.png","img2/100/Incongruent/L/I_Dist_100_LN_6_LD_10_RN_13_RD_26_0.png","img2/200/Congruent/L/C_Dist_200_LN_16_LD_30_RN_9_RD_27_0.png","img2/200/Congruent/L/C_Dist_200_LN_16_LD_30_RN_9_RD_27_0.png","img2/100/Incongruent/R/I_Dist_100_LN_10_LD_25_RN_9_RD_18_1.png","img2/200/Congruent/L/C_Dist_200_LN_6_LD_15_RN_3_RD_15_0.png","img2/300/Congruent/R/C_Dist_300_LN_3_LD_6_RN_4_RD_5_1.png","img2/200/Congruent/L/C_Dist_200_LN_11_LD_22_RN_3_RD_10_0.png","img2/100/Congruent/R/C_Dist_100_LN_7_LD_14_RN_15_RD_25_1.png","img2/100/Congruent/R/C_Dist_100_LN_2_LD_5_RN_11_RD_22_1.png","img2/200/Congruent/L/C_Dist_200_LN_6_LD_15_RN_3_RD_15_0.png","img2/200/Incongruent/R/I_Dist_200_LN_6_LD_20_RN_3_RD_6_1.png","img2/200/Congruent/L/C_Dist_200_LN_4_LD_8_RN_3_RD_10_0.png","img2/200/Incongruent/R/I_Dist_200_LN_7_LD_15_RN_6_RD_9_1.png","img2/300/Congruent/R/C_Dist_300_LN_2_LD_20_RN_10_RD_25_1.png","img2/300/Congruent/L/C_Dist_300_LN_9_LD_10_RN_3_RD_5_0.png","img2/200/Incongruent/L/I_Dist_200_LN_1_LD_2_RN_3_RD_10_0.png","img2/300/Incongruent/R/I_Dist_300_LN_13_LD_26_RN_12_RD_15_1.png","img2/300/Congruent/R/C_Dist_300_LN_4_LD_20_RN_13_RD_26_1.png","img2/100/Incongruent/R/I_Dist_100_LN_10_LD_25_RN_8_RD_16_1.png","img2/300/Incongruent/R/I_Dist_300_LN_4_LD_20_RN_2_RD_4_1.png","img2/300/Congruent/R/C_Dist_300_LN_5_LD_25_RN_6_RD_12_1.png","img2/100/Incongruent/L/I_Dist_100_LN_3_LD_6_RN_4_RD_10_0.png","img2/200/Congruent/R/C_Dist_200_LN_3_LD_10_RN_14_RD_28_1.png","img2/300/Incongruent/L/I_Dist_300_LN_8_LD_10_RN_9_RD_18_0.png","img2/100/Incongruent/R/I_Dist_100_LN_10_LD_25_RN_8_RD_16_1.png","img2/200/Incongruent/L/I_Dist_200_LN_7_LD_10_RN_12_RD_24_0.png","img2/200/Congruent/L/C_Dist_200_LN_21_LD_30_RN_2_RD_4_0.png","img2/100/Incongruent/R/I_Dist_100_LN_13_LD_26_RN_12_RD_20_1.png","img2/100/Congruent/R/C_Dist_100_LN_3_LD_20_RN_4_RD_16_1.png","img2/300/Incongruent/L/I_Dist_300_LN_1_LD_2_RN_2_RD_10_0.png","img2/300/Congruent/L/C_Dist_300_LN_8_LD_16_RN_1_RD_5_0.png","img2/100/Incongruent/R/I_Dist_100_LN_8_LD_20_RN_1_RD_2_1.png","img2/100/Congruent/R/C_Dist_100_LN_2_LD_5_RN_6_RD_12_1.png","img2/300/Incongruent/L/I_Dist_300_LN_8_LD_10_RN_14_RD_28_0.png","img2/100/Incongruent/L/I_Dist_100_LN_2_LD_4_RN_6_RD_15_0.png","img2/300/Congruent/L/C_Dist_300_LN_24_LD_30_RN_2_RD_4_0.png","img2/300/Incongruent/L/I_Dist_300_LN_3_LD_6_RN_4_RD_20_0.png","img2/300/Incongruent/L/I_Dist_300_LN_8_LD_10_RN_9_RD_18_0.png","img2/200/Incongruent/L/I_Dist_200_LN_7_LD_10_RN_14_RD_28_0.png","img2/100/Incongruent/R/I_Dist_100_LN_10_LD_25_RN_9_RD_18_1.png","img2/300/Congruent/L/C_Dist_300_LN_4_LD_10_RN_1_RD_10_0.png","img2/100/Congruent/R/C_Dist_100_LN_4_LD_8_RN_6_RD_10_1.png","img2/300/Congruent/L/C_Dist_300_LN_11_LD_22_RN_4_RD_20_0.png","img2/100/Congruent/L/C_Dist_100_LN_15_LD_25_RN_13_RD_26_0.png","img2/300/Congruent/R/C_Dist_300_LN_5_LD_25_RN_7_RD_14_1.png","img2/100/Incongruent/L/I_Dist_100_LN_3_LD_5_RN_11_RD_22_0.png","img2/300/Incongruent/L/I_Dist_300_LN_3_LD_6_RN_4_RD_20_0.png","img2/300/Incongruent/R/I_Dist_300_LN_4_LD_20_RN_2_RD_4_1.png","img2/100/Incongruent/R/I_Dist_100_LN_10_LD_25_RN_9_RD_18_1.png","img2/200/Congruent/L/C_Dist_200_LN_20_LD_25_RN_9_RD_15_0.png","img2/200/Incongruent/R/I_Dist_200_LN_7_LD_15_RN_6_RD_9_1.png","img2/200/Incongruent/L/I_Dist_200_LN_4_LD_6_RN_14_RD_30_0.png","img2/200/Incongruent/L/I_Dist_200_LN_7_LD_10_RN_14_RD_28_0.png","img2/100/Congruent/L/C_Dist_100_LN_3_LD_6_RN_2_RD_5_0.png","img2/300/Incongruent/R/I_Dist_300_LN_13_LD_26_RN_12_RD_15_1.png","img2/300/Congruent/L/C_Dist_300_LN_24_LD_30_RN_2_RD_4_0.png","img2/100/Congruent/R/C_Dist_100_LN_4_LD_8_RN_6_RD_10_1.png","img2/100/Congruent/R/C_Dist_100_LN_2_LD_5_RN_11_RD_22_1.png","img2/200/Congruent/R/C_Dist_200_LN_3_LD_10_RN_14_RD_28_1.png","img2/200/Incongruent/R/I_Dist_200_LN_6_LD_20_RN_3_RD_6_1.png","img2/100/Congruent/L/C_Dist_100_LN_6_LD_20_RN_5_RD_25_0.png","img2/300/Incongruent/R/I_Dist_300_LN_4_LD_20_RN_2_RD_4_1.png","img2/300/Congruent/R/C_Dist_300_LN_5_LD_25_RN_6_RD_12_1.png","img2/100/Congruent/L/C_Dist_100_LN_10_LD_25_RN_3_RD_10_0.png","img2/100/Incongruent/R/I_Dist_100_LN_10_LD_25_RN_8_RD_16_1.png","img2/100/Incongruent/R/I_Dist_100_LN_8_LD_16_RN_6_RD_10_1.png","img2/100/Congruent/R/C_Dist_100_LN_2_LD_5_RN_6_RD_12_1.png","img2/100/Incongruent/R/I_Dist_100_LN_10_LD_25_RN_8_RD_16_1.png","img2/200/Incongruent/L/I_Dist_200_LN_1_LD_2_RN_3_RD_10_0.png","img2/200/Congruent/L/C_Dist_200_LN_4_LD_8_RN_3_RD_10_0.png","img2/200/Congruent/L/C_Dist_200_LN_12_LD_20_RN_6_RD_15_0.png","img2/100/Congruent/R/C_Dist_100_LN_7_LD_14_RN_15_RD_25_1.png","img2/200/Incongruent/L/I_Dist_200_LN_7_LD_10_RN_12_RD_24_0.png","img2/100/Incongruent/L/I_Dist_100_LN_3_LD_9_RN_7_RD_30_0.png","img2/100/Congruent/L/C_Dist_100_LN_11_LD_22_RN_4_RD_10_0.png","img2/100/Congruent/L/C_Dist_100_LN_6_LD_20_RN_5_RD_25_0.png","img2/300/Congruent/L/C_Dist_300_LN_20_LD_25_RN_9_RD_18_0.png","img2/100/Congruent/L/C_Dist_100_LN_3_LD_6_RN_2_RD_5_0.png","img2/200/Congruent/R/C_Dist_200_LN_9_LD_30_RN_13_RD_26_1.png","img2/300/Incongruent/R/I_Dist_300_LN_13_LD_26_RN_12_RD_15_1.png","img2/200/Incongruent/R/I_Dist_200_LN_4_LD_30_RN_1_RD_3_1.png","img2/100/Incongruent/L/I_Dist_100_LN_3_LD_6_RN_4_RD_10_0.png","img2/200/Incongruent/R/I_Dist_200_LN_11_LD_20_RN_3_RD_4_1.png","img2/200/Congruent/L/C_Dist_200_LN_20_LD_25_RN_9_RD_15_0.png","img2/300/Congruent/L/C_Dist_300_LN_24_LD_30_RN_8_RD_16_0.png","img2/100/Incongruent/L/I_Dist_100_LN_6_LD_10_RN_11_RD_22_0.png","img2/200/Congruent/L/C_Dist_200_LN_16_LD_20_RN_12_RD_20_0.png","img2/100/Congruent/L/C_Dist_100_LN_11_LD_22_RN_4_RD_10_0.png","img2/100/Incongruent/L/I_Dist_100_LN_3_LD_5_RN_11_RD_22_0.png","img2/200/Congruent/R/C_Dist_200_LN_13_LD_26_RN_14_RD_20_1.png","img2/100/Incongruent/R/I_Dist_100_LN_9_LD_18_RN_6_RD_10_1.png","img2/200/Incongruent/L/I_Dist_200_LN_1_LD_2_RN_3_RD_10_0.png","img2/300/Congruent/R/C_Dist_300_LN_3_LD_12_RN_11_RD_20_1.png","img2/200/Incongruent/L/I_Dist_200_LN_7_LD_10_RN_14_RD_28_0.png"],"dist100_C":[["C_Dist_100_LN_10_LD_25_RN_3_RD_10_0.png","C_Dist_100_LN_11_LD_22_RN_4_RD_10_0.png","C_Dist_100_LN_11_LD_22_RN_6_RD_15_0.png","C_Dist_100_LN_15_LD_25_RN_13_RD_26_0.png","C_Dist_100_LN_3_LD_6_RN_2_RD_5_0.png","C_Dist_100_LN_6_LD_20_RN_5_RD_25_0.png","C_Dist_100_LN_8_LD_16_RN_2_RD_5_0.png","C_Dist_100_LN_9_LD_15_RN_8_RD_16_0.png"],["C_Dist_100_LN_1_LD_2_RN_18_RD_30_1.png","C_Dist_100_LN_1_LD_2_RN_3_RD_5_1.png","C_Dist_100_LN_12_LD_30_RN_13_RD_26_1.png","C_Dist_100_LN_2_LD_5_RN_11_RD_22_1.png","C_Dist_100_LN_2_LD_5_RN_6_RD_12_1.png","C_Dist_100_LN_3_LD_20_RN_4_RD_16_1.png","C_Dist_100_LN_4_LD_10_RN_15_RD_30_1.png","C_Dist_100_LN_4_LD_8_RN_6_RD_10_1.png","C_Dist_100_LN_6_LD_12_RN_15_RD_25_1.png","C_Dist_100_LN_7_LD_14_RN_15_RD_25_1.png","C_Dist_100_LN_7_LD_14_RN_9_RD_15_1.png"]],"dist100_I":[["I_Dist_100_LN_1_LD_2_RN_8_RD_20_0.png","I_Dist_100_LN_2_LD_4_RN_6_RD_15_0.png","I_Dist_100_LN_2_LD_4_RN_8_RD_20_0.png","I_Dist_100_LN_3_LD_5_RN_11_RD_22_0.png","I_Dist_100_LN_3_LD_5_RN_8_RD_16_0.png","I_Dist_100_LN_3_LD_6_RN_4_RD_10_0.png","I_Dist_100_LN_3_LD_9_RN_7_RD_30_0.png","I_Dist_100_LN_4_LD_8_RN_8_RD_20_0.png","I_Dist_100_LN_6_LD_10_RN_11_RD_22_0.png","I_Dist_100_LN_6_LD_10_RN_13_RD_26_0.png","I_Dist_100_LN_6_LD_10_RN_7_RD_14_0.png","I_Dist_100_LN_9_LD_10_RN_20_RD_25_0.png","I_Dist_100_LN_9_LD_15_RN_13_RD_26_0.png","I_Dist_100_LN_9_LD_15_RN_14_RD_28_0.png"],["I_Dist_100_LN_10_LD_25_RN_8_RD_16_1.png","I_Dist_100_LN_10_LD_25_RN_9_RD_18_1.png","I_Dist_100_LN_11_LD_22_RN_9_RD_15_1.png","I_Dist_100_LN_12_LD_24_RN_9_RD_15_1.png","I_Dist_100_LN_12_LD_30_RN_2_RD_4_1.png","I_Dist_100_LN_13_LD_26_RN_12_RD_20_1.png","I_Dist_100_LN_13_LD_26_RN_6_RD_10_1.png","I_Dist_100_LN_17_LD_30_RN_10_RD_15_1.png","I_Dist_100_LN_6_LD_12_RN_3_RD_5_1.png","I_Dist_100_LN_8_LD_16_RN_6_RD_10_1.png","I_Dist_100_LN_8_LD_20_RN_1_RD_2_1.png","I_Dist_100_LN_9_LD_18_RN_6_RD_10_1.png"]],"dist100_S":[["E_Dist_100_LN_2_LD_12_RN_2_RD_30_0.png","E_Dist_100_LN_6_LD_10_RN_6_RD_12_0.png"],["E_Dist_100_LN_6_LD_12_RN_6_RD_10_1.png"]],"dist200_C":[["C_Dist_200_LN_11_LD_22_RN_3_RD_10_0.png","C_Dist_200_LN_12_LD_15_RN_6_RD_10_0.png","C_Dist_200_LN_12_LD_20_RN_6_RD_15_0.png","C_Dist_200_LN_14_LD_28_RN_6_RD_20_0.png","C_Dist_200_LN_15_LD_25_RN_4_RD_10_0.png","C_Dist_200_LN_16_LD_20_RN_12_RD_20_0.png","C_Dist_200_LN_16_LD_30_RN_9_RD_27_0.png","C_Dist_200_LN_20_LD_25_RN_9_RD_15_0.png","C_Dist_200_LN_21_LD_30_RN_2_RD_4_0.png","C_Dist_200_LN_4_LD_10_RN_3_RD_15_0.png","C_Dist_200_LN_4_LD_8_RN_3_RD_10_0.png","C_Dist_200_LN_6_LD_15_RN_3_RD_15_0.png","C_Dist_200_LN_7_LD_21_RN_2_RD_15_0.png","C_Dist_200_LN_8_LD_15_RN_2_RD_6_0.png","C_Dist_200_LN_8_LD_15_RN_3_RD_9_0.png","C_Dist_200_LN_8_LD_15_RN_7_RD_21_0.png","C_Dist_200_LN_9_LD_20_RN_4_RD_16_0.png"],["C_Dist_200_LN_1_LD_2_RN_21_RD_30_1.png","C_Dist_200_LN_13_LD_26_RN_14_RD_20_1.png","C_Dist_200_LN_3_LD_10_RN_11_RD_22_1.png","C_Dist_200_LN_3_LD_10_RN_14_RD_28_1.png","C_Dist_200_LN_3_LD_10_RN_7_RD_14_1.png","C_Dist_200_LN_3_LD_12_RN_9_RD_20_1.png","C_Dist_200_LN_3_LD_6_RN_14_RD_20_1.png","C_Dist_200_LN_5_LD_10_RN_14_RD_20_1.png","C_Dist_200_LN_6_LD_12_RN_7_RD_10_1.png","C_Dist_200_LN_6_LD_20_RN_11_RD_22_1.png","C_Dist_200_LN_7_LD_15_RN_18_RD_27_1.png","C_Dist_200_LN_9_LD_30_RN_13_RD_26_1.png"]],"dist200_I":[["I_Dist_200_LN_1_LD_2_RN_3_RD_10_0.png","I_Dist_200_LN_1_LD_3_RN_2_RD_15_0.png","I_Dist_200_LN_3_LD_4_RN_11_RD_20_0.png","I_Dist_200_LN_4_LD_5_RN_6_RD_10_0.png","I_Dist_200_LN_4_LD_6_RN_14_RD_30_0.png","I_Dist_200_LN_7_LD_10_RN_12_RD_24_0.png","I_Dist_200_LN_7_LD_10_RN_14_RD_28_0.png","I_Dist_200_LN_7_LD_10_RN_8_RD_16_0.png"],["I_Dist_200_LN_11_LD_20_RN_3_RD_4_1.png","I_Dist_200_LN_14_LD_30_RN_12_RD_18_1.png","I_Dist_200_LN_14_LD_30_RN_6_RD_9_1.png","I_Dist_200_LN_3_LD_10_RN_1_RD_2_1.png","I_Dist_200_LN_4_LD_30_RN_1_RD_3_1.png","I_Dist_200_LN_6_LD_20_RN_3_RD_6_1.png","I_Dist_200_LN_7_LD_15_RN_4_RD_6_1.png","I_Dist_200_LN_7_LD_15_RN_6_RD_9_1.png","I_Dist_200_LN_9_LD_15_RN_8_RD_10_1.png"]],"dist200_S":[["E_Dist_200_LN_3_LD_6_RN_3_RD_10_0.png"],["E_Dist_200_LN_3_LD_10_RN_3_RD_6_1.png"]],"dist300_C":[["C_Dist_300_LN_11_LD_22_RN_1_RD_5_0.png","C_Dist_300_LN_11_LD_22_RN_2_RD_10_0.png","C_Dist_300_LN_11_LD_22_RN_4_RD_20_0.png","C_Dist_300_LN_12_LD_24_RN_2_RD_10_0.png","C_Dist_300_LN_18_LD_20_RN_9_RD_15_0.png","C_Dist_300_LN_20_LD_25_RN_13_RD_26_0.png","C_Dist_300_LN_20_LD_25_RN_14_RD_28_0.png","C_Dist_300_LN_20_LD_25_RN_5_RD_10_0.png","C_Dist_300_LN_20_LD_25_RN_8_RD_16_0.png","C_Dist_300_LN_20_LD_25_RN_9_RD_18_0.png","C_Dist_300_LN_24_LD_30_RN_2_RD_4_0.png","C_Dist_300_LN_24_LD_30_RN_8_RD_16_0.png","C_Dist_300_LN_3_LD_6_RN_2_RD_10_0.png","C_Dist_300_LN_4_LD_10_RN_1_RD_10_0.png","C_Dist_300_LN_4_LD_5_RN_2_RD_4_0.png","C_Dist_300_LN_8_LD_16_RN_1_RD_5_0.png","C_Dist_300_LN_9_LD_10_RN_3_RD_5_0.png"],["C_Dist_300_LN_1_LD_20_RN_7_RD_20_1.png","C_Dist_300_LN_1_LD_3_RN_19_RD_30_1.png","C_Dist_300_LN_1_LD_30_RN_8_RD_24_1.png","C_Dist_300_LN_1_LD_5_RN_11_RD_22_1.png","C_Dist_300_LN_1_LD_5_RN_3_RD_6_1.png","C_Dist_300_LN_1_LD_5_RN_6_RD_12_1.png","C_Dist_300_LN_2_LD_10_RN_12_RD_24_1.png","C_Dist_300_LN_2_LD_20_RN_10_RD_25_1.png","C_Dist_300_LN_3_LD_12_RN_11_RD_20_1.png","C_Dist_300_LN_3_LD_6_RN_4_RD_5_1.png","C_Dist_300_LN_4_LD_20_RN_13_RD_26_1.png","C_Dist_300_LN_5_LD_25_RN_6_RD_12_1.png","C_Dist_300_LN_5_LD_25_RN_7_RD_14_1.png","C_Dist_300_LN_7_LD_14_RN_20_RD_25_1.png","C_Dist_300_LN_8_LD_15_RN_10_RD_12_1.png"]],"dist300_I":[["I_Dist_300_LN_1_LD_2_RN_2_RD_10_0.png","I_Dist_300_LN_1_LD_2_RN_3_RD_15_0.png","I_Dist_300_LN_2_LD_4_RN_6_RD_30_0.png","I_Dist_300_LN_3_LD_6_RN_4_RD_20_0.png","I_Dist_300_LN_4_LD_5_RN_6_RD_12_0.png","I_Dist_300_LN_4_LD_5_RN_8_RD_16_0.png","I_Dist_300_LN_7_LD_10_RN_8_RD_20_0.png","I_Dist_300_LN_8_LD_10_RN_14_RD_28_0.png","I_Dist_300_LN_8_LD_10_RN_9_RD_18_0.png"],["I_Dist_300_LN_13_LD_26_RN_12_RD_15_1.png","I_Dist_300_LN_4_LD_20_RN_2_RD_4_1.png"]],"dist300_S":[["E_Dist_300_LN_9_LD_12_RN_9_RD_20_0.png"],["E_Dist_300_LN_18_LD_30_RN_18_RD_20_1.png","E_Dist_300_LN_3_LD_10_RN_3_RD_5_1.png","E_Dist_300_LN_9_LD_20_RN_9_RD_12_1.png"]],"dist500_C":[["C_Dist_500_LN_10_LD_13_RN_7_RD_26_0.png","C_Dist_500_LN_10_LD_15_RN_4_RD_24_0.png","C_Dist_500_LN_12_LD_16_RN_3_RD_12_0.png","C_Dist_500_LN_12_LD_18_RN_4_RD_24_0.png","C_Dist_500_LN_15_LD_18_RN_5_RD_15_0.png","C_Dist_500_LN_15_LD_20_RN_1_RD_4_0.png","C_Dist_500_LN_18_LD_27_RN_1_RD_6_0.png","C_Dist_500_LN_20_LD_24_RN_1_RD_3_0.png","C_Dist_500_LN_20_LD_24_RN_3_RD_9_0.png","C_Dist_500_LN_20_LD_24_RN_7_RD_21_0.png","C_Dist_500_LN_20_LD_28_RN_3_RD_14_0.png","C_Dist_500_LN_21_LD_28_RN_6_RD_24_0.png","C_Dist_500_LN_22_LD_28_RN_2_RD_7_0.png","C_Dist_500_LN_25_LD_30_RN_9_RD_27_0.png","C_Dist_500_LN_4_LD_6_RN_1_RD_6_0.png","C_Dist_500_LN_5_LD_6_RN_2_RD_6_0.png","C_Dist_500_LN_6_LD_9_RN_1_RD_6_0.png","C_Dist_500_LN_7_LD_10_RN_1_RD_5_0.png","C_Dist_500_LN_8_LD_12_RN_1_RD_6_0.png","C_Dist_500_LN_8_LD_12_RN_4_RD_24_0.png"],["C_Dist_500_LN_1_LD_4_RN_12_RD_16_1.png","C_Dist_500_LN_1_LD_4_RN_9_RD_12_1.png","C_Dist_500_LN_1_LD_9_RN_11_RD_18_1.png","C_Dist_500_LN_10_LD_24_RN_22_RD_24_1.png","C_Dist_500_LN_2_LD_12_RN_10_RD_15_1.png","C_Dist_500_LN_2_LD_12_RN_12_RD_18_1.png","C_Dist_500_LN_2_LD_12_RN_4_RD_6_1.png","C_Dist_500_LN_2_LD_24_RN_7_RD_12_1.png","C_Dist_500_LN_2_LD_5_RN_18_RD_20_1.png","C_Dist_500_LN_2_LD_5_RN_9_RD_10_1.png","C_Dist_500_LN_2_LD_8_RN_12_RD_16_1.png","C_Dist_500_LN_2_LD_8_RN_21_RD_28_1.png","C_Dist_500_LN_3_LD_10_RN_4_RD_5_1.png","C_Dist_500_LN_3_LD_12_RN_15_RD_20_1.png","C_Dist_500_LN_3_LD_30_RN_6_RD_10_1.png","C_Dist_500_LN_3_LD_8_RN_14_RD_16_1.png","C_Dist_500_LN_4_LD_16_RN_15_RD_20_1.png","C_Dist_500_LN_4_LD_24_RN_12_RD_18_1.png","C_Dist_500_LN_5_LD_14_RN_6_RD_7_1.png","C_Dist_500_LN_7_LD_21_RN_20_RD_24_1.png","C_Dist_500_LN_7_LD_28_RN_12_RD_16_1.png","C_Dist_500_LN_7_LD_28_RN_9_RD_12_1.png","C_Dist_500_LN_9_LD_27_RN_20_RD_24_1.png"]],"dist500_I":[["I_Dist_500_LN_2_LD_3_RN_4_RD_24_0.png","I_Dist_500_LN_5_LD_6_RN_6_RD_18_0.png","I_Dist_500_LN_7_LD_8_RN_9_RD_24_0.png"],["I_Dist_500_LN_7_LD_21_RN_5_RD_6_1.png"]],"dist500_S":[["E_Dist_500_LN_6_LD_8_RN_6_RD_24_0.png"],["E_Dist_500_LN_2_LD_12_RN_2_RD_3_1.png","E_Dist_500_LN_6_LD_24_RN_6_RD_8_1.png"]]}},{"start_time":1551790216483,"click_time":1551790218029,"finger_time":1551790217449,"fix_duration":892.2077071415823,"trial":1,"RT":966,"MT":580,"sideResp":1,"stimulus":[],"xmouse":[761,761,761,761,761,761,761,761,761,761,761,761,761,761,761,761,761,761,761,761,761,761,761,761,761,761,761,761,761,761,761,761,761,761,761,761,761,761,761,761,761,761,761,761,761,761,761,758,739,723,703,679,660,637,627,616,606,604,600,595,589,580,566,540,535,534,531,530,530,528,527,526,523,513,507,501,491,482],"ymouse":[587,587,587,587,587,587,587,587,587,587,587,587,587,587,587,587,587,587,587,587,587,587,587,587,587,587,587,587,587,587,587,587,587,587,587,587,587,587,587,587,587,587,587,587,587,587,586,582,560,541,514,480,456,423,408,394,379,372,344,329,316,299,273,221,199,192,179,175,169,165,161,157,153,129,119,112,102,95],"timestamp_mouse":[6,26,46,65,86,105,126,145,165,185,207,226,246,266,285,306,326,345,365,386,405,425,445,465,486,505,526,546,565,586,606,625,647,665,685,707,725,745,766,786,806,827,845,865,885,905,926,947,966,986,1006,1026,1047,1065,1086,1106,1126,1147,1165,1185,1206,1225,1245,1265,1287,1307,1327,1346,1365,1385,1405,1425,1445,1465,1486,1506,1525,1545],"xSR":741.5,"ySR":501.8,"xT1":424.9,"yT1":0,"xT2":1058.1,"yT2":0,"toosoon":0,"cond_shown":"Congruent","ratio_trial":300,"L_num":20,"L_den":25,"R_num":13,"R_den":26,"correct_side":1,"subjID":"JULIANSANCHEZMESA33","gender":"0","school":"CAFAM","age":"11"},{"start_time":1551790220150,"click_time":1551790222248,"finger_time":1551790221748,"fix_duration":639.7794293134114,"trial":2,"RT":1598,"MT":500,"sideResp":2,"stimulus":[],"xmouse":[802,802,802,802,802,802,802,802,802,802,802,802,802,802,802,802,802,802,802,802,802,802,802,802,802,802,802,802,802,802,802,802,802,802,802,802,802,802,802,802,802,802,802,802,802,802,802,802,802,802,802,802,802,802,802,802,802,802,802,802,802,802,802,802,802,802,802,802,802,802,802,802,802,804,812,819,824,832,841,862,871,876,879,879,875,875,877,882,884,889,891,892,892,892,892,892,893,895,908,980,1033,1076,1113,1120,1124],"ymouse":[547,547,547,547,547,547,547,547,547,547,547,547,547,547,547,547,547,547,547,547,547,547,547,547,547,547,547,547,547,547,547,547,547,547,547,547,547,547,547,547,547,547,547,547,547,547,547,547,547,547,547,547,547,547,547,547,547,547,547,547,547,547,547,547,547,547,547,547,547,547,547,547,547,547,546,542,532,518,505,469,447,425,393,369,311,256,209,182,166,145,139,136,135,135,135,135,134,134,134,120,107,103,103,101,98],"timestamp_mouse":[33,39,58,79,99,118,139,158,180,198,219,240,258,279,298,318,339,359,378,400,418,439,460,479,498,520,539,558,579,598,619,638,659,680,699,720,739,759,779,799,818,840,860,879,900,919,939,958,979,1000,1020,1038,1059,1080,1100,1118,1138,1158,1180,1199,1219,1239,1259,1279,1298,1318,1339,1359,1378,1399,1419,1439,1459,1478,1498,1518,1540,1559,1579,1598,1618,1639,1660,1679,1699,1719,1738,1758,1779,1799,1819,1839,1858,1879,1899,1919,1939,1958,1979,1999,2019,2038,2058,2078,2098],"xSR":741.5,"ySR":501.8,"xT1":424.9,"yT1":0,"xT2":1058.1,"yT2":0,"toosoon":0,"cond_shown":"Incongruent","ratio_trial":300,"L_num":4,"L_den":5,"R_num":6,"R_den":12,"correct_side":1,"subjID":"JULIANSANCHEZMESA33","gender":"0","school":"CAFAM","age":"11"},{"start_time":1551790225003,"click_time":1551790227409,"finger_time":1551790226449,"fix_duration":332.85554326153976,"trial":3,"RT":1446,"MT":960,"sideResp":2,"stimulus":[],"xmouse":[814,811,809,809,809,809,809,809,809,809,809,809,809,809,809,809,809,809,809,809,809,809,809,809,809,809,809,809,809,809,809,809,809,809,809,809,809,809,809,809,809,809,809,809,809,809,809,809,809,809,809,809,809,809,809,809,809,809,809,809,809,809,809,809,809,809,809,809,809,809,812,825,866,902,933,953,963,971,971,971,969,968,966,966,966,966,966,986,1003,1018,1036,1042,1050,1054,1055,1057,1058,1060,1061,1062,1063,1063,1063,1063,1064,1065,1066,1067,1068,1069,1070,1070,1070,1070,1070,1070,1070,1070,1070,1071,1072],"ymouse":[556,552,550,550,550,550,550,550,550,550,550,550,550,550,550,550,550,550,550,550,550,550,550,550,550,550,550,550,550,550,550,550,550,550,550,550,550,550,550,550,550,550,550,550,550,550,550,550,550,550,550,550,550,550,550,550,550,550,550,550,550,550,550,550,550,550,550,550,550,550,543,531,484,430,370,321,284,231,214,206,201,200,198,198,198,198,196,188,182,177,166,159,137,127,123,120,117,114,112,108,106,106,106,106,105,104,104,102,102,102,101,101,101,101,101,101,101,101,101,100,99],"timestamp_mouse":[8,33,45,67,85,105,126,145,166,185,205,225,245,266,286,305,327,346,365,387,406,427,445,465,486,507,526,545,566,585,606,625,646,665,686,707,726,745,766,785,806,826,846,866,886,905,926,947,965,986,1006,1026,1045,1066,1087,1106,1126,1145,1167,1185,1206,1227,1246,1266,1287,1307,1326,1347,1367,1385,1406,1425,1446,1466,1485,1507,1525,1545,1566,1587,1607,1625,1645,1665,1685,1706,1726,1745,1768,1785,1806,1825,1846,1865,1887,1906,1926,1945,1965,1985,2005,2026,2046,2066,2087,2105,2126,2145,2167,2185,2205,2226,2246,2266,2286,2305,2326,2345,2366,2385,2406],"xSR":741.5,"ySR":501.8,"xT1":424.9,"yT1":0,"xT2":1058.1,"yT2":0,"toosoon":0,"cond_shown":"Incongruent","ratio_trial":300,"L_num":4,"L_den":5,"R_num":8,"R_den":16,"correct_side":1,"subjID":"JULIANSANCHEZMESA33","gender":"0","school":"CAFAM","age":"11"},{"start_time":1551790229539,"click_time":1551790231709,"finger_time":1551790230948,"fix_duration":410.06884719429735,"trial":4,"RT":1409,"MT":761,"sideResp":2,"stimulus":[],"xmouse":[824,824,824,824,824,824,824,824,824,824,824,824,824,824,824,824,824,824,823,823,823,823,823,823,823,823,823,823,823,823,823,823,823,823,823,823,823,823,823,823,823,823,823,823,823,823,823,823,823,823,823,823,823,823,823,823,823,823,823,823,823,823,823,823,823,823,823,823,826,830,870,907,931,951,958,968,975,984,995,1006,1029,1033,1034,1034,1031,1030,1030,1031,1033,1034,1039,1042,1044,1049,1056,1077,1084,1088,1089,1089,1089,1089,1089,1089,1089,1089,1090,1092,1094],"ymouse":[574,574,574,574,574,574,574,574,574,574,574,574,574,574,574,574,574,574,573,573,573,573,573,573,573,573,573,573,573,573,573,573,573,573,573,573,573,573,573,573,573,573,573,573,573,573,573,573,573,573,573,573,573,573,573,573,573,573,573,566,564,564,564,564,564,562,562,562,560,554,503,460,424,388,370,339,325,310,295,279,240,221,206,190,182,173,171,167,162,157,143,138,136,131,124,113,110,107,106,106,106,106,106,106,106,105,102,100,97],"timestamp_mouse":[10,40,51,70,90,109,130,149,171,191,210,229,251,269,289,310,329,350,371,391,409,431,449,469,489,510,531,550,570,590,609,630,649,670,689,709,731,750,769,790,810,830,850,870,890,909,929,951,971,990,1010,1030,1049,1071,1089,1110,1129,1150,1169,1190,1211,1229,1250,1269,1289,1309,1330,1350,1369,1390,1409,1429,1449,1469,1490,1510,1529,1549,1570,1591,1610,1630,1649,1669,1690,1709,1730,1750,1769,1790,1809,1830,1850,1870,1889,1910,1930,1949,1969,1990,2010,2030,2049,2070,2089,2110,2129,2149,2170],"xSR":741.5,"ySR":501.8,"xT1":424.9,"yT1":0,"xT2":1058.1,"yT2":0,"toosoon":0,"cond_shown":"Congruent","ratio_trial":200,"L_num":5,"L_den":10,"R_num":14,"R_den":20,"correct_side":2,"subjID":"JULIANSANCHEZMESA33","gender":"0","school":"CAFAM","age":"11"},{"start_time":1551790233393,"click_time":1551790234948,"finger_time":1551790234629,"fix_duration":563.9171207276328,"trial":5,"RT":1236,"MT":319,"sideResp":2,"stimulus":[],"xmouse":[829,829,829,829,829,829,829,829,829,829,829,829,829,829,829,829,829,829,829,829,829,829,829,829,829,829,829,829,829,829,829,829,829,829,829,829,829,829,829,829,829,829,829,829,829,829,829,829,829,829,829,829,829,829,829,829,829,829,831,832,835,842,900,974,1055,1129,1177,1205,1206,1206,1203,1201,1191,1182,1171,1164,1161,1156],"ymouse":[552,552,552,552,552,552,552,552,552,552,552,552,552,552,552,552,552,552,552,552,552,552,552,552,552,552,552,552,552,552,552,552,552,552,552,552,552,552,552,552,552,552,552,552,552,552,552,552,552,552,552,552,552,552,552,552,552,550,547,546,543,538,476,392,303,231,189,158,153,150,143,133,96,78,64,57,56,55],"timestamp_mouse":[15,35,56,76,97,116,136,155,176,195,216,235,257,275,296,316,335,357,376,395,416,437,455,475,496,515,536,556,575,595,616,636,655,677,697,715,737,755,777,795,815,835,856,876,895,917,935,956,977,997,1016,1036,1057,1075,1096,1116,1135,1155,1176,1195,1217,1236,1255,1275,1295,1315,1336,1355,1376,1395,1415,1435,1456,1475,1495,1515,1536,1555],"xSR":741.5,"ySR":501.8,"xT1":424.9,"yT1":0,"xT2":1058.1,"yT2":0,"toosoon":0,"cond_shown":"Congruent","ratio_trial":300,"L_num":5,"L_den":25,"R_num":7,"R_den":14,"correct_side":2,"subjID":"JULIANSANCHEZMESA33","gender":"0","school":"CAFAM","age":"11"},{"start_time":1551790236399,"click_time":1551790239289,"finger_time":1551790238029,"fix_duration":250,"trial":6,"RT":1630,"MT":1260,"sideResp":1,"stimulus":[],"xmouse":[800,800,800,800,800,800,800,800,800,800,800,800,800,800,800,800,800,800,800,800,800,800,800,800,800,800,800,800,800,800,800,800,800,800,800,800,800,800,800,800,800,800,800,800,800,800,800,800,800,800,800,800,800,800,800,800,800,800,800,800,800,800,800,800,800,800,800,800,800,800,800,800,800,800,800,800,800,800,800,805,822,843,923,964,992,1006,1009,1009,1008,1008,1008,1008,1008,1008,1008,1008,1008,1008,1009,1012,1020,1029,1062,1089,1105,1113,1114,1114,1101,1093,1071,1037,1003,1000,1000,1000,1000,1000,998,992,977,961,910,873,834,783,745,672,662,648,635,632,626,622,617,614,611,606,601,597,587,578,548,535,524],"ymouse":[521,521,521,521,521,521,521,521,521,521,521,521,521,521,521,521,522,522,522,522,522,522,522,522,522,522,522,522,522,522,522,522,522,522,522,522,522,522,522,522,522,522,522,522,522,522,522,522,522,522,522,522,522,522,522,522,522,522,522,522,522,522,522,522,522,522,522,522,522,522,522,522,522,522,522,522,522,522,522,519,504,481,396,360,334,316,305,294,287,280,263,255,245,241,235,228,223,214,209,201,188,177,152,133,123,117,117,117,118,120,124,132,138,140,140,140,140,140,140,143,146,149,156,159,159,163,167,174,175,175,175,175,166,157,145,128,109,83,75,70,69,69,72,74,76],"timestamp_mouse":[10,34,50,69,90,110,129,151,169,191,209,229,250,270,289,309,330,349,369,391,410,430,449,469,490,509,529,549,569,590,611,629,650,670,691,709,729,749,771,791,809,831,849,870,891,909,929,950,969,991,1009,1030,1051,1071,1089,1109,1129,1150,1170,1191,1211,1229,1251,1269,1290,1309,1330,1349,1371,1389,1411,1430,1449,1469,1491,1509,1529,1550,1570,1589,1610,1630,1649,1669,1689,1709,1730,1750,1769,1790,1810,1830,1850,1869,1889,1909,1930,1949,1970,1990,2009,2029,2049,2069,2089,2110,2129,2150,2169,2189,2210,2230,2250,2269,2290,2309,2330,2349,2370,2389,2410,2430,2449,2469,2491,2511,2530,2549,2569,2590,2609,2629,2650,2670,2689,2709,2729,2750,2769,2789,2811,2830,2849,2869,2890],"xSR":741.5,"ySR":501.8,"xT1":424.9,"yT1":0,"xT2":1058.1,"yT2":0,"toosoon":0,"cond_shown":"Incongruent","ratio_trial":300,"L_num":4,"L_den":5,"R_num":6,"R_den":12,"correct_side":1,"subjID":"JULIANSANCHEZMESA33","gender":"0","school":"CAFAM","age":"11"},{"start_time":1551790240481,"click_time":1551790242288,"finger_time":1551790242029,"fix_duration":250,"trial":7,"RT":1548,"MT":259,"sideResp":1,"stimulus":[],"xmouse":[787,787,787,787,787,787,787,787,787,787,787,787,787,787,787,787,787,787,787,787,787,787,787,787,787,787,787,787,787,787,787,787,787,787,787,787,787,787,787,787,787,787,787,787,787,787,787,787,787,787,787,787,787,787,787,787,787,787,787,787,787,787,787,787,787,787,787,787,787,787,787,787,787,787,787,787,776,752,688,655,634,615,602,578,566,551,541,524,513,513,513],"ymouse":[554,554,554,554,554,554,554,554,554,554,554,554,554,554,554,554,554,554,554,554,554,554,554,554,554,554,554,554,554,554,554,554,554,554,554,554,554,554,554,554,554,554,554,554,554,554,554,554,554,554,554,554,554,554,554,554,554,554,554,554,554,554,554,554,554,554,554,554,554,554,554,554,554,554,553,548,513,466,386,362,349,337,325,297,282,255,229,184,115,100,89],"timestamp_mouse":[7,27,48,68,87,107,127,148,167,187,209,227,248,268,287,308,327,347,368,387,409,428,448,468,488,509,527,547,568,587,607,628,648,667,689,707,728,748,767,788,809,828,848,868,887,908,928,947,968,989,1007,1027,1047,1067,1089,1108,1127,1148,1167,1187,1207,1228,1248,1267,1288,1307,1329,1347,1368,1387,1409,1427,1448,1468,1488,1507,1527,1548,1568,1587,1607,1627,1648,1667,1687,1707,1727,1748,1768,1787,1807],"xSR":741.5,"ySR":501.8,"xT1":424.9,"yT1":0,"xT2":1058.1,"yT2":0,"toosoon":0,"cond_shown":"Congruent","ratio_trial":100,"L_num":12,"L_den":30,"R_num":13,"R_den":26,"correct_side":2,"subjID":"JULIANSANCHEZMESA33","gender":"0","school":"CAFAM","age":"11"},{"start_time":1551790244599,"click_time":1551790246409,"finger_time":1551790245748,"fix_duration":1190.9730075670536,"trial":8,"RT":1149,"MT":661,"sideResp":2,"stimulus":[],"xmouse":[790,790,790,790,790,790,790,790,790,790,790,790,790,790,790,790,790,790,790,790,790,790,790,790,790,790,790,790,790,790,790,790,790,790,790,790,790,790,790,790,790,790,790,790,790,790,790,790,790,790,790,790,790,790,793,807,826,909,955,987,1010,1014,1017,1017,1017,1015,1009,1006,1006,1006,1006,1003,995,995,1001,1001,1001,1001,1001,1001,1001,1001,1001,1001,1001,1001,1001,1001,1001,1001,1076],"ymouse":[566,566,566,566,566,566,566,566,566,566,566,566,566,566,566,566,566,566,566,566,566,566,566,566,566,566,566,566,566,566,566,566,566,566,566,566,566,566,566,566,566,566,566,566,566,566,566,566,566,566,566,566,566,566,562,553,539,476,444,418,395,387,372,354,331,308,291,277,262,255,226,207,133,59,20,20,20,20,20,20,20,20,20,20,20,20,20,20,20,20,10],"timestamp_mouse":[11,34,49,69,91,110,130,149,170,190,210,229,249,269,291,309,329,349,370,389,409,429,450,469,490,511,529,549,571,591,610,630,651,670,689,709,729,749,770,791,810,831,851,871,889,909,930,950,970,990,1010,1030,1049,1069,1089,1109,1129,1149,1169,1190,1210,1230,1250,1269,1289,1309,1330,1349,1369,1390,1409,1429,1449,1469,1489,1509,1530,1551,1570,1589,1609,1629,1650,1670,1689,1709,1730,1749,1770,1789,1810],"xSR":741.5,"ySR":501.8,"xT1":424.9,"yT1":0,"xT2":1058.1,"yT2":0,"toosoon":0,"cond_shown":"Incongruent","ratio_trial":300,"L_num":1,"L_den":2,"R_num":3,"R_den":15,"correct_side":1,"subjID":"JULIANSANCHEZMESA33","gender":"0","school":"CAFAM","age":"11"},{"start_time":1551790249602,"click_time":1551790251448,"finger_time":1551790251029,"fix_duration":1251.0759887250304,"trial":9,"RT":1427,"MT":419,"sideResp":1,"stimulus":[],"xmouse":[794,794,794,794,794,794,794,794,794,794,794,794,794,794,794,794,794,794,794,794,794,794,794,794,794,794,794,794,794,794,794,794,794,794,794,794,794,794,794,794,794,794,794,794,794,794,794,794,794,794,794,794,794,794,794,794,794,794,794,794,794,794,794,794,794,794,794,794,794,794,788,770,678,614,555,520,503,497,497,497,497,497,497,497,497,497,497,496,496,494,494,492,491],"ymouse":[515,515,515,515,515,515,515,515,515,515,515,515,515,515,515,515,515,515,515,515,515,515,515,515,515,515,515,515,515,515,515,515,515,515,515,515,515,515,515,515,515,515,515,515,515,515,515,515,515,515,515,515,515,515,515,515,515,515,515,515,515,515,515,515,515,515,515,515,515,515,511,479,356,276,215,184,169,165,165,165,165,165,165,165,165,165,164,156,146,128,117,107,96],"timestamp_mouse":[10,30,46,66,87,107,127,146,166,188,207,226,247,266,286,306,328,346,368,388,406,427,446,467,487,506,527,547,567,586,608,627,646,668,687,707,726,747,767,788,807,828,846,866,886,906,928,947,968,986,1007,1028,1048,1068,1086,1108,1127,1147,1166,1188,1207,1226,1247,1266,1288,1307,1326,1346,1366,1386,1406,1427,1446,1466,1487,1507,1526,1547,1566,1587,1607,1626,1647,1667,1686,1707,1727,1747,1767,1787,1806,1827,1846],"xSR":741.5,"ySR":501.8,"xT1":424.9,"yT1":0,"xT2":1058.1,"yT2":0,"toosoon":0,"cond_shown":"Incongruent","ratio_trial":200,"L_num":11,"L_den":20,"R_num":3,"R_den":4,"correct_side":2,"subjID":"JULIANSANCHEZMESA33","gender":"0","school":"CAFAM","age":"11"},{"start_time":1551790254703,"click_time":1551790255848,"finger_time":1551790255508,"fix_duration":993.5271828124181,"trial":10,"RT":805,"MT":340,"sideResp":2,"stimulus":[],"xmouse":[812,812,812,812,812,812,812,812,812,812,812,812,812,812,812,812,811,810,810,809,809,809,809,809,809,809,809,809,809,809,809,809,809,807,805,803,801,799,799,801,811,827,858,888,919,956,995,1056,1073,1084,1089,1091,1092,1092,1092,1089,1085,1081],"ymouse":[556,556,556,556,556,556,556,556,556,556,556,556,556,556,556,556,555,554,554,554,554,554,554,554,554,554,554,554,554,554,554,554,554,554,551,546,543,536,531,518,496,462,404,363,328,291,261,212,189,167,153,148,142,136,129,112,103,97],"timestamp_mouse":[13,25,45,66,87,106,125,146,165,187,205,226,247,265,285,305,325,345,365,385,405,426,445,465,486,506,525,545,567,585,605,625,645,665,685,707,727,747,766,785,805,826,846,865,885,906,926,946,965,985,1005,1026,1046,1066,1086,1106,1125,1145],"xSR":741.5,"ySR":501.8,"xT1":424.9,"yT1":0,"xT2":1058.1,"yT2":0,"toosoon":0,"cond_shown":"Incongruent","ratio_trial":200,"L_num":6,"L_den":20,"R_num":3,"R_den":6,"correct_side":2,"subjID":"JULIANSANCHEZMESA33","gender":"0","school":"CAFAM","age":"11"},{"start_time":1551790256900,"click_time":1551790258089,"finger_time":1551790257489,"fix_duration":250,"trial":11,"RT":589,"MT":600,"sideResp":1,"stimulus":[],"xmouse":[804,802,801,801,801,801,801,801,801,801,801,801,801,801,801,801,801,801,801,801,801,801,801,801,800,796,788,758,743,730,719,709,694,692,690,689,688,674,657,634,614,599,579,567,549,519,504,495,495,495,495,495,495,495,495,495,495,495,495,494],"ymouse":[562,559,558,558,558,558,558,558,558,558,558,558,558,558,558,558,558,558,558,558,558,558,558,558,558,556,554,535,522,502,477,451,411,393,381,368,359,326,298,264,242,224,196,178,159,134,124,116,116,116,116,116,116,116,116,116,115,112,104,95],"timestamp_mouse":[8,35,48,68,88,109,128,148,169,190,208,230,249,268,288,310,329,349,368,389,408,428,448,469,488,508,529,548,569,589,608,628,648,668,688,708,729,748,768,788,808,829,848,869,889,909,929,950,969,988,1008,1028,1049,1068,1090,1109,1129,1149,1168,1189],"xSR":741.5,"ySR":501.8,"xT1":424.9,"yT1":0,"xT2":1058.1,"yT2":0,"toosoon":0,"cond_shown":"Incongruent","ratio_trial":300,"L_num":8,"L_den":10,"R_num":14,"R_den":28,"correct_side":1,"subjID":"JULIANSANCHEZMESA33","gender":"0","school":"CAFAM","age":"11"},{"start_time":1551790261127,"click_time":1551790262648,"finger_time":1551790262229,"fix_duration":1456.3439114872651,"trial":12,"RT":1102,"MT":419,"sideResp":2,"stimulus":[],"xmouse":[756,756,756,756,756,756,756,756,756,756,756,756,756,756,756,756,756,756,756,756,756,756,756,756,756,756,756,756,756,756,756,756,756,756,756,756,756,756,756,756,756,756,756,756,756,756,756,756,756,756,756,757,769,786,810,823,842,850,860,880,902,937,954,965,976,981,985,985,986,986,986,986,986,986,989,1009,1061],"ymouse":[542,542,542,542,542,542,542,542,542,542,542,542,542,542,542,542,542,542,542,542,542,542,542,542,542,542,542,542,542,542,542,542,542,542,542,542,542,542,542,542,542,542,542,542,542,542,542,542,542,542,542,542,533,522,506,499,484,474,447,389,313,190,155,128,95,74,53,49,48,48,48,48,47,47,47,47,52],"timestamp_mouse":[10,37,42,61,81,103,121,141,162,181,202,222,242,262,283,301,323,343,362,382,401,422,441,463,482,502,521,541,562,583,601,621,643,662,682,701,721,741,763,781,803,821,841,861,883,901,922,941,963,982,1001,1022,1043,1062,1082,1102,1121,1141,1162,1182,1201,1221,1242,1262,1281,1302,1323,1342,1362,1382,1401,1421,1441,1461,1481,1501,1521],"xSR":741.5,"ySR":501.8,"xT1":424.9,"yT1":0,"xT2":1058.1,"yT2":0,"toosoon":0,"cond_shown":"Congruent","ratio_trial":100,"L_num":10,"L_den":25,"R_num":3,"R_den":10,"correct_side":1,"subjID":"JULIANSANCHEZMESA33","gender":"0","school":"CAFAM","age":"11"},{"start_time":1551790267211,"click_time":1551790269090,"finger_time":1551790268648,"fix_duration":861.2074802652284,"trial":13,"RT":1437,"MT":442,"sideResp":2,"stimulus":[],"xmouse":[816,816,816,816,816,816,816,816,816,816,816,816,816,816,816,816,816,816,816,816,816,816,816,816,816,816,816,816,816,816,816,816,816,816,816,816,816,816,816,816,816,816,816,816,816,816,816,816,816,816,816,816,816,816,817,819,821,822,822,823,824,825,826,826,827,827,829,830,832,836,841,860,880,912,954,999,1081,1109,1121,1123,1123,1122,1122,1122,1122,1122,1121,1120,1116,1105,1099,1092,1087,1080],"ymouse":[534,534,534,534,534,534,534,534,534,534,534,534,534,534,534,534,534,534,534,534,534,534,534,534,534,534,534,534,534,534,534,534,534,534,534,534,534,534,534,534,534,534,534,534,534,534,534,534,534,534,534,534,534,534,534,533,533,533,532,532,531,530,529,529,527,526,525,524,523,520,516,500,483,459,428,392,308,265,239,219,217,216,216,216,216,216,216,215,209,185,163,124,105,90],"timestamp_mouse":[17,37,58,77,97,119,138,157,178,199,218,237,257,278,299,318,337,357,377,397,418,437,459,477,499,517,537,559,577,597,617,637,657,678,698,717,738,758,778,798,817,838,858,877,897,919,938,957,978,998,1017,1038,1059,1078,1097,1119,1137,1158,1177,1197,1217,1237,1257,1278,1298,1317,1337,1359,1377,1398,1417,1437,1457,1477,1498,1518,1537,1558,1578,1597,1617,1637,1657,1677,1699,1718,1738,1758,1777,1797,1818,1837,1857,1879],"xSR":741.5,"ySR":501.8,"xT1":424.9,"yT1":0,"xT2":1058.1,"yT2":0,"toosoon":0,"cond_shown":"Incongruent","ratio_trial":300,"L_num":13,"L_den":26,"R_num":12,"R_den":15,"correct_side":2,"subjID":"JULIANSANCHEZMESA33","gender":"0","school":"CAFAM","age":"11"},{"start_time":1551790271873,"click_time":1551790274929,"finger_time":1551790272988,"fix_duration":1482.4604257942394,"trial":14,"RT":1115,"MT":1941,"sideResp":2,"stimulus":[],"xmouse":[782,782,782,782,783,785,785,785,785,785,785,785,785,785,785,785,785,785,785,785,785,785,785,785,785,785,785,785,785,785,785,785,785,785,785,785,785,785,785,785,785,785,785,785,785,785,785,785,785,788,792,797,805,822,831,846,853,857,862,864,866,869,872,880,892,895,906,913,926,932,941,951,962,981,987,990,990,990,990,991,992,999,1008,1028,1040,1053,1069,1079,1092,1096,1097,1098,1098,1098,1098,1098,1098,1098,1098,1098,1098,1098,1098,1098,1098,1098,1098,1099,1102,1103,1103,1105,1105,1106,1106,1106,1106,1106,1106,1106,1106,1106,1106,1106,1106,1106,1107,1108,1110,1111,1112,1112,1113,1113,1113,1113,1113,1113,1113,1113,1113,1113,1113,1113,1113,1113,1113,1113,1113,1112,1111,1111,1110],"ymouse":[545,545,545,546,548,549,549,549,549,549,549,549,549,549,549,549,549,549,549,549,549,549,549,549,549,549,549,549,549,549,549,549,549,549,549,549,549,549,549,549,549,549,549,549,549,549,549,549,550,550,545,538,530,509,502,488,480,476,463,457,451,441,430,402,378,370,343,326,296,282,263,243,222,192,181,173,172,172,172,171,171,170,170,169,169,169,169,169,164,162,161,161,161,160,160,160,160,160,160,160,160,160,160,160,160,160,160,159,156,155,153,149,146,138,135,132,128,125,123,123,123,123,123,122,121,119,117,115,110,108,106,106,104,104,104,104,104,104,104,104,104,104,104,104,104,104,103,102,102,101,100,100,98],"timestamp_mouse":[16,40,56,75,95,116,135,155,175,195,215,235,255,277,295,315,335,355,375,395,415,436,456,475,497,515,536,555,576,595,615,635,655,677,695,715,735,755,775,796,815,835,856,875,896,915,935,955,976,995,1015,1036,1055,1075,1096,1115,1136,1155,1176,1195,1215,1235,1255,1275,1296,1315,1335,1356,1375,1395,1416,1436,1455,1476,1496,1515,1536,1555,1575,1595,1615,1635,1657,1675,1696,1715,1736,1756,1776,1795,1816,1836,1856,1876,1896,1916,1936,1956,1975,1996,2016,2035,2055,2076,2096,2116,2136,2155,2175,2195,2215,2236,2255,2276,2297,2316,2335,2355,2376,2396,2415,2436,2456,2475,2497,2515,2536,2555,2576,2597,2615,2635,2655,2675,2696,2715,2736,2755,2775,2795,2816,2837,2856,2876,2895,2915,2935,2955,2976,2995,3015,3036,3056],"xSR":741.5,"ySR":501.8,"xT1":424.9,"yT1":0,"xT2":1058.1,"yT2":0,"toosoon":0,"cond_shown":"Congruent","ratio_trial":300,"L_num":2,"L_den":10,"R_num":12,"R_den":24,"correct_side":2,"subjID":"JULIANSANCHEZMESA33","gender":"0","school":"CAFAM","age":"11"},{"start_time":1551790278828,"click_time":1551790281288,"finger_time":1551790279989,"fix_duration":1218.6412709012188,"trial":15,"RT":1161,"MT":1299,"sideResp":2,"stimulus":[],"xmouse":[771,771,771,771,771,771,771,770,770,770,770,770,770,770,770,770,770,770,770,770,770,770,770,770,770,770,770,770,770,770,770,770,770,770,770,770,770,770,770,770,770,770,770,770,770,770,770,770,770,770,770,775,776,779,781,783,794,809,822,833,848,861,868,878,890,905,929,937,944,950,951,952,952,952,952,952,952,953,954,957,958,972,987,1004,1020,1036,1048,1051,1052,1054,1055,1059,1061,1063,1063,1065,1069,1071,1073,1076,1076,1077,1077,1077,1077,1077,1077,1077,1077,1077,1077,1078,1078,1078,1078,1078,1078,1078,1078,1078,1078,1078,1078,1079],"ymouse":[538,538,538,538,538,538,538,538,538,539,539,540,540,540,540,540,540,540,540,540,540,540,540,540,540,540,540,540,540,540,540,540,540,540,540,540,540,540,540,540,540,540,540,540,540,540,540,540,540,540,540,540,540,540,539,538,529,514,500,487,466,445,433,416,391,363,311,288,267,246,236,229,229,229,229,229,229,227,225,221,220,215,210,201,189,179,166,160,158,154,152,146,141,137,134,130,121,117,114,109,108,104,103,103,103,103,103,103,102,102,101,101,101,101,101,101,101,101,101,101,101,101,100,99],"timestamp_mouse":[8,32,41,60,81,100,121,141,160,180,200,221,240,262,281,301,322,340,360,381,401,420,442,461,481,500,521,541,561,581,600,620,640,660,682,701,721,741,760,781,800,820,842,861,881,900,920,942,960,981,1001,1020,1040,1060,1080,1100,1120,1141,1161,1181,1201,1220,1240,1260,1281,1301,1320,1341,1361,1380,1400,1420,1441,1461,1480,1501,1520,1540,1562,1582,1601,1622,1642,1660,1680,1700,1720,1742,1761,1780,1800,1821,1840,1860,1880,1901,1921,1942,1961,1980,2000,2021,2040,2061,2080,2100,2120,2140,2160,2180,2201,2222,2242,2262,2280,2301,2321,2340,2361,2381,2401,2420,2440,2460],"xSR":741.5,"ySR":501.8,"xT1":424.9,"yT1":0,"xT2":1058.1,"yT2":0,"toosoon":0,"cond_shown":"Incongruent","ratio_trial":300,"L_num":1,"L_den":2,"R_num":2,"R_den":10,"correct_side":1,"subjID":"JULIANSANCHEZMESA33","gender":"0","school":"CAFAM","age":"11"},{"start_time":1551790285922,"click_time":1551790288130,"finger_time":1551790287329,"fix_duration":972.5276360432397,"trial":16,"RT":1407,"MT":801,"sideResp":2,"stimulus":[],"xmouse":[786,786,786,786,786,786,788,789,790,790,790,790,790,790,790,790,790,790,790,790,790,790,790,790,790,790,790,790,790,790,790,790,790,790,790,790,791,791,791,790,790,786,784,780,778,778,778,778,778,778,778,778,778,778,778,778,778,778,778,778,778,778,778,778,778,778,778,781,784,788,794,812,824,837,857,866,872,874,877,878,879,883,885,897,909,920,946,961,980,1004,1032,1093,1109,1114,1114,1114,1114,1114,1114,1114,1114,1114,1114,1114,1114,1115,1114,1111,1108,1106,1103],"ymouse":[532,532,532,532,532,533,533,533,533,533,533,533,533,533,533,533,533,533,533,533,533,533,533,533,533,533,533,533,533,533,533,533,533,533,533,533,533,533,532,531,530,525,523,521,520,520,520,520,520,520,520,520,520,520,520,520,520,520,520,520,520,520,520,520,520,520,516,512,509,502,489,445,416,385,336,304,242,222,208,204,200,194,190,172,160,156,156,159,161,161,154,133,130,130,130,130,130,130,130,130,130,130,130,130,130,127,118,112,106,100,90],"timestamp_mouse":[18,36,46,66,86,107,126,146,166,187,206,226,248,266,287,307,326,346,368,386,408,427,447,467,486,506,527,546,566,586,608,627,647,666,687,706,726,746,768,786,807,827,847,867,887,907,928,946,968,986,1006,1027,1047,1066,1087,1106,1126,1147,1167,1187,1206,1227,1246,1266,1286,1306,1326,1346,1367,1387,1407,1427,1447,1467,1487,1507,1527,1546,1566,1586,1606,1626,1648,1666,1688,1706,1726,1747,1768,1786,1808,1827,1847,1866,1888,1907,1926,1948,1968,1986,2007,2026,2047,2068,2087,2106,2126,2146,2167,2187,2208],"xSR":741.5,"ySR":501.8,"xT1":424.9,"yT1":0,"xT2":1058.1,"yT2":0,"toosoon":0,"cond_shown":"Congruent","ratio_trial":300,"L_num":3,"L_den":12,"R_num":11,"R_den":20,"correct_side":2,"subjID":"JULIANSANCHEZMESA33","gender":"0","school":"CAFAM","age":"11"},{"start_time":1551790293144,"click_time":1551790295868,"finger_time":1551790295408,"fix_duration":1494.827369659076,"trial":17,"RT":2264,"MT":460,"sideResp":1,"stimulus":[],"xmouse":[789,789,789,789,789,789,789,789,789,789,789,789,789,789,789,789,789,789,789,789,789,789,789,789,789,789,789,789,789,789,789,789,789,789,789,789,789,789,789,789,789,789,789,789,789,789,789,789,789,789,789,789,789,789,789,789,789,789,789,789,789,789,789,789,789,789,789,789,789,789,789,789,789,789,789,789,789,789,789,789,789,789,789,789,789,789,789,789,789,789,789,789,789,789,789,789,790,790,790,790,790,790,790,790,790,790,790,790,790,790,790,790,789,775,761,730,713,699,688,681,662,649,635,619,596,562,553,544,527,498,407,383,375,377,386,425,446],"ymouse":[593,593,593,593,593,593,593,593,593,593,593,593,593,593,593,593,593,593,593,593,593,593,593,593,593,593,593,593,593,593,593,593,593,593,593,593,593,593,593,593,593,593,593,593,593,593,593,593,593,593,593,593,593,593,593,593,593,593,593,593,593,593,593,593,593,593,593,593,593,593,593,593,593,593,593,593,593,593,593,593,593,593,593,593,593,593,593,593,593,593,593,593,593,591,589,582,579,577,577,576,576,576,576,576,576,576,576,574,573,570,556,546,527,492,471,425,405,389,377,368,352,343,331,317,292,260,251,246,241,237,236,233,230,225,211,118,84],"timestamp_mouse":[9,34,44,64,84,104,124,144,165,184,205,224,246,264,284,305,324,345,364,384,405,425,445,465,486,505,525,545,564,585,604,626,644,664,684,705,724,746,765,784,804,825,844,865,888,905,924,944,966,984,1004,1024,1046,1065,1085,1104,1124,1144,1164,1184,1204,1224,1245,1264,1285,1306,1325,1346,1365,1384,1404,1425,1444,1466,1485,1505,1525,1545,1566,1584,1604,1625,1644,1666,1684,1704,1724,1746,1765,1784,1804,1824,1845,1865,1884,1904,1925,1944,1964,1985,2004,2024,2046,2065,2085,2104,2124,2144,2164,2185,2204,2224,2245,2264,2285,2305,2325,2344,2364,2385,2405,2425,2444,2464,2485,2505,2524,2544,2565,2584,2604,2625,2644,2665,2684,2705,2724],"xSR":741.5,"ySR":501.8,"xT1":424.9,"yT1":0,"xT2":1058.1,"yT2":0,"toosoon":0,"cond_shown":"Congruent","ratio_trial":200,"L_num":9,"L_den":30,"R_num":13,"R_den":26,"correct_side":2,"subjID":"JULIANSANCHEZMESA33","gender":"0","school":"CAFAM","age":"11"},{"start_time":1551790300597,"click_time":1551790303089,"finger_time":1551790302048,"fix_duration":1347.832194442719,"trial":18,"RT":1451,"MT":1041,"sideResp":1,"stimulus":[],"xmouse":[799,799,799,799,799,799,799,799,799,799,799,799,799,799,799,799,799,799,799,799,799,799,799,799,799,799,799,799,799,799,799,799,799,799,799,799,799,799,799,799,799,799,799,799,799,799,799,799,799,799,799,799,799,799,799,799,799,799,799,799,799,799,799,799,799,799,799,799,800,800,795,782,735,706,690,682,679,677,673,663,618,586,546,538,534,529,522,507,504,504,504,504,504,504,504,504,503,503,503,502,502,500,498,498,498,497,497,497,496,496,496,496,496,496,496,496,496,496,496,496,496,496,498,499,499],"ymouse":[570,570,570,570,570,570,570,570,570,570,570,570,570,570,570,570,570,570,570,570,570,570,570,570,570,570,570,570,570,570,570,570,570,570,570,570,570,570,570,570,570,570,570,570,570,570,570,570,570,570,570,570,570,570,570,570,570,570,570,570,570,570,570,570,570,570,570,570,568,567,547,530,478,448,429,416,408,394,377,352,284,242,198,188,180,171,162,146,141,140,140,140,140,140,138,136,133,130,129,127,124,121,116,115,115,113,112,111,110,110,110,110,110,110,109,109,109,109,109,108,107,106,101,100,99],"timestamp_mouse":[13,33,52,71,92,111,131,151,173,193,212,232,252,271,291,312,332,351,373,392,412,432,451,472,491,513,531,552,572,591,612,631,653,673,691,712,731,751,772,792,812,832,851,871,891,911,932,952,973,993,1013,1032,1052,1072,1093,1112,1131,1151,1173,1193,1211,1231,1252,1272,1292,1312,1333,1353,1372,1391,1413,1432,1451,1472,1493,1512,1532,1552,1572,1592,1611,1632,1652,1671,1692,1713,1731,1751,1773,1791,1811,1832,1851,1871,1892,1911,1931,1951,1971,1992,2011,2032,2052,2072,2092,2111,2131,2152,2171,2192,2213,2232,2251,2271,2291,2312,2331,2353,2373,2392,2411,2432,2452,2472,2492],"xSR":741.5,"ySR":501.8,"xT1":424.9,"yT1":0,"xT2":1058.1,"yT2":0,"toosoon":0,"cond_shown":"Congruent","ratio_trial":100,"L_num":10,"L_den":25,"R_num":3,"R_den":10,"correct_side":1,"subjID":"JULIANSANCHEZMESA33","gender":"0","school":"CAFAM","age":"11"},{"start_time":1551790305266,"click_time":1551790307008,"finger_time":1551790306449,"fix_duration":416.120430398204,"trial":19,"RT":1183,"MT":559,"sideResp":1,"stimulus":[],"xmouse":[757,757,757,757,757,757,757,757,757,757,757,757,757,757,757,757,757,757,757,757,757,757,757,757,757,757,757,757,757,757,757,757,757,757,757,757,757,757,757,757,757,757,759,761,767,768,771,771,772,772,772,770,765,762,754,752,751,750,748,737,724,708,689,674,650,641,634,618,613,606,604,601,597,594,584,577,569,559,554,549,547,545,544,543,535,528,519,509],"ymouse":[567,567,567,567,567,567,567,567,567,567,567,567,567,567,567,567,567,567,567,567,567,567,567,567,567,567,567,567,567,567,567,567,567,567,567,567,567,567,567,567,567,567,567,565,554,554,553,553,553,553,552,546,534,524,512,508,506,505,502,488,473,458,441,425,388,370,350,318,300,276,267,257,244,234,208,194,181,168,160,146,141,138,134,132,122,114,103,91],"timestamp_mouse":[13,33,42,63,83,102,124,142,164,182,202,224,243,262,283,304,322,342,362,383,402,424,442,462,484,513,522,542,563,582,603,623,642,662,684,702,724,742,762,784,803,824,842,863,882,902,923,942,964,982,1002,1023,1043,1063,1083,1103,1122,1142,1162,1183,1203,1222,1243,1262,1283,1302,1323,1343,1363,1382,1403,1423,1442,1463,1482,1503,1523,1542,1562,1582,1602,1623,1643,1662,1682,1702,1723,1742],"xSR":741.5,"ySR":501.8,"xT1":424.9,"yT1":0,"xT2":1058.1,"yT2":0,"toosoon":0,"cond_shown":"Congruent","ratio_trial":200,"L_num":4,"L_den":10,"R_num":3,"R_den":15,"correct_side":1,"subjID":"JULIANSANCHEZMESA33","gender":"0","school":"CAFAM","age":"11"},{"start_time":1551790309173,"click_time":1551790311529,"finger_time":1551790310729,"fix_duration":841.1456075628763,"trial":20,"RT":1556,"MT":800,"sideResp":2,"stimulus":[],"xmouse":[754,754,754,754,754,754,754,756,761,768,771,772,773,773,773,773,773,772,772,772,772,772,772,772,772,772,772,772,772,772,772,772,772,772,772,772,772,772,772,772,772,772,772,772,772,772,772,771,769,766,765,761,759,757,757,757,757,757,757,757,757,757,757,757,757,757,757,757,757,757,757,757,757,757,757,763,777,802,858,887,905,926,935,943,948,954,959,963,969,972,974,977,980,981,981,981,982,986,998,1006,1012,1023,1035,1071,1084,1090,1091,1091,1091,1091,1092,1092,1094,1096,1096,1097,1098,1098],"ymouse":[556,556,556,556,556,556,556,558,560,563,566,567,570,571,573,574,575,576,576,576,576,576,576,576,576,576,576,576,576,576,576,576,576,576,576,576,576,576,576,576,576,576,576,576,576,576,576,576,574,573,572,570,569,569,569,569,569,569,569,569,569,569,569,569,569,569,569,569,569,569,569,569,569,569,567,553,525,468,366,324,299,270,261,246,231,214,202,198,187,182,174,165,161,160,160,159,158,155,149,146,143,138,133,125,122,121,120,120,120,120,120,119,114,111,109,106,102,96],"timestamp_mouse":[15,41,55,75,95,115,136,156,177,195,215,237,255,276,297,316,335,356,375,396,415,436,455,475,495,516,535,555,575,595,616,635,657,676,695,717,735,756,775,795,816,836,855,876,896,916,935,956,975,995,1015,1036,1055,1075,1097,1116,1136,1156,1175,1195,1215,1235,1257,1276,1296,1315,1336,1355,1376,1396,1415,1435,1456,1475,1495,1515,1536,1556,1575,1596,1616,1636,1656,1676,1696,1715,1735,1755,1776,1796,1815,1837,1855,1875,1896,1917,1936,1956,1975,1996,2016,2035,2055,2076,2095,2115,2135,2155,2175,2195,2215,2237,2257,2276,2296,2316,2336,2356],"xSR":741.5,"ySR":501.8,"xT1":424.9,"yT1":0,"xT2":1058.1,"yT2":0,"toosoon":0,"cond_shown":"Incongruent","ratio_trial":200,"L_num":7,"L_den":15,"R_num":6,"R_den":9,"correct_side":2,"subjID":"JULIANSANCHEZMESA33","gender":"0","school":"CAFAM","age":"11"},{"start_time":1551790318736,"click_time":1551790333110,"finger_time":1551790320689,"fix_duration":466.8119630303159,"trial":21,"RT":1953,"MT":12421,"sideResp":2,"stimulus":[],"xmouse":[774,774,774,774,774,774,774,774,774,774,774,774,774,774,774,774,774,774,774,774,774,774,774,774,774,774,774,774,774,774,774,774,774,774,774,774,774,774,774,774,774,774,774,774,774,774,774,774,774,774,774,774,774,774,774,774,774,774,774,774,774,774,774,774,774,774,774,774,774,775,779,781,782,783,783,783,783,783,783,783,783,783,783,783,783,783,783,783,783,783,783,783,783,783,784,785,773,751,727,676,676,676,676,676,676,676,676,676,676,676,710,740,767,795,806,815,817,819,821,822,824,822,815,802,792,774,766,754,742,730,696,675,636,546,494,464,463,463,462,460,447,443,443,449,464,507,525,539,547,550,551,551,551,551,551,551,552,557,563,574,604,634,654,672,686,711,726,742,759,773,787,790,790,793,795,794,785,771,762,755,746,744,743,742,741,730,712,687,648,604,548,546,546,546,559,623,668,706,736,776,787,792,792,778,713,506,427,381,376,383,651,875,1092,1294,1311,1252,1147,1017,910,858,850,854,874,899,921,930,930,930,927,926,962,1029,1144,1199,1215,1184,1124,1040,988,980,1031,1091,1155,1163,1163,1136,1103,1076,1070,1070,1099,1125,1143,1150,1151,1142,1131,1122,1118,1118,1118,1118,1118,1118,1118,1118,1118,1120,1122,1122,1122,1122,1122,1122,1122,1122,1122,1122,1122,1122,1122,1122,1122,1122,1122,1122,1122,1122,1122,1122,1122,1122,1122,1122,1122,1122,1122,1122,1122,1122,1122,1122,1122,1122,1122,1122,1122,1122,1122,1122,1122,1122,1122,1122,1122,1122,1122,1122,1122,1122,1122,1122,1122,1122,1122,1122,1122,1122,1122,1122,1122,1122,1122,1122,1122,1122,1122,1122,1122,1122,1122,1122,1122,1122,1122,1122,1122,1122,1122,1122,1122,1122,1122,1122,1122,1122,1122,1122,1122,1122,1122,1122,1122,1122,1122,1122,1122,1122,1122,1122,1122,1122,1122,1122,1122,1122,1122,1122,1122,1122,1122,1122,1122,1122,1122,1122,1122,1122,1122,1122,1122,1122,1122,1122,1122,1122,1122,1122,1122,1122,1122,1122,1122,1122,1122,1122,1122,1122,1122,1122,1122,1122,1122,1122,1122,1122,1122,1122,1122,1122,1122,1122,1122,1122,1122,1122,1122,1122,1122,1122,1122,1122,1122,1122,1122,1122,1122,1122,1122,1122,1122,1122,1122,1122,1122,1122,1122,1122,1122,1122,1122,1122,1122,1122,1122,1122,1122,1122,1122,1122,1122,1122,1122,1122,1122,1122,1122,1122,1122,1122,1122,1122,1122,1122,1122,1122,1122,1122,1122,1122,1122,1122,1122,1122,1122,1122,1122,1122,1122,1122,1122,1122,1122,1122,1123,1123,1123,1123,1123,1123,1123,1123,1123,1123,1123,1121,1105,1089,1071,1054,1035,1033,1033,1033,1033,1033,1032,1032,1032,1032,1034,1034,1034,1034,1034,1034,1034,1034,1034,1034,1034,1034,1034,1034,1034,1034,1034,1034,1034,1034,1034,1034,1034,1034,1034,1034,1034,1034,1034,1034,1034,1032,1027,1026,1026,1026,1026,1026,1025,1025,1025,1025,1025,1025,1025,1025,1025,1025,1025,1025,1025,1025,1025,1025,1025,1025,1025,1025,1025,1025,1025,1025,1025,1025,1025,1025,1025,1025,1025,1025,1025,1025,1025,1025,1025,1025,1025,1025,1025,1025,1025,1025,1025,1025,1025,1025,1025,1025,1025,1025,1025,1025,1025,1025,1025,1025,1025,1025,1025,1025,1025,1025,1025,1025,1025,1025,1025,1025,1025,1025,1025,1025,1025,1025,1025,1025,1025,1025,1025,1025,1025,1025,1025,1025,1025,1025,1025,1025,1025,1025,1025,1025,1025,1025,1025,1024,1020,1018,1014,1008,993,985,982,978,978,978,978,978,978,978,978,978,978,978,978,978,978,978,978,978,978,978,978,978,978,978,978,978,978,978,978,978,978,978,978,978,978,978,978,978,975,960,952,912,884,884,892,909,931,957,1009,1036,1074,1096,1117,1134,1132,1125,1117],"ymouse":[561,561,561,561,561,561,561,561,561,561,561,561,561,561,561,561,561,561,561,561,561,561,561,561,561,561,561,561,561,561,561,561,561,561,561,561,561,561,561,561,561,561,561,561,561,561,561,561,561,561,561,561,561,561,561,561,561,561,561,561,561,561,561,561,561,561,561,561,559,557,549,546,544,543,543,543,543,543,543,543,543,543,543,543,543,543,543,543,543,543,543,543,543,543,543,548,569,603,648,735,735,735,735,735,735,735,735,735,735,735,747,717,692,673,666,660,658,657,652,645,613,589,564,520,490,427,400,376,351,329,283,264,239,200,184,177,177,177,177,176,167,162,158,147,140,128,122,115,112,109,108,108,108,108,108,108,108,110,117,127,148,161,170,177,182,186,186,186,186,187,188,189,189,191,202,247,277,307,332,356,394,408,414,416,417,417,414,407,398,385,371,371,371,371,378,396,405,411,414,414,413,411,411,406,388,332,320,314,313,313,300,300,317,362,373,381,380,361,337,329,328,328,328,328,328,328,328,330,335,341,377,419,486,528,546,559,559,547,529,525,511,502,502,502,502,502,502,502,502,502,490,486,485,486,488,504,514,518,519,519,519,519,519,519,519,519,517,514,512,511,511,511,511,511,511,511,511,511,511,511,511,511,511,511,511,511,511,511,511,511,511,511,511,511,511,511,511,511,511,511,511,511,511,511,511,511,511,511,511,511,511,511,511,511,511,511,511,511,511,511,511,511,511,511,511,511,511,511,511,511,511,511,511,511,511,511,511,511,511,511,511,511,511,511,511,511,511,511,511,511,511,511,511,511,511,511,511,511,511,511,511,511,511,511,511,511,511,511,511,511,511,511,511,511,511,511,511,511,511,511,511,511,511,511,511,511,511,511,511,511,511,511,511,511,511,511,511,511,511,511,511,511,511,511,511,511,511,511,511,511,511,511,511,511,511,511,511,511,511,511,511,511,511,511,511,511,511,511,511,511,511,511,511,511,511,511,511,511,511,511,511,511,511,511,511,511,511,511,511,511,511,511,511,511,511,511,511,511,511,511,511,511,511,511,511,511,511,511,511,511,511,511,511,511,511,511,511,511,511,511,511,511,511,511,511,511,511,511,511,511,511,511,511,511,511,511,511,511,511,511,511,511,511,511,511,509,505,500,495,491,485,484,484,484,484,484,484,485,488,490,495,497,497,497,497,497,497,497,497,497,497,497,497,497,497,497,497,497,497,497,497,497,497,497,497,497,497,497,497,496,493,490,487,485,485,485,485,485,484,484,484,484,484,484,484,484,484,484,484,484,484,484,484,484,484,484,484,484,484,484,484,484,484,484,484,484,484,484,484,484,484,484,484,484,484,484,484,484,484,484,484,484,484,484,484,484,484,484,484,484,484,484,484,484,484,484,484,484,484,484,484,484,484,484,484,484,484,484,484,484,484,484,484,484,484,484,484,484,484,484,484,484,484,484,484,484,484,484,484,484,484,484,484,484,484,484,484,484,483,481,477,475,474,473,473,473,473,473,473,473,473,473,473,473,473,473,473,473,473,473,473,473,473,473,473,473,473,473,473,473,473,473,473,473,473,473,473,473,473,473,469,455,445,407,373,356,337,322,313,305,291,279,259,245,224,154,124,105,93],"timestamp_mouse":[12,40,52,73,92,112,134,152,173,193,213,234,252,272,293,313,333,352,373,393,413,433,453,473,493,514,532,552,574,592,613,632,654,672,692,714,732,752,773,792,812,833,852,874,892,912,934,953,973,992,1013,1032,1054,1073,1092,1113,1132,1153,1174,1192,1212,1234,1253,1273,1293,1312,1334,1352,1372,1393,1412,1432,1452,1474,1492,1513,1532,1553,1573,1593,1614,1632,1654,1674,1694,1714,1733,1754,1773,1793,1812,1833,1854,1874,1893,1912,1932,1953,1972,1994,2013,2032,2053,2074,2092,2112,2132,2154,2173,2194,2212,2233,2253,2274,2293,2312,2333,2353,2372,2393,2412,2433,2452,2473,2492,2512,2532,2552,2573,2592,2613,2633,2653,2672,2693,2713,2732,2753,2772,2792,2812,2833,2852,2872,2892,2912,2933,2953,2972,2992,3012,3033,3053,3073,3092,3112,3134,3152,3172,3194,3212,3232,3252,3273,3293,3313,3332,3353,3374,3393,3412,3433,3452,3473,3492,3513,3532,3554,3573,3592,3612,3633,3652,3672,3692,3713,3733,3753,3773,3792,3812,3833,3852,3873,3892,3912,3932,3953,3973,3994,4012,4032,4052,4072,4093,4113,4134,4154,4172,4193,4213,4233,4252,4272,4293,4313,4332,4354,4373,4393,4413,4432,4452,4472,4492,4512,4533,4554,4572,4592,4612,4633,4652,4673,4693,4713,4733,4752,4774,4792,4814,4833,4852,4873,4892,4912,4933,4953,4973,4993,5012,5033,5052,5072,5092,5112,5132,5153,5172,5192,5212,5232,5253,5272,5293,5313,5332,5353,5374,5393,5413,5432,5452,5472,5492,5513,5533,5553,5572,5593,5614,5633,5654,5673,5693,5712,5732,5752,5772,5792,5812,5832,5854,5872,5892,5912,5933,5952,5974,5994,6013,6032,6052,6073,6092,6112,6132,6153,6174,6192,6213,6232,6253,6272,6293,6313,6333,6353,6373,6393,6413,6434,6453,6474,6493,6512,6532,6553,6572,6593,6612,6632,6653,6672,6693,6713,6734,6754,6774,6793,6812,6833,6854,6873,6893,6913,6932,6952,6972,6993,7013,7033,7052,7073,7092,7112,7134,7153,7173,7192,7213,7232,7252,7273,7292,7312,7332,7354,7373,7393,7412,7434,7453,7473,7494,7513,7534,7553,7574,7593,7613,7633,7654,7673,7694,7714,7734,7753,7773,7793,7813,7833,7854,7874,7894,7913,7934,7953,7974,7994,8013,8033,8053,8074,8093,8113,8133,8153,8173,8193,8213,8233,8254,8273,8294,8313,8333,8353,8373,8394,8413,8434,8453,8473,8494,8513,8533,8553,8573,8593,8613,8633,8653,8674,8694,8714,8733,8753,8773,8792,8813,8833,8854,8873,8893,8913,8933,8954,8973,8993,9014,9034,9054,9073,9093,9113,9133,9154,9173,9193,9213,9233,9254,9273,9293,9313,9333,9353,9373,9393,9413,9433,9453,9473,9494,9514,9533,9553,9573,9593,9613,9633,9654,9673,9693,9713,9732,9753,9774,9793,9813,9833,9853,9874,9893,9913,9933,9953,9973,9993,10014,10034,10053,10073,10093,10113,10133,10153,10173,10193,10213,10233,10254,10273,10293,10314,10333,10354,10373,10394,10413,10433,10453,10473,10493,10514,10533,10553,10574,10593,10614,10633,10653,10673,10693,10713,10734,10754,10773,10793,10814,10833,10854,10873,10893,10913,10932,10953,10973,10993,11013,11033,11053,11073,11093,11113,11133,11153,11174,11193,11213,11234,11253,11273,11293,11313,11332,11353,11373,11393,11414,11433,11453,11473,11493,11513,11532,11554,11573,11594,11613,11634,11654,11674,11694,11713,11733,11753,11774,11793,11813,11833,11853,11873,11893,11913,11933,11953,11973,11994,12013,12033,12054,12073,12093,12113,12134,12153,12173,12193,12213,12233,12254,12273,12294,12314,12334,12353,12373,12394,12414,12433,12454,12473,12494,12513,12534,12553,12573,12593,12613,12633,12653,12674,12693,12713,12733,12754,12774,12793,12813,12833,12853,12874,12893,12913,12933,12953,12973,12993,13013,13034,13052,13073,13094,13113,13132,13152,13174,13194,13213,13233,13253,13274,13294,13313,13333,13353,13374,13394,13413,13434,13454,13473,13494,13514,13534,13553,13572,13593,13613,13633,13654,13673,13693,13714,13733,13754,13773,13794,13813,13834,13853,13874,13893,13914,13934,13953,13973,13993,14013,14034,14053,14074,14094,14113,14132,14153,14173,14193,14213,14233,14253,14273,14293,14313,14333,14353,14374],"xSR":741.5,"ySR":501.8,"xT1":424.9,"yT1":0,"xT2":1058.1,"yT2":0,"toosoon":0,"cond_shown":"Incongruent","ratio_trial":200,"L_num":3,"L_den":10,"R_num":1,"R_den":2,"correct_side":2,"subjID":"JULIANSANCHEZMESA33","gender":"0","school":"CAFAM","age":"11"},{"start_time":1551790336221,"click_time":1551790337849,"finger_time":1551790337290,"fix_duration":250,"trial":22,"RT":1069,"MT":559,"sideResp":1,"stimulus":[],"xmouse":[808,808,808,808,808,808,808,808,808,808,808,808,808,808,808,808,808,808,808,808,808,808,808,808,808,808,808,808,808,808,808,808,808,808,808,808,808,808,808,808,808,808,808,808,808,808,808,808,808,808,808,808,802,777,739,687,602,586,579,577,577,577,577,578,578,577,577,576,569,562,555,551,550,548,541,528,506,500,500,499,499,499],"ymouse":[543,543,543,543,543,543,543,543,543,543,543,543,543,543,543,543,543,543,543,543,543,543,543,543,543,543,543,543,543,543,543,543,543,543,543,543,543,543,543,543,543,543,543,543,543,543,543,543,543,543,543,543,538,498,439,380,271,244,229,221,220,214,209,204,199,197,194,188,169,154,143,136,134,132,126,118,106,103,103,103,101,95],"timestamp_mouse":[10,43,49,69,88,108,128,148,168,188,208,229,248,268,289,308,329,349,368,388,408,428,449,469,488,509,529,548,568,589,608,628,648,669,688,708,728,748,768,789,808,828,848,868,889,909,929,948,969,989,1008,1029,1048,1069,1088,1108,1128,1148,1168,1188,1209,1228,1249,1268,1289,1309,1328,1348,1368,1388,1408,1428,1449,1467,1489,1509,1528,1548,1568,1588,1608,1628],"xSR":741.5,"ySR":501.8,"xT1":424.9,"yT1":0,"xT2":1058.1,"yT2":0,"toosoon":0,"cond_shown":"Congruent","ratio_trial":200,"L_num":12,"L_den":20,"R_num":6,"R_den":15,"correct_side":1,"subjID":"JULIANSANCHEZMESA33","gender":"0","school":"CAFAM","age":"11"},{"start_time":1551790340084,"click_time":1551790341449,"finger_time":1551790341149,"fix_duration":935.6615892038085,"trial":23,"RT":1065,"MT":300,"sideResp":1,"stimulus":[],"xmouse":[778,778,778,778,778,778,778,778,778,778,778,778,778,778,778,778,778,778,778,778,778,778,778,778,778,778,778,778,778,778,778,778,778,778,778,778,778,778,778,778,778,778,778,778,778,778,778,778,778,778,774,768,751,694,631,616,588,579,574,574,572,569,554,539,525,516,511,510,505],"ymouse":[556,556,556,556,556,556,556,556,556,556,556,556,556,556,556,556,556,556,556,556,556,556,556,556,556,556,556,556,556,556,556,556,556,556,556,556,556,556,556,556,556,556,556,556,556,556,556,556,556,556,551,541,518,420,311,284,244,232,224,224,222,220,196,179,160,145,134,116,81],"timestamp_mouse":[14,25,45,66,85,106,125,145,165,185,206,225,245,265,285,305,325,346,365,385,406,424,445,466,486,505,526,546,566,584,606,626,646,665,686,705,726,746,765,786,806,825,846,865,885,906,926,945,965,986,1006,1025,1045,1065,1085,1105,1126,1145,1165,1185,1205,1225,1247,1265,1286,1305,1325,1346,1365],"xSR":741.5,"ySR":501.8,"xT1":424.9,"yT1":0,"xT2":1058.1,"yT2":0,"toosoon":0,"cond_shown":"Incongruent","ratio_trial":200,"L_num":7,"L_den":15,"R_num":4,"R_den":6,"correct_side":2,"subjID":"JULIANSANCHEZMESA33","gender":"0","school":"CAFAM","age":"11"},{"start_time":1551790349946,"click_time":1551790351649,"finger_time":1551790350609,"fix_duration":1196.224338676872,"trial":24,"RT":663,"MT":1040,"sideResp":2,"stimulus":[],"xmouse":[785,785,785,785,785,785,785,785,785,785,785,785,785,785,785,785,788,794,795,797,797,797,797,797,798,800,800,802,803,803,805,805,805,806,807,809,809,809,809,809,809,809,809,809,809,809,809,809,809,809,809,809,809,809,809,811,817,830,847,871,921,932,948,954,962,968,968,968,972,979,987,991,991,993,993,993,997,1005,1014,1021,1031,1036,1039,1045,1049,1063],"ymouse":[524,524,524,524,524,524,524,523,523,523,523,523,523,523,523,523,523,523,523,523,523,523,523,523,523,522,520,519,517,516,512,510,505,498,493,487,487,486,486,486,486,486,486,486,486,486,486,486,486,486,486,486,486,486,486,481,463,440,418,385,291,264,231,213,195,173,170,164,150,133,110,105,104,103,103,103,103,103,105,105,105,105,105,104,103,99],"timestamp_mouse":[10,33,43,63,83,104,123,143,164,183,203,224,243,264,283,303,323,343,363,383,403,423,444,464,484,503,523,543,564,583,603,623,644,663,683,703,723,743,763,784,803,823,843,863,885,903,924,943,963,983,1003,1024,1043,1063,1084,1104,1123,1144,1163,1183,1203,1223,1243,1263,1283,1303,1323,1343,1364,1384,1402,1423,1443,1463,1483,1504,1524,1544,1563,1583,1603,1623,1643,1663,1683,1703],"xSR":741.5,"ySR":501.8,"xT1":424.9,"yT1":0,"xT2":1058.1,"yT2":0,"toosoon":0,"cond_shown":"Incongruent","ratio_trial":300,"L_num":1,"L_den":2,"R_num":2,"R_den":10,"correct_side":1,"subjID":"JULIANSANCHEZMESA33","gender":"0","school":"CAFAM","age":"11"},{"start_time":1551790355179,"click_time":1551790356909,"finger_time":1551790356810,"fix_duration":1108.6344002305902,"trial":25,"RT":1631,"MT":99,"sideResp":2,"stimulus":[],"xmouse":[765,765,765,765,765,765,765,765,765,765,765,765,765,765,765,765,765,765,765,765,765,765,765,765,765,765,765,765,765,765,765,765,765,765,765,765,765,765,765,765,765,765,765,765,765,765,765,765,765,765,765,765,765,765,765,765,765,765,765,765,765,765,765,765,765,765,765,765,765,765,765,765,765,765,765,765,765,765,765,767,769,782,803,890,948,1005,1059],"ymouse":[541,540,538,538,538,538,538,538,538,538,538,538,538,538,538,538,538,538,538,538,538,538,538,538,538,538,538,538,538,538,538,538,538,538,538,538,538,538,538,538,538,538,538,538,538,538,538,538,538,538,538,538,538,538,538,538,538,538,538,538,538,538,538,538,538,538,538,538,538,538,538,538,538,538,538,538,538,538,538,533,527,495,434,263,181,107,47],"timestamp_mouse":[11,32,51,70,90,110,130,150,170,190,211,230,250,270,290,311,331,350,370,391,410,431,450,470,490,510,530,550,570,590,610,630,650,671,691,711,730,750,770,790,810,830,851,870,890,911,931,950,971,990,1010,1030,1050,1070,1091,1110,1130,1150,1171,1190,1211,1231,1250,1270,1290,1311,1330,1350,1371,1390,1410,1431,1450,1470,1490,1510,1531,1550,1569,1591,1610,1631,1651,1670,1690,1710,1730],"xSR":741.5,"ySR":501.8,"xT1":424.9,"yT1":0,"xT2":1058.1,"yT2":0,"toosoon":0,"cond_shown":"Congruent","ratio_trial":300,"L_num":5,"L_den":25,"R_num":6,"R_den":12,"correct_side":2,"subjID":"JULIANSANCHEZMESA33","gender":"0","school":"CAFAM","age":"11"},{"start_time":1551790359068,"click_time":1551790360949,"finger_time":1551790360629,"fix_duration":398.11924673557144,"trial":26,"RT":1561,"MT":320,"sideResp":2,"stimulus":[],"xmouse":[763,763,763,763,763,763,763,763,763,763,763,763,763,763,763,763,763,763,763,763,763,763,763,763,763,763,763,763,763,763,763,763,763,763,763,763,763,763,763,763,763,763,763,763,763,763,763,763,763,763,763,763,763,763,763,763,763,763,763,763,763,763,763,763,763,763,763,763,763,763,763,763,763,763,763,763,764,778,805,896,939,974,1000,1015,1030,1032,1033,1036,1036,1038,1038,1041,1045,1052,1067],"ymouse":[546,546,546,546,546,546,546,546,546,546,546,546,546,546,546,546,546,546,546,546,546,546,546,546,546,546,546,546,546,546,546,546,546,546,546,546,546,546,546,546,546,546,546,546,546,546,546,546,546,546,546,546,546,546,546,546,546,546,546,546,546,546,546,546,546,546,546,546,546,546,546,546,546,546,546,546,544,524,482,334,259,210,178,161,144,141,139,134,132,130,129,124,118,109,91],"timestamp_mouse":[10,39,42,61,82,101,122,141,161,182,201,222,242,261,282,301,322,341,361,381,401,422,442,461,481,501,522,541,561,581,601,622,641,661,681,702,722,742,761,782,802,822,841,862,881,901,921,942,962,982,1001,1022,1041,1061,1081,1101,1122,1142,1161,1181,1202,1221,1242,1262,1281,1302,1321,1342,1361,1382,1401,1421,1442,1461,1482,1502,1521,1541,1561,1581,1601,1621,1641,1661,1681,1702,1721,1742,1761,1782,1801,1821,1841,1862,1881],"xSR":741.5,"ySR":501.8,"xT1":424.9,"yT1":0,"xT2":1058.1,"yT2":0,"toosoon":0,"cond_shown":"Incongruent","ratio_trial":100,"L_num":6,"L_den":10,"R_num":13,"R_den":26,"correct_side":1,"subjID":"JULIANSANCHEZMESA33","gender":"0","school":"CAFAM","age":"11"},{"start_time":1551790365352,"click_time":1551790368329,"finger_time":1551790367169,"fix_duration":762.3800007062513,"trial":27,"RT":1817,"MT":1160,"sideResp":1,"stimulus":[],"xmouse":[792,792,792,792,792,792,792,792,792,792,792,792,792,792,792,792,792,792,792,792,792,792,792,792,792,792,792,792,792,792,792,792,792,792,792,792,792,792,792,792,792,792,792,792,792,792,792,792,792,792,792,792,792,792,792,792,792,792,792,792,792,792,792,792,792,792,792,792,792,792,792,792,792,792,792,792,792,792,793,799,802,803,803,803,803,803,800,791,780,753,738,721,695,675,646,640,633,627,617,581,545,529,502,495,493,493,493,493,493,493,493,493,493,493,493,493,493,490,490,489,489,489,489,489,487,487,487,487,487,487,487,487,487,487,487,487,487,487,487,487,487,487,487,487,487,487,487,487,487],"ymouse":[526,526,526,526,526,526,526,526,526,526,526,526,526,526,526,526,526,526,526,526,526,526,526,526,526,526,526,526,526,526,526,526,526,526,526,526,526,526,526,526,526,526,526,526,526,526,526,526,526,526,526,526,526,526,526,526,526,526,526,526,526,526,526,526,526,526,526,526,526,526,526,526,526,526,526,526,526,526,531,549,558,564,564,564,564,564,557,546,533,504,485,464,421,385,321,297,276,254,229,179,143,133,117,115,114,114,114,114,114,114,114,114,114,114,114,114,114,112,110,109,109,109,109,109,102,102,102,102,102,102,102,102,102,102,102,102,102,102,102,102,102,102,102,102,102,102,102,100,99],"timestamp_mouse":[32,37,57,78,97,117,138,157,177,197,217,238,257,277,298,317,338,357,377,397,417,437,458,478,497,517,537,557,577,597,617,637,657,677,698,717,738,757,778,797,817,838,858,877,898,918,937,957,977,997,1018,1038,1057,1077,1097,1117,1137,1158,1177,1197,1217,1238,1258,1277,1297,1317,1338,1358,1378,1397,1418,1437,1457,1477,1497,1517,1538,1558,1577,1596,1617,1637,1658,1678,1699,1717,1737,1758,1777,1797,1817,1837,1857,1877,1897,1917,1938,1957,1977,1997,2018,2037,2057,2077,2097,2117,2137,2157,2177,2197,2217,2237,2257,2278,2297,2317,2337,2357,2378,2397,2417,2436,2463,2477,2497,2517,2538,2557,2577,2597,2618,2638,2657,2677,2697,2717,2738,2758,2778,2796,2818,2838,2857,2878,2898,2917,2936,2958,2977],"xSR":741.5,"ySR":501.8,"xT1":424.9,"yT1":0,"xT2":1058.1,"yT2":0,"toosoon":0,"cond_shown":"Congruent","ratio_trial":200,"L_num":16,"L_den":30,"R_num":9,"R_den":27,"correct_side":1,"subjID":"JULIANSANCHEZMESA33","gender":"0","school":"CAFAM","age":"11"},{"start_time":1551790370907,"click_time":1551790372449,"finger_time":1551790371909,"fix_duration":995.1771618414134,"trial":28,"RT":1002,"MT":540,"sideResp":1,"stimulus":[],"xmouse":[800,800,800,800,800,800,800,800,800,800,800,800,800,800,800,800,800,800,800,800,800,800,800,800,800,800,800,800,800,800,800,800,800,800,800,800,800,799,797,796,794,791,786,784,784,784,784,779,771,757,741,724,695,687,684,661,643,619,611,605,600,598,592,586,578,569,565,557,553,549,548,546,541,538,536,531,526,521],"ymouse":[535,535,535,535,535,535,535,535,535,535,535,535,535,535,535,535,535,535,535,535,535,535,535,535,535,535,535,535,535,535,535,535,535,535,535,535,535,535,535,535,535,535,535,535,535,535,535,533,527,518,509,499,482,462,450,399,367,325,312,297,287,278,257,242,229,214,205,187,178,170,166,159,146,140,132,123,115,99],"timestamp_mouse":[8,22,43,62,83,102,122,142,163,182,202,222,242,262,283,302,322,342,362,383,402,422,443,463,482,503,523,543,562,583,602,622,642,663,682,702,722,742,762,783,802,822,842,862,882,902,922,942,962,982,1002,1023,1042,1062,1082,1103,1122,1142,1161,1182,1202,1222,1241,1263,1283,1302,1322,1343,1363,1383,1403,1422,1442,1462,1482,1502,1522,1542],"xSR":741.5,"ySR":501.8,"xT1":424.9,"yT1":0,"xT2":1058.1,"yT2":0,"toosoon":0,"cond_shown":"Congruent","ratio_trial":200,"L_num":16,"L_den":30,"R_num":9,"R_den":27,"correct_side":1,"subjID":"JULIANSANCHEZMESA33","gender":"0","school":"CAFAM","age":"11"},{"start_time":1551790373933,"click_time":1551790375949,"finger_time":1551790375370,"fix_duration":543.9082619942568,"trial":29,"RT":1437,"MT":579,"sideResp":2,"stimulus":[],"xmouse":[782,782,782,782,782,782,782,782,782,782,782,782,782,782,782,782,782,782,782,782,782,782,782,782,782,782,782,782,782,782,782,782,782,782,782,782,782,782,782,782,782,782,782,782,782,782,782,782,782,782,782,782,782,782,782,782,782,782,782,782,782,782,782,782,782,782,782,785,788,790,798,803,812,819,830,852,862,870,879,892,930,954,978,1010,1028,1056,1064,1073,1079,1086,1098,1098,1098,1098,1098,1098,1098,1099,1099,1099,1100],"ymouse":[530,530,530,530,530,530,530,530,530,530,530,530,530,530,530,530,530,530,530,530,530,530,530,530,530,530,530,530,530,530,530,530,530,530,530,530,530,530,530,530,530,530,530,530,530,530,530,530,530,530,530,530,530,530,530,530,530,530,530,530,530,530,530,530,530,530,530,529,525,518,503,494,475,456,431,381,361,343,320,288,223,203,191,171,157,134,127,121,118,112,108,108,108,108,108,108,108,108,108,103,94],"timestamp_mouse":[21,37,56,76,97,117,136,157,176,197,216,236,257,276,296,317,336,356,376,396,416,436,456,476,496,516,536,556,576,596,616,636,656,676,696,716,736,756,776,796,817,836,856,876,897,916,936,956,976,996,1016,1036,1056,1077,1096,1116,1136,1156,1177,1196,1217,1237,1256,1276,1297,1316,1337,1357,1376,1397,1416,1437,1455,1476,1496,1517,1537,1556,1576,1597,1616,1636,1656,1676,1696,1716,1736,1756,1776,1796,1817,1837,1857,1876,1896,1917,1937,1957,1976,1996,2015],"xSR":741.5,"ySR":501.8,"xT1":424.9,"yT1":0,"xT2":1058.1,"yT2":0,"toosoon":0,"cond_shown":"Incongruent","ratio_trial":100,"L_num":10,"L_den":25,"R_num":9,"R_den":18,"correct_side":2,"subjID":"JULIANSANCHEZMESA33","gender":"0","school":"CAFAM","age":"11"},{"start_time":1551790378692,"click_time":1551790380389,"finger_time":1551790379949,"fix_duration":1342.1498649131443,"trial":30,"RT":1257,"MT":440,"sideResp":1,"stimulus":[],"xmouse":[827,827,827,827,827,827,827,827,827,824,821,817,810,810,810,810,810,810,810,810,810,810,810,810,810,810,810,810,810,810,810,810,810,810,810,810,810,810,810,810,810,810,810,810,810,810,810,810,810,810,810,810,810,810,810,810,810,810,810,810,810,809,788,763,731,680,649,582,552,530,513,499,476,468,462,446,440,439,439,439,439,439,441,443,446],"ymouse":[547,547,547,547,547,547,547,547,547,547,547,546,545,545,545,545,545,545,545,545,545,545,545,545,545,545,545,545,545,545,545,545,545,545,545,545,545,545,545,545,545,545,545,545,545,545,545,545,545,545,545,545,545,545,545,545,545,545,545,545,545,543,499,457,408,334,290,201,168,149,137,129,115,110,110,111,112,112,112,112,112,108,105,101,98],"timestamp_mouse":[18,37,57,78,97,118,138,157,177,198,217,238,257,277,298,318,338,357,377,397,418,437,456,477,497,518,537,557,578,598,617,638,657,677,697,717,738,757,777,797,817,837,857,877,897,917,937,957,977,998,1017,1037,1057,1077,1097,1117,1137,1157,1178,1197,1216,1238,1257,1277,1298,1317,1337,1356,1378,1398,1417,1437,1457,1477,1497,1517,1538,1557,1577,1597,1617,1639,1657,1677,1697],"xSR":741.5,"ySR":501.8,"xT1":424.9,"yT1":0,"xT2":1058.1,"yT2":0,"toosoon":0,"cond_shown":"Congruent","ratio_trial":200,"L_num":6,"L_den":15,"R_num":3,"R_den":15,"correct_side":1,"subjID":"JULIANSANCHEZMESA33","gender":"0","school":"CAFAM","age":"11"},{"start_time":1551790381721,"click_time":1551790383850,"finger_time":1551790382849,"fix_duration":250,"trial":31,"RT":1128,"MT":1001,"sideResp":2,"stimulus":[],"xmouse":[783,783,783,783,783,783,783,783,783,783,783,783,783,783,783,783,783,783,783,783,783,783,783,783,783,783,783,783,783,783,783,783,783,783,783,783,783,783,783,783,783,783,783,783,783,783,783,783,783,783,783,783,783,783,783,783,772,770,770,770,770,779,792,821,842,864,922,943,961,975,988,1002,1010,1021,1028,1029,1009,1002,998,996,995,990,990,990,998,1001,1002,1002,1002,1002,1005,1024,1035,1045,1049,1052,1055,1055,1055,1056,1056,1056,1056,1056,1056,1058,1062],"ymouse":[528,528,528,528,528,528,528,528,528,528,528,528,528,528,528,528,528,528,528,528,528,528,528,528,528,528,528,528,528,528,528,528,528,528,528,528,528,528,528,528,528,528,528,528,528,528,528,528,528,528,528,528,528,528,528,524,497,490,489,489,489,485,481,467,452,435,394,380,370,362,359,356,350,331,311,280,216,197,186,181,174,147,127,109,90,85,84,84,84,84,84,83,83,83,85,86,86,86,86,86,86,86,86,86,86,86,84],"timestamp_mouse":[10,42,48,68,88,108,128,149,169,188,208,229,248,269,288,309,328,349,369,388,409,429,448,469,488,509,528,549,568,588,608,629,649,669,688,709,729,748,767,789,807,828,848,868,889,908,928,948,968,988,1009,1028,1049,1069,1089,1108,1128,1149,1168,1188,1209,1228,1249,1268,1289,1308,1328,1348,1368,1388,1408,1427,1448,1469,1488,1508,1528,1548,1569,1588,1608,1628,1649,1669,1688,1707,1728,1748,1768,1789,1808,1828,1849,1869,1889,1908,1929,1948,1968,1988,2008,2028,2048,2069,2088,2108,2129],"xSR":741.5,"ySR":501.8,"xT1":424.9,"yT1":0,"xT2":1058.1,"yT2":0,"toosoon":0,"cond_shown":"Congruent","ratio_trial":300,"L_num":3,"L_den":6,"R_num":4,"R_den":5,"correct_side":2,"subjID":"JULIANSANCHEZMESA33","gender":"0","school":"CAFAM","age":"11"},{"start_time":1551790387182,"click_time":1551790389410,"finger_time":1551790388050,"fix_duration":412.06608254116304,"trial":32,"RT":868,"MT":1360,"sideResp":2,"stimulus":[],"xmouse":[801,801,801,801,801,801,801,801,801,802,804,805,805,805,805,805,805,805,805,805,805,805,805,805,805,805,805,805,805,805,808,809,810,812,812,812,812,812,812,812,812,816,824,846,854,859,861,861,861,861,861,861,861,861,861,861,861,861,861,861,855,838,822,799,796,796,796,796,796,796,796,796,796,796,796,796,796,796,796,796,795,793,793,793,793,793,793,793,793,793,798,813,833,906,950,990,1023,1054,1058,1059,1059,1059,1059,1059,1060,1061,1061,1061,1062,1066,1067,1069],"ymouse":[538,538,538,538,538,538,538,538,538,538,538,538,538,538,538,538,538,538,538,538,538,538,538,538,538,538,538,538,538,538,537,537,536,535,535,535,535,535,535,535,535,533,530,520,517,514,513,513,513,513,513,513,513,513,513,513,513,513,513,513,516,527,540,559,562,562,562,562,562,562,562,562,562,562,562,562,562,562,562,562,562,562,562,562,562,562,562,562,562,562,549,527,497,393,316,244,192,145,137,135,135,135,135,126,121,119,118,118,115,108,106,98],"timestamp_mouse":[10,31,47,68,88,108,127,147,168,187,208,228,247,268,287,307,328,347,368,387,407,427,447,467,488,507,527,549,567,588,606,627,647,667,687,707,728,747,767,787,807,828,847,868,888,907,928,948,967,988,1007,1027,1047,1067,1087,1108,1128,1148,1167,1188,1207,1228,1247,1268,1287,1307,1328,1348,1368,1387,1408,1428,1448,1467,1487,1508,1527,1548,1567,1587,1607,1628,1647,1667,1688,1708,1728,1747,1767,1788,1806,1828,1847,1867,1887,1908,1927,1949,1967,1987,2008,2028,2047,2067,2087,2107,2127,2147,2167,2188,2207,2228],"xSR":741.5,"ySR":501.8,"xT1":424.9,"yT1":0,"xT2":1058.1,"yT2":0,"toosoon":0,"cond_shown":"Congruent","ratio_trial":200,"L_num":11,"L_den":22,"R_num":3,"R_den":10,"correct_side":1,"subjID":"JULIANSANCHEZMESA33","gender":"0","school":"CAFAM","age":"11"},{"start_time":1551790391451,"click_time":1551790392990,"finger_time":1551790391549,"fix_duration":641.476385818596,"trial":33,"RT":98,"MT":1441,"sideResp":1,"stimulus":[],"xmouse":[744,743,743,743,749,752,754,754,754,758,759,761,762,763,763,763,763,763,763,763,763,763,763,763,763,763,763,763,763,763,763,763,763,763,763,763,763,763,763,763,763,766,768,773,777,777,779,779,779,779,780,780,780,780,780,780,780,773,757,685,645,615,598,591,589,589,589,586,580,569,566,564,562,559,549,536,516],"ymouse":[577,579,584,590,610,614,616,616,616,611,605,595,584,573,557,554,552,550,550,550,550,550,550,550,550,550,550,550,550,550,550,550,550,550,550,550,550,550,550,550,550,551,553,555,557,558,558,558,558,558,558,558,558,558,558,558,558,555,542,480,439,392,361,338,306,287,279,257,210,138,117,103,96,92,83,73,62],"timestamp_mouse":[21,39,58,79,98,118,139,158,178,198,218,238,259,279,298,320,339,358,378,398,418,439,459,478,498,518,539,558,578,598,619,638,658,678,698,719,738,758,778,799,819,838,858,878,898,918,938,958,978,999,1019,1038,1058,1077,1098,1118,1137,1158,1178,1198,1218,1238,1258,1278,1298,1318,1338,1358,1378,1398,1418,1438,1458,1479,1498,1518,1539],"xSR":741.5,"ySR":501.8,"xT1":424.9,"yT1":0,"xT2":1058.1,"yT2":0,"toosoon":0,"cond_shown":"Congruent","ratio_trial":100,"L_num":7,"L_den":14,"R_num":15,"R_den":25,"correct_side":2,"subjID":"JULIANSANCHEZMESA33","gender":"0","school":"CAFAM","age":"11"},{"start_time":1551790395146,"click_time":1551790397029,"finger_time":1551790396209,"fix_duration":916.9077365668421,"trial":34,"RT":1063,"MT":820,"sideResp":1,"stimulus":[],"xmouse":[820,820,820,820,820,820,820,820,820,820,820,820,820,820,820,820,820,820,820,820,820,820,820,820,820,820,820,820,820,820,820,820,820,820,820,820,820,820,820,820,820,820,820,820,820,820,820,820,820,820,820,819,814,771,674,640,625,623,623,624,624,624,616,609,599,582,573,569,563,559,548,544,539,534,534,534,534,534,533,532,529,529,529,529,529,529,529,529,529,529,529,529,529,527,524],"ymouse":[515,515,515,515,515,515,515,515,515,515,515,515,515,515,515,515,515,515,515,515,515,515,515,515,515,515,515,515,515,515,515,515,515,515,515,515,515,515,515,515,515,515,515,515,515,515,515,515,515,515,515,515,509,458,312,249,211,194,187,185,181,175,162,150,136,113,105,101,97,93,83,79,75,72,72,72,72,72,71,71,71,71,71,71,71,71,71,71,71,71,71,71,71,71,71],"timestamp_mouse":[10,31,43,63,84,104,123,143,163,183,203,223,244,263,283,303,323,343,363,383,403,423,443,464,483,503,523,544,563,583,604,623,643,664,684,703,723,743,763,783,803,823,843,863,883,903,923,944,963,983,1003,1023,1043,1063,1085,1103,1122,1143,1163,1185,1203,1223,1243,1264,1283,1303,1324,1343,1363,1384,1403,1423,1443,1464,1483,1503,1523,1544,1563,1584,1603,1623,1643,1664,1684,1703,1724,1743,1763,1784,1803,1823,1843,1864,1883],"xSR":741.5,"ySR":501.8,"xT1":424.9,"yT1":0,"xT2":1058.1,"yT2":0,"toosoon":0,"cond_shown":"Congruent","ratio_trial":100,"L_num":2,"L_den":5,"R_num":11,"R_den":22,"correct_side":2,"subjID":"JULIANSANCHEZMESA33","gender":"0","school":"CAFAM","age":"11"},{"start_time":1551790398599,"click_time":1551790400209,"finger_time":1551790399869,"fix_duration":389.3976868959674,"trial":35,"RT":1270,"MT":340,"sideResp":1,"stimulus":[],"xmouse":[825,825,825,825,825,825,825,825,825,825,825,825,825,825,825,825,825,825,825,825,825,825,825,825,825,825,825,825,825,825,825,825,825,825,825,825,825,825,825,825,825,825,825,825,825,825,825,825,825,825,825,825,825,825,825,825,825,825,825,825,825,825,823,810,785,741,685,592,568,557,550,549,545,541,535,530,526,522,520,516,509],"ymouse":[512,512,512,512,512,512,512,512,512,512,512,512,512,512,512,512,512,512,512,512,512,512,512,512,512,512,512,512,512,512,512,512,512,512,512,512,512,512,512,512,512,512,512,512,512,512,512,512,512,512,512,512,512,512,512,512,512,512,512,512,512,512,511,501,479,440,389,272,232,208,189,183,174,168,156,145,134,124,115,105,91],"timestamp_mouse":[10,34,50,70,91,110,131,150,170,190,210,230,250,270,290,311,330,350,371,391,410,430,451,470,491,510,531,551,570,591,610,630,650,670,690,710,731,751,770,791,810,831,850,870,890,910,931,951,970,991,1010,1031,1051,1070,1091,1110,1131,1150,1171,1190,1211,1230,1251,1270,1291,1310,1330,1350,1370,1390,1410,1429,1450,1471,1491,1510,1531,1551,1570,1590,1610],"xSR":741.5,"ySR":501.8,"xT1":424.9,"yT1":0,"xT2":1058.1,"yT2":0,"toosoon":0,"cond_shown":"Congruent","ratio_trial":200,"L_num":6,"L_den":15,"R_num":3,"R_den":15,"correct_side":1,"subjID":"JULIANSANCHEZMESA33","gender":"0","school":"CAFAM","age":"11"},{"start_time":1551790402494,"click_time":1551790405749,"finger_time":1551790403489,"fix_duration":1163.6890940665817,"trial":36,"RT":995,"MT":2260,"sideResp":1,"stimulus":[],"xmouse":[802,802,802,802,802,802,802,802,802,802,802,802,802,802,802,802,802,802,802,802,802,802,802,802,802,802,802,802,802,802,802,802,802,802,802,802,802,802,802,802,802,802,802,802,802,802,802,799,785,769,753,741,726,723,721,721,720,720,720,720,720,720,720,720,720,720,719,714,712,712,712,712,712,712,712,712,712,712,712,712,714,714,736,750,770,782,790,809,821,830,837,839,841,841,841,841,854,862,868,870,870,870,870,870,870,870,870,870,870,870,870,870,870,870,868,851,836,787,743,690,637,597,547,537,532,530,530,530,530,530,530,530,530,530,527,525,522,515,514,512,511,510,509,509,509,509,509,509,509,509,509,509,509,508,508,508,507,506,506,506,506,505,504],"ymouse":[530,530,530,530,530,530,530,530,530,530,530,530,530,530,530,530,530,530,530,530,530,530,530,530,530,530,530,530,530,530,530,530,530,530,530,530,530,530,530,530,530,530,530,530,530,530,530,526,509,484,462,443,413,402,391,379,373,372,372,372,372,372,372,372,372,372,370,364,362,361,361,361,361,361,361,361,361,361,361,361,360,360,357,355,347,339,333,320,313,310,306,304,304,304,304,303,294,288,284,283,283,283,283,283,283,283,283,283,283,283,283,283,283,283,282,280,277,268,255,237,216,199,173,169,167,166,166,166,166,166,166,166,166,166,164,161,157,148,143,141,137,134,131,131,131,131,131,131,130,129,128,127,125,123,119,114,112,109,108,107,106,101,98],"timestamp_mouse":[16,36,55,76,95,115,135,155,175,195,215,235,255,276,296,315,335,355,376,395,415,435,455,475,496,515,535,555,575,596,616,635,655,675,695,715,735,755,775,796,815,836,855,875,896,915,936,956,976,995,1016,1036,1055,1075,1095,1115,1136,1154,1175,1195,1215,1236,1255,1275,1295,1315,1335,1355,1375,1396,1415,1436,1455,1476,1494,1516,1536,1555,1576,1596,1615,1636,1655,1675,1695,1716,1735,1755,1775,1796,1815,1835,1856,1875,1896,1915,1936,1955,1976,1996,2015,2035,2055,2076,2096,2116,2136,2156,2175,2196,2216,2235,2256,2276,2295,2316,2335,2356,2375,2395,2415,2436,2455,2476,2495,2516,2535,2555,2575,2596,2615,2635,2656,2675,2695,2715,2735,2755,2776,2795,2816,2836,2856,2875,2895,2915,2936,2956,2976,2995,3015,3035,3054,3075,3095,3115,3135,3155,3175,3196,3215,3236,3255],"xSR":741.5,"ySR":501.8,"xT1":424.9,"yT1":0,"xT2":1058.1,"yT2":0,"toosoon":0,"cond_shown":"Incongruent","ratio_trial":200,"L_num":6,"L_den":20,"R_num":3,"R_den":6,"correct_side":2,"subjID":"JULIANSANCHEZMESA33","gender":"0","school":"CAFAM","age":"11"},{"start_time":1551790409994,"click_time":1551790414549,"finger_time":1551790410070,"fix_duration":963.7490142497993,"trial":37,"RT":76,"MT":4479,"sideResp":1,"stimulus":[],"xmouse":[807,803,798,797,797,797,797,797,797,797,797,797,797,797,797,797,797,797,797,797,797,797,796,796,796,796,796,796,796,796,796,796,796,799,803,806,810,813,813,813,813,813,813,813,811,809,806,805,805,805,805,804,802,802,802,802,802,802,802,802,802,802,802,802,802,802,802,802,802,802,802,802,802,802,802,802,802,802,802,802,802,802,802,802,802,802,802,802,802,802,802,802,802,802,802,802,802,802,802,802,802,802,802,802,802,802,802,802,802,802,802,802,802,802,802,802,802,802,802,802,802,802,802,802,802,802,802,802,802,802,802,802,802,802,802,802,802,802,802,802,802,802,802,802,802,802,802,802,802,802,802,802,793,790,787,785,783,781,780,779,775,773,765,763,761,760,758,754,749,743,736,727,723,719,717,713,708,694,684,674,670,667,664,663,662,661,659,652,647,641,629,624,612,606,601,592,576,566,556,547,540,536,529,527,523,517,513,510,510,510,510,509,505,504,503,503,503,503,503,503,503,502,502,502,502,502,502,502],"ymouse":[524,516,504,501,501,501,501,501,501,501,501,501,501,501,501,501,501,501,501,501,501,501,512,517,519,520,520,520,521,521,521,521,521,521,516,509,502,494,494,494,494,494,494,494,495,497,501,502,502,502,503,505,507,507,507,507,507,507,507,507,507,507,507,507,507,507,507,507,507,507,507,507,507,507,507,507,507,507,507,507,507,507,509,510,510,510,510,510,510,510,510,510,510,510,510,510,510,510,510,510,510,510,510,510,510,510,510,510,510,510,510,510,510,510,510,510,510,510,510,510,510,510,510,510,510,510,510,510,510,510,510,510,510,510,510,510,510,510,510,510,510,510,510,510,510,510,510,510,510,510,510,511,497,487,478,470,461,459,458,457,455,452,444,438,432,428,421,409,397,384,372,358,353,347,343,339,332,313,302,291,286,283,278,277,276,275,273,265,260,252,238,230,215,206,199,190,170,159,148,140,134,132,129,127,125,121,117,116,116,116,115,115,110,108,107,105,105,105,105,105,105,104,102,102,102,102,101,98],"timestamp_mouse":[16,36,55,76,96,115,136,155,176,195,215,236,255,275,295,315,336,355,375,396,415,435,456,476,495,515,536,556,575,595,616,635,655,675,695,715,735,755,776,795,815,835,855,876,895,915,935,955,975,995,1015,1035,1056,1075,1096,1115,1135,1156,1175,1195,1215,1235,1255,1275,1296,1315,1335,1356,1376,1396,1416,1435,1455,1475,1495,1516,1534,1556,1576,1595,1616,1635,1656,1676,1696,1716,1736,1755,1776,1795,1816,1835,1855,1876,1896,1915,1936,1955,1974,1995,2015,2036,2056,2075,2096,2116,2135,2156,2175,2195,2215,2235,2255,2275,2296,2316,2335,2356,2375,2395,2415,2435,2456,2476,2494,2516,2536,2556,2576,2596,2615,2634,2655,2675,2696,2715,2735,2755,2776,2796,2816,2835,2855,2875,2895,2916,2936,2955,2975,2996,3016,3035,3055,3075,3096,3115,3136,3155,3177,3194,3216,3236,3255,3275,3295,3315,3336,3355,3375,3395,3415,3437,3455,3476,3495,3516,3535,3554,3576,3596,3615,3635,3655,3676,3695,3716,3735,3755,3775,3795,3815,3835,3855,3875,3895,3915,3936,3955,3975,3995,4016,4035,4054,4075,4096,4115,4135,4155,4176,4195,4215,4235,4255,4276,4295,4315,4335,4355,4375,4395,4415,4436,4455,4475,4495,4516,4535,4555],"xSR":741.5,"ySR":501.8,"xT1":424.9,"yT1":0,"xT2":1058.1,"yT2":0,"toosoon":0,"cond_shown":"Congruent","ratio_trial":200,"L_num":4,"L_den":8,"R_num":3,"R_den":10,"correct_side":1,"subjID":"JULIANSANCHEZMESA33","gender":"0","school":"CAFAM","age":"11"},{"start_time":1551790416930,"click_time":1551790418810,"finger_time":1551790418229,"fix_duration":780.3520391279854,"trial":38,"RT":1299,"MT":581,"sideResp":2,"stimulus":[],"xmouse":[791,791,791,791,791,791,791,791,791,791,791,791,791,791,791,791,791,791,791,791,791,791,791,791,791,791,791,791,791,791,791,791,791,791,791,791,791,791,791,791,791,791,791,791,791,791,791,791,791,791,791,791,791,791,791,791,791,791,791,791,791,795,798,807,815,849,873,898,920,951,955,956,956,957,961,985,1000,1010,1017,1027,1035,1047,1073,1086,1097,1100,1101,1101,1101,1102,1102,1102,1102,1102],"ymouse":[533,533,533,533,533,533,533,533,533,533,533,533,533,533,533,533,533,533,533,533,533,533,533,533,533,533,533,533,533,533,533,533,533,533,533,533,533,533,533,533,533,533,533,533,533,533,533,533,533,533,533,533,533,533,533,533,533,533,533,533,533,526,521,507,497,466,446,424,401,349,326,307,291,281,269,237,222,212,203,192,187,180,167,160,148,141,136,132,127,122,111,106,100,96],"timestamp_mouse":[31,39,60,78,99,120,139,159,179,200,219,239,259,279,299,319,339,359,380,399,419,439,460,480,499,519,539,559,579,600,620,639,659,679,700,719,740,759,779,799,819,840,858,880,899,919,940,959,980,999,1019,1039,1059,1080,1099,1119,1139,1160,1179,1199,1219,1240,1259,1280,1299,1319,1339,1359,1379,1400,1419,1440,1459,1479,1499,1520,1540,1559,1579,1600,1619,1640,1659,1679,1700,1719,1739,1759,1779,1800,1819,1840,1859,1880],"xSR":741.5,"ySR":501.8,"xT1":424.9,"yT1":0,"xT2":1058.1,"yT2":0,"toosoon":0,"cond_shown":"Incongruent","ratio_trial":200,"L_num":7,"L_den":15,"R_num":6,"R_den":9,"correct_side":2,"subjID":"JULIANSANCHEZMESA33","gender":"0","school":"CAFAM","age":"11"},{"start_time":1551790422502,"click_time":1551790424610,"finger_time":1551790423649,"fix_duration":1272.3457288755496,"trial":39,"RT":1147,"MT":961,"sideResp":2,"stimulus":[],"xmouse":[793,794,796,796,796,796,796,796,796,796,796,796,796,796,796,796,796,796,796,796,796,796,796,796,796,796,796,796,796,796,796,796,796,796,796,796,796,796,796,796,796,796,796,796,796,796,796,796,798,798,798,798,798,798,798,798,798,813,826,845,867,887,944,979,996,1009,1018,1028,1028,1028,1028,1028,1028,1028,1028,1028,1028,1028,1028,1028,1026,1021,1011,1010,1010,1010,1009,1017,1023,1029,1036,1041,1046,1047,1048,1050,1051,1052,1053,1056,1061,1066,1074,1075,1077,1077],"ymouse":[538,534,527,526,526,526,526,526,526,526,526,526,526,526,526,526,526,526,526,526,526,526,526,526,526,526,526,526,526,526,526,526,526,526,526,526,526,526,526,526,526,526,526,526,524,521,516,514,513,513,513,513,513,513,513,513,512,498,486,470,456,441,391,332,294,264,239,210,204,203,203,203,203,203,203,203,203,203,203,203,204,206,212,212,212,212,212,190,176,164,153,148,141,137,137,133,131,130,129,124,119,114,105,102,100,98],"timestamp_mouse":[8,28,47,68,88,107,128,147,167,188,207,227,247,268,288,308,327,347,367,388,408,427,447,468,487,508,527,547,567,587,607,627,647,667,687,708,727,748,768,788,807,828,847,868,887,907,927,947,968,987,1007,1027,1048,1067,1088,1108,1127,1147,1167,1187,1207,1228,1247,1267,1287,1307,1327,1347,1368,1388,1408,1428,1448,1467,1488,1507,1527,1548,1568,1588,1606,1628,1647,1668,1687,1708,1728,1747,1767,1788,1807,1828,1846,1868,1888,1907,1928,1947,1968,1987,2008,2027,2047,2067,2088,2108],"xSR":741.5,"ySR":501.8,"xT1":424.9,"yT1":0,"xT2":1058.1,"yT2":0,"toosoon":0,"cond_shown":"Congruent","ratio_trial":300,"L_num":2,"L_den":20,"R_num":10,"R_den":25,"correct_side":2,"subjID":"JULIANSANCHEZMESA33","gender":"0","school":"CAFAM","age":"11"},{"start_time":1551790425861,"click_time":1551790427330,"finger_time":1551790426769,"fix_duration":250,"trial":40,"RT":908,"MT":561,"sideResp":1,"stimulus":[],"xmouse":[770,770,770,770,770,770,770,770,770,770,770,770,770,770,770,770,770,770,770,770,770,770,770,770,770,770,770,770,770,770,770,770,770,770,770,770,770,770,770,770,770,770,770,770,764,754,736,707,655,625,622,619,617,615,610,605,599,593,587,585,582,580,574,566,549,543,537,536,535,530,528,528,526,518],"ymouse":[517,517,517,517,517,517,517,517,517,517,517,517,517,517,517,517,517,517,517,517,517,517,517,517,517,517,517,517,517,517,517,517,517,51