[{"start_time":1551794687145,"click_time":1551794688052,"finger_time":1551794687952,"fix_duration":268.83677497764046,"trial":0,"RT":807,"MT":100,"sideResp":2,"stimulus":"img/500/equaldotanddens/R/2_Ratio_500_L_3_R_6.png","xmouse":[796,796,796,796,796,796,796,796,796,796,796,796,796,796,796,796,796,796,796,796,796,796,796,796,796,796,796,796,796,796,796,796,796,796,796,796,796,796,797,813,838,935,988,1047,1076,1094],"ymouse":[515,515,515,515,515,515,515,515,515,515,515,515,515,515,515,515,515,515,515,515,515,515,515,515,515,515,515,515,515,515,515,515,515,515,515,515,515,515,509,486,453,310,236,161,113,89],"timestamp_mouse":[8,33,47,68,87,107,127,147,168,186,207,228,246,267,288,308,327,348,367,388,408,427,447,467,487,507,527,547,566,587,607,627,647,667,688,707,727,748,767,787,807,827,847,868,886,907],"xSR":741.5,"ySR":481,"xT1":424.9,"yT1":0,"xT2":1058.1,"yT2":0,"toosoon":0,"cond_shown":"equaldotanddens","ratio_trial":500,"smaller_num":"3","larger_num":"6","correct_side":2,"subjID":"karoldanielatrianaalvarez4","gender":"1","age":"11","school":"","test":{"fix_dur":[250,1500],"timestim":300,"targets_dim":[100,100],"targets_relative_coord":[0.3,0.7],"size_stim":[880,420],"start_dim":[100,100],"size_start":[300,300],"size_fix":60,"samplingrate":20,"img_types":["equaldotsize","equaldotanddens","randomdotsizeEA"],"ratios":[250,500,750,900],"rep_conds":9,"nTrials":120,"trials_to_rest":500,"Trials_order":[52,7,106,111,63,50,91,40,117,44,34,107,75,3,80,113,23,99,65,41,46,28,39,10,95,77,104,85,21,83,35,69,67,17,105,20,82,97,25,81,79,13,76,14,72,45,29,86,12,78,60,110,43,55,42,54,103,2,119,102,74,33,64,37,56,100,96,57,24,1,92,73,114,116,6,118,31,62,38,71,112,108,19,16,32,66,30,47,98,68,53,93,5,8,115,87,94,27,101,84,109,4,48,89,18,9,11,88,61,59,51,90,0,49,70,36,26,58,22,15],"cond_shown":["equaldotanddens","equaldotanddens","equaldotanddens","equaldotsize","equaldotsize","randomdotsizeEA","equaldotanddens","equaldotanddens","equaldotsize","randomdotsizeEA","equaldotanddens","randomdotsizeEA","equaldotsize","equaldotsize","randomdotsizeEA","randomdotsizeEA","randomdotsizeEA","equaldotsize","randomdotsizeEA","randomdotsizeEA","equaldotanddens","equaldotanddens","equaldotsize","equaldotanddens","randomdotsizeEA","randomdotsizeEA","randomdotsizeEA","equaldotanddens","equaldotsize","randomdotsizeEA","randomdotsizeEA","equaldotsize","equaldotanddens","randomdotsizeEA","equaldotsize","randomdotsizeEA","equaldotanddens","equaldotanddens","equaldotanddens","equaldotsize","equaldotanddens","equaldotanddens","equaldotanddens","randomdotsizeEA","equaldotsize","equaldotsize","randomdotsizeEA","randomdotsizeEA","equaldotsize","equaldotsize","equaldotsize","randomdotsizeEA","equaldotanddens","equaldotanddens","equaldotsize","equaldotsize","equaldotanddens","randomdotsizeEA","randomdotsizeEA","equaldotsize","randomdotsizeEA","equaldotsize","equaldotanddens","equaldotanddens","randomdotsizeEA","equaldotanddens","equaldotsize","equaldotsize","equaldotsize","equaldotanddens","randomdotsizeEA","equaldotanddens","equaldotsize","randomdotsizeEA","equaldotsize","equaldotanddens","equaldotanddens","randomdotsizeEA","randomdotsizeEA","randomdotsizeEA","equaldotanddens","equaldotsize","equaldotanddens","equaldotanddens","randomdotsizeEA","equaldotsize","equaldotsize","randomdotsizeEA","randomdotsizeEA","randomdotsizeEA","randomdotsizeEA","equaldotsize","randomdotsizeEA","randomdotsizeEA","equaldotanddens","equaldotsize","equaldotanddens","equaldotsize","randomdotsizeEA","equaldotsize","equaldotanddens","equaldotanddens","equaldotsize","randomdotsizeEA","equaldotsize","equaldotsize","randomdotsizeEA","equaldotanddens","equaldotanddens","randomdotsizeEA","equaldotsize","equaldotsize","equaldotsize","equaldotanddens","equaldotanddens","equaldotsize","randomdotsizeEA","equaldotanddens","equaldotanddens","equaldotsize"],"ratio_trial":[500,750,900,500,500,250,750,500,900,750,900,900,500,500,750,500,900,500,500,500,900,500,500,900,900,500,750,250,900,900,900,900,750,500,900,750,900,250,250,900,750,250,500,250,250,900,500,250,250,750,250,250,750,750,750,750,750,250,900,750,250,900,500,250,750,500,250,900,250,250,750,250,750,750,750,900,750,250,250,900,500,250,750,500,750,750,750,900,250,750,500,900,500,750,750,500,900,500,500,250,250,500,250,500,750,900,900,500,250,900,500,750,250,250,900,250,250,900,900,500],"smaller_num":["3","12","18","2","9","2","3","6","9","3","18","18","5","6","18","3","9","1","2","2","18","2","1","18","18","10","3","2","18","9","9","18","15","4","9","6","18","3","6","18","3","2","3","3","1","18","9","3","6","15","2","3","15","6","3","15","3","2","9","3","3","18","2","2","15","2","3","18","4","2","15","2","15","15","3","18","3","3","3","18","10","3","15","9","3","3","6","9","2","15","6","18","3","6","6","2","18","9","5","3","3","4","1","9","6","18","9","2","2","18","1","15","3","5","18","2","5","18","9","9"],"larger_num":["6","16","20","4","18","8","4","12","10","4","20","20","10","12","24","6","10","2","4","4","20","4","2","20","20","20","4","8","20","10","10","20","20","8","10","8","20","12","24","20","4","8","6","12","4","20","18","12","24","20","8","12","20","8","4","20","4","8","10","4","12","20","4","8","20","4","12","20","16","8","20","8","20","20","4","20","4","12","12","20","20","12","20","18","4","4","8","10","8","20","12","20","6","8","8","4","20","18","10","12","12","8","4","18","8","20","10","4","8","20","2","20","12","20","20","8","20","20","10","18"],"correct_side":[2,2,2,1,2,1,2,1,2,1,1,2,1,1,1,2,2,2,1,1,1,2,2,1,1,2,2,1,2,2,2,2,2,1,2,1,1,2,2,2,1,1,2,2,2,1,1,1,1,1,2,1,2,2,1,2,2,1,1,1,1,1,2,2,2,1,1,1,2,1,2,2,2,2,1,2,1,2,2,1,2,2,2,1,2,1,1,1,1,2,1,1,2,1,2,2,1,1,2,2,2,1,2,2,1,1,2,2,1,1,2,2,2,2,1,1,2,1,2,1],"img_shown":["img/500/equaldotanddens/R/2_Ratio_500_L_3_R_6.png","img/750/equaldotanddens/R/11_Ratio_750_L_12_R_16.png","img/900/equaldotanddens/R/11_Ratio_900_L_18_R_20.png","img/500/equaldotsize/L/5_Ratio_500_L_4_R_2.png","img/500/equaldotsize/R/1_Ratio_500_L_9_R_18.png","img/250/randomdotsizeEA/L/1_Ratio_250_L_8_R_2.png","img/750/equaldotanddens/R/7_Ratio_750_L_3_R_4.png","img/500/equaldotanddens/L/11_Ratio_500_L_12_R_6.png","img/900/equaldotsize/R/3_Ratio_900_L_9_R_10.png","img/750/randomdotsizeEA/L/9_Ratio_750_L_4_R_3.png","img/900/equaldotanddens/L/10_Ratio_900_L_20_R_18.png","img/900/randomdotsizeEA/R/9_Ratio_900_L_18_R_20.png","img/500/equaldotsize/L/7_Ratio_500_L_10_R_5.png","img/500/equaldotsize/L/11_Ratio_500_L_12_R_6.png","img/750/randomdotsizeEA/L/6_Ratio_750_L_24_R_18.png","img/500/randomdotsizeEA/R/2_Ratio_500_L_3_R_6.png","img/900/randomdotsizeEA/R/6_Ratio_900_L_9_R_10.png","img/500/equaldotsize/R/12_Ratio_500_L_1_R_2.png","img/500/randomdotsizeEA/L/10_Ratio_500_L_4_R_2.png","img/500/randomdotsizeEA/L/5_Ratio_500_L_4_R_2.png","img/900/equaldotanddens/L/8_Ratio_900_L_20_R_18.png","img/500/equaldotanddens/R/9_Ratio_500_L_2_R_4.png","img/500/equaldotsize/R/15_Ratio_500_L_1_R_2.png","img/900/equaldotanddens/L/10_Ratio_900_L_20_R_18.png","img/900/randomdotsizeEA/L/2_Ratio_900_L_20_R_18.png","img/500/randomdotsizeEA/R/3_Ratio_500_L_10_R_20.png","img/750/randomdotsizeEA/R/7_Ratio_750_L_3_R_4.png","img/250/equaldotanddens/L/3_Ratio_250_L_8_R_2.png","img/900/equaldotsize/R/11_Ratio_900_L_18_R_20.png","img/900/randomdotsizeEA/R/7_Ratio_900_L_9_R_10.png","img/900/randomdotsizeEA/R/5_Ratio_900_L_9_R_10.png","img/900/equaldotsize/R/13_Ratio_900_L_18_R_20.png","img/750/equaldotanddens/R/3_Ratio_750_L_15_R_20.png","img/500/randomdotsizeEA/L/8_Ratio_500_L_8_R_4.png","img/900/equaldotsize/R/6_Ratio_900_L_9_R_10.png","img/750/randomdotsizeEA/L/14_Ratio_750_L_8_R_6.png","img/900/equaldotanddens/L/10_Ratio_900_L_20_R_18.png","img/250/equaldotanddens/R/11_Ratio_250_L_3_R_12.png","img/250/equaldotanddens/R/6_Ratio_250_L_6_R_24.png","img/900/equaldotsize/R/13_Ratio_900_L_18_R_20.png","img/750/equaldotanddens/L/8_Ratio_750_L_4_R_3.png","img/250/equaldotanddens/L/7_Ratio_250_L_8_R_2.png","img/500/equaldotanddens/R/2_Ratio_500_L_3_R_6.png","img/250/randomdotsizeEA/R/4_Ratio_250_L_3_R_12.png","img/250/equaldotsize/R/8_Ratio_250_L_1_R_4.png","img/900/equaldotsize/L/10_Ratio_900_L_20_R_18.png","img/500/randomdotsizeEA/L/4_Ratio_500_L_18_R_9.png","img/250/randomdotsizeEA/L/14_Ratio_250_L_12_R_3.png","img/250/equaldotsize/L/5_Ratio_250_L_24_R_6.png","img/750/equaldotsize/L/1_Ratio_750_L_20_R_15.png","img/250/equaldotsize/R/13_Ratio_250_L_2_R_8.png","img/250/randomdotsizeEA/L/15_Ratio_250_L_12_R_3.png","img/750/equaldotanddens/R/5_Ratio_750_L_15_R_20.png","img/750/equaldotanddens/R/2_Ratio_750_L_6_R_8.png","img/750/equaldotsize/L/10_Ratio_750_L_4_R_3.png","img/750/equaldotsize/R/4_Ratio_750_L_15_R_20.png","img/750/equaldotanddens/R/12_Ratio_750_L_3_R_4.png","img/250/randomdotsizeEA/L/1_Ratio_250_L_8_R_2.png","img/900/randomdotsizeEA/L/1_Ratio_900_L_10_R_9.png","img/750/equaldotsize/L/9_Ratio_750_L_4_R_3.png","img/250/randomdotsizeEA/L/14_Ratio_250_L_12_R_3.png","img/900/equaldotsize/L/4_Ratio_900_L_20_R_18.png","img/500/equaldotanddens/R/9_Ratio_500_L_2_R_4.png","img/250/equaldotanddens/R/13_Ratio_250_L_2_R_8.png","img/750/randomdotsizeEA/R/4_Ratio_750_L_15_R_20.png","img/500/equaldotanddens/L/10_Ratio_500_L_4_R_2.png","img/250/equaldotsize/L/14_Ratio_250_L_12_R_3.png","img/900/equaldotsize/L/10_Ratio_900_L_20_R_18.png","img/250/equaldotsize/R/10_Ratio_250_L_4_R_16.png","img/250/equaldotanddens/L/7_Ratio_250_L_8_R_2.png","img/750/randomdotsizeEA/R/5_Ratio_750_L_15_R_20.png","img/250/equaldotanddens/R/13_Ratio_250_L_2_R_8.png","img/750/equaldotsize/R/5_Ratio_750_L_15_R_20.png","img/750/randomdotsizeEA/R/5_Ratio_750_L_15_R_20.png","img/750/equaldotsize/L/8_Ratio_750_L_4_R_3.png","img/900/equaldotanddens/R/13_Ratio_900_L_18_R_20.png","img/750/equaldotanddens/L/9_Ratio_750_L_4_R_3.png","img/250/randomdotsizeEA/R/11_Ratio_250_L_3_R_12.png","img/250/randomdotsizeEA/R/9_Ratio_250_L_3_R_12.png","img/900/randomdotsizeEA/L/2_Ratio_900_L_20_R_18.png","img/500/equaldotanddens/R/3_Ratio_500_L_10_R_20.png","img/250/equaldotsize/R/11_Ratio_250_L_3_R_12.png","img/750/equaldotanddens/R/3_Ratio_750_L_15_R_20.png","img/500/equaldotanddens/L/4_Ratio_500_L_18_R_9.png","img/750/randomdotsizeEA/R/12_Ratio_750_L_3_R_4.png","img/750/equaldotsize/L/8_Ratio_750_L_4_R_3.png","img/750/equaldotsize/L/14_Ratio_750_L_8_R_6.png","img/900/randomdotsizeEA/L/1_Ratio_900_L_10_R_9.png","img/250/randomdotsizeEA/L/1_Ratio_250_L_8_R_2.png","img/750/randomdotsizeEA/R/4_Ratio_750_L_15_R_20.png","img/500/randomdotsizeEA/L/11_Ratio_500_L_12_R_6.png","img/900/equaldotsize/L/2_Ratio_900_L_20_R_18.png","img/500/randomdotsizeEA/R/2_Ratio_500_L_3_R_6.png","img/750/randomdotsizeEA/L/13_Ratio_750_L_8_R_6.png","img/750/equaldotanddens/R/2_Ratio_750_L_6_R_8.png","img/500/equaldotsize/R/9_Ratio_500_L_2_R_4.png","img/900/equaldotanddens/L/8_Ratio_900_L_20_R_18.png","img/500/equaldotsize/L/4_Ratio_500_L_18_R_9.png","img/500/randomdotsizeEA/R/14_Ratio_500_L_5_R_10.png","img/250/equaldotsize/R/11_Ratio_250_L_3_R_12.png","img/250/equaldotanddens/R/9_Ratio_250_L_3_R_12.png","img/500/equaldotanddens/L/8_Ratio_500_L_8_R_4.png","img/250/equaldotsize/R/8_Ratio_250_L_1_R_4.png","img/500/randomdotsizeEA/R/1_Ratio_500_L_9_R_18.png","img/750/equaldotsize/L/13_Ratio_750_L_8_R_6.png","img/900/equaldotsize/L/10_Ratio_900_L_20_R_18.png","img/900/randomdotsizeEA/R/3_Ratio_900_L_9_R_10.png","img/500/equaldotanddens/R/9_Ratio_500_L_2_R_4.png","img/250/equaldotanddens/L/1_Ratio_250_L_8_R_2.png","img/900/randomdotsizeEA/L/4_Ratio_900_L_20_R_18.png","img/500/equaldotsize/R/12_Ratio_500_L_1_R_2.png","img/750/equaldotsize/R/4_Ratio_750_L_15_R_20.png","img/250/equaldotsize/R/9_Ratio_250_L_3_R_12.png","img/250/equaldotanddens/R/12_Ratio_250_L_5_R_20.png","img/900/equaldotanddens/L/4_Ratio_900_L_20_R_18.png","img/250/equaldotsize/L/7_Ratio_250_L_8_R_2.png","img/250/randomdotsizeEA/R/12_Ratio_250_L_5_R_20.png","img/900/equaldotanddens/L/8_Ratio_900_L_20_R_18.png","img/900/equaldotanddens/R/6_Ratio_900_L_9_R_10.png","img/500/equaldotsize/L/4_Ratio_500_L_18_R_9.png"],"Rat0":[["12_Ratio_0_L_9_R_0.png","13_Ratio_0_L_6_R_0.png","5_Ratio_0_L_2_R_0.png","6_Ratio_0_L_4_R_0.png","8_Ratio_0_L_6_R_0.png"],["1_Ratio_0_L_0_R_17.png","10_Ratio_0_L_0_R_22.png","11_Ratio_0_L_0_R_1.png","14_Ratio_0_L_0_R_24.png","15_Ratio_0_L_0_R_4.png","2_Ratio_0_L_0_R_5.png","3_Ratio_0_L_0_R_17.png","4_Ratio_0_L_0_R_7.png","7_Ratio_0_L_0_R_19.png","9_Ratio_0_L_0_R_15.png"]],"Rat250":[["1_Ratio_250_L_8_R_2.png","14_Ratio_250_L_12_R_3.png","15_Ratio_250_L_12_R_3.png","2_Ratio_250_L_16_R_4.png","3_Ratio_250_L_8_R_2.png","5_Ratio_250_L_24_R_6.png","7_Ratio_250_L_8_R_2.png"],["10_Ratio_250_L_4_R_16.png","11_Ratio_250_L_3_R_12.png","12_Ratio_250_L_5_R_20.png","13_Ratio_250_L_2_R_8.png","4_Ratio_250_L_3_R_12.png","6_Ratio_250_L_6_R_24.png","8_Ratio_250_L_1_R_4.png","9_Ratio_250_L_3_R_12.png"]],"Rat500":[["10_Ratio_500_L_4_R_2.png","11_Ratio_500_L_12_R_6.png","13_Ratio_500_L_12_R_6.png","4_Ratio_500_L_18_R_9.png","5_Ratio_500_L_4_R_2.png","7_Ratio_500_L_10_R_5.png","8_Ratio_500_L_8_R_4.png"],["1_Ratio_500_L_9_R_18.png","12_Ratio_500_L_1_R_2.png","14_Ratio_500_L_5_R_10.png","15_Ratio_500_L_1_R_2.png","2_Ratio_500_L_3_R_6.png","3_Ratio_500_L_10_R_20.png","6_Ratio_500_L_9_R_18.png","9_Ratio_500_L_2_R_4.png"]],"Rat750":[["1_Ratio_750_L_20_R_15.png","10_Ratio_750_L_4_R_3.png","13_Ratio_750_L_8_R_6.png","14_Ratio_750_L_8_R_6.png","6_Ratio_750_L_24_R_18.png","8_Ratio_750_L_4_R_3.png","9_Ratio_750_L_4_R_3.png"],["11_Ratio_750_L_12_R_16.png","12_Ratio_750_L_3_R_4.png","15_Ratio_750_L_9_R_12.png","2_Ratio_750_L_6_R_8.png","3_Ratio_750_L_15_R_20.png","4_Ratio_750_L_15_R_20.png","5_Ratio_750_L_15_R_20.png","7_Ratio_750_L_3_R_4.png"]],"Rat900":[["1_Ratio_900_L_10_R_9.png","10_Ratio_900_L_20_R_18.png","2_Ratio_900_L_20_R_18.png","4_Ratio_900_L_20_R_18.png","8_Ratio_900_L_20_R_18.png"],["11_Ratio_900_L_18_R_20.png","12_Ratio_900_L_18_R_20.png","13_Ratio_900_L_18_R_20.png","14_Ratio_900_L_18_R_20.png","15_Ratio_900_L_9_R_10.png","3_Ratio_900_L_9_R_10.png","5_Ratio_900_L_9_R_10.png","6_Ratio_900_L_9_R_10.png","7_Ratio_900_L_9_R_10.png","9_Ratio_900_L_18_R_20.png"]],"Rat1000":[["10_Ratio_1000_L_16_R_16.png","11_Ratio_1000_L_6_R_6.png","12_Ratio_1000_L_14_R_14.png","13_Ratio_1000_L_20_R_20.png","15_Ratio_1000_L_15_R_15.png","2_Ratio_1000_L_17_R_17.png","4_Ratio_1000_L_9_R_9.png","5_Ratio_1000_L_6_R_6.png","6_Ratio_1000_L_19_R_19.png","8_Ratio_1000_L_14_R_14.png","9_Ratio_1000_L_25_R_25.png"],["1_Ratio_1000_L_1_R_1.png","14_Ratio_1000_L_17_R_17.png","3_Ratio_1000_L_17_R_17.png","7_Ratio_1000_L_6_R_6.png"]]}},{"start_time":1551794690178,"click_time":1551794690954,"finger_time":1551794690671,"fix_duration":924.6425390616213,"trial":1,"RT":493,"MT":283,"sideResp":2,"stimulus":"img/750/equaldotanddens/R/11_Ratio_750_L_12_R_16.png","xmouse":[821,821,821,821,821,821,818,818,817,817,817,817,817,817,817,817,817,817,817,817,817,817,819,833,928,1026,1161,1210,1231,1234,1234,1234,1234,1234,1234,1233,1221,1215,1158],"ymouse":[540,540,540,540,539,539,537,537,537,537,537,537,537,537,537,537,537,537,537,537,537,535,529,511,405,316,178,117,72,65,64,64,64,64,51,40,28,25,19],"timestamp_mouse":[15,40,54,74,95,115,134,155,174,194,215,235,254,274,294,314,335,354,375,394,414,434,454,473,493,515,534,555,575,594,613,634,654,675,694,714,734,754,775],"xSR":741.5,"ySR":481,"xT1":424.9,"yT1":0,"xT2":1058.1,"yT2":0,"toosoon":0,"cond_shown":"equaldotanddens","ratio_trial":750,"smaller_num":"12","larger_num":"16","correct_side":2,"subjID":"karoldanielatrianaalvarez4","gender":"1","age":"11","school":""},{"start_time":1551794692205,"click_time":1551794693132,"finger_time":1551794692672,"fix_duration":250,"trial":2,"RT":467,"MT":460,"sideResp":2,"stimulus":"img/900/equaldotanddens/R/11_Ratio_900_L_18_R_20.png","xmouse":[790,790,790,790,790,790,790,790,790,790,790,790,790,790,790,790,790,790,790,790,796,805,828,957,1016,1062,1079,1090,1098,1099,1100,1100,1095,1085,1076,1066,1049,1039,1028,1028,1028,1028,1028,1028,1047,1053,1068],"ymouse":[558,558,558,558,558,558,558,558,558,558,558,558,558,558,558,558,558,558,558,558,553,546,529,417,344,245,205,178,159,156,151,144,131,122,112,105,100,100,99,99,99,99,99,97,85,81,73],"timestamp_mouse":[11,39,47,68,87,107,127,147,167,188,208,227,247,267,288,307,327,347,368,387,408,427,448,467,487,506,528,547,567,587,608,627,648,667,688,707,727,747,767,787,806,827,847,867,887,908,927],"xSR":741.5,"ySR":481,"xT1":424.9,"yT1":0,"xT2":1058.1,"yT2":0,"toosoon":0,"cond_shown":"equaldotanddens","ratio_trial":900,"smaller_num":"18","larger_num":"20","correct_side":2,"subjID":"karoldanielatrianaalvarez4","gender":"1","age":"11","school":""},{"start_time":1551794694225,"click_time":1551794695572,"finger_time":1551794695252,"fix_duration":250,"trial":3,"RT":1027,"MT":320,"sideResp":1,"stimulus":"img/500/equaldotsize/L/5_Ratio_500_L_4_R_2.png","xmouse":[798,798,798,798,798,798,798,798,798,798,798,798,798,798,798,798,798,798,798,798,798,798,798,798,798,798,798,798,798,798,798,798,798,798,798,798,798,798,798,798,798,798,797,797,797,799,799,799,799,794,783,741,618,566,545,532,527,525,523,520,514,510,509,509,509,512,515,523],"ymouse":[538,538,538,538,538,538,538,538,538,538,538,538,538,538,538,538,538,538,538,538,538,538,538,538,538,538,538,538,538,538,538,538,538,538,538,538,538,538,538,538,538,538,537,535,531,524,523,522,519,512,501,470,384,350,329,312,303,277,262,242,227,209,204,199,194,181,132,6],"timestamp_mouse":[8,35,47,67,87,106,127,148,167,188,206,228,248,268,288,307,328,348,366,387,407,426,446,468,487,508,527,547,567,588,606,627,648,667,687,707,728,746,768,787,807,827,847,867,887,907,927,948,968,988,1007,1027,1047,1067,1087,1107,1127,1147,1167,1187,1207,1228,1247,1267,1287,1307,1327,1347],"xSR":741.5,"ySR":481,"xT1":424.9,"yT1":0,"xT2":1058.1,"yT2":0,"toosoon":0,"cond_shown":"equaldotsize","ratio_trial":500,"smaller_num":"2","larger_num":"4","correct_side":1,"subjID":"karoldanielatrianaalvarez4","gender":"1","age":"11","school":""},{"start_time":1551794698676,"click_time":1551794699432,"finger_time":1551794699213,"fix_duration":963.246823460619,"trial":4,"RT":537,"MT":219,"sideResp":2,"stimulus":"img/500/equaldotsize/R/1_Ratio_500_L_9_R_18.png","xmouse":[772,772,772,772,772,772,772,772,772,772,772,772,772,772,772,772,772,772,772,772,772,772,772,772,772,772,774,784,812,826,846,875,898,919,955,993,1046,1066],"ymouse":[487,487,487,487,487,487,487,487,487,487,487,487,487,487,487,487,487,487,487,487,487,487,487,487,487,485,479,468,437,422,399,354,318,292,238,178,95,70],"timestamp_mouse":[16,38,56,77,96,116,136,155,176,197,216,236,256,276,297,317,337,355,377,396,416,436,456,476,497,515,537,556,577,596,617,636,656,676,696,716,737,756],"xSR":741.5,"ySR":481,"xT1":424.9,"yT1":0,"xT2":1058.1,"yT2":0,"toosoon":0,"cond_shown":"equaldotsize","ratio_trial":500,"smaller_num":"9","larger_num":"18","correct_side":2,"subjID":"karoldanielatrianaalvarez4","gender":"1","age":"11","school":""},{"start_time":1551794708405,"click_time":1551794710952,"finger_time":1551794709312,"fix_duration":250,"trial":5,"RT":907,"MT":1640,"sideResp":1,"stimulus":"img/250/randomdotsizeEA/L/1_Ratio_250_L_8_R_2.png","xmouse":[751,751,751,751,751,751,751,751,751,751,751,751,751,751,751,751,751,751,751,751,751,751,751,751,751,751,751,751,751,751,751,751,751,751,751,751,751,751,751,753,756,760,763,774,781,794,808,828,885,901,914,928,940,962,964,968,973,981,985,986,988,990,991,992,992,992,992,992,982,955,936,906,849,832,822,785,769,742,719,719,719,719,719,719,719,717,711,706,699,699,698,696,695,695,695,695,695,695,695,695,695,695,695,695,695,695,695,695,695,695,690,687,680,672,665,646,628,610,584,582,581,580,579,571,565,550,533,520],"ymouse":[532,532,532,532,532,532,532,532,532,532,532,532,532,532,532,532,532,532,532,532,532,532,532,532,532,532,532,532,532,532,532,532,532,532,532,532,532,532,532,533,531,527,521,500,486,474,459,442,398,391,379,375,369,353,351,349,339,325,320,315,310,306,303,303,301,301,301,301,296,293,291,282,248,236,226,194,186,170,155,155,155,155,155,155,154,154,152,149,145,145,145,143,142,142,142,142,142,142,142,142,142,142,142,142,142,142,142,142,142,142,142,141,140,139,138,135,132,128,120,119,118,118,116,111,109,102,97,90],"timestamp_mouse":[9,32,47,68,87,107,127,147,168,187,206,227,247,267,288,308,328,347,368,387,408,427,447,467,487,506,528,547,567,588,607,627,647,666,687,707,727,747,767,787,806,827,847,867,888,907,928,947,967,987,1007,1026,1046,1066,1087,1107,1127,1148,1167,1188,1207,1227,1247,1268,1287,1307,1327,1347,1367,1387,1407,1426,1448,1466,1487,1507,1527,1547,1567,1587,1608,1627,1649,1667,1688,1707,1727,1747,1767,1788,1807,1827,1847,1867,1887,1907,1927,1948,1967,1988,2008,2028,2047,2066,2087,2107,2128,2148,2167,2188,2207,2227,2248,2267,2287,2307,2327,2347,2367,2387,2407,2427,2447,2467,2487,2507,2527,2547],"xSR":741.5,"ySR":481,"xT1":424.9,"yT1":0,"xT2":1058.1,"yT2":0,"toosoon":0,"cond_shown":"randomdotsizeEA","ratio_trial":250,"smaller_num":"2","larger_num":"8","correct_side":1,"subjID":"karoldanielatrianaalvarez4","gender":"1","age":"11","school":""},{"start_time":1551794713587,"click_time":1551794717472,"finger_time":1551794714272,"fix_duration":834.7470381326742,"trial":6,"RT":685,"MT":3200,"sideResp":2,"stimulus":"img/750/equaldotanddens/R/7_Ratio_750_L_3_R_4.png","xmouse":[783,783,783,783,783,783,783,783,783,783,783,783,783,783,783,783,783,783,783,783,783,783,783,783,783,783,783,783,783,786,792,796,799,806,821,824,825,826,829,831,831,831,831,832,833,834,836,838,842,853,856,864,877,885,901,924,954,967,972,975,978,980,982,984,991,998,998,998,1000,1003,1004,1007,1009,1009,1009,1009,1010,1012,1014,1016,1016,1017,1018,1018,1018,1019,1019,1019,1021,1024,1026,1027,1029,1034,1043,1045,1046,1048,1049,1049,1049,1049,1049,1049,1049,1049,1049,1049,1049,1049,1049,1049,1049,1049,1049,1049,1049,1049,1049,1049,1049,1049,1049,1050,1051,1053,1053,1055,1058,1061,1063,1065,1067,1067,1068,1068,1068,1068,1068,1068,1068,1068,1068,1068,1068,1068,1070,1072,1073,1073,1074,1075,1077,1078,1078,1078,1078,1078,1078,1078,1078,1078,1078,1078,1079,1081,1081,1082,1082,1083,1083,1084,1084,1084,1084,1084,1085,1085,1085,1085,1085,1085,1085,1085,1085,1085,1085,1085,1085,1085,1085,1085,1085,1087,1090],"ymouse":[523,523,523,523,523,523,523,523,523,523,523,523,523,523,523,523,523,523,523,523,523,523,523,523,523,523,523,523,522,513,507,502,497,490,458,442,435,427,410,404,403,402,402,399,397,394,392,389,384,372,368,362,355,352,346,343,337,335,335,335,335,333,332,330,323,319,319,319,317,311,308,305,303,303,303,303,302,299,296,294,293,290,286,282,276,275,272,269,267,262,259,257,255,251,244,241,240,238,237,236,236,236,236,236,236,236,235,232,223,218,214,209,203,192,186,179,178,173,171,168,168,168,167,160,156,152,150,147,143,134,129,126,122,120,119,119,119,119,119,119,119,119,119,119,119,119,116,114,113,113,112,111,110,110,110,110,110,110,110,110,110,110,110,110,109,108,108,107,106,106,106,105,105,105,105,104,103,103,103,103,103,103,103,103,103,103,103,103,103,103,103,103,102,100,98],"timestamp_mouse":[8,37,44,66,86,105,125,145,166,185,205,226,245,265,285,306,325,345,366,386,404,425,445,466,485,505,526,545,565,584,605,625,645,665,685,705,725,746,765,785,806,825,845,867,885,906,925,946,965,985,1005,1025,1045,1065,1084,1105,1125,1146,1164,1186,1205,1226,1245,1265,1286,1305,1326,1345,1364,1385,1405,1425,1445,1466,1486,1505,1526,1545,1565,1585,1604,1626,1646,1665,1685,1705,1726,1744,1765,1786,1805,1826,1845,1865,1886,1906,1925,1945,1965,1985,2005,2025,2045,2065,2086,2105,2126,2145,2166,2185,2205,2226,2246,2266,2284,2306,2325,2345,2365,2385,2405,2426,2446,2466,2485,2505,2526,2545,2565,2585,2606,2625,2646,2665,2686,2705,2724,2746,2765,2786,2806,2826,2845,2866,2885,2906,2926,2946,2965,2986,3006,3025,3045,3066,3085,3106,3126,3145,3166,3186,3206,3225,3246,3265,3285,3305,3326,3344,3365,3385,3406,3426,3445,3466,3486,3504,3525,3546,3565,3586,3605,3625,3645,3664,3686,3706,3726,3745,3765,3785,3805,3825,3845,3865,3885],"xSR":741.5,"ySR":481,"xT1":424.9,"yT1":0,"xT2":1058.1,"yT2":0,"toosoon":0,"cond_shown":"equaldotanddens","ratio_trial":750,"smaller_num":"3","larger_num":"4","correct_side":2,"subjID":"karoldanielatrianaalvarez4","gender":"1","age":"11","school":""},{"start_time":1551794719072,"click_time":1551794720331,"finger_time":1551794719872,"fix_duration":498.22691781134097,"trial":7,"RT":800,"MT":459,"sideResp":1,"stimulus":"img/500/equaldotanddens/L/11_Ratio_500_L_12_R_6.png","xmouse":[763,763,763,763,763,763,763,763,763,763,763,762,760,760,759,759,758,758,757,756,756,756,756,756,756,756,755,755,755,755,755,755,755,755,755,754,753,753,753,748,743,739,731,717,708,699,691,682,672,668,664,652,642,623,619,617,616,611,603,572,543,531,523],"ymouse":[535,535,535,535,535,535,535,535,535,535,536,536,537,538,538,538,539,539,539,539,539,539,539,539,539,539,540,540,540,540,540,540,540,540,540,540,540,531,487,421,395,359,300,219,193,171,152,136,119,112,103,90,80,67,64,64,64,64,65,66,67,68,69],"timestamp_mouse":[29,41,60,80,100,120,140,160,180,199,220,239,260,280,299,320,341,360,379,401,420,440,460,480,501,521,540,560,580,601,619,641,659,679,700,720,741,759,780,800,820,840,860,881,900,920,940,960,981,1000,1021,1040,1060,1081,1100,1120,1141,1160,1180,1201,1220,1240,1259],"xSR":741.5,"ySR":481,"xT1":424.9,"yT1":0,"xT2":1058.1,"yT2":0,"toosoon":0,"cond_shown":"equaldotanddens","ratio_trial":500,"smaller_num":"6","larger_num":"12","correct_side":1,"subjID":"karoldanielatrianaalvarez4","gender":"1","age":"11","school":""},{"start_time":1551794732324,"click_time":1551794733372,"finger_time":1551794732654,"fix_duration":250,"trial":8,"RT":330,"MT":718,"sideResp":1,"stimulus":"img/900/equaldotsize/R/3_Ratio_900_L_9_R_10.png","xmouse":[806,806,806,806,806,806,806,806,806,806,806,806,806,801,794,790,786,778,768,758,756,756,756,753,750,748,747,746,746,746,746,746,743,740,737,732,709,697,683,666,661,654,650,646,640,633,623,598,575,568,546,534,517],"ymouse":[542,542,542,542,542,542,542,542,542,542,542,542,541,539,534,516,415,358,325,297,287,279,252,243,233,226,222,216,215,215,215,214,212,210,209,207,201,197,190,180,173,157,151,146,141,138,133,121,106,103,90,84,75],"timestamp_mouse":[8,37,48,68,88,108,128,149,167,188,209,229,249,268,288,307,330,348,368,389,408,428,448,468,487,508,528,548,568,588,608,629,648,668,688,708,729,748,768,788,808,829,847,869,887,907,928,948,968,989,1008,1029,1048],"xSR":741.5,"ySR":481,"xT1":424.9,"yT1":0,"xT2":1058.1,"yT2":0,"toosoon":0,"cond_shown":"equaldotsize","ratio_trial":900,"smaller_num":"9","larger_num":"10","correct_side":2,"subjID":"karoldanielatrianaalvarez4","gender":"1","age":"11","school":""},{"start_time":1551794747915,"click_time":1551794749112,"finger_time":1551794748772,"fix_duration":322.24521224119707,"trial":9,"RT":857,"MT":340,"sideResp":1,"stimulus":"img/750/randomdotsizeEA/L/9_Ratio_750_L_4_R_3.png","xmouse":[816,816,816,816,816,816,816,816,816,816,816,816,816,816,816,816,816,816,816,816,816,816,816,816,816,817,817,817,817,818,818,818,818,818,818,818,818,818,818,818,814,810,798,794,790,790,790,790,783,776,740,663,624,608,590,579,571,544,528,507],"ymouse":[520,520,520,520,520,520,520,520,520,520,520,520,520,520,520,520,520,520,520,520,520,520,520,516,515,514,513,512,512,511,511,511,511,511,511,511,511,511,511,507,498,491,459,438,415,403,398,385,368,358,306,225,199,184,168,157,149,120,101,81],"timestamp_mouse":[18,39,57,78,98,118,137,157,176,198,218,237,258,278,297,318,337,358,378,397,418,438,458,477,498,517,538,557,577,597,617,638,658,678,698,718,737,757,778,797,818,837,857,877,897,917,938,957,977,997,1017,1038,1056,1077,1097,1117,1137,1156,1177,1197],"xSR":741.5,"ySR":481,"xT1":424.9,"yT1":0,"xT2":1058.1,"yT2":0,"toosoon":0,"cond_shown":"randomdotsizeEA","ratio_trial":750,"smaller_num":"3","larger_num":"4","correct_side":1,"subjID":"karoldanielatrianaalvarez4","gender":"1","age":"11","school":""},{"start_time":1551794751030,"click_time":1551794756932,"finger_time":1551794751812,"fix_duration":377.29309273483955,"trial":10,"RT":782,"MT":5120,"sideResp":1,"stimulus":"img/900/equaldotanddens/L/10_Ratio_900_L_20_R_18.png","xmouse":[786,786,786,786,786,786,786,786,786,786,786,786,786,786,786,786,786,786,786,786,786,786,786,786,786,786,786,786,786,786,786,786,786,786,786,786,786,786,785,776,770,762,744,743,737,731,724,704,695,685,675,667,663,657,648,641,628,565,565,565,565,565,565,565,565,565,565,565,565,565,565,565,565,565,565,565,565,565,565,565,565,565,565,565,565,565,565,565,565,565,565,565,565,565,565,565,565,565,565,565,565,565,565,565,565,565,565,565,565,565,565,565,618,686,916,1104,1312,1550,1550,1550,1550,1550,1550,1550,1550,1550,1550,1409,1302,1195,1103,1020,913,891,884,882,874,847,842,837,821,794,790,786,783,782,779,772,768,762,758,752,735,726,723,714,712,710,710,707,697,675,635,612,591,568,546,536,536,536,536,536,536,536,536,536,536,536,536,536,536,536,536,536,536,536,536,536,536,536,536,536,536,536,536,536,536,536,536,536,536,536,536,536,536,536,536,583,661,827,971,971,971,971,971,971,971,971,1165,1143,1133,1121,1086,1064,992,891,768,578,515,515,515,515,515,515,515,515,515,515,515,515,515,515,515,515,515,515,515,515,515,515,515,515,515,515,515,515,515,515,519,557,614,643,691,710,718,736,747,750,749,746,746,741,737,721,693,680,650,577,533,502,487,482,479,474,466,457,454,454,454,454,454,454,455,458,462,470],"ymouse":[510,510,510,510,510,510,510,510,510,510,510,510,510,510,510,510,510,510,510,510,510,510,510,510,510,510,510,510,510,510,510,510,510,510,510,510,510,510,493,468,424,385,337,329,317,307,295,275,266,256,248,241,238,235,232,226,216,181,181,181,181,181,181,181,181,181,181,181,181,181,181,181,181,181,181,181,181,181,181,181,181,181,181,181,181,181,181,181,181,181,181,181,181,181,181,181,181,181,181,181,181,181,181,181,181,181,181,181,181,181,181,181,181,184,227,277,336,423,423,423,423,423,423,423,423,423,423,698,662,634,607,591,557,550,548,549,549,549,550,554,570,592,594,594,594,594,594,582,564,544,527,507,465,440,433,417,413,409,409,408,403,392,374,363,358,350,339,332,332,332,332,332,332,332,332,332,332,332,332,332,332,332,332,332,332,332,332,332,332,332,332,332,332,332,332,332,332,332,332,332,332,332,332,332,332,332,332,368,430,573,715,715,715,715,715,715,715,715,718,696,685,677,664,658,634,619,610,582,542,542,542,542,542,542,542,542,542,542,542,542,542,542,542,542,542,542,542,542,542,542,542,542,542,542,542,542,542,542,540,524,497,476,390,340,313,248,210,175,160,150,147,144,144,156,173,176,188,190,184,178,177,175,171,158,141,125,121,121,121,120,120,117,110,106,102,99],"timestamp_mouse":[9,22,42,62,83,103,122,143,162,182,202,222,242,262,282,303,323,342,362,383,402,422,442,462,482,503,523,542,562,582,602,622,643,662,682,702,723,742,762,782,802,822,841,862,882,903,922,942,962,982,1002,1023,1042,1062,1082,1102,1122,1142,1161,1182,1203,1222,1242,1262,1283,1303,1322,1342,1363,1382,1402,1423,1442,1462,1482,1502,1522,1542,1563,1583,1602,1623,1642,1663,1683,1703,1723,1742,1763,1782,1802,1822,1842,1863,1882,1903,1922,1942,1962,1982,2002,2022,2042,2063,2082,2103,2122,2142,2162,2182,2203,2222,2242,2262,2282,2302,2322,2342,2362,2382,2403,2422,2442,2463,2482,2502,2523,2541,2562,2583,2602,2623,2642,2663,2682,2702,2723,2742,2762,2782,2802,2823,2842,2862,2883,2902,2922,2942,2963,2982,3002,3022,3042,3062,3082,3102,3122,3142,3163,3182,3202,3222,3241,3262,3282,3302,3322,3342,3362,3382,3402,3423,3442,3462,3482,3502,3522,3542,3562,3582,3602,3623,3641,3662,3682,3702,3723,3743,3762,3782,3803,3823,3842,3862,3882,3902,3923,3942,3963,3983,4002,4023,4042,4062,4082,4102,4123,4142,4163,4182,4203,4222,4242,4262,4282,4302,4322,4342,4362,4382,4402,4422,4443,4461,4482,4502,4523,4543,4562,4582,4602,4623,4642,4662,4682,4702,4722,4742,4762,4783,4802,4823,4842,4862,4882,4902,4922,4941,4962,4981,5002,5023,5043,5063,5083,5102,5122,5143,5161,5182,5202,5222,5241,5263,5282,5302,5321,5343,5362,5382,5403,5423,5442,5462,5482,5503,5522,5543,5562,5582,5602,5622,5642,5663,5683,5702,5723,5743,5763,5782,5802,5822,5843,5862,5883,5902],"xSR":741.5,"ySR":481,"xT1":424.9,"yT1":0,"xT2":1058.1,"yT2":0,"toosoon":0,"cond_shown":"equaldotanddens","ratio_trial":900,"smaller_num":"18","larger_num":"20","correct_side":1,"subjID":"karoldanielatrianaalvarez4","gender":"1","age":"11","school":""},{"start_time":1551794769303,"click_time":1551794770893,"finger_time":1551794770152,"fix_duration":250,"trial":11,"RT":849,"MT":741,"sideResp":2,"stimulus":"img/900/randomdotsizeEA/R/9_Ratio_900_L_18_R_20.png","xmouse":[765,765,765,765,765,765,765,765,765,765,765,765,765,765,765,765,765,765,765,765,765,765,765,765,765,765,765,765,765,765,765,765,765,765,765,765,765,766,770,776,782,790,798,811,822,842,860,885,933,943,949,952,953,964,967,972,979,985,1000,1006,1009,1010,1010,1010,1010,1010,1012,1014,1024,1030,1037,1046,1051,1062,1066,1072,1076,1091,1099,1114],"ymouse":[535,535,535,535,535,535,535,535,535,535,535,535,535,535,535,535,535,535,535,535,535,535,535,535,535,535,535,535,535,535,535,535,535,535,535,535,535,536,536,526,517,493,476,442,420,391,362,317,244,235,230,228,226,216,209,201,190,181,163,157,155,155,155,155,155,155,155,153,149,144,142,137,135,131,129,126,123,112,105,90],"timestamp_mouse":[9,44,49,69,90,109,130,149,170,189,209,229,250,269,289,310,329,349,369,389,409,429,449,469,489,510,529,549,570,590,609,631,649,669,689,710,729,750,769,790,809,829,849,869,889,909,929,949,969,989,1009,1029,1049,1070,1089,1109,1129,1149,1169,1189,1209,1229,1250,1270,1289,1309,1329,1350,1369,1390,1409,1429,1449,1469,1489,1509,1529,1550,1569,1590],"xSR":741.5,"ySR":481,"xT1":424.9,"yT1":0,"xT2":1058.1,"yT2":0,"toosoon":0,"cond_shown":"randomdotsizeEA","ratio_trial":900,"smaller_num":"18","larger_num":"20","correct_side":2,"subjID":"karoldanielatrianaalvarez4","gender":"1","age":"11","school":""},{"start_time":1551794772566,"click_time":1551794773733,"finger_time":1551794773152,"fix_duration":413.402162761064,"trial":12,"RT":586,"MT":581,"sideResp":1,"stimulus":"img/500/equaldotsize/L/7_Ratio_500_L_10_R_5.png","xmouse":[819,819,819,819,819,819,819,819,819,819,819,819,819,819,819,819,819,819,819,819,819,819,819,819,819,818,815,812,791,772,729,707,701,696,677,649,641,635,634,632,625,613,596,581,567,555,550,540,537,531,527,527,525,525,525,517,510,507,500],"ymouse":[504,504,504,504,504,504,504,504,504,504,504,504,504,504,504,504,504,504,504,504,504,504,504,504,504,501,498,496,481,467,424,391,384,372,343,301,292,284,282,277,265,249,232,216,200,184,176,167,163,157,151,150,149,149,147,129,116,109,98],"timestamp_mouse":[10,41,46,66,86,106,125,146,166,186,206,226,246,266,286,306,326,346,366,387,406,426,446,466,487,506,527,546,566,586,606,626,646,666,687,705,726,746,767,786,806,825,847,866,886,905,926,946,967,986,1006,1026,1047,1066,1087,1105,1127,1146,1167],"xSR":741.5,"ySR":481,"xT1":424.9,"yT1":0,"xT2":1058.1,"yT2":0,"toosoon":0,"cond_shown":"equaldotsize","ratio_trial":500,"smaller_num":"5","larger_num":"10","correct_side":1,"subjID":"karoldanielatrianaalvarez4","gender":"1","age":"11","school":""},{"start_time":1551794777696,"click_time":1551794780473,"finger_time":1551794779512,"fix_duration":1063.3145486466806,"trial":13,"RT":1816,"MT":961,"sideResp":1,"stimulus":"img/500/equaldotsize/L/11_Ratio_500_L_12_R_6.png","xmouse":[760,760,760,760,760,760,760,760,760,760,760,760,760,760,760,760,760,760,760,760,760,760,760,760,760,760,760,760,760,760,760,760,760,760,760,760,760,760,760,760,760,760,760,760,760,760,760,760,760,760,760,760,760,760,760,760,760,760,760,760,760,760,760,760,760,760,760,760,760,760,760,760,760,760,760,760,760,760,760,760,760,760,761,763,764,764,764,764,763,759,738,719,702,681,675,671,667,662,646,633,612,598,587,577,577,577,577,577,574,569,561,550,545,537,533,531,531,531,530,530,530,530,530,530,530,530,530,530,530,530,530,530,530,530,530,530,530,529,522],"ymouse":[505,505,505,505,505,505,505,505,505,505,505,505,505,505,505,505,505,505,505,505,505,505,505,505,505,505,505,505,505,505,505,505,505,505,505,505,505,505,505,505,505,505,505,505,505,505,505,505,505,505,505,505,505,505,505,505,505,505,505,505,505,505,505,505,505,505,505,505,505,505,505,505,505,505,505,505,505,505,505,505,505,505,505,501,491,485,484,484,484,484,474,465,456,435,427,419,407,397,375,358,331,311,290,263,249,243,243,242,233,212,193,163,149,115,100,96,92,86,81,81,81,81,81,81,81,81,81,81,81,81,81,81,81,81,81,81,81,80,80],"timestamp_mouse":[17,38,56,76,97,116,136,157,177,196,216,236,256,277,296,317,336,357,377,396,417,436,457,476,496,516,536,556,577,596,616,636,657,676,696,717,736,756,777,796,816,836,856,876,896,916,936,956,976,997,1016,1037,1057,1076,1096,1117,1136,1157,1176,1196,1216,1236,1256,1276,1297,1316,1336,1357,1377,1397,1416,1436,1456,1477,1496,1517,1536,1556,1576,1596,1615,1636,1656,1677,1696,1717,1737,1757,1776,1796,1816,1837,1856,1876,1896,1916,1936,1956,1976,1997,2016,2037,2056,2076,2096,2116,2136,2156,2176,2196,2216,2236,2256,2276,2296,2316,2337,2357,2377,2396,2416,2437,2456,2476,2497,2516,2536,2557,2576,2597,2616,2636,2656,2676,2696,2716,2736,2757,2777],"xSR":741.5,"ySR":481,"xT1":424.9,"yT1":0,"xT2":1058.1,"yT2":0,"toosoon":0,"cond_shown":"equaldotsize","ratio_trial":500,"smaller_num":"6","larger_num":"12","correct_side":1,"subjID":"karoldanielatrianaalvarez4","gender":"1","age":"11","school":""},{"start_time":1551794782504,"click_time":1551794783672,"finger_time":1551794783292,"fix_duration":689.9527652710498,"trial":14,"RT":788,"MT":380,"sideResp":2,"stimulus":"img/750/randomdotsizeEA/L/6_Ratio_750_L_24_R_18.png","xmouse":[811,811,811,811,811,811,811,811,811,811,811,811,811,811,811,811,811,811,811,811,811,811,811,811,811,811,811,811,811,811,811,811,811,811,811,811,811,811,811,864,898,958,989,1013,1015,1015,1015,1015,1017,1022,1022,1022,1022,1024,1027,1030,1035,1045,1082],"ymouse":[522,522,522,522,522,522,522,522,522,522,522,522,522,522,522,522,522,522,522,522,522,522,522,522,522,522,522,522,522,522,522,522,522,522,522,522,522,523,523,452,379,264,225,202,200,199,198,195,187,163,159,144,141,133,126,122,116,107,86],"timestamp_mouse":[9,39,49,68,88,108,128,148,168,188,208,228,248,268,288,308,328,348,367,388,407,428,449,468,488,508,528,548,568,589,607,628,648,669,688,708,729,773,774,788,807,828,849,868,889,909,928,949,967,988,1008,1028,1048,1068,1088,1109,1128,1149,1168],"xSR":741.5,"ySR":481,"xT1":424.9,"yT1":0,"xT2":1058.1,"yT2":0,"toosoon":0,"cond_shown":"randomdotsizeEA","ratio_trial":750,"smaller_num":"18","larger_num":"24","correct_side":1,"subjID":"karoldanielatrianaalvarez4","gender":"1","age":"11","school":""},{"start_time":1551794808565,"click_time":1551794809792,"finger_time":1551794809472,"fix_duration":250,"trial":15,"RT":907,"MT":320,"sideResp":2,"stimulus":"img/500/randomdotsizeEA/R/2_Ratio_500_L_3_R_6.png","xmouse":[781,780,780,780,780,780,780,778,776,776,776,776,776,776,776,776,776,776,776,776,776,776,776,776,776,776,776,776,776,776,776,776,776,776,776,776,776,776,775,775,774,771,771,771,774,812,864,942,974,1001,1029,1038,1043,1048,1054,1056,1061,1070,1077,1079,1081,1081],"ymouse":[515,515,515,515,515,515,516,516,516,516,516,516,516,516,516,516,516,516,516,516,516,516,516,516,516,516,516,516,516,516,516,516,516,516,516,516,516,516,515,512,496,492,491,489,482,435,389,305,256,208,155,144,138,129,121,119,115,108,103,102,100,98],"timestamp_mouse":[13,27,53,67,88,108,127,147,167,188,208,227,247,268,287,307,327,347,368,391,407,427,448,467,487,508,527,547,567,587,608,628,648,667,687,708,727,748,767,787,807,827,847,867,887,907,928,947,968,987,1007,1028,1047,1067,1088,1107,1128,1147,1168,1187,1207,1227],"xSR":741.5,"ySR":481,"xT1":424.9,"yT1":0,"xT2":1058.1,"yT2":0,"toosoon":0,"cond_shown":"randomdotsizeEA","ratio_trial":500,"smaller_num":"3","larger_num":"6","correct_side":2,"subjID":"karoldanielatrianaalvarez4","gender":"1","age":"11","school":""},{"start_time":1551794820814,"click_time":1551794821632,"finger_time":1551794821493,"fix_duration":919.5528937200805,"trial":16,"RT":679,"MT":139,"sideResp":2,"stimulus":"img/900/randomdotsizeEA/R/6_Ratio_900_L_9_R_10.png","xmouse":[779,779,779,779,779,779,779,779,779,779,779,779,779,779,779,780,780,780,781,781,782,782,782,782,782,782,782,782,782,782,782,782,782,786,790,818,859,959,1000,1027,1072],"ymouse":[510,510,510,510,510,510,510,510,510,510,510,510,510,510,510,507,506,503,501,499,497,495,495,494,493,493,493,492,492,492,491,491,488,479,473,440,396,275,204,129,6],"timestamp_mouse":[18,38,73,78,98,119,138,158,179,198,219,239,258,278,299,318,338,358,378,398,418,438,458,479,498,518,538,559,578,598,618,639,658,679,698,719,739,759,778,798,818],"xSR":741.5,"ySR":481,"xT1":424.9,"yT1":0,"xT2":1058.1,"yT2":0,"toosoon":0,"cond_shown":"randomdotsizeEA","ratio_trial":900,"smaller_num":"9","larger_num":"10","correct_side":2,"subjID":"karoldanielatrianaalvarez4","gender":"1","age":"11","school":""},{"start_time":1551794825002,"click_time":1551794826113,"finger_time":1551794825372,"fix_duration":948.4831507337539,"trial":17,"RT":370,"MT":741,"sideResp":2,"stimulus":"img/500/equaldotsize/R/12_Ratio_500_L_1_R_2.png","xmouse":[824,824,824,824,824,824,824,824,824,824,824,825,826,827,829,831,833,834,842,847,851,860,881,891,893,893,903,916,938,943,947,954,974,982,988,1001,1005,1007,1027,1032,1033,1033,1033,1033,1033,1033,1033,1034,1035,1036,1037,1042,1047,1053,1054,1061],"ymouse":[504,504,504,504,504,504,504,504,504,504,504,503,501,501,499,492,488,487,473,463,452,434,389,366,362,359,340,321,282,272,261,243,181,159,140,95,82,76,35,27,26,26,26,26,26,26,26,26,28,31,32,33,35,38,39,42],"timestamp_mouse":[10,44,50,70,91,111,130,150,170,191,210,230,250,270,291,310,330,350,370,390,410,430,451,470,490,510,530,550,570,590,610,630,651,669,690,710,730,750,769,791,810,830,851,870,890,910,930,951,970,990,1010,1030,1050,1070,1090,1111],"xSR":741.5,"ySR":481,"xT1":424.9,"yT1":0,"xT2":1058.1,"yT2":0,"toosoon":0,"cond_shown":"equaldotsize","ratio_trial":500,"smaller_num":"1","larger_num":"2","correct_side":2,"subjID":"karoldanielatrianaalvarez4","gender":"1","age":"11","school":""},{"start_time":1551794831365,"click_time":1551794832672,"finger_time":1551794832053,"fix_duration":250,"trial":18,"RT":688,"MT":619,"sideResp":1,"stimulus":"img/500/randomdotsizeEA/L/10_Ratio_500_L_4_R_2.png","xmouse":[752,752,752,752,752,752,752,752,752,752,752,752,752,752,752,752,752,752,752,752,752,752,752,752,752,752,752,752,752,752,752,752,752,751,737,714,709,689,653,644,624,623,623,623,623,623,623,621,616,596,527,485,471,462,460,460,460,465,468,470,471,471,472,473,474,499],"ymouse":[496,496,496,496,498,499,499,499,499,499,499,499,500,500,500,500,500,500,500,500,500,500,500,500,500,500,500,500,500,500,500,500,500,497,441,387,378,322,272,264,241,240,240,240,240,239,235,232,226,208,169,143,131,126,124,124,122,116,113,110,109,108,107,106,105,77],"timestamp_mouse":[8,38,48,66,88,107,128,148,167,187,207,227,247,267,287,307,328,346,367,387,407,427,447,468,488,507,527,547,568,588,608,627,647,666,688,707,728,747,767,787,807,827,848,868,887,907,927,947,967,987,1007,1027,1047,1068,1087,1107,1127,1147,1167,1187,1207,1227,1246,1267,1287,1307],"xSR":741.5,"ySR":481,"xT1":424.9,"yT1":0,"xT2":1058.1,"yT2":0,"toosoon":0,"cond_shown":"randomdotsizeEA","ratio_trial":500,"smaller_num":"2","larger_num":"4","correct_side":1,"subjID":"karoldanielatrianaalvarez4","gender":"1","age":"11","school":""},{"start_time":1551794835849,"click_time":1551794837292,"finger_time":1551794836832,"fix_duration":956.2756306076811,"trial":19,"RT":983,"MT":460,"sideResp":1,"stimulus":"img/500/randomdotsizeEA/L/5_Ratio_500_L_4_R_2.png","xmouse":[776,776,776,776,776,776,776,776,776,776,776,776,776,776,776,776,776,776,776,776,776,776,776,776,776,776,776,776,776,776,776,776,776,776,776,776,776,776,776,776,776,776,776,776,776,776,776,776,776,776,765,712,686,659,628,611,588,582,579,579,578,575,566,563,556,556,556,556,555,553,549,531,523],"ymouse":[506,506,506,506,506,506,506,506,506,506,506,506,506,506,506,506,506,506,506,506,506,506,506,506,506,506,506,506,506,506,506,506,506,506,506,506,506,506,506,506,506,506,506,506,506,506,506,506,490,474,418,282,239,205,172,154,114,100,92,89,85,69,56,53,46,46,46,46,46,46,46,50,53],"timestamp_mouse":[10,24,46,63,83,103,123,144,164,183,203,223,244,264,284,303,323,344,363,383,403,424,442,463,483,503,524,543,563,583,603,623,643,663,683,703,723,743,764,783,803,823,844,863,883,902,924,943,964,983,1003,1022,1043,1063,1083,1103,1124,1143,1163,1183,1203,1223,1243,1263,1284,1304,1323,1344,1364,1384,1404,1422,1443],"xSR":741.5,"ySR":481,"xT1":424.9,"yT1":0,"xT2":1058.1,"yT2":0,"toosoon":0,"cond_shown":"randomdotsizeEA","ratio_trial":500,"smaller_num":"2","larger_num":"4","correct_side":1,"subjID":"karoldanielatrianaalvarez4","gender":"1","age":"11","school":""},{"start_time":1551794839884,"click_time":1551794841292,"finger_time":1551794840792,"fix_duration":250,"trial":20,"RT":908,"MT":500,"sideResp":1,"stimulus":"img/900/equaldotanddens/L/8_Ratio_900_L_20_R_18.png","xmouse":[798,798,798,798,798,798,798,798,798,798,798,798,798,798,798,798,798,798,798,798,798,798,798,798,798,798,798,798,798,798,798,798,798,798,798,798,798,798,798,798,798,798,798,798,798,801,803,803,791,751,743,741,741,731,728,724,711,693,676,640,615,583,569,566,560,560,560,560,546,535,522],"ymouse":[510,510,510,510,510,510,510,510,510,510,510,510,510,510,510,510,510,510,510,510,510,510,510,510,510,510,510,510,510,510,510,510,510,510,510,510,510,510,510,510,510,510,510,504,495,472,434,377,298,181,159,155,152,131,124,119,105,90,79,62,55,47,46,43,43,43,43,43,38,34,30],"timestamp_mouse":[8,39,48,68,88,108,128,149,168,188,209,229,248,269,288,308,328,348,368,387,408,428,448,469,488,508,528,548,568,588,608,629,648,668,689,708,729,749,768,789,808,829,848,869,889,908,929,948,968,988,1009,1028,1048,1069,1087,1108,1128,1148,1168,1188,1208,1228,1249,1268,1288,1308,1328,1348,1369,1388,1408],"xSR":741.5,"ySR":481,"xT1":424.9,"yT1":0,"xT2":1058.1,"yT2":0,"toosoon":0,"cond_shown":"equaldotanddens","ratio_trial":900,"smaller_num":"18","larger_num":"20","correct_side":1,"subjID":"karoldanielatrianaalvarez4","gender":"1","age":"11","school":""},{"start_time":1551794842941,"click_time":1551794843872,"finger_time":1551794843512,"fix_duration":628.5480496692645,"trial":21,"RT":571,"MT":360,"sideResp":2,"stimulus":"img/500/equaldotanddens/R/9_Ratio_500_L_2_R_4.png","xmouse":[783,779,779,779,778,778,778,778,778,778,778,778,778,778,778,778,778,778,778,778,778,778,778,778,778,779,783,789,809,833,863,908,923,938,947,957,1004,1033,1048,1055,1058,1058,1058,1058,1058,1058,1060],"ymouse":[506,511,511,511,512,513,513,513,513,513,513,513,513,513,513,513,513,513,513,513,513,513,513,513,513,511,501,485,451,411,362,298,280,262,254,240,188,159,129,113,104,99,98,95,90,70,53],"timestamp_mouse":[11,43,51,71,92,112,131,152,171,191,212,231,251,272,292,311,332,351,371,392,412,432,451,472,492,512,531,551,571,591,611,631,652,671,691,711,731,751,771,791,811,830,851,871,891,912,931],"xSR":741.5,"ySR":481,"xT1":424.9,"yT1":0,"xT2":1058.1,"yT2":0,"toosoon":0,"cond_shown":"equaldotanddens","ratio_trial":500,"smaller_num":"2","larger_num":"4","correct_side":2,"subjID":"karoldanielatrianaalvarez4","gender":"1","age":"11","school":""},{"start_time":1551794846387,"click_time":1551794847393,"finger_time":1551794846972,"fix_duration":1492.571808449056,"trial":22,"RT":585,"MT":421,"sideResp":2,"stimulus":"img/500/equaldotsize/R/15_Ratio_500_L_1_R_2.png","xmouse":[772,772,772,772,772,772,772,772,772,772,772,772,772,772,772,772,772,772,772,772,772,772,772,772,772,772,773,776,780,798,818,833,855,885,900,919,942,957,973,992,1008,1020,1026,1030,1030,1030,1030,1030,1030,1055,1074],"ymouse":[513,513,513,513,513,513,513,513,513,513,513,513,513,513,513,513,513,513,513,513,513,513,513,513,513,513,510,502,494,461,425,398,370,331,314,290,266,251,236,219,202,193,187,183,174,169,161,157,146,111,95],"timestamp_mouse":[8,24,45,66,85,105,126,146,166,185,205,226,244,266,285,305,325,345,365,386,406,425,445,465,485,505,525,546,565,585,605,625,645,666,685,705,725,746,765,785,805,825,846,865,885,905,925,945,965,985,1006],"xSR":741.5,"ySR":481,"xT1":424.9,"yT1":0,"xT2":1058.1,"yT2":0,"toosoon":0,"cond_shown":"equaldotsize","ratio_trial":500,"smaller_num":"1","larger_num":"2","correct_side":2,"subjID":"karoldanielatrianaalvarez4","gender":"1","age":"11","school":""},{"start_time":1551794849263,"click_time":1551794850573,"finger_time":1551794850172,"fix_duration":688.164689030987,"trial":23,"RT":909,"MT":401,"sideResp":1,"stimulus":"img/900/equaldotanddens/L/10_Ratio_900_L_20_R_18.png","xmouse":[777,777,777,777,777,777,777,777,777,777,777,777,777,777,777,777,777,777,777,777,777,777,777,777,777,777,777,777,777,777,777,777,777,777,777,777,777,777,777,777,777,777,777,774,764,687,606,501,400,400,400,400,400,400,400,400,400,400,400,400,400,400,400,400,400,508],"ymouse":[516,516,516,516,516,516,516,516,516,516,516,516,516,516,516,516,516,516,516,516,516,516,516,516,516,516,516,516,516,516,516,516,516,516,516,516,516,516,516,516,516,516,514,512,498,378,261,130,7,7,7,7,7,7,7,7,7,7,7,7,7,7,7,7,7,12],"timestamp_mouse":[16,38,50,70,90,109,130,149,169,190,209,230,250,270,290,309,329,350,370,389,409,429,449,469,489,509,529,549,569,589,609,629,649,669,689,709,729,750,769,790,809,829,849,870,889,909,930,949,970,990,1010,1030,1049,1069,1090,1109,1130,1150,1169,1189,1209,1228,1249,1269,1289,1310],"xSR":741.5,"ySR":481,"xT1":424.9,"yT1":0,"xT2":1058.1,"yT2":0,"toosoon":0,"cond_shown":"equaldotanddens","ratio_trial":900,"smaller_num":"18","larger_num":"20","correct_side":1,"subjID":"karoldanielatrianaalvarez4","gender":"1","age":"11","school":""},{"start_time":1551794854844,"click_time":1551794856052,"finger_time":1551794855672,"fix_duration":250,"trial":24,"RT":828,"MT":380,"sideResp":1,"stimulus":"img/900/randomdotsizeEA/L/2_Ratio_900_L_20_R_18.png","xmouse":[795,795,795,795,795,795,795,795,795,795,795,795,795,795,795,795,795,795,795,795,795,795,795,795,795,795,795,795,795,795,795,795,795,795,795,795,795,795,795,795,791,766,725,711,674,639,602,592,590,582,575,561,554,547,544,542,541,537,533,526,518],"ymouse":[528,528,528,528,528,528,528,528,528,528,528,528,528,528,528,528,528,528,528,528,528,528,528,528,528,528,528,528,528,528,528,528,528,528,528,528,528,528,528,528,515,451,381,360,318,282,246,235,231,214,198,161,148,133,129,124,115,99,85,71,59],"timestamp_mouse":[8,44,49,69,88,109,129,148,169,189,209,228,248,268,288,308,328,348,369,388,408,429,448,468,489,508,529,548,569,587,608,629,648,668,689,708,728,748,768,787,808,828,849,867,889,908,929,948,968,988,1008,1028,1048,1068,1088,1107,1128,1148,1168,1188,1208],"xSR":741.5,"ySR":481,"xT1":424.9,"yT1":0,"xT2":1058.1,"yT2":0,"toosoon":0,"cond_shown":"randomdotsizeEA","ratio_trial":900,"smaller_num":"18","larger_num":"20","correct_side":1,"subjID":"karoldanielatrianaalvarez4","gender":"1","age":"11","school":""},{"start_time":1551794859780,"click_time":1551794861532,"finger_time":1551794860492,"fix_duration":466.1490047891462,"trial":25,"RT":712,"MT":1040,"sideResp":1,"stimulus":"img/500/randomdotsizeEA/R/3_Ratio_500_L_10_R_20.png","xmouse":[769,769,769,769,769,769,769,769,769,769,769,769,769,769,769,769,769,769,769,769,769,769,767,763,756,753,749,748,747,746,746,746,746,746,743,733,725,697,674,632,614,599,587,571,547,536,523,514,511,511,511,514,535,595,792,861,910,920,920,920,920,920,920,920,920,920,920,922,926,970,991,1010,1023,1027,1031,1032,1032,1032,1032,1032,1023,1005,966,922,781,672,533,460],"ymouse":[514,514,513,512,509,507,507,507,507,507,507,507,507,507,507,507,507,507,507,507,507,505,502,500,500,500,500,501,503,503,503,503,503,503,503,490,481,450,423,386,369,354,342,323,282,260,227,206,194,192,191,186,164,135,82,70,64,63,63,63,63,63,63,63,63,63,63,62,62,52,52,52,52,51,50,50,50,50,50,50,57,70,91,104,119,119,100,82],"timestamp_mouse":[13,38,52,73,92,112,133,153,172,192,212,233,252,272,293,312,332,352,372,393,412,432,452,472,492,512,532,552,572,593,612,632,653,672,692,712,732,753,772,792,812,832,852,872,892,912,932,952,972,993,1012,1032,1052,1072,1092,1112,1132,1152,1173,1192,1213,1232,1252,1273,1293,1312,1333,1352,1372,1393,1413,1432,1453,1473,1492,1512,1533,1552,1573,1592,1612,1632,1652,1672,1692,1713,1732,1752],"xSR":741.5,"ySR":481,"xT1":424.9,"yT1":0,"xT2":1058.1,"yT2":0,"toosoon":0,"cond_shown":"randomdotsizeEA","ratio_trial":500,"smaller_num":"10","larger_num":"20","correct_side":2,"subjID":"karoldanielatrianaalvarez4","gender":"1","age":"11","school":""},{"start_time":1551794864680,"click_time":1551794865612,"finger_time":1551794865092,"fix_duration":786.1395111178952,"trial":26,"RT":412,"MT":520,"sideResp":2,"stimulus":"img/750/randomdotsizeEA/R/7_Ratio_750_L_3_R_4.png","xmouse":[812,812,812,812,812,812,812,812,812,812,812,812,812,812,806,803,801,791,775,746,734,727,726,726,726,726,726,726,726,728,730,730,730,733,739,743,745,745,746,761,788,871,931,989,1071,1090,1103],"ymouse":[522,522,522,522,522,522,522,522,522,522,522,522,522,521,513,510,508,504,499,484,478,473,473,473,473,473,472,471,465,460,459,458,455,449,428,421,417,417,416,399,378,316,260,206,130,109,96],"timestamp_mouse":[13,42,52,72,92,112,132,152,172,192,213,233,252,272,293,311,332,352,373,392,412,432,452,472,492,513,532,552,573,592,612,633,653,673,693,712,733,752,773,792,811,832,853,872,892,912,932],"xSR":741.5,"ySR":481,"xT1":424.9,"yT1":0,"xT2":1058.1,"yT2":0,"toosoon":0,"cond_shown":"randomdotsizeEA","ratio_trial":750,"smaller_num":"3","larger_num":"4","correct_side":2,"subjID":"karoldanielatrianaalvarez4","gender":"1","age":"11","school":""},{"start_time":1551794869931,"click_time":1551794873232,"finger_time":1551794872612,"fix_duration":296.829160569524,"trial":27,"RT":2681,"MT":620,"sideResp":1,"stimulus":"img/250/equaldotanddens/L/3_Ratio_250_L_8_R_2.png","xmouse":[816,816,816,816,816,816,816,816,816,816,816,816,816,816,816,816,816,816,816,816,816,816,815,815,815,815,815,815,815,815,815,815,815,815,815,814,814,814,814,814,814,814,814,814,814,814,814,814,814,814,814,815,815,815,815,815,815,815,815,815,815,815,815,815,815,815,815,815,815,815,815,815,815,815,815,815,815,815,815,815,815,815,815,815,815,815,815,815,815,815,815,815,815,815,815,815,815,815,815,815,815,815,815,816,816,816,816,816,816,816,816,816,816,816,816,816,816,816,816,816,816,816,816,816,816,816,816,816,816,816,815,814,807,805,801,797,794,793,793,793,793,793,793,793,793,793,793,793,793,793,793,792,786,776,759,730,710,651,632,624,623,623,613,596,570,502],"ymouse":[530,530,530,530,530,530,530,530,530,530,530,530,530,530,530,530,530,530,530,530,530,530,530,530,530,530,530,530,530,530,530,530,530,530,530,530,530,530,530,530,529,529,528,528,527,527,527,527,526,526,523,522,521,521,521,521,521,521,521,521,521,521,521,521,521,521,521,521,521,521,521,521,521,521,521,521,521,521,521,521,520,520,520,518,518,517,517,516,516,515,512,512,512,512,512,512,512,512,512,512,512,512,510,507,507,507,507,507,507,507,507,507,507,507,507,507,507,507,507,507,507,507,507,507,507,507,507,507,506,505,502,497,486,481,476,467,462,462,462,462,462,462,462,462,462,462,462,462,462,462,462,459,447,435,419,399,383,342,325,316,314,314,293,256,192,45],"timestamp_mouse":[11,22,42,61,81,101,121,141,161,181,202,221,241,261,281,301,322,342,361,382,402,423,441,461,482,501,521,542,561,581,601,621,642,662,681,701,721,741,761,781,801,821,842,862,881,902,921,941,961,981,1003,1021,1041,1061,1081,1101,1122,1141,1161,1181,1201,1221,1241,1261,1281,1302,1321,1342,1362,1381,1401,1422,1441,1461,1481,1501,1521,1542,1561,1581,1602,1622,1642,1661,1682,1702,1722,1741,1761,1781,1802,1821,1841,1862,1881,1901,1922,1941,1961,1981,2001,2021,2041,2061,2081,2101,2121,2141,2161,2181,2202,2221,2241,2261,2281,2302,2321,2341,2362,2381,2401,2421,2441,2462,2481,2501,2521,2541,2561,2581,2601,2621,2642,2661,2681,2701,2722,2741,2761,2781,2801,2822,2841,2861,2881,2901,2922,2942,2961,2981,3001,3021,3042,3061,3082,3101,3121,3142,3162,3182,3202,3221,3241,3261,3281,3301],"xSR":741.5,"ySR":481,"xT1":424.9,"yT1":0,"xT2":1058.1,"yT2":0,"toosoon":0,"cond_shown":"equaldotanddens","ratio_trial":250,"smaller_num":"2","larger_num":"8","correct_side":1,"subjID":"karoldanielatrianaalvarez4","gender":"1","age":"11","school":""},{"start_time":1551794875024,"click_time":1551794876152,"finger_time":1551794875452,"fix_duration":550.9698837110616,"trial":28,"RT":428,"MT":700,"sideResp":1,"stimulus":"img/900/equaldotsize/R/11_Ratio_900_L_18_R_20.png","xmouse":[764,764,764,764,764,764,764,764,764,764,764,764,764,764,764,764,764,764,764,764,764,760,749,744,731,726,721,707,698,685,675,670,663,663,663,663,663,658,653,647,642,628,606,601,601,601,601,601,601,601,601,601,601,595,562,525,495],"ymouse":[513,513,513,513,513,513,513,513,513,513,513,512,512,511,510,510,508,500,495,494,486,472,454,443,414,396,377,304,266,227,197,179,157,154,151,151,150,132,121,113,108,100,95,93,93,93,93,93,93,93,93,93,93,93,87,78,68],"timestamp_mouse":[8,46,48,68,88,108,128,149,168,188,208,229,248,268,288,308,328,348,369,388,408,428,448,468,488,508,529,549,568,588,608,628,648,668,689,709,728,749,768,788,808,829,848,868,888,909,928,948,968,989,1008,1028,1048,1068,1089,1108,1128],"xSR":741.5,"ySR":481,"xT1":424.9,"yT1":0,"xT2":1058.1,"yT2":0,"toosoon":0,"cond_shown":"equaldotsize","ratio_trial":900,"smaller_num":"18","larger_num":"20","correct_side":2,"subjID":"karoldanielatrianaalvarez4","gender":"1","age":"11","school":""},{"start_time":1551794880016,"click_time":1551794881272,"finger_time":1551794880573,"fix_duration":682.9000107004592,"trial":29,"RT":557,"MT":699,"sideResp":1,"stimulus":"img/900/randomdotsizeEA/R/7_Ratio_900_L_9_R_10.png","xmouse":[763,763,763,763,763,763,763,763,763,763,763,763,763,763,763,763,763,763,763,763,763,763,764,766,768,772,772,776,780,784,790,791,795,795,795,795,795,795,794,794,793,789,765,747,731,721,718,686,665,637,594,551,490,468,441,430,421,418,418,418,418,418,426],"ymouse":[517,517,517,517,517,517,517,517,517,517,517,517,517,517,517,517,517,517,517,517,516,516,512,508,500,490,486,474,460,445,427,424,404,395,392,385,378,365,360,355,350,342,310,291,275,261,255,232,220,207,189,170,143,134,121,114,109,108,108,107,104,101,93],"timestamp_mouse":[16,36,56,77,97,116,137,157,176,196,217,236,257,276,296,317,337,357,376,397,417,436,456,476,496,517,536,557,576,596,616,636,656,676,697,716,736,756,776,796,816,837,856,876,897,917,936,956,976,996,1016,1036,1056,1077,1096,1116,1138,1156,1176,1197,1216,1237,1256],"xSR":741.5,"ySR":481,"xT1":424.9,"yT1":0,"xT2":1058.1,"yT2":0,"toosoon":0,"cond_shown":"randomdotsizeEA","ratio_trial":900,"smaller_num":"9","larger_num":"10","correct_side":2,"subjID":"karoldanielatrianaalvarez4","gender":"1","age":"11","school":""},{"start_time":1551794886245,"click_time":1551794887232,"finger_time":1551794886712,"fix_duration":371.06597938973187,"trial":30,"RT":467,"MT":520,"sideResp":2,"stimulus":"img/900/randomdotsizeEA/R/5_Ratio_900_L_9_R_10.png","xmouse":[811,811,811,811,811,811,811,811,811,811,811,811,811,811,811,811,811,815,820,821,825,833,840,852,863,883,921,927,936,944,949,966,976,992,1008,1015,1026,1030,1041,1045,1047,1050,1053,1060,1061,1064,1073,1074,1077,1081],"ymouse":[533,533,533,533,533,533,533,533,533,533,533,533,533,533,533,533,532,524,516,513,508,497,491,476,468,454,420,406,389,371,363,342,324,300,280,263,233,224,214,211,206,196,190,180,171,161,132,118,103,93],"timestamp_mouse":[8,42,47,67,87,107,127,147,167,187,207,228,247,267,288,307,328,348,367,387,407,427,447,467,487,507,527,548,567,587,608,627,647,667,687,707,727,748,767,787,807,827,847,866,888,907,927,948,968,987],"xSR":741.5,"ySR":481,"xT1":424.9,"yT1":0,"xT2":1058.1,"yT2":0,"toosoon":0,"cond_shown":"randomdotsizeEA","ratio_trial":900,"smaller_num":"9","larger_num":"10","correct_side":2,"subjID":"karoldanielatrianaalvarez4","gender":"1","age":"11","school":""},{"start_time":1551794895130,"click_time":1551794896853,"finger_time":1551794895972,"fix_duration":1035.876048626157,"trial":31,"RT":842,"MT":881,"sideResp":1,"stimulus":"img/900/equaldotsize/R/13_Ratio_900_L_18_R_20.png","xmouse":[796,796,796,796,796,796,795,791,789,788,787,787,786,786,786,786,786,786,786,786,786,787,787,787,787,787,787,787,787,787,787,787,787,788,788,788,788,788,788,788,789,792,796,797,797,797,797,797,797,795,792,791,785,784,779,771,764,753,753,749,746,738,734,727,721,711,699,685,669,656,651,644,625,612,594,574,555,542,537,529,517,509,494,483,473,464,459],"ymouse":[488,488,488,488,488,488,489,492,494,496,499,499,501,501,502,504,504,504,504,504,505,505,505,505,505,505,505,505,505,505,505,505,505,504,504,503,503,503,502,501,495,488,477,474,472,470,464,460,455,447,440,431,408,399,379,356,339,305,302,294,290,271,265,251,240,229,215,201,192,183,179,173,157,150,140,133,130,126,125,123,122,121,117,112,107,102,99],"timestamp_mouse":[8,23,42,62,82,102,122,142,163,182,202,222,242,262,282,302,322,342,364,382,402,423,442,462,483,503,522,542,562,582,602,623,643,662,683,702,722,742,763,782,802,823,842,862,882,902,923,942,963,982,1003,1022,1042,1062,1083,1102,1123,1142,1162,1182,1202,1223,1243,1262,1282,1302,1322,1342,1362,1382,1403,1423,1443,1462,1483,1502,1522,1543,1562,1583,1602,1623,1643,1663,1682,1703,1723],"xSR":741.5,"ySR":481,"xT1":424.9,"yT1":0,"xT2":1058.1,"yT2":0,"toosoon":0,"cond_shown":"equaldotsize","ratio_trial":900,"smaller_num":"18","larger_num":"20","correct_side":2,"subjID":"karoldanielatrianaalvarez4","gender":"1","age":"11","school":""},{"start_time":1551794912555,"click_time":1551794913912,"finger_time":1551794913453,"fix_duration":1261.3662261503466,"trial":32,"RT":898,"MT":459,"sideResp":2,"stimulus":"img/750/equaldotanddens/R/3_Ratio_750_L_15_R_20.png","xmouse":[767,767,767,767,767,767,767,767,767,767,767,767,767,767,767,767,767,767,767,767,767,767,767,767,767,767,767,767,767,767,767,767,767,767,767,767,767,767,767,767,767,774,786,837,894,953,988,1014,1056,1096,1152,1183,1209,1233,1263,1272,1275,1290,1295,1304,1305,1304,1304,1304,1298,1247,1186,1101],"ymouse":[538,538,538,538,538,538,538,538,538,538,538,538,538,538,538,538,538,538,538,538,538,538,538,538,538,538,538,538,538,538,538,538,538,538,538,538,538,538,538,538,538,535,527,502,477,438,413,396,361,337,300,277,256,235,203,189,182,161,147,134,115,112,112,112,111,100,87,70],"timestamp_mouse":[17,42,58,77,97,117,138,157,177,197,218,237,257,277,297,317,337,357,377,398,417,437,457,478,498,517,537,558,577,597,617,638,657,678,698,718,737,758,777,798,817,837,858,877,898,917,938,957,977,997,1017,1038,1057,1077,1098,1117,1137,1157,1177,1197,1217,1237,1258,1277,1297,1317,1338,1357],"xSR":741.5,"ySR":481,"xT1":424.9,"yT1":0,"xT2":1058.1,"yT2":0,"toosoon":0,"cond_shown":"equaldotanddens","ratio_trial":750,"smaller_num":"15","larger_num":"20","correct_side":2,"subjID":"karoldanielatrianaalvarez4","gender":"1","age":"11","school":""},{"start_time":1551794916130,"click_time":1551794917172,"finger_time":1551794916652,"fix_duration":715.7559929733484,"trial":33,"RT":522,"MT":520,"sideResp":1,"stimulus":"img/500/randomdotsizeEA/L/8_Ratio_500_L_8_R_4.png","xmouse":[772,772,772,772,772,772,772,772,772,772,772,772,772,772,772,772,772,772,772,772,773,774,774,774,776,776,778,781,782,782,787,791,810,820,828,838,847,872,886,930,996,1047,1112,1139,1160,1165,1165,1155,1053,953,802,649,426],"ymouse":[491,491,491,491,491,491,491,491,491,491,491,491,491,491,491,491,491,491,491,491,490,489,487,485,484,482,479,474,473,472,465,454,432,421,410,400,388,365,354,322,276,241,184,157,142,137,134,130,114,90,67,37,1],"timestamp_mouse":[8,22,42,62,82,102,122,142,162,182,203,222,242,262,283,302,323,343,362,382,402,423,443,463,482,502,522,542,562,582,602,622,642,663,682,702,722,742,762,782,802,822,842,863,882,902,923,942,962,983,1003,1023,1042],"xSR":741.5,"ySR":481,"xT1":424.9,"yT1":0,"xT2":1058.1,"yT2":0,"toosoon":0,"cond_shown":"randomdotsizeEA","ratio_trial":500,"smaller_num":"4","larger_num":"8","correct_side":1,"subjID":"karoldanielatrianaalvarez4","gender":"1","age":"11","school":""},{"start_time":1551794923550,"click_time":1551794924733,"finger_time":1551794923832,"fix_duration":337.86874692789416,"trial":34,"RT":282,"MT":901,"sideResp":2,"stimulus":"img/900/equaldotsize/R/6_Ratio_900_L_9_R_10.png","xmouse":[783,783,783,783,783,783,783,783,783,783,783,783,781,779,775,770,762,757,744,730,719,705,701,699,699,699,699,697,695,690,679,660,655,649,643,641,641,641,647,678,746,989,1060,1089,1109,1124,1130,1132,1135,1141,1143,1144,1144,1144,1144,1144,1143,1142,1135,1128],"ymouse":[486,486,486,486,486,486,486,486,486,486,486,484,482,482,479,476,470,467,453,441,431,416,412,410,409,409,409,407,400,383,362,325,315,307,301,293,292,290,282,266,243,198,195,195,196,196,196,193,185,173,165,158,154,150,144,139,124,116,102,92],"timestamp_mouse":[9,36,43,63,82,102,123,142,162,182,202,222,242,263,282,301,322,342,362,382,402,423,442,463,482,503,523,542,562,582,602,622,643,662,682,703,722,743,763,783,802,822,843,862,883,903,922,943,962,982,1002,1022,1042,1063,1082,1103,1122,1142,1163,1183],"xSR":741.5,"ySR":481,"xT1":424.9,"yT1":0,"xT2":1058.1,"yT2":0,"toosoon":0,"cond_shown":"equaldotsize","ratio_trial":900,"smaller_num":"9","larger_num":"10","correct_side":2,"subjID":"karoldanielatrianaalvarez4","gender":"1","age":"11","school":""},{"start_time":1551794941884,"click_time":1551794950132,"finger_time":1551794942552,"fix_duration":250,"trial":35,"RT":668,"MT":7580,"sideResp":2,"stimulus":"img/750/randomdotsizeEA/L/14_Ratio_750_L_8_R_6.png","xmouse":[819,819,819,819,818,818,817,817,817,817,817,817,817,817,817,817,817,817,817,817,817,817,817,817,817,817,817,817,817,817,817,816,815,813,806,801,799,799,799,799,798,798,798,798,798,798,798,798,798,798,798,798,798,798,798,798,798,798,798,798,798,798,798,798,798,798,798,798,798,798,798,798,798,798,798,798,798,798,798,798,798,798,798,798,798,798,798,798,798,798,798,798,798,798,798,798,798,798,798,798,798,798,798,798,798,798,798,798,798,798,798,798,798,798,798,798,798,798,798,798,798,798,798,798,798,798,798,798,798,798,798,798,798,798,798,798,798,798,798,798,798,798,798,798,798,798,798,798,798,798,798,798,798,798,798,798,798,798,798,798,798,798,798,798,798,798,798,798,798,798,798,798,798,798,798,798,798,798,798,798,798,798,798,798,798,798,798,798,798,798,798,798,798,798,798,798,798,798,798,798,798,798,798,798,798,798,798,798,798,798,798,798,798,798,798,798,798,798,798,798,798,798,798,798,798,798,798,798,798,798,798,798,798,798,798,798,798,798,798,798,798,798,798,798,798,798,798,798,798,795,794,788,779,766,738,720,702,692,691,691,691,691,691,691,690,691,701,711,725,747,753,759,762,768,786,798,809,822,826,828,828,828,828,828,828,828,828,828,828,828,828,828,828,828,828,828,828,828,828,828,828,828,828,828,828,828,828,828,828,828,828,828,828,828,828,828,828,828,828,828,828,828,828,828,828,828,828,828,828,828,828,828,828,828,828,828,828,828,828,828,828,828,828,828,828,825,809,778,750,727,717,714,714,713,713,712,714,723,729,733,733,733,733,733,733,733,733,733,734,749,756,771,800,822,881,944,1008,1052,1100,1203,1252,1260,1260,1260,1260,1260,1260,1260,1260,1260,1260,1260,1260,1260,1260,1260,1260,1260,1260,1260,1260,1260,1260,1260,1260,1260,1260,1260,1260,1260,1260,1159,1154],"ymouse":[568,570,571,572,574,575,576,576,577,577,577,577,577,577,577,577,577,577,577,577,577,577,577,577,577,577,577,577,577,577,577,578,580,583,590,594,595,595,595,596,596,597,597,597,597,597,597,597,597,597,597,597,597,597,597,597,597,597,597,597,597,597,597,597,597,597,597,597,597,597,597,597,597,597,597,597,597,597,597,597,597,597,597,597,597,597,597,597,597,597,597,597,597,597,597,597,597,597,597,597,597,597,597,597,597,597,597,597,597,597,597,597,597,597,597,597,597,597,597,597,597,597,597,597,597,597,597,597,597,597,597,597,597,597,597,597,597,597,597,597,597,597,597,597,597,597,597,597,597,597,597,597,597,597,597,597,597,597,597,597,597,597,597,597,597,597,597,597,597,597,597,597,597,597,597,597,597,597,597,597,597,597,597,597,597,597,597,597,597,597,597,597,597,597,597,597,597,597,597,597,597,597,597,597,597,597,597,597,597,597,597,597,597,597,597,597,597,597,597,597,597,597,597,597,597,597,597,597,597,597,597,597,597,597,597,597,597,597,597,597,597,597,597,597,597,597,597,597,597,597,596,592,588,581,566,559,553,550,549,549,549,549,549,549,549,545,540,537,535,535,535,535,535,535,535,535,537,539,539,540,540,540,540,540,540,540,540,540,540,540,540,540,540,540,540,540,540,540,540,540,540,540,540,540,540,540,540,540,540,540,540,540,540,540,540,540,540,540,540,540,540,540,540,540,540,540,540,540,540,540,540,540,540,540,540,540,540,540,540,540,540,540,540,540,540,540,536,528,519,509,504,502,502,501,501,500,497,496,496,501,503,515,521,525,525,525,525,525,523,515,511,504,491,482,445,402,351,307,255,125,32,15,15,15,15,15,15,15,15,15,15,15,15,15,15,15,15,15,15,15,15,15,15,15,15,15,15,15,15,15,15,7,10],"timestamp_mouse":[10,29,49,69,88,108,128,148,169,188,208,229,249,268,289,309,328,348,369,389,408,428,449,468,489,509,528,549,568,588,609,628,649,668,688,708,728,748,769,788,808,828,848,868,888,909,929,949,968,988,1008,1029,1048,1068,1089,1109,1128,1148,1168,1188,1208,1228,1248,1268,1288,1308,1329,1349,1368,1388,1408,1428,1449,1469,1489,1508,1528,1548,1569,1589,1608,1628,1648,1667,1689,1708,1728,1748,1768,1789,1808,1829,1848,1869,1888,1909,1929,1948,1969,1989,2009,2029,2048,2069,2088,2108,2128,2148,2169,2188,2208,2228,2248,2269,2288,2309,2329,2349,2369,2388,2409,2428,2449,2468,2489,2508,2528,2549,2568,2589,2609,2628,2648,2668,2689,2709,2728,2748,2768,2788,2809,2828,2848,2869,2889,2909,2929,2948,2969,2989,3008,3029,3048,3068,3088,3108,3128,3148,3168,3188,3208,3228,3248,3269,3288,3308,3328,3348,3368,3388,3409,3428,3448,3468,3488,3509,3528,3548,3568,3589,3608,3629,3649,3668,3688,3708,3728,3749,3768,3788,3809,3828,3848,3869,3888,3909,3928,3949,3969,3988,4008,4028,4049,4069,4089,4109,4128,4149,4169,4188,4208,4228,4248,4268,4288,4308,4329,4348,4368,4388,4408,4428,4448,4468,4488,4508,4528,4548,4569,4588,4609,4628,4648,4668,4688,4709,4728,4749,4768,4788,4808,4827,4847,4869,4887,4908,4928,4948,4969,4988,5008,5028,5047,5068,5088,5108,5128,5148,5168,5188,5209,5229,5249,5269,5289,5308,5328,5348,5369,5388,5409,5428,5448,5469,5488,5508,5528,5548,5569,5588,5609,5628,5649,5668,5688,5708,5729,5748,5769,5788,5808,5828,5849,5868,5889,5908,5928,5948,5968,5989,6009,6028,6048,6068,6088,6109,6128,6149,6168,6189,6208,6228,6248,6268,6288,6308,6328,6348,6368,6389,6409,6428,6449,6469,6489,6508,6528,6548,6568,6589,6608,6628,6648,6668,6688,6708,6728,6748,6768,6788,6809,6828,6848,6869,6889,6908,6928,6948,6968,6988,7008,7028,7048,7069,7088,7108,7128,7148,7168,7188,7208,7228,7248,7268,7288,7308,7329,7349,7368,7388,7409,7428,7448,7468,7488,7508,7528,7548,7568,7588,7608,7629,7648,7668,7688,7708,7728,7749,7768,7788,7809,7828,7849,7868,7888,7908,7928,7948,7968,7988,8009,8028,8048,8069,8088,8113,8128,8149,8168,8189,8209,8228,8248],"xSR":741.5,"ySR":481,"xT1":424.9,"yT1":0,"xT2":1058.1,"yT2":0,"toosoon":0,"cond_shown":"randomdotsizeEA","ratio_trial":750,"smaller_num":"6","larger_num":"8","correct_side":1,"subjID":"karoldanielatrianaalvarez4","gender":"1","age":"11","school":""},{"start_time":1551794951966,"click_time":1551794952792,"finger_time":1551794952272,"fix_duration":412.2518359331334,"trial":36,"RT":306,"MT":520,"sideResp":1,"stimulus":"img/900/equaldotanddens/L/10_Ratio_900_L_20_R_18.png","xmouse":[807,809,809,809,809,814,814,818,818,820,820,820,820,820,819,813,803,787,785,779,750,731,713,697,687,666,660,653,647,643,635,627,615,602,590,577,575,573,571,559,530,517],"ymouse":[545,541,541,540,539,530,528,520,519,515,515,515,515,512,507,479,461,438,434,428,397,378,358,338,316,272,251,236,216,207,184,165,142,119,100,83,80,79,78,73,59,53],"timestamp_mouse":[13,39,46,66,87,106,126,147,167,187,206,227,246,266,286,306,326,346,366,386,406,426,446,466,487,505,526,546,566,586,606,627,647,666,686,706,726,746,767,786,806,826],"xSR":741.5,"ySR":481,"xT1":424.9,"yT1":0,"xT2":1058.1,"yT2":0,"toosoon":0,"cond_shown":"equaldotanddens","ratio_trial":900,"smaller_num":"18","larger_num":"20","correct_side":1,"subjID":"karoldanielatrianaalvarez4","gender":"1","age":"11","school":""},{"start_time":1551794955065,"click_time":1551794956172,"finger_time":1551794955533,"fix_duration":690.6284218531246,"trial":37,"RT":468,"MT":639,"sideResp":2,"stimulus":"img/250/equaldotanddens/R/11_Ratio_250_L_3_R_12.png","xmouse":[810,810,810,810,810,813,814,815,815,815,815,815,815,815,815,816,817,817,818,818,818,818,820,822,829,850,859,862,872,882,894,897,903,906,911,932,944,955,967,981,1019,1040,1077,1101,1121,1170,1189,1206,1213,1216,1220,1219,1218,1211,1190,1147],"ymouse":[521,521,521,521,520,511,507,505,505,505,505,505,505,505,504,499,497,494,492,491,488,487,484,476,459,427,409,398,385,369,345,335,324,317,305,277,256,234,215,196,170,163,150,140,130,98,83,68,52,47,30,27,27,30,36,52],"timestamp_mouse":[8,36,47,68,88,107,127,148,167,187,208,227,247,267,287,307,327,347,368,387,408,428,447,468,487,507,527,547,567,588,607,627,647,667,687,707,727,748,767,788,807,827,847,868,887,907,928,947,967,988,1008,1027,1048,1067,1087,1107],"xSR":741.5,"ySR":481,"xT1":424.9,"yT1":0,"xT2":1058.1,"yT2":0,"toosoon":0,"cond_shown":"equaldotanddens","ratio_trial":250,"smaller_num":"3","larger_num":"12","correct_side":2,"subjID":"karoldanielatrianaalvarez4","gender":"1","age":"11","school":""},{"start_time":1551794961544,"click_time":1551794963112,"finger_time":1551794962592,"fix_duration":250,"trial":38,"RT":1048,"MT":520,"sideResp":2,"stimulus":"img/250/equaldotanddens/R/6_Ratio_250_L_6_R_24.png","xmouse":[803,803,803,803,803,803,803,803,803,803,803,803,803,803,803,803,803,803,803,803,803,803,803,803,803,803,803,803,803,803,803,803,803,803,803,803,803,803,803,803,803,803,803,803,803,803,803,803,803,804,812,841,855,866,880,900,939,955,980,986,1000,1022,1030,1043,1058,1072,1093,1095,1102,1106,1108,1109,1109,1110,1110,1111,1112,1112,1112],"ymouse":[500,500,500,500,500,500,500,500,500,500,500,500,500,500,500,500,500,500,500,500,500,500,500,500,500,500,500,500,500,500,500,500,500,500,500,500,500,500,500,500,500,500,500,500,500,500,500,500,500,501,498,481,473,465,454,437,388,364,328,319,294,263,253,232,210,183,152,148,134,129,127,123,121,119,117,114,109,103,95],"timestamp_mouse":[11,29,50,68,88,108,128,148,168,188,208,229,249,268,288,308,328,348,368,388,408,429,448,469,489,508,528,548,568,588,608,628,648,668,689,708,728,748,768,789,808,828,848,868,888,908,928,949,968,989,1008,1028,1048,1068,1088,1109,1128,1148,1168,1188,1208,1228,1248,1268,1288,1308,1328,1349,1368,1388,1408,1428,1448,1468,1488,1508,1528,1549,1568],"xSR":741.5,"ySR":481,"xT1":424.9,"yT1":0,"xT2":1058.1,"yT2":0,"toosoon":0,"cond_shown":"equaldotanddens","ratio_trial":250,"smaller_num":"6","larger_num":"24","correct_side":2,"subjID":"karoldanielatrianaalvarez4","gender":"1","age":"11","school":""},{"start_time":1551794965197,"click_time":1551794965992,"finger_time":1551794965892,"fix_duration":324.25714290560927,"trial":39,"RT":695,"MT":100,"sideResp":1,"stimulus":"img/900/equaldotsize/R/13_Ratio_900_L_18_R_20.png","xmouse":[808,808,808,808,808,808,808,808,808,808,808,808,808,808,808,808,808,808,808,808,808,808,808,808,808,808,808,809,809,808,807,807,807,805,803,777,729,647,477,432],"ymouse":[508,508,508,508,508,508,508,508,508,508,508,508,508,508,508,508,508,508,508,508,508,508,508,508,508,508,508,508,505,501,500,500,500,486,477,421,343,263,128,94],"timestamp_mouse":[16,38,55,75,95,115,135,155,175,195,216,235,255,275,295,315,335,356,375,395,415,436,456,476,495,516,535,555,576,596,616,635,655,675,695,714,735,755,775,795],"xSR":741.5,"ySR":481,"xT1":424.9,"yT1":0,"xT2":1058.1,"yT2":0,"toosoon":0,"cond_shown":"equaldotsize","ratio_trial":900,"smaller_num":"18","larger_num":"20","correct_side":2,"subjID":"karoldanielatrianaalvarez4","gender":"1","age":"11","school":""},{"start_time":1551794972122,"click_time":1551794973072,"finger_time":1551794972412,"fix_duration":348.680261983111,"trial":40,"RT":290,"MT":660,"sideResp":1,"stimulus":"img/750/equaldotanddens/L/8_Ratio_750_L_4_R_3.png","xmouse":[785,785,785,785,785,785,785,785,785,785,785,785,786,787,791,794,794,807,828,853,865,865,865,865,865,865,865,865,865,865,865,865,865,865,865,865,865,865,865,865,865,865,865,865,865,865,584,505],"ymouse":[503,503,503,503,503,503,503,503,503,503,503,503,501,493,464,408,343,219,115,53,25,25,25,25,25,25,25,25,25,25,25,25,25,25,25,25,25,25,25,25,25,25,25,25,25,25,5,27],"timestamp_mouse":[10,30,50,71,91,110,130,150,170,191,210,230,251,270,290,310,330,350,370,390,411,431,450,470,490,511,531,550,570,590,611,631,651,670,691,711,731,750,771,790,810,830,851,870,891,910,930,950],"xSR":741.5,"ySR":481,"xT1":424.9,"yT1":0,"xT2":1058.1,"yT2":0,"toosoon":0,"cond_shown":"equaldotanddens","ratio_trial":750,"smaller_num":"3","larger_num":"4","correct_side":1,"subjID":"karoldanielatrianaalvarez4","gender":"1","age":"11","school":""},{"start_time":1551794981085,"click_time":1551794982073,"finger_time":1551794981512,"fix_duration":1252.1271300134404,"trial":41,"RT":427,"MT":561,"sideResp":1,"stimulus":"img/250/equaldotanddens/L/7_Ratio_250_L_8_R_2.png","xmouse":[808,809,809,809,809,810,810,811,812,812,812,812,812,812,812,813,813,814,816,835,841,852,857,859,860,861,862,866,866,859,850,830,812,799,767,744,723,702,681,630,605,578,566,556,541,538,533,528,519,504],"ymouse":[537,536,536,536,536,535,535,535,534,534,534,534,534,534,534,533,532,531,527,498,489,469,459,452,447,443,430,414,399,371,350,323,303,288,251,233,218,206,196,170,163,150,145,141,135,133,130,122,101,57],"timestamp_mouse":[7,27,47,68,87,107,127,147,168,187,207,228,247,268,288,307,327,347,367,387,407,427,448,466,487,507,527,547,567,587,607,627,647,667,687,708,727,747,767,787,808,827,847,867,887,907,927,947,968,988],"xSR":741.5,"ySR":481,"xT1":424.9,"yT1":0,"xT2":1058.1,"yT2":0,"toosoon":0,"cond_shown":"equaldotanddens","ratio_trial":250,"smaller_num":"2","larger_num":"8","correct_side":1,"subjID":"karoldanielatrianaalvarez4","gender":"1","age":"11","school":""},{"start_time":1551794992308,"click_time":1551794993553,"finger_time":1551794993092,"fix_duration":534.0330718299667,"trial":42,"RT":784,"MT":461,"sideResp":2,"stimulus":"img/500/equaldotanddens/R/2_Ratio_500_L_3_R_6.png","xmouse":[802,802,802,802,802,802,802,802,802,802,802,802,802,802,802,802,802,802,802,802,802,802,802,802,802,802,802,802,802,802,802,802,802,802,802,802,806,808,818,839,899,967,1037,1119,1145,1156,1171,1182,1203,1213,1221,1225,1225,1225,1225,1225,1223,1219,1186,1156,1139,1131,1128],"ymouse":[531,531,531,531,531,531,531,531,531,531,531,531,531,531,531,531,531,531,531,531,531,531,531,531,531,531,531,531,531,531,531,531,531,531,531,531,523,519,500,476,428,391,351,289,258,237,208,185,153,140,129,123,123,123,123,123,123,123,120,112,105,100,96],"timestamp_mouse":[9,34,44,65,85,104,125,144,164,184,205,224,244,265,284,304,324,344,364,384,404,425,444,464,484,504,524,544,564,584,604,624,645,665,684,704,724,744,764,784,804,824,844,864,885,904,924,944,964,985,1004,1024,1044,1064,1084,1105,1124,1145,1165,1184,1205,1225,1244],"xSR":741.5,"ySR":481,"xT1":424.9,"yT1":0,"xT2":1058.1,"yT2":0,"toosoon":0,"cond_shown":"equaldotanddens","ratio_trial":500,"smaller_num":"3","larger_num":"6","correct_side":2,"subjID":"karoldanielatrianaalvarez4","gender":"1","age":"11","school":""},{"start_time":1551795001638,"click_time":1551795003132,"finger_time":1551795002391,"fix_duration":1025.290401632565,"trial":43,"RT":753,"MT":741,"sideResp":2,"stimulus":"img/250/randomdotsizeEA/R/4_Ratio_250_L_3_R_12.png","xmouse":[799,799,799,799,799,799,799,799,799,799,799,799,799,799,799,799,799,799,799,799,799,796,787,774,762,750,748,748,748,748,748,748,748,748,748,748,756,795,843,916,978,1047,1054,1060,1060,1061,1061,1062,1063,1063,1066,1077,1081,1089,1092,1092,1070,1041,1026,1016,1013,1005,996,994,991,989,992,995,1001,1005,1030,1040,1052,1056,1062],"ymouse":[537,538,538,538,538,538,538,539,539,539,540,541,541,541,541,541,541,541,541,541,541,537,526,514,507,501,500,500,500,500,500,500,500,500,500,500,492,476,466,455,442,422,416,410,410,407,406,406,405,405,399,388,385,373,358,335,286,251,233,222,216,199,177,168,152,138,113,106,96,90,73,67,62,59,56],"timestamp_mouse":[14,47,53,73,94,113,134,154,173,194,213,234,253,274,293,313,334,354,374,394,415,433,454,474,494,513,535,554,574,594,614,633,653,675,694,714,733,753,774,793,813,833,853,874,894,915,934,954,974,993,1013,1033,1053,1074,1094,1114,1134,1153,1173,1193,1214,1233,1253,1274,1294,1313,1333,1354,1373,1395,1415,1433,1453,1473,1494],"xSR":741.5,"ySR":481,"xT1":424.9,"yT1":0,"xT2":1058.1,"yT2":0,"toosoon":0,"cond_shown":"randomdotsizeEA","ratio_trial":250,"smaller_num":"3","larger_num":"12","correct_side":2,"subjID":"karoldanielatrianaalvarez4","gender":"1","age":"11","school":""},{"start_time":1551795011821,"click_time":1551795012851,"finger_time":1551795012151,"fix_duration":927.3059651280879,"trial":44,"RT":330,"MT":700,"sideResp":2,"stimulus":"img/250/equaldotsize/R/8_Ratio_250_L_1_R_4.png","xmouse":[785,785,805,812,814,818,823,836,836,836,836,836,836,836,836,836,846,886,909,930,945,950,963,968,981,990,992,987,990,1024,1024,1024,1024,1024,1024,1024,1024,1024,1024,1024,1024,1024,1024,1024,1024,1024,1223,1193,1179,1169,1161,1152],"ymouse":[530,530,530,530,530,529,527,521,521,521,521,521,521,521,520,520,502,448,417,383,359,347,315,307,281,248,216,119,101,28,28,28,28,28,28,28,28,28,28,28,28,28,28,28,28,28,1,3,3,3,3,11],"timestamp_mouse":[10,38,50,71,90,112,130,150,170,192,211,231,250,271,290,311,330,351,371,390,410,430,450,471,490,511,530,551,571,590,610,631,650,670,690,710,731,751,770,790,811,832,851,870,890,911,931,951,972,990,1010,1030],"xSR":741.5,"ySR":481,"xT1":424.9,"yT1":0,"xT2":1058.1,"yT2":0,"toosoon":0,"cond_shown":"equaldotsize","ratio_trial":250,"smaller_num":"1","larger_num":"4","correct_side":2,"subjID":"karoldanielatrianaalvarez4","gender":"1","age":"11","school":""},{"start_time":1551795014354,"click_time":1551795015091,"finger_time":1551795014731,"fix_duration":441.1193513281063,"trial":45,"RT":377,"MT":360,"sideResp":1,"stimulus":"img/900/equaldotsize/L/10_Ratio_900_L_20_R_18.png","xmouse":[783,783,783,783,783,783,783,783,783,783,783,783,783,783,780,779,781,792,824,873,925,925,905,874,820,713,643,563,544,537,534,533,533,529,521,492,479],"ymouse":[523,523,523,523,523,523,523,523,523,523,523,521,520,518,515,509,502,489,454,402,279,254,217,196,180,164,157,140,134,129,125,124,124,121,117,105,98],"timestamp_mouse":[17,38,58,79,98,118,138,159,178,197,219,238,257,277,297,317,338,357,377,397,417,438,458,477,497,517,538,558,578,598,617,637,657,677,698,718,737],"xSR":741.5,"ySR":481,"xT1":424.9,"yT1":0,"xT2":1058.1,"yT2":0,"toosoon":0,"cond_shown":"equaldotsize","ratio_trial":900,"smaller_num":"18","larger_num":"20","correct_side":1,"subjID":"karoldanielatrianaalvarez4","gender":"1","age":"11","school":""},{"start_time":1551795017734,"click_time":1551795018391,"finger_time":1551795018013,"fix_duration":360.81036249586265,"trial":46,"RT":279,"MT":378,"sideResp":1,"stimulus":"img/500/randomdotsizeEA/L/4_Ratio_500_L_18_R_9.png","xmouse":[813,813,813,813,813,813,813,813,813,813,813,808,798,779,751,717,644,612,607,596,593,589,583,576,568,561,553,552,551,549,545,525,517],"ymouse":[503,503,503,503,503,503,503,503,503,503,503,499,488,459,418,375,323,304,300,287,279,265,254,246,238,229,218,211,198,175,148,73,54],"timestamp_mouse":[23,43,58,77,98,117,137,158,177,199,217,237,257,279,298,318,338,357,377,397,417,437,457,477,497,517,538,558,577,597,617,637,657],"xSR":741.5,"ySR":481,"xT1":424.9,"yT1":0,"xT2":1058.1,"yT2":0,"toosoon":0,"cond_shown":"randomdotsizeEA","ratio_trial":500,"smaller_num":"9","larger_num":"18","correct_side":1,"subjID":"karoldanielatrianaalvarez4","gender":"1","age":"11","school":""},{"start_time":1551795020764,"click_time":1551795021672,"finger_time":1551795021111,"fix_duration":250,"trial":47,"RT":347,"MT":561,"sideResp":1,"stimulus":"img/250/randomdotsizeEA/L/14_Ratio_250_L_12_R_3.png","xmouse":[797,797,797,797,797,797,797,797,797,797,797,797,797,798,798,776,750,723,681,643,611,610,610,609,609,602,595,588,582,576,563,551,540,535,530,520,518,518,518,518,517,517,512,511,509,507],"ymouse":[520,520,520,520,520,520,520,520,520,520,520,520,520,520,518,502,487,473,448,431,408,398,389,384,366,341,330,306,297,283,257,236,217,210,203,188,184,182,179,176,169,147,132,121,112,91],"timestamp_mouse":[8,27,47,67,88,108,127,147,169,187,209,227,248,268,288,307,329,347,368,388,407,427,448,467,488,507,528,547,567,587,607,628,648,668,689,708,727,747,768,787,807,827,848,867,888,908],"xSR":741.5,"ySR":481,"xT1":424.9,"yT1":0,"xT2":1058.1,"yT2":0,"toosoon":0,"cond_shown":"randomdotsizeEA","ratio_trial":250,"smaller_num":"3","larger_num":"12","correct_side":1,"subjID":"karoldanielatrianaalvarez4","gender":"1","age":"11","school":""},{"start_time":1551795024438,"click_time":1551795025272,"finger_time":1551795024811,"fix_duration":1345.2653537442893,"trial":48,"RT":373,"MT":461,"sideResp":1,"stimulus":"img/250/equaldotsize/L/5_Ratio_250_L_24_R_6.png","xmouse":[798,797,797,797,797,796,796,794,794,794,794,794,795,795,795,796,796,795,786,764,740,718,715,711,695,678,656,645,635,623,617,584,554,537,526,523,523,519,506,485,474,462],"ymouse":[520,520,520,520,520,522,525,528,528,528,528,528,529,529,529,528,521,506,475,424,384,342,333,326,305,291,274,260,249,234,224,187,157,142,134,131,131,129,122,113,106,93],"timestamp_mouse":[14,48,54,73,93,114,133,154,174,195,213,235,253,273,293,313,334,354,373,393,414,433,454,474,493,514,533,553,573,593,614,633,654,673,694,715,735,754,773,793,815,834],"xSR":741.5,"ySR":481,"xT1":424.9,"yT1":0,"xT2":1058.1,"yT2":0,"toosoon":0,"cond_shown":"equaldotsize","ratio_trial":250,"smaller_num":"6","larger_num":"24","correct_side":1,"subjID":"karoldanielatrianaalvarez4","gender":"1","age":"11","school":""},{"start_time":1551795031426,"click_time":1551795032551,"finger_time":1551795031992,"fix_duration":851.7861846983551,"trial":49,"RT":566,"MT":559,"sideResp":1,"stimulus":"img/750/equaldotsize/L/1_Ratio_750_L_20_R_15.png","xmouse":[783,783,783,783,783,783,783,783,783,783,783,783,783,783,783,783,783,783,783,783,783,783,783,783,783,782,778,750,731,710,691,671,639,624,611,603,593,570,557,545,538,536,533,539,546,547,547,547,547,547,547,547,547,547,547,532,519],"ymouse":[509,509,509,509,509,509,509,509,509,509,509,509,509,509,509,509,509,509,509,509,509,509,509,509,508,508,505,501,494,485,469,451,416,394,368,347,319,252,217,191,174,159,116,72,20,1,1,1,1,1,1,1,1,1,1,16,31],"timestamp_mouse":[9,26,45,66,86,105,127,146,165,186,207,226,245,265,285,305,325,347,367,385,405,425,446,466,485,506,526,545,566,586,606,625,645,667,685,705,726,745,765,786,806,826,845,866,886,905,927,945,966,985,1006,1025,1045,1066,1085,1105,1125],"xSR":741.5,"ySR":481,"xT1":424.9,"yT1":0,"xT2":1058.1,"yT2":0,"toosoon":0,"cond_shown":"equaldotsize","ratio_trial":750,"smaller_num":"15","larger_num":"20","correct_side":1,"subjID":"karoldanielatrianaalvarez4","gender":"1","age":"11","school":""},{"start_time":1551795033852,"click_time":1551795034331,"finger_time":1551795034171,"fix_duration":279.6617472452434,"trial":50,"RT":319,"MT":160,"sideResp":1,"stimulus":"img/250/equaldotsize/R/13_Ratio_250_L_2_R_8.png","xmouse":[772,772,772,772,772,772,772,772,772,772,772,772,774,774,774,757,738,707,684,648,585,558,528,512],"ymouse":[540,540,540,540,540,540,540,540,540,540,540,540,538,529,509,438,373,303,247,190,106,78,53,39],"timestamp_mouse":[20,40,61,80,99,125,141,159,179,199,220,240,259,279,299,319,339,359,379,399,419,439,460,479],"xSR":741.5,"ySR":481,"xT1":424.9,"yT1":0,"xT2":1058.1,"yT2":0,"toosoon":0,"cond_shown":"equaldotsize","ratio_trial":250,"smaller_num":"2","larger_num":"8","correct_side":2,"subjID":"karoldanielatrianaalvarez4","gender":"1","age":"11","school":""},{"start_time":1551795038963,"click_time":1551795039451,"finger_time":1551795039371,"fix_duration":1190.3220340786818,"trial":51,"RT":408,"MT":80,"sideResp":1,"stimulus":"img/250/randomdotsizeEA/L/15_Ratio_250_L_12_R_3.png","xmouse":[783,783,783,783,783,783,783,783,783,783,783,783,783,783,783,783,783,783,783,782,753,709,648,585,519],"ymouse":[526,526,526,526,526,526,526,526,526,526,526,526,526,526,526,526,526,526,526,512,455,373,271,151,59],"timestamp_mouse":[9,38,49,69,89,109,128,149,168,188,210,228,249,268,289,309,328,348,369,388,408,429,449,468,488],"xSR":741.5,"ySR":481,"xT1":424.9,"yT1":0,"xT2":1058.1,"yT2":0,"toosoon":0,"cond_shown":"randomdotsizeEA","ratio_trial":250,"smaller_num":"3","larger_num":"12","correct_side":1,"subjID":"karoldanielatrianaalvarez4","gender":"1","age":"11","school":""},{"start_time":1551795045079,"click_time":1551795046512,"finger_time":1551795045472,"fix_duration":966.1412489315143,"trial":52,"RT":393,"MT":1040,"sideResp":2,"stimulus":"img/750/equaldotanddens/R/5_Ratio_750_L_15_R_20.png","xmouse":[763,763,763,763,763,763,763,763,763,763,763,763,763,763,763,763,763,762,745,613,546,475,455,449,447,447,445,445,445,448,451,456,457,458,460,461,462,462,462,462,462,462,462,462,463,465,471,487,516,553,560,572,586,606,821,929,937,945,947,958,971,983,995,1002,1008,1009,1013,1013,1015,1027,1047,1064],"ymouse":[498,498,498,498,498,498,498,498,498,498,498,498,498,498,498,498,498,498,488,403,349,254,217,199,172,161,152,145,141,132,125,116,114,112,111,110,109,108,108,108,108,108,108,108,108,108,116,128,140,144,144,136,131,126,119,120,121,116,111,92,77,65,56,50,43,42,39,38,37,31,23,20],"timestamp_mouse":[14,42,53,73,93,113,132,152,174,193,213,232,252,272,294,313,333,352,372,393,412,432,452,473,493,513,532,553,572,592,613,633,652,673,692,712,733,754,772,792,812,833,853,873,892,912,932,953,972,992,1012,1032,1053,1073,1094,1113,1132,1152,1173,1192,1212,1232,1254,1273,1292,1313,1332,1352,1374,1392,1412,1432],"xSR":741.5,"ySR":481,"xT1":424.9,"yT1":0,"xT2":1058.1,"yT2":0,"toosoon":0,"cond_shown":"equaldotanddens","ratio_trial":750,"smaller_num":"15","larger_num":"20","correct_side":2,"subjID":"karoldanielatrianaalvarez4","gender":"1","age":"11","school":""},{"start_time":1551795047863,"click_time":1551795048972,"finger_time":1551795048311,"fix_duration":250,"trial":53,"RT":448,"MT":661,"sideResp":2,"stimulus":"img/750/equaldotanddens/R/2_Ratio_750_L_6_R_8.png","xmouse":[771,771,771,771,771,771,771,771,772,772,772,771,771,771,770,770,769,769,769,771,776,794,810,824,858,882,888,892,895,898,930,949,955,973,985,988,996,1004,1012,1018,1025,1029,1030,1031,1032,1036,1039,1040,1041,1042,1048,1050,1052,1054,1055,1064],"ymouse":[534,534,534,534,534,534,534,534,534,534,533,532,530,529,528,526,524,522,519,516,509,482,460,434,365,318,306,297,290,284,201,164,149,119,104,98,92,83,74,70,57,51,48,47,45,41,40,39,39,38,36,35,34,34,32,31],"timestamp_mouse":[13,40,50,70,88,110,130,150,168,188,209,229,248,270,288,309,329,348,369,389,408,428,448,468,488,508,529,549,569,588,608,629,649,668,688,708,728,749,769,790,809,829,848,868,888,908,928,948,969,989,1008,1028,1048,1069,1089,1109],"xSR":741.5,"ySR":481,"xT1":424.9,"yT1":0,"xT2":1058.1,"yT2":0,"toosoon":0,"cond_shown":"equaldotanddens","ratio_trial":750,"smaller_num":"6","larger_num":"8","correct_side":2,"subjID":"karoldanielatrianaalvarez4","gender":"1","age":"11","school":""},{"start_time":1551795066150,"click_time":1551795067014,"finger_time":1551795066512,"fix_duration":1477.1165309446963,"trial":54,"RT":362,"MT":502,"sideResp":2,"stimulus":"img/750/equaldotsize/L/10_Ratio_750_L_4_R_3.png","xmouse":[811,811,811,811,811,811,811,811,811,811,811,811,811,811,810,808,806,805,801,798,791,782,777,773,772,771,780,795,806,820,835,878,900,929,979,1028,1064,1079,1084,1092,1095,1103,1104,1105],"ymouse":[548,548,548,548,548,548,548,547,546,543,541,537,535,531,526,518,501,494,469,446,426,394,378,365,354,347,319,301,289,281,270,250,241,234,227,219,209,195,183,162,150,117,103,92],"timestamp_mouse":[5,30,42,62,82,102,122,142,162,183,202,222,242,262,283,302,322,343,362,383,402,422,442,462,482,503,522,543,562,582,602,623,643,662,683,702,722,743,762,783,802,822,842,864],"xSR":741.5,"ySR":481,"xT1":424.9,"yT1":0,"xT2":1058.1,"yT2":0,"toosoon":0,"cond_shown":"equaldotsize","ratio_trial":750,"smaller_num":"3","larger_num":"4","correct_side":1,"subjID":"karoldanielatrianaalvarez4","gender":"1","age":"11","school":""},{"start_time":1551795076164,"click_time":1551795076933,"finger_time":1551795076453,"fix_duration":250,"trial":55,"RT":289,"MT":480,"sideResp":1,"stimulus":"img/750/equaldotsize/R/4_Ratio_750_L_15_R_20.png","xmouse":[772,772,772,772,772,772,772,771,769,767,767,767,768,777,788,798,798,798,798,797,768,742,715,683,662,636,620,611,596,578,535,514,504,501,501,500,500,500,496],"ymouse":[530,530,530,530,530,530,530,530,530,530,530,526,518,485,458,411,406,401,400,397,349,313,269,236,217,197,185,177,166,150,128,119,115,113,112,111,111,106,97],"timestamp_mouse":[15,39,48,68,89,108,129,148,169,188,209,229,248,268,289,309,328,349,370,388,409,428,448,468,490,509,528,548,568,589,608,628,648,669,688,708,729,749,769],"xSR":741.5,"ySR":481,"xT1":424.9,"yT1":0,"xT2":1058.1,"yT2":0,"toosoon":0,"cond_shown":"equaldotsize","ratio_trial":750,"smaller_num":"15","larger_num":"20","correct_side":2,"subjID":"karoldanielatrianaalvarez4","gender":"1","age":"11","school":""},{"start_time":1551795078863,"click_time":1551795079952,"finger_time":1551795079552,"fix_duration":848.4174156716164,"trial":56,"RT":689,"MT":400,"sideResp":2,"stimulus":"img/750/equaldotanddens/R/12_Ratio_750_L_3_R_4.png","xmouse":[783,783,783,783,783,783,783,783,783,783,783,783,783,783,783,783,783,783,783,783,783,783,783,783,783,783,783,783,783,782,780,780,779,789,808,851,871,887,905,909,932,952,969,981,999,1005,1005,1006,1010,1018,1033,1040,1051,1057,1064],"ymouse":[527,527,527,526,525,525,525,525,525,525,525,525,525,525,525,524,524,524,524,524,524,524,524,524,524,524,523,522,521,518,513,509,498,483,465,415,391,368,343,335,302,275,253,239,228,223,223,221,216,205,174,148,110,82,64],"timestamp_mouse":[11,43,50,69,89,110,129,149,169,190,209,230,250,269,289,309,329,349,369,389,409,429,450,469,490,509,530,549,569,591,609,630,649,670,689,710,729,749,769,789,809,829,849,869,889,909,929,949,970,990,1009,1030,1050,1069,1089],"xSR":741.5,"ySR":481,"xT1":424.9,"yT1":0,"xT2":1058.1,"yT2":0,"toosoon":0,"cond_shown":"equaldotanddens","ratio_trial":750,"smaller_num":"3","larger_num":"4","correct_side":2,"subjID":"karoldanielatrianaalvarez4","gender":"1","age":"11","school":""},{"start_time":1551795084946,"click_time":1551795086052,"finger_time":1551795085352,"fix_duration":250,"trial":57,"RT":406,"MT":700,"sideResp":1,"stimulus":"img/250/randomdotsizeEA/L/1_Ratio_250_L_8_R_2.png","xmouse":[784,784,784,784,784,784,784,784,783,783,783,785,786,788,789,790,795,796,798,801,803,809,812,814,815,815,816,816,816,816,815,807,800,789,767,738,659,599,571,553,541,530,529,532,535,536,540,543,546,546,546,536,532,528,526,523],"ymouse":[508,508,508,508,508,508,508,508,508,507,506,505,504,502,501,500,493,492,490,484,480,467,461,455,452,449,448,448,447,446,445,444,442,437,430,418,365,314,288,263,240,212,199,193,183,178,167,159,151,146,137,117,109,103,100,96],"timestamp_mouse":[9,40,47,67,87,107,127,147,166,186,206,226,246,266,286,307,326,347,366,387,406,426,447,466,486,507,526,546,567,586,606,626,646,666,686,706,726,746,766,786,806,826,847,866,886,906,926,947,966,987,1006,1027,1046,1066,1086,1106],"xSR":741.5,"ySR":481,"xT1":424.9,"yT1":0,"xT2":1058.1,"yT2":0,"toosoon":0,"cond_shown":"randomdotsizeEA","ratio_trial":250,"smaller_num":"2","larger_num":"8","correct_side":1,"subjID":"karoldanielatrianaalvarez4","gender":"1","age":"11","school":""},{"start_time":1551795089332,"click_time":1551795090272,"finger_time":1551795089752,"fix_duration":679.0517946963604,"trial":58,"RT":420,"MT":520,"sideResp":1,"stimulus":"img/900/randomdotsizeEA/L/1_Ratio_900_L_10_R_9.png","xmouse":[777,777,776,776,776,776,776,776,776,776,776,776,776,776,776,776,776,776,776,776,775,775,773,769,762,757,751,740,737,734,732,727,703,694,685,681,678,674,669,662,659,656,630,618,595,571,549,512],"ymouse":[500,499,498,498,498,498,498,498,498,498,498,498,498,498,498,498,498,498,498,495,486,470,427,408,387,370,358,329,321,315,309,302,275,264,251,244,230,220,210,197,194,186,152,142,128,111,97,71],"timestamp_mouse":[1,20,56,60,81,100,120,141,161,180,200,220,242,260,280,300,320,341,360,380,400,420,441,461,480,500,521,540,561,580,600,620,640,661,680,700,721,740,760,780,801,820,840,861,880,901,921,940],"xSR":741.5,"ySR":481,"xT1":424.9,"yT1":0,"xT2":1058.1,"yT2":0,"toosoon":0,"cond_shown":"randomdotsizeEA","ratio_trial":900,"smaller_num":"9","larger_num":"10","correct_side":1,"subjID":"karoldanielatrianaalvarez4","gender":"1","age":"11","school":""},{"start_time":1551795095685,"click_time":1551795096732,"finger_time":1551795096072,"fix_duration":872.2467656874977,"trial":59,"RT":387,"MT":660,"sideResp":1,"stimulus":"img/750/equaldotsize/L/9_Ratio_750_L_4_R_3.png","xmouse":[783,783,783,783,783,783,783,783,783,783,783,783,783,783,783,784,784,786,788,794,787,780,762,759,758,758,758,757,757,757,757,757,757,757,757,757,757,755,754,753,752,745,741,736,735,735,735,732,729,702,656,527,429],"ymouse":[508,508,508,508,508,508,508,508,508,508,508,508,508,508,508,508,507,504,497,448,427,393,349,341,337,337,336,335,335,335,335,335,335,335,335,335,335,333,331,328,323,310,301,292,283,279,275,268,262,241,218,137,70],"timestamp_mouse":[9,28,48,69,88,107,127,147,167,187,209,228,247,268,287,307,328,347,367,387,408,427,447,468,487,507,527,547,567,587,607,627,648,669,688,707,727,747,768,787,808,828,847,867,887,908,927,948,968,987,1008,1027,1047],"xSR":741.5,"ySR":481,"xT1":424.9,"yT1":0,"xT2":1058.1,"yT2":0,"toosoon":0,"cond_shown":"equaldotsize","ratio_trial":750,"smaller_num":"3","larger_num":"4","correct_side":1,"subjID":"karoldanielatrianaalvarez4","gender":"1","age":"11","school":""},{"start_time":1551795098044,"click_time":1551795098973,"finger_time":1551795098872,"fix_duration":250,"trial":60,"RT":828,"MT":101,"sideResp":1,"stimulus":"img/250/randomdotsizeEA/L/14_Ratio_250_L_12_R_3.png","xmouse":[768,768,768,768,768,768,768,768,768,768,768,819,825,825,825,825,825,825,825,825,827,827,828,828,828,828,828,828,828,828,828,828,828,829,829,829,829,829,812,799,769,725,709,684,652,605,471],"ymouse":[515,515,515,515,515,515,515,515,515,515,513,486,481,481,481,481,481,481,481,488,495,512,517,517,517,517,517,517,517,517,517,517,517,519,519,519,519,519,510,502,485,457,440,418,388,315,80],"timestamp_mouse":[8,30,50,69,88,109,128,148,169,188,208,228,248,268,288,308,328,348,368,389,409,429,448,468,489,508,528,548,568,590,609,629,648,668,690,710,729,748,768,789,808,828,848,869,888,909,929],"xSR":741.5,"ySR":481,"xT1":424.9,"yT1":0,"xT2":1058.1,"yT2":0,"toosoon":0,"cond_shown":"randomdotsizeEA","ratio_trial":250,"smaller_num":"3","larger_num":"12","correct_side":1,"subjID":"karoldanielatrianaalvarez4","gender":"1","age":"11","school":""},{"start_time":1551795106845,"click_time":1551795107573,"finger_time":1551795107193,"fix_duration":431.22289398353905,"trial":61,"RT":348,"MT":380,"sideResp":1,"stimulus":"img/900/equaldotsize/L/4_Ratio_900_L_20_R_18.png","xmouse":[818,818,818,818,818,818,818,818,818,818,818,816,816,815,812,807,788,773,755,732,706,660,642,632,626,617,606,605,604,604,604,604,601,595,579,547,466],"ymouse":[537,537,537,537,537,537,537,537,537,537,537,537,535,533,526,516,483,462,434,399,354,285,259,238,219,199,167,156,142,135,131,127,123,118,108,93,58],"timestamp_mouse":[7,27,47,68,87,108,127,147,167,188,207,227,247,268,288,307,327,348,367,387,408,427,447,467,487,509,528,547,568,587,607,627,647,668,688,708,728],"xSR":741.5,"ySR":481,"xT1":424.9,"yT1":0,"xT2":1058.1,"yT2":0,"toosoon":0,"cond_shown":"equaldotsize","ratio_trial":900,"smaller_num":"18","larger_num":"20","correct_side":1,"subjID":"karoldanielatrianaalvarez4","gender":"1","age":"11","school":""},{"start_time":1551795110070,"click_time":1551795111012,"finger_time":1551795110472,"fix_duration":1078.809216877457,"trial":62,"RT":402,"MT":540,"sideResp":2,"stimulus":"img/500/equaldotanddens/R/9_Ratio_500_L_2_R_4.png","xmouse":[787,787,787,787,787,787,787,787,787,787,787,787,787,787,787,787,787,785,783,773,736,722,712,711,711,715,727,745,769,791,851,896,933,978,1004,1132,1184,1189,1207,1221,1228,1228,1228,1228,1220,1183,1165,1152],"ymouse":[519,519,519,519,519,519,519,519,519,519,519,519,519,519,519,519,519,514,507,485,419,397,382,379,378,370,358,347,333,318,281,253,230,206,190,131,103,101,89,77,69,69,69,69,69,66,63,61],"timestamp_mouse":[3,22,43,62,82,102,122,142,162,182,203,222,242,262,283,302,323,342,362,382,402,423,442,462,482,503,523,542,562,583,603,623,643,662,682,703,723,743,762,782,803,823,842,863,882,903,923,942],"xSR":741.5,"ySR":481,"xT1":424.9,"yT1":0,"xT2":1058.1,"yT2