[{"start_time":1551901378818,"click_time":1551901380965,"finger_time":1551901379965,"fix_duration":1047.1746985778054,"trial":0,"RT":1147,"MT":1000,"sideResp":2,"stimulus":"img/250/equaldotanddens/R/8_Ratio_250_L_1_R_4.png","xmouse":[793,793,793,793,793,793,793,793,793,793,793,793,793,793,793,793,793,793,793,793,793,793,793,793,793,793,793,793,793,793,793,793,793,793,793,793,793,793,793,793,793,793,793,793,793,793,793,793,787,780,773,760,760,760,754,744,743,731,731,731,734,751,757,760,762,763,768,820,821,875,895,904,907,908,909,912,913,919,931,933,937,942,955,960,966,978,986,1007,1018,1020,1021,1024,1046,1046,1051,1051,1051,1054,1055,1055,1055,1055,1055,1056,1060,1063,1068,1091],"ymouse":[526,526,526,526,526,526,526,526,526,526,526,526,526,526,526,526,526,526,526,526,526,526,526,526,526,526,526,526,526,526,526,526,526,526,526,526,526,526,526,526,526,526,526,526,526,526,526,526,526,522,514,497,497,493,481,458,456,447,447,447,447,447,447,445,438,432,420,408,408,400,394,390,389,388,386,383,383,373,343,336,325,316,303,296,291,284,278,266,257,250,249,245,224,224,200,183,177,171,168,168,168,167,164,162,155,142,127,76],"timestamp_mouse":[8,34,47,67,88,107,128,147,167,187,207,228,249,267,287,308,328,347,368,388,408,427,447,467,488,508,528,548,567,588,607,629,647,667,687,707,727,748,767,788,808,827,847,867,887,908,927,947,967,987,1007,1028,1048,1068,1088,1107,1127,1147,1167,1187,1208,1228,1247,1268,1287,1307,1327,1347,1367,1389,1407,1427,1447,1467,1488,1508,1527,1547,1567,1588,1608,1627,1647,1667,1687,1707,1727,1747,1767,1788,1808,1828,1847,1868,1888,1907,1928,1947,1967,1988,2007,2028,2048,2067,2088,2107,2127,2147],"xSR":741.5,"ySR":449.15000000000003,"xT1":424.9,"yT1":0,"xT2":1058.1,"yT2":0,"toosoon":0,"cond_shown":"equaldotanddens","ratio_trial":250,"smaller_num":"1","larger_num":"4","correct_side":2,"subjID":"LauraAlejandraFajardoMolina12","gender":"1","age":"11","school":"6","test":{"fix_dur":[250,1500],"timestim":300,"targets_dim":[100,100],"targets_relative_coord":[0.3,0.7],"size_stim":[880,420],"start_dim":[100,100],"size_start":[300,300],"size_fix":60,"samplingrate":20,"img_types":["equaldotsize","equaldotanddens","randomdotsizeEA"],"ratios":[250,500,750,900],"rep_conds":9,"nTrials":120,"trials_to_rest":500,"Trials_order":[49,36,20,0,32,26,2,22,105,23,46,17,87,83,104,59,54,55,65,84,89,12,112,78,75,52,66,88,25,111,69,116,56,41,95,86,99,1,77,42,6,113,90,64,4,94,31,13,67,93,114,85,97,101,103,9,110,16,39,27,24,62,117,43,45,73,38,119,44,61,72,53,98,51,108,100,48,76,28,82,70,81,40,15,8,14,29,30,33,60,96,11,50,18,74,102,3,34,63,5,35,47,118,37,71,107,10,7,91,21,106,57,80,109,92,79,68,19,115,58],"cond_shown":["equaldotanddens","equaldotsize","randomdotsizeEA","equaldotsize","randomdotsizeEA","randomdotsizeEA","randomdotsizeEA","equaldotanddens","equaldotsize","randomdotsizeEA","equaldotanddens","randomdotsizeEA","equaldotsize","randomdotsizeEA","randomdotsizeEA","randomdotsizeEA","equaldotsize","equaldotanddens","randomdotsizeEA","equaldotsize","randomdotsizeEA","equaldotsize","equaldotanddens","equaldotsize","equaldotsize","equaldotanddens","equaldotsize","equaldotanddens","equaldotanddens","equaldotsize","equaldotsize","randomdotsizeEA","randomdotsizeEA","randomdotsizeEA","randomdotsizeEA","randomdotsizeEA","equaldotsize","equaldotanddens","randomdotsizeEA","equaldotsize","equaldotsize","randomdotsizeEA","equaldotsize","equaldotanddens","equaldotanddens","equaldotanddens","equaldotanddens","equaldotanddens","equaldotanddens","equaldotsize","equaldotsize","equaldotanddens","equaldotanddens","randomdotsizeEA","equaldotanddens","equaldotsize","randomdotsizeEA","equaldotanddens","equaldotsize","equaldotsize","equaldotsize","randomdotsizeEA","equaldotsize","equaldotanddens","equaldotsize","equaldotanddens","randomdotsizeEA","randomdotsizeEA","randomdotsizeEA","equaldotanddens","equaldotsize","randomdotsizeEA","randomdotsizeEA","equaldotsize","equaldotsize","equaldotanddens","equaldotsize","equaldotanddens","equaldotanddens","equaldotanddens","equaldotanddens","equaldotsize","equaldotanddens","equaldotsize","randomdotsizeEA","randomdotsizeEA","randomdotsizeEA","equaldotsize","equaldotsize","equaldotsize","equaldotsize","randomdotsizeEA","randomdotsizeEA","equaldotsize","randomdotsizeEA","equaldotsize","equaldotsize","equaldotanddens","equaldotsize","randomdotsizeEA","randomdotsizeEA","randomdotsizeEA","equaldotanddens","equaldotanddens","randomdotsizeEA","randomdotsizeEA","equaldotanddens","equaldotanddens","equaldotanddens","equaldotsize","equaldotanddens","equaldotsize","randomdotsizeEA","equaldotanddens","randomdotsizeEA","equaldotanddens","randomdotsizeEA","equaldotanddens","equaldotanddens","equaldotanddens"],"ratio_trial":[250,250,750,250,750,250,250,900,900,900,900,500,500,900,750,900,750,750,500,250,500,250,500,750,500,500,750,500,250,500,900,750,750,500,900,250,500,250,500,750,750,500,750,500,500,900,750,250,750,900,750,250,250,500,750,900,250,500,500,500,250,250,900,750,900,250,250,900,750,250,250,500,250,500,250,500,250,500,500,900,900,900,500,500,750,250,500,750,900,250,250,900,250,750,250,750,500,900,500,500,900,900,900,250,900,900,900,750,750,900,900,900,750,250,750,750,750,750,750,900],"smaller_num":["1","4","15","2","3","1","4","9","9","9","18","10","4","18","6","18","3","18","5","2","10","4","6","15","3","2","3","2","3","9","18","3","3","6","18","6","5","2","5","15","6","9","18","2","2","18","6","4","3","18","15","3","3","1","3","18","2","6","10","9","3","4","9","12","9","1","2","18","15","3","4","9","2","2","2","1","2","5","3","9","9","9","2","9","3","6","1","12","18","2","6","18","3","6","3","6","6","18","6","4","18","18","18","3","9","9","18","3","6","18","9","18","9","6","3","3","15","15","9","18"],"larger_num":["4","16","20","8","4","4","16","10","10","10","20","20","8","20","8","20","4","24","10","8","20","16","12","20","6","4","4","4","12","18","20","4","4","12","20","24","10","8","10","20","8","18","24","4","4","20","8","16","4","20","20","12","12","2","4","20","8","12","20","18","12","16","10","16","10","4","8","20","20","12","16","18","8","4","8","2","8","10","6","10","10","10","4","18","4","24","2","16","20","8","24","20","12","8","12","8","12","20","12","8","20","20","20","12","10","10","20","4","8","20","10","20","12","24","4","4","20","20","12","20"],"correct_side":[2,1,2,1,2,2,1,2,2,2,1,2,1,1,2,1,1,1,2,1,2,2,1,1,2,1,1,2,2,2,1,1,1,1,1,2,2,1,1,2,2,2,1,1,1,1,1,1,1,1,2,2,2,2,1,2,1,1,2,2,2,2,2,2,2,2,1,1,2,2,2,2,1,1,1,2,2,1,2,2,2,2,1,1,1,1,2,2,1,1,2,1,1,1,1,1,1,2,1,1,2,1,2,2,2,2,2,1,1,2,2,1,2,2,2,1,2,2,2,2],"img_shown":["img/250/equaldotanddens/R/8_Ratio_250_L_1_R_4.png","img/250/equaldotsize/L/2_Ratio_250_L_16_R_4.png","img/750/randomdotsizeEA/R/4_Ratio_750_L_15_R_20.png","img/250/equaldotsize/L/7_Ratio_250_L_8_R_2.png","img/750/randomdotsizeEA/R/7_Ratio_750_L_3_R_4.png","img/250/randomdotsizeEA/R/8_Ratio_250_L_1_R_4.png","img/250/randomdotsizeEA/L/2_Ratio_250_L_16_R_4.png","img/900/equaldotanddens/R/5_Ratio_900_L_9_R_10.png","img/900/equaldotsize/R/7_Ratio_900_L_9_R_10.png","img/900/randomdotsizeEA/R/15_Ratio_900_L_9_R_10.png","img/900/equaldotanddens/L/8_Ratio_900_L_20_R_18.png","img/500/randomdotsizeEA/R/3_Ratio_500_L_10_R_20.png","img/500/equaldotsize/L/8_Ratio_500_L_8_R_4.png","img/900/randomdotsizeEA/L/10_Ratio_900_L_20_R_18.png","img/750/randomdotsizeEA/R/2_Ratio_750_L_6_R_8.png","img/900/randomdotsizeEA/L/8_Ratio_900_L_20_R_18.png","img/750/equaldotsize/L/8_Ratio_750_L_4_R_3.png","img/750/equaldotanddens/L/6_Ratio_750_L_24_R_18.png","img/500/randomdotsizeEA/R/14_Ratio_500_L_5_R_10.png","img/250/equaldotsize/L/1_Ratio_250_L_8_R_2.png","img/500/randomdotsizeEA/R/3_Ratio_500_L_10_R_20.png","img/250/equaldotsize/R/10_Ratio_250_L_4_R_16.png","img/500/equaldotanddens/L/11_Ratio_500_L_12_R_6.png","img/750/equaldotsize/L/1_Ratio_750_L_20_R_15.png","img/500/equaldotsize/R/2_Ratio_500_L_3_R_6.png","img/500/equaldotanddens/L/10_Ratio_500_L_4_R_2.png","img/750/equaldotsize/L/9_Ratio_750_L_4_R_3.png","img/500/equaldotanddens/R/9_Ratio_500_L_2_R_4.png","img/250/equaldotanddens/R/9_Ratio_250_L_3_R_12.png","img/500/equaldotsize/R/6_Ratio_500_L_9_R_18.png","img/900/equaldotsize/L/4_Ratio_900_L_20_R_18.png","img/750/randomdotsizeEA/L/9_Ratio_750_L_4_R_3.png","img/750/randomdotsizeEA/L/8_Ratio_750_L_4_R_3.png","img/500/randomdotsizeEA/L/13_Ratio_500_L_12_R_6.png","img/900/randomdotsizeEA/L/4_Ratio_900_L_20_R_18.png","img/250/randomdotsizeEA/R/6_Ratio_250_L_6_R_24.png","img/500/equaldotsize/R/14_Ratio_500_L_5_R_10.png","img/250/equaldotanddens/L/1_Ratio_250_L_8_R_2.png","img/500/randomdotsizeEA/L/7_Ratio_500_L_10_R_5.png","img/750/equaldotsize/R/3_Ratio_750_L_15_R_20.png","img/750/equaldotsize/R/2_Ratio_750_L_6_R_8.png","img/500/randomdotsizeEA/R/1_Ratio_500_L_9_R_18.png","img/750/equaldotsize/L/6_Ratio_750_L_24_R_18.png","img/500/equaldotanddens/L/10_Ratio_500_L_4_R_2.png","img/500/equaldotanddens/L/10_Ratio_500_L_4_R_2.png","img/900/equaldotanddens/L/4_Ratio_900_L_20_R_18.png","img/750/equaldotanddens/L/14_Ratio_750_L_8_R_6.png","img/250/equaldotanddens/L/2_Ratio_250_L_16_R_4.png","img/750/equaldotanddens/L/9_Ratio_750_L_4_R_3.png","img/900/equaldotsize/L/10_Ratio_900_L_20_R_18.png","img/750/equaldotsize/R/3_Ratio_750_L_15_R_20.png","img/250/equaldotanddens/R/11_Ratio_250_L_3_R_12.png","img/250/equaldotanddens/R/4_Ratio_250_L_3_R_12.png","img/500/randomdotsizeEA/R/12_Ratio_500_L_1_R_2.png","img/750/equaldotanddens/L/10_Ratio_750_L_4_R_3.png","img/900/equaldotsize/R/11_Ratio_900_L_18_R_20.png","img/250/randomdotsizeEA/L/1_Ratio_250_L_8_R_2.png","img/500/equaldotanddens/L/11_Ratio_500_L_12_R_6.png","img/500/equaldotsize/R/3_Ratio_500_L_10_R_20.png","img/500/equaldotsize/R/1_Ratio_500_L_9_R_18.png","img/250/equaldotsize/R/4_Ratio_250_L_3_R_12.png","img/250/randomdotsizeEA/R/10_Ratio_250_L_4_R_16.png","img/900/equaldotsize/R/6_Ratio_900_L_9_R_10.png","img/750/equaldotanddens/R/11_Ratio_750_L_12_R_16.png","img/900/equaldotsize/R/7_Ratio_900_L_9_R_10.png","img/250/equaldotanddens/R/8_Ratio_250_L_1_R_4.png","img/250/randomdotsizeEA/L/1_Ratio_250_L_8_R_2.png","img/900/randomdotsizeEA/L/8_Ratio_900_L_20_R_18.png","img/750/randomdotsizeEA/R/3_Ratio_750_L_15_R_20.png","img/250/equaldotanddens/R/4_Ratio_250_L_3_R_12.png","img/250/equaldotsize/R/10_Ratio_250_L_4_R_16.png","img/500/randomdotsizeEA/R/1_Ratio_500_L_9_R_18.png","img/250/randomdotsizeEA/L/3_Ratio_250_L_8_R_2.png","img/500/equaldotsize/L/5_Ratio_500_L_4_R_2.png","img/250/equaldotsize/L/3_Ratio_250_L_8_R_2.png","img/500/equaldotanddens/R/15_Ratio_500_L_1_R_2.png","img/250/equaldotsize/R/13_Ratio_250_L_2_R_8.png","img/500/equaldotanddens/L/7_Ratio_500_L_10_R_5.png","img/500/equaldotanddens/R/2_Ratio_500_L_3_R_6.png","img/900/equaldotanddens/R/7_Ratio_900_L_9_R_10.png","img/900/equaldotanddens/R/7_Ratio_900_L_9_R_10.png","img/900/equaldotsize/R/3_Ratio_900_L_9_R_10.png","img/500/equaldotanddens/L/10_Ratio_500_L_4_R_2.png","img/500/equaldotsize/L/4_Ratio_500_L_18_R_9.png","img/750/randomdotsizeEA/L/10_Ratio_750_L_4_R_3.png","img/250/randomdotsizeEA/L/5_Ratio_250_L_24_R_6.png","img/500/randomdotsizeEA/R/15_Ratio_500_L_1_R_2.png","img/750/equaldotsize/R/11_Ratio_750_L_12_R_16.png","img/900/equaldotsize/L/2_Ratio_900_L_20_R_18.png","img/250/equaldotsize/L/3_Ratio_250_L_8_R_2.png","img/250/equaldotsize/R/6_Ratio_250_L_6_R_24.png","img/900/randomdotsizeEA/L/10_Ratio_900_L_20_R_18.png","img/250/randomdotsizeEA/L/15_Ratio_250_L_12_R_3.png","img/750/equaldotsize/L/13_Ratio_750_L_8_R_6.png","img/250/randomdotsizeEA/L/15_Ratio_250_L_12_R_3.png","img/750/equaldotsize/L/14_Ratio_750_L_8_R_6.png","img/500/equaldotsize/L/13_Ratio_500_L_12_R_6.png","img/900/equaldotanddens/R/13_Ratio_900_L_18_R_20.png","img/500/equaldotsize/L/11_Ratio_500_L_12_R_6.png","img/500/randomdotsizeEA/L/8_Ratio_500_L_8_R_4.png","img/900/randomdotsizeEA/R/14_Ratio_900_L_18_R_20.png","img/900/randomdotsizeEA/L/10_Ratio_900_L_20_R_18.png","img/900/equaldotanddens/R/11_Ratio_900_L_18_R_20.png","img/250/equaldotanddens/R/4_Ratio_250_L_3_R_12.png","img/900/randomdotsizeEA/R/15_Ratio_900_L_9_R_10.png","img/900/randomdotsizeEA/R/15_Ratio_900_L_9_R_10.png","img/900/equaldotanddens/R/9_Ratio_900_L_18_R_20.png","img/750/equaldotanddens/L/8_Ratio_750_L_4_R_3.png","img/750/equaldotanddens/L/13_Ratio_750_L_8_R_6.png","img/900/equaldotsize/R/9_Ratio_900_L_18_R_20.png","img/900/equaldotanddens/R/6_Ratio_900_L_9_R_10.png","img/900/equaldotsize/L/10_Ratio_900_L_20_R_18.png","img/750/randomdotsizeEA/R/15_Ratio_750_L_9_R_12.png","img/250/equaldotanddens/R/6_Ratio_250_L_6_R_24.png","img/750/randomdotsizeEA/R/7_Ratio_750_L_3_R_4.png","img/750/equaldotanddens/L/10_Ratio_750_L_4_R_3.png","img/750/randomdotsizeEA/R/3_Ratio_750_L_15_R_20.png","img/750/equaldotanddens/R/4_Ratio_750_L_15_R_20.png","img/750/equaldotanddens/R/15_Ratio_750_L_9_R_12.png","img/900/equaldotanddens/R/14_Ratio_900_L_18_R_20.png"],"Rat0":[["12_Ratio_0_L_9_R_0.png","13_Ratio_0_L_6_R_0.png","5_Ratio_0_L_2_R_0.png","6_Ratio_0_L_4_R_0.png","8_Ratio_0_L_6_R_0.png"],["1_Ratio_0_L_0_R_17.png","10_Ratio_0_L_0_R_22.png","11_Ratio_0_L_0_R_1.png","14_Ratio_0_L_0_R_24.png","15_Ratio_0_L_0_R_4.png","2_Ratio_0_L_0_R_5.png","3_Ratio_0_L_0_R_17.png","4_Ratio_0_L_0_R_7.png","7_Ratio_0_L_0_R_19.png","9_Ratio_0_L_0_R_15.png"]],"Rat250":[["1_Ratio_250_L_8_R_2.png","14_Ratio_250_L_12_R_3.png","15_Ratio_250_L_12_R_3.png","2_Ratio_250_L_16_R_4.png","3_Ratio_250_L_8_R_2.png","5_Ratio_250_L_24_R_6.png","7_Ratio_250_L_8_R_2.png"],["10_Ratio_250_L_4_R_16.png","11_Ratio_250_L_3_R_12.png","12_Ratio_250_L_5_R_20.png","13_Ratio_250_L_2_R_8.png","4_Ratio_250_L_3_R_12.png","6_Ratio_250_L_6_R_24.png","8_Ratio_250_L_1_R_4.png","9_Ratio_250_L_3_R_12.png"]],"Rat500":[["10_Ratio_500_L_4_R_2.png","11_Ratio_500_L_12_R_6.png","13_Ratio_500_L_12_R_6.png","4_Ratio_500_L_18_R_9.png","5_Ratio_500_L_4_R_2.png","7_Ratio_500_L_10_R_5.png","8_Ratio_500_L_8_R_4.png"],["1_Ratio_500_L_9_R_18.png","12_Ratio_500_L_1_R_2.png","14_Ratio_500_L_5_R_10.png","15_Ratio_500_L_1_R_2.png","2_Ratio_500_L_3_R_6.png","3_Ratio_500_L_10_R_20.png","6_Ratio_500_L_9_R_18.png","9_Ratio_500_L_2_R_4.png"]],"Rat750":[["1_Ratio_750_L_20_R_15.png","10_Ratio_750_L_4_R_3.png","13_Ratio_750_L_8_R_6.png","14_Ratio_750_L_8_R_6.png","6_Ratio_750_L_24_R_18.png","8_Ratio_750_L_4_R_3.png","9_Ratio_750_L_4_R_3.png"],["11_Ratio_750_L_12_R_16.png","12_Ratio_750_L_3_R_4.png","15_Ratio_750_L_9_R_12.png","2_Ratio_750_L_6_R_8.png","3_Ratio_750_L_15_R_20.png","4_Ratio_750_L_15_R_20.png","5_Ratio_750_L_15_R_20.png","7_Ratio_750_L_3_R_4.png"]],"Rat900":[["1_Ratio_900_L_10_R_9.png","10_Ratio_900_L_20_R_18.png","2_Ratio_900_L_20_R_18.png","4_Ratio_900_L_20_R_18.png","8_Ratio_900_L_20_R_18.png"],["11_Ratio_900_L_18_R_20.png","12_Ratio_900_L_18_R_20.png","13_Ratio_900_L_18_R_20.png","14_Ratio_900_L_18_R_20.png","15_Ratio_900_L_9_R_10.png","3_Ratio_900_L_9_R_10.png","5_Ratio_900_L_9_R_10.png","6_Ratio_900_L_9_R_10.png","7_Ratio_900_L_9_R_10.png","9_Ratio_900_L_18_R_20.png"]],"Rat1000":[["10_Ratio_1000_L_16_R_16.png","11_Ratio_1000_L_6_R_6.png","12_Ratio_1000_L_14_R_14.png","13_Ratio_1000_L_20_R_20.png","15_Ratio_1000_L_15_R_15.png","2_Ratio_1000_L_17_R_17.png","4_Ratio_1000_L_9_R_9.png","5_Ratio_1000_L_6_R_6.png","6_Ratio_1000_L_19_R_19.png","8_Ratio_1000_L_14_R_14.png","9_Ratio_1000_L_25_R_25.png"],["1_Ratio_1000_L_1_R_1.png","14_Ratio_1000_L_17_R_17.png","3_Ratio_1000_L_17_R_17.png","7_Ratio_1000_L_6_R_6.png"]]}},{"start_time":1551901382777,"click_time":1551901384245,"finger_time":1551901383865,"fix_duration":250,"trial":1,"RT":1088,"MT":380,"sideResp":1,"stimulus":"img/250/equaldotsize/L/2_Ratio_250_L_16_R_4.png","xmouse":[802,802,802,802,802,802,802,802,802,802,802,802,802,802,802,802,802,802,802,802,802,802,802,802,802,802,802,802,802,802,802,802,802,802,802,802,802,802,802,802,802,820,828,835,837,837,837,837,837,837,837,833,828,824,814,798,756,726,650,594,591,590,589,587,565,559,553,548,547,541,529,513,501,491],"ymouse":[501,501,501,501,501,501,501,501,501,501,501,501,501,501,501,501,501,501,501,501,501,501,501,501,501,501,501,501,501,501,501,501,501,501,501,501,501,501,501,501,501,484,472,459,454,454,454,454,454,454,454,453,451,450,440,425,397,380,321,260,252,249,246,242,196,182,161,149,146,136,126,117,106,98],"timestamp_mouse":[11,35,48,68,88,108,128,148,169,188,209,229,248,268,288,309,328,348,369,388,409,429,449,468,488,508,529,548,569,590,608,628,648,668,688,708,729,748,770,789,809,829,848,869,889,908,928,949,968,988,1009,1028,1049,1068,1088,1108,1128,1148,1169,1189,1209,1228,1249,1269,1290,1309,1329,1350,1369,1388,1408,1429,1449,1468],"xSR":741.5,"ySR":449.15000000000003,"xT1":424.9,"yT1":0,"xT2":1058.1,"yT2":0,"toosoon":0,"cond_shown":"equaldotsize","ratio_trial":250,"smaller_num":"4","larger_num":"16","correct_side":1,"subjID":"LauraAlejandraFajardoMolina12","gender":"1","age":"11","school":"6"},{"start_time":1551901385926,"click_time":1551901387566,"finger_time":1551901386945,"fix_duration":778.1047501908562,"trial":2,"RT":1019,"MT":621,"sideResp":2,"stimulus":"img/750/randomdotsizeEA/R/4_Ratio_750_L_15_R_20.png","xmouse":[764,764,764,764,764,764,765,766,766,767,768,768,768,768,768,768,768,768,768,768,768,768,768,768,768,768,768,768,768,768,768,768,768,768,768,768,768,768,768,768,768,768,768,768,768,768,768,768,768,768,781,804,832,839,846,846,846,847,848,850,861,874,886,890,898,902,912,946,952,955,958,958,961,962,965,967,972,986,997,1008,1031,1048,1072],"ymouse":[467,467,467,467,467,467,468,468,468,469,469,470,470,470,470,470,470,470,470,470,470,470,470,470,470,470,470,470,470,470,470,470,470,470,470,470,470,470,470,470,470,470,470,470,470,470,470,470,470,470,460,443,425,417,403,403,399,393,391,388,374,357,337,330,318,315,307,277,264,257,246,246,239,235,229,225,214,188,171,151,121,96,52],"timestamp_mouse":[1,19,39,59,80,100,119,141,160,179,200,219,240,259,281,300,319,339,359,380,399,420,439,460,480,501,519,540,560,580,599,619,640,660,680,700,719,739,759,779,799,819,839,860,880,899,919,939,960,980,999,1019,1039,1060,1080,1100,1119,1139,1159,1179,1200,1219,1240,1260,1279,1300,1319,1339,1359,1379,1400,1419,1439,1459,1480,1499,1519,1539,1559,1580,1600,1619,1640],"xSR":741.5,"ySR":449.15000000000003,"xT1":424.9,"yT1":0,"xT2":1058.1,"yT2":0,"toosoon":0,"cond_shown":"randomdotsizeEA","ratio_trial":750,"smaller_num":"15","larger_num":"20","correct_side":2,"subjID":"LauraAlejandraFajardoMolina12","gender":"1","age":"11","school":"6"},{"start_time":1551901389800,"click_time":1551901391365,"finger_time":1551901390966,"fix_duration":612.9373294770229,"trial":3,"RT":1166,"MT":399,"sideResp":1,"stimulus":"img/250/equaldotsize/L/7_Ratio_250_L_8_R_2.png","xmouse":[824,824,824,824,824,824,824,824,824,824,824,824,824,824,824,824,824,824,824,824,824,824,824,824,821,811,789,786,785,785,785,785,785,785,785,785,785,785,785,785,785,785,785,785,785,785,785,785,785,785,785,785,785,785,785,785,775,759,737,722,713,703,692,665,659,625,600,600,503,489,489,489,489,489,489,487,476,465,457],"ymouse":[516,516,516,516,516,516,516,516,516,516,516,516,516,516,516,516,516,516,516,516,516,516,516,516,516,516,516,516,516,516,516,516,516,516,516,516,516,516,516,516,516,516,516,516,516,516,516,516,516,516,516,516,516,516,515,514,498,484,471,463,453,437,419,374,365,310,285,285,213,201,201,199,198,190,182,155,131,110,95],"timestamp_mouse":[9,30,45,65,85,105,125,146,165,185,205,225,246,265,285,305,327,345,365,385,406,425,446,465,485,505,526,545,566,586,606,626,646,666,685,705,725,745,766,786,805,825,845,865,885,906,925,945,965,987,1007,1025,1045,1065,1085,1105,1125,1146,1166,1186,1205,1225,1246,1265,1286,1305,1325,1345,1365,1385,1405,1426,1445,1466,1485,1506,1525,1547,1565],"xSR":741.5,"ySR":449.15000000000003,"xT1":424.9,"yT1":0,"xT2":1058.1,"yT2":0,"toosoon":0,"cond_shown":"equaldotsize","ratio_trial":250,"smaller_num":"2","larger_num":"8","correct_side":1,"subjID":"LauraAlejandraFajardoMolina12","gender":"1","age":"11","school":"6"},{"start_time":1551901393685,"click_time":1551901395525,"finger_time":1551901394806,"fix_duration":1419.6982594031026,"trial":4,"RT":1121,"MT":719,"sideResp":2,"stimulus":"img/750/randomdotsizeEA/R/7_Ratio_750_L_3_R_4.png","xmouse":[790,790,790,790,790,790,790,790,790,790,790,790,790,790,790,790,790,790,790,790,790,790,790,790,790,790,790,790,790,790,790,790,790,790,790,790,790,790,790,790,790,790,790,790,790,790,790,790,790,790,790,790,790,790,810,823,839,848,853,856,861,872,872,879,893,919,923,934,941,948,951,997,1026,1061,1084,1088,1095,1095,1095,1095,1095,1095,1095,1095,1095,1095,1095,1095,1095,1095,1096,1098,1101],"ymouse":[486,486,486,486,486,486,486,486,486,486,486,486,486,486,486,486,486,486,486,486,486,486,486,486,486,486,486,486,486,486,486,486,486,486,486,486,486,486,486,486,486,486,486,486,486,486,486,486,486,486,486,486,486,486,470,456,430,416,402,396,389,372,372,357,341,315,312,299,287,269,258,217,191,162,127,118,106,105,105,105,105,105,105,105,105,105,105,105,105,105,103,101,93],"timestamp_mouse":[8,32,40,60,80,100,120,141,160,180,200,221,240,261,281,301,320,341,362,380,400,421,441,460,481,500,520,542,560,580,600,621,642,660,681,701,721,740,761,781,802,821,840,860,880,901,921,940,962,980,1000,1021,1041,1061,1081,1101,1121,1141,1161,1180,1200,1220,1241,1260,1280,1301,1320,1341,1360,1380,1401,1420,1440,1462,1480,1500,1520,1541,1560,1580,1600,1621,1641,1660,1681,1700,1720,1741,1760,1781,1800,1821,1840],"xSR":741.5,"ySR":449.15000000000003,"xT1":424.9,"yT1":0,"xT2":1058.1,"yT2":0,"toosoon":0,"cond_shown":"randomdotsizeEA","ratio_trial":750,"smaller_num":"3","larger_num":"4","correct_side":2,"subjID":"LauraAlejandraFajardoMolina12","gender":"1","age":"11","school":"6"},{"start_time":1551901396597,"click_time":1551901398066,"finger_time":1551901397665,"fix_duration":250,"trial":5,"RT":1068,"MT":401,"sideResp":2,"stimulus":"img/250/randomdotsizeEA/R/8_Ratio_250_L_1_R_4.png","xmouse":[813,813,813,813,813,813,813,813,813,813,813,813,813,813,813,813,813,813,813,813,813,813,813,812,812,812,812,812,812,812,812,812,812,812,812,812,812,812,812,812,812,812,812,812,812,812,812,812,812,812,812,814,822,846,887,913,946,967,983,986,990,1000,1012,1015,1021,1027,1033,1038,1058,1076,1097,1116,1132,1153],"ymouse":[536,536,536,536,536,536,536,536,536,536,536,536,536,536,536,536,536,536,536,536,536,536,536,536,536,536,536,536,536,536,536,536,536,536,536,536,536,536,536,536,536,536,536,536,536,536,536,536,536,536,536,531,520,496,469,456,436,420,400,393,383,371,353,350,340,325,310,299,247,211,176,145,118,69],"timestamp_mouse":[10,32,48,68,90,108,129,148,168,188,208,229,249,269,289,308,328,348,368,388,409,428,449,469,489,508,528,550,569,587,609,628,648,668,688,707,729,748,768,788,808,828,849,869,888,908,929,949,969,988,1010,1028,1048,1068,1088,1109,1128,1148,1168,1189,1209,1228,1249,1268,1288,1308,1329,1348,1368,1388,1407,1428,1449,1469],"xSR":741.5,"ySR":449.15000000000003,"xT1":424.9,"yT1":0,"xT2":1058.1,"yT2":0,"toosoon":0,"cond_shown":"randomdotsizeEA","ratio_trial":250,"smaller_num":"1","larger_num":"4","correct_side":2,"subjID":"LauraAlejandraFajardoMolina12","gender":"1","age":"11","school":"6"},{"start_time":1551901400371,"click_time":1551901401887,"finger_time":1551901401306,"fix_duration":1464.9921680543991,"trial":6,"RT":935,"MT":581,"sideResp":1,"stimulus":"img/250/randomdotsizeEA/L/2_Ratio_250_L_16_R_4.png","xmouse":[783,783,783,783,783,783,783,783,783,783,783,783,783,783,783,783,783,783,783,783,783,783,783,783,783,783,783,783,783,783,783,783,783,783,783,783,783,783,783,783,783,783,783,783,778,745,701,601,562,545,542,542,542,543,550,558,567,569,567,552,546,533,510,490,483,483,483,483,483,483,484,485,487,488,489,489],"ymouse":[482,482,482,482,482,482,482,482,482,482,482,482,482,482,482,482,482,482,482,482,482,482,482,482,482,482,482,482,482,482,482,482,482,482,482,482,482,482,482,482,482,482,482,482,478,454,422,341,306,283,275,269,266,262,247,230,208,202,190,170,167,165,164,161,159,159,158,149,144,141,135,128,121,114,101,99],"timestamp_mouse":[14,42,54,74,94,114,134,154,174,194,215,233,255,275,294,315,334,355,374,394,414,434,454,474,494,514,534,554,574,595,615,634,655,675,695,714,734,754,775,794,815,835,854,875,895,915,935,955,974,994,1014,1034,1053,1075,1094,1114,1134,1154,1174,1194,1214,1233,1255,1275,1294,1313,1335,1354,1375,1394,1415,1434,1454,1475,1495,1515],"xSR":741.5,"ySR":449.15000000000003,"xT1":424.9,"yT1":0,"xT2":1058.1,"yT2":0,"toosoon":0,"cond_shown":"randomdotsizeEA","ratio_trial":250,"smaller_num":"4","larger_num":"16","correct_side":1,"subjID":"LauraAlejandraFajardoMolina12","gender":"1","age":"11","school":"6"},{"start_time":1551901403289,"click_time":1551901404705,"finger_time":1551901404366,"fix_duration":323.28357289187227,"trial":7,"RT":1077,"MT":339,"sideResp":2,"stimulus":"img/900/equaldotanddens/R/5_Ratio_900_L_9_R_10.png","xmouse":[756,756,756,756,756,756,756,756,756,756,756,756,756,756,756,756,756,756,756,756,756,756,756,756,756,756,756,756,756,756,756,756,756,756,756,756,756,756,756,756,756,756,756,756,756,756,757,758,770,776,781,784,788,812,813,835,891,927,966,1008,1024,1037,1047,1066,1074,1077,1082,1082,1086,1086,1086],"ymouse":[474,474,474,474,474,474,474,474,474,474,474,474,474,474,474,474,474,474,474,474,474,474,474,474,474,474,474,474,474,474,474,474,474,474,474,474,474,474,474,474,474,474,474,474,474,474,473,471,464,462,459,457,453,439,439,424,390,364,336,300,284,268,249,218,208,201,194,191,150,129,99],"timestamp_mouse":[16,38,56,76,96,115,136,157,177,196,216,236,257,277,296,316,337,356,376,396,416,436,457,476,497,516,537,556,576,596,616,637,656,677,696,717,737,756,777,795,817,836,856,876,897,917,937,956,976,995,1016,1037,1056,1077,1096,1117,1136,1157,1175,1197,1216,1236,1256,1276,1296,1316,1336,1357,1376,1397,1416],"xSR":741.5,"ySR":449.15000000000003,"xT1":424.9,"yT1":0,"xT2":1058.1,"yT2":0,"toosoon":0,"cond_shown":"equaldotanddens","ratio_trial":900,"smaller_num":"9","larger_num":"10","correct_side":2,"subjID":"LauraAlejandraFajardoMolina12","gender":"1","age":"11","school":"6"},{"start_time":1551901406034,"click_time":1551901407366,"finger_time":1551901407065,"fix_duration":468.25835301087506,"trial":8,"RT":1031,"MT":301,"sideResp":2,"stimulus":"img/900/equaldotsize/R/7_Ratio_900_L_9_R_10.png","xmouse":[797,797,797,797,797,797,797,797,797,797,797,797,797,797,797,797,797,797,797,797,797,797,797,797,797,797,797,797,797,797,797,797,797,797,797,797,797,797,797,797,797,797,797,797,797,797,797,807,818,831,839,849,853,855,893,908,973,992,1003,1006,1008,1016,1018,1020,1034,1046,1080],"ymouse":[501,501,501,501,501,501,501,501,501,501,501,501,501,501,501,501,501,501,501,501,501,501,501,501,501,501,501,501,501,501,501,501,501,501,501,501,501,501,501,501,501,501,501,501,501,501,501,494,486,471,451,404,361,353,269,240,177,161,149,143,140,130,125,121,104,95,75],"timestamp_mouse":[10,33,51,71,92,111,131,150,171,192,212,232,251,271,290,311,331,351,371,391,412,431,451,472,491,512,531,552,571,592,611,632,651,671,692,711,731,752,772,791,812,831,851,872,892,912,932,951,971,992,1011,1031,1051,1072,1092,1112,1131,1151,1171,1192,1211,1231,1250,1272,1291,1312,1332],"xSR":741.5,"ySR":449.15000000000003,"xT1":424.9,"yT1":0,"xT2":1058.1,"yT2":0,"toosoon":0,"cond_shown":"equaldotsize","ratio_trial":900,"smaller_num":"9","larger_num":"10","correct_side":2,"subjID":"LauraAlejandraFajardoMolina12","gender":"1","age":"11","school":"6"},{"start_time":1551901413086,"click_time":1551901414146,"finger_time":1551901413825,"fix_duration":358.0573899190765,"trial":9,"RT":739,"MT":321,"sideResp":2,"stimulus":"img/900/randomdotsizeEA/R/15_Ratio_900_L_9_R_10.png","xmouse":[804,804,804,804,804,804,804,804,804,804,804,804,804,804,804,804,804,804,804,804,804,804,804,804,804,804,804,804,804,804,804,804,804,804,812,829,837,845,857,875,920,929,941,948,978,1005,1025,1037,1045,1052,1054,1062,1074,1084],"ymouse":[529,529,529,529,529,529,529,529,529,529,529,529,529,529,529,529,529,529,529,529,529,529,529,529,529,529,529,529,529,529,529,529,529,529,525,519,515,511,506,497,465,453,431,417,368,327,293,269,251,211,189,162,123,90],"timestamp_mouse":[1,20,39,59,80,99,119,140,159,179,200,219,239,260,280,299,319,339,359,379,399,419,440,459,479,499,519,539,559,579,598,620,640,659,679,700,719,739,759,780,800,820,840,859,879,898,919,939,959,980,998,1019,1039,1060],"xSR":741.5,"ySR":449.15000000000003,"xT1":424.9,"yT1":0,"xT2":1058.1,"yT2":0,"toosoon":0,"cond_shown":"randomdotsizeEA","ratio_trial":900,"smaller_num":"9","larger_num":"10","correct_side":2,"subjID":"LauraAlejandraFajardoMolina12","gender":"1","age":"11","school":"6"},{"start_time":1551901415738,"click_time":1551901417106,"finger_time":1551901416625,"fix_duration":250,"trial":10,"RT":887,"MT":481,"sideResp":1,"stimulus":"img/900/equaldotanddens/L/8_Ratio_900_L_20_R_18.png","xmouse":[787,787,787,787,787,787,787,787,787,787,787,787,787,787,787,787,787,787,787,787,787,787,787,787,787,787,787,787,787,787,787,787,787,787,787,787,787,787,787,787,787,789,792,801,824,828,862,877,898,909,914,914,900,869,791,688,462,394,369,364,364,364,364,367,374,380,394,415,445],"ymouse":[464,464,464,464,464,464,464,464,464,464,464,464,464,464,464,464,464,464,464,464,464,464,464,464,464,464,464,464,464,464,464,464,464,464,464,464,464,464,464,464,464,464,461,457,443,440,404,387,360,342,329,311,305,294,274,246,169,137,119,116,114,113,112,106,97,86,57,44,41],"timestamp_mouse":[10,43,48,67,87,107,127,147,167,188,207,227,247,267,287,307,327,347,368,388,407,427,448,467,488,508,528,548,568,588,608,627,647,667,687,707,728,747,768,787,807,828,847,868,887,907,929,947,968,987,1007,1028,1047,1067,1087,1107,1128,1148,1167,1187,1208,1227,1246,1267,1287,1307,1327,1347,1368],"xSR":741.5,"ySR":449.15000000000003,"xT1":424.9,"yT1":0,"xT2":1058.1,"yT2":0,"toosoon":0,"cond_shown":"equaldotanddens","ratio_trial":900,"smaller_num":"18","larger_num":"20","correct_side":1,"subjID":"LauraAlejandraFajardoMolina12","gender":"1","age":"11","school":"6"},{"start_time":1551901418791,"click_time":1551901419805,"finger_time":1551901419186,"fix_duration":683.4042100070793,"trial":11,"RT":395,"MT":619,"sideResp":2,"stimulus":"img/500/randomdotsizeEA/R/3_Ratio_500_L_10_R_20.png","xmouse":[789,789,789,789,789,789,789,789,789,789,789,789,789,789,789,789,789,789,789,789,788,788,788,788,788,788,788,788,788,788,788,788,788,790,792,798,804,810,841,858,876,891,923,945,961,966,981,1004,1048,1057,1059],"ymouse":[453,453,453,453,453,453,453,453,453,453,453,453,453,453,453,453,453,453,452,449,447,445,442,440,437,437,436,435,433,433,433,433,432,427,423,413,402,392,356,331,310,293,257,237,206,190,160,135,104,97,93],"timestamp_mouse":[14,37,54,74,94,115,134,155,174,194,215,234,253,274,295,314,335,353,375,395,414,434,455,474,494,514,534,553,574,594,614,634,655,674,694,715,734,755,774,794,814,835,854,874,893,915,935,954,974,994,1014],"xSR":741.5,"ySR":449.15000000000003,"xT1":424.9,"yT1":0,"xT2":1058.1,"yT2":0,"toosoon":0,"cond_shown":"randomdotsizeEA","ratio_trial":500,"smaller_num":"10","larger_num":"20","correct_side":2,"subjID":"LauraAlejandraFajardoMolina12","gender":"1","age":"11","school":"6"},{"start_time":1551901422739,"click_time":1551901423865,"finger_time":1551901423026,"fix_duration":1493.469465554935,"trial":12,"RT":287,"MT":839,"sideResp":1,"stimulus":"img/500/equaldotsize/L/8_Ratio_500_L_8_R_4.png","xmouse":[802,803,803,803,803,798,797,797,797,800,806,809,809,762,638,575,579,619,734,752,753,736,706,689,680,679,679,687,691,702,718,725,726,727,727,723,696,660,622,590,580,563,563,563,562,556,535,535,533,532,528,525,525,525,525,525,518],"ymouse":[518,520,520,520,520,520,520,520,520,518,514,511,511,503,501,501,501,497,470,468,468,477,491,497,497,497,497,494,493,489,483,479,475,470,458,442,405,366,329,292,277,189,143,112,89,72,48,47,42,33,24,18,18,18,18,18,30],"timestamp_mouse":[18,43,46,66,87,107,126,146,166,186,207,227,246,267,287,306,327,346,367,387,406,426,446,466,487,507,527,546,567,586,606,626,646,666,686,706,726,745,766,785,806,826,846,867,887,907,925,946,966,986,1006,1026,1047,1067,1086,1107,1126],"xSR":741.5,"ySR":449.15000000000003,"xT1":424.9,"yT1":0,"xT2":1058.1,"yT2":0,"toosoon":0,"cond_shown":"equaldotsize","ratio_trial":500,"smaller_num":"4","larger_num":"8","correct_side":1,"subjID":"LauraAlejandraFajardoMolina12","gender":"1","age":"11","school":"6"},{"start_time":1551901435075,"click_time":1551901436865,"finger_time":1551901436125,"fix_duration":1268.241070911921,"trial":13,"RT":1050,"MT":740,"sideResp":2,"stimulus":"img/900/randomdotsizeEA/L/10_Ratio_900_L_20_R_18.png","xmouse":[773,773,773,773,773,773,773,773,773,773,773,773,773,773,773,773,773,773,773,773,773,773,773,773,773,773,773,773,773,773,773,773,773,773,773,773,773,773,773,773,773,773,773,773,773,773,773,773,775,785,811,823,842,850,914,925,936,947,954,960,968,984,995,1007,1041,1052,1060,1063,1063,1064,1064,1063,1063,1063,1062,1061,1059,1059,1057,1057,1057,1057,1057,1057,1057,1057,1057,1057,1058,1060],"ymouse":[513,513,513,513,513,513,513,513,513,513,513,513,513,513,513,513,513,513,513,513,513,513,513,513,513,513,513,513,513,513,513,513,513,513,513,513,513,513,513,513,513,513,513,513,513,513,513,513,511,505,484,474,457,449,390,379,366,350,336,322,309,283,265,244,200,188,180,175,173,172,170,159,151,144,127,120,114,106,102,101,101,101,101,101,101,101,101,100,99,96],"timestamp_mouse":[11,37,51,71,91,111,131,151,170,190,211,231,249,271,291,311,330,350,370,390,410,431,451,471,491,510,531,550,569,591,610,631,651,671,690,711,731,750,771,789,811,831,850,871,890,911,929,950,970,990,1010,1030,1050,1070,1090,1110,1130,1150,1170,1190,1210,1231,1251,1270,1289,1310,1330,1351,1370,1390,1410,1431,1450,1470,1490,1510,1530,1550,1570,1591,1609,1631,1650,1670,1691,1710,1730,1750,1770,1790],"xSR":741.5,"ySR":449.15000000000003,"xT1":424.9,"yT1":0,"xT2":1058.1,"yT2":0,"toosoon":0,"cond_shown":"randomdotsizeEA","ratio_trial":900,"smaller_num":"18","larger_num":"20","correct_side":1,"subjID":"LauraAlejandraFajardoMolina12","gender":"1","age":"11","school":"6"},{"start_time":1551901439212,"click_time":1551901441366,"finger_time":1551901440165,"fix_duration":1345.6793100835218,"trial":14,"RT":953,"MT":1201,"sideResp":1,"stimulus":"img/750/randomdotsizeEA/R/2_Ratio_750_L_6_R_8.png","xmouse":[791,791,791,791,791,791,791,791,791,791,791,791,791,791,791,791,791,791,791,791,791,791,791,791,791,791,791,791,791,791,791,791,791,791,791,791,791,791,791,791,791,791,791,791,791,791,789,850,904,963,992,1014,1023,1033,1043,1055,1063,1085,1088,1088,1091,1093,1098,1101,1101,1101,1101,1101,1101,1098,1082,1052,960,908,882,819,764,685,656,639,626,621,621,613,600,599,591,584,582,579,576,571,563,562,561,561,561,561,561,561,561,560,556,547,540,532,525,523],"ymouse":[489,489,489,489,489,489,489,489,489,489,489,489,489,489,489,489,489,489,489,489,489,489,489,489,489,489,489,489,489,489,489,489,489,489,489,489,489,489,489,489,489,489,489,489,489,489,489,479,465,441,425,411,392,324,266,234,218,183,174,172,165,158,151,146,144,143,143,143,143,143,143,143,144,144,145,145,145,145,145,145,145,146,146,145,143,143,141,136,132,125,118,106,94,93,92,92,92,92,92,92,92,92,91,89,87,84,82,81],"timestamp_mouse":[14,36,54,73,92,114,133,153,173,194,214,234,253,273,293,314,333,352,374,393,412,433,453,473,493,513,533,552,574,593,613,634,653,672,693,713,734,753,773,793,814,834,854,873,894,914,934,953,973,993,1013,1034,1053,1074,1094,1113,1133,1153,1173,1193,1214,1234,1253,1273,1294,1313,1334,1354,1374,1394,1414,1433,1453,1473,1493,1514,1533,1553,1572,1593,1613,1633,1654,1673,1693,1713,1734,1753,1774,1793,1813,1833,1853,1873,1893,1913,1934,1954,1974,1994,2012,2034,2053,2073,2093,2114,2133,2154],"xSR":741.5,"ySR":449.15000000000003,"xT1":424.9,"yT1":0,"xT2":1058.1,"yT2":0,"toosoon":0,"cond_shown":"randomdotsizeEA","ratio_trial":750,"smaller_num":"6","larger_num":"8","correct_side":2,"subjID":"LauraAlejandraFajardoMolina12","gender":"1","age":"11","school":"6"},{"start_time":1551901443900,"click_time":1551901445065,"finger_time":1551901444765,"fix_duration":1352.2333245092648,"trial":15,"RT":865,"MT":300,"sideResp":2,"stimulus":"img/900/randomdotsizeEA/L/8_Ratio_900_L_20_R_18.png","xmouse":[822,822,822,822,822,822,822,822,822,822,822,822,822,822,822,822,822,822,822,822,822,822,822,822,822,822,822,822,822,822,822,822,822,822,822,822,822,822,822,822,822,823,830,956,1060,1180,1180,1180,1180,1180,1180,1180,1180,1180,1180,1180,1217,1167,1118],"ymouse":[479,479,479,479,479,479,479,479,479,479,479,479,479,479,479,479,479,479,479,479,479,479,479,479,479,479,479,479,479,479,479,479,479,479,479,479,479,479,479,479,479,479,466,312,191,51,51,51,51,51,51,51,51,51,51,51,6,23,32],"timestamp_mouse":[10,31,46,66,86,105,125,145,165,186,206,226,246,265,286,305,326,345,365,385,406,425,446,465,485,504,525,545,566,586,606,626,646,666,685,705,725,745,764,786,805,825,845,865,886,905,926,945,965,986,1005,1025,1046,1065,1085,1105,1126,1145,1165],"xSR":741.5,"ySR":449.15000000000003,"xT1":424.9,"yT1":0,"xT2":1058.1,"yT2":0,"toosoon":0,"cond_shown":"randomdotsizeEA","ratio_trial":900,"smaller_num":"18","larger_num":"20","correct_side":1,"subjID":"LauraAlejandraFajardoMolina12","gender":"1","age":"11","school":"6"},{"start_time":1551901447374,"click_time":1551901450806,"finger_time":1551901448466,"fix_duration":666.9805255220342,"trial":16,"RT":1092,"MT":2340,"sideResp":1,"stimulus":"img/750/equaldotsize/L/8_Ratio_750_L_4_R_3.png","xmouse":[780,780,780,780,780,780,780,780,780,780,780,780,780,780,780,780,780,780,780,780,780,780,780,780,780,780,780,780,780,780,780,780,780,780,780,780,780,780,780,780,780,780,780,780,780,780,780,780,780,780,780,780,780,766,735,695,661,645,641,641,641,641,641,637,615,592,554,545,539,534,532,532,532,532,532,532,532,532,531,530,530,530,530,530,530,530,530,530,530,530,529,529,529,529,529,529,529,529,529,529,529,529,529,529,529,529,529,529,529,529,529,529,529,529,529,529,529,529,529,529,529,529,529,529,529,529,529,529,529,529,528,528,527,527,526,526,526,526,526,526,526,526,526,526,526,526,526,526,526,526,525,525,525,525,525,525,525,525,525,525,525,525,525,525,525,525,525,525,525,525,525,523],"ymouse":[498,498,498,498,498,498,498,498,498,498,498,498,498,498,498,498,498,498,498,498,498,498,498,498,498,498,498,498,498,498,498,498,498,498,498,498,498,498,498,498,498,498,498,498,498,498,498,498,498,498,498,498,498,487,444,380,313,286,276,275,275,274,261,249,211,178,127,115,108,97,94,94,94,94,94,94,94,93,92,91,91,91,91,91,91,91,91,91,91,91,91,91,91,91,91,91,91,91,91,91,91,91,91,91,91,91,91,91,91,91,91,91,91,91,91,91,91,91,91,91,91,91,91,91,91,91,91,91,91,91,91,91,91,91,91,91,91,91,91,91,91,91,91,91,91,91,91,91,91,91,93,94,94,94,94,94,94,94,94,94,94,94,94,94,94,94,94,94,94,94,94,95],"timestamp_mouse":[11,40,52,72,91,112,131,152,171,191,211,232,251,271,291,312,331,351,371,391,412,431,452,471,491,511,532,551,571,591,612,631,651,672,691,712,732,751,772,791,811,832,852,871,891,911,931,952,971,992,1011,1031,1051,1071,1092,1112,1131,1151,1172,1192,1212,1231,1251,1271,1292,1311,1332,1352,1371,1391,1411,1431,1451,1471,1491,1512,1532,1552,1572,1592,1610,1632,1652,1672,1691,1712,1732,1751,1772,1792,1811,1831,1851,1872,1892,1912,1931,1952,1970,1992,2011,2031,2052,2071,2092,2112,2132,2152,2172,2192,2212,2231,2251,2271,2292,2312,2331,2352,2371,2391,2411,2431,2451,2471,2492,2512,2532,2551,2571,2592,2611,2631,2652,2672,2691,2711,2731,2752,2772,2792,2811,2832,2851,2871,2891,2912,2931,2951,2971,2992,3011,3031,3051,3072,3092,3112,3131,3152,3171,3190,3212,3231,3251,3272,3292,3311,3331,3351,3372,3391,3411,3432],"xSR":741.5,"ySR":449.15000000000003,"xT1":424.9,"yT1":0,"xT2":1058.1,"yT2":0,"toosoon":0,"cond_shown":"equaldotsize","ratio_trial":750,"smaller_num":"3","larger_num":"4","correct_side":1,"subjID":"LauraAlejandraFajardoMolina12","gender":"1","age":"11","school":"6"},{"start_time":1551901453567,"click_time":1551901455305,"finger_time":1551901454445,"fix_duration":1439.7478196612994,"trial":17,"RT":878,"MT":860,"sideResp":1,"stimulus":"img/750/equaldotanddens/L/6_Ratio_750_L_24_R_18.png","xmouse":[824,824,824,824,824,824,824,824,824,824,824,824,824,824,824,824,824,824,824,824,824,824,824,824,824,824,824,824,824,824,824,824,824,824,824,824,824,815,807,803,803,808,821,837,868,880,885,885,885,874,867,860,851,837,795,774,748,744,745,780,877,1034,1277,1576,1576,1576,1576,1576,1576,1576,1576,1555,1487,1372,1120,991,861,687,577,389,326,294,281,276,280,322,428],"ymouse":[528,528,528,528,528,528,528,528,528,528,528,528,528,528,528,528,528,528,528,528,528,528,528,528,528,528,528,528,528,528,528,528,528,528,528,528,528,528,525,506,499,475,453,433,402,390,384,383,379,349,328,310,287,261,200,176,146,134,126,115,103,99,99,99,99,99,99,99,99,99,99,185,187,181,142,124,105,83,77,60,59,59,59,59,59,59,61],"timestamp_mouse":[31,39,57,79,98,117,139,158,177,198,219,239,258,278,299,317,338,358,379,398,419,439,458,479,498,518,538,558,578,598,619,638,659,679,699,718,738,759,778,798,819,838,858,877,898,918,938,958,978,998,1018,1038,1059,1078,1099,1119,1138,1158,1178,1199,1218,1238,1259,1278,1298,1318,1338,1359,1378,1399,1418,1438,1458,1478,1498,1518,1538,1559,1578,1598,1618,1638,1659,1678,1698,1718,1738],"xSR":741.5,"ySR":449.15000000000003,"xT1":424.9,"yT1":0,"xT2":1058.1,"yT2":0,"toosoon":0,"cond_shown":"equaldotanddens","ratio_trial":750,"smaller_num":"18","larger_num":"24","correct_side":1,"subjID":"LauraAlejandraFajardoMolina12","gender":"1","age":"11","school":"6"},{"start_time":1551901495472,"click_time":1551901496305,"finger_time":1551901496064,"fix_duration":1205.6395878918152,"trial":18,"RT":592,"MT":241,"sideResp":2,"stimulus":"img/500/randomdotsizeEA/R/14_Ratio_500_L_5_R_10.png","xmouse":[821,821,821,821,821,821,821,821,821,821,821,821,821,821,821,821,821,821,821,821,821,821,821,821,821,822,824,825,828,847,867,896,942,975,1009,1011,1013,1017,1028,1042,1054,1060],"ymouse":[452,452,452,452,452,452,452,452,452,454,457,459,462,463,464,464,464,464,464,464,464,464,464,464,465,465,462,458,454,420,388,346,269,217,158,149,139,126,109,89,68,60],"timestamp_mouse":[12,41,52,73,93,112,134,153,172,193,213,233,253,272,293,312,334,353,372,394,412,432,452,474,493,512,533,553,572,592,612,632,653,672,693,713,732,754,773,793,812,832],"xSR":741.5,"ySR":449.15000000000003,"xT1":424.9,"yT1":0,"xT2":1058.1,"yT2":0,"toosoon":0,"cond_shown":"randomdotsizeEA","ratio_trial":500,"smaller_num":"5","larger_num":"10","correct_side":2,"subjID":"LauraAlejandraFajardoMolina12","gender":"1","age":"11","school":"6"},{"start_time":1551901498796,"click_time":1551901499825,"finger_time":1551901499525,"fix_duration":1008.129294878252,"trial":19,"RT":729,"MT":300,"sideResp":1,"stimulus":"img/250/equaldotsize/L/1_Ratio_250_L_8_R_2.png","xmouse":[770,770,770,770,770,770,770,770,770,770,770,770,771,771,771,771,771,771,771,771,771,771,771,771,771,771,771,771,771,771,771,771,771,771,771,771,755,718,672,596,579,575,575,575,574,571,568,566,564,544,533,523],"ymouse":[508,508,508,508,508,508,508,508,508,508,508,508,508,508,508,508,508,508,508,508,508,508,508,508,508,508,508,508,508,508,508,508,508,508,502,472,407,343,294,224,210,206,206,205,198,185,173,163,147,107,92,82],"timestamp_mouse":[10,32,49,69,90,109,130,149,170,188,209,230,249,268,288,309,328,349,368,388,410,428,448,468,489,509,529,550,568,590,608,630,648,668,690,708,729,749,768,788,809,829,848,869,888,908,928,950,968,988,1010,1028],"xSR":741.5,"ySR":449.15000000000003,"xT1":424.9,"yT1":0,"xT2":1058.1,"yT2":0,"toosoon":0,"cond_shown":"equaldotsize","ratio_trial":250,"smaller_num":"2","larger_num":"8","correct_side":1,"subjID":"LauraAlejandraFajardoMolina12","gender":"1","age":"11","school":"6"},{"start_time":1551901502786,"click_time":1551901504085,"finger_time":1551901503524,"fix_duration":280.8194706264572,"trial":20,"RT":738,"MT":561,"sideResp":2,"stimulus":"img/500/randomdotsizeEA/R/3_Ratio_500_L_10_R_20.png","xmouse":[817,817,817,816,816,816,816,816,816,816,816,816,816,816,816,816,816,816,816,816,816,816,816,816,816,816,816,816,816,816,816,816,818,820,837,839,843,854,896,935,963,991,1011,1017,1017,1017,1017,1017,1017,1017,1017,1017,1017,1017,1017,1037,1039,1045,1046,1047,1047,1049,1054,1057,1064],"ymouse":[467,467,467,467,467,467,467,467,467,467,467,467,467,467,467,467,467,467,467,467,467,467,467,467,467,467,467,467,467,467,467,467,467,467,466,465,464,438,299,246,182,117,39,5,5,5,5,5,5,5,5,5,5,5,5,9,21,32,34,34,34,34,36,36,39],"timestamp_mouse":[35,39,59,79,99,119,139,158,179,199,218,240,258,279,299,319,338,360,378,398,419,438,460,479,498,519,538,558,579,599,619,639,660,679,699,720,738,758,778,799,819,839,858,879,899,919,938,958,979,998,1019,1039,1059,1078,1098,1119,1138,1159,1178,1198,1218,1238,1259,1279,1299],"xSR":741.5,"ySR":449.15000000000003,"xT1":424.9,"yT1":0,"xT2":1058.1,"yT2":0,"toosoon":0,"cond_shown":"randomdotsizeEA","ratio_trial":500,"smaller_num":"10","larger_num":"20","correct_side":2,"subjID":"LauraAlejandraFajardoMolina12","gender":"1","age":"11","school":"6"},{"start_time":1551901508582,"click_time":1551901509624,"finger_time":1551901509144,"fix_duration":1096.1593191258069,"trial":21,"RT":562,"MT":480,"sideResp":2,"stimulus":"img/250/equaldotsize/R/10_Ratio_250_L_4_R_16.png","xmouse":[820,820,820,820,820,820,820,820,820,820,820,820,820,820,820,820,820,820,820,820,820,819,819,819,819,819,821,834,852,888,905,915,923,967,1102,1127,1135,1138,1143,1161,1166,1167,1167,1167,1167,1167,1167,1166,1165,1158,1155,1152,1150],"ymouse":[456,456,456,456,456,456,456,456,456,456,456,456,456,456,456,456,456,456,456,456,456,456,456,456,456,456,456,452,445,426,411,400,388,351,275,261,250,245,234,200,185,171,159,143,135,135,133,133,131,118,111,101,89],"timestamp_mouse":[10,31,42,63,83,103,123,144,163,182,203,223,242,263,283,302,323,342,362,384,402,422,443,462,484,502,523,542,562,583,602,623,642,662,684,703,722,742,764,783,802,822,843,864,883,902,922,942,962,983,1003,1022,1042],"xSR":741.5,"ySR":449.15000000000003,"xT1":424.9,"yT1":0,"xT2":1058.1,"yT2":0,"toosoon":0,"cond_shown":"equaldotsize","ratio_trial":250,"smaller_num":"4","larger_num":"16","correct_side":2,"subjID":"LauraAlejandraFajardoMolina12","gender":"1","age":"11","school":"6"},{"start_time":1551901515280,"click_time":1551901517026,"finger_time":1551901516065,"fix_duration":433.23144856207205,"trial":22,"RT":785,"MT":961,"sideResp":1,"stimulus":"img/500/equaldotanddens/L/11_Ratio_500_L_12_R_6.png","xmouse":[801,797,797,794,794,794,791,788,787,785,785,785,783,780,780,780,780,780,780,780,780,780,780,780,779,779,779,779,779,778,778,778,778,777,776,774,771,766,754,712,689,656,637,626,621,621,618,616,615,615,613,612,609,608,603,600,597,594,590,584,582,580,576,574,572,571,570,569,568,568,568,568,568,568,566,565,561,553,546,541,541,541,539,536,529,522,515,506],"ymouse":[476,477,477,478,478,478,478,478,478,479,479,479,479,480,480,480,480,480,480,480,480,480,480,480,480,480,480,480,480,480,480,480,480,480,480,480,479,478,469,447,436,420,412,407,405,405,404,402,401,401,399,398,395,393,387,382,378,374,369,361,358,353,341,332,328,317,311,305,302,298,296,294,288,282,268,262,252,241,233,224,220,216,207,198,174,153,120,90],"timestamp_mouse":[11,34,45,64,84,106,125,145,166,185,204,226,245,264,284,304,325,344,364,386,405,425,444,466,486,505,524,546,565,585,605,626,646,664,685,705,725,745,765,785,804,824,846,865,885,905,924,946,965,985,1005,1025,1045,1065,1086,1105,1124,1145,1165,1185,1204,1226,1245,1266,1284,1304,1324,1344,1364,1385,1404,1424,1445,1465,1485,1504,1525,1545,1564,1584,1604,1625,1645,1664,1685,1704,1724,1745],"xSR":741.5,"ySR":449.15000000000003,"xT1":424.9,"yT1":0,"xT2":1058.1,"yT2":0,"toosoon":0,"cond_shown":"equaldotanddens","ratio_trial":500,"smaller_num":"6","larger_num":"12","correct_side":1,"subjID":"LauraAlejandraFajardoMolina12","gender":"1","age":"11","school":"6"},{"start_time":1551901528121,"click_time":1551901529084,"finger_time":1551901528804,"fix_duration":1155.9838446253482,"trial":23,"RT":683,"MT":280,"sideResp":2,"stimulus":"img/750/equaldotsize/L/1_Ratio_750_L_20_R_15.png","xmouse":[782,782,782,782,782,782,782,782,782,782,782,782,782,782,782,782,782,782,782,782,782,782,782,782,782,782,782,782,782,782,782,782,801,830,873,925,968,1008,1058,1102,1134,1170,1203,1212,1209,1197,1183,1160,1134],"ymouse":[470,470,470,470,470,470,470,470,470,470,470,470,470,470,470,470,470,470,470,470,470,470,470,470,470,470,470,470,470,470,470,470,468,463,458,450,442,430,404,349,278,172,99,61,53,47,44,42,37],"timestamp_mouse":[11,23,43,64,83,104,123,143,163,184,204,224,244,263,283,303,324,343,363,384,403,423,443,463,483,504,524,544,563,583,603,624,643,663,683,703,723,744,764,783,803,824,843,864,883,903,924,943,963],"xSR":741.5,"ySR":449.15000000000003,"xT1":424.9,"yT1":0,"xT2":1058.1,"yT2":0,"toosoon":0,"cond_shown":"equaldotsize","ratio_trial":750,"smaller_num":"15","larger_num":"20","correct_side":1,"subjID":"LauraAlejandraFajardoMolina12","gender":"1","age":"11","school":"6"},{"start_time":1551901531276,"click_time":1551901532064,"finger_time":1551901531885,"fix_duration":1171.2848650243254,"trial":24,"RT":609,"MT":179,"sideResp":2,"stimulus":"img/500/equaldotsize/R/2_Ratio_500_L_3_R_6.png","xmouse":[801,801,801,801,801,801,801,801,801,801,801,801,801,801,801,801,801,801,801,801,801,801,801,801,801,801,801,801,801,804,878,957,1023,1068,1117,1122,1122,1113,1108,1118],"ymouse":[500,500,500,500,500,500,500,500,500,500,500,500,500,500,500,500,500,500,500,500,500,500,500,500,500,500,500,500,500,495,450,413,363,317,254,233,211,171,130,82],"timestamp_mouse":[10,37,48,68,88,108,128,148,169,188,208,229,248,269,288,308,328,347,369,388,408,428,448,468,489,508,528,549,568,589,609,628,648,669,689,708,728,748,769,788],"xSR":741.5,"ySR":449.15000000000003,"xT1":424.9,"yT1":0,"xT2":1058.1,"yT2":0,"toosoon":0,"cond_shown":"equaldotsize","ratio_trial":500,"smaller_num":"3","larger_num":"6","correct_side":2,"subjID":"LauraAlejandraFajardoMolina12","gender":"1","age":"11","school":"6"},{"start_time":1551901566077,"click_time":1551901567504,"finger_time":1551901566584,"fix_duration":331.9151088770882,"trial":25,"RT":507,"MT":920,"sideResp":1,"stimulus":"img/500/equaldotanddens/L/10_Ratio_500_L_4_R_2.png","xmouse":[818,818,818,818,818,818,818,818,818,818,818,818,818,818,818,818,818,818,818,818,818,818,818,820,837,842,846,848,849,849,851,864,880,899,956,973,980,985,991,1020,1030,1032,1024,1010,992,942,916,895,868,820,731,697,691,690,689,689,688,686,679,662,628,596,582,577,574,568,562,559,556,547,534,518],"ymouse":[509,509,509,509,509,509,509,509,509,509,509,509,509,509,509,509,509,509,509,509,509,509,509,509,509,509,509,509,509,509,509,505,498,486,447,430,421,410,401,358,333,314,302,294,290,284,279,276,270,268,265,259,258,257,257,257,257,257,256,248,233,216,210,209,206,201,195,192,185,131,99,64],"timestamp_mouse":[10,34,47,67,87,107,127,147,169,187,207,227,247,267,287,307,328,347,367,387,407,427,447,467,487,507,527,547,568,587,608,627,647,668,688,708,727,747,767,787,806,827,847,867,887,907,927,947,967,988,1007,1027,1047,1067,1088,1107,1127,1147,1167,1188,1208,1227,1248,1267,1288,1307,1327,1347,1367,1388,1407,1427],"xSR":741.5,"ySR":449.15000000000003,"xT1":424.9,"yT1":0,"xT2":1058.1,"yT2":0,"toosoon":0,"cond_shown":"equaldotanddens","ratio_trial":500,"smaller_num":"2","larger_num":"4","correct_side":1,"subjID":"LauraAlejandraFajardoMolina12","gender":"1","age":"11","school":"6"},{"start_time":1551901571785,"click_time":1551901573724,"finger_time":1551901572584,"fix_duration":540.9715871583066,"trial":26,"RT":799,"MT":1140,"sideResp":1,"stimulus":"img/750/equaldotsize/L/9_Ratio_750_L_4_R_3.png","xmouse":[771,771,771,771,771,771,771,771,771,771,771,771,771,771,771,771,771,771,771,771,771,772,772,773,773,773,773,773,773,773,773,773,773,773,773,773,775,776,779,779,779,779,777,769,768,766,764,761,755,746,723,701,683,672,669,669,671,675,676,677,671,641,553,325,276,276,276,276,276,276,276,276,276,276,261,326,404,483,556,700,740,762,774,780,780,761,729,689,602,563,543,526,518,517,517,512,506],"ymouse":[461,461,461,461,461,461,461,461,461,461,461,461,461,461,461,461,461,461,461,461,461,461,461,461,461,461,461,461,461,461,461,461,461,461,461,461,461,459,450,448,445,442,437,420,414,407,398,389,372,364,359,352,343,335,323,305,286,268,257,242,234,226,207,62,9,9,9,9,9,9,9,9,9,9,8,70,134,192,243,297,301,301,299,294,283,253,217,183,127,113,108,106,105,105,105,100,96],"timestamp_mouse":[33,39,59,80,99,119,139,159,179,199,220,239,259,280,300,319,339,360,378,400,420,439,460,480,499,519,539,559,579,600,619,640,659,679,700,719,739,759,779,799,819,840,859,879,899,920,939,959,980,998,1019,1039,1060,1080,1100,1119,1139,1158,1179,1200,1219,1239,1259,1279,1299,1320,1339,1360,1379,1400,1420,1440,1459,1479,1499,1519,1539,1559,1579,1599,1619,1639,1660,1680,1699,1719,1739,1760,1780,1800,1820,1840,1860,1879,1899,1918,1939],"xSR":741.5,"ySR":449.15000000000003,"xT1":424.9,"yT1":0,"xT2":1058.1,"yT2":0,"toosoon":0,"cond_shown":"equaldotsize","ratio_trial":750,"smaller_num":"3","larger_num":"4","correct_side":1,"subjID":"LauraAlejandraFajardoMolina12","gender":"1","age":"11","school":"6"},{"start_time":1551901581231,"click_time":1551901582504,"finger_time":1551901581965,"fix_duration":1424.4801867171773,"trial":27,"RT":734,"MT":539,"sideResp":2,"stimulus":"img/500/equaldotanddens/R/9_Ratio_500_L_2_R_4.png","xmouse":[806,806,806,806,806,806,806,806,806,806,806,806,806,806,806,806,806,806,806,806,806,806,806,806,806,806,806,806,806,806,806,809,809,809,810,814,874,912,939,951,961,982,1010,1077,1121,1150,1173,1178,1180,1181,1181,1181,1181,1181,1181,1181,1180,1177,1174,1171,1168,1163,1160,1156],"ymouse":[495,495,495,495,495,495,495,495,495,495,495,495,495,495,495,495,495,495,495,495,495,495,495,495,495,495,495,495,495,495,490,477,473,473,471,469,443,416,388,367,343,301,275,225,194,166,129,112,97,86,79,74,74,74,74,74,74,74,74,74,74,74,74,75],"timestamp_mouse":[13,33,53,73,93,114,133,154,172,194,213,233,254,273,293,313,332,353,374,393,413,434,453,473,493,513,534,554,573,593,614,633,653,673,693,714,734,752,772,794,814,833,852,874,894,914,933,953,972,993,1013,1034,1052,1073,1092,1112,1134,1153,1173,1193,1212,1233,1253,1273],"xSR":741.5,"ySR":449.15000000000003,"xT1":424.9,"yT1":0,"xT2":1058.1,"yT2":0,"toosoon":0,"cond_shown":"equaldotanddens","ratio_trial":500,"smaller_num":"2","larger_num":"4","correct_side":2,"subjID":"LauraAlejandraFajardoMolina12","gender":"1","age":"11","school":"6"},{"start_time":1551901598551,"click_time":1551901600064,"finger_time":1551901599204,"fix_duration":645.8906612217571,"trial":28,"RT":653,"MT":860,"sideResp":2,"stimulus":"img/250/equaldotanddens/R/9_Ratio_250_L_3_R_12.png","xmouse":[829,829,829,829,829,829,829,829,829,829,829,829,829,829,829,829,829,829,829,829,829,829,829,829,829,829,829,829,829,830,835,841,848,853,857,874,893,908,913,915,916,921,921,922,924,926,935,943,948,951,956,967,975,985,996,1005,1010,1010,1017,1022,1036,1040,1045,1047,1047,1047,1047,1047,1047,1047,1048,1048,1051,1056,1062,1071],"ymouse":[505,505,505,505,505,505,505,505,505,505,505,505,505,505,505,505,505,505,505,505,505,505,505,505,505,505,505,505,505,505,505,505,505,505,504,488,470,457,452,450,447,439,437,433,430,425,410,392,378,367,355,339,329,317,305,294,286,284,273,262,243,237,228,222,221,216,205,182,170,162,153,149,140,127,114,93],"timestamp_mouse":[13,35,53,72,92,114,134,153,173,193,212,234,254,274,293,314,334,353,372,392,413,432,454,472,493,514,533,552,573,594,613,633,653,672,693,713,732,752,772,794,812,833,853,873,893,912,933,953,973,993,1012,1032,1052,1073,1093,1113,1132,1153,1172,1193,1214,1233,1253,1273,1293,1313,1332,1353,1372,1393,1412,1433,1452,1474,1494,1513],"xSR":741.5,"ySR":449.15000000000003,"xT1":424.9,"yT1":0,"xT2":1058.1,"yT2":0,"toosoon":0,"cond_shown":"equaldotanddens","ratio_trial":250,"smaller_num":"3","larger_num":"12","correct_side":2,"subjID":"LauraAlejandraFajardoMolina12","gender":"1","age":"11","school":"6"},{"start_time":1551901603022,"click_time":1551901604124,"finger_time":1551901603603,"fix_duration":1196.2196900194174,"trial":29,"RT":581,"MT":521,"sideResp":2,"stimulus":"img/500/equaldotsize/R/6_Ratio_500_L_9_R_18.png","xmouse":[763,763,763,763,763,763,763,763,763,763,763,763,763,763,763,763,763,763,763,763,763,763,763,763,763,763,764,773,831,878,920,947,994,1016,1037,1040,1042,1044,1056,1061,1072,1090,1106,1111,1114,1115,1116,1117,1117,1117,1117,1117,1117,1118,1119,1119],"ymouse":[474,474,474,473,473,473,473,473,473,473,473,473,473,473,473,473,473,473,473,473,473,473,473,473,473,473,473,473,468,453,437,425,409,402,393,391,389,380,339,327,303,257,198,171,145,138,134,132,132,132,131,128,125,110,104,98],"timestamp_mouse":[9,23,41,62,82,102,121,143,163,181,202,222,241,262,282,302,322,341,362,383,402,421,443,462,483,502,523,541,562,581,602,622,642,662,681,703,723,741,762,783,803,822,842,862,881,902,922,942,962,983,1002,1022,1043,1062,1082,1102],"xSR":741.5,"ySR":449.15000000000003,"xT1":424.9,"yT1":0,"xT2":1058.1,"yT2":0,"toosoon":0,"cond_shown":"equaldotsize","ratio_trial":500,"smaller_num":"9","larger_num":"18","correct_side":2,"subjID":"LauraAlejandraFajardoMolina12","gender":"1","age":"11","school":"6"},{"start_time":1551901621116,"click_time":1551901623305,"finger_time":1551901622344,"fix_duration":250,"trial":30,"RT":1228,"MT":961,"sideResp":2,"stimulus":"img/900/equaldotsize/L/4_Ratio_900_L_20_R_18.png","xmouse":[777,776,776,776,776,776,776,776,776,776,776,776,776,776,776,776,776,776,776,776,776,776,776,776,776,776,776,776,776,776,776,776,776,776,776,776,776,776,776,776,776,776,776,776,776,776,776,776,776,776,776,776,776,776,776,776,776,776,776,776,808,906,1150,1226,1265,1285,1295,1296,1296,1296,1296,1296,1303,1380,1425,1433,1429,1423,1407,1399,1387,1360,1342,1326,1318,1307,1295,1267,1258,1245,1226,1223,1223,1222,1222,1222,1222,1222,1220,1190,1181,1174,1171,1171,1171,1171,1171,1169,1165,1157],"ymouse":[607,607,607,607,607,607,607,607,607,607,607,607,607,607,607,607,607,607,607,607,607,607,607,607,607,607,607,607,607,607,607,607,607,607,607,607,607,607,607,607,607,607,607,607,607,607,607,607,607,607,607,607,607,607,607,607,607,607,607,607,607,607,627,638,645,648,649,650,650,650,650,650,648,603,562,543,521,505,448,417,393,348,286,176,114,58,34,0,0,0,0,0,0,0,0,0,0,0,0,14,18,21,23,24,24,24,24,28,31,36],"timestamp_mouse":[10,33,47,67,87,108,129,147,167,188,209,227,247,268,287,308,328,349,368,388,408,429,447,467,489,509,529,548,569,588,608,628,648,669,687,709,729,747,767,788,809,827,849,867,888,907,928,947,969,987,1007,1028,1047,1067,1089,1107,1128,1147,1168,1187,1207,1228,1248,1267,1289,1308,1328,1348,1367,1389,1408,1427,1448,1468,1488,1509,1527,1547,1568,1587,1609,1628,1648,1667,1687,1709,1728,1748,1767,1788,1809,1829,1848,1868,1888,1908,1928,1948,1967,1988,2008,2028,2048,2069,2088,2107,2127,2147,2169,2189],"xSR":741.5,"ySR":573.95,"xT1":424.9,"yT1":0,"xT2":1058.1,"yT2":0,"toosoon":0,"cond_shown":"equaldotsize","ratio_trial":900,"smaller_num":"18","larger_num":"20","correct_side":1,"subjID":"LauraAlejandraFajardoMolina12","gender":"1","age":"11","school":"6"},{"start_time":1551901636361,"click_time":1551901637725,"finger_time":1551901637304,"fix_duration":1437.6571850205994,"trial":31,"RT":943,"MT":421,"sideResp":1,"stimulus":"img/750/randomdotsizeEA/L/9_Ratio_750_L_4_R_3.png","xmouse":[797,797,797,797,797,797,797,797,797,797,797,797,797,797,797,797,797,797,797,797,797,797,797,797,797,797,797,797,797,797,797,797,797,797,797,797,797,797,797,797,794,790,788,784,782,775,763,732,706,671,590,570,556,547,540,531,529,529,529,529,528,525,520,516,512,506,501,494,483],"ymouse":[616,616,616,616,616,616,616,616,616,616,616,616,616,616,616,616,616,616,616,616,616,616,616,616,616,616,616,616,616,616,616,616,616,616,616,616,616,616,616,616,616,616,616,616,615,612,604,590,575,552,475,450,425,400,377,338,322,308,293,268,206,175,157,147,141,128,119,106,83],"timestamp_mouse":[10,34,43,63,82,103,123,143,162,183,203,223,242,262,282,302,323,344,364,384,403,422,443,463,483,502,523,543,562,584,603,623,643,664,684,703,722,743,763,784,803,824,842,863,884,903,924,943,962,982,1002,1022,1043,1063,1083,1103,1122,1144,1162,1182,1202,1222,1243,1264,1283,1303,1323,1342,1363],"xSR":741.5,"ySR":573.95,"xT1":424.9,"yT1":0,"xT2":1058.1,"yT2":0,"toosoon":0,"cond_shown":"randomdotsizeEA","ratio_trial":750,"smaller_num":"3","larger_num":"4","correct_side":1,"subjID":"LauraAlejandraFajardoMolina12","gender":"1","age":"11","school":"6"},{"start_time":1551901640824,"click_time":1551901642863,"finger_time":1551901642083,"fix_duration":839.973312466868,"trial":32,"RT":1259,"MT":780,"sideResp":1,"stimulus":"img/750/randomdotsizeEA/L/8_Ratio_750_L_4_R_3.png","xmouse":[770,770,770,770,770,770,770,770,770,770,770,770,770,770,770,770,770,770,770,770,770,770,770,770,770,770,771,771,771,771,771,771,771,771,771,771,771,771,771,771,771,771,771,771,771,771,771,771,771,771,771,771,771,771,771,771,771,771,771,769,768,763,753,742,737,727,716,706,703,700,698,695,684,678,675,665,655,621,593,570,559,555,554,552,547,528,522,522,521,519,511,501,490,489,489,489,488,487,487,487,487,487,489],"ymouse":[590,590,590,590,590,590,590,590,590,590,590,590,590,590,590,590,590,590,590,590,590,590,590,590,590,590,590,590,590,590,590,590,590,590,590,590,590,590,590,590,590,590,590,590,590,590,590,590,590,590,590,590,590,590,590,590,590,590,590,589,587,584,574,561,555,541,518,485,474,461,446,425,375,347,339,315,295,253,222,198,178,160,140,131,127,125,125,125,124,122,118,115,111,110,110,110,109,104,103,102,101,100,96],"timestamp_mouse":[1,19,39,60,80,100,119,141,159,180,200,220,239,260,280,301,320,340,360,380,399,420,441,461,480,500,520,541,559,579,599,621,641,659,680,699,721,739,760,780,799,819,840,859,879,900,919,940,960,980,1000,1019,1040,1059,1079,1099,1121,1139,1159,1180,1200,1219,1239,1259,1280,1299,1320,1339,1359,1380,1400,1419,1439,1459,1479,1499,1520,1539,1559,1579,1599,1619,1640,1660,1680,1700,1720,1739,1759,1779,1800,1819,1839,1860,1879,1899,1921,1939,1959,1979,1999,2019,2039],"xSR":741.5,"ySR":573.95,"xT1":424.9,"yT1":0,"xT2":1058.1,"yT2":0,"toosoon":0,"cond_shown":"randomdotsizeEA","ratio_trial":750,"smaller_num":"3","larger_num":"4","correct_side":1,"subjID":"LauraAlejandraFajardoMolina12","gender":"1","age":"11","school":"6"},{"start_time":1551901647732,"click_time":1551901648664,"finger_time":1551901648485,"fix_duration":567.9221937300628,"trial":33,"RT":753,"MT":179,"sideResp":1,"stimulus":"img/500/randomdotsizeEA/L/13_Ratio_500_L_12_R_6.png","xmouse":[804,804,804,804,804,804,804,804,804,804,804,804,804,804,804,804,804,804,804,804,804,804,804,804,804,804,804,804,804,804,804,804,804,802,799,793,765,745,722,696,649,611,555,538,527,523,515],"ymouse":[650,650,650,650,650,650,650,650,650,650,650,650,650,650,650,650,650,650,650,650,650,650,650,650,650,650,650,650,650,650,650,650,650,649,647,639,594,555,499,437,357,300,211,176,140,114,70],"timestamp_mouse":[11,31,52,71,91,112,131,151,171,191,212,231,251,271,291,311,331,351,371,391,411,432,451,471,491,511,531,551,572,591,611,631,651,672,691,711,731,753,771,791,812,831,852,871,891,912,932],"xSR":741.5,"ySR":573.95,"xT1":424.9,"yT1":0,"xT2":1058.1,"yT2":0,"toosoon":0,"cond_shown":"randomdotsizeEA","ratio_trial":500,"smaller_num":"6","larger_num":"12","correct_side":1,"subjID":"LauraAlejandraFajardoMolina12","gender":"1","age":"11","school":"6"},{"start_time":1551901650915,"click_time":1551901652103,"finger_time":1551901651903,"fix_duration":250,"trial":34,"RT":988,"MT":200,"sideResp":1,"stimulus":"img/900/randomdotsizeEA/L/4_Ratio_900_L_20_R_18.png","xmouse":[759,759,759,759,759,760,762,762,762,762,764,764,764,764,764,764,764,764,765,767,768,768,768,768,769,769,769,769,769,769,769,769,768,768,768,768,768,768,768,768,768,768,768,766,764,762,759,757,754,739,717,695,645,619,589,557,533,477,460,450],"ymouse":[610,610,610,610,611,611,612,612,612,612,613,613,613,613,613,613,613,613,613,613,613,613,613,613,613,613,613,613,613,614,616,618,620,621,622,622,622,622,622,622,622,622,622,621,619,616,611,606,595,542,493,442,340,297,258,224,199,142,113,91],"timestamp_mouse":[8,37,49,69,89,108,129,148,168,189,209,228,249,268,289,308,328,349,368,388,408,428,448,468,488,508,529,549,568,588,608,628,648,670,689,709,729,748,769,788,809,828,848,869,889,909,928,948,969,988,1009,1028,1048,1068,1088,1108,1128,1148,1168,1188],"xSR":741.5,"ySR":573.95,"xT1":424.9,"yT1":0,"xT2":1058.1,"yT2":0,"toosoon":0,"cond_shown":"randomdotsizeEA","ratio_trial":900,"smaller_num":"18","larger_num":"20","correct_side":1,"subjID":"LauraAlejandraFajardoMolina12","gender":"1","age":"11","school":"6"},{"start_time":1551901654889,"click_time":1551901656263,"finger_time":1551901655704,"fix_duration":1364.1242281696798,"trial":35,"RT":815,"MT":559,"sideResp":2,"stimulus":"img/250/randomdotsizeEA/R/6_Ratio_250_L_6_R_24.png","xmouse":[793,793,793,793,793,793,793,793,793,793,793,793,793,793,793,793,793,793,793,793,793,793,793,793,793,793,793,793,793,793,793,793,793,795,797,798,799,801,801,803,817,829,836,876,893,909,922,934,958,966,977,991,1005,1018,1025,1028,1029,1029,1029,1029,1030,1032,1032,1033,1033,1033,1037,1045,1068],"ymouse":[609,609,609,609,609,609,609,609,609,609,609,609,609,609,609,609,609,609,609,609,609,609,609,609,609,609,609,609,609,609,609,609,610,610,609,604,601,596,589,576,556,541,530,470,441,409,390,371,329,315,291,266,242,224,213,208,204,202,200,200,197,184,177,172,167,160,148,131,82],"timestamp_mouse":[14,37,54,75,94,114,134,154,175,194,215,234,255,274,294,314,334,354,375,394,415,434,455,474,494,514,535,554,575,595,615,635,655,674,695,714,734,754,774,795,815,834,854,875,894,915,934,954,974,994,1014,1034,1055,1074,1094,1114,1134,1154,1175,1195,1214,1234,1254,1274,1294,1315,1334,1355,1374],"xSR":741.5,"ySR":573.95,"xT1":424.9,"yT1":0,"xT2":1058.1,"yT2":0,"toosoon":0,"cond_shown":"randomdotsizeEA","ratio_trial":250,"smaller_num":"6","larger_num":"24","correct_side":2,"subjID":"LauraAlejandraFajardoMolina12","gender":"1","age":"11","school":"6"},{"start_time":1551901658649,"click_time":1551901661383,"finger_time":1551901659463,"fix_duration":643.3876613777621,"trial":36,"RT":814,"MT":1920,"sideResp":2,"stimulus":"img/500/equaldotsize/R/14_Ratio_500_L_5_R_10.png","xmouse":[818,818,818,818,818,818,818,818,818,818,818,818,818,818,818,818,818,818,818,818,818,818,818,818,818,818,818,818,818,818,818,818,818,818,818,818,818,819,822,826,827,836,839,858,872,909,928,951,982,982,1008,1021,1033,1050,1057,1059,1069,1069,1069,1066,1065,1064,1064,1064,1064,1076,1081,1083,1086,1089,1094,1098,1101,1102,1103,1103,1103,1103,1103,1103,1103,1103,1103,1103,1103,1103,1103,1103,1103,1103,1103,1103,1103,1103,1103,1103,1103,1103,1103,1103,1103,1103,1103,1100,1092,1088,1088,1088,1088,1088,1088,1088,1088,1088,1088,1088,1088,1088,1088,1088,1088,1088,1088,1088,1088,1088,1088,1088,1088,1088,1088,1088,1088,1088,1088,1094,1099],"ymouse":[588,588,588,588,588,588,588,588,588,588,588,588,588,588,588,588,588,588,588,588,588,588,588,588,588,588,588,588,588,588,588,588,588,588,588,588,588,586,582,575,572,555,550,520,501,470,457,443,414,413,366,337,317,282,265,262,230,230,222,217,216,214,211,211,209,187,178,173,170,167,161,157,152,150,149,148,148,148,148,148,148,148,148,148,148,148,148,148,148,148,148,148,148,148,148,148,148,148,148,148,148,148,148,148,148,148,148,148,148,148,148,148,148,148,148,148,148,148,148,148,148,148,148,148,148,148,147,147,147,147,147,147,147,147,147,114,95],"timestamp_mouse":[23,35,54,75,94,114,134,155,175,194,215,234,254,274,294,314,334,355,375,394,415,434,454,475,495,515,535,554,575,594,615,635,654,675,694,714,736,754,775,795,814,835,855,874,895,914,934,955,974,995,1015,1034,1056,1074,1094,1114,1134,1154,1174,1195,1214,1235,1254,1274,1295,1314,1334,1354,1374,1394,1415,1434,1455,1476,1494,1515,1535,1555,1574,1595,1614,1634,1654,1674,1694,1714,1734,1754,1774,1794,1814,1834,1854,1874,1894,1914,1934,1954,1975,1994,2015,2034,2056,2074,2095,2114,2134,2154,2174,2194,2215,2234,2254,2274,2294,2314,2334,2354,2375,2394,2414,2434,2455,2474,2494,2514,2535,2554,2574,2594,2615,2635,2654,2675,2694,2714,2734],"xSR":741.5,"ySR":573.95,"xT1":424.9,"yT1":0,"xT2":1058.1,"yT2":0,"toosoon":0,"cond_shown":"equaldotsize","ratio_trial":500,"smaller_num":"5","larger_num":"10","correct_side":2,"subjID":"LauraAlejandraFajardoMolina12","gender":"1","age":"11","school":"6"},{"start_time":1551901668123,"click_time":1551901669703,"finger_time":1551901668883,"fix_duration":1459.7224268101152,"trial":37,"RT":760,"MT":820,"sideResp":1,"stimulus":"img/250/equaldotanddens/L/1_Ratio_250_L_8_R_2.png","xmouse":[779,779,779,779,779,779,779,779,779,779,779,779,779,779,779,779,779,779,779,779,779,779,779,779,779,779,779,779,779,779,779,779,779,779,779,779,777,759,738,708,698,692,689,688,686,686,686,686,686,686,686,686,677,668,660,643,626,609,599,599,599,599,597,597,594,578,575,555,544,544,544,544,544,544,543,542,541,538,533,516],"ymouse":[631,631,631,631,631,631,631,631,631,631,631,631,631,631,631,631,631,631,631,631,631,631,631,631,631,631,631,631,631,631,631,631,631,631,631,631,631,612,596,564,551,538,517,502,488,478,459,418,395,373,338,313,238,193,165,131,102,75,63,63,63,63,62,62,62,63,63,66,68,68,68,68,68,68,68,68,68,68,69,71],"timestamp_mouse":[1,21,42,60,81,101,120,140,160,181,201,221,240,262,281,301,321,340,360,380,401,421,440,460,481,501,520,540,560,581,600,621,641,660,680,700,720,740,760,781,800,821,840,860,881,900,921,940,960,981,1001,1020,1040,1060,1081,1101,1120,1140,1160,1180,1200,1220,1240,1260,1280,1301,1320,1341,1361,1380,1401,1422,1441,1461,1481,1501,1520,1540,1561,1580],"xSR":741.5,"ySR":573.95,"xT1":424.9,"yT1":0,"xT2":1058.1,"yT2":0,"toosoon":0,"cond_shown":"equaldotanddens","ratio_trial":250,"smaller_num":"2","larger_num":"8","correct_side":1,"subjID":"LauraAlejandraFajardoMolina12","gender":"1","age":"11","school":"6"},{"start_time":1551901675119,"click_time":1551901676103,"finger_time":1551901675903,"fix_duration":315.74266891659084,"trial":38,"RT":784,"MT":200,"sideResp":1,"stimulus":"img/500/randomdotsizeEA/L/7_Ratio_500_L_10_R_5.png","xmouse":[813,813,813,813,813,813,813,813,813,813,813,813,813,813,813,813,813,813,813,813,813,813,813,813,813,813,813,813,813,813,813,813,813,813,813,813,811,802,794,781,760,747,717,696,672,644,611,553,531,511],"ymouse":[626,626,626,626,626,626,626,626,626,626,626,626,626,626,626,626,626,626,626,626,626,626,626,626,626,626,626,626,626,626,626,626,626,626,626,626,626,609,590,570,541,527,489,455,413,363,305,187,136,87],"timestamp_mouse":[13,25,44,65,84,105,124,144,164,185,204,225,245,264,284,305,325,346,364,384,405,425,444,464,484,505,526,545,564,586,604,625,644,664,685,704,725,745,764,784,804,824,845,864,884,904,924,944,964,984],"xSR":741.5,"ySR":573.95,"xT1":424.9,"yT1":0,"xT2":1058.1,"yT2":0,"toosoon":0,"cond_shown":"randomdotsizeEA","ratio_trial":500,"smaller_num":"5","larger_num":"10","correct_side":1,"subjID":"LauraAlejandraFajardoMolina12","gender":"1","age":"11","school":"6"},{"start_time":1551901678002,"click_time":1551901679704,"finger_time":1551901679343,"fix_duration":857.4127418513252,"trial":39,"RT":1341,"MT":361,"sideResp":2,"stimulus":"img/750/equaldotsize/R/3_Ratio_750_L_15_R_20.png","xmouse":[792,792,792,792,792,792,792,792,792,792,792,792,792,792,792,792,792,792,792,792,792,792,792,792,792,792,792,792,792,792,792,792,792,792,792,792,792,792,792,792,794,796,797,800,800,800,800,800,800,800,800,800,800,800,800,800,800,800,800,800,795,792,791,790,790,790,790,800,815,820,825,833,845,859,900,910,934,957,1009,1023,1035,1067,1100,1128,1148,1148],"ymouse":[631,631,631,631,631,631,631,631,631,631,631,631,631,631,631,631,631,631,631,631,631,631,631,631,631,631,631,631,631,631,631,631,631,631,631,631,631,631,631,631,631,630,630,628,628,628,628,628,628,628,628,628,628,628,628,628,628,628,626,620,608,595,587,579,576,576,574,537,486,478,471,461,450,435,403,396,378,360,313,299,287,245,194,151,103,93],"timestamp_mouse":[8,32,41,61,81,101,121,141,161,181,202,223,241,261,281,301,321,341,361,381,401,421,442,461,481,502,521,541,562,581,601,621,641,661,682,701,722,741,762,781,801,821,842,861,882,901,922,941,961,981,1001,1021,1041,1062,1081,1101,1121,1142,1161,1182,1202,1221,1242,1261,1281,1301,1321,1341,1362,1381,1401,1422,1441,1462,1481,1502,1521,1541,1561,1581,1601,1622,1641,1662,1682,1701],"xSR":741.5,"ySR":573.95,"xT1":424.9,"yT1":0,"xT2":1058.1,"yT2":0,"toosoon":0,"cond_shown":"equaldotsize","ratio_trial":750,"smaller_num":"15","larger_num":"20","correct_side":2,"subjID":"LauraAlejandraFajardoMolina12","gender":"1","age":"11","school":"6"},{"start_time":1551901680917,"click_time":1551901682363,"finger_time":1551901681763,"fix_duration":273.3618978405753,"trial":40,"RT":846,"MT":600,"sideResp":2,"stimulus":"img/750/equaldotsize/R/2_Ratio_750_L_6_R_8.png","xmouse":[809,809,809,809,809,809,809,809,809,809,809,809,809,809,809,809,809,809,809,809,809,809,809,809,809,809,809,809,809,809,809,809,809,809,809,809,809,809,809,809,809,809,826,836,849,862,876,914,931,980,1006,1036,1064,1085,1105,1117,1125,1131,1131,1131,1131,1131,1131,1131,1131,1131,1128,1127,1127,1127,1127,1127,1127],"ymouse":[619,619,619,619,619,619,619,619,619,619,619,619,619,619,619,619,619,619,619,619,619,619,619,619,619,619,619,619,619,619,619,619,619,619,619,619,619,619,619,607,591,584,559,540,519,495,473,422,396,326,286,244,207,187,170,158,146,132,132,129,129,129,129,129,128,125,120,114,108,105,104,103,99],"timestamp_mouse":[15,38,46,66,86,107,126,147,166,187,206,226,247,266,286,306,326,346,366,386,406,427,447,466,486,507,526,547,566,586,606,626,646,666,688,707,727,746,766,786,806,826,846,866,886,906,927,947,966,987,1007,1026,1046,1067,1086,1106,1126,1146,1166,1186,1207,1226,1247,1267,1286,1307,1326,1346,1366,1386,1407,1427,1446],"xSR":741.5,"ySR":573.95,"xT1":424.9,"yT1":0,"xT2":1058.1,"yT2":0,"toosoon":0,"cond_shown":"equaldotsize","ratio_trial":750,"smaller_num":"6","larger_num":"8","correct_side":2,"subjID":"LauraAlejandraFajardoMolina12","gender":"1","age":"11","school":"6"},{"start_time":1551901683596,"click_time":1551901685163,"finger_time":1551901684323,"fix_duration":250,"trial":41,"RT":727,"MT":840,"sideResp":1,"stimulus":"img/500/randomdotsizeEA/R/1_Ratio_500_L_9_R_18.png","xmouse":[818,818,818,818,818,818,818,818,818,818,818,818,818,818,818,818,818,818,818,818,818,818,818,818,818,818,818,818,818,818,814,809,805,789,775,759,745,727,687,665,643,627,608,594,592,591,591,590,585,583,581,578,575,574,572,571,570,568,567,566,566,566,566,566,566,566,566,566,566,566,566,566,566,566,566,566,556,535,509],"ymouse":[619,619,619,619,619,619,619,619,619,619,619,619,619,619,619,619,619,619,619,619,619,619,619,619,619,619,619,619,619,619,619,619,619,612,603,577,555,523,447,410,375,347,313,269,251,238,216,203,169,155,144,131,121,114,99,87,77,71,56,51,46,45,45,45,45,45,45,45,45,45,45,45,45,45,45,45,45,45,45],"timestamp_mouse":[9,32,48,68,88,108,128,147,167,187,208,228,247,268,287,308,328,347,368,387,408,427,448,467,487,508,527,548,567,587,608,628,648,668,688,707,727,748,767,787,807,828,848,867,887,907,927,947,968,987,1007,1028,1047,1068,1088,1108,1127,1147,1168,1187,1207,1227,1249,1268,1288,1307,1327,1348,1367,1388,1407,1427,1448,1467,1487,1507,1527,1548,1567],"xSR":741.5,"ySR":573.95,"xT1":424.9,"yT1":0,"xT2":1058.1,"yT2":0,"toosoon":0,"cond_shown":"randomdotsizeEA","ratio_trial":500,"smaller_num":"9","larger_num":"18","correct_side":2,"subjID":"LauraAlejandraFajardoMolina12","gender":"1","age":"11","school":"6"},{"start_time":1551901687256,"click_time":1551901688663,"finger_time":1551901688064,"fix_duration":250,"trial":42,"RT":808,"MT":599,"sideResp":1,"stimulus":"img/750/equaldotsize/L/6_Ratio_750_L_24_R_18.png","xmouse":[803,803,803,803,803,803,800,799,799,799,799,799,799,799,799,799,799,799,799,799,799,799,799,799,799,799,799,799,799,799,799,799,799,799,799,799,799,799,797,794,783,781,781,779,774,766,737,720,713,699,676,668,656,643,621,601,597,597,597,597,586,575,563,563,563,562,550,545,538,535,523],"ymouse":[603,603,603,603,603,603,603,603,603,603,603,603,603,603,603,603,603,603,603,603,603,603,603,603,603,603,603,603,603,603,603,603,603,603,603,603,603,603,603,598,565,555,555,542,519,491,407,370,355,323,270,249,224,205,180,154,144,143,141,141,136,131,124,123,123,122,112,106,99,94,79],"timestamp_mouse":[15,41,47,67,88,107,128,147,167,189,207,227,248,267,287,308,327,348,369,387,407,427,447,468,487,507,528,548,567,588,607,627,647,668,688,707,728,747,767,788,808,827,847,868,887,907,927,947,968,988,1008,1027,1048,1067,1087,1107,1127,1147,1168,1187,1207,1227,1247,1267,1288,1307,1327,1348,1368,1387,1407],"xSR":741.5,"ySR":573.95,"xT1":424.9,"yT1":0,"xT2":1058.1,"yT2":0,"toosoon":0,"cond_shown":"equaldotsize","ratio_trial":750,"smaller_num":"18","larger_num":"24","correct_side":1,"subjID":"LauraAlejandraFajardoMolina12","gender":"1","age":"11","school":"6"},{"start_time":1551901700169,"click_time":1551901701163,"finger_time":1551901700804,"fix_duration":403.26511248226416,"trial":43,"RT":635,"MT":359,"sideResp":1,"stimulus":"img/500/equaldotanddens/L/10_Ratio_500_L_4_R_2.png","xmouse":[755,755,755,755,755,755,755,755,755,755,755,755,755,755,755,755,755,755,755,755,755,755,755,755,755,755,755,755,755,750,748,743,732,726,702,684,664,648,626,590,572,557,547,540,534,532,529,525,522,519],"ymouse":[590,590,590,590,590,590,590,590,590,590,590,590,590,590,590,590,590,590,590,590,590,590,590,590,590,590,590,590,590,583,580,566,541,521,483,464,444,427,391,319,281,246,215,189,151,136,121,111,100,94],"timestamp_mouse":[14,34,54,75,95,115,134,155,174,194,214,234,254,274,294,315,336,355,375,394,415,434,455,475,494,515,534,554,575,594,614,635,654,674,694,714,734,754,774,794,814,835,855,875,894,914,935,955,975,994],"xSR":741.5,"ySR":573.95,"xT1":424.9,"yT1":0,"xT2":1058.1,"yT2":0,"toosoon":0,"cond_shown":"equaldotanddens","ratio_trial":500,"smaller_num":"2","larger_num":"4","correct_side":1,"subjID":"LauraAlejandraFajardoMolina12","gender":"1","age":"11","school":"6"},{"start_time":1551901702767,"click_time":1551901704083,"finger_time":1551901703543,"fix_duration":742.0799058725349,"trial":44,"RT":776,"MT":540,"sideResp":1,"stimulus":"img/500/equaldotanddens/L/10_Ratio_500_L_4_R_2.png","xmouse":[777,777,777,777,777,777,777,777,777,777,777,777,777,777,777,777,777,777,777,777,777,777,777,777,777,777,777,777,777,777,777,777,777,778,778,777,774,770,767,764,762,761,758,751,723,698,651,613,595,567,530,473,417,376,347,346,346,357,362,376,392,412,425,432,448,459],"ymouse":[622,622,622,622,622,622,622,622,622,622,622,622,622,622,622,622,622,622,622,622,622,622,622,622,622,622,622,622,622,622,622,622,622,620,609,603,590,575,548,529,523,523,515,502,450,420,373,326,301,263,234,196,155,117,59,35,14,0,0,0,0,0,0,0,0,7],"timestamp_mouse":[18,35,56,76,96,115,136,156,177,195,217,237,255,275,296,317,335,357,375,397,417,436,456,477,496,516,536,557,576,595,615,636,655,675,696,716,735,755,776,795,817,837,855,875,896,915,935,957,975,995,1017,1035,1057,1076,1097,1115,1136,1156,1177,1196,1216,1235,1256,1275,1297,1316],"xSR":741.5,"ySR":573.95,"xT1":424.9,"yT1":0,"xT2":1058.1,"yT2":0,"toosoon":0,"cond_shown":"equaldotanddens","ratio_trial":500,"smaller_num":"2","larger_num":"4","correct_side":1,"subjID":"LauraAlejandraFajardoMolina12","gender":"1","age":"11","school":"6"},{"start_time":1551901706855,"click_time":1551901708243,"finger_time":1551901707583,"fix_duration":250,"trial":45,"RT":728,"MT":660,"sideResp":1,"stimulus":"img/900/equaldotanddens/L/4_Ratio_900_L_20_R_18.png","xmouse":[766,766,766,766,766,766,766,766,766,766,766,766,766,766,766,766,766,766,766,766,766,766,766,766,766,766,766,766,766,766,766,766,764,763,763,763,763,763,763,763,761,762,764,772,785,797,799,789,775,727,651,628,628,609,602,598,598,595,594,594,594,585,575,564,552,525,517,503,486,472],"ymouse":[595,595,595,595,595,595,595,595,595,595,595,595,595,595,595,595,595,595,595,595,595,595,595,595,595,595,595,595,595,595,595,595,581,576,576,576,562,550,550,539,524,517,514,504,487,464,450,433,417,386,352,340,340,321,308,299,299,285,271,259,242,210,189,168,151,127,122,113,100,90],"timestamp_mouse":[24,37,49,69,87,108,128,147,168,187,208,228,247,269,287,308,328,349,367,388,408,427,448,468,488,507,527,547,568,588,607,628,649,668,687,707,728,748,768,788,808,828,847,868,888,908,929,948,969,988,1008,1027,1048,1069,1088,1109,1127,1147,1167,1189,1207,1227,1249,1267,1287,1308,1327,1348,1369,1388],"xSR":741.5,"ySR":573.95,"xT1":424.9,"yT1":0,"xT2":1058.1,"yT2":0,"toosoon":0,"cond_shown":"equaldotanddens","ratio_trial":900,"smaller_num":"18","larger_num":"20","correct_side":1,"subjID":"LauraAlejandraFajardoMolina12","gender":"1","age":"11","school":"6"},{"start_time":1551901724169,"click_time":1551901725762,"finger_time":1551901724863,"fix_duration":1466.2254690294048,"trial":46,"RT":694,"MT":899,"sideResp":1,"stimulus":"img/750/equaldotanddens/L/14_Ratio_750_L_8_R_6.png","xmouse":[811,811,811,811,811,811,811,811,811,811,811,811,811,811,811,811,811,811,811,811,811,811,811,811,811,811,811,811,811,811,811,810,810,810,810,810,811,812,812,812,811,803,791,777,739,718,708,707,697,676,673,658,657,655,653,653,653,652,648,640,612,599,586,576,562,555,546,537,536,536,536,536,536,535,534,532,532,529,526,521],"ymouse":[592,592,592,592,592,592,592,592,592,592,592,592,592,592,592,592,592,592,592,592,592,592,592,592,592,592,592,592,592,592,592,592,587,575,565,558,549,539,536,536,534,529,519,507,463,432,417,416,405,385,381,356,350,332,303,287,267,254,239,219,177,153,129,111,84,75,68,65,65,64,64,64,64,64,64,64,64,64,64,64],"timestamp_mouse":[13,40,53,75,93,114,133,154,175,193,214,233,253,273,293,314,334,354,374,393,413,433,455,474,494,514,534,553,575,595,614,634,655,673,694,713,734,754,774,794,814,833,854,874,894,914,933,953,974,994,1013,1034,1053,1073,1093,1113,1135,1153,1173,1194,1214,1234,1253,1273,1294,1313,1334,1354,1373,1394,1415,1434,1453,1474,1494,1513,1534,1554,1574,1593],"xSR":741.5,"ySR":573.95,"xT1":424.9,"yT1":0,"xT2":1058.1,"yT2":0,"toosoon":0,"cond_shown":"equaldotanddens","ratio_trial":750,"smaller_num":"6","larger_num":"8","correct_side":1,"subjID":"LauraAlejandraFajardoMolina12","gender":"1","age":"11","school":"6"},{"start_time":1551901732380,"click_time":1551901733664,"finger_time":1551901733083,"fix_duration":494.28237425257095,"trial":47,"RT":703,"MT":581,"sideResp":1,"stimulus":"img/250/equaldotanddens/L/2_Ratio_250_L_16_R_4.png","xmouse":[798,798,798,798,798,798,798,798,798,798,798,798,798,798,798,798,798,798,798,798,798,798,798,798,798,798,798,798,798,798,798,798,798,798,796,790,790,789,771,745,742,742,742,742,728,651,645,645,641,622,622,622,596,594,594,592,589,583,581,556,539,534,533,532,521],"ymouse":[603,603,603,603,603,603,603,603,603,603,603,603,603,603,603,603,603,603,603,603,603,603,603,603,603,603,603,603,603,603,603,603,603,602,589,566,552,508,444,411,402,402,402,402,387,325,320,320,315,288,288,288,259,258,257,255,245,222,211,171,153,145,139,125,95],"timestamp_mouse":[10,34,42,64,83,103,122,143,163,184,203,223,243,262,283,302,324,342,364,383,403,423,443,462,482,502,524,542,564,583,603,623,643,663,682,703,723,744,762,782,804,823,843,862,882,903,923,943,962,982,1004,1023,1042,1062,1082,1103,1124,1143,1162,1183,1203,1223,1243,1263,1284],"xSR":741.5,"ySR":573.95,"xT1":424.9,"yT1":0,"xT2":1058.1,"yT2":0,"toosoon":0,"cond_shown":"equaldotanddens","ratio_trial":250,"smaller_num":"4","larger_num":"16","correct_side":1,"subjID":"LauraAlejandraFajardoMolina12","gender":"1","age":"11","school":"6"},{"start_time":1551901735014,"click_time":1551901736142,"finger_time":1551901735743,"fix_duration":250,"trial":48,"RT":729,"MT":399,"sideResp":1,"stimulus":"img/750/equaldotanddens/L/9_Ratio_750_L_4_R_3.png","xmouse":[821,820,815,815,815,815,815,815,815,815,815,815,815,815,815,815,815,815,815,815,815,815,815,815,815,815,815,815,815,815,815,815,815,814,799,779,759,706,699,690,686,683,678,678,678,677,669,634,599,561,532,513,502,500,496,490,473],"ymouse":[591,594,602,603,603,603,603,603,603,603,603,603,603,603,603,603,603,603,603,603,603,603,603,603,603,603,603,603,603,603,603,603,603,603,594,576,552,471,451,421,402,391,379,378,378,377,362,310,272,239,217,204,190,178,152,100,43],"timestamp_mouse":[8,37,49,68,88,109,130,149,170,188,208,230,249,269,288,309,329,350,369,388,409,428,449,468,488,510,528,550,569,588,609,628,649,669,689,708,729,749,769,788,809,829,849,870,889,908,928,948,970,990,1010,1029,1048,1068,1089,1108,1128],"xSR":741.5,"ySR":573.95,"xT1":424.9,"yT1":0,"xT2":1058.1,"yT2":0,"toosoon":0,"cond_shown":"equaldotanddens","ratio_trial":750,"smaller_num":"3","larger_num":"4","correct_side":1,"subjID":"LauraAlejandraFajardoMolina12","gender":"1","age":"11","school":"6"},{"start_time":1551901740996,"click_time":1551901742264,"finger_time":1551901741663,"fix_duration":250,"trial":49,"RT":667,"MT":601,"sideResp":1,"stimulus":"img/900/equaldotsize/L/10_Ratio_900_L_20_R_18.png","xmouse":[764,764,764,764,764,764,764,764,764,764,764,764,764,764,764,764,764,764,764,764,764,764,764,764,764,764,764,764,764,765,771,772,773,774,774,774,776,779,779,808,832,867,883,894,891,869,811,759,691,691,691,690,690,690,690,690,676,654,639,627,617,597,573,490],"ymouse":[605,605,605,605,605,605,605,605,605,605,605,605,605,605,605,605,605,605,605,605,605,605,605,605,605,605,605,605,605,605,591,588,585,568,567,546,528,518,517,478,457,434,420,409,396,369,311,252,189,189,189,189,189,189,189,187,169,148,133,121,114,106,95,63],"timestamp_mouse":[20,38,47,67,86,107,127,147,167,186,206,228,246,268,287,306,328,346,368,388,407,427,448,467,486,508,528,546,566,587,607,627,646,667,686,707,726,746,767,787,807,828,846,867,887,907,927,948,967,986,1007,1027,1047,1066,1086,1106,1127,1148,1167,1186,1207,1226,1246,1268],"xSR":741.5,"ySR":573.95,"xT1":424.9,"yT1":0,"xT2":1058.1,"yT2":0,"toosoon":0,"cond_shown":"equaldotsize","ratio_trial":900,"smaller_num":"18","larger_num":"20","correct_side":1,"subjID":"LauraAlejandraFajardoMolina12","gender":"1","age":"11","school":"6"},{"start_time":1551901747237,"click_time":1551901748263,"finger_time":1551901747902,"fix_duration":1373.9344045764203,"trial":50,"RT":665,"MT":361,"sideResp":2,"stimulus":"img/750/equaldotsize/R/3_Ratio_750_L_15_R_20.png","xmouse":[782,782,782,782,782,782,782,782,782,782,782,782,782,782,782,782,782,782,782,782,782,782,782,782,782,782,782,782,782,782,782,782,801,822,865,876,929,939,961,985,1004,1006,1034,1052,1060,1065,1070,1079,1081,1084,1085,1085],"ymouse":[646,646,646,646,646,646,646,646,646,646,646,646,646,646,646,646,646,646,646,646,646,646,646,646,646,646,646,646,646,646,646,646,610,557,485,467,360,340,303,274,255,254,236,217,202,189,171,147,136,125,116,98],"timestamp_mouse":[10,25,46,67,85,105,126,146,165,187,207,226,245,266,286,305,325,345,366,386,405,426,445,465,485,507,525,546,565,585,605,626,646,665,686,707,726,746,765,786,805,825,845,866,885,905,925,945,966,987,1006,1026],"xSR":741.5,"ySR":573.95,"xT1":424.9,"yT1":0,"xT2":1058.1,"yT2":0,"toosoon":0,"cond_shown":"equaldotsize","ratio_trial":750,"smaller_num":"15","larger_num":"20","correct_side":2,"subjID":"LauraAlejandraFajardoMolina12","gender":"1","age":"11","school":"6"},{"start_time":1551901749695,"click_time":1551901750883,"finger_time":1551901750343,"fix_duration":250,"trial":51,"RT":648,"MT":540,"sideResp":2,"stimulus":"img/250/equaldotanddens/R/11_Ratio_250_L_3_R_12.png","xmouse":[792,792,792,792,792,792,792,792,792,792,792,792,792,792,792,792,792,792,792,792,792,792,792,792,792,792,792,792,792,801,814,814,829,850,856,860,869,882,915,922,938,960,972,978,990,1002,1012,1021,1026,1032,1035,1043,1050,1065,1073,1085,1096,1109,1125,1130],"ymouse":[617,617,617,617,617,617,617,617,617,617,617,617,617,617,617,617,617,617,617,617,617,617,617,617,617,617,617,617,617,607,590,589,559,492,466,456,439,421,387,378,362,335,318,304,279,252,227,206,194,184,181,171,164,151,143,133,123,114,102,99],"timestamp_mouse":[9,34,48,67,88,108,127,147,168,188,208,229,249,269,288,308,327,347,369,387,407,428,447,468,488,507,529,548,568,587,607,628,648,668,687,707,729,747,767,788,807,827,848,868,888,909,929,949,968,987,1009,1029,1047,1067,1087,1108,1128,1149,1168,1187],"xSR":741.5,"ySR":573.95,"xT1":424.9,"yT1":0,"xT2":1058.1,"yT2":0,"toosoon":0,"cond_shown":"equaldotanddens","ratio_trial":250,"smaller_num":"3","larger_num":"12","correct_side":2,"subjID":"LauraAlejandraFajardoMolina12","gender":"1","age":"11","school":"6"},{"start_time":1551901753142,"click_time":1551901754224,"finger_time":1551901753763,"fix_duration":978.139628670477,"trial":52,"RT":621,"MT":461,"sideResp":2,"stimulus":"img/250/equaldotanddens/R/4_Ratio_250_L_3_R_12.png","xmouse":[817,817,816,816,816,816,816,816,816,816,816,816,816,816,816,816,816,816,816,816,816,816,816,816,816,817,819,821,822,828,837,861,864,864,864,864,871,894,904,918,938,972,984,995,999,1008,1017,1038,1047,1054,1060,1072,1077,1082,1087],"ymouse":[607,607,606,606,606,606,606,606,606,606,606,606,606,606,606,606,606,606,606,606,606,606,606,606,606,605,604,604,602,595,582,528,513,504,484,474,442,397,383,355,322,269,255,239,233,222,210,184,173,160,151,129,116,103,89],"timestamp_mouse":[1,20,40,62,81,101,121,140,161,180,200,221,242,260,282,301,321,340,361,382,400,421,441,461,481,501,522,541,561,582,601,621,640,661,681,700,721,740,761,782,802,821,841,861,880,901,921,941,961,980,1000,1020,1040,1060,1082],"xSR":741.5,"ySR":573.95,"xT1":424.9,"yT1":0,"xT2":1058.1,"yT2":0,"toosoon":0,"cond_shown":"equaldotanddens","ratio_trial":250,"smaller_num":"3","larger_num":"12","correct_side":2,"subjID":"LauraAlejandraFajardoMolina12","gender":"1","age":"11","school":"6"},{"start_time":1551901755843,"click_time":1551901757182,"finger_time":1551901756803,"fix_duration":878.8649839205218,"trial":53,"RT":960,"MT":379,"sideResp":2,"stimulus":"img/500/randomdotsizeEA/R/12_Ratio_500_L_1_R_2.png","xmouse":[796,796,796,796,796,796,796,796,796,796,796,796,796,796,796,796,796,796,796,796,796,796,796,796,796,796,796,796,796,796,796,796,796,796,796,796,796,796,796,796,796,796,796,796,796,798,808,811,828,839,859,914,960,973,984,987,990,992,994,996,1001,1012,1020,1027,1038,1045,1069,1085],"ymouse":[618,618,618,618,618,618,618,618,618,618,618,618,618,618,618,618,618,618,618,618,618,618,618,618,618,618,618,618,618,618,618,618,618,618,618,618,618,618,618,618,618,618,618,618,617,609,582,577,553,530,500,417,347,323,290,275,253,242,231,220,208,174,160,150,136,127,106,94],"timestamp_mouse":[2,35,40,59,80,100,121,140,160,180,200,219,239,259,280,301,320,339,359,379,399,419,441,461,479,499,519,539,559,579,600,620,640,660,680,699,719,740,761,779,799,819,839,860,880,900,920,940,960,979,999,1020,1039,1060,1079,1099,1119,1141,1160,1180,1199,1219,1240,1260,1279,1301,1320,1339],"xSR":741.5,"ySR":573.95,"xT1":424.9,"yT1":0,"xT2":1058.1,"yT2":0,"toosoon":0,"cond_shown":"randomdotsizeEA","ratio_trial":500,"smaller_num":"1","larger_num":"2","correct_side":2,"subjID":"LauraAlejandraFajardoMolina12","gender":"1","age":"11","school":"6"},{"start_time":1551901759527,"click_time":1551901762762,"finger_time":1551901760442,"fix_duration":1443.5323066791757,"trial":54,"RT":915,"MT":2320,"sideResp":1,"stimulus":"img/750/equaldotanddens/L/10_Ratio_750_L_4_R_3.png","xmouse":[797,797,797,797,797,797,797,797,797,797,797,797,797,797,797,797,797,797,797,797,797,797,797,797,797,797,797,797,797,797,797,797,797,797,797,797,797,797,797,797,797,797,797,783,771,735,605,544,531,528,528,528,528,527,525,524,523,522,522,521,520,517,517,517,517,517,517,517,517,516,515,515,515,517,517,517,519,519,519,519,519,519,519,515,515,514,514,514,512,511,510,501,500,500,500,500,500,500,500,500,500,498,498,495,491,489,487,485,485,485,485,485,485,485,485,485,485,485,485,485,485,480,474,472,472,472,472,472,472,472,472,472,472,472,472,472,472,472,472,472,472,472,472,472,472,472,472,472,472,472,472,472,472,472,472,472,472,472,472,472,472,472],"ymouse":[599,599,599,599,599,599,599,599,599,599,599,599,599,599,599,599,599,599,599,599,599,599,599,599,599,599,599,599,599,599,599,599,599,599,599,599,599,599,599,599,599,599,599,588,577,545,456,423,411,408,408,408,406,403,400,398,394,388,372,361,348,331,328,325,322,317,313,310,307,294,282,272,262,255,249,246,236,230,229,229,229,229,228,226,225,223,222,220,217,212,207,181,181,181,180,180,180,180,180,180,180,177,177,172,166,163,159,149,143,142,142,141,141,139,136,135,132,130,130,129,128,122,112,105,102,102,102,102,101,101,101,101,101,101,101,101,101,101,101,101,101,100,100,100,100,100,100,100,100,100,100,100,100,100,100,100,100,100,100,100,100,99],"timestamp_mouse":[16,36,56,75,96,115,136,157,175,196,216,236,256,277,295,316,337,356,376,395,415,436,455,475,495,516,535,557,575,595,615,635,657,675,695,716,737,755,775,796,815,837,856,875,895,915,935,955,976,996,1015,1036,1056,1076,1096,1116,1135,1155,1177,1196,1217,1235,1256,1276,1295,1316,1335,1355,1376,1396,1415,1436,1456,1476,1495,1515,1536,1556,1576,1595,1615,1637,1656,1676,1696,1716,1736,1755,1777,1796,1817,1835,1855,1876,1896,1916,1936,1955,1975,1997,2016,2035,2056,2075,2096,2117,2136,2157,2176,2196,2216,2236,2255,2275,2296,2316,2336,2355,2376,2396,2416,2435,2456,2476,2497,2516,2537,2557,2577,2595,2615,2636,2656,2675,2695,2717,2735,2755,2775,2796,2817,2835,2855,2876,2897,2916,2935,2955,2976,2996,3016,3036,3056,3077,3095,3116,3136,3156,3176,3197,3216,3235],"xSR":741.5,"ySR":573.95,"xT1":424.9,"yT1":0,"xT2":1058.1,"yT2":0,"toosoon":0,"cond_shown":"equaldotanddens","ratio_trial":750,"smaller_num":"3","larger_num":"4","correct_side":1,"subjID":"LauraAlejandraFajardoMolina12","gender":"1","age":"11","school":"6"},{"start_time":1551901765694,"click_time":1551901767262,"finger_time":1551901766603,"fix_duration":250,"trial":55,"RT":909,"MT":659,"sideResp":1,"stimulus":"img/900/equaldotsize/R/11_Ratio_900_L_18_R_20.png","xmouse":[793,793,793,793,793,793,793,793,793,793,793,793,793,793,793,793,793,793,793,793,793,793,793,793,793,793,793,793,793,793,793,793,793,793,793,793,793,793,793,793,793,793,793,795,807,807,807,800,745,730,721,709,702,681,662,641,619,613,599,597,596,596,590,580,570,569,569,569,557,552,548,534,514,497,485,485,484,484,485],"ymouse":[597,597,597,597,597,597,597,597,597,597,597,597,597,597,597,597,597,597,597,597,597,597,597,597,597,597,597,597,597,597,597,597,597,597,597,597,597,597,597,597,597,597,597,597,581,564,546,523,410,390,373,350,339,307,284,258,231,222,203,190,179,178,169,155,145,143,143,143,141,139,137,131,122,113,106,106,102,100,94],"timestamp_mouse":[10,34,49,68,89,109,129,148,168,189,208,228,249,268,288,308,328,348,369,388,408,428,448,469,489,508,528,548,569,588,610,628,648,668,688,708,729,749,769,788,808,828,849,868,888,909,928,948,968,988,1009,1029,1048,1068,1090,1108,1129,1149,1169,1188,1208,1229,1249,1269,1289,1309,1328,1348,1368,1388,1408,1428,1449,1468,1489,1508,1528,1548,1568],"xSR":741.5,"ySR":573.95,"xT1":424.9,"yT1":0,"xT2":1058.1,"yT2":0,"toosoon":0,"cond_shown":"equaldotsize","ratio_trial":900,"smaller_num":"18","larger_num":"20","correct_side":2,"subjID":"LauraAlejandraFajardoMolina12","gender":"1","age":"11","school":"6"},{"start_time":1551901769237,"click_time":1551901770662,"finger_time":1551901769942,"fix_duration":633.0500618553191,"trial":56,"RT":705,"MT":720,"sideResp":1,"stimulus":"img/250/randomdotsizeEA/L/1_Ratio_250_L_8_R_2.png","xmouse":[819,819,819,819,819,819,819,819,819,819,819,819,819,819,819,819,819,819,819,819,819,819,819,819,819,819,819,819,819,820,828,829,828,824,820,803,759,740,731,718,715,708,703,698,683,661,652,635,627,625,624,623,622,622,622,622,622,617,613,601,588,573,570,570,570,569,562,553,543,532,526,515],"ymouse":[652,652,652,652,652,652,652,652,652,652,652,652,652,652,652,652,652,652,652,652,652,652,652,652,652,652,652,652,646,635,612,598,591,579,576,561,529,509,495,470,459,427,406,395,375,349,328,288,264,254,245,237,230,216,214,194,190,176,170,167,164,160,158,158,157,156,144,135,125,114,107,84],"timestamp_mouse":[10,38,45,66,85,105,126,146,166,186,205,225,245,265,285,306,326,345,367,385,405,425,446,466,485,506,525,546,566,586,606,626,647,665,685,705,726,745,765,785,805,825,846,866,885,906,926,945,965,986,1005,1025,1046,1066,1085,1105,1125,1145,1166,1185,1206,1225,1246,1266,1285,1306,1325,1346,1366,1386,1405,1425],"xSR":741.5,"ySR":573.95,"xT1":424.9,"yT1":0,"xT2":1058.1,"yT2":0,"toosoon":0,"cond_shown":"randomdotsizeEA","ratio_trial":250,"smaller_num":"2","larger_num":"8","correct_side":1,"subjID":"LauraAlejandraFajardoMolina12","gender":"1","age":"11","school":"6"},{"start_time":1551901774459,"click_time":1551901775743,"finger_time":1551901775223,"fix_duration":514.2492358535329,"trial":57,"RT":764,"MT":520,"sideResp":1,"stimulus":"img/500/equaldotanddens/L/11_Ratio_500_L_12_R_6.png","xmouse":[801,801,801,801,801,801,801,801,801,801,801,801,801,801,801,801,801,801,801,801,801,801,801,801,801,801,801,801,801,801,801,801,801,801,801,797,790,782,776,769,763,755,747,739,736,733,726,718,704,690,666,647,629,629,617,603,596,590,586,579,562,549,537,527,524],"ymouse":[625,625,625,625,625,625,625,625,625,625,625,625,625,625,625,625,625,625,625,625,625,625,625,625,625,625,625,625,625,625,625,625,625,625,625,615,598,582,566,548,537,523,508,489,479,468,449,428,398,366,323,289,250,248,224,196,185,176,165,156,129,113,98,85,83],"timestamp_mouse":[11,35,44,63,83,103,123,144,164,184,203,223,245,263,283,304,323,343,365,384,403,423,443,463,483,503,523,543,563,583,604,623,645,664,683,703,723,744,764,783,804,824,843,863,884,903,923,944,964,983,1003,1023,1043,1064,1083,1104,1123,1143,1163,1183,1203,1223,1244,1263,1284],"xSR":741.5,"ySR":573.95,"xT1":424.9,"yT1":0,"xT2":1058.1,"yT2":0,"toosoon":0,"cond_shown":"equaldotanddens","ratio_trial":500,"smaller_num":"6","larger_num":"12","correct_side":1,"subjID":"LauraAlejandraFajardoMolina12","gender":"1","age":"11","school":"6"},{"start_time":1551901779535,"click_time":1551901780463,"finger_time":1551901780162,"fix_duration":250,"trial":58,"RT":627,"MT":301,"sideResp":2,"stimulus":"img/500/equaldotsize/R/3_Ratio_500_L_10_R_20.png","xmouse":[790,790,790,790,790,790,790,790,790,790,790,790,790,790,790,790,790,790,790,790,790,790,790,790,790,790,790,790,790,792,797,834,860,871,878,883,918,931,941,949,966,989,1006,1022,1052,1078,1109],"ymouse":[622,622,622,622,622,622,622,622,622,622,622,622,622,622,622,622,622,622,622,622,622,622,622,622,622,622,622,622,622,619,613,567,535,523,514,506,418,382,358,339,313,273,241,205,155,109,52],"timestamp_mouse":[10,40,48,67,87,108,127,147,167,188,207,227,248,268,287,307,327,348,368,388,408,427,447,467,489,509,527,547,567,588,608,627,647,667,688,708,727,747,767,788,807,827,848,868,887,907,927],"xSR":741.5,"ySR":573.95,"xT1":424.9,"yT1":0,"xT2":1058.1,"yT2":0,"toosoon":0,"cond_shown":"equaldotsize","ratio_trial":500,"smaller_num":"10","larger_num":"20","correct_side":2,"subjID":"LauraAlejandraFajardoMolina12","gender":"1","age":"11","school":"6"},{"start_time":1551901783038,"click_time":1551901784162,"finger_time":1551901783682,"fix_duration":274.74482379434494,"trial":59,"RT":644,"MT":480,"sideResp":2,"stimulus":"img/500/equaldotsize/R/1_Ratio_500_L_9_R_18.png","xmouse":[806,806,806,806,806,806,806,806,806,806,806,806,806,806,806,806,806,806,806,806,806,806,806,806,806,806,806,806,806,806,806,812,845,893,954,996,1064,1092,1115,1131,1139,1147,1163,1174,1179,1181,1181,1181,1181,1181,1179,1176,1173,1169,1166,1162,1157],"ymouse":[601,601,601,601,601,601,601,601,601,601,601,601,601,601,601,601,601,601,601,601,601,601,601,601,601,601,601,601,601,601,601,599,576,540,466,411,317,269,229,200,182,168,139,110,90,76,68,67,67,67,66,65,65,64,64,64,64],"timestamp_mouse":[10,41,45,65,84,104,125,144,164,186,205,224,244,264,286,305,324,345,364,385,405,424,444,464,484,504,525,544,564,584,604,625,644,664,684,706,725,744,766,785,804,824,845,866,885,904,925,944,964,985,1004,1025,1044,1064,1084,1105,1124],"xSR":741.5,"ySR":573.95,"xT1":424.9,"yT1":0,"xT2":1058.1,"yT2":0,"toosoon":0,"cond_shown":"equaldotsize","ratio_trial":500,"smaller_num":"9","larger_num":"18","correct_side":2,"subjID":"LauraAlejandraFajardoMolina12","gender":"1","age":"11","school":"6"},{"start_time":1551901792919,"click_time":1551901793943,"finger_time":1551901793503,"fix_duration":554.8334175591584,"trial":60,"RT":584,"MT":440,"sideResp":2,"stimulus":"img/250/equaldotsize/R/4_Ratio_250_L_3_R_12.png","xmouse":[829,829,829,829,829,829,829,829,829,829,829,829,829,829,829,829,829,829,829,829,829,829,829,829,829,829,829,829,830,842,851,859,864,870,876,877,884,897,907,912,929,945,967,979,990,994,996,1006,1013,1019,1040,1062],"ymouse":[610,610,610,610,610,610,610,610,610,610,610,610,610,610,610,610,610,610,610,610,610,610,610,610,610,610,610,610,607,580,553,529,504,487,468,458,433,388,364,354,326,304,270,254,237,231,225,202,187,175,123,64],"times