[{"start_time":1551899937644,"click_time":1551899940166,"finger_time":1551899937653,"fix_duration":1453.4405196906396,"trial":0,"RT":9,"MT":2513,"sideResp":2,"stimulus":[],"xmouse":[786,786,786,786,786,786,786,786,786,786,786,786,786,786,786,786,786,786,786,786,786,786,786,786,786,786,786,786,786,786,786,786,785,783,780,780,780,780,781,781,781,781,782,784,785,785,787,787,788,790,791,791,791,791,791,790,790,790,790,790,790,790,790,790,790,790,790,790,790,790,790,790,790,790,790,790,790,790,790,789,789,788,788,787,787,785,785,784,784,784,784,784,784,784,784,784,784,784,785,791,793,795,796,796,799,803,809,811,813,819,819,819,819,819,819,819,819,819,820,840,862,900,948,998,1090,1134,1158],"ymouse":[482,482,482,482,483,483,483,483,483,483,483,483,483,483,483,483,483,483,483,483,483,483,483,483,483,483,483,483,483,483,483,483,486,508,538,539,557,561,562,562,562,562,562,562,562,562,562,566,571,579,580,581,583,584,589,592,595,598,599,601,603,603,604,604,604,604,604,604,604,604,604,604,604,604,604,604,604,604,605,606,606,607,609,609,610,614,615,616,616,616,616,616,616,616,616,616,616,617,617,615,614,614,614,614,613,612,609,608,605,601,601,601,601,601,601,601,601,601,599,592,576,537,466,383,206,133,98],"timestamp_mouse":[9,21,43,63,83,101,122,143,162,183,201,223,241,262,282,301,321,342,362,382,401,422,441,462,481,501,522,541,561,581,602,622,642,663,681,701,721,742,762,782,802,822,841,862,882,902,922,942,962,982,1001,1021,1041,1063,1082,1101,1121,1143,1161,1181,1201,1222,1242,1263,1281,1302,1322,1341,1362,1381,1401,1421,1443,1462,1482,1501,1522,1543,1561,1582,1601,1622,1642,1662,1682,1701,1721,1743,1761,1781,1802,1821,1843,1862,1881,1902,1921,1942,1961,1982,2001,2021,2042,2061,2081,2101,2123,2143,2162,2181,2202,2222,2241,2261,2283,2302,2321,2341,2362,2382,2401,2421,2441,2463,2481,2501,2522],"xSR":741.5,"ySR":449.15000000000003,"xT1":424.9,"yT1":0,"xT2":1058.1,"yT2":0,"toosoon":0,"cond_shown":"Congruent","ratio_trial":200,"L_num":6,"L_den":20,"R_num":11,"R_den":22,"correct_side":2,"subjID":"LauraAlejandraFajardoMolina12","gender":"1","age":"11","school":"6","test":{"fix_dur":[250,1500],"timestim":1000,"targets_dim":[100,100],"targets_relative_coord":[0.3,0.7],"size_stim":[880,420],"start_dim":[100,100],"size_start":[300,300],"size_fix":60,"samplingrate":20,"img_types":["Congruent","Incongruent"],"ratios":[100,200,300],"rep_conds":19,"nTrials":120,"trials_to_rest":500,"Trials_order":[2,105,90,51,84,53,42,106,71,41,96,32,69,5,58,43,48,83,45,38,91,118,28,99,77,34,0,22,117,35,65,73,52,25,16,103,24,76,27,100,55,101,92,107,67,102,104,13,12,75,56,114,29,11,39,30,47,79,116,82,88,17,72,110,74,23,89,66,8,93,119,54,33,81,111,46,108,78,6,18,113,49,60,64,4,9,95,31,70,115,40,14,19,98,10,26,63,21,20,85,1,62,7,112,97,80,61,37,44,50,3,87,109,86,59,15,57,68,36,94],"cond_shown":["Congruent","Incongruent","Congruent","Incongruent","Congruent","Incongruent","Congruent","Congruent","Incongruent","Incongruent","Congruent","Congruent","Incongruent","Incongruent","Congruent","Incongruent","Congruent","Incongruent","Incongruent","Congruent","Incongruent","Congruent","Congruent","Incongruent","Incongruent","Congruent","Congruent","Congruent","Incongruent","Incongruent","Incongruent","Incongruent","Congruent","Incongruent","Congruent","Incongruent","Congruent","Congruent","Incongruent","Congruent","Incongruent","Incongruent","Congruent","Incongruent","Incongruent","Congruent","Congruent","Incongruent","Congruent","Incongruent","Congruent","Congruent","Incongruent","Incongruent","Incongruent","Congruent","Incongruent","Incongruent","Congruent","Congruent","Congruent","Incongruent","Congruent","Congruent","Congruent","Incongruent","Incongruent","Congruent","Congruent","Incongruent","Incongruent","Congruent","Incongruent","Incongruent","Incongruent","Congruent","Congruent","Congruent","Congruent","Congruent","Incongruent","Incongruent","Congruent","Congruent","Congruent","Incongruent","Incongruent","Incongruent","Congruent","Incongruent","Congruent","Congruent","Incongruent","Congruent","Congruent","Congruent","Incongruent","Incongruent","Congruent","Incongruent","Incongruent","Congruent","Incongruent","Congruent","Incongruent","Congruent","Incongruent","Incongruent","Congruent","Congruent","Incongruent","Incongruent","Incongruent","Congruent","Incongruent","Incongruent","Incongruent","Congruent","Congruent","Congruent"],"ratio_trial":[200,200,100,200,100,300,100,300,300,300,100,200,200,300,300,100,100,300,200,200,100,300,300,200,300,300,100,300,200,300,300,100,300,100,300,100,100,300,200,300,100,300,200,300,100,100,200,100,100,200,200,100,300,300,200,100,300,100,200,300,300,300,100,200,200,300,300,100,200,200,300,100,200,200,200,300,100,100,100,100,300,100,100,300,300,200,300,100,300,100,300,200,100,200,300,200,200,200,200,100,100,200,100,300,100,200,100,100,200,200,200,200,100,200,300,200,200,200,100,300],"left_num":[6,7,15,4,6,1,11,4,8,4,1,6,4,4,2,13,10,7,1,3,13,12,18,1,1,4,2,8,1,2,3,9,1,9,20,9,11,5,6,18,11,1,1,13,8,12,8,11,2,7,4,6,4,4,6,1,1,3,6,3,20,13,1,1,12,1,7,2,12,9,8,7,4,6,7,4,2,9,10,6,8,6,1,4,8,3,1,6,11,8,9,4,10,11,11,8,1,1,1,6,9,11,9,1,3,8,13,9,15,3,7,6,9,13,13,4,1,3,1,4],"right_num":[11,14,13,14,5,3,4,2,14,2,3,3,14,2,10,6,3,8,3,14,12,2,9,2,2,13,11,1,3,6,4,13,11,14,14,6,4,6,3,9,9,3,21,12,6,13,3,9,11,6,3,5,6,8,3,3,3,11,7,11,13,12,3,21,6,2,8,6,6,8,9,15,14,3,12,2,11,8,3,5,9,11,18,1,1,1,3,7,2,1,3,3,8,3,1,3,2,3,21,13,14,3,20,7,8,7,6,6,4,14,6,3,6,14,12,14,3,7,3,2],"left_den":[20,10,25,6,20,2,22,5,10,20,2,15,6,20,20,26,25,10,2,10,26,24,20,3,2,20,5,16,2,4,6,15,5,15,25,18,22,25,20,20,22,2,2,26,16,30,15,22,5,15,8,20,5,5,20,2,2,5,12,12,25,26,2,2,20,2,10,5,15,15,10,14,6,20,10,5,5,15,25,20,10,10,2,10,16,10,2,10,22,20,10,8,25,22,22,15,3,2,2,10,15,22,10,20,5,15,26,18,25,6,15,20,18,26,26,6,2,10,2,5],"right_den":[22,28,26,30,25,15,10,4,28,4,5,15,30,4,25,10,10,20,10,28,20,10,15,15,10,26,22,5,10,30,20,26,22,28,28,10,10,12,6,15,15,15,30,15,10,26,9,15,22,9,10,25,12,16,6,5,15,22,10,20,26,15,5,30,15,10,20,12,10,10,18,25,30,6,24,4,22,16,10,25,18,22,30,10,5,2,15,14,10,2,5,10,16,10,5,9,15,10,30,26,28,10,25,20,16,21,10,10,10,20,9,6,10,20,15,30,10,14,5,4],"correct_side":[2,1,1,1,1,1,1,1,1,2,2,1,1,2,2,2,1,1,1,2,2,1,1,1,1,2,2,1,1,1,1,1,2,1,1,2,1,2,2,1,2,1,2,2,2,2,1,2,2,2,1,1,1,1,2,2,1,1,2,2,1,2,2,2,1,1,1,2,1,2,1,2,1,2,1,1,2,1,1,1,1,1,2,1,1,2,1,1,1,2,1,1,2,1,1,1,1,1,2,1,1,1,1,2,1,1,2,2,1,2,2,2,2,2,2,1,1,2,2,1],"img_shown":["img2/200/Congruent/R/C_Dist_200_LN_6_LD_20_RN_11_RD_22_1.png","img2/200/Incongruent/L/I_Dist_200_LN_7_LD_10_RN_14_RD_28_0.png","img2/100/Congruent/L/C_Dist_100_LN_15_LD_25_RN_13_RD_26_0.png","img2/200/Incongruent/L/I_Dist_200_LN_4_LD_6_RN_14_RD_30_0.png","img2/100/Congruent/L/C_Dist_100_LN_6_LD_20_RN_5_RD_25_0.png","img2/300/Incongruent/L/I_Dist_300_LN_1_LD_2_RN_3_RD_15_0.png","img2/100/Congruent/L/C_Dist_100_LN_11_LD_22_RN_4_RD_10_0.png","img2/300/Congruent/L/C_Dist_300_LN_4_LD_5_RN_2_RD_4_0.png","img2/300/Incongruent/L/I_Dist_300_LN_8_LD_10_RN_14_RD_28_0.png","img2/300/Incongruent/R/I_Dist_300_LN_4_LD_20_RN_2_RD_4_1.png","img2/100/Congruent/R/C_Dist_100_LN_1_LD_2_RN_3_RD_5_1.png","img2/200/Congruent/L/C_Dist_200_LN_6_LD_15_RN_3_RD_15_0.png","img2/200/Incongruent/L/I_Dist_200_LN_4_LD_6_RN_14_RD_30_0.png","img2/300/Incongruent/R/I_Dist_300_LN_4_LD_20_RN_2_RD_4_1.png","img2/300/Congruent/R/C_Dist_300_LN_2_LD_20_RN_10_RD_25_1.png","img2/100/Incongruent/R/I_Dist_100_LN_13_LD_26_RN_6_RD_10_1.png","img2/100/Congruent/L/C_Dist_100_LN_10_LD_25_RN_3_RD_10_0.png","img2/300/Incongruent/L/I_Dist_300_LN_7_LD_10_RN_8_RD_20_0.png","img2/200/Incongruent/L/I_Dist_200_LN_1_LD_2_RN_3_RD_10_0.png","img2/200/Congruent/R/C_Dist_200_LN_3_LD_10_RN_14_RD_28_1.png","img2/100/Incongruent/R/I_Dist_100_LN_13_LD_26_RN_12_RD_20_1.png","img2/300/Congruent/L/C_Dist_300_LN_12_LD_24_RN_2_RD_10_0.png","img2/300/Congruent/L/C_Dist_300_LN_18_LD_20_RN_9_RD_15_0.png","img2/200/Incongruent/L/I_Dist_200_LN_1_LD_3_RN_2_RD_15_0.png","img2/300/Incongruent/L/I_Dist_300_LN_1_LD_2_RN_2_RD_10_0.png","img2/300/Congruent/R/C_Dist_300_LN_4_LD_20_RN_13_RD_26_1.png","img2/100/Congruent/R/C_Dist_100_LN_2_LD_5_RN_11_RD_22_1.png","img2/300/Congruent/L/C_Dist_300_LN_8_LD_16_RN_1_RD_5_0.png","img2/200/Incongruent/L/I_Dist_200_LN_1_LD_2_RN_3_RD_10_0.png","img2/300/Incongruent/L/I_Dist_300_LN_2_LD_4_RN_6_RD_30_0.png","img2/300/Incongruent/L/I_Dist_300_LN_3_LD_6_RN_4_RD_20_0.png","img2/100/Incongruent/L/I_Dist_100_LN_9_LD_15_RN_13_RD_26_0.png","img2/300/Congruent/R/C_Dist_300_LN_1_LD_5_RN_11_RD_22_1.png","img2/100/Incongruent/L/I_Dist_100_LN_9_LD_15_RN_14_RD_28_0.png","img2/300/Congruent/L/C_Dist_300_LN_20_LD_25_RN_14_RD_28_0.png","img2/100/Incongruent/R/I_Dist_100_LN_9_LD_18_RN_6_RD_10_1.png","img2/100/Congruent/L/C_Dist_100_LN_11_LD_22_RN_4_RD_10_0.png","img2/300/Congruent/R/C_Dist_300_LN_5_LD_25_RN_6_RD_12_1.png","img2/200/Incongruent/R/I_Dist_200_LN_6_LD_20_RN_3_RD_6_1.png","img2/300/Congruent/L/C_Dist_300_LN_18_LD_20_RN_9_RD_15_0.png","img2/100/Incongruent/R/I_Dist_100_LN_11_LD_22_RN_9_RD_15_1.png","img2/300/Incongruent/L/I_Dist_300_LN_1_LD_2_RN_3_RD_15_0.png","img2/200/Congruent/R/C_Dist_200_LN_1_LD_2_RN_21_RD_30_1.png","img2/300/Incongruent/R/I_Dist_300_LN_13_LD_26_RN_12_RD_15_1.png","img2/100/Incongruent/R/I_Dist_100_LN_8_LD_16_RN_6_RD_10_1.png","img2/100/Congruent/R/C_Dist_100_LN_12_LD_30_RN_13_RD_26_1.png","img2/200/Congruent/L/C_Dist_200_LN_8_LD_15_RN_3_RD_9_0.png","img2/100/Incongruent/R/I_Dist_100_LN_11_LD_22_RN_9_RD_15_1.png","img2/100/Congruent/R/C_Dist_100_LN_2_LD_5_RN_11_RD_22_1.png","img2/200/Incongruent/R/I_Dist_200_LN_7_LD_15_RN_6_RD_9_1.png","img2/200/Congruent/L/C_Dist_200_LN_4_LD_8_RN_3_RD_10_0.png","img2/100/Congruent/L/C_Dist_100_LN_6_LD_20_RN_5_RD_25_0.png","img2/300/Incongruent/L/I_Dist_300_LN_4_LD_5_RN_6_RD_12_0.png","img2/300/Incongruent/L/I_Dist_300_LN_4_LD_5_RN_8_RD_16_0.png","img2/200/Incongruent/R/I_Dist_200_LN_6_LD_20_RN_3_RD_6_1.png","img2/100/Congruent/R/C_Dist_100_LN_1_LD_2_RN_3_RD_5_1.png","img2/300/Incongruent/L/I_Dist_300_LN_1_LD_2_RN_3_RD_15_0.png","img2/100/Incongruent/L/I_Dist_100_LN_3_LD_5_RN_11_RD_22_0.png","img2/200/Congruent/R/C_Dist_200_LN_6_LD_12_RN_7_RD_10_1.png","img2/300/Congruent/R/C_Dist_300_LN_3_LD_12_RN_11_RD_20_1.png","img2/300/Congruent/L/C_Dist_300_LN_20_LD_25_RN_13_RD_26_0.png","img2/300/Incongruent/R/I_Dist_300_LN_13_LD_26_RN_12_RD_15_1.png","img2/100/Congruent/R/C_Dist_100_LN_1_LD_2_RN_3_RD_5_1.png","img2/200/Congruent/R/C_Dist_200_LN_1_LD_2_RN_21_RD_30_1.png","img2/200/Congruent/L/C_Dist_200_LN_12_LD_20_RN_6_RD_15_0.png","img2/300/Incongruent/L/I_Dist_300_LN_1_LD_2_RN_2_RD_10_0.png","img2/300/Incongruent/L/I_Dist_300_LN_7_LD_10_RN_8_RD_20_0.png","img2/100/Congruent/R/C_Dist_100_LN_2_LD_5_RN_6_RD_12_1.png","img2/200/Congruent/L/C_Dist_200_LN_12_LD_15_RN_6_RD_10_0.png","img2/200/Incongruent/R/I_Dist_200_LN_9_LD_15_RN_8_RD_10_1.png","img2/300/Incongruent/L/I_Dist_300_LN_8_LD_10_RN_9_RD_18_0.png","img2/100/Congruent/R/C_Dist_100_LN_7_LD_14_RN_15_RD_25_1.png","img2/200/Incongruent/L/I_Dist_200_LN_4_LD_6_RN_14_RD_30_0.png","img2/200/Incongruent/R/I_Dist_200_LN_6_LD_20_RN_3_RD_6_1.png","img2/200/Incongruent/L/I_Dist_200_LN_7_LD_10_RN_12_RD_24_0.png","img2/300/Congruent/L/C_Dist_300_LN_4_LD_5_RN_2_RD_4_0.png","img2/100/Congruent/R/C_Dist_100_LN_2_LD_5_RN_11_RD_22_1.png","img2/100/Congruent/L/C_Dist_100_LN_9_LD_15_RN_8_RD_16_0.png","img2/100/Congruent/L/C_Dist_100_LN_10_LD_25_RN_3_RD_10_0.png","img2/100/Congruent/L/C_Dist_100_LN_6_LD_20_RN_5_RD_25_0.png","img2/300/Incongruent/L/I_Dist_300_LN_8_LD_10_RN_9_RD_18_0.png","img2/100/Incongruent/L/I_Dist_100_LN_6_LD_10_RN_11_RD_22_0.png","img2/100/Congruent/R/C_Dist_100_LN_1_LD_2_RN_18_RD_30_1.png","img2/300/Congruent/L/C_Dist_300_LN_4_LD_10_RN_1_RD_10_0.png","img2/300/Congruent/L/C_Dist_300_LN_8_LD_16_RN_1_RD_5_0.png","img2/200/Incongruent/R/I_Dist_200_LN_3_LD_10_RN_1_RD_2_1.png","img2/300/Incongruent/L/I_Dist_300_LN_1_LD_2_RN_3_RD_15_0.png","img2/100/Incongruent/L/I_Dist_100_LN_6_LD_10_RN_7_RD_14_0.png","img2/300/Congruent/L/C_Dist_300_LN_11_LD_22_RN_2_RD_10_0.png","img2/100/Incongruent/R/I_Dist_100_LN_8_LD_20_RN_1_RD_2_1.png","img2/300/Congruent/L/C_Dist_300_LN_9_LD_10_RN_3_RD_5_0.png","img2/200/Congruent/L/C_Dist_200_LN_4_LD_8_RN_3_RD_10_0.png","img2/100/Incongruent/R/I_Dist_100_LN_10_LD_25_RN_8_RD_16_1.png","img2/200/Congruent/L/C_Dist_200_LN_11_LD_22_RN_3_RD_10_0.png","img2/300/Congruent/L/C_Dist_300_LN_11_LD_22_RN_1_RD_5_0.png","img2/200/Congruent/L/C_Dist_200_LN_8_LD_15_RN_3_RD_9_0.png","img2/200/Incongruent/L/I_Dist_200_LN_1_LD_3_RN_2_RD_15_0.png","img2/200/Incongruent/L/I_Dist_200_LN_1_LD_2_RN_3_RD_10_0.png","img2/200/Congruent/R/C_Dist_200_LN_1_LD_2_RN_21_RD_30_1.png","img2/100/Incongruent/L/I_Dist_100_LN_6_LD_10_RN_13_RD_26_0.png","img2/100/Incongruent/L/I_Dist_100_LN_9_LD_15_RN_14_RD_28_0.png","img2/200/Congruent/L/C_Dist_200_LN_11_LD_22_RN_3_RD_10_0.png","img2/100/Incongruent/L/I_Dist_100_LN_9_LD_10_RN_20_RD_25_0.png","img2/300/Congruent/R/C_Dist_300_LN_1_LD_20_RN_7_RD_20_1.png","img2/100/Incongruent/L/I_Dist_100_LN_3_LD_5_RN_8_RD_16_0.png","img2/200/Congruent/L/C_Dist_200_LN_8_LD_15_RN_7_RD_21_0.png","img2/100/Incongruent/R/I_Dist_100_LN_13_LD_26_RN_6_RD_10_1.png","img2/100/Incongruent/R/I_Dist_100_LN_9_LD_18_RN_6_RD_10_1.png","img2/200/Congruent/L/C_Dist_200_LN_15_LD_25_RN_4_RD_10_0.png","img2/200/Congruent/R/C_Dist_200_LN_3_LD_6_RN_14_RD_20_1.png","img2/200/Incongruent/R/I_Dist_200_LN_7_LD_15_RN_6_RD_9_1.png","img2/200/Incongruent/R/I_Dist_200_LN_6_LD_20_RN_3_RD_6_1.png","img2/100/Incongruent/R/I_Dist_100_LN_9_LD_18_RN_6_RD_10_1.png","img2/200/Congruent/R/C_Dist_200_LN_13_LD_26_RN_14_RD_20_1.png","img2/300/Incongruent/R/I_Dist_300_LN_13_LD_26_RN_12_RD_15_1.png","img2/200/Incongruent/L/I_Dist_200_LN_4_LD_6_RN_14_RD_30_0.png","img2/200/Incongruent/L/I_Dist_200_LN_1_LD_2_RN_3_RD_10_0.png","img2/200/Congruent/R/C_Dist_200_LN_3_LD_10_RN_7_RD_14_1.png","img2/100/Congruent/R/C_Dist_100_LN_1_LD_2_RN_3_RD_5_1.png","img2/300/Congruent/L/C_Dist_300_LN_4_LD_5_RN_2_RD_4_0.png"],"dist100_C":[["C_Dist_100_LN_10_LD_25_RN_3_RD_10_0.png","C_Dist_100_LN_11_LD_22_RN_4_RD_10_0.png","C_Dist_100_LN_11_LD_22_RN_6_RD_15_0.png","C_Dist_100_LN_15_LD_25_RN_13_RD_26_0.png","C_Dist_100_LN_3_LD_6_RN_2_RD_5_0.png","C_Dist_100_LN_6_LD_20_RN_5_RD_25_0.png","C_Dist_100_LN_8_LD_16_RN_2_RD_5_0.png","C_Dist_100_LN_9_LD_15_RN_8_RD_16_0.png"],["C_Dist_100_LN_1_LD_2_RN_18_RD_30_1.png","C_Dist_100_LN_1_LD_2_RN_3_RD_5_1.png","C_Dist_100_LN_12_LD_30_RN_13_RD_26_1.png","C_Dist_100_LN_2_LD_5_RN_11_RD_22_1.png","C_Dist_100_LN_2_LD_5_RN_6_RD_12_1.png","C_Dist_100_LN_3_LD_20_RN_4_RD_16_1.png","C_Dist_100_LN_4_LD_10_RN_15_RD_30_1.png","C_Dist_100_LN_4_LD_8_RN_6_RD_10_1.png","C_Dist_100_LN_6_LD_12_RN_15_RD_25_1.png","C_Dist_100_LN_7_LD_14_RN_15_RD_25_1.png","C_Dist_100_LN_7_LD_14_RN_9_RD_15_1.png"]],"dist100_I":[["I_Dist_100_LN_1_LD_2_RN_8_RD_20_0.png","I_Dist_100_LN_2_LD_4_RN_6_RD_15_0.png","I_Dist_100_LN_2_LD_4_RN_8_RD_20_0.png","I_Dist_100_LN_3_LD_5_RN_11_RD_22_0.png","I_Dist_100_LN_3_LD_5_RN_8_RD_16_0.png","I_Dist_100_LN_3_LD_6_RN_4_RD_10_0.png","I_Dist_100_LN_3_LD_9_RN_7_RD_30_0.png","I_Dist_100_LN_4_LD_8_RN_8_RD_20_0.png","I_Dist_100_LN_6_LD_10_RN_11_RD_22_0.png","I_Dist_100_LN_6_LD_10_RN_13_RD_26_0.png","I_Dist_100_LN_6_LD_10_RN_7_RD_14_0.png","I_Dist_100_LN_9_LD_10_RN_20_RD_25_0.png","I_Dist_100_LN_9_LD_15_RN_13_RD_26_0.png","I_Dist_100_LN_9_LD_15_RN_14_RD_28_0.png"],["I_Dist_100_LN_10_LD_25_RN_8_RD_16_1.png","I_Dist_100_LN_10_LD_25_RN_9_RD_18_1.png","I_Dist_100_LN_11_LD_22_RN_9_RD_15_1.png","I_Dist_100_LN_12_LD_24_RN_9_RD_15_1.png","I_Dist_100_LN_12_LD_30_RN_2_RD_4_1.png","I_Dist_100_LN_13_LD_26_RN_12_RD_20_1.png","I_Dist_100_LN_13_LD_26_RN_6_RD_10_1.png","I_Dist_100_LN_17_LD_30_RN_10_RD_15_1.png","I_Dist_100_LN_6_LD_12_RN_3_RD_5_1.png","I_Dist_100_LN_8_LD_16_RN_6_RD_10_1.png","I_Dist_100_LN_8_LD_20_RN_1_RD_2_1.png","I_Dist_100_LN_9_LD_18_RN_6_RD_10_1.png"]],"dist100_S":[["E_Dist_100_LN_2_LD_12_RN_2_RD_30_0.png","E_Dist_100_LN_6_LD_10_RN_6_RD_12_0.png"],["E_Dist_100_LN_6_LD_12_RN_6_RD_10_1.png"]],"dist200_C":[["C_Dist_200_LN_11_LD_22_RN_3_RD_10_0.png","C_Dist_200_LN_12_LD_15_RN_6_RD_10_0.png","C_Dist_200_LN_12_LD_20_RN_6_RD_15_0.png","C_Dist_200_LN_14_LD_28_RN_6_RD_20_0.png","C_Dist_200_LN_15_LD_25_RN_4_RD_10_0.png","C_Dist_200_LN_16_LD_20_RN_12_RD_20_0.png","C_Dist_200_LN_16_LD_30_RN_9_RD_27_0.png","C_Dist_200_LN_20_LD_25_RN_9_RD_15_0.png","C_Dist_200_LN_21_LD_30_RN_2_RD_4_0.png","C_Dist_200_LN_4_LD_10_RN_3_RD_15_0.png","C_Dist_200_LN_4_LD_8_RN_3_RD_10_0.png","C_Dist_200_LN_6_LD_15_RN_3_RD_15_0.png","C_Dist_200_LN_7_LD_21_RN_2_RD_15_0.png","C_Dist_200_LN_8_LD_15_RN_2_RD_6_0.png","C_Dist_200_LN_8_LD_15_RN_3_RD_9_0.png","C_Dist_200_LN_8_LD_15_RN_7_RD_21_0.png","C_Dist_200_LN_9_LD_20_RN_4_RD_16_0.png"],["C_Dist_200_LN_1_LD_2_RN_21_RD_30_1.png","C_Dist_200_LN_13_LD_26_RN_14_RD_20_1.png","C_Dist_200_LN_3_LD_10_RN_11_RD_22_1.png","C_Dist_200_LN_3_LD_10_RN_14_RD_28_1.png","C_Dist_200_LN_3_LD_10_RN_7_RD_14_1.png","C_Dist_200_LN_3_LD_12_RN_9_RD_20_1.png","C_Dist_200_LN_3_LD_6_RN_14_RD_20_1.png","C_Dist_200_LN_5_LD_10_RN_14_RD_20_1.png","C_Dist_200_LN_6_LD_12_RN_7_RD_10_1.png","C_Dist_200_LN_6_LD_20_RN_11_RD_22_1.png","C_Dist_200_LN_7_LD_15_RN_18_RD_27_1.png","C_Dist_200_LN_9_LD_30_RN_13_RD_26_1.png"]],"dist200_I":[["I_Dist_200_LN_1_LD_2_RN_3_RD_10_0.png","I_Dist_200_LN_1_LD_3_RN_2_RD_15_0.png","I_Dist_200_LN_3_LD_4_RN_11_RD_20_0.png","I_Dist_200_LN_4_LD_5_RN_6_RD_10_0.png","I_Dist_200_LN_4_LD_6_RN_14_RD_30_0.png","I_Dist_200_LN_7_LD_10_RN_12_RD_24_0.png","I_Dist_200_LN_7_LD_10_RN_14_RD_28_0.png","I_Dist_200_LN_7_LD_10_RN_8_RD_16_0.png"],["I_Dist_200_LN_11_LD_20_RN_3_RD_4_1.png","I_Dist_200_LN_14_LD_30_RN_12_RD_18_1.png","I_Dist_200_LN_14_LD_30_RN_6_RD_9_1.png","I_Dist_200_LN_3_LD_10_RN_1_RD_2_1.png","I_Dist_200_LN_4_LD_30_RN_1_RD_3_1.png","I_Dist_200_LN_6_LD_20_RN_3_RD_6_1.png","I_Dist_200_LN_7_LD_15_RN_4_RD_6_1.png","I_Dist_200_LN_7_LD_15_RN_6_RD_9_1.png","I_Dist_200_LN_9_LD_15_RN_8_RD_10_1.png"]],"dist200_S":[["E_Dist_200_LN_3_LD_6_RN_3_RD_10_0.png"],["E_Dist_200_LN_3_LD_10_RN_3_RD_6_1.png"]],"dist300_C":[["C_Dist_300_LN_11_LD_22_RN_1_RD_5_0.png","C_Dist_300_LN_11_LD_22_RN_2_RD_10_0.png","C_Dist_300_LN_11_LD_22_RN_4_RD_20_0.png","C_Dist_300_LN_12_LD_24_RN_2_RD_10_0.png","C_Dist_300_LN_18_LD_20_RN_9_RD_15_0.png","C_Dist_300_LN_20_LD_25_RN_13_RD_26_0.png","C_Dist_300_LN_20_LD_25_RN_14_RD_28_0.png","C_Dist_300_LN_20_LD_25_RN_5_RD_10_0.png","C_Dist_300_LN_20_LD_25_RN_8_RD_16_0.png","C_Dist_300_LN_20_LD_25_RN_9_RD_18_0.png","C_Dist_300_LN_24_LD_30_RN_2_RD_4_0.png","C_Dist_300_LN_24_LD_30_RN_8_RD_16_0.png","C_Dist_300_LN_3_LD_6_RN_2_RD_10_0.png","C_Dist_300_LN_4_LD_10_RN_1_RD_10_0.png","C_Dist_300_LN_4_LD_5_RN_2_RD_4_0.png","C_Dist_300_LN_8_LD_16_RN_1_RD_5_0.png","C_Dist_300_LN_9_LD_10_RN_3_RD_5_0.png"],["C_Dist_300_LN_1_LD_20_RN_7_RD_20_1.png","C_Dist_300_LN_1_LD_3_RN_19_RD_30_1.png","C_Dist_300_LN_1_LD_30_RN_8_RD_24_1.png","C_Dist_300_LN_1_LD_5_RN_11_RD_22_1.png","C_Dist_300_LN_1_LD_5_RN_3_RD_6_1.png","C_Dist_300_LN_1_LD_5_RN_6_RD_12_1.png","C_Dist_300_LN_2_LD_10_RN_12_RD_24_1.png","C_Dist_300_LN_2_LD_20_RN_10_RD_25_1.png","C_Dist_300_LN_3_LD_12_RN_11_RD_20_1.png","C_Dist_300_LN_3_LD_6_RN_4_RD_5_1.png","C_Dist_300_LN_4_LD_20_RN_13_RD_26_1.png","C_Dist_300_LN_5_LD_25_RN_6_RD_12_1.png","C_Dist_300_LN_5_LD_25_RN_7_RD_14_1.png","C_Dist_300_LN_7_LD_14_RN_20_RD_25_1.png","C_Dist_300_LN_8_LD_15_RN_10_RD_12_1.png"]],"dist300_I":[["I_Dist_300_LN_1_LD_2_RN_2_RD_10_0.png","I_Dist_300_LN_1_LD_2_RN_3_RD_15_0.png","I_Dist_300_LN_2_LD_4_RN_6_RD_30_0.png","I_Dist_300_LN_3_LD_6_RN_4_RD_20_0.png","I_Dist_300_LN_4_LD_5_RN_6_RD_12_0.png","I_Dist_300_LN_4_LD_5_RN_8_RD_16_0.png","I_Dist_300_LN_7_LD_10_RN_8_RD_20_0.png","I_Dist_300_LN_8_LD_10_RN_14_RD_28_0.png","I_Dist_300_LN_8_LD_10_RN_9_RD_18_0.png"],["I_Dist_300_LN_13_LD_26_RN_12_RD_15_1.png","I_Dist_300_LN_4_LD_20_RN_2_RD_4_1.png"]],"dist300_S":[["E_Dist_300_LN_9_LD_12_RN_9_RD_20_0.png"],["E_Dist_300_LN_18_LD_30_RN_18_RD_20_1.png","E_Dist_300_LN_3_LD_10_RN_3_RD_5_1.png","E_Dist_300_LN_9_LD_20_RN_9_RD_12_1.png"]],"dist500_C":[["C_Dist_500_LN_10_LD_13_RN_7_RD_26_0.png","C_Dist_500_LN_10_LD_15_RN_4_RD_24_0.png","C_Dist_500_LN_12_LD_16_RN_3_RD_12_0.png","C_Dist_500_LN_12_LD_18_RN_4_RD_24_0.png","C_Dist_500_LN_15_LD_18_RN_5_RD_15_0.png","C_Dist_500_LN_15_LD_20_RN_1_RD_4_0.png","C_Dist_500_LN_18_LD_27_RN_1_RD_6_0.png","C_Dist_500_LN_20_LD_24_RN_1_RD_3_0.png","C_Dist_500_LN_20_LD_24_RN_3_RD_9_0.png","C_Dist_500_LN_20_LD_24_RN_7_RD_21_0.png","C_Dist_500_LN_20_LD_28_RN_3_RD_14_0.png","C_Dist_500_LN_21_LD_28_RN_6_RD_24_0.png","C_Dist_500_LN_22_LD_28_RN_2_RD_7_0.png","C_Dist_500_LN_25_LD_30_RN_9_RD_27_0.png","C_Dist_500_LN_4_LD_6_RN_1_RD_6_0.png","C_Dist_500_LN_5_LD_6_RN_2_RD_6_0.png","C_Dist_500_LN_6_LD_9_RN_1_RD_6_0.png","C_Dist_500_LN_7_LD_10_RN_1_RD_5_0.png","C_Dist_500_LN_8_LD_12_RN_1_RD_6_0.png","C_Dist_500_LN_8_LD_12_RN_4_RD_24_0.png"],["C_Dist_500_LN_1_LD_4_RN_12_RD_16_1.png","C_Dist_500_LN_1_LD_4_RN_9_RD_12_1.png","C_Dist_500_LN_1_LD_9_RN_11_RD_18_1.png","C_Dist_500_LN_10_LD_24_RN_22_RD_24_1.png","C_Dist_500_LN_2_LD_12_RN_10_RD_15_1.png","C_Dist_500_LN_2_LD_12_RN_12_RD_18_1.png","C_Dist_500_LN_2_LD_12_RN_4_RD_6_1.png","C_Dist_500_LN_2_LD_24_RN_7_RD_12_1.png","C_Dist_500_LN_2_LD_5_RN_18_RD_20_1.png","C_Dist_500_LN_2_LD_5_RN_9_RD_10_1.png","C_Dist_500_LN_2_LD_8_RN_12_RD_16_1.png","C_Dist_500_LN_2_LD_8_RN_21_RD_28_1.png","C_Dist_500_LN_3_LD_10_RN_4_RD_5_1.png","C_Dist_500_LN_3_LD_12_RN_15_RD_20_1.png","C_Dist_500_LN_3_LD_30_RN_6_RD_10_1.png","C_Dist_500_LN_3_LD_8_RN_14_RD_16_1.png","C_Dist_500_LN_4_LD_16_RN_15_RD_20_1.png","C_Dist_500_LN_4_LD_24_RN_12_RD_18_1.png","C_Dist_500_LN_5_LD_14_RN_6_RD_7_1.png","C_Dist_500_LN_7_LD_21_RN_20_RD_24_1.png","C_Dist_500_LN_7_LD_28_RN_12_RD_16_1.png","C_Dist_500_LN_7_LD_28_RN_9_RD_12_1.png","C_Dist_500_LN_9_LD_27_RN_20_RD_24_1.png"]],"dist500_I":[["I_Dist_500_LN_2_LD_3_RN_4_RD_24_0.png","I_Dist_500_LN_5_LD_6_RN_6_RD_18_0.png","I_Dist_500_LN_7_LD_8_RN_9_RD_24_0.png"],["I_Dist_500_LN_7_LD_21_RN_5_RD_6_1.png"]],"dist500_S":[["E_Dist_500_LN_6_LD_8_RN_6_RD_24_0.png"],["E_Dist_500_LN_2_LD_12_RN_2_RD_3_1.png","E_Dist_500_LN_6_LD_24_RN_6_RD_8_1.png"]]}},{"start_time":1551899961372,"click_time":1551899963366,"finger_time":1551899963006,"fix_duration":1125.3246549265632,"trial":1,"RT":1634,"MT":360,"sideResp":1,"stimulus":[],"xmouse":[775,775,775,775,775,775,775,775,775,775,775,775,775,775,775,775,775,775,775,775,775,775,775,775,775,775,775,775,775,775,775,775,775,775,775,775,775,775,775,775,775,775,775,775,775,775,775,776,777,779,779,779,780,780,780,780,780,780,780,780,780,780,780,780,780,780,780,780,780,780,780,780,781,781,781,782,782,782,782,782,779,764,724,699,677,676,669,657,650,637,629,624,614,604,594,582,562,519,503,495],"ymouse":[638,638,638,638,638,638,638,638,638,638,638,638,638,638,638,638,638,638,638,638,638,638,638,638,638,638,638,638,638,638,638,638,638,638,638,638,638,638,638,637,635,634,634,633,633,633,632,630,628,624,624,623,621,621,621,621,621,621,621,621,621,621,621,621,621,621,621,621,621,621,621,621,620,620,618,617,616,614,610,605,597,559,477,429,390,388,375,350,323,283,264,255,244,234,220,204,180,136,108,85],"timestamp_mouse":[13,39,54,74,94,114,133,154,175,193,214,234,254,274,293,313,333,355,374,394,414,435,453,474,494,513,535,553,574,594,613,634,653,673,693,714,735,754,774,794,814,833,855,874,894,915,934,954,974,993,1014,1034,1054,1074,1094,1113,1135,1154,1174,1194,1214,1235,1254,1275,1293,1313,1334,1354,1373,1395,1413,1433,1455,1474,1493,1514,1534,1554,1573,1594,1614,1634,1653,1674,1695,1715,1735,1753,1773,1793,1815,1834,1853,1873,1894,1914,1935,1954,1975,1993],"xSR":741.5,"ySR":573.95,"xT1":424.9,"yT1":0,"xT2":1058.1,"yT2":0,"toosoon":0,"cond_shown":"Incongruent","ratio_trial":200,"L_num":7,"L_den":10,"R_num":14,"R_den":28,"correct_side":1,"subjID":"LauraAlejandraFajardoMolina12","gender":"1","school":"6","age":"11"},{"start_time":1551899965232,"click_time":1551899966866,"finger_time":1551899966606,"fix_duration":683.0724448525423,"trial":2,"RT":1374,"MT":260,"sideResp":2,"stimulus":[],"xmouse":[804,804,804,804,804,804,804,804,804,804,804,804,804,804,804,804,804,804,804,804,804,804,804,804,804,804,804,804,804,804,804,804,804,804,804,804,804,804,804,804,804,804,804,804,804,804,804,804,804,804,804,804,804,804,804,804,804,804,804,804,804,804,804,804,804,804,808,821,831,859,883,916,963,1023,1079,1087,1089,1090,1090,1090,1093,1098],"ymouse":[589,589,589,589,589,589,589,589,589,589,589,589,589,589,589,589,589,589,589,589,589,589,589,589,589,589,589,589,589,589,589,589,589,589,589,589,589,589,589,589,589,589,589,589,589,589,589,589,589,589,589,589,589,589,589,589,589,589,589,589,589,589,589,589,589,591,589,574,556,498,475,439,348,266,176,150,136,133,131,120,108,96],"timestamp_mouse":[13,41,54,73,93,114,134,154,173,195,213,235,253,273,295,313,335,353,373,394,414,433,454,473,494,513,535,554,574,594,615,633,653,673,694,714,735,754,773,794,815,834,854,873,894,914,933,955,973,994,1014,1034,1054,1073,1093,1114,1133,1154,1174,1195,1214,1235,1253,1274,1294,1313,1334,1353,1374,1393,1413,1433,1453,1474,1493,1515,1534,1554,1574,1593,1613,1634],"xSR":741.5,"ySR":573.95,"xT1":424.9,"yT1":0,"xT2":1058.1,"yT2":0,"toosoon":0,"cond_shown":"Congruent","ratio_trial":100,"L_num":15,"L_den":25,"R_num":13,"R_den":26,"correct_side":1,"subjID":"LauraAlejandraFajardoMolina12","gender":"1","school":"6","age":"11"},{"start_time":1551899969328,"click_time":1551899970885,"finger_time":1551899970426,"fix_duration":1461.9572105196855,"trial":3,"RT":1098,"MT":459,"sideResp":1,"stimulus":[],"xmouse":[787,787,787,787,787,787,787,787,787,787,787,787,787,787,787,787,787,787,787,787,787,787,787,787,787,787,787,787,787,787,787,787,787,787,787,787,787,787,787,787,787,787,787,787,787,787,787,784,783,782,780,779,778,774,757,748,738,727,723,716,696,686,660,626,578,556,537,518,502,491,490,489,491,499,512,517,521,522],"ymouse":[595,595,595,595,595,595,595,595,595,595,595,595,595,595,595,595,595,595,595,595,595,595,595,595,595,595,595,595,595,595,595,595,595,595,595,595,595,595,595,595,595,595,595,595,595,595,593,592,591,590,589,588,586,580,551,535,517,494,484,477,457,436,376,324,288,273,263,250,236,216,204,188,173,155,125,114,102,93],"timestamp_mouse":[34,38,59,78,97,119,137,158,179,198,217,237,259,278,298,317,338,359,378,399,417,439,457,478,498,517,537,559,578,599,617,638,657,677,697,719,739,757,779,799,817,839,857,878,898,918,938,958,978,998,1018,1038,1059,1078,1098,1118,1137,1157,1178,1197,1217,1237,1257,1278,1298,1318,1337,1357,1378,1397,1417,1438,1457,1478,1497,1517,1537,1557],"xSR":741.5,"ySR":573.95,"xT1":424.9,"yT1":0,"xT2":1058.1,"yT2":0,"toosoon":0,"cond_shown":"Incongruent","ratio_trial":200,"L_num":4,"L_den":6,"R_num":14,"R_den":30,"correct_side":1,"subjID":"LauraAlejandraFajardoMolina12","gender":"1","school":"6","age":"11"},{"start_time":1551899971878,"click_time":1551899974186,"finger_time":1551899973325,"fix_duration":250,"trial":4,"RT":1447,"MT":861,"sideResp":1,"stimulus":[],"xmouse":[759,759,759,759,759,759,759,759,759,760,760,760,760,760,760,760,760,760,760,760,760,760,760,760,760,760,760,760,760,760,760,760,760,760,760,760,760,760,760,760,760,760,760,760,760,760,760,760,760,760,760,760,760,760,760,760,760,761,762,763,763,763,763,763,763,763,763,763,763,763,763,764,764,759,752,750,738,724,716,709,699,690,631,574,520,430,365,299,290,287,287,287,287,287,287,287,287,323,378,385,386,388,388,390,390,391,394,399,404,409,413,415,415,415,419,428],"ymouse":[606,606,606,606,606,606,606,606,604,604,604,603,603,603,603,603,603,603,603,603,603,603,603,603,603,603,603,603,603,603,603,603,603,603,603,603,603,603,603,603,603,603,603,603,603,603,603,603,603,603,603,603,603,603,603,603,603,602,601,600,600,600,600,600,600,600,600,600,600,600,600,593,572,555,538,528,504,473,453,441,430,424,403,386,360,300,239,161,145,141,140,140,140,140,139,139,138,124,104,101,98,96,96,94,93,91,88,83,76,69,63,60,60,60,56,51],"timestamp_mouse":[7,28,48,68,87,109,127,149,167,188,207,228,249,267,287,309,328,347,367,388,407,427,449,467,487,509,527,549,569,589,608,627,648,668,689,709,727,749,769,788,808,827,849,867,888,907,928,947,969,988,1008,1028,1048,1067,1087,1108,1127,1148,1168,1188,1207,1229,1248,1269,1287,1308,1327,1349,1367,1387,1408,1427,1447,1467,1487,1509,1527,1548,1568,1587,1607,1628,1647,1667,1688,1707,1728,1749,1767,1789,1807,1828,1848,1868,1888,1907,1927,1947,1968,1987,2007,2028,2048,2068,2087,2108,2127,2147,2167,2187,2208,2228,2247,2268,2289,2308],"xSR":741.5,"ySR":573.95,"xT1":424.9,"yT1":0,"xT2":1058.1,"yT2":0,"toosoon":0,"cond_shown":"Congruent","ratio_trial":100,"L_num":6,"L_den":20,"R_num":5,"R_den":25,"correct_side":1,"subjID":"LauraAlejandraFajardoMolina12","gender":"1","school":"6","age":"11"},{"start_time":1551899977094,"click_time":1551899978226,"finger_time":1551899977825,"fix_duration":1367.480644269931,"trial":5,"RT":731,"MT":401,"sideResp":1,"stimulus":[],"xmouse":[800,800,800,800,800,800,800,800,800,800,800,800,800,800,800,800,800,800,800,800,800,800,800,798,796,792,791,791,791,791,791,790,789,787,778,768,741,725,711,703,703,696,691,686,680,667,648,637,627,609,591,562,550,536,535,529,523],"ymouse":[601,601,601,601,601,601,601,601,601,601,601,601,601,601,601,601,601,601,601,601,601,601,601,601,602,607,608,608,608,608,608,608,606,602,588,575,535,506,482,466,465,446,426,415,392,362,328,308,291,262,230,189,172,148,144,124,98],"timestamp_mouse":[12,33,52,72,91,112,132,151,171,193,211,233,251,273,291,312,331,352,373,393,411,432,453,472,492,511,531,552,573,592,613,632,651,672,692,712,731,751,772,792,812,832,853,872,892,912,931,952,971,991,1012,1031,1052,1072,1092,1112,1131],"xSR":741.5,"ySR":573.95,"xT1":424.9,"yT1":0,"xT2":1058.1,"yT2":0,"toosoon":0,"cond_shown":"Incongruent","ratio_trial":300,"L_num":1,"L_den":2,"R_num":3,"R_den":15,"correct_side":1,"subjID":"LauraAlejandraFajardoMolina12","gender":"1","school":"6","age":"11"},{"start_time":1551899979778,"click_time":1551899981125,"finger_time":1551899980747,"fix_duration":250,"trial":6,"RT":969,"MT":378,"sideResp":2,"stimulus":[],"xmouse":[804,804,804,804,804,804,804,804,804,804,804,804,804,804,804,804,805,805,805,805,805,805,805,805,805,805,805,805,805,805,805,805,805,805,805,805,805,805,805,805,805,805,805,805,808,811,817,829,831,832,832,872,979,1016,1047,1075,1101,1143,1152,1159,1162,1168,1171,1171,1167,1163,1161,1158],"ymouse":[632,632,632,632,632,632,632,632,632,632,632,632,632,632,632,632,631,630,630,630,630,630,630,630,630,630,630,630,630,630,630,630,630,630,630,630,630,630,630,630,630,630,630,630,626,620,607,576,557,536,522,480,418,395,377,356,335,283,272,259,256,234,172,138,115,104,98,93],"timestamp_mouse":[10,32,48,67,89,107,128,147,168,189,208,228,247,268,287,308,328,347,367,388,409,427,449,469,488,507,529,547,569,588,607,628,649,668,688,707,728,748,767,787,808,828,847,868,888,907,929,947,968,988,1008,1027,1047,1068,1088,1107,1127,1147,1168,1188,1208,1227,1247,1268,1288,1307,1327,1347],"xSR":741.5,"ySR":573.95,"xT1":424.9,"yT1":0,"xT2":1058.1,"yT2":0,"toosoon":0,"cond_shown":"Congruent","ratio_trial":100,"L_num":11,"L_den":22,"R_num":4,"R_den":10,"correct_side":1,"subjID":"LauraAlejandraFajardoMolina12","gender":"1","school":"6","age":"11"},{"start_time":1551899983659,"click_time":1551899987185,"finger_time":1551899986266,"fix_duration":933.8454684415689,"trial":7,"RT":2607,"MT":919,"sideResp":1,"stimulus":[],"xmouse":[810,810,810,810,810,810,810,810,810,810,810,810,810,810,810,810,810,810,810,810,810,810,810,810,810,810,810,810,810,810,810,810,810,810,810,810,810,810,810,810,810,810,810,810,810,810,810,810,810,810,810,810,810,810,810,810,810,810,810,810,810,810,810,810,810,810,810,810,810,810,810,810,810,810,810,810,810,810,810,810,810,810,810,810,810,810,810,810,810,810,810,810,810,810,810,810,810,810,810,810,810,810,810,810,810,810,810,810,810,810,810,810,810,810,810,810,810,810,810,810,810,810,810,810,810,810,810,810,807,802,801,801,801,801,801,801,801,801,801,801,801,801,801,826,834,835,834,827,823,836,840,817,777,730,728,719,703,692,680,677,671,666,653,628,623,615,599,588,575,560,551,549,548,548,547,545,524],"ymouse":[636,636,636,636,636,636,636,636,636,636,636,636,636,636,636,636,636,636,636,636,636,636,636,636,636,636,636,636,636,636,636,636,636,636,636,636,636,636,636,636,636,636,636,636,636,636,636,636,636,636,636,636,636,636,636,636,636,636,636,636,636,636,636,636,636,636,636,636,636,636,636,636,636,636,636,636,636,636,636,636,636,636,636,636,636,636,636,636,636,636,636,636,636,636,636,636,636,636,636,636,636,636,636,636,636,636,636,636,636,636,636,636,636,636,636,636,636,636,636,636,636,636,636,636,636,636,636,636,643,665,675,676,676,676,676,676,676,676,676,676,676,676,676,674,670,668,650,616,509,463,431,396,352,299,293,288,282,277,271,269,266,261,248,210,191,163,108,77,50,36,28,26,25,25,25,25,25],"timestamp_mouse":[10,33,47,68,87,107,126,147,168,187,206,228,247,266,288,306,328,346,368,387,407,428,446,466,488,506,526,548,567,587,606,627,648,666,687,707,727,746,768,788,808,826,847,867,886,906,928,947,966,988,1007,1027,1046,1067,1088,1108,1126,1147,1166,1188,1207,1228,1246,1268,1287,1306,1328,1347,1367,1387,1407,1427,1448,1466,1488,1507,1527,1546,1568,1587,1606,1627,1646,1666,1688,1706,1726,1748,1767,1787,1806,1828,1847,1866,1888,1908,1927,1947,1966,1986,2006,2026,2047,2067,2087,2107,2126,2147,2166,2188,2206,2226,2247,2267,2288,2307,2327,2346,2367,2386,2406,2426,2446,2467,2487,2506,2526,2547,2566,2587,2607,2628,2647,2666,2687,2707,2727,2746,2766,2787,2806,2826,2848,2867,2888,2906,2927,2947,2967,2986,3006,3027,3047,3066,3087,3107,3128,3146,3167,3187,3206,3227,3247,3266,3286,3306,3326,3346,3367,3386,3407,3427,3448,3468,3487,3506,3526],"xSR":741.5,"ySR":573.95,"xT1":424.9,"yT1":0,"xT2":1058.1,"yT2":0,"toosoon":0,"cond_shown":"Congruent","ratio_trial":300,"L_num":4,"L_den":5,"R_num":2,"R_den":4,"correct_side":1,"subjID":"LauraAlejandraFajardoMolina12","gender":"1","school":"6","age":"11"},{"start_time":1551899994186,"click_time":1551899996506,"finger_time":1551899995886,"fix_duration":919.8913537913959,"trial":8,"RT":1700,"MT":620,"sideResp":1,"stimulus":[],"xmouse":[775,775,775,775,775,775,775,775,775,775,775,775,775,775,775,775,775,775,775,775,775,775,775,775,775,775,775,775,775,775,775,775,775,775,775,775,775,775,775,775,775,775,775,775,775,775,775,775,775,775,775,775,775,775,775,775,775,775,775,775,775,775,775,775,775,775,775,775,775,775,775,775,775,775,775,775,775,775,775,775,775,774,766,758,750,739,727,713,708,698,687,667,651,647,638,634,615,612,612,612,612,612,612,608,602,587,564,525,522,522,522,522,521,520,519,519,519],"ymouse":[619,619,619,619,619,619,619,619,619,619,619,619,619,619,619,619,619,619,619,619,619,619,619,619,619,619,619,619,619,619,619,619,619,619,619,619,619,619,619,619,619,619,619,619,619,619,619,619,619,619,619,619,619,619,619,619,619,619,619,619,619,619,619,619,619,619,619,619,619,619,619,619,619,619,619,619,619,619,619,619,619,619,607,598,586,568,547,509,486,445,406,349,311,291,271,261,220,212,212,212,212,212,212,204,194,176,153,120,117,116,116,116,116,114,108,101,92],"timestamp_mouse":[2,18,39,60,79,99,120,140,158,180,199,219,239,259,279,299,318,340,358,379,399,419,439,459,478,498,519,538,558,579,599,618,639,658,678,699,719,739,760,779,799,818,838,859,879,900,918,939,958,979,999,1020,1040,1060,1078,1099,1119,1139,1159,1178,1200,1218,1239,1259,1279,1299,1318,1340,1358,1379,1398,1419,1438,1458,1478,1499,1520,1539,1560,1578,1599,1619,1638,1659,1679,1700,1719,1739,1759,1780,1799,1819,1840,1858,1879,1898,1920,1939,1959,1978,2000,2020,2039,2059,2079,2098,2119,2139,2158,2178,2199,2220,2240,2258,2279,2300,2320],"xSR":741.5,"ySR":573.95,"xT1":424.9,"yT1":0,"xT2":1058.1,"yT2":0,"toosoon":0,"cond_shown":"Incongruent","ratio_trial":300,"L_num":8,"L_den":10,"R_num":14,"R_den":28,"correct_side":1,"subjID":"LauraAlejandraFajardoMolina12","gender":"1","school":"6","age":"11"},{"start_time":1551899998357,"click_time":1551899999826,"finger_time":1551899999365,"fix_duration":931.7200744451048,"trial":9,"RT":1008,"MT":461,"sideResp":2,"stimulus":[],"xmouse":[754,754,754,754,754,754,754,754,754,754,754,754,754,754,754,754,754,754,754,754,754,754,754,754,754,754,754,754,754,754,754,754,754,754,754,754,754,754,754,754,754,754,754,754,754,754,754,754,758,817,854,864,863,856,856,860,892,924,947,947,947,942,941,938,938,938,943,979,991,998,1002,1008,1016,1065],"ymouse":[599,599,599,599,599,599,599,599,599,599,599,599,599,599,599,599,599,599,599,599,599,599,599,599,599,599,599,599,599,599,599,599,599,599,599,599,599,599,599,599,599,599,599,599,599,599,599,599,599,574,550,538,533,533,533,523,449,346,191,150,124,109,109,117,122,122,122,107,104,103,102,100,94,70],"timestamp_mouse":[9,33,49,68,87,108,128,148,167,188,208,229,248,268,288,309,329,348,368,387,407,429,447,468,488,509,528,548,568,587,608,627,649,668,689,709,728,748,768,788,808,829,847,867,888,907,929,949,967,988,1008,1029,1048,1068,1088,1107,1127,1148,1167,1188,1209,1229,1248,1268,1289,1308,1328,1349,1367,1387,1407,1428,1448,1469],"xSR":741.5,"ySR":573.95,"xT1":424.9,"yT1":0,"xT2":1058.1,"yT2":0,"toosoon":0,"cond_shown":"Incongruent","ratio_trial":300,"L_num":4,"L_den":20,"R_num":2,"R_den":4,"correct_side":2,"subjID":"LauraAlejandraFajardoMolina12","gender":"1","school":"6","age":"11"},{"start_time":1551900013667,"click_time":1551900016604,"finger_time":1551900013685,"fix_duration":879.8767778854384,"trial":10,"RT":18,"MT":2919,"sideResp":2,"stimulus":[],"xmouse":[842,843,845,846,846,846,846,846,846,846,846,846,846,846,846,846,846,846,846,848,849,852,856,858,858,858,858,854,851,848,847,847,847,847,847,847,847,847,847,847,847,847,846,845,845,845,845,845,845,845,844,844,844,844,844,844,844,844,844,844,844,843,839,837,835,834,834,834,834,834,834,833,810,806,792,788,788,788,788,788,788,788,788,788,788,788,788,789,790,792,793,795,797,798,798,798,798,799,800,800,800,801,801,801,801,802,802,802,803,803,803,803,803,803,804,807,807,813,815,817,818,820,820,820,820,820,820,846,870,888,898,907,924,954,981,1004,1021,1049,1060,1067,1073,1075,1081,1092,1096,1098,1099],"ymouse":[640,639,638,637,637,637,637,637,637,637,637,637,637,637,637,637,637,637,636,634,632,629,625,625,625,625,625,628,633,640,644,644,644,644,644,644,644,644,644,644,644,644,642,642,642,642,641,641,641,641,641,641,641,641,641,641,641,641,641,641,640,639,637,637,637,637,637,637,637,637,637,637,637,637,634,633,633,633,633,633,633,633,633,633,633,633,632,631,631,629,629,627,626,625,625,625,625,624,624,624,624,623,623,622,622,622,621,621,619,619,619,619,619,619,619,613,612,600,596,590,585,582,567,563,547,543,536,485,443,411,389,368,337,304,282,265,249,222,209,197,185,176,155,131,118,107,96],"timestamp_mouse":[18,38,57,77,98,119,139,157,178,198,218,239,258,277,309,318,338,357,378,399,419,439,459,478,498,519,539,557,578,599,618,638,658,679,697,718,738,758,778,797,819,838,858,878,899,918,939,958,978,999,1017,1039,1057,1078,1098,1118,1138,1159,1179,1199,1219,1237,1257,1279,1297,1319,1338,1357,1378,1399,1419,1438,1458,1479,1498,1517,1537,1558,1577,1597,1618,1638,1658,1679,1699,1717,1738,1759,1778,1799,1819,1837,1858,1879,1898,1918,1938,1959,1978,1998,2018,2037,2058,2078,2098,2119,2137,2158,2178,2198,2218,2237,2258,2278,2297,2318,2338,2357,2377,2398,2418,2438,2458,2479,2498,2517,2538,2557,2578,2599,2619,2639,2658,2677,2698,2719,2738,2758,2777,2798,2818,2838,2858,2879,2898,2917,2937],"xSR":741.5,"ySR":573.95,"xT1":424.9,"yT1":0,"xT2":1058.1,"yT2":0,"toosoon":0,"cond_shown":"Congruent","ratio_trial":100,"L_num":1,"L_den":2,"R_num":3,"R_den":5,"correct_side":2,"subjID":"LauraAlejandraFajardoMolina12","gender":"1","school":"6","age":"11"},{"start_time":1551900018931,"click_time":1551900020745,"finger_time":1551900020305,"fix_duration":1145.6050500341275,"trial":11,"RT":1374,"MT":440,"sideResp":1,"stimulus":[],"xmouse":[801,801,801,801,801,801,801,801,801,801,801,801,801,801,801,801,801,801,801,801,801,801,801,801,801,801,801,801,801,801,801,801,801,801,801,801,801,801,801,801,801,801,801,801,801,801,801,801,801,801,801,801,801,801,801,801,801,801,801,801,801,801,801,801,801,801,801,800,797,789,783,766,742,709,695,677,670,667,665,665,661,639,586,578,578,578,577,568,554,528,520],"ymouse":[595,595,595,595,594,594,594,594,594,594,594,594,593,590,589,588,586,586,585,585,585,585,585,585,585,585,585,585,585,585,585,585,585,585,585,585,585,585,585,585,585,585,585,585,585,585,585,585,585,585,585,585,585,585,585,585,585,585,585,585,585,585,585,585,585,585,585,576,567,493,456,346,262,201,183,160,149,139,127,116,78,29,0,0,0,0,0,7,14,32,49],"timestamp_mouse":[15,40,53,74,94,115,135,154,174,193,215,234,254,274,294,314,334,354,374,393,414,434,454,475,494,514,535,554,574,593,613,635,653,675,694,714,734,754,774,794,814,834,854,875,893,914,934,955,973,995,1015,1034,1054,1075,1095,1115,1134,1154,1173,1194,1214,1233,1254,1274,1294,1315,1334,1355,1374,1394,1415,1434,1455,1473,1493,1513,1534,1553,1574,1593,1614,1634,1654,1675,1694,1715,1734,1754,1773,1793,1814],"xSR":741.5,"ySR":573.95,"xT1":424.9,"yT1":0,"xT2":1058.1,"yT2":0,"toosoon":0,"cond_shown":"Congruent","ratio_trial":200,"L_num":6,"L_den":15,"R_num":3,"R_den":15,"correct_side":1,"subjID":"LauraAlejandraFajardoMolina12","gender":"1","school":"6","age":"11"},{"start_time":1551900022302,"click_time":1551900023725,"finger_time":1551900023025,"fix_duration":816.4146907977483,"trial":12,"RT":723,"MT":700,"sideResp":1,"stimulus":[],"xmouse":[790,791,791,791,791,791,791,791,791,791,791,791,792,792,792,792,792,792,792,792,792,792,792,792,792,792,792,792,792,792,792,792,799,807,811,811,811,811,809,802,797,782,769,757,742,726,699,691,689,687,684,677,670,658,654,652,648,644,638,609,552,441,388,365,357,357,357,357,358,364,373,425],"ymouse":[633,632,632,632,632,632,632,632,631,631,629,629,628,628,628,628,628,628,628,627,627,627,626,626,626,626,626,626,626,626,626,626,612,588,578,574,552,547,541,525,512,485,460,438,419,397,354,337,327,308,297,256,236,213,209,206,202,198,193,175,148,108,91,81,77,77,77,77,76,73,70,66],"timestamp_mouse":[2,38,42,62,83,104,123,143,163,183,204,224,244,263,283,302,322,343,363,383,403,424,443,464,483,503,524,543,562,583,604,622,644,663,684,703,723,743,762,783,803,823,843,862,883,903,923,943,962,983,1003,1023,1044,1063,1083,1103,1123,1142,1162,1183,1204,1223,1244,1263,1283,1302,1323,1342,1362,1384,1404,1423],"xSR":741.5,"ySR":573.95,"xT1":424.9,"yT1":0,"xT2":1058.1,"yT2":0,"toosoon":0,"cond_shown":"Incongruent","ratio_trial":200,"L_num":4,"L_den":6,"R_num":14,"R_den":30,"correct_side":1,"subjID":"LauraAlejandraFajardoMolina12","gender":"1","school":"6","age":"11"},{"start_time":1551900030202,"click_time":1551900031324,"finger_time":1551900030924,"fix_duration":576.0557691818751,"trial":13,"RT":722,"MT":400,"sideResp":2,"stimulus":[],"xmouse":[816,816,816,816,816,816,816,816,816,816,816,816,816,816,816,816,816,816,816,816,816,816,816,816,816,816,816,816,816,816,816,816,816,817,825,835,896,931,958,964,967,972,974,977,981,986,991,991,991,991,991,991,996,1010,1025,1051,1069],"ymouse":[644,644,644,644,644,644,644,644,644,644,644,644,644,644,644,644,644,644,644,644,644,644,644,644,644,644,644,644,644,644,644,644,644,637,617,596,473,395,322,298,285,265,251,232,210,172,113,110,110,110,110,110,107,98,84,75,71],"timestamp_mouse":[9,35,43,63,83,103,122,142,164,183,202,224,243,263,284,302,323,344,363,384,403,423,443,464,483,503,523,542,562,584,603,623,643,663,683,702,722,743,763,782,802,823,842,863,884,903,923,944,963,983,1003,1023,1043,1064,1083,1103,1122],"xSR":741.5,"ySR":573.95,"xT1":424.9,"yT1":0,"xT2":1058.1,"yT2":0,"toosoon":0,"cond_shown":"Incongruent","ratio_trial":300,"L_num":4,"L_den":20,"R_num":2,"R_den":4,"correct_side":2,"subjID":"LauraAlejandraFajardoMolina12","gender":"1","school":"6","age":"11"},{"start_time":1551900038995,"click_time":1551900040865,"finger_time":1551900040345,"fix_duration":648.1444173789795,"trial":14,"RT":1350,"MT":520,"sideResp":2,"stimulus":[],"xmouse":[750,750,750,750,750,750,750,750,750,750,750,750,750,750,750,750,749,746,745,745,745,745,745,745,745,745,745,745,745,745,745,745,745,745,745,745,745,745,745,745,745,745,745,745,745,745,745,745,745,745,745,745,745,745,745,745,745,745,745,745,745,745,745,745,745,745,745,739,722,718,718,718,718,717,719,726,768,798,829,853,881,931,970,1001,1024,1042,1060,1063,1068,1074,1082,1099,1107,1113],"ymouse":[618,618,618,618,618,618,618,618,618,618,618,618,618,618,618,618,618,618,619,619,619,619,619,619,619,619,619,619,619,619,619,619,619,619,619,619,619,619,619,619,619,619,619,619,619,619,619,619,619,619,619,619,619,619,619,619,619,619,619,619,619,619,619,619,619,619,619,619,622,623,623,623,623,620,615,603,517,481,452,432,402,341,306,273,249,229,194,179,162,152,140,117,103,89],"timestamp_mouse":[10,34,50,70,89,110,130,151,170,190,211,230,250,270,290,310,330,351,369,389,410,431,449,469,490,510,531,550,569,590,610,631,650,671,691,710,731,750,771,789,809,830,850,869,889,911,930,949,971,989,1010,1031,1050,1070,1090,1110,1130,1150,1170,1190,1209,1229,1249,1271,1289,1311,1330,1350,1369,1390,1410,1430,1450,1469,1490,1510,1530,1550,1570,1589,1610,1629,1649,1669,1691,1711,1730,1749,1770,1790,1810,1829,1849,1869],"xSR":741.5,"ySR":573.95,"xT1":424.9,"yT1":0,"xT2":1058.1,"yT2":0,"toosoon":0,"cond_shown":"Congruent","ratio_trial":300,"L_num":2,"L_den":20,"R_num":10,"R_den":25,"correct_side":2,"subjID":"LauraAlejandraFajardoMolina12","gender":"1","school":"6","age":"11"},{"start_time":1551900042837,"click_time":1551900044325,"finger_time":1551900043825,"fix_duration":911.4785282979535,"trial":15,"RT":988,"MT":500,"sideResp":2,"stimulus":[],"xmouse":[820,820,820,820,820,820,820,820,820,819,819,819,818,818,818,818,817,817,817,817,817,817,817,817,817,817,817,817,817,817,817,817,817,817,817,817,817,817,817,817,817,817,817,817,817,817,817,817,818,825,833,846,863,875,892,896,902,932,977,1108,1152,1181,1198,1202,1203,1204,1204,1204,1204,1201,1198,1195,1192,1184,1128],"ymouse":[598,598,598,598,598,598,598,598,598,597,597,597,595,594,593,591,590,589,588,586,585,585,585,583,583,583,583,583,583,583,583,583,583,583,583,583,583,583,583,583,583,583,583,583,583,583,583,582,579,569,560,545,530,516,496,490,479,429,364,162,101,71,54,43,29,23,14,7,0,0,0,0,0,0,26],"timestamp_mouse":[11,34,48,68,88,107,129,147,168,188,207,227,249,267,288,309,329,349,368,387,409,428,447,469,489,509,528,548,568,589,607,628,648,669,688,709,728,749,768,789,809,827,849,869,887,907,928,948,968,988,1008,1028,1048,1069,1087,1109,1128,1147,1168,1188,1208,1228,1248,1269,1288,1308,1327,1347,1367,1387,1407,1428,1447,1467,1487],"xSR":741.5,"ySR":573.95,"xT1":424.9,"yT1":0,"xT2":1058.1,"yT2":0,"toosoon":0,"cond_shown":"Incongruent","ratio_trial":100,"L_num":13,"L_den":26,"R_num":6,"R_den":10,"correct_side":2,"subjID":"LauraAlejandraFajardoMolina12","gender":"1","school":"6","age":"11"},{"start_time":1551900046768,"click_time":1551900048965,"finger_time":1551900048606,"fix_duration":1402.3567025569039,"trial":16,"RT":1838,"MT":359,"sideResp":1,"stimulus":[],"xmouse":[820,820,820,820,820,820,820,820,820,820,820,820,820,820,820,820,820,820,820,820,820,820,820,820,820,820,820,820,820,820,820,820,820,820,820,820,820,820,820,820,820,820,820,820,820,820,820,820,820,820,820,820,820,820,820,820,820,820,820,820,820,820,820,820,820,821,822,823,823,823,823,823,823,823,823,823,823,823,823,823,823,823,823,823,823,823,823,823,823,819,813,803,783,771,748,731,724,717,714,709,700,686,657,644,639,637,632,587,537,491],"ymouse":[611,611,611,611,611,611,611,611,611,611,611,611,611,611,611,611,611,611,611,611,611,611,611,611,611,611,611,611,611,611,611,611,611,611,611,611,611,611,611,611,611,611,611,611,611,611,611,611,611,611,611,611,611,611,611,611,611,611,611,611,611,611,611,611,610,610,609,608,608,607,606,606,606,606,605,605,604,604,604,604,604,604,604,604,604,604,604,604,601,598,591,571,503,462,406,368,349,327,306,283,256,223,179,167,163,161,154,114,84,66],"timestamp_mouse":[18,39,58,77,97,118,136,157,177,196,217,238,257,276,298,317,336,358,377,396,418,436,457,477,497,517,538,557,577,597,617,637,657,677,696,718,738,758,778,796,818,836,857,878,896,916,936,958,978,996,1018,1038,1057,1077,1096,1118,1137,1157,1177,1198,1217,1238,1257,1276,1297,1317,1338,1357,1378,1397,1417,1436,1458,1477,1497,1517,1537,1558,1577,1596,1618,1636,1658,1677,1697,1717,1737,1757,1776,1797,1817,1838,1857,1876,1897,1917,1938,1957,1976,1997,2018,2037,2057,2076,2097,2118,2138,2157,2177,2197],"xSR":741.5,"ySR":573.95,"xT1":424.9,"yT1":0,"xT2":1058.1,"yT2":0,"toosoon":0,"cond_shown":"Congruent","ratio_trial":100,"L_num":10,"L_den":25,"R_num":3,"R_den":10,"correct_side":1,"subjID":"LauraAlejandraFajardoMolina12","gender":"1","school":"6","age":"11"},{"start_time":1551900059814,"click_time":1551900062583,"finger_time":1551900061303,"fix_duration":1170.4331695394474,"trial":17,"RT":1489,"MT":1280,"sideResp":1,"stimulus":[],"xmouse":[782,782,782,782,782,782,782,782,782,782,782,782,782,782,782,782,782,782,782,782,782,782,782,782,782,782,782,782,782,782,782,782,782,782,782,782,782,782,782,782,782,782,782,782,782,782,782,782,782,782,782,782,782,782,782,782,782,782,782,782,782,782,782,782,782,782,782,782,782,782,782,782,776,763,733,659,632,608,603,601,601,601,601,597,594,591,587,583,581,577,577,577,577,577,576,575,572,561,553,546,540,539,539,538,536,535,532,532,532,531,530,530,530,530,530,530,530,529,529,529,529,529,529,529,529,529,528,527,522,511,502,502,502,502,502,502,502,502,502],"ymouse":[601,601,601,601,601,601,601,601,601,601,601,601,601,601,601,601,601,601,601,601,601,601,601,601,601,601,601,601,601,601,601,601,601,601,601,601,601,601,601,601,601,601,601,601,601,601,601,601,601,601,601,601,601,601,601,601,601,601,601,601,601,601,601,601,601,601,601,601,601,601,601,601,594,579,547,481,451,415,401,391,380,374,359,339,320,275,250,219,206,197,193,193,193,193,192,186,178,160,150,141,132,131,130,128,125,121,116,116,115,115,114,114,114,114,114,113,113,112,112,112,112,112,112,112,112,112,111,111,109,105,102,102,102,102,102,102,101,100,99],"timestamp_mouse":[11,39,49,70,89,109,130,150,169,189,210,229,249,270,290,310,330,350,369,390,410,431,449,470,489,510,529,551,569,589,610,629,649,670,689,709,729,749,769,789,809,829,849,870,890,909,929,949,970,989,1010,1029,1049,1069,1089,1109,1129,1149,1169,1189,1211,1230,1249,1269,1289,1310,1329,1349,1369,1391,1409,1429,1449,1469,1489,1509,1530,1549,1569,1590,1609,1629,1649,1669,1690,1709,1730,1749,1770,1789,1809,1829,1850,1869,1889,1909,1930,1949,1970,1989,2009,2029,2049,2070,2089,2109,2130,2149,2169,2189,2210,2229,2249,2270,2289,2309,2329,2349,2369,2390,2410,2430,2449,2469,2490,2511,2529,2550,2570,2589,2609,2629,2650,2670,2690,2710,2730,2749,2769],"xSR":741.5,"ySR":573.95,"xT1":424.9,"yT1":0,"xT2":1058.1,"yT2":0,"toosoon":0,"cond_shown":"Incongruent","ratio_trial":300,"L_num":7,"L_den":10,"R_num":8,"R_den":20,"correct_side":1,"subjID":"LauraAlejandraFajardoMolina12","gender":"1","school":"6","age":"11"},{"start_time":1551900072988,"click_time":1551900074223,"finger_time":1551900073784,"fix_duration":1304.0620640255324,"trial":18,"RT":796,"MT":439,"sideResp":1,"stimulus":[],"xmouse":[789,789,789,789,789,789,789,789,789,789,789,789,789,789,789,789,789,789,789,789,789,789,789,789,789,789,789,789,789,789,789,789,789,789,789,789,783,775,764,758,753,740,733,725,718,712,703,703,701,696,690,668,654,643,627,621,590,566,564,558,541,495],"ymouse":[623,623,623,623,623,623,623,623,623,623,623,623,622,621,621,620,620,620,620,620,620,620,619,619,619,619,619,619,619,619,619,619,619,619,619,616,602,588,574,566,556,535,524,514,504,495,479,477,472,463,450,409,382,357,331,321,263,210,204,190,159,94],"timestamp_mouse":[17,35,55,75,96,115,137,155,175,195,217,235,255,276,296,316,336,356,375,395,417,436,455,475,495,515,536,555,576,595,615,635,655,676,695,715,735,756,775,796,816,835,855,875,895,916,935,955,975,995,1016,1035,1055,1075,1095,1115,1135,1156,1175,1195,1216,1235],"xSR":741.5,"ySR":573.95,"xT1":424.9,"yT1":0,"xT2":1058.1,"yT2":0,"toosoon":0,"cond_shown":"Incongruent","ratio_trial":200,"L_num":1,"L_den":2,"R_num":3,"R_den":10,"correct_side":1,"subjID":"LauraAlejandraFajardoMolina12","gender":"1","school":"6","age":"11"},{"start_time":1551900079155,"click_time":1551900081484,"finger_time":1551900080643,"fix_duration":250,"trial":19,"RT":1488,"MT":841,"sideResp":2,"stimulus":[],"xmouse":[807,807,807,807,807,807,807,807,807,807,807,807,807,807,807,807,807,807,807,807,807,807,807,807,807,807,807,807,807,807,807,807,807,807,807,806,806,805,804,804,804,804,804,804,804,804,804,804,804,804,804,804,804,804,804,804,803,801,799,797,797,797,797,797,797,797,796,796,796,796,796,794,793,790,786,783,781,773,761,756,752,750,746,732,725,716,710,707,698,694,693,690,688,686,682,680,673,666,656,662,744,847,942,990,990,990,1003,1030,1078,1094,1107,1111,1114,1116,1120,1121,1120],"ymouse":[589,589,589,589,589,589,589,589,589,589,589,589,589,589,589,589,589,589,589,589,589,589,589,589,589,589,589,589,589,589,589,589,589,589,589,589,589,589,589,589,589,589,589,589,589,589,589,589,589,589,589,589,589,589,589,589,589,589,589,589,589,589,589,589,589,589,589,589,589,589,589,588,586,579,566,543,532,507,471,454,446,440,431,408,400,390,381,372,351,343,338,334,330,324,309,291,265,251,233,232,221,210,194,188,188,188,186,182,175,171,162,157,149,141,113,101,91],"timestamp_mouse":[14,35,48,69,89,109,129,149,169,189,208,229,248,269,288,309,329,349,370,389,409,428,448,468,488,508,528,549,568,588,609,628,648,668,688,708,728,748,768,788,808,828,848,869,890,908,929,948,969,989,1008,1029,1048,1069,1089,1108,1128,1149,1168,1188,1208,1228,1249,1268,1288,1308,1329,1348,1368,1388,1408,1428,1448,1468,1488,1509,1528,1549,1569,1589,1609,1628,1649,1668,1688,1708,1729,1749,1768,1788,1809,1829,1848,1868,1888,1908,1928,1948,1968,1988,2009,2028,2049,2068,2089,2108,2128,2148,2168,2189,2208,2228,2248,2268,2288,2309,2329],"xSR":741.5,"ySR":573.95,"xT1":424.9,"yT1":0,"xT2":1058.1,"yT2":0,"toosoon":0,"cond_shown":"Congruent","ratio_trial":200,"L_num":3,"L_den":10,"R_num":14,"R_den":28,"correct_side":2,"subjID":"LauraAlejandraFajardoMolina12","gender":"1","school":"6","age":"11"},{"start_time":1551900084858,"click_time":1551900086484,"finger_time":1551900085923,"fix_duration":1293.5365373201519,"trial":20,"RT":1065,"MT":561,"sideResp":2,"stimulus":[],"xmouse":[807,805,805,801,801,801,801,801,801,801,801,801,801,801,805,807,809,809,809,809,809,809,809,809,809,809,809,809,809,809,809,809,809,809,809,809,809,809,809,809,809,809,809,809,809,810,810,811,813,819,821,824,829,955,1067,1261,1342,1405,1451,1459,1462,1463,1463,1463,1451,1415,1394,1348,1295,1275,1263,1258,1254,1246,1238,1238,1237,1236,1210,1191,1172,1152],"ymouse":[653,657,657,664,664,664,664,664,664,664,664,664,664,664,664,664,664,664,664,664,664,664,664,664,664,664,664,664,664,664,664,664,664,664,664,664,664,664,664,664,664,664,664,664,664,664,664,664,664,658,654,650,639,519,451,326,290,266,233,222,208,196,188,178,113,72,60,40,32,32,32,33,34,34,36,36,36,40,48,51,54,56],"timestamp_mouse":[5,36,45,65,87,105,125,147,165,185,205,226,245,265,285,305,325,345,365,385,405,425,445,465,485,505,525,546,567,585,606,625,645,665,685,706,725,746,767,785,807,826,846,866,885,905,925,945,965,985,1006,1025,1045,1065,1085,1105,1125,1145,1165,1185,1206,1226,1245,1265,1285,1305,1325,1345,1365,1385,1405,1425,1445,1465,1485,1507,1525,1546,1565,1585,1605,1626],"xSR":741.5,"ySR":573.95,"xT1":424.9,"yT1":0,"xT2":1058.1,"yT2":0,"toosoon":0,"cond_shown":"Incongruent","ratio_trial":100,"L_num":13,"L_den":26,"R_num":12,"R_den":20,"correct_side":2,"subjID":"LauraAlejandraFajardoMolina12","gender":"1","school":"6","age":"11"},{"start_time":1551900090720,"click_time":1551900092544,"finger_time":1551900091544,"fix_duration":915.3316860844287,"trial":21,"RT":824,"MT":1000,"sideResp":1,"stimulus":[],"xmouse":[833,833,833,833,833,833,833,833,833,833,833,833,833,833,833,833,833,833,833,833,833,833,833,833,833,833,833,833,833,829,812,802,801,801,801,801,800,800,801,806,841,867,889,892,899,899,899,899,899,899,899,899,899,899,899,899,891,891,886,862,726,684,676,674,674,674,674,667,663,649,613,589,543,514,473,378,356,355,355,355,355,359,372,378,384,402,412,417,418,418,419,428],"ymouse":[604,604,604,604,604,604,604,604,604,604,604,604,604,604,604,604,604,604,604,604,604,604,604,604,604,604,604,604,604,604,607,609,610,610,610,610,610,610,610,608,604,599,595,594,593,593,593,593,593,593,593,593,593,593,593,593,594,594,595,600,619,621,619,615,605,591,591,549,512,437,274,169,12,0,0,0,0,0,0,0,0,16,59,79,87,90,92,93,93,93,93,75],"timestamp_mouse":[9,38,45,63,85,104,124,145,163,184,204,224,244,263,283,303,323,343,364,383,403,423,443,463,483,504,524,544,563,583,603,623,643,663,683,703,723,744,764,783,803,824,843,863,885,904,923,944,963,984,1003,1024,1044,1065,1083,1103,1123,1143,1163,1183,1203,1223,1243,1263,1283,1304,1323,1344,1364,1384,1403,1424,1443,1463,1483,1503,1523,1543,1563,1584,1603,1624,1643,1665,1684,1703,1723,1743,1763,1784,1804,1824],"xSR":741.5,"ySR":573.95,"xT1":424.9,"yT1":0,"xT2":1058.1,"yT2":0,"toosoon":0,"cond_shown":"Congruent","ratio_trial":300,"L_num":12,"L_den":24,"R_num":2,"R_den":10,"correct_side":1,"subjID":"LauraAlejandraFajardoMolina12","gender":"1","school":"6","age":"11"},{"start_time":1551900095561,"click_time":1551900097184,"finger_time":1551900096523,"fix_duration":334.22079520705785,"trial":22,"RT":962,"MT":661,"sideResp":1,"stimulus":[],"xmouse":[829,829,829,829,829,829,829,829,829,829,829,829,829,829,829,829,829,829,829,829,829,829,829,829,829,829,829,829,829,829,829,829,829,829,829,829,829,828,828,827,825,825,824,818,812,799,784,768,726,699,685,675,664,646,636,629,623,618,610,607,605,604,599,585,571,551,545,545,541,504,463,445,444,454,458,459,460,460,460,463,464,464],"ymouse":[643,643,643,643,643,643,643,643,643,643,643,642,642,642,642,642,642,642,642,641,641,641,641,641,641,641,641,640,640,640,640,639,639,639,638,638,637,634,630,627,625,624,622,616,611,601,588,574,544,524,511,500,486,457,441,428,414,402,379,364,349,332,309,273,249,223,214,214,209,191,172,160,152,131,125,123,120,120,115,107,101,98],"timestamp_mouse":[10,33,43,63,83,102,123,142,162,183,204,222,243,262,282,302,323,342,362,382,402,422,442,462,483,502,522,542,563,583,602,623,642,663,682,703,723,742,762,783,802,822,842,862,882,903,922,942,962,982,1002,1022,1044,1062,1082,1102,1122,1142,1162,1182,1202,1224,1242,1262,1282,1303,1322,1342,1362,1382,1402,1423,1442,1462,1482,1502,1522,1543,1562,1582,1602,1622],"xSR":741.5,"ySR":573.95,"xT1":424.9,"yT1":0,"xT2":1058.1,"yT2":0,"toosoon":0,"cond_shown":"Congruent","ratio_trial":300,"L_num":18,"L_den":20,"R_num":9,"R_den":15,"correct_side":1,"subjID":"LauraAlejandraFajardoMolina12","gender":"1","school":"6","age":"11"},{"start_time":1551900100810,"click_time":1551900102264,"finger_time":1551900101403,"fix_duration":884.3797807266599,"trial":23,"RT":593,"MT":861,"sideResp":1,"stimulus":[],"xmouse":[810,810,810,810,810,810,810,810,810,810,810,810,810,810,810,810,810,810,810,810,810,810,810,810,810,810,810,810,810,810,801,798,790,787,787,787,787,787,787,787,787,786,786,783,773,757,705,683,671,668,668,665,663,662,662,662,658,645,630,616,578,560,554,552,552,552,552,552,552,552,550,536,495],"ymouse":[589,589,589,589,589,589,589,589,589,589,589,589,589,589,589,589,589,589,589,589,589,589,589,589,589,589,587,580,576,567,540,538,538,538,538,538,538,538,538,538,538,536,515,489,447,393,258,207,173,157,127,120,115,113,113,113,113,111,108,104,91,85,81,81,81,81,81,81,81,81,80,76,65],"timestamp_mouse":[13,33,54,74,94,114,134,153,174,193,213,233,254,273,294,313,333,353,373,394,413,433,454,473,494,513,533,553,574,593,613,633,653,673,693,713,734,753,774,794,813,833,854,873,893,913,934,953,974,993,1014,1033,1053,1074,1093,1114,1133,1153,1173,1194,1213,1233,1253,1273,1293,1314,1334,1353,1373,1395,1413,1433,1453],"xSR":741.5,"ySR":573.95,"xT1":424.9,"yT1":0,"xT2":1058.1,"yT2":0,"toosoon":0,"cond_shown":"Incongruent","ratio_trial":200,"L_num":1,"L_den":3,"R_num":2,"R_den":15,"correct_side":1,"subjID":"LauraAlejandraFajardoMolina12","gender":"1","school":"6","age":"11"},{"start_time":1551900103692,"click_time":1551900105223,"finger_time":1551900104803,"fix_duration":648.3780303748401,"trial":24,"RT":1111,"MT":420,"sideResp":1,"stimulus":[],"xmouse":[811,811,813,814,815,816,817,817,817,817,817,817,817,817,817,817,817,817,817,817,817,817,817,817,817,817,817,817,817,819,820,822,822,822,822,822,822,822,822,822,822,822,822,822,822,822,822,822,822,822,822,822,822,820,816,810,803,766,736,710,683,655,653,641,630,625,622,620,619,618,612,591,579,563,553,529,501],"ymouse":[646,646,644,643,642,642,641,641,641,641,641,641,641,641,641,641,641,641,641,641,641,641,641,641,641,641,640,640,640,640,640,638,638,638,637,637,637,637,637,637,637,637,637,637,637,637,635,634,632,630,627,615,604,594,577,554,544,469,425,380,332,259,250,212,183,172,170,169,167,165,159,139,128,114,105,89,66],"timestamp_mouse":[19,36,51,71,91,111,132,151,171,192,212,231,251,271,292,311,331,351,372,391,411,432,451,472,493,511,531,551,572,591,612,631,651,671,692,711,731,752,771,791,813,831,851,871,891,911,931,951,971,992,1012,1031,1052,1071,1093,1111,1131,1151,1171,1191,1211,1231,1251,1271,1292,1311,1331,1351,1371,1391,1412,1431,1452,1471,1491,1511,1531],"xSR":741.5,"ySR":573.95,"xT1":424.9,"yT1":0,"xT2":1058.1,"yT2":0,"toosoon":0,"cond_shown":"Incongruent","ratio_trial":300,"L_num":1,"L_den":2,"R_num":2,"R_den":10,"correct_side":1,"subjID":"LauraAlejandraFajardoMolina12","gender":"1","school":"6","age":"11"},{"start_time":1551900117245,"click_time":1551900118563,"finger_time":1551900118223,"fix_duration":798.8785091178191,"trial":25,"RT":978,"MT":340,"sideResp":2,"stimulus":[],"xmouse":[781,781,781,781,781,781,781,781,781,781,781,781,781,781,781,781,781,781,781,781,781,781,781,781,781,781,781,781,781,781,781,781,781,781,781,781,781,781,781,781,781,781,781,781,781,782,785,788,790,801,807,815,821,829,846,858,866,872,882,893,921,937,949,967,1015,1041,1065],"ymouse":[628,628,628,628,628,628,628,628,628,628,628,628,628,628,628,628,628,628,628,628,628,628,628,628,628,628,628,628,628,628,628,628,628,628,628,628,628,621,614,606,603,600,594,593,593,591,587,583,578,552,534,516,498,481,434,393,369,346,321,292,239,210,187,157,88,56,25],"timestamp_mouse":[1,18,38,59,79,98,118,138,160,178,198,218,239,258,278,298,318,338,359,378,400,418,438,460,478,499,519,539,559,579,600,619,639,658,678,698,718,739,758,779,798,819,839,859,878,898,918,938,958,978,999,1018,1039,1058,1078,1100,1118,1138,1158,1179,1198,1218,1239,1259,1279,1299,1318],"xSR":741.5,"ySR":573.95,"xT1":424.9,"yT1":0,"xT2":1058.1,"yT2":0,"toosoon":0,"cond_shown":"Congruent","ratio_trial":300,"L_num":4,"L_den":20,"R_num":13,"R_den":26,"correct_side":2,"subjID":"LauraAlejandraFajardoMolina12","gender":"1","school":"6","age":"11"},{"start_time":1551900121106,"click_time":1551900122363,"finger_time":1551900121923,"fix_duration":1462.8124792318442,"trial":26,"RT":817,"MT":440,"sideResp":1,"stimulus":[],"xmouse":[799,799,799,799,799,799,799,799,799,799,799,799,799,799,799,799,799,799,799,799,799,799,799,799,799,803,807,809,811,811,812,812,812,812,812,812,812,812,811,809,796,786,767,742,726,719,712,700,683,661,599,571,553,542,532,515,512,512,512,512,512,512,508],"ymouse":[641,641,641,641,641,641,641,641,641,641,641,641,641,641,641,641,641,641,641,641,641,641,641,641,641,632,624,618,613,611,609,609,609,609,608,608,606,603,598,588,549,511,445,356,302,280,267,261,254,241,194,176,160,148,137,120,116,115,115,113,109,104,92],"timestamp_mouse":[33,37,57,77,96,116,138,156,177,196,217,237,257,278,296,318,337,357,378,397,417,437,456,477,497,517,537,557,578,598,617,637,657,678,697,717,737,756,777,797,817,836,857,878,897,917,937,956,976,997,1018,1036,1057,1077,1097,1117,1138,1157,1177,1197,1217,1236,1256],"xSR":741.5,"ySR":573.95,"xT1":424.9,"yT1":0,"xT2":1058.1,"yT2":0,"toosoon":0,"cond_shown":"Congruent","ratio_trial":100,"L_num":2,"L_den":5,"R_num":11,"R_den":22,"correct_side":2,"subjID":"LauraAlejandraFajardoMolina12","gender":"1","school":"6","age":"11"},{"start_time":1551900126478,"click_time":1551900128043,"finger_time":1551900127263,"fix_duration":635.6036273309945,"trial":27,"RT":785,"MT":780,"sideResp":1,"stimulus":[],"xmouse":[776,776,776,776,776,776,776,776,776,776,776,776,776,776,776,776,776,776,776,776,776,776,776,776,776,776,776,776,776,777,777,777,777,777,778,780,781,797,806,816,824,834,849,869,882,894,912,947,960,969,976,982,987,992,995,997,999,1001,1005,1008,1010,1011,1011,1012,1012,1012,1012,1012,1012,1012,1012,1012,1006,955,883,783,677,525,491],"ymouse":[617,617,617,617,617,617,617,617,617,617,617,617,617,617,617,617,617,617,617,617,617,617,617,617,617,617,617,617,617,617,617,617,617,617,617,612,608,585,574,562,554,543,523,498,482,468,446,399,377,357,335,312,288,254,231,216,199,179,166,156,151,149,146,145,144,144,144,144,144,144,144,144,143,143,138,123,109,69,59],"timestamp_mouse":[10,31,45,65,84,106,124,144,165,185,205,225,245,265,286,306,324,344,365,385,405,424,445,465,484,504,525,545,565,585,605,625,645,665,686,706,725,745,764,785,805,825,844,865,885,906,926,945,964,985,1004,1024,1044,1065,1085,1106,1125,1144,1165,1185,1205,1224,1244,1265,1286,1304,1324,1346,1366,1385,1406,1425,1445,1464,1485,1506,1524,1544,1564],"xSR":741.5,"ySR":573.95,"xT1":424.9,"yT1":0,"xT2":1058.1,"yT2":0,"toosoon":0,"cond_shown":"Congruent","ratio_trial":300,"L_num":8,"L_den":16,"R_num":1,"R_den":5,"correct_side":1,"subjID":"LauraAlejandraFajardoMolina12","gender":"1","school":"6","age":"11"},{"start_time":1551900136005,"click_time":1551900137222,"finger_time":1551900136603,"fix_duration":981.5700114446272,"trial":28,"RT":598,"MT":619,"sideResp":1,"stimulus":[],"xmouse":[806,806,806,806,806,806,806,806,806,806,806,806,806,806,806,806,806,806,806,806,806,806,806,806,806,806,807,807,803,799,791,788,778,766,764,752,747,744,739,736,727,724,723,720,719,712,702,691,678,662,624,608,597,592,590,589,587,578,561,534,503],"ymouse":[647,647,646,646,646,646,646,646,646,646,646,646,646,646,646,646,646,646,646,646,646,646,646,643,641,639,627,610,590,566,516,495,476,464,459,430,417,410,406,401,386,376,367,361,358,343,318,297,271,241,156,126,105,98,96,96,94,88,81,76,72],"timestamp_mouse":[34,38,59,78,99,119,137,158,179,198,217,238,259,279,299,317,338,358,378,397,419,438,458,478,497,518,539,558,577,598,618,637,658,678,697,718,738,757,777,798,817,837,859,878,898,918,937,958,978,997,1017,1038,1058,1077,1098,1118,1138,1157,1177,1198,1217],"xSR":741.5,"ySR":573.95,"xT1":424.9,"yT1":0,"xT2":1058.1,"yT2":0,"toosoon":0,"cond_shown":"Incongruent","ratio_trial":200,"L_num":1,"L_den":2,"R_num":3,"R_den":10,"correct_side":1,"subjID":"LauraAlejandraFajardoMolina12","gender":"1","school":"6","age":"11"},{"start_time":1551900139250,"click_time":1551900141382,"finger_time":1551900140664,"fix_duration":844.0574939663647,"trial":29,"RT":1414,"MT":718,"sideResp":1,"stimulus":[],"xmouse":[788,788,788,788,788,788,788,788,788,788,788,788,788,788,788,788,788,788,788,788,788,788,788,788,788,788,788,788,788,788,788,788,788,788,788,788,788,788,788,788,788,788,788,788,788,787,785,784,784,784,784,784,784,784,784,784,784,784,784,784,784,784,783,783,783,782,780,778,778,778,769,757,738,726,721,719,719,718,696,684,678,676,673,669,663,659,650,638,607,597,594,591,591,597,597,597,597,596,595,581,569,559,551,546,541,532,523],"ymouse":[648,648,648,648,649,649,649,649,649,649,649,649,649,649,649,649,649,649,649,649,649,649,649,649,649,649,649,649,649,649,649,649,649,649,649,649,649,649,649,649,649,649,649,649,650,650,651,651,652,652,652,652,652,652,652,652,652,652,652,652,652,652,652,652,652,652,652,650,649,586,557,541,518,501,479,450,426,393,290,256,236,225,211,200,189,184,169,144,28,0,0,0,0,0,0,0,0,0,1,9,16,22,26,27,27,27,28],"timestamp_mouse":[14,37,53,72,94,113,133,153,172,194,213,234,252,272,292,313,332,352,372,393,413,432,453,472,494,513,532,553,573,593,613,632,653,673,693,713,734,752,772,793,812,834,854,872,894,913,933,953,973,992,1013,1033,1053,1072,1093,1113,1133,1152,1173,1193,1214,1233,1253,1273,1294,1313,1332,1353,1373,1393,1414,1433,1454,1473,1493,1512,1532,1554,1573,1593,1612,1633,1653,1672,1692,1713,1734,1753,1773,1792,1813,1833,1853,1873,1893,1914,1934,1952,1973,1993,2013,2034,2053,2073,2092,2112,2132],"xSR":741.5,"ySR":573.95,"xT1":424.9,"yT1":0,"xT2":1058.1,"yT2":0,"toosoon":0,"cond_shown":"Incongruent","ratio_trial":300,"L_num":2,"L_den":4,"R_num":6,"R_den":30,"correct_side":1,"subjID":"LauraAlejandraFajardoMolina12","gender":"1","school":"6","age":"11"},{"start_time":1551900157740,"click_time":1551900159823,"finger_time":1551900159023,"fix_duration":315.70962590034367,"trial":30,"RT":1283,"MT":800,"sideResp":1,"stimulus":[],"xmouse":[808,814,814,821,821,821,821,821,821,821,821,821,821,821,821,821,820,819,819,818,818,818,818,818,819,819,819,819,819,819,819,819,818,818,817,817,817,817,817,817,817,817,817,817,817,817,817,817,817,817,817,817,817,817,816,816,816,816,816,816,816,816,816,816,816,816,815,807,797,781,769,765,755,752,744,741,734,725,711,677,669,665,665,665,651,623,561,502,439,399,399,399,399,399,399,400,401,403,411,435,452,461,467,470,471],"ymouse":[609,599,599,580,579,579,579,579,579,579,579,579,579,579,579,579,579,578,578,578,578,578,578,581,585,585,585,585,585,585,586,586,587,587,587,587,587,587,587,587,587,587,587,587,587,587,587,587,587,587,587,587,587,587,587,587,587,587,587,586,584,582,580,576,572,563,542,513,480,427,387,374,358,354,348,344,328,305,251,132,106,89,83,76,54,38,12,0,0,0,0,0,0,0,0,0,0,0,0,0,0,0,0,0,1],"timestamp_mouse":[10,34,43,63,83,102,124,143,163,183,204,222,242,264,283,302,323,344,362,383,404,422,442,463,482,504,522,544,564,582,603,624,643,663,683,702,724,742,764,784,803,823,842,863,882,904,924,942,964,982,1002,1024,1042,1063,1084,1103,1122,1143,1163,1184,1203,1223,1243,1264,1283,1303,1323,1343,1364,1382,1402,1422,1444,1464,1483,1502,1523,1542,1563,1583,1602,1623,1644,1662,1682,1703,1724,1743,1763,1783,1802,1824,1842,1862,1882,1903,1922,1942,1964,1982,2002,2023,2043,2064,2082],"xSR":741.5,"ySR":573.95,"xT1":424.9,"yT1":0,"xT2":1058.1,"yT2":0,"toosoon":0,"cond_shown":"Incongruent","ratio_trial":300,"L_num":3,"L_den":6,"R_num":4,"R_den":20,"correct_side":1,"subjID":"LauraAlejandraFajardoMolina12","gender":"1","school":"6","age":"11"},{"start_time":1551900161347,"click_time":1551900167383,"finger_time":1551900166464,"fix_duration":502.57497458234945,"trial":31,"RT":5117,"MT":919,"sideResp":2,"stimulus":[],"xmouse":[767,767,767,767,767,767,767,767,767,767,767,767,767,767,767,767,767,767,767,767,767,767,767,767,767,767,767,767,767,767,767,767,767,767,767,767,767,767,767,767,767,767,767,767,767,767,767,767,767,767,768,770,770,770,770,770,770,770,770,771,771,771,771,771,771,771,771,771,771,771,771,771,771,771,771,771,771,771,771,771,771,771,771,771,771,771,771,771,771,771,771,771,771,771,771,771,771,771,771,771,771,771,771,771,771,771,771,771,771,771,771,771,771,771,771,771,771,771,771,771,771,771,771,771,771,771,771,771,771,771,771,771,771,771,771,771,771,771,771,771,771,771,771,771,771,771,771,771,771,771,771,771,771,771,771,771,771,771,771,771,771,771,771,771,771,771,771,771,771,771,771,771,771,771,771,771,771,771,771,771,771,771,771,771,771,771,771,771,771,771,771,771,771,771,771,771,771,771,771,771,771,771,771,771,771,771,771,771,771,771,771,771,771,771,771,771,771,771,771,771,771,771,771,771,771,771,771,771,771,771,771,771,771,771,771,771,771,771,771,771,771,771,771,771,771,771,771,771,771,771,771,771,771,788,821,882,955,1015,1110,1150,1172,1185,1192,1210,1225,1254,1285,1309,1322,1303,1264,1243,1231,1226,1226,1226,1224,1212,1171,1148,1135,1122,1108,1086,1084,1084,1084,1086,1136,1188,1210,1245,1248,1248,1248,1248,1248,1244,1220,1190,1163,1141],"ymouse":[603,603,603,603,603,603,603,603,603,603,603,603,603,603,603,603,603,603,603,603,603,603,603,603,603,603,603,603,603,603,603,603,603,603,603,603,603,603,603,603,603,603,603,603,603,603,603,603,603,603,604,604,604,604,604,604,604,604,604,604,604,604,604,604,604,604,604,604,604,604,604,604,604,604,604,604,604,604,604,604,604,604,604,604,604,604,604,604,604,604,604,604,604,604,604,604,604,604,604,604,604,604,604,604,604,604,604,604,604,604,604,604,604,604,604,604,604,604,604,604,604,604,604,604,604,604,604,604,604,604,604,604,604,604,604,604,604,604,604,604,604,604,604,604,604,604,604,604,604,604,604,604,604,604,604,604,604,604,604,604,604,604,604,604,604,604,604,604,604,604,604,604,604,604,604,604,604,604,604,604,604,604,604,604,604,604,604,604,604,604,604,604,604,604,604,604,604,604,604,604,604,604,604,604,604,604,604,604,604,604,604,604,604,604,604,604,604,604,604,604,604,604,604,604,604,604,604,604,604,604,604,604,604,604,604,604,604,604,604,604,604,604,604,604,604,604,604,604,604,604,604,604,604,604,598,575,544,512,438,371,332,307,288,247,215,154,79,0,0,0,0,0,0,0,0,1,9,43,142,183,191,191,191,178,175,175,174,172,166,141,123,80,64,52,52,52,52,52,48,45,43,40],"timestamp_mouse":[20,40,56,75,96,117,136,156,177,196,215,235,255,276,296,315,335,355,376,397,417,435,457,476,496,515,536,555,577,596,617,636,655,677,697,716,737,756,777,797,816,835,856,875,895,917,935,955,977,995,1015,1037,1055,1076,1097,1116,1136,1156,1176,1195,1216,1236,1255,1275,1295,1316,1336,1357,1377,1395,1417,1436,1455,1476,1496,1516,1536,1556,1576,1596,1616,1637,1656,1676,1697,1716,1735,1757,1775,1795,1815,1835,1856,1876,1896,1915,1937,1955,1977,1997,2015,2036,2056,2076,2097,2116,2137,2157,2175,2196,2217,2236,2255,2276,2296,2317,2336,2357,2376,2397,2415,2437,2456,2477,2496,2515,2537,2555,2575,2596,2615,2636,2657,2676,2696,2715,2737,2756,2776,2797,2817,2836,2856,2875,2895,2917,2935,2955,2976,2996,3016,3036,3055,3077,3097,3116,3135,3156,3176,3196,3216,3235,3256,3276,3296,3315,3336,3355,3375,3396,3416,3437,3455,3477,3497,3516,3536,3557,3576,3597,3616,3636,3657,3675,3695,3716,3736,3757,3775,3796,3817,3836,3856,3877,3895,3917,3935,3956,3977,3996,4016,4037,4057,4075,4097,4116,4136,4157,4175,4196,4216,4236,4256,4276,4296,4316,4335,4356,4377,4395,4417,4436,4457,4476,4495,4517,4536,4557,4577,4597,4615,4635,4655,4675,4697,4717,4735,4757,4776,4795,4817,4837,4856,4876,4897,4916,4937,4956,4976,4995,5016,5035,5056,5075,5096,5117,5136,5155,5175,5195,5216,5236,5255,5275,5295,5316,5335,5355,5376,5395,5416,5435,5455,5477,5495,5516,5535,5556,5575,5595,5616,5637,5657,5676,5695,5716,5737,5756,5776,5796,5817,5835,5855,5875,5897,5916,5935,5955,5975,5995,6016,6036],"xSR":741.5,"ySR":573.95,"xT1":424.9,"yT1":0,"xT2":1058.1,"yT2":0,"toosoon":0,"cond_shown":"Incongruent","ratio_trial":100,"L_num":9,"L_den":15,"R_num":13,"R_den":26,"correct_side":1,"subjID":"LauraAlejandraFajardoMolina12","gender":"1","school":"6","age":"11"},{"start_time":1551900169216,"click_time":1551900170942,"finger_time":1551900170623,"fix_duration":531.9904500632543,"trial":32,"RT":1407,"MT":319,"sideResp":2,"stimulus":[],"xmouse":[783,783,783,783,783,783,783,783,783,783,783,783,781,781,781,781,781,781,781,781,781,781,781,781,781,781,781,781,781,781,781,781,781,781,781,781,781,781,781,781,781,781,781,781,781,781,781,781,781,781,781,781,781,781,781,781,781,781,781,781,781,781,781,781,780,780,781,786,793,800,823,841,859,875,889,907,918,942,959,977,1006,1015,1021,1024,1027,1037,1060],"ymouse":[640,639,639,639,639,639,639,639,639,639,639,639,639,639,639,639,639,639,639,639,639,639,639,639,639,639,639,639,639,639,639,639,639,639,639,639,639,639,639,639,639,639,639,639,639,639,639,639,639,639,639,639,639,639,639,639,639,639,639,639,639,639,639,639,639,639,637,627,616,603,568,552,531,509,484,432,379,290,247,211,163,145,123,112,102,94,84],"timestamp_mouse":[9,39,47,67,86,107,126,147,166,187,207,227,248,268,288,307,328,346,367,388,406,428,448,468,487,507,527,546,567,586,607,626,647,667,687,708,728,746,768,787,807,827,846,866,886,907,927,947,968,986,1008,1027,1047,1067,1088,1108,1126,1148,1167,1186,1207,1227,1246,1267,1287,1306,1327,1347,1367,1387,1407,1426,1447,1467,1488,1507,1528,1546,1566,1587,1607,1626,1647,1667,1686,1706,1726],"xSR":741.5,"ySR":573.95,"xT1":424.9,"yT1":0,"xT2":1058.1,"yT2":0,"toosoon":0,"cond_shown":"Congruent","ratio_trial":300,"L_num":1,"L_den":5,"R_num":11,"R_den":22,"correct_side":2,"subjID":"LauraAlejandraFajardoMolina12","gender":"1","school":"6","age":"11"},{"start_time":1551900172134,"click_time":1551900174323,"finger_time":1551900173923,"fix_duration":250,"trial":33,"RT":1789,"MT":400,"sideResp":1,"stimulus":[],"xmouse":[786,786,786,786,786,786,786,786,786,786,786,786,786,786,786,786,786,786,786,786,786,786,786,786,786,786,786,786,786,786,786,786,786,786,786,788,788,788,788,788,788,788,788,788,788,788,788,788,788,788,788,788,788,788,788,788,788,788,788,788,788,788,788,788,788,788,788,788,786,785,784,784,784,784,784,784,784,784,784,784,784,784,784,784,784,784,781,776,766,735,688,659,634,612,582,570,561,554,548,542,541,541,541,541,541,541,539,536,530,510],"ymouse":[600,600,600,600,600,600,600,600,600,600,600,600,600,600,600,600,600,600,600,600,600,600,600,600,600,600,600,600,600,600,600,600,600,600,600,600,600,600,600,600,600,600,600,600,600,600,600,600,600,600,600,600,600,600,600,600,600,600,600,600,600,600,600,600,600,600,600,600,600,599,597,597,597,597,597,597,597,597,597,597,597,597,597,597,597,597,595,589,576,535,482,448,407,358,238,164,96,57,11,0,0,0,0,0,0,0,0,1,6,25],"timestamp_mouse":[10,36,48,70,89,108,130,148,170,189,208,229,249,270,289,310,328,350,368,389,408,430,448,468,489,510,528,548,569,589,608,628,648,668,690,709,729,750,768,789,809,828,848,870,889,909,930,950,969,988,1009,1028,1049,1070,1088,1110,1130,1150,1169,1190,1208,1230,1249,1269,1288,1310,1328,1349,1369,1389,1410,1429,1448,1469,1488,1508,1529,1549,1568,1590,1610,1628,1649,1668,1689,1709,1729,1750,1768,1789,1808,1829,1849,1869,1888,1909,1930,1949,1970,1988,2009,2029,2048,2069,2089,2109,2129,2148,2170,2188],"xSR":741.5,"ySR":573.95,"xT1":424.9,"yT1":0,"xT2":1058.1,"yT2":0,"toosoon":0,"cond_shown":"Incongruent","ratio_trial":100,"L_num":9,"L_den":15,"R_num":14,"R_den":28,"correct_side":1,"subjID":"LauraAlejandraFajardoMolina12","gender":"1","school":"6","age":"11"},{"start_time":1551900175775,"click_time":1551900177242,"finger_time":1551900176902,"fix_duration":250,"trial":34,"RT":1127,"MT":340,"sideResp":1,"stimulus":[],"xmouse":[826,826,826,826,826,826,826,826,826,826,826,826,826,826,826,826,826,826,826,826,826,826,826,826,826,826,826,826,826,826,826,826,826,826,826,826,826,826,826,826,826,826,826,826,826,826,826,826,826,826,826,826,826,819,800,753,680,530,470,459,457,464,499,515,524,530,532,532,533,533,533,533,530,521],"ymouse":[662,662,662,662,662,662,662,662,662,662,662,662,662,662,662,662,662,662,662,662,662,662,662,662,662,662,662,662,662,662,662,662,662,662,662,662,662,662,662,662,662,662,662,662,662,662,662,662,662,662,660,659,656,645,623,578,513,359,268,238,220,206,175,166,159,151,142,134,111,106,102,100,98,95],"timestamp_mouse":[16,40,47,67,88,108,128,148,169,187,207,228,248,267,287,309,327,347,368,387,408,429,447,468,488,507,528,547,569,589,607,627,649,668,689,708,729,747,767,789,808,829,848,869,887,908,927,947,968,988,1007,1028,1048,1068,1089,1109,1127,1147,1167,1188,1208,1229,1248,1267,1289,1309,1328,1348,1368,1388,1409,1427,1447,1467],"xSR":741.5,"ySR":573.95,"xT1":424.9,"yT1":0,"xT2":1058.1,"yT2":0,"toosoon":0,"cond_shown":"Congruent","ratio_trial":300,"L_num":20,"L_den":25,"R_num":14,"R_den":28,"correct_side":1,"subjID":"LauraAlejandraFajardoMolina12","gender":"1","school":"6","age":"11"},{"start_time":1551900206695,"click_time":1551900218542,"finger_time":1551900214963,"fix_duration":1471.9924592610291,"trial":35,"RT":8268,"MT":3579,"sideResp":2,"stimulus":[],"xmouse":[819,819,819,819,819,819,819,819,819,819,819,819,819,819,819,819,819,819,819,819,819,819,819,819,819,819,819,819,819,819,819,819,819,819,819,819,819,819,819,819,819,819,819,819,819,819,819,819,819,819,819,819,819,819,819,819,819,819,819,819,819,819,819,819,819,819,819,819,819,819,819,819,819,819,819,819,819,819,819,819,819,819,819,819,819,819,819,819,819,819,819,819,819,819,819,819,819,819,819,819,819,819,819,819,819,819,819,819,819,819,819,819,819,819,819,819,819,819,819,819,819,819,819,819,819,819,819,819,819,819,819,819,819,819,819,819,819,819,819,819,819,819,819,819,819,819,819,819,819,819,819,819,819,819,819,819,819,819,819,819,819,819,819,819,819,819,819,819,819,819,819,819,819,819,819,819,819,819,819,819,819,819,819,819,819,819,819,819,819,819,819,819,819,819,819,819,819,819,819,819,819,819,819,819,819,819,819,819,819,819,819,819,819,819,819,819,819,819,819,819,819,819,819,819,819,819,819,819,819,819,819,819,819,819,819,819,819,819,819,819,819,819,819,819,819,819,819,819,819,819,819,819,819,819,819,819,819,819,819,819,819,819,819,819,819,819,819,819,819,819,819,819,819,819,819,819,819,819,819,819,819,819,819,819,819,819,819,819,819,819,819,819,819,819,819,819,819,819,819,819,819,819,819,819,819,819,819,819,819,819,819,819,819,819,819,819,819,819,819,819,819,819,819,819,819,819,819,819,819,819,819,819,819,819,819,819,819,819,819,819,819,819,819,819,819,819,819,819,819,819,819,819,819,819,819,819,819,819,819,819,819,819,819,819,819,819,819,819,819,819,819,819,819,819,819,819,819,819,819,819,819,819,819,819,819,819,819,819,819,819,819,819,819,819,819,819,819,819,819,819,819,819,818,818,818,818,819,821,824,825,825,825,822,811,804,784,759,755,755,755,753,753,753,753,756,758,761,765,767,771,775,773,769,767,765,762,762,762,762,762,762,762,762,762,762,762,762,762,764,765,765,765,765,765,766,767,767,767,767,767,767,767,767,767,767,767,767,767,767,767,767,767,767,767,767,767,767,767,767,767,767,767,767,767,767,767,767,767,767,767,767,767,767,767,767,767,767,767,767,767,767,767,767,767,767,767,767,767,767,767,767,767,767,767,767,767,767,767,767,767,767,767,767,767,767,767,767,767,767,767,767,767,767,767,767,767,767,767,767,767,767,767,767,767,767,767,767,767,767,767,767,767,768,769,769,771,774,776,778,780,782,785,785,787,788,789,793,796,847,931,1012,1147,1203,1251,1278,1292,1300,1300,1294,1278,1252,1219,1216,1210,1194,1170,1166,1165,1164,1162,1160,1144,1133],"ymouse":[647,647,647,647,647,647,647,647,647,647,647,647,647,647,647,647,647,647,647,647,647,647,647,647,647,647,647,647,647,647,647,647,647,647,647,647,647,647,647,647,647,647,647,647,647,647,647,647,647,647,647,647,647,647,647,647,647,647,647,647,647,647,647,647,647,647,647,647,647,647,647,647,647,647,647,647,647,647,647,647,647,647,647,647,647,647,647,647,647,647,647,647,647,647,647,647,647,647,647,647,647,647,647,647,647,647,647,647,647,647,647,647,647,647,647,647,647,647,647,647,647,647,647,647,647,647,647,647,647,647,647,647,647,647,647,647,647,647,647,647,647,647,647,647,647,647,647,647,647,647,647,647,647,647,647,647,647,647,647,647,647,647,647,647,647,647,647,647,647,647,647,647,647,647,647,647,647,647,647,647,647,647,647,647,647,647,647,647,647,647,647,647,647,647,647,647,647,647,647,647,647,647,647,647,647,647,647,647,647,647,647,647,647,647,647,647,647,647,647,647,647,647,647,647,647,647,647,647,647,647,647,647,647,647,647,647,647,647,647,647,647,647,647,647,647,647,647,647,647,647,647,647,647,647,647,647,647,647,647,647,647,647,647,647,647,647,647,647,647,647,647,647,647,647,647,647,647,647,647,647,647,647,647,647,647,647,647,647,647,647,647,647,647,647,647,647,647,647,647,647,647,647,647,647,647,647,647,647,647,647,647,647,647,647,647,647,647,647,647,647,647,647,647,647,647,647,647,647,647,647,647,647,647,647,647,647,647,647,647,647,647,647,647,647,647,647,647,647,647,647,647,647,647,647,647,647,647,647,647,647,647,647,647,647,647,647,647,647,647,647,647,647,647,647,647,647,647,647,647,647,647,647,647,647,647,647,647,647,647,647,647,647,647,647,647,647,647,647,647,647,647,647,648,648,648,648,648,648,648,648,648,648,660,681,689,712,727,728,728,728,728,725,725,725,720,715,707,701,694,688,677,645,633,631,631,631,631,631,631,631,631,631,631,631,631,631,630,629,626,626,626,626,626,626,626,626,626,626,626,626,626,626,626,626,626,626,626,626,626,626,626,626,626,626,626,626,626,626,626,626,626,626,626,626,626,626,626,626,626,626,626,626,626,626,626,626,626,626,626,626,626,626,626,626,626,626,626,626,626,626,626,626,626,626,626,626,626,626,626,626,626,626,626,626,626,626,626,626,626,626,626,626,626,626,626,626,626,626,626,626,626,626,626,626,626,626,626,626,626,626,626,626,626,626,626,626,625,624,622,619,614,604,599,595,592,590,582,574,524,446,354,254,231,212,201,195,184,172,161,152,145,140,138,136,134,133,132,132,131,128,123,103,87],"timestamp_mouse":[10,40,47,68,87,108,127,147,168,189,207,229,247,268,289,309,328,349,368,388,408,427,447,468,488,507,528,548,567,588,608,628,647,667,688,707,728,747,768,788,808,828,847,868,889,908,929,948,968,987,1007,1028,1048,1068,1089,1108,1127,1147,1167,1189,1207,1228,1248,1268,1288,1307,1328,1349,1367,1388,1407,1428,1448,1469,1488,1509,1529,1547,1568,1587,1608,1628,1649,1669,1688,1707,1729,1748,1768,1788,1809,1828,1847,1869,1887,1908,1929,1947,1968,1988,2007,2029,2047,2067,2089,2107,2128,2148,2168,2188,2209,2228,2248,2267,2289,2307,2329,2349,2367,2389,2407,2429,2448,2468,2488,2509,2529,2547,2569,2588,2608,2629,2647,2667,2688,2708,2729,2747,2769,2788,2808,2827,2849,2867,2889,2908,2929,2947,2968,2988,3008,3027,3049,3068,3088,3109,3128,3148,3167,3188,3208,3227,3249,3267,3288,3309,3327,3349,3369,3388,3408,3428,3447,3468,3489,3508,3528,3549,3567,3589,3607,3629,3647,3667,3689,3709,3728,3748,3768,3788,3807,3827,3848,3867,3887,3908,3927,3948,3969,3989,4007,4028,4048,4067,4088,4108,4129,4147,4169,4187,4207,4228,4248,4269,4288,4308,4328,4347,4369,4387,4407,4428,4449,4467,4487,4508,4528,4548,4568,4588,4608,4628,4647,4667,4687,4708,4727,4747,4768,4787,4808,4827,4849,4869,4888,4908,4929,4947,4967,4988,5008,5029,5047,5069,5087,5108,5129,5148,5169,5187,5208,5229,5248,5268,5289,5309,5327,5349,5367,5388,5408,5428,5448,5468,5488,5508,5528,5548,5569,5587,5609,5627,5648,5669,5687,5707,5728,5748,5769,5788,5807,5829,5848,5868,5887,5908,5928,5949,5969,5988,6007,6028,6048,6067,6087,6109,6128,6147,6167,6189,6209,6227,6247,6268,6289,6307,6327,6348,6368,6388,6409,6428,6449,6467,6489,6508,6528,6547,6568,6587,6609,6629,6647,6668,6688,6707,6728,6747,6767,6788,6808,6828,6849,6868,6888,6907,6929,6949,6967,6987,7009,7028,7047,7069,7088,7108,7129,7147,7168,7188,7208,7228,7248,7267,7288,7309,7329,7349,7368,7389,7407,7429,7448,7468,7488,7507,7528,7547,7568,7587,7608,7628,7648,7668,7688,7707,7729,7747,7767,7788,7807,7827,7849,7868,7888,7909,7929,7948,7967,7988,8008,8028,8048,8068,8088,8107,8129,8148,8168,8187,8207,8227,8249,8268,8289,8308,8328,8348,8368,8387,8408,8429,8448,8468,8489,8508,8528,8548,8568,8589,8608,8628,8648,8668,8687,8708,8728,8749,8767,8787,8808,8828,8848,8869,8889,8907,8928,8948,8968,8987,9007,9027,9049,9068,9088,9109,9128,9148,9168,9188,9208,9227,9247,9267,9289,9307,9328,9347,9368,9387,9408,9428,9448,9468,9489,9508,9528,9548,9568,9589,9607,9627,9647,9668,9688,9708,9728,9748,9767,9788,9807,9828,9849,9869,9887,9907,9929,9948,9968,9988,10008,10027,10049,10067,10088,10109,10127,10147,10167,10188,10208,10228,10248,10269,10287,10308,10329,10348,10369,10387,10407,10429,10447,10469,10489,10507,10528,10548,10569,10587,10609,10628,10649,10669,10688,10708,10727,10749,10767,10789,10808,10829,10847,10868,10888,10908,10927,10947,10968,10988,11008,11027,11049,11068,11087,11108,11128,11147,11169,11189,11208,11228,11249,11268,11289,11309,11327,11348,11369,11388,11408,11428,11449,11467,11488,11509,11529,11548,11567,11588,11609,11628,11649,11668,11688,11707,11727,11748,11768,11789,11809,11828,11847],"xSR":741.5,"ySR":573.95,"xT1":424.9,"yT1":0,"xT2":1058.1,"yT2":0,"toosoon":0,"cond_shown":"Incongruent","ratio_trial":100,"L_num":9,"L_den":18,"R_num":6,"R_den":10,"correct_side":2,"subjID":"LauraAlejandraFajardoMolina12","gender":"1","school":"6","age":"11"},{"start_time":1551900220681,"click_time":1551900222083,"finger_time":1551900221943,"fix_duration":334.5124834019313,"trial":36,"RT":1262,"MT":140,"sideResp":1,"stimulus":[],"xmouse":[800,800,800,800,800,800,800,800,800,800,800,800,800,800,800,800,800,799,799,799,799,799,799,799,799,799,799,798,798,798,798,797,797,797,797,797,798,802,804,808,814,821,827,827,827,828,828,829,829,829,829,829,829,829,829,829,829,829,829,829,829,829,822,787,752,704,655,534,500,482,475],"ymouse":[607,607,607,607,607,607,607,607,607,607,607,607,607,607,607,607,607,608,608,608,608,608,608,608,608,608,608,608,608,608,608,608,608,607,607,607,606,606,606,604,601,596,590,590,590,590,588,587,586,586,586,585,585,585,585,585,585,585,585,585,585,585,577,550,527,500,468,316,207,106,57],"timestamp_mouse":[1,22,42,62,81,101,122,141,163,181,201,222,241,262,282,303,322,341,363,382,402,422,442,463,481,502,522,543,561,583,601,621,643,661,681,701,722,743,762,781,803,823,843,863,881,902,922,942,963,981,1001,1021,1042,1063,1082,1103,1122,1143,1161,1182,1201,1221,1242,1262,1282,1302,1321,1342,1361,1383,1402],"xSR":741.5,"ySR":573.95,"xT1":424.9,"yT1":0,"xT2":1058.1,"yT2":0,"toosoon":0,"cond_shown":"Congruent","ratio_trial":100,"L_num":11,"L_den":22,"R_num":4,"R_den":10,"correct_side":1,"subjID":"LauraAlejandraFajardoMolina12","gender":"1","school":"6","age":"11"},{"start_time":1551900240548,"click_time":1551900242363,"finger_time":1551900241483,"fix_duration":1484.609703656871,"trial":37,"RT":935,"MT":880,"sideResp":1,"stimulus":[],"xmouse":[795,795,795,795,795,795,795,795,795,795,795,795,795,795,795,795,795,795,795,795,795,795,795,795,795,795,795,795,795,796,796,796,796,796,796,796,796,797,801,807,810,821,827,836,840,841,842,843,844,844,844,844,844,844,844,844,844,844,844,844,844,844,844,844,844,844,839,820,791,746,710,672,622,565,462,424,400,387,384,384,384,384,384,384,387,390,396,403,415,423,435],"ymouse":[587,587,587,587,587,587,587,587,587,587,587,587,587,587,587,587,587,587,587,587,587,587,587,587,587,587,587,587,587,587,587,587,587,587,587,587,587,587,586,586,586,586,586,586,586,586,586,586,585,585,585,585,585,585,585,585,585,585,585,585,585,585,585,585,585,585,566,505,358,231,184,151,114,74,0,0,0,0,0,0,0,0,0,0,0,1,7,16,33,41,44],"timestamp_mouse":[16,38,55,75,95,116,134,156,174,194,215,234,255,276,294,314,336,355,375,395,415,434,455,475,495,515,535,555,574,596,615,635,654,675,694,714,736,756,775,794,815,835,856,875,895,916,935,954,976,996,1015,1034,1054,1075,1096,1114,1134,1156,1175,1196,1216,1235,1255,1275,1296,1315,1334,1354,1375,1394,1415,1435,1455,1475,1494,1514,1535,1555,1576,1595,1615,1635,1656,1674,1694,1716,1734,1755,1774,1794,1815],"xSR":741.5,"ySR":573.95,"xT1":424.9,"yT1":0,"xT2":1058.1,"yT2":0,"toosoon":0,"cond_shown":"Congruent","ratio_trial":300,"L_num":5,"L_den":25,"R_num":6,"R_den":12,"correct_side":2,"subjID":"LauraAlejandraFajardoMolina12","gender":"1","school":"6","age":"11"},{"start_time":1551900259943,"click_time":1551900268582,"finger_time":1551900268143,"fix_duration":1299.7149276379032,"trial":38,"RT":8200,"MT":439,"sideResp":2,"stimulus":[],"xmouse":[823,823,823,823,823,823,823,823,823,823,823,823,823,823,823,823,823,823,823,823,823,823,823,823,823,823,823,823,823,823,823,823,823,823,823,823,823,823,823,823,823,823,823,823,823,823,823,823,823,823,823,823,823,823,823,823,823,823,823,823,823,823,823,823,823,823,823,823,823,823,823,823,823,823,823,823,823,823,823,823,823,823,823,823,823,823,823,823,823,823,823,823,823,823,823,823,823,823,823,823,823,823,823,823,823,823,823,823,823,823,823,823,823,823,823,823,823,823,823,823,823,823,823,823,823,823,823,823,823,823,823,823,823,823,823,823,823,823,823,823,823,823,823,823,823,823,823,823,823,823,823,823,823,823,823,823,823,823,823,823,823,823,823,823,823,823,823,823,823,823,823,823,823,823,823,823,823,823,823,823,823,823,823,823,823,823,823,823,823,823,823,823,823,823,823,823,823,823,823,823,823,823,823,823,823,823,823,823,823,823,823,823,823,823,823,823,823,823,823,823,823,823,823,823,823,823,823,823,823,823,823,823,823,823,823,823,823,823,823,823,823,823,823,823,823,823,823,823,823,823,823,823,823,823,823,823,823,823,823,823,823,823,823,823,823,823,823,823,823,823,823,823,823,823,823,823,823,823,823,823,823,823,823,823,823,823,823,823,823,823,823,823,823,823,823,823,823,823,823,823,823,823,823,823,823,823,823,823,823,823,823,823,823,823,823,823,823,823,823,823,823,823,823,823,823,823,823,823,823,823,823,823,823,823,823,823,823,823,823,823,823,823,823,823,823,823,823,823,823,823,823,823,823,823,823,823,823,823,823,823,823,823,823,823,823,823,823,823,823,823,823,823,823,823,821,819,814,813,813,813,813,813,813,813,813,813,813,813,812,812,812,812,812,812,812,812,812,812,812,812,812,812,812,814,822,827,831,832,832,830,826,824,812,803,803,826,851,882,916,1004,1022,1035,1038,1038,1042,1042,1043,1044,1046,1048,1051,1057,1065],"ymouse":[661,661,661,661,661,661,661,661,661,661,661,661,661,661,661,661,661,661,661,661,661,661,661,661,661,661,661,661,661,661,661,661,661,661,661,661,661,661,661,661,661,661,661,661,661,661,661,661,661,661,661,661,661,661,661,661,661,661,661,661,661,661,661,661,661,661,661,661,661,661,661,661,661,661,661,661,661,661,661,661,661,661,661,661,661,661,661,661,661,661,661,661,661,661,661,661,661,661,661,661,661,661,661,661,661,661,661,661,661,661,661,661,661,661,661,661,661,661,661,661,661,661,661,661,661,661,661,661,661,661,661,661,661,661,661,661,661,661,661,661,661,661,661,661,661,661,661,661,661,661,661,661,661,661,661,661,661,661,661,661,661,661,661,661,661,661,661,661,661,661,661,661,661,661,661,661,661,661,661,661,661,661,661,661,661,661,661,661,661,661,661,661,661,661,661,661,661,661,661,661,661,661,661,661,661,661,661,661,661,661,661,661,661,661,661,661,661,661,661,661,661,661,661,661,661,661,661,661,661,661,661,661,661,661,661,661,661,661,661,661,661,661,661,661,661,661,661,661,661,661,661,661,661,661,661,661,661,661,661,661,661,661,661,661,661,661,661,661,661,661,661,661,661,661,661,661,661,661,661,661,661,661,661,661,661,661,661,661,661,661,661,661,661,661,661,661,661,661,661,661,661,661,661,661,661,661,661,661,661,661,661,661,661,661,661,661,661,661,661,661,661,661,661,661,661,661,661,661,661,661,661,661,661,661,661,661,661,661,661,661,661,661,661,661,661,661,661,661,661,661,661,661,661,661,661,661,661,661,661,661,661,661,661,661,661,661,661,661,661,661,661,661,661,661,661,661,661,661,661,661,661,661,661,661,661,661,661,661,661,661,661,661,661,661,661,661,661,661,661,661,661,659,647,633,610,600,593,588,584,574,571,568,559,546,528,467,408,323,255,127,97,61,56,55,54,54,53,51,49,48,48,51,56],"timestamp_mouse":[1,35,40,60,80,100,120,140,160,180,200,220,239,260,280,299,319,339,359,380,399,421,440,461,480,499,521,541,559,580,599,619,640,661,679,700,719,740,761,779,799,820,841,861,879,899,921,940,961,980,1000,1019,1039,1060,1080,1099,1121,1141,1160,1180,1199,1219,1241,1260,1280,1301,1321,1339,1359,1381,1400,1419,1441,1460,1479,1500,1520,1539,1560,1581,1599,1621,1641,1660,1680,1701,1720,1741,1759,1780,1800,1819,1841,1860,1880,1899,1921,1940,1959,1980,1999,2021,2039,2061,2079,2100,2120,2139,2161,2180,2199,2219,2240,2259,2279,2301,2321,2340,2361,2381,2399,2421,2440,2459,2480,2500,2520,2540,2559,2579,2601,2620,2641,2661,2680,2700,2720,2740,2761,2779,2800,2820,2839,2860,2881,2899,2920,2940,2959,2979,3000,3020,3040,3059,3080,3100,3120,3140,3161,3179,3200,3220,3241,3259,3280,3299,3321,3339,3361,3379,3399,3420,3439,3461,3479,3501,3521,3539,3559,3579,3599,3620,3639,3660,3679,3699,3719,3739,3760,3779,3799,3820,3840,3859,3880,3899,3920,3939,3960,3980,4000,4019,4040,4059,4079,4100,4119,4139,4159,4180,4200,4220,4240,4260,4280,4300,4319,4340,4359,4379,4399,4419,4440,4459,4480,4499,4519,4539,4559,4581,4599,4620,4639,4660,4679,4699,4719,4739,4760,4779,4800,4819,4839,4860,4879,4900,4920,4940,4959,4980,4999,5019,5039,5059,5080,5100,5119,5140,5159,5179,5200,5220,5239,5260,5280,5299,5319,5339,5359,5380,5399,5420,5439,5459,5480,5499,5520,5540,5560,5580,5600,5620,5639,5659,5680,5700,5719,5739,5760,5779,5799,5819,5839,5859,5880,5900,5919,5939,5960,5980,5999,6020,6040,6059,6079,6101,6119,6139,6160,6179,6199,6219,6240,6260,6279,6299,6320,6340,6359,6380,6399,6420,6439,6459,6479,6499,6519,6540,6559,6580,6599,6619,6640,6660,6679,6699,6720,6739,6759,6779,6800,6820,6839,6859,6880,6899,6919,6939,6959,6980,6999,7019,7039,7059,7079,7099,7119,7139,7160,7180,7199,7220,7240,7259,7279,7300,7320,7339,7360,7379,7400,7419,7439,7459,7480,7499,7519,7539,7559,7579,7599,7619,7639,7659,7679,7699,7719,7739,7759,7779,7800,7819,7839,7860,7879,7899,7919,7940,7959,7979,7999,8019,8039,8060,8079,8099,8120,8139,8159,8179,8200,8220,8240,8260,8279,8299,8319,8339,8360,8379,8399,8420,8439,8459,8479,8499,8519,8539,8560,8579,8599,8619,8639],"xSR":741.5,"ySR":573.95,"xT1":424.9,"yT1":0,"xT2":1058.1,"yT2":0,"toosoon":0,"cond_shown":"Incongruent","ratio_trial":200,"L_num":6,"L_den":20,"R_num":3,"R_den":6,"correct_side":2,"subjID":"LauraAlejandraFajardoMolina12","gender":"1","school":"6","age":"11"},{"start_time":1551900272281,"click_time":1551900273422,"finger_time":1551900273202,"fix_duration":856.2287422822452,"trial":39,"RT":921,"MT":220,"sideResp":1,"stimulus":[],"xmouse":[817,817,817,817,817,817,817,817,817,817,817,817,817,817,817,817,817,817,817,817,817,817,817,817,817,817,817,817,817,817,817,817,817,817,817,817,817,817,817,817,817,816,811,807,805,805,798,737,680,641,622,617,621,624,610,584,546,490],"ymouse":[619,619,619,619,619,619,619,619,619,619,619,619,619,619,619,619,619,619,619,619,619,619,619,619,619,619,619,619,619,619,619,619,619,619,619,619,619,619,619,619,619,619,619,618,614,599,565,462,399,354,329,316,292,275,230,185,130,59],"timestamp_mouse":[11,21,41,62,82,102,122,142,161,182,202,222,242,262,282,302,321,342,361,382,402,422,442,461,481,501,522,541,561,582,601,622,641,661,681,701,721,741,761,781,801,821,841,862,881,902,921,941,961,981,1001,1021,1040,1061,1081,1102,1121,1141],"xSR":741.5,"ySR":573.95,"xT1":424.9,"yT1":0,"xT2":1058.1,"yT2":0,"toosoon":0,"cond_shown":"Congruent","ratio_trial":300,"L_num":18,"L_den":20,"R_num":9,"R_den":15,"correct_side":1,"subjID":"LauraAlejandraFajardoMolina12","gender":"1","school":"6","age":"11"},{"start_time":1551900277309,"click_time":1551900279202,"finger_time":1551900278203,"fix_duration":1284.7629481124143,"trial":40,"RT":894,"MT":999,"sideResp":2,"stimulus":[],"xmouse":[815,815,815,815,815,815,815,815,815,815,815,815,815,815,815,815,815,815,815,815,815,815,815,815,815,815,815,815,815,815,816,817,818,821,822,825,826,826,826,827,827,829,833,838,841,848,850,852,852,852,853,853,853,853,853,853,854,862,878,899,923,949,949,949,946,943,943,945,946,947,969,978,989,999,1015,1034,1034,1034,1034,1034,1039,1041,1044,1048,1052,1056,1056,1057,1058,1063,1069,1075,1079,1086,1091],"ymouse":[610,610,610,610,610,610,610,610,610,610,610,610,610,610,610,610,610,610,610,610,610,610,610,610,610,610,610,608,607,606,603,602,601,597,594,587,586,586,586,585,585,583,580,575,572,567,565,564,564,563,563,563,563,563,563,563,559,549,538,522,499,459,453,445,429,413,402,391,388,380,339,314,286,269,244,220,218,218,217,217,215,211,205,196,184,161,159,158,154,148,135,122,115,103,92],"timestamp_mouse":[14,33,54,74,93,113,134,154,174,194,215,234,254,273,293,313,333,353,373,394,413,433,454,473,493,513,533,553,573,594,614,633,653,674,695,714,733,753,773,793,813,833,853,873,894,913,933,954,973,993,1015,1033,1053,1073,1094,1113,1133,1154,1173,1193,1213,1233,1253,1274,1293,1313,1333,1353,1373,1393,1414,1432,1453,1473,1493,1513,1533,1554,1573,1593,1614,1634,1653,1673,1693,1713,1733,1754,1774,1793,1813,1833,1853,1874,1893],"xSR":741.5,"ySR":573.95,"xT1":424.9,"yT1":0,"xT2":1058.1,"yT2":0,"toosoon":0,"cond_shown":"Incongruent","ratio_trial":100,"L_num":11,"L_den":22,"R_num":9,"R_den":15,"correct_side":2,"subjID":"LauraAlejandraFajardoMolina12","gender":"1","school":"6","age":"11"},{"start_time":1551900280906,"click_time":1551900281923,"finger_time":1551900281502,"fix_duration":363.32639450703795,"trial":41,"RT":596,"MT":421,"sideResp":1,"stimulus":[],"xmouse":[805,805,805,805,805,805,805,805,805,805,805,805,805,805,805,805,805,805,805,805,805,805,805,805,807,808,809,811,813,813,811,784,747,703,659,617,615,615,615,612,601,571,547,531,530,530,530,530,530,528,524],"ymouse":[586,586,586,586,586,586,586,586,586,586,586,586,586,586,586,586,586,586,586,586,586,586,586,586,586,585,585,581,576,571,547,472,358,186,13,0,0,0,0,0,0,0,0,0,0,0,0,0,0,2,10],"timestamp_mouse":[16,37,56,76,97,116,136,156,176,196,216,236,256,277,296,317,336,356,376,396,417,436,456,476,496,516,536,557,577,596,616,636,656,676,697,716,736,756,776,796,817,836,856,876,896,917,936,956,977,995,1017],"xSR":741.5,"ySR":573.95,"xT1":424.9,"yT1":0,"xT2":1058.1,"yT2":0,"toosoon":0,"cond_shown":"Incongruent","ratio_trial":300,"L_num":1,"L_den":2,"R_num":3,"R_den":1