[{"start_time":1551901984849,"click_time":1551901986411,"finger_time":1551901985750,"fix_duration":1055.494879594215,"trial":0,"RT":901,"MT":661,"sideResp":1,"stimulus":"img/750/randomdotsizeEA/R/3_Ratio_750_L_15_R_20.png","xmouse":[783,783,783,783,783,783,783,783,783,783,783,783,783,783,783,783,783,783,783,783,783,783,783,783,783,783,783,783,783,783,783,783,783,783,783,783,783,783,783,783,783,783,783,783,783,776,770,763,751,750,750,747,742,722,710,697,687,678,662,652,649,643,636,627,623,615,606,598,582,579,577,571,564,549,543,539,536,531,523],"ymouse":[517,517,517,517,517,517,517,517,517,517,517,517,517,517,517,517,517,517,517,517,517,517,517,517,517,517,517,517,517,517,517,517,517,517,517,517,517,517,517,517,517,517,516,506,491,469,445,420,382,373,363,351,337,293,267,240,220,205,187,184,183,181,178,172,170,166,159,152,135,128,123,116,107,92,87,84,82,79,73],"timestamp_mouse":[8,22,41,61,81,101,121,141,161,181,201,221,243,262,282,301,322,343,362,382,402,422,442,463,483,503,522,542,562,582,602,622,641,661,681,701,721,741,761,781,801,821,841,861,881,901,921,941,962,982,1002,1022,1042,1063,1082,1102,1122,1142,1162,1183,1201,1222,1242,1261,1281,1301,1322,1341,1361,1381,1402,1421,1441,1462,1481,1501,1521,1541,1562],"xSR":741.5,"ySR":469.95,"xT1":424.9,"yT1":0,"xT2":1058.1,"yT2":0,"toosoon":0,"cond_shown":"randomdotsizeEA","ratio_trial":750,"smaller_num":"15","larger_num":"20","correct_side":2,"subjID":"laurarobayo9","gender":"No_gender","age":"No_age","school":"No_school","test":{"fix_dur":[250,1500],"timestim":300,"targets_dim":[100,100],"targets_relative_coord":[0.3,0.7],"size_stim":[880,420],"start_dim":[100,100],"size_start":[300,300],"size_fix":60,"samplingrate":20,"img_types":["equaldotsize","equaldotanddens","randomdotsizeEA"],"ratios":[250,500,750,900],"rep_conds":9,"nTrials":120,"trials_to_rest":500,"Trials_order":[8,74,71,100,49,39,1,72,2,111,30,5,88,77,82,51,106,55,38,84,78,80,36,101,28,114,118,17,83,87,54,14,98,45,105,58,76,53,15,33,69,86,66,102,24,32,97,107,62,73,6,12,90,9,104,81,13,26,91,117,18,64,29,31,41,112,4,10,85,65,92,27,115,21,70,59,19,52,16,63,99,119,48,75,89,44,110,96,11,109,3,46,93,40,79,50,61,67,57,25,22,95,0,56,20,108,113,47,42,34,37,94,43,103,7,116,23,35,68,60],"cond_shown":["randomdotsizeEA","randomdotsizeEA","randomdotsizeEA","equaldotanddens","equaldotanddens","equaldotsize","equaldotanddens","equaldotsize","randomdotsizeEA","equaldotsize","equaldotsize","randomdotsizeEA","equaldotanddens","randomdotsizeEA","equaldotanddens","equaldotsize","equaldotanddens","equaldotanddens","randomdotsizeEA","equaldotsize","equaldotsize","randomdotsizeEA","equaldotsize","randomdotsizeEA","equaldotanddens","equaldotsize","equaldotanddens","randomdotsizeEA","randomdotsizeEA","equaldotsize","equaldotsize","randomdotsizeEA","randomdotsizeEA","equaldotsize","equaldotsize","equaldotanddens","equaldotanddens","randomdotsizeEA","equaldotsize","equaldotsize","equaldotsize","randomdotsizeEA","equaldotsize","equaldotsize","equaldotsize","randomdotsizeEA","equaldotanddens","randomdotsizeEA","randomdotsizeEA","equaldotanddens","equaldotsize","equaldotsize","equaldotsize","equaldotsize","randomdotsizeEA","equaldotsize","equaldotanddens","randomdotsizeEA","equaldotanddens","equaldotsize","equaldotsize","equaldotanddens","randomdotsizeEA","equaldotanddens","randomdotsizeEA","equaldotanddens","equaldotanddens","equaldotanddens","equaldotanddens","randomdotsizeEA","randomdotsizeEA","equaldotsize","equaldotanddens","equaldotsize","equaldotanddens","randomdotsizeEA","equaldotanddens","equaldotanddens","equaldotanddens","equaldotsize","equaldotsize","randomdotsizeEA","equaldotsize","equaldotsize","randomdotsizeEA","randomdotsizeEA","randomdotsizeEA","equaldotsize","randomdotsizeEA","equaldotanddens","equaldotsize","equaldotanddens","equaldotsize","equaldotanddens","equaldotanddens","randomdotsizeEA","equaldotanddens","equaldotanddens","equaldotsize","equaldotanddens","equaldotanddens","randomdotsizeEA","equaldotsize","randomdotsizeEA","randomdotsizeEA","equaldotsize","randomdotsizeEA","randomdotsizeEA","equaldotsize","equaldotanddens","equaldotanddens","equaldotanddens","equaldotanddens","equaldotanddens","equaldotanddens","randomdotsizeEA","randomdotsizeEA","randomdotsizeEA","randomdotsizeEA","equaldotsize"],"ratio_trial":[750,250,900,500,250,500,250,250,250,500,750,500,500,500,900,500,900,750,250,250,750,750,250,500,500,750,900,500,900,500,750,250,250,900,900,900,500,500,500,900,900,250,750,750,250,750,250,900,250,250,750,250,750,900,750,900,250,250,750,900,750,500,500,750,500,500,500,900,250,500,750,500,750,900,900,900,750,500,500,500,500,900,250,500,500,750,250,250,900,250,500,900,900,500,750,250,250,750,900,250,900,900,250,750,750,250,500,900,750,900,250,900,750,750,750,750,900,900,750,250],"smaller_num":["15","2","18","9","3","1","2","6","3","2","6","3","1","3","18","9","9","3","2","4","15","3","2","2","10","15","18","9","9","3","3","2","3","9","18","18","1","1","2","9","18","3","6","3","3","12","6","9","2","1","15","2","3","9","3","9","2","3","6","18","15","2","4","6","4","9","5","18","4","2","15","6","15","18","9","18","12","6","6","2","9","18","2","6","1","6","3","1","18","2","5","18","18","2","6","4","3","15","18","3","9","18","2","15","3","2","3","18","6","18","3","18","18","3","3","6","18","18","18","2"],"larger_num":["20","8","20","18","12","2","8","24","12","4","8","6","2","6","20","18","10","4","8","16","20","4","8","4","20","20","20","18","10","6","4","8","12","10","20","20","2","2","4","10","20","12","8","4","12","16","24","10","8","4","20","8","4","10","4","10","8","12","8","20","20","4","8","8","8","18","10","20","16","4","20","12","20","20","10","20","16","12","12","4","18","20","8","12","2","8","12","4","20","8","10","20","20","4","8","16","12","20","20","12","10","20","8","20","4","8","6","20","8","20","12","20","24","4","4","8","20","20","24","8"],"correct_side":[2,1,2,2,2,2,2,2,1,2,2,2,2,2,1,2,2,2,1,2,2,1,1,1,2,2,1,2,2,2,1,1,2,2,2,2,2,2,1,2,2,2,1,1,2,2,1,2,1,2,2,2,1,2,1,1,2,1,2,1,2,1,1,1,1,1,2,2,1,1,2,1,2,2,2,2,2,1,1,1,2,1,2,1,2,2,2,2,2,1,1,2,2,1,1,1,1,2,1,2,2,1,1,2,1,1,2,2,2,1,2,1,1,1,2,1,2,1,1,1],"img_shown":["img/750/randomdotsizeEA/R/3_Ratio_750_L_15_R_20.png","img/250/randomdotsizeEA/L/3_Ratio_250_L_8_R_2.png","img/900/randomdotsizeEA/R/9_Ratio_900_L_18_R_20.png","img/500/equaldotanddens/R/1_Ratio_500_L_9_R_18.png","img/250/equaldotanddens/R/9_Ratio_250_L_3_R_12.png","img/500/equaldotsize/R/15_Ratio_500_L_1_R_2.png","img/250/equaldotanddens/R/13_Ratio_250_L_2_R_8.png","img/250/equaldotsize/R/6_Ratio_250_L_6_R_24.png","img/250/randomdotsizeEA/L/15_Ratio_250_L_12_R_3.png","img/500/equaldotsize/R/9_Ratio_500_L_2_R_4.png","img/750/equaldotsize/R/2_Ratio_750_L_6_R_8.png","img/500/randomdotsizeEA/R/2_Ratio_500_L_3_R_6.png","img/500/equaldotanddens/R/12_Ratio_500_L_1_R_2.png","img/500/randomdotsizeEA/R/2_Ratio_500_L_3_R_6.png","img/900/equaldotanddens/L/4_Ratio_900_L_20_R_18.png","img/500/equaldotsize/R/6_Ratio_500_L_9_R_18.png","img/900/equaldotanddens/R/7_Ratio_900_L_9_R_10.png","img/750/equaldotanddens/R/12_Ratio_750_L_3_R_4.png","img/250/randomdotsizeEA/L/3_Ratio_250_L_8_R_2.png","img/250/equaldotsize/R/10_Ratio_250_L_4_R_16.png","img/750/equaldotsize/R/4_Ratio_750_L_15_R_20.png","img/750/randomdotsizeEA/L/10_Ratio_750_L_4_R_3.png","img/250/equaldotsize/L/1_Ratio_250_L_8_R_2.png","img/500/randomdotsizeEA/L/5_Ratio_500_L_4_R_2.png","img/500/equaldotanddens/R/3_Ratio_500_L_10_R_20.png","img/750/equaldotsize/R/4_Ratio_750_L_15_R_20.png","img/900/equaldotanddens/L/8_Ratio_900_L_20_R_18.png","img/500/randomdotsizeEA/R/6_Ratio_500_L_9_R_18.png","img/900/randomdotsizeEA/R/6_Ratio_900_L_9_R_10.png","img/500/equaldotsize/R/2_Ratio_500_L_3_R_6.png","img/750/equaldotsize/L/8_Ratio_750_L_4_R_3.png","img/250/randomdotsizeEA/L/1_Ratio_250_L_8_R_2.png","img/250/randomdotsizeEA/R/11_Ratio_250_L_3_R_12.png","img/900/equaldotsize/R/6_Ratio_900_L_9_R_10.png","img/900/equaldotsize/R/12_Ratio_900_L_18_R_20.png","img/900/equaldotanddens/R/11_Ratio_900_L_18_R_20.png","img/500/equaldotanddens/R/12_Ratio_500_L_1_R_2.png","img/500/randomdotsizeEA/R/15_Ratio_500_L_1_R_2.png","img/500/equaldotsize/L/5_Ratio_500_L_4_R_2.png","img/900/equaldotsize/R/5_Ratio_900_L_9_R_10.png","img/900/equaldotsize/R/9_Ratio_900_L_18_R_20.png","img/250/randomdotsizeEA/R/4_Ratio_250_L_3_R_12.png","img/750/equaldotsize/L/13_Ratio_750_L_8_R_6.png","img/750/equaldotsize/L/9_Ratio_750_L_4_R_3.png","img/250/equaldotsize/R/9_Ratio_250_L_3_R_12.png","img/750/randomdotsizeEA/R/11_Ratio_750_L_12_R_16.png","img/250/equaldotanddens/L/5_Ratio_250_L_24_R_6.png","img/900/randomdotsizeEA/R/5_Ratio_900_L_9_R_10.png","img/250/randomdotsizeEA/L/1_Ratio_250_L_8_R_2.png","img/250/equaldotanddens/R/8_Ratio_250_L_1_R_4.png","img/750/equaldotsize/R/5_Ratio_750_L_15_R_20.png","img/250/equaldotsize/R/13_Ratio_250_L_2_R_8.png","img/750/equaldotsize/L/8_Ratio_750_L_4_R_3.png","img/900/equaldotsize/R/7_Ratio_900_L_9_R_10.png","img/750/randomdotsizeEA/L/8_Ratio_750_L_4_R_3.png","img/900/equaldotsize/L/1_Ratio_900_L_10_R_9.png","img/250/equaldotanddens/R/13_Ratio_250_L_2_R_8.png","img/250/randomdotsizeEA/L/14_Ratio_250_L_12_R_3.png","img/750/equaldotanddens/R/2_Ratio_750_L_6_R_8.png","img/900/equaldotsize/L/2_Ratio_900_L_20_R_18.png","img/750/equaldotsize/R/3_Ratio_750_L_15_R_20.png","img/500/equaldotanddens/L/10_Ratio_500_L_4_R_2.png","img/500/randomdotsizeEA/L/8_Ratio_500_L_8_R_4.png","img/750/equaldotanddens/L/14_Ratio_750_L_8_R_6.png","img/500/randomdotsizeEA/L/8_Ratio_500_L_8_R_4.png","img/500/equaldotanddens/L/4_Ratio_500_L_18_R_9.png","img/500/equaldotanddens/R/14_Ratio_500_L_5_R_10.png","img/900/equaldotanddens/R/12_Ratio_900_L_18_R_20.png","img/250/equaldotanddens/L/2_Ratio_250_L_16_R_4.png","img/500/randomdotsizeEA/L/5_Ratio_500_L_4_R_2.png","img/750/randomdotsizeEA/R/3_Ratio_750_L_15_R_20.png","img/500/equaldotsize/L/13_Ratio_500_L_12_R_6.png","img/750/equaldotanddens/R/3_Ratio_750_L_15_R_20.png","img/900/equaldotsize/R/14_Ratio_900_L_18_R_20.png","img/900/equaldotanddens/R/3_Ratio_900_L_9_R_10.png","img/900/randomdotsizeEA/R/11_Ratio_900_L_18_R_20.png","img/750/equaldotanddens/R/11_Ratio_750_L_12_R_16.png","img/500/equaldotanddens/L/13_Ratio_500_L_12_R_6.png","img/500/equaldotanddens/L/13_Ratio_500_L_12_R_6.png","img/500/equaldotsize/L/5_Ratio_500_L_4_R_2.png","img/500/equaldotsize/R/1_Ratio_500_L_9_R_18.png","img/900/randomdotsizeEA/L/8_Ratio_900_L_20_R_18.png","img/250/equaldotsize/R/13_Ratio_250_L_2_R_8.png","img/500/equaldotsize/L/11_Ratio_500_L_12_R_6.png","img/500/randomdotsizeEA/R/12_Ratio_500_L_1_R_2.png","img/750/randomdotsizeEA/R/2_Ratio_750_L_6_R_8.png","img/250/randomdotsizeEA/R/9_Ratio_250_L_3_R_12.png","img/250/equaldotsize/R/8_Ratio_250_L_1_R_4.png","img/900/randomdotsizeEA/R/14_Ratio_900_L_18_R_20.png","img/250/equaldotanddens/L/3_Ratio_250_L_8_R_2.png","img/500/equaldotsize/L/7_Ratio_500_L_10_R_5.png","img/900/equaldotanddens/R/14_Ratio_900_L_18_R_20.png","img/900/equaldotsize/R/9_Ratio_900_L_18_R_20.png","img/500/equaldotanddens/L/10_Ratio_500_L_4_R_2.png","img/750/equaldotanddens/L/13_Ratio_750_L_8_R_6.png","img/250/randomdotsizeEA/L/2_Ratio_250_L_16_R_4.png","img/250/equaldotanddens/L/14_Ratio_250_L_12_R_3.png","img/750/equaldotanddens/R/3_Ratio_750_L_15_R_20.png","img/900/equaldotsize/L/10_Ratio_900_L_20_R_18.png","img/250/equaldotanddens/R/11_Ratio_250_L_3_R_12.png","img/900/equaldotanddens/R/6_Ratio_900_L_9_R_10.png","img/900/randomdotsizeEA/L/10_Ratio_900_L_20_R_18.png","img/250/equaldotsize/L/7_Ratio_250_L_8_R_2.png","img/750/randomdotsizeEA/R/5_Ratio_750_L_15_R_20.png","img/750/randomdotsizeEA/L/8_Ratio_750_L_4_R_3.png","img/250/equaldotsize/L/3_Ratio_250_L_8_R_2.png","img/500/randomdotsizeEA/R/2_Ratio_500_L_3_R_6.png","img/900/randomdotsizeEA/R/12_Ratio_900_L_18_R_20.png","img/750/equaldotsize/R/2_Ratio_750_L_6_R_8.png","img/900/equaldotanddens/L/2_Ratio_900_L_20_R_18.png","img/250/equaldotanddens/R/9_Ratio_250_L_3_R_12.png","img/900/equaldotanddens/L/4_Ratio_900_L_20_R_18.png","img/750/equaldotanddens/L/6_Ratio_750_L_24_R_18.png","img/750/equaldotanddens/L/9_Ratio_750_L_4_R_3.png","img/750/equaldotanddens/R/7_Ratio_750_L_3_R_4.png","img/750/randomdotsizeEA/L/14_Ratio_750_L_8_R_6.png","img/900/randomdotsizeEA/R/9_Ratio_900_L_18_R_20.png","img/900/randomdotsizeEA/L/8_Ratio_900_L_20_R_18.png","img/750/randomdotsizeEA/L/6_Ratio_750_L_24_R_18.png","img/250/equaldotsize/L/3_Ratio_250_L_8_R_2.png"],"Rat0":[["12_Ratio_0_L_9_R_0.png","13_Ratio_0_L_6_R_0.png","5_Ratio_0_L_2_R_0.png","6_Ratio_0_L_4_R_0.png","8_Ratio_0_L_6_R_0.png"],["1_Ratio_0_L_0_R_17.png","10_Ratio_0_L_0_R_22.png","11_Ratio_0_L_0_R_1.png","14_Ratio_0_L_0_R_24.png","15_Ratio_0_L_0_R_4.png","2_Ratio_0_L_0_R_5.png","3_Ratio_0_L_0_R_17.png","4_Ratio_0_L_0_R_7.png","7_Ratio_0_L_0_R_19.png","9_Ratio_0_L_0_R_15.png"]],"Rat250":[["1_Ratio_250_L_8_R_2.png","14_Ratio_250_L_12_R_3.png","15_Ratio_250_L_12_R_3.png","2_Ratio_250_L_16_R_4.png","3_Ratio_250_L_8_R_2.png","5_Ratio_250_L_24_R_6.png","7_Ratio_250_L_8_R_2.png"],["10_Ratio_250_L_4_R_16.png","11_Ratio_250_L_3_R_12.png","12_Ratio_250_L_5_R_20.png","13_Ratio_250_L_2_R_8.png","4_Ratio_250_L_3_R_12.png","6_Ratio_250_L_6_R_24.png","8_Ratio_250_L_1_R_4.png","9_Ratio_250_L_3_R_12.png"]],"Rat500":[["10_Ratio_500_L_4_R_2.png","11_Ratio_500_L_12_R_6.png","13_Ratio_500_L_12_R_6.png","4_Ratio_500_L_18_R_9.png","5_Ratio_500_L_4_R_2.png","7_Ratio_500_L_10_R_5.png","8_Ratio_500_L_8_R_4.png"],["1_Ratio_500_L_9_R_18.png","12_Ratio_500_L_1_R_2.png","14_Ratio_500_L_5_R_10.png","15_Ratio_500_L_1_R_2.png","2_Ratio_500_L_3_R_6.png","3_Ratio_500_L_10_R_20.png","6_Ratio_500_L_9_R_18.png","9_Ratio_500_L_2_R_4.png"]],"Rat750":[["1_Ratio_750_L_20_R_15.png","10_Ratio_750_L_4_R_3.png","13_Ratio_750_L_8_R_6.png","14_Ratio_750_L_8_R_6.png","6_Ratio_750_L_24_R_18.png","8_Ratio_750_L_4_R_3.png","9_Ratio_750_L_4_R_3.png"],["11_Ratio_750_L_12_R_16.png","12_Ratio_750_L_3_R_4.png","15_Ratio_750_L_9_R_12.png","2_Ratio_750_L_6_R_8.png","3_Ratio_750_L_15_R_20.png","4_Ratio_750_L_15_R_20.png","5_Ratio_750_L_15_R_20.png","7_Ratio_750_L_3_R_4.png"]],"Rat900":[["1_Ratio_900_L_10_R_9.png","10_Ratio_900_L_20_R_18.png","2_Ratio_900_L_20_R_18.png","4_Ratio_900_L_20_R_18.png","8_Ratio_900_L_20_R_18.png"],["11_Ratio_900_L_18_R_20.png","12_Ratio_900_L_18_R_20.png","13_Ratio_900_L_18_R_20.png","14_Ratio_900_L_18_R_20.png","15_Ratio_900_L_9_R_10.png","3_Ratio_900_L_9_R_10.png","5_Ratio_900_L_9_R_10.png","6_Ratio_900_L_9_R_10.png","7_Ratio_900_L_9_R_10.png","9_Ratio_900_L_18_R_20.png"]],"Rat1000":[["10_Ratio_1000_L_16_R_16.png","11_Ratio_1000_L_6_R_6.png","12_Ratio_1000_L_14_R_14.png","13_Ratio_1000_L_20_R_20.png","15_Ratio_1000_L_15_R_15.png","2_Ratio_1000_L_17_R_17.png","4_Ratio_1000_L_9_R_9.png","5_Ratio_1000_L_6_R_6.png","6_Ratio_1000_L_19_R_19.png","8_Ratio_1000_L_14_R_14.png","9_Ratio_1000_L_25_R_25.png"],["1_Ratio_1000_L_1_R_1.png","14_Ratio_1000_L_17_R_17.png","3_Ratio_1000_L_17_R_17.png","7_Ratio_1000_L_6_R_6.png"]]}},{"start_time":1551901997043,"click_time":1551901998890,"finger_time":1551901997830,"fix_duration":250,"trial":1,"RT":787,"MT":1060,"sideResp":1,"stimulus":"img/250/randomdotsizeEA/L/3_Ratio_250_L_8_R_2.png","xmouse":[810,810,810,810,810,810,810,810,810,810,810,810,810,810,810,810,810,810,810,810,810,810,810,810,810,810,810,810,810,810,810,810,810,810,810,810,810,795,780,712,702,700,700,700,700,705,710,713,714,715,717,717,715,709,709,709,709,709,709,709,710,710,709,703,695,657,641,627,620,618,618,618,618,618,615,591,590,590,590,590,590,588,586,584,565,550,537,529,526,526,526,525,523],"ymouse":[502,502,502,502,502,502,502,502,502,502,502,502,502,502,502,502,502,502,502,502,502,502,502,502,502,502,502,502,502,502,502,502,502,502,502,502,502,496,486,452,452,452,452,452,452,453,455,456,456,456,453,427,406,397,395,392,388,386,380,373,357,350,341,327,302,198,162,136,124,120,120,120,120,120,115,87,87,87,87,86,86,85,85,85,83,78,73,71,70,69,69,69,68],"timestamp_mouse":[11,40,48,68,88,109,129,147,167,187,208,228,247,268,287,308,328,347,367,387,407,428,447,467,487,507,527,548,568,588,607,627,647,667,687,707,728,747,768,787,807,828,847,868,887,907,927,948,967,988,1007,1028,1048,1068,1088,1109,1127,1148,1168,1187,1207,1228,1247,1267,1288,1307,1327,1347,1367,1387,1407,1428,1447,1467,1487,1507,1528,1548,1567,1588,1609,1628,1648,1668,1689,1707,1727,1747,1767,1788,1807,1827,1847],"xSR":741.5,"ySR":469.95,"xT1":424.9,"yT1":0,"xT2":1058.1,"yT2":0,"toosoon":0,"cond_shown":"randomdotsizeEA","ratio_trial":250,"smaller_num":"2","larger_num":"8","correct_side":1,"subjID":"laurarobayo9","gender":"No_gender","age":"No_age","school":"No_school"},{"start_time":1551902001663,"click_time":1551902003090,"finger_time":1551902002411,"fix_duration":711.5273870727742,"trial":2,"RT":748,"MT":679,"sideResp":1,"stimulus":"img/900/randomdotsizeEA/R/9_Ratio_900_L_18_R_20.png","xmouse":[835,835,835,835,835,835,835,835,835,835,835,835,835,835,835,835,835,835,835,835,835,835,835,835,835,835,835,835,835,835,835,835,835,835,835,835,841,847,881,996,1046,1085,1110,1133,1153,1161,1173,1183,1193,1216,1226,1229,1229,1229,1201,1139,1064,998,961,940,929,883,823,759,663,637,623,610,596,545,505,473],"ymouse":[552,552,552,552,552,552,552,552,552,552,552,552,552,552,552,552,552,552,552,552,552,552,552,552,552,552,552,552,552,552,552,552,552,552,552,552,549,547,532,485,460,441,427,413,398,388,377,366,354,330,321,318,318,318,317,311,302,294,287,284,283,276,260,236,191,176,168,161,156,129,106,80],"timestamp_mouse":[11,30,47,67,87,107,127,148,168,187,208,227,247,267,287,307,329,349,369,388,408,429,449,468,488,509,528,548,568,588,609,628,647,667,688,707,727,748,767,787,807,827,847,867,888,907,928,947,967,987,1008,1027,1047,1068,1088,1107,1128,1147,1167,1187,1209,1227,1248,1268,1288,1307,1328,1348,1368,1388,1407,1427],"xSR":741.5,"ySR":469.95,"xT1":424.9,"yT1":0,"xT2":1058.1,"yT2":0,"toosoon":0,"cond_shown":"randomdotsizeEA","ratio_trial":900,"smaller_num":"18","larger_num":"20","correct_side":2,"subjID":"laurarobayo9","gender":"No_gender","age":"No_age","school":"No_school"},{"start_time":1551902005303,"click_time":1551902006970,"finger_time":1551902006111,"fix_duration":1190.6205292193447,"trial":3,"RT":808,"MT":859,"sideResp":2,"stimulus":"img/500/equaldotanddens/R/1_Ratio_500_L_9_R_18.png","xmouse":[798,798,798,798,798,798,798,798,798,798,798,798,798,798,798,798,798,798,798,798,798,798,798,798,798,798,798,798,798,798,798,798,798,798,798,798,800,801,809,826,845,873,908,999,1029,1050,1065,1080,1094,1105,1116,1131,1142,1161,1167,1170,1173,1169,1164,1164,1164,1164,1164,1164,1164,1164,1164,1164,1164,1164,1164,1164,1164,1164,1164,1164,1164,1164,1164,1164,1164,1164,1164,1078],"ymouse":[550,550,550,550,550,550,550,550,550,550,550,550,550,550,550,550,550,550,550,550,550,550,550,550,550,550,550,550,550,550,550,550,550,550,550,550,549,548,544,533,520,499,470,389,364,345,330,317,304,294,281,264,247,210,190,168,144,45,16,16,16,16,16,16,16,16,16,16,16,16,16,16,16,16,16,16,16,16,16,16,16,16,16,7],"timestamp_mouse":[14,28,47,67,87,108,127,147,167,187,207,228,248,267,287,308,327,347,369,387,407,427,448,468,487,507,527,548,567,587,607,627,648,667,687,707,727,748,767,787,808,828,848,867,888,908,928,948,968,987,1007,1028,1048,1067,1088,1108,1128,1147,1167,1187,1208,1227,1248,1268,1288,1307,1327,1348,1368,1387,1407,1427,1447,1467,1488,1508,1527,1547,1569,1587,1607,1627,1648,1667],"xSR":741.5,"ySR":469.95,"xT1":424.9,"yT1":0,"xT2":1058.1,"yT2":0,"toosoon":0,"cond_shown":"equaldotanddens","ratio_trial":500,"smaller_num":"9","larger_num":"18","correct_side":2,"subjID":"laurarobayo9","gender":"No_gender","age":"No_age","school":"No_school"},{"start_time":1551902008661,"click_time":1551902009832,"finger_time":1551902009272,"fix_duration":589.1180346990402,"trial":4,"RT":611,"MT":560,"sideResp":2,"stimulus":"img/250/equaldotanddens/R/9_Ratio_250_L_3_R_12.png","xmouse":[835,835,835,835,835,835,835,835,835,835,835,835,835,835,835,835,835,835,835,835,835,835,835,835,835,835,835,835,835,835,843,861,889,918,976,993,1005,1013,1016,1016,1018,1023,1028,1037,1055,1081,1087,1092,1102,1108,1119,1120,1120,1120,1120,1120,1123,1124,1126],"ymouse":[539,539,539,539,539,539,539,539,539,539,539,539,539,539,539,539,539,539,539,539,539,539,539,539,539,539,539,539,539,539,530,504,451,394,271,235,216,206,203,203,202,199,195,188,175,157,152,148,139,130,119,117,116,116,116,116,109,104,98],"timestamp_mouse":[9,30,50,70,90,111,130,149,170,191,210,229,250,269,289,309,329,349,369,389,409,429,450,469,489,510,529,549,569,589,611,629,649,669,691,709,729,750,769,790,809,830,851,870,889,909,930,950,970,990,1010,1030,1051,1070,1089,1109,1129,1149,1170],"xSR":741.5,"ySR":469.95,"xT1":424.9,"yT1":0,"xT2":1058.1,"yT2":0,"toosoon":0,"cond_shown":"equaldotanddens","ratio_trial":250,"smaller_num":"3","larger_num":"12","correct_side":2,"subjID":"laurarobayo9","gender":"No_gender","age":"No_age","school":"No_school"},{"start_time":1551902012218,"click_time":1551902013371,"finger_time":1551902012911,"fix_duration":806.3153294947554,"trial":5,"RT":693,"MT":460,"sideResp":2,"stimulus":"img/500/equaldotsize/R/15_Ratio_500_L_1_R_2.png","xmouse":[808,808,808,808,808,808,808,808,808,808,808,808,808,808,808,808,808,808,808,808,808,808,808,808,808,808,808,808,808,808,808,808,812,823,847,890,927,992,1012,1027,1032,1032,1033,1034,1034,1034,1034,1034,1040,1044,1051,1057,1076,1092,1103,1110,1114,1115],"ymouse":[546,546,546,546,546,546,546,546,546,546,546,546,546,546,546,546,546,546,546,546,546,546,546,546,546,546,546,546,546,546,546,546,540,527,499,453,414,349,323,298,289,284,282,281,281,281,281,278,265,255,239,223,181,152,126,110,101,99],"timestamp_mouse":[12,32,53,72,92,113,132,152,172,192,213,233,253,273,293,313,334,352,372,392,412,432,452,473,494,513,533,553,573,593,614,633,653,672,693,713,732,752,773,792,812,833,852,872,892,913,933,952,973,992,1012,1033,1052,1072,1092,1112,1132,1152],"xSR":741.5,"ySR":469.95,"xT1":424.9,"yT1":0,"xT2":1058.1,"yT2":0,"toosoon":0,"cond_shown":"equaldotsize","ratio_trial":500,"smaller_num":"1","larger_num":"2","correct_side":2,"subjID":"laurarobayo9","gender":"No_gender","age":"No_age","school":"No_school"},{"start_time":1551902017289,"click_time":1551902018531,"finger_time":1551902018110,"fix_duration":1257.4202194794175,"trial":6,"RT":821,"MT":421,"sideResp":2,"stimulus":"img/250/equaldotanddens/R/13_Ratio_250_L_2_R_8.png","xmouse":[818,818,818,817,817,817,817,817,817,817,817,817,817,817,817,817,817,817,817,817,817,817,817,817,817,817,817,817,817,817,817,817,817,817,817,817,817,817,817,821,840,853,881,944,974,1010,1018,1022,1025,1028,1036,1040,1046,1047,1055,1069,1078,1087,1095,1100,1100,1100,1100],"ymouse":[532,532,532,531,531,531,531,531,531,531,531,531,531,531,531,531,531,531,531,531,531,531,531,531,531,531,531,531,531,531,531,531,531,531,531,531,531,531,531,528,514,504,484,441,420,395,390,388,385,384,378,374,370,368,363,354,348,343,328,252,189,124,67],"timestamp_mouse":[9,31,42,61,81,102,121,141,162,181,201,221,241,262,281,301,321,341,362,382,401,421,441,461,481,501,521,541,561,581,601,621,641,661,682,702,722,742,761,781,801,821,841,862,881,901,922,941,962,983,1001,1021,1041,1063,1082,1101,1122,1141,1161,1182,1202,1221,1241],"xSR":741.5,"ySR":469.95,"xT1":424.9,"yT1":0,"xT2":1058.1,"yT2":0,"toosoon":0,"cond_shown":"equaldotanddens","ratio_trial":250,"smaller_num":"2","larger_num":"8","correct_side":2,"subjID":"laurarobayo9","gender":"No_gender","age":"No_age","school":"No_school"},{"start_time":1551902020438,"click_time":1551902021811,"finger_time":1551902021030,"fix_duration":546.962207952878,"trial":7,"RT":592,"MT":781,"sideResp":2,"stimulus":"img/250/equaldotsize/R/6_Ratio_250_L_6_R_24.png","xmouse":[808,808,808,808,808,808,808,808,808,808,808,808,808,808,808,808,808,808,808,808,808,808,808,808,811,815,819,833,840,849,862,876,910,922,931,951,962,978,983,987,989,989,989,990,996,1001,1007,1017,1025,1028,1031,1032,1034,1034,1034,1034,1034,1034,1034,1034,1034,1034,1034,1034,1038,1047,1054,1058,1059],"ymouse":[537,537,537,537,537,537,537,537,537,537,537,537,537,537,537,537,537,537,537,537,537,537,537,537,533,527,522,507,497,486,473,460,432,421,405,379,363,333,321,306,292,277,248,229,186,151,113,69,54,49,45,44,43,43,43,43,43,43,43,43,43,43,43,43,41,40,39,37,37],"timestamp_mouse":[12,34,52,72,92,112,133,153,173,193,212,232,252,272,292,312,334,352,372,392,413,432,453,473,492,512,533,552,572,592,612,632,653,672,692,712,733,753,773,793,813,833,853,873,892,913,932,952,972,992,1012,1033,1052,1072,1093,1113,1133,1154,1173,1194,1212,1232,1252,1272,1292,1312,1332,1353,1373],"xSR":741.5,"ySR":469.95,"xT1":424.9,"yT1":0,"xT2":1058.1,"yT2":0,"toosoon":0,"cond_shown":"equaldotsize","ratio_trial":250,"smaller_num":"6","larger_num":"24","correct_side":2,"subjID":"laurarobayo9","gender":"No_gender","age":"No_age","school":"No_school"},{"start_time":1551902023648,"click_time":1551902025113,"finger_time":1551902024332,"fix_duration":773.1322703392779,"trial":8,"RT":684,"MT":781,"sideResp":1,"stimulus":"img/250/randomdotsizeEA/L/15_Ratio_250_L_12_R_3.png","xmouse":[805,805,805,805,805,805,805,805,805,805,805,805,805,805,805,805,805,805,805,805,805,805,805,805,805,805,805,805,805,805,805,803,792,746,698,665,648,643,641,641,641,638,632,627,626,626,626,624,625,627,632,637,640,640,640,640,640,640,640,639,629,618,612,607,606,601,594,572,561,554,547,539,531,514],"ymouse":[549,549,549,549,549,549,549,549,549,549,549,549,549,549,549,549,549,549,549,549,549,549,549,549,549,549,549,549,549,549,549,545,526,480,444,421,408,404,404,403,403,398,389,383,382,381,380,374,364,349,319,285,238,232,232,232,232,232,232,229,225,221,219,217,217,214,208,189,175,163,148,131,116,96],"timestamp_mouse":[11,25,46,64,84,105,125,144,164,184,204,224,245,265,285,305,326,345,366,385,405,424,445,465,485,504,524,544,564,585,604,624,645,665,684,705,725,745,764,786,805,824,845,864,885,905,925,946,964,984,1004,1025,1044,1064,1085,1105,1125,1145,1165,1185,1205,1225,1245,1264,1284,1304,1324,1344,1364,1385,1405,1425,1445,1465],"xSR":741.5,"ySR":469.95,"xT1":424.9,"yT1":0,"xT2":1058.1,"yT2":0,"toosoon":0,"cond_shown":"randomdotsizeEA","ratio_trial":250,"smaller_num":"3","larger_num":"12","correct_side":1,"subjID":"laurarobayo9","gender":"No_gender","age":"No_age","school":"No_school"},{"start_time":1551902027802,"click_time":1551902028913,"finger_time":1551902028513,"fix_duration":1089.4466763855532,"trial":9,"RT":711,"MT":400,"sideResp":2,"stimulus":"img/500/equaldotsize/R/9_Ratio_500_L_2_R_4.png","xmouse":[795,799,800,800,800,801,801,801,801,801,801,801,801,801,801,801,801,801,801,801,801,801,801,801,801,801,801,801,801,801,801,806,821,825,838,867,880,895,912,922,963,995,1022,1028,1035,1036,1037,1039,1041,1045,1061,1073,1081,1088,1096,1103],"ymouse":[517,527,531,531,531,531,531,531,531,531,531,531,531,531,531,531,531,531,531,531,531,531,531,531,531,531,531,531,531,531,531,531,526,524,515,498,487,473,458,442,385,338,280,261,241,236,232,229,224,214,181,162,143,125,106,94],"timestamp_mouse":[11,31,51,70,91,111,131,150,170,190,210,230,250,270,290,310,331,351,371,392,411,431,450,471,490,510,530,550,570,590,610,630,650,671,691,711,730,751,771,792,811,832,851,871,892,910,931,950,970,991,1011,1031,1051,1071,1091,1111],"xSR":741.5,"ySR":469.95,"xT1":424.9,"yT1":0,"xT2":1058.1,"yT2":0,"toosoon":0,"cond_shown":"equaldotsize","ratio_trial":500,"smaller_num":"2","larger_num":"4","correct_side":2,"subjID":"laurarobayo9","gender":"No_gender","age":"No_age","school":"No_school"},{"start_time":1551902031254,"click_time":1551902032673,"finger_time":1551902032093,"fix_duration":1259.260819964426,"trial":10,"RT":839,"MT":580,"sideResp":1,"stimulus":"img/750/equaldotsize/R/2_Ratio_750_L_6_R_8.png","xmouse":[805,805,805,805,805,805,805,805,805,805,805,805,805,805,805,805,805,805,805,805,805,805,805,805,805,805,805,805,805,805,805,805,805,805,805,805,805,805,805,805,805,789,754,648,600,575,567,564,561,545,532,521,519,518,518,518,521,523,525,527,528,528,528,528,527,526,526,526,526,526,525,524],"ymouse":[514,514,514,514,514,514,514,514,514,514,514,514,514,514,514,514,514,514,514,514,514,514,514,514,514,514,514,514,514,514,514,514,514,514,514,514,514,514,514,514,514,496,451,334,282,258,250,248,248,242,236,229,226,226,226,222,209,193,142,111,92,75,58,44,36,33,33,33,33,33,33,33],"timestamp_mouse":[6,18,40,58,78,100,119,139,159,179,199,219,239,259,279,298,318,338,358,378,398,418,438,459,479,500,519,539,560,579,600,619,639,659,679,698,719,738,758,778,798,818,839,859,878,898,918,938,959,979,998,1019,1039,1059,1078,1099,1119,1139,1158,1179,1199,1219,1239,1258,1278,1299,1318,1339,1359,1379,1399,1419],"xSR":741.5,"ySR":469.95,"xT1":424.9,"yT1":0,"xT2":1058.1,"yT2":0,"toosoon":0,"cond_shown":"equaldotsize","ratio_trial":750,"smaller_num":"6","larger_num":"8","correct_side":2,"subjID":"laurarobayo9","gender":"No_gender","age":"No_age","school":"No_school"},{"start_time":1551902034280,"click_time":1551902035832,"finger_time":1551902035092,"fix_duration":887.0789355490414,"trial":11,"RT":812,"MT":740,"sideResp":2,"stimulus":"img/500/randomdotsizeEA/R/2_Ratio_500_L_3_R_6.png","xmouse":[820,820,820,820,820,820,820,820,820,820,820,820,820,820,820,820,820,820,820,820,820,820,820,820,820,820,820,820,820,820,820,820,820,820,820,820,820,820,821,831,846,861,903,928,950,981,1006,1015,1020,1022,1026,1027,1031,1033,1034,1037,1038,1043,1046,1050,1051,1054,1056,1056,1057,1059,1062,1065,1066,1068,1069,1070,1075,1079,1083,1090,1093,1101],"ymouse":[535,535,535,535,535,535,535,535,535,535,535,535,535,535,535,535,535,535,535,535,535,535,535,535,535,535,535,535,535,535,535,535,535,535,535,535,535,535,535,529,519,507,454,416,383,335,299,287,279,275,269,265,252,245,240,234,231,214,206,190,172,157,139,136,134,132,128,125,123,121,120,117,112,109,107,103,100,93],"timestamp_mouse":[12,34,52,72,93,112,133,153,173,194,213,233,254,274,293,313,333,352,372,392,413,433,453,473,493,514,532,553,573,592,613,632,653,673,693,713,733,752,772,792,812,834,852,873,892,912,934,952,972,993,1013,1034,1052,1072,1092,1112,1132,1153,1173,1194,1213,1233,1252,1274,1293,1313,1333,1353,1372,1392,1413,1432,1452,1472,1492,1512,1532,1552],"xSR":741.5,"ySR":469.95,"xT1":424.9,"yT1":0,"xT2":1058.1,"yT2":0,"toosoon":0,"cond_shown":"randomdotsizeEA","ratio_trial":500,"smaller_num":"3","larger_num":"6","correct_side":2,"subjID":"laurarobayo9","gender":"No_gender","age":"No_age","school":"No_school"},{"start_time":1551902038387,"click_time":1551902039553,"finger_time":1551902039033,"fix_duration":1232.8320582769468,"trial":12,"RT":646,"MT":520,"sideResp":2,"stimulus":"img/500/equaldotanddens/R/12_Ratio_500_L_1_R_2.png","xmouse":[813,813,813,813,813,813,813,813,813,813,813,813,813,813,813,813,813,813,813,813,813,813,813,813,813,813,813,813,813,813,814,823,851,865,881,895,910,937,950,966,976,985,1002,1009,1016,1021,1024,1028,1030,1038,1042,1047,1060,1066,1070,1071,1073,1085,1094],"ymouse":[540,540,540,540,540,540,540,540,540,540,540,540,540,540,540,540,540,540,540,540,540,540,540,540,540,540,540,540,540,540,537,531,510,498,482,469,450,410,389,362,344,324,281,254,230,210,196,178,172,161,155,145,128,122,120,119,118,105,93],"timestamp_mouse":[9,25,45,67,87,106,126,146,167,186,206,226,246,266,287,306,327,346,365,386,405,425,445,465,486,507,526,546,566,586,605,626,646,665,686,706,725,745,766,786,806,826,845,865,887,906,926,945,966,985,1010,1025,1045,1066,1086,1106,1126,1146,1165],"xSR":741.5,"ySR":469.95,"xT1":424.9,"yT1":0,"xT2":1058.1,"yT2":0,"toosoon":0,"cond_shown":"equaldotanddens","ratio_trial":500,"smaller_num":"1","larger_num":"2","correct_side":2,"subjID":"laurarobayo9","gender":"No_gender","age":"No_age","school":"No_school"},{"start_time":1551902041479,"click_time":1551902042834,"finger_time":1551902042232,"fix_duration":645.6744376578192,"trial":13,"RT":753,"MT":602,"sideResp":2,"stimulus":"img/500/randomdotsizeEA/R/2_Ratio_500_L_3_R_6.png","xmouse":[774,774,774,774,774,774,774,774,774,774,774,774,774,774,774,774,774,774,774,774,774,774,774,774,774,774,774,774,774,774,774,774,776,782,789,799,811,843,870,904,936,964,1001,1017,1024,1031,1042,1059,1067,1075,1081,1082,1082,1082,1082,1082,1082,1082,1082,1083,1085,1087,1093,1094,1095,1095,1096,1099],"ymouse":[544,544,544,544,544,544,544,544,544,544,544,544,544,544,544,544,544,544,544,544,544,544,544,544,544,544,544,544,544,544,544,544,543,538,533,524,513,482,450,408,370,334,287,262,250,237,221,187,170,152,136,129,129,129,129,129,129,129,129,127,119,113,105,104,103,103,102,97],"timestamp_mouse":[13,34,54,74,94,113,133,153,174,193,213,234,253,273,294,314,334,354,375,394,413,433,453,473,493,513,533,554,574,593,614,634,654,674,693,713,733,753,773,793,813,833,854,874,894,914,934,954,973,994,1014,1033,1054,1073,1093,1114,1133,1154,1173,1194,1213,1233,1255,1274,1294,1315,1334,1354],"xSR":741.5,"ySR":469.95,"xT1":424.9,"yT1":0,"xT2":1058.1,"yT2":0,"toosoon":0,"cond_shown":"randomdotsizeEA","ratio_trial":500,"smaller_num":"3","larger_num":"6","correct_side":2,"subjID":"laurarobayo9","gender":"No_gender","age":"No_age","school":"No_school"},{"start_time":1551902046190,"click_time":1551902047313,"finger_time":1551902046953,"fix_duration":1476.6657205685165,"trial":14,"RT":763,"MT":360,"sideResp":2,"stimulus":"img/900/equaldotanddens/L/4_Ratio_900_L_20_R_18.png","xmouse":[786,786,786,786,787,788,789,789,789,789,789,789,789,789,789,789,789,789,789,789,789,789,789,789,789,789,789,789,789,789,789,789,789,789,792,800,812,828,861,883,903,926,948,980,992,1007,1014,1020,1036,1043,1048,1055,1058,1062,1063,1063,1063],"ymouse":[525,525,525,525,524,523,523,522,522,522,522,522,522,522,522,522,522,522,522,522,522,522,522,522,522,522,522,522,522,522,522,522,522,522,520,515,507,490,454,430,408,383,356,313,297,271,255,241,211,193,176,161,147,123,113,101,96],"timestamp_mouse":[9,23,43,62,83,102,122,142,163,182,202,222,243,263,283,302,323,344,363,382,402,422,442,462,482,503,522,542,562,583,604,623,643,662,683,702,723,743,763,783,803,823,843,863,883,902,922,942,963,982,1003,1023,1043,1063,1083,1102,1123],"xSR":741.5,"ySR":469.95,"xT1":424.9,"yT1":0,"xT2":1058.1,"yT2":0,"toosoon":0,"cond_shown":"equaldotanddens","ratio_trial":900,"smaller_num":"18","larger_num":"20","correct_side":1,"subjID":"laurarobayo9","gender":"No_gender","age":"No_age","school":"No_school"},{"start_time":1551902049309,"click_time":1551902050813,"finger_time":1551902050413,"fix_duration":1235.1775027141596,"trial":15,"RT":1104,"MT":400,"sideResp":2,"stimulus":"img/500/equaldotsize/R/6_Ratio_500_L_9_R_18.png","xmouse":[803,803,803,803,803,803,803,803,803,803,803,803,803,803,803,803,803,803,803,803,803,803,803,803,803,803,803,803,803,803,803,803,803,803,803,803,803,803,803,803,803,803,803,803,803,803,803,803,803,803,803,803,805,816,832,854,886,1007,1049,1076,1093,1106,1121,1124,1125,1127,1129,1130,1130,1130,1130,1129,1125,1111,1104,1101],"ymouse":[515,515,515,515,515,515,515,515,515,515,515,515,515,515,515,515,515,515,515,515,515,515,515,515,515,515,515,515,515,515,515,515,515,515,515,515,515,515,515,515,515,515,515,515,515,515,515,515,515,515,515,515,513,507,498,481,453,322,280,252,235,222,205,202,199,192,187,180,179,179,178,170,158,125,111,98],"timestamp_mouse":[4,23,43,64,84,104,124,144,165,183,204,223,243,263,283,303,324,344,364,384,403,424,443,463,483,503,523,543,563,583,604,625,644,665,683,703,724,743,764,784,804,824,844,865,884,904,924,944,964,984,1004,1024,1045,1064,1084,1104,1124,1144,1165,1184,1204,1224,1244,1263,1284,1304,1324,1344,1364,1384,1404,1423,1444,1464,1483,1503],"xSR":741.5,"ySR":469.95,"xT1":424.9,"yT1":0,"xT2":1058.1,"yT2":0,"toosoon":0,"cond_shown":"equaldotsize","ratio_trial":500,"smaller_num":"9","larger_num":"18","correct_side":2,"subjID":"laurarobayo9","gender":"No_gender","age":"No_age","school":"No_school"},{"start_time":1551902052380,"click_time":1551902053454,"finger_time":1551902053152,"fix_duration":526.9289848933424,"trial":16,"RT":772,"MT":302,"sideResp":1,"stimulus":"img/900/equaldotanddens/R/7_Ratio_900_L_9_R_10.png","xmouse":[813,813,813,813,813,813,813,813,813,813,813,813,813,813,813,813,813,813,813,813,813,813,813,813,813,813,813,813,813,813,813,813,813,813,813,810,804,795,774,692,660,638,614,606,602,602,602,600,590,565,554,541,533,505],"ymouse":[543,543,543,543,543,543,543,543,543,543,543,543,543,543,543,543,543,543,543,543,543,543,543,543,543,543,543,543,543,543,543,543,543,543,543,528,506,481,450,396,383,373,365,363,362,361,361,359,348,311,284,240,185,62],"timestamp_mouse":[12,40,53,73,92,112,133,153,173,194,213,233,253,273,293,313,332,352,373,393,412,433,453,473,493,514,533,553,574,594,614,633,653,672,693,712,732,753,772,792,812,832,852,872,892,913,932,952,973,992,1013,1033,1054,1074],"xSR":741.5,"ySR":469.95,"xT1":424.9,"yT1":0,"xT2":1058.1,"yT2":0,"toosoon":0,"cond_shown":"equaldotanddens","ratio_trial":900,"smaller_num":"9","larger_num":"10","correct_side":2,"subjID":"laurarobayo9","gender":"No_gender","age":"No_age","school":"No_school"},{"start_time":1551902056724,"click_time":1551902058333,"finger_time":1551902057314,"fix_duration":250,"trial":17,"RT":590,"MT":1019,"sideResp":2,"stimulus":"img/750/equaldotanddens/R/12_Ratio_750_L_3_R_4.png","xmouse":[773,773,773,773,773,773,773,776,777,777,777,777,777,777,777,777,777,777,777,777,778,779,779,779,779,779,781,796,820,845,876,908,962,972,979,982,984,987,997,1005,1013,1018,1021,1022,1022,1022,1022,1022,1022,1022,1022,1025,1087,1161,1190,1190,1190,1190,1190,1190,1190,1190,1190,1190,1190,1190,1190,1190,1190,1190,1190,1190,1190,1190,1190,1190,1190,1190,1190,1190,1137],"ymouse":[540,540,540,540,540,540,540,538,537,537,537,537,537,537,537,537,537,537,537,537,536,536,534,534,534,534,533,523,501,473,442,403,317,297,288,282,275,268,261,254,249,245,240,238,238,238,238,238,238,238,238,235,175,83,20,20,20,20,20,20,20,20,20,20,20,20,20,20,20,20,20,20,20,20,20,20,20,20,20,20,1],"timestamp_mouse":[18,35,49,68,88,110,128,149,169,190,209,229,249,270,289,309,328,348,368,388,408,429,449,469,489,510,528,548,568,590,609,629,649,669,688,708,729,748,768,788,809,828,848,868,888,908,928,949,968,989,1008,1028,1049,1068,1088,1108,1129,1149,1169,1189,1209,1229,1249,1269,1289,1309,1329,1349,1369,1388,1408,1428,1448,1469,1489,1509,1528,1550,1568,1589,1609],"xSR":741.5,"ySR":469.95,"xT1":424.9,"yT1":0,"xT2":1058.1,"yT2":0,"toosoon":0,"cond_shown":"equaldotanddens","ratio_trial":750,"smaller_num":"3","larger_num":"4","correct_side":2,"subjID":"laurarobayo9","gender":"No_gender","age":"No_age","school":"No_school"},{"start_time":1551902059930,"click_time":1551902060993,"finger_time":1551902060673,"fix_duration":355.8037888124559,"trial":18,"RT":743,"MT":320,"sideResp":1,"stimulus":"img/250/randomdotsizeEA/L/3_Ratio_250_L_8_R_2.png","xmouse":[809,809,809,809,809,809,809,809,809,809,809,809,809,809,809,809,809,809,809,809,809,809,809,809,809,809,809,809,809,809,809,809,809,809,807,793,766,672,620,573,555,545,545,544,541,532,519,505,484,481,481,481,481,480],"ymouse":[545,545,545,545,545,545,545,545,545,545,545,545,545,545,545,545,545,545,545,545,545,545,545,545,545,545,545,545,545,545,545,545,545,545,543,516,486,418,379,356,343,333,329,318,313,299,282,265,236,223,199,161,109,72],"timestamp_mouse":[12,23,44,63,83,103,123,143,162,182,202,222,242,262,282,302,323,343,362,382,402,422,442,462,482,503,522,542,562,582,603,622,642,663,682,703,723,743,762,783,802,822,842,862,882,902,922,944,963,983,1002,1023,1042,1063],"xSR":741.5,"ySR":469.95,"xT1":424.9,"yT1":0,"xT2":1058.1,"yT2":0,"toosoon":0,"cond_shown":"randomdotsizeEA","ratio_trial":250,"smaller_num":"2","larger_num":"8","correct_side":1,"subjID":"laurarobayo9","gender":"No_gender","age":"No_age","school":"No_school"},{"start_time":1551902063207,"click_time":1551902064993,"finger_time":1551902063893,"fix_duration":1212.3327039396618,"trial":19,"RT":686,"MT":1100,"sideResp":2,"stimulus":"img/250/equaldotsize/R/10_Ratio_250_L_4_R_16.png","xmouse":[825,825,825,825,825,825,825,825,825,825,825,825,825,825,825,825,825,825,825,825,825,825,825,825,825,825,825,825,825,825,825,825,832,838,881,914,940,966,977,993,998,1003,1007,1012,1030,1034,1036,1036,1036,1036,1036,1036,1036,1036,1036,1036,1036,1036,1036,1036,1036,1036,1036,1036,1036,1036,1036,1036,1036,1036,1036,1036,1036,1036,1036,1036,1036,1036,1036,1037,1038,1039,1040,1043,1045,1045,1047,1051,1054,1060],"ymouse":[521,521,521,521,521,521,521,521,521,521,521,521,521,521,521,521,521,521,521,521,521,521,521,521,521,521,521,521,521,521,521,521,513,503,392,316,250,182,159,123,110,99,88,75,38,29,24,24,24,24,24,24,24,24,24,24,24,24,24,24,24,24,24,24,24,24,24,24,24,24,24,24,24,24,24,24,24,24,24,24,26,27,27,28,28,28,28,28,28,29],"timestamp_mouse":[12,30,45,65,85,105,125,145,166,185,205,225,246,265,285,305,326,345,365,386,406,426,445,465,486,505,526,546,567,586,606,627,645,666,686,706,726,747,766,787,806,826,846,865,886,906,926,945,965,986,1005,1025,1045,1065,1085,1105,1125,1145,1165,1186,1206,1225,1245,1265,1286,1305,1325,1345,1365,1385,1405,1426,1446,1466,1487,1506,1526,1546,1566,1585,1605,1626,1645,1666,1685,1706,1725,1745,1765,1785],"xSR":741.5,"ySR":469.95,"xT1":424.9,"yT1":0,"xT2":1058.1,"yT2":0,"toosoon":0,"cond_shown":"equaldotsize","ratio_trial":250,"smaller_num":"4","larger_num":"16","correct_side":2,"subjID":"laurarobayo9","gender":"No_gender","age":"No_age","school":"No_school"},{"start_time":1551902066652,"click_time":1551902067612,"finger_time":1551902067132,"fix_duration":656.8669543046339,"trial":20,"RT":480,"MT":480,"sideResp":2,"stimulus":"img/750/equaldotsize/R/4_Ratio_750_L_15_R_20.png","xmouse":[805,805,805,805,805,805,805,805,805,805,805,805,805,805,805,805,805,805,805,805,805,807,811,835,852,867,887,919,933,945,957,968,977,1003,1011,1022,1032,1040,1053,1057,1059,1060,1062,1065,1070,1074,1078,1084,1085],"ymouse":[544,544,544,544,544,544,544,544,544,544,544,544,544,544,544,544,544,544,544,544,544,544,541,520,509,496,480,450,433,415,399,385,371,333,314,295,273,249,202,181,170,164,156,147,139,132,122,105,96],"timestamp_mouse":[9,20,40,60,81,100,120,140,161,180,200,221,240,261,281,300,321,342,362,381,401,421,441,462,480,502,521,540,560,580,600,620,641,660,681,701,721,741,760,781,801,821,840,862,881,901,920,941,960],"xSR":741.5,"ySR":469.95,"xT1":424.9,"yT1":0,"xT2":1058.1,"yT2":0,"toosoon":0,"cond_shown":"equaldotsize","ratio_trial":750,"smaller_num":"15","larger_num":"20","correct_side":2,"subjID":"laurarobayo9","gender":"No_gender","age":"No_age","school":"No_school"},{"start_time":1551902068784,"click_time":1551902072792,"finger_time":1551902070193,"fix_duration":250,"trial":21,"RT":1409,"MT":2599,"sideResp":2,"stimulus":"img/750/randomdotsizeEA/L/10_Ratio_750_L_4_R_3.png","xmouse":[816,816,816,816,816,816,816,816,816,816,816,816,816,816,816,816,816,816,816,816,816,816,816,816,816,816,816,816,816,816,816,816,816,816,816,816,816,816,816,816,816,816,816,816,816,816,816,816,816,816,816,816,816,816,816,816,816,816,816,816,816,816,816,816,816,816,816,816,820,833,872,973,1014,1039,1055,1076,1100,1104,1106,1107,1111,1112,1113,1115,1118,1119,1126,1127,1129,1129,1130,1131,1131,1131,1131,1132,1132,1132,1132,1132,1132,1133,1133,1133,1133,1133,1133,1133,1133,1133,1133,1133,1133,1133,1133,1131,1040,910,752,588,432,274,266,266,266,265,265,265,266,267,280,290,301,309,319,325,328,331,335,339,340,340,340,340,340,341,381,426,495,566,645,809,880,945,1032,1108,1188,1195,1195,1195,1195,1194,1184,1149,1099,1049,958,923,870,808,732,599,559,542,534,534,534,538,557,585,615,716,786,864,975,1013,1039,1039,1040,1042,1047,1066,1072,1076,1078,1078,1082,1086,1089,1096,1101],"ymouse":[535,535,535,535,535,535,535,535,535,535,535,535,535,535,535,535,535,535,535,535,535,535,535,535,535,535,535,535,535,535,535,535,535,535,535,535,535,535,535,535,535,535,535,535,535,535,535,535,535,535,535,535,535,535,535,535,535,535,535,535,535,535,535,535,535,535,535,535,531,523,494,413,374,342,317,288,254,245,239,236,229,225,219,212,201,198,175,168,163,159,157,153,151,148,147,145,145,145,144,144,144,143,143,143,143,143,143,143,143,143,143,143,143,143,143,142,163,184,212,233,251,264,264,264,264,258,240,235,231,229,219,213,207,201,195,192,189,187,185,182,182,182,182,182,184,187,211,223,244,257,267,285,285,285,285,278,263,261,261,261,261,261,263,263,263,263,265,271,286,303,325,352,360,366,370,370,370,368,357,341,324,278,248,214,171,154,143,142,141,140,138,127,124,121,120,119,116,114,111,104,94],"timestamp_mouse":[12,36,48,70,88,108,129,148,169,189,209,229,250,269,289,309,329,349,370,389,408,428,448,468,490,509,529,549,569,589,609,629,648,669,688,709,728,748,768,788,808,828,848,868,888,909,930,949,969,989,1009,1029,1049,1069,1089,1109,1129,1149,1169,1188,1208,1228,1249,1268,1289,1309,1329,1349,1369,1389,1409,1429,1449,1469,1489,1510,1528,1548,1568,1588,1609,1628,1648,1668,1688,1708,1728,1748,1768,1788,1810,1828,1848,1868,1889,1910,1928,1949,1970,1988,2008,2029,2048,2069,2088,2109,2129,2148,2168,2188,2209,2228,2248,2269,2288,2308,2328,2348,2369,2389,2410,2428,2448,2468,2488,2508,2529,2548,2568,2588,2609,2628,2650,2669,2689,2709,2728,2748,2769,2788,2808,2829,2849,2868,2888,2908,2929,2948,2969,2989,3010,3028,3049,3069,3089,3108,3129,3148,3169,3188,3208,3228,3248,3268,3288,3308,3328,3348,3369,3389,3409,3429,3448,3468,3488,3508,3529,3548,3568,3588,3608,3628,3649,3668,3688,3708,3729,3748,3769,3789,3809,3828,3849,3869,3889,3909,3929,3948,3969,3989,4008],"xSR":741.5,"ySR":469.95,"xT1":424.9,"yT1":0,"xT2":1058.1,"yT2":0,"toosoon":0,"cond_shown":"randomdotsizeEA","ratio_trial":750,"smaller_num":"3","larger_num":"4","correct_side":1,"subjID":"laurarobayo9","gender":"No_gender","age":"No_age","school":"No_school"},{"start_time":1551902075224,"click_time":1551902076552,"finger_time":1551902075832,"fix_duration":250,"trial":22,"RT":608,"MT":720,"sideResp":1,"stimulus":"img/250/equaldotsize/L/1_Ratio_250_L_8_R_2.png","xmouse":[810,810,810,810,810,810,810,810,810,810,810,810,810,810,810,810,810,810,809,809,806,806,806,805,805,805,805,804,798,790,714,691,684,684,683,687,691,695,695,641,620,620,623,625,628,628,628,628,628,618,608,600,589,581,567,563,560,560,559,559,559,559,559,557,542,526,512],"ymouse":[546,546,546,546,546,546,546,546,546,546,546,546,546,546,546,546,546,546,546,546,546,546,546,546,546,546,546,546,546,541,517,514,513,513,512,498,483,463,420,264,255,254,252,251,248,246,245,243,241,219,198,181,162,143,117,111,107,106,105,105,105,105,105,104,101,99,99],"timestamp_mouse":[14,39,49,68,88,108,128,150,170,189,209,229,249,269,289,309,328,348,368,388,408,429,448,468,488,508,530,548,568,588,608,628,650,670,688,710,729,749,769,789,808,828,849,869,888,908,928,948,968,989,1010,1028,1049,1069,1089,1110,1128,1148,1168,1188,1208,1228,1248,1268,1289,1308,1328],"xSR":741.5,"ySR":469.95,"xT1":424.9,"yT1":0,"xT2":1058.1,"yT2":0,"toosoon":0,"cond_shown":"equaldotsize","ratio_trial":250,"smaller_num":"2","larger_num":"8","correct_side":1,"subjID":"laurarobayo9","gender":"No_gender","age":"No_age","school":"No_school"},{"start_time":1551902078634,"click_time":1551902079992,"finger_time":1551902079653,"fix_duration":1019.2438427274701,"trial":23,"RT":1019,"MT":339,"sideResp":1,"stimulus":"img/500/randomdotsizeEA/L/5_Ratio_500_L_4_R_2.png","xmouse":[797,797,797,797,797,797,797,797,797,797,797,797,797,797,797,797,797,797,797,797,797,797,797,797,797,797,797,797,797,797,797,797,797,797,797,797,797,797,797,797,797,797,797,797,797,797,797,797,797,791,769,693,607,503,417,347,347,356,364,374,374,374,374,376,392,408,438,459,469],"ymouse":[533,533,533,533,533,533,533,533,533,533,533,533,533,533,533,533,533,533,533,533,533,533,533,533,533,533,533,533,533,533,533,533,533,533,533,533,533,533,533,533,533,533,533,533,533,533,533,533,533,529,517,492,462,419,383,341,334,319,315,304,283,271,259,246,216,193,156,123,96],"timestamp_mouse":[1,27,39,59,79,98,118,138,158,179,198,219,239,258,279,298,319,338,358,378,398,419,439,460,480,498,518,538,559,579,600,619,638,659,679,698,718,739,759,780,799,820,839,859,879,898,918,939,959,979,999,1019,1039,1059,1078,1098,1118,1138,1158,1178,1202,1218,1238,1258,1279,1298,1318,1338,1358],"xSR":741.5,"ySR":469.95,"xT1":424.9,"yT1":0,"xT2":1058.1,"yT2":0,"toosoon":0,"cond_shown":"randomdotsizeEA","ratio_trial":500,"smaller_num":"2","larger_num":"4","correct_side":1,"subjID":"laurarobayo9","gender":"No_gender","age":"No_age","school":"No_school"},{"start_time":1551902081733,"click_time":1551902082834,"finger_time":1551902082293,"fix_duration":639.8711548187846,"trial":24,"RT":560,"MT":541,"sideResp":2,"stimulus":"img/500/equaldotanddens/R/3_Ratio_500_L_10_R_20.png","xmouse":[786,786,786,786,786,786,786,786,786,786,786,786,786,786,786,786,786,786,786,786,786,786,786,786,786,786,786,786,787,792,804,820,840,865,889,927,941,960,980,1011,1011,1011,1011,1011,1011,1011,1011,1011,1011,1011,1011,1011,1011,1011,1011,1061],"ymouse":[477,477,477,477,477,477,477,477,477,477,477,477,477,477,477,477,477,477,477,477,477,477,477,477,477,477,477,475,469,456,415,367,321,262,206,128,103,78,51,14,14,14,14,14,14,14,14,14,14,14,14,14,14,14,14,1],"timestamp_mouse":[1,28,39,59,79,101,120,140,160,179,199,220,240,259,279,300,319,339,360,380,400,420,440,460,480,500,520,540,560,580,600,621,639,660,679,699,720,740,759,779,800,820,840,859,879,899,919,939,959,979,999,1019,1039,1059,1080,1101],"xSR":741.5,"ySR":469.95,"xT1":424.9,"yT1":0,"xT2":1058.1,"yT2":0,"toosoon":0,"cond_shown":"equaldotanddens","ratio_trial":500,"smaller_num":"10","larger_num":"20","correct_side":2,"subjID":"laurarobayo9","gender":"No_gender","age":"No_age","school":"No_school"},{"start_time":1551902084399,"click_time":1551902085414,"finger_time":1551902085034,"fix_duration":624.3112680710677,"trial":25,"RT":635,"MT":380,"sideResp":2,"stimulus":"img/750/equaldotsize/R/4_Ratio_750_L_15_R_20.png","xmouse":[797,797,797,797,797,797,797,797,797,797,797,797,797,797,797,797,797,797,797,797,797,797,797,797,797,797,797,797,799,804,814,843,872,898,924,946,979,988,995,998,1000,1004,1006,1008,1008,1010,1022,1040,1047,1053,1059],"ymouse":[515,515,515,515,515,515,515,515,515,515,515,515,515,515,515,515,515,515,515,515,515,515,515,515,515,515,515,515,513,509,498,461,424,390,354,319,242,224,208,199,192,180,175,169,167,161,141,111,97,85,74],"timestamp_mouse":[15,35,55,76,97,117,137,157,176,195,216,235,255,275,295,315,335,356,376,396,416,436,455,476,495,515,535,555,575,595,616,635,656,676,696,716,737,755,775,796,816,835,857,876,896,915,935,955,975,995,1015],"xSR":741.5,"ySR":469.95,"xT1":424.9,"yT1":0,"xT2":1058.1,"yT2":0,"toosoon":0,"cond_shown":"equaldotsize","ratio_trial":750,"smaller_num":"15","larger_num":"20","correct_side":2,"subjID":"laurarobayo9","gender":"No_gender","age":"No_age","school":"No_school"},{"start_time":1551902086823,"click_time":1551902088055,"finger_time":1551902087635,"fix_duration":427.78431907988744,"trial":26,"RT":812,"MT":420,"sideResp":2,"stimulus":"img/900/equaldotanddens/L/8_Ratio_900_L_20_R_18.png","xmouse":[771,771,771,771,771,771,771,771,771,771,771,771,771,771,771,771,771,771,771,771,771,771,771,771,771,771,771,771,771,771,771,771,771,771,771,771,771,771,771,780,814,848,888,927,988,1023,1073,1089,1101,1108,1114,1123,1127,1134,1138,1144,1149,1150,1151,1152,1152,1152],"ymouse":[486,486,486,486,486,486,486,486,486,486,486,486,486,486,486,486,486,486,486,486,486,486,486,486,486,486,486,486,486,486,486,486,486,486,486,486,486,486,486,481,451,426,392,353,290,252,197,178,163,154,144,133,129,120,116,109,104,102,102,101,100,99],"timestamp_mouse":[11,32,52,72,91,112,131,151,172,193,212,232,252,273,292,312,331,351,371,391,412,431,451,471,491,511,531,551,572,591,612,631,651,671,692,712,731,751,771,791,812,831,853,872,892,911,932,951,972,992,1013,1031,1052,1071,1092,1112,1132,1151,1171,1192,1213,1232],"xSR":741.5,"ySR":469.95,"xT1":424.9,"yT1":0,"xT2":1058.1,"yT2":0,"toosoon":0,"cond_shown":"equaldotanddens","ratio_trial":900,"smaller_num":"18","larger_num":"20","correct_side":1,"subjID":"laurarobayo9","gender":"No_gender","age":"No_age","school":"No_school"},{"start_time":1551902092104,"click_time":1551902094395,"finger_time":1551902092855,"fix_duration":1428.5112189165764,"trial":27,"RT":751,"MT":1540,"sideResp":2,"stimulus":"img/500/randomdotsizeEA/R/6_Ratio_500_L_9_R_18.png","xmouse":[800,800,800,800,800,800,800,800,800,800,800,800,800,800,800,800,800,800,800,800,800,800,800,800,800,800,800,800,800,800,800,800,800,800,800,793,783,733,663,600,547,527,518,518,518,518,518,518,518,518,518,518,515,506,504,503,501,500,499,499,499,499,499,499,499,499,499,499,499,499,499,499,499,499,499,499,499,499,507,532,570,613,649,675,686,703,725,780,794,800,803,805,806,815,823,829,833,838,844,845,848,851,853,856,862,870,870,870,870,870,874,882,956,1045,1124],"ymouse":[527,527,527,527,527,527,527,527,527,527,527,527,527,527,527,527,527,527,527,527,527,527,527,527,527,527,527,527,527,527,527,527,527,527,527,511,496,425,367,324,294,281,274,273,273,273,272,270,266,258,242,220,197,155,140,127,122,118,114,114,113,113,112,112,112,112,112,112,112,112,112,112,112,112,112,112,112,112,127,148,171,189,201,205,202,193,180,147,140,137,135,135,134,128,124,121,119,115,113,112,110,110,109,108,107,103,103,103,103,103,102,101,85,60,36],"timestamp_mouse":[11,32,50,71,91,111,130,150,171,192,211,231,251,271,291,311,331,351,371,391,411,430,451,470,490,511,531,550,570,590,610,630,650,670,690,710,730,751,772,790,811,831,851,872,891,911,931,951,972,990,1010,1031,1050,1071,1091,1111,1132,1150,1171,1190,1210,1230,1250,1271,1291,1310,1330,1351,1370,1390,1410,1431,1451,1471,1491,1511,1531,1551,1571,1590,1610,1630,1650,1670,1691,1710,1730,1751,1771,1790,1811,1830,1851,1870,1891,1911,1931,1951,1971,1991,2011,2031,2051,2071,2091,2111,2131,2150,2170,2190,2210,2230,2250,2270,2290],"xSR":741.5,"ySR":469.95,"xT1":424.9,"yT1":0,"xT2":1058.1,"yT2":0,"toosoon":0,"cond_shown":"randomdotsizeEA","ratio_trial":500,"smaller_num":"9","larger_num":"18","correct_side":2,"subjID":"laurarobayo9","gender":"No_gender","age":"No_age","school":"No_school"},{"start_time":1551902097128,"click_time":1551902098115,"finger_time":1551902097815,"fix_duration":250,"trial":28,"RT":687,"MT":300,"sideResp":2,"stimulus":"img/900/randomdotsizeEA/R/6_Ratio_900_L_9_R_10.png","xmouse":[797,797,797,797,797,797,797,797,797,797,797,797,797,797,797,797,797,797,797,797,797,797,797,797,797,797,797,797,797,797,797,797,804,811,819,842,858,881,891,901,918,933,957,966,983,992,1015,1045,1054,1060],"ymouse":[529,529,529,529,529,529,529,529,529,529,529,529,529,529,529,529,529,529,529,529,529,529,529,529,529,529,529,529,529,529,529,529,519,496,467,405,365,310,286,261,225,200,165,151,131,123,103,82,77,72],"timestamp_mouse":[8,34,47,67,87,107,127,147,167,187,208,227,247,267,288,308,327,347,366,386,406,426,446,466,486,506,526,546,566,586,606,626,647,667,687,707,727,747,766,787,806,826,846,866,887,907,926,946,966,987],"xSR":741.5,"ySR":469.95,"xT1":424.9,"yT1":0,"xT2":1058.1,"yT2":0,"toosoon":0,"cond_shown":"randomdotsizeEA","ratio_trial":900,"smaller_num":"9","larger_num":"10","correct_side":2,"subjID":"laurarobayo9","gender":"No_gender","age":"No_age","school":"No_school"},{"start_time":1551902099383,"click_time":1551902100414,"finger_time":1551902100074,"fix_duration":287.2966339063971,"trial":29,"RT":691,"MT":340,"sideResp":2,"stimulus":"img/500/equaldotsize/R/2_Ratio_500_L_3_R_6.png","xmouse":[767,767,767,767,767,767,767,767,767,767,767,767,767,767,767,767,767,767,767,767,767,767,767,767,767,767,767,767,767,767,767,767,767,795,914,980,1029,1052,1061,1064,1064,1064,1064,1065,1065,1065,1065,1065,1067,1075,1084,1098],"ymouse":[530,530,530,530,530,530,530,530,530,530,530,530,530,530,530,530,530,530,530,530,530,530,530,530,530,530,530,530,530,530,530,530,529,497,407,355,313,280,253,216,204,200,198,195,180,171,160,149,139,122,112,99],"timestamp_mouse":[11,35,51,71,92,111,131,152,171,191,211,231,251,271,292,312,332,352,372,393,412,432,452,472,492,512,533,552,573,592,612,632,652,671,691,711,731,751,771,791,811,831,852,872,891,911,932,952,972,992,1013,1031],"xSR":741.5,"ySR":469.95,"xT1":424.9,"yT1":0,"xT2":1058.1,"yT2":0,"toosoon":0,"cond_shown":"equaldotsize","ratio_trial":500,"smaller_num":"3","larger_num":"6","correct_side":2,"subjID":"laurarobayo9","gender":"No_gender","age":"No_age","school":"No_school"},{"start_time":1551902102685,"click_time":1551902104194,"finger_time":1551902103596,"fix_duration":949.193628748595,"trial":30,"RT":911,"MT":598,"sideResp":1,"stimulus":"img/750/equaldotsize/L/8_Ratio_750_L_4_R_3.png","xmouse":[814,814,814,814,814,814,814,814,814,814,814,814,814,814,814,814,814,814,814,814,814,814,814,814,814,814,814,814,814,814,814,814,814,814,814,814,814,814,814,814,814,814,814,812,805,753,720,680,639,598,593,590,583,561,553,517,515,515,514,511,503,501,500,500,500,500,500,500,500,500,500,500,500,500,500,504],"ymouse":[525,525,525,525,525,525,525,525,525,525,525,525,525,525,525,525,525,525,525,525,525,525,525,525,525,525,525,525,525,525,525,525,525,525,525,525,525,525,525,525,525,525,526,520,498,398,349,301,255,209,200,191,181,158,150,126,124,124,124,120,109,107,106,106,106,106,106,106,106,106,106,106,106,106,106,90],"timestamp_mouse":[11,34,49,69,89,109,129,149,169,190,210,230,250,270,290,310,331,350,369,389,409,429,449,469,489,509,529,549,569,591,609,629,649,669,690,709,729,749,770,790,810,830,850,870,890,911,929,950,970,990,1009,1030,1050,1070,1089,1109,1130,1149,1169,1190,1209,1229,1249,1269,1291,1309,1329,1349,1369,1391,1410,1430,1450,1470,1489,1509],"xSR":741.5,"ySR":469.95,"xT1":424.9,"yT1":0,"xT2":1058.1,"yT2":0,"toosoon":0,"cond_shown":"equaldotsize","ratio_trial":750,"smaller_num":"3","larger_num":"4","correct_side":1,"subjID":"laurarobayo9","gender":"No_gender","age":"No_age","school":"No_school"},{"start_time":1551902106043,"click_time":1551902107394,"finger_time":1551902106794,"fix_duration":366.79095293176334,"trial":31,"RT":751,"MT":600,"sideResp":1,"stimulus":"img/250/randomdotsizeEA/L/1_Ratio_250_L_8_R_2.png","xmouse":[796,796,796,796,796,796,796,796,796,796,796,796,796,796,796,796,796,796,796,796,796,796,796,796,796,796,796,796,796,796,796,796,796,796,796,796,796,738,696,646,619,607,604,601,599,587,574,563,558,555,552,551,546,539,537,534,534,534,534,533,532,531,531,531,531,530,528,524],"ymouse":[478,478,478,478,478,478,478,478,478,478,478,478,478,478,478,478,478,478,478,478,478,478,478,478,478,478,478,478,478,478,478,478,478,478,478,478,472,398,354,316,293,282,275,262,256,232,215,186,175,166,160,153,124,102,98,93,93,93,93,93,90,88,88,88,88,87,86,83],"timestamp_mouse":[11,35,52,72,91,111,132,151,171,191,212,232,253,272,292,312,333,353,372,393,412,432,452,472,492,511,531,551,571,592,611,631,652,672,691,712,731,751,771,791,811,832,852,871,892,911,932,951,971,991,1012,1032,1052,1072,1092,1112,1133,1151,1171,1191,1211,1232,1251,1271,1291,1311,1331,1351],"xSR":741.5,"ySR":469.95,"xT1":424.9,"yT1":0,"xT2":1058.1,"yT2":0,"toosoon":0,"cond_shown":"randomdotsizeEA","ratio_trial":250,"smaller_num":"2","larger_num":"8","correct_side":1,"subjID":"laurarobayo9","gender":"No_gender","age":"No_age","school":"No_school"},{"start_time":1551902108746,"click_time":1551902109735,"finger_time":1551902109394,"fix_duration":250,"trial":32,"RT":648,"MT":341,"sideResp":2,"stimulus":"img/250/randomdotsizeEA/R/11_Ratio_250_L_3_R_12.png","xmouse":[798,798,798,798,798,798,798,798,798,798,798,798,798,798,798,798,798,798,798,798,798,798,798,798,798,798,798,798,798,798,800,802,828,847,867,888,912,954,977,988,999,1012,1023,1041,1048,1054,1056,1061,1064,1067],"ymouse":[484,484,484,484,484,484,484,484,484,484,484,484,484,484,484,484,484,484,484,484,484,484,484,484,484,484,484,484,484,484,482,480,462,447,426,401,366,294,250,225,204,188,175,145,131,118,113,105,102,98],"timestamp_mouse":[9,32,49,68,88,108,128,148,168,188,208,229,249,269,289,309,329,349,368,388,408,428,448,469,488,508,528,548,568,589,608,628,648,669,688,708,728,748,770,788,809,828,848,869,889,908,928,948,969,989],"xSR":741.5,"ySR":469.95,"xT1":424.9,"yT1":0,"xT2":1058.1,"yT2":0,"toosoon":0,"cond_shown":"randomdotsizeEA","ratio_trial":250,"smaller_num":"3","larger_num":"12","correct_side":2,"subjID":"laurarobayo9","gender":"No_gender","age":"No_age","school":"No_school"},{"start_time":1551902112193,"click_time":1551902113215,"finger_time":1551902112895,"fix_duration":1497.4869145839373,"trial":33,"RT":702,"MT":320,"sideResp":1,"stimulus":"img/900/equaldotsize/R/6_Ratio_900_L_9_R_10.png","xmouse":[827,827,827,827,827,827,827,827,827,827,827,821,806,797,793,790,790,790,790,790,790,790,790,790,790,790,790,790,790,790,790,790,788,784,762,715,691,668,651,641,631,622,610,597,581,571,570,565,555,539,518,465],"ymouse":[541,541,541,541,541,541,541,541,541,541,541,533,520,516,514,514,514,514,514,514,514,514,514,514,514,514,514,514,514,514,514,514,512,503,473,420,384,353,326,311,295,288,280,274,261,254,249,238,220,196,165,65],"timestamp_mouse":[14,36,41,61,81,101,122,141,161,181,202,221,241,261,281,302,321,342,362,381,402,423,443,462,482,502,522,542,562,582,602,622,642,662,682,702,721,741,762,782,802,821,842,862,882,902,921,942,961,981,1003,1022],"xSR":741.5,"ySR":469.95,"xT1":424.9,"yT1":0,"xT2":1058.1,"yT2":0,"toosoon":0,"cond_shown":"equaldotsize","ratio_trial":900,"smaller_num":"9","larger_num":"10","correct_side":2,"subjID":"laurarobayo9","gender":"No_gender","age":"No_age","school":"No_school"},{"start_time":1551902115608,"click_time":1551902116574,"finger_time":1551902116235,"fix_duration":1193.5531915562924,"trial":34,"RT":627,"MT":339,"sideResp":2,"stimulus":"img/900/equaldotsize/R/12_Ratio_900_L_18_R_20.png","xmouse":[822,822,822,822,824,824,824,825,825,825,825,826,828,829,830,835,835,835,835,835,835,835,835,835,835,835,835,835,835,835,838,847,857,877,900,957,977,997,1006,1017,1036,1042,1047,1048,1048,1051,1054,1058,1060],"ymouse":[519,519,519,519,516,514,513,511,511,511,511,510,508,507,506,503,503,503,503,503,503,503,503,503,503,503,503,503,503,503,499,483,464,425,385,272,224,183,161,141,109,99,89,88,88,84,79,74,72],"timestamp_mouse":[10,34,47,66,87,106,126,147,167,187,207,227,248,267,287,306,326,346,366,387,408,428,447,468,486,506,526,547,568,588,607,627,647,667,687,707,726,747,766,787,806,827,846,867,886,906,927,946,966],"xSR":741.5,"ySR":469.95,"xT1":424.9,"yT1":0,"xT2":1058.1,"yT2":0,"toosoon":0,"cond_shown":"equaldotsize","ratio_trial":900,"smaller_num":"18","larger_num":"20","correct_side":2,"subjID":"laurarobayo9","gender":"No_gender","age":"No_age","school":"No_school"},{"start_time":1551902120434,"click_time":1551902121855,"finger_time":1551902121115,"fix_duration":897.4589858179029,"trial":35,"RT":681,"MT":740,"sideResp":1,"stimulus":"img/900/equaldotanddens/R/11_Ratio_900_L_18_R_20.png","xmouse":[775,775,775,775,774,774,774,778,780,781,781,781,781,781,781,781,781,781,781,781,781,781,781,781,781,781,781,781,781,781,781,781,781,777,760,734,698,661,627,618,618,618,618,618,617,613,613,611,603,578,545,532,526,523,521,521,521,521,521,521,521,521,521,521,521,522,524,528,533,533,525,520],"ymouse":[495,495,495,495,496,496,497,499,500,500,500,500,500,500,500,500,500,500,500,500,500,500,500,500,500,500,500,500,500,500,500,500,500,489,453,410,360,324,291,278,278,278,278,278,277,277,277,277,273,258,218,191,166,149,139,139,139,138,137,137,137,137,137,137,137,136,133,125,115,112,102,99],"timestamp_mouse":[8,21,40,60,80,100,120,140,160,180,200,220,240,260,280,300,320,340,361,380,401,421,441,461,481,505,522,541,561,582,601,621,641,661,681,701,722,741,760,781,800,820,840,860,881,900,921,940,960,980,1000,1020,1040,1060,1082,1100,1121,1140,1160,1182,1200,1221,1241,1261,1281,1300,1321,1341,1360,1380,1400,1421],"xSR":741.5,"ySR":469.95,"xT1":424.9,"yT1":0,"xT2":1058.1,"yT2":0,"toosoon":0,"cond_shown":"equaldotanddens","ratio_trial":900,"smaller_num":"18","larger_num":"20","correct_side":2,"subjID":"laurarobayo9","gender":"No_gender","age":"No_age","school":"No_school"},{"start_time":1551902124685,"click_time":1551902125675,"finger_time":1551902125375,"fix_duration":1489.9221128625447,"trial":36,"RT":690,"MT":300,"sideResp":2,"stimulus":"img/500/equaldotanddens/R/12_Ratio_500_L_1_R_2.png","xmouse":[785,785,785,785,785,785,785,785,785,785,785,785,785,785,785,785,785,785,785,785,785,785,785,785,785,785,785,785,785,785,787,789,803,820,844,861,881,912,922,931,939,944,961,975,986,1000,1016,1046,1059,1067],"ymouse":[538,538,538,538,538,538,538,538,538,538,538,538,538,538,538,538,538,538,538,538,538,538,538,538,538,538,538,538,538,538,537,536,526,507,467,441,409,352,335,315,303,294,268,238,213,189,166,131,115,98],"timestamp_mouse":[11,29,50,70,90,110,131,150,169,189,209,229,249,270,290,309,329,349,369,389,409,430,449,469,489,510,530,550,570,590,610,630,650,670,690,710,730,750,771,790,810,830,849,870,889,910,929,949,969,989],"xSR":741.5,"ySR":469.95,"xT1":424.9,"yT1":0,"xT2":1058.1,"yT2":0,"toosoon":0,"cond_shown":"equaldotanddens","ratio_trial":500,"smaller_num":"1","larger_num":"2","correct_side":2,"subjID":"laurarobayo9","gender":"No_gender","age":"No_age","school":"No_school"},{"start_time":1551902126986,"click_time":1551902127774,"finger_time":1551902127695,"fix_duration":250,"trial":37,"RT":709,"MT":79,"sideResp":1,"stimulus":"img/500/randomdotsizeEA/R/15_Ratio_500_L_1_R_2.png","xmouse":[801,801,801,801,802,802,802,802,802,802,802,802,802,802,802,802,802,802,802,802,802,802,802,802,802,802,802,802,802,802,802,802,802,801,788,766,718,572,461,428],"ymouse":[553,553,553,551,550,545,542,537,537,537,537,537,537,537,537,537,537,537,537,537,537,537,537,537,537,537,537,537,537,537,537,537,537,532,502,462,382,210,102,70],"timestamp_mouse":[9,33,49,68,89,109,128,148,170,188,208,228,248,268,288,308,328,349,368,389,408,429,449,469,490,509,529,549,569,590,609,629,649,669,689,709,729,748,769,788],"xSR":741.5,"ySR":469.95,"xT1":424.9,"yT1":0,"xT2":1058.1,"yT2":0,"toosoon":0,"cond_shown":"randomdotsizeEA","ratio_trial":500,"smaller_num":"1","larger_num":"2","correct_side":2,"subjID":"laurarobayo9","gender":"No_gender","age":"No_age","school":"No_school"},{"start_time":1551902132333,"click_time":1551902133334,"finger_time":1551902132954,"fix_duration":776.2215315070248,"trial":38,"RT":621,"MT":380,"sideResp":1,"stimulus":"img/500/equaldotsize/L/5_Ratio_500_L_4_R_2.png","xmouse":[813,813,813,813,813,813,813,813,813,813,813,813,813,813,813,813,813,813,813,813,813,813,813,813,813,813,813,814,809,799,782,740,723,712,707,706,703,699,692,685,677,673,669,660,640,616,558,539,529,524,519],"ymouse":[559,559,559,559,559,559,559,559,559,559,559,559,559,559,559,559,559,559,559,559,559,559,559,559,559,559,559,558,541,523,498,435,408,393,380,374,366,361,353,344,336,330,321,301,269,234,160,138,123,108,97],"timestamp_mouse":[11,28,41,61,82,101,121,141,161,181,202,222,242,262,282,301,322,342,362,382,403,421,441,461,481,501,521,541,561,581,601,621,641,661,681,702,721,742,761,781,801,821,841,862,881,902,921,942,961,981,1001],"xSR":741.5,"ySR":469.95,"xT1":424.9,"yT1":0,"xT2":1058.1,"yT2":0,"toosoon":0,"cond_shown":"equaldotsize","ratio_trial":500,"smaller_num":"2","larger_num":"4","correct_side":1,"subjID":"laurarobayo9","gender":"No_gender","age":"No_age","school":"No_school"},{"start_time":1551902137927,"click_time":1551902139057,"finger_time":1551902138415,"fix_duration":250,"trial":39,"RT":488,"MT":642,"sideResp":2,"stimulus":"img/900/equaldotsize/R/5_Ratio_900_L_9_R_10.png","xmouse":[819,819,819,819,819,819,819,819,819,819,819,819,819,819,819,819,819,819,819,819,819,819,822,828,843,863,908,915,918,918,920,929,967,992,1018,1055,1136,1154,1166,1172,1174,1174,1180,1187,1187,1187,1187,1187,1187,1187,1187,1187,1187,1187,1187,1187,1124],"ymouse":[546,546,546,546,546,546,546,546,546,546,546,546,546,546,546,546,546,546,546,546,546,546,543,540,530,513,455,445,442,441,439,428,380,347,310,261,138,113,89,73,54,38,17,6,6,6,6,6,6,6,6,6,6,6,6,6,5],"timestamp_mouse":[8,28,54,68,89,108,128,147,167,187,207,228,248,268,288,308,328,348,368,388,408,429,448,468,488,508,528,547,567,587,607,628,647,667,687,708,728,748,767,789,808,828,848,869,888,908,928,949,968,988,1009,1029,1048,1068,1088,1108,1129],"xSR":741.5,"ySR":469.95,"xT1":424.9,"yT1":0,"xT2":1058.1,"yT2":0,"toosoon":0,"cond_shown":"equaldotsize","ratio_trial":900,"smaller_num":"9","larger_num":"10","correct_side":2,"subjID":"laurarobayo9","gender":"No_gender","age":"No_age","school":"No_school"},{"start_time":1551902142623,"click_time":1551902143835,"finger_time":1551902143234,"fix_duration":1327.6422237137988,"trial":40,"RT":611,"MT":601,"sideResp":2,"stimulus":"img/900/equaldotsize/R/9_Ratio_900_L_18_R_20.png","xmouse":[794,792,791,791,791,791,790,790,790,790,790,790,790,790,790,790,790,790,790,790,790,790,790,790,790,790,790,790,790,790,791,799,834,857,876,892,903,922,928,933,935,938,947,953,958,960,965,976,984,1002,1023,1038,1049,1050,1050,1050,1050,1052,1056,1059,1063],"ymouse":[482,476,476,476,476,476,475,475,475,475,475,475,475,475,475,475,475,475,475,475,475,475,475,475,475,475,475,475,475,475,465,447,390,359,342,328,316,299,295,291,289,287,281,277,273,272,267,250,229,200,170,143,117,115,115,114,114,110,105,101,93],"timestamp_mouse":[11,31,51,71,91,111,131,152,172,191,211,231,251,272,291,311,331,352,372,392,412,432,453,471,491,511,531,551,572,591,611,632,652,672,691,712,732,752,773,793,812,832,851,872,892,912,932,951,973,991,1012,1032,1051,1072,1091,1111,1131,1151,1171,1192,1212],"xSR":741.5,"ySR":469.95,"xT1":424.9,"yT1":0,"xT2":1058.1,"yT2":0,"toosoon":0,"cond_shown":"equaldotsize","ratio_trial":900,"smaller_num":"18","larger_num":"20","correct_side":2,"subjID":"laurarobayo9","gender":"No_gender","age":"No_age","school":"No_school"},{"start_time":1551902145229,"click_time":1551902146516,"finger_time":1551902145936,"fix_duration":250,"trial":41,"RT":707,"MT":580,"sideResp":2,"stimulus":"img/250/randomdotsizeEA/R/4_Ratio_250_L_3_R_12.png","xmouse":[781,781,781,781,781,781,781,782,782,782,783,783,783,783,783,783,783,783,783,783,783,783,783,783,783,783,783,785,788,792,795,799,806,811,822,838,859,913,931,952,970,986,1004,1006,1007,1009,1013,1033,1044,1052,1061,1070,1086,1089,1091,1091,1093,1094,1094,1095,1096,1096,1098,1099,1099],"ymouse":[500,500,500,500,500,500,500,500,500,500,500,500,500,500,500,500,500,500,500,500,500,500,500,500,500,500,500,499,498,495,493,490,486,482,474,462,445,395,369,338,314,290,271,268,266,260,254,234,224,214,197,174,140,131,126,124,121,119,119,117,114,111,105,102,98],"timestamp_mouse":[11,28,48,67,87,107,127,147,167,187,207,227,247,267,287,308,327,347,367,387,407,427,447,467,487,507,527,547,567,587,607,627,647,667,687,707,727,748,768,787,809,828,848,867,889,908,928,948,968,987,1007,1027,1047,1067,1087,1107,1127,1147,1167,1187,1208,1227,1247,1267,1287],"xSR":741.5,"ySR":469.95,"xT1":424.9,"yT1":0,"xT2":1058.1,"yT2":0,"toosoon":0,"cond_shown":"randomdotsizeEA","ratio_trial":250,"smaller_num":"3","larger_num":"12","correct_side":2,"subjID":"laurarobayo9","gender":"No_gender","age":"No_age","school":"No_school"},{"start_time":1551902149449,"click_time":1551902152256,"finger_time":1551902150236,"fix_duration":250,"trial":42,"RT":787,"MT":2020,"sideResp":1,"stimulus":"img/750/equaldotsize/L/13_Ratio_750_L_8_R_6.png","xmouse":[808,808,808,808,808,808,808,808,808,808,808,808,808,808,808,808,808,808,808,808,808,808,808,808,808,808,808,808,808,808,808,808,808,808,808,808,808,808,808,808,808,807,807,806,805,802,795,789,785,784,781,779,777,775,767,761,752,734,729,724,720,716,709,706,699,692,676,672,667,666,665,664,664,664,662,659,654,642,637,633,630,627,621,618,616,616,615,612,612,612,612,611,611,609,609,608,607,606,606,605,604,602,597,596,595,593,592,591,589,587,582,576,571,571,571,571,571,569,567,565,563,561,557,555,554,551,547,540,538,537,537,537,536,536,535,534,533,530,527,525,522],"ymouse":[505,505,505,505,505,505,505,505,505,505,505,505,505,505,505,505,505,505,505,505,505,505,505,505,505,505,505,505,505,505,505,505,505,505,504,502,493,481,474,467,461,451,447,442,435,418,389,374,363,355,349,341,335,328,313,303,292,272,266,261,256,252,246,243,237,229,213,210,206,205,203,202,202,201,199,195,188,174,168,163,159,153,144,141,137,137,135,131,131,131,131,130,130,128,127,126,125,125,124,123,122,120,117,116,115,115,114,114,114,114,112,111,108,108,108,108,108,107,106,104,103,102,99,98,98,97,96,95,95,95,95,95,94,94,94,94,93,93,92,92,91],"timestamp_mouse":[11,28,47,67,87,107,128,147,167,187,207,227,247,267,287,307,327,347,367,388,407,427,447,468,487,507,527,547,567,587,607,627,647,667,687,707,727,747,767,787,807,829,847,868,887,907,929,947,968,987,1007,1028,1047,1068,1087,1107,1127,1148,1167,1187,1207,1227,1247,1268,1287,1307,1328,1347,1367,1387,1407,1427,1447,1467,1487,1507,1529,1547,1567,1588,1608,1628,1647,1667,1687,1707,1727,1747,1767,1787,1807,1829,1848,1868,1887,1907,1927,1948,1967,1987,2007,2027,2047,2068,2087,2107,2127,2148,2168,2187,2207,2227,2248,2267,2287,2307,2327,2348,2367,2387,2407,2427,2447,2468,2487,2507,2528,2547,2567,2587,2607,2627,2647,2668,2687,2707,2727,2747,2767,2788,2807],"xSR":741.5,"ySR":469.95,"xT1":424.9,"yT1":0,"xT2":1058.1,"yT2":0,"toosoon":0,"cond_shown":"equaldotsize","ratio_trial":750,"smaller_num":"6","larger_num":"8","correct_side":1,"subjID":"laurarobayo9","gender":"No_gender","age":"No_age","school":"No_school"},{"start_time":1551902154391,"click_time":1551902155876,"finger_time":1551902155036,"fix_duration":734.8081817092018,"trial":43,"RT":645,"MT":840,"sideResp":1,"stimulus":"img/750/equaldotsize/L/9_Ratio_750_L_4_R_3.png","xmouse":[796,796,796,796,796,796,796,796,796,796,796,796,796,796,796,796,796,796,796,796,796,796,796,796,796,796,796,796,796,796,787,770,754,734,716,696,689,680,670,658,640,640,640,640,640,638,634,628,621,615,600,595,591,589,587,586,586,586,585,584,584,584,583,577,563,552,550,550,550,550,547,546,541,532,515],"ymouse":[507,507,507,507,507,507,507,507,507,507,507,507,507,507,507,507,507,507,507,507,507,507,507,507,507,507,507,507,507,507,497,474,454,418,358,281,269,258,249,237,225,224,224,224,224,213,201,187,171,160,129,120,114,111,110,110,110,110,110,110,109,109,109,107,101,96,94,94,94,94,91,91,90,89,87],"timestamp_mouse":[9,35,46,65,87,105,125,145,165,186,205,225,245,265,285,306,325,346,366,386,406,425,445,465,485,505,525,546,565,585,605,625,645,665,685,706,725,745,765,785,806,825,847,866,885,905,925,945,966,985,1005,1025,1045,1065,1085,1105,1125,1145,1165,1185,1205,1226,1245,1265,1285,1306,1327,1345,1366,1385,1405,1425,1446,1466,1485],"xSR":741.5,"ySR":469.95,"xT1":424.9,"yT1":0,"xT2":1058.1,"yT2":0,"toosoon":0,"cond_shown":"equaldotsize","ratio_trial":750,"smaller_num":"3","larger_num":"4","correct_side":1,"subjID":"laurarobayo9","gender":"No_gender","age":"No_age","school":"No_school"},{"start_time":1551902158205,"click_time":1551902158916,"finger_time":1551902158716,"fix_duration":827.2742324837587,"trial":44,"RT":511,"MT":200,"sideResp":2,"stimulus":"img/250/equaldotsize/R/9_Ratio_250_L_3_R_12.png","xmouse":[790,790,790,790,790,790,790,790,790,790,790,790,790,790,790,790,790,790,790,790,790,790,792,801,812,841,864,890,929,976,1069,1093,1108,1119,1124,1138],"ymouse":[490,490,490,490,490,490,490,490,490,490,490,490,490,490,490,490,490,490,490,490,490,490,490,483,475,449,429,404,361,307,193,159,138,119,110,81],"timestamp_mouse":[11,36,51,72,92,112,131,152,171,191,211,231,252,272,292,312,331,351,371,392,411,431,451,472,491,511,531,551,572,591,611,632,652,672,691,711],"xSR":741.5,"ySR":469.95,"xT1":424.9,"yT1":0,"xT2":1058.1,"yT2":0,"toosoon":0,"cond_shown":"equaldotsize","ratio_trial":250,"smaller_num":"3","larger_num":"12","correct_side":2,"subjID":"laurarobayo9","gender":"No_gender","age":"No_age","school":"No_school"},{"start_time":1551902160097,"click_time":1551902162276,"finger_time":1551902160917,"fix_duration":278.29793781462587,"trial":45,"RT":820,"MT":1359,"sideResp":1,"stimulus":"img/750/randomdotsizeEA/R/11_Ratio_750_L_12_R_16.png","xmouse":[840,840,840,840,840,840,840,840,840,840,840,840,840,840,840,840,840,840,840,840,840,840,840,840,839,839,837,837,836,835,833,831,831,830,830,830,827,825,812,791,764,676,636,603,582,576,572,571,570,568,566,560,559,558,558,557,555,552,551,551,548,535,526,519,513,511,506,505,503,503,503,503,502,501,501,506,537,560,572,582,589,600,602,603,603,603,603,603,603,603,603,603,603,603,603,603,588,574,565,563,562,561,560,560,555,548,538,533,527,522],"ymouse":[535,535,535,535,535,535,535,535,535,535,535,535,535,535,535,535,535,535,535,535,535,535,535,535,535,533,530,528,526,525,523,521,520,520,520,520,517,516,506,491,475,412,378,346,328,318,303,297,291,285,279,258,249,241,234,227,210,205,203,202,198,195,193,190,189,186,183,182,180,178,176,173,166,162,158,151,123,102,89,77,67,55,53,53,53,53,53,53,53,53,53,53,53,54,55,55,61,64,68,68,68,68,68,68,68,68,70,72,73,75],"timestamp_mouse":[6,33,39,60,79,99,119,140,159,180,199,219,239,260,280,299,319,339,360,379,400,419,440,460,480,499,519,539,559,580,599,619,639,659,679,699,719,739,760,780,800,820,839,860,880,901,920,939,959,980,999,1020,1040,1059,1079,1099,1119,1139,1159,1179,1199,1220,1240,1259,1279,1300,1320,1339,1359,1380,1399,1419,1439,1459,1479,1499,1519,1539,1559,1580,1599,1620,1639,1660,1680,1699,1720,1739,1759,1780,1801,1820,1839,1859,1879,1899,1920,1939,1959,1980,1999,2019,2039,2059,2079,2100,2119,2140,2159,2179],"xSR":741.5,"ySR":469.95,"xT1":424.9,"yT1":0,"xT2":1058.1,"yT2":0,"toosoon":0,"cond_shown":"randomdotsizeEA","ratio_trial":750,"smaller_num":"12","larger_num":"16","correct_side":2,"subjID":"laurarobayo9","gender":"No_gender","age":"No_age","school":"No_school"},{"start_time":1551902172194,"click_time":1551902175096,"finger_time":1551902172717,"fix_duration":1035.173541238281,"trial":46,"RT":523,"MT":2379,"sideResp":1,"stimulus":"img/250/equaldotanddens/L/5_Ratio_250_L_24_R_6.png","xmouse":[812,812,812,812,812,812,812,812,812,812,812,812,812,812,812,812,812,812,812,812,812,812,812,812,812,813,781,681,648,637,636,636,637,639,639,639,639,639,637,637,637,637,634,627,617,599,574,550,542,531,514,500,493,491,491,491,490,490,490,490,490,490,491,494,495,495,495,496,496,496,496,491,486,480,478,476,476,476,477,477,478,481,485,508,516,516,516,510,484,481,481,492,508,523,521,510,496,468,455,455,455,455,455,455,455,455,455,486,549,586,613,622,650,678,713,750,793,800,796,789,781,778,776,770,758,727,714,667,560,508,475,451,428,427,427,427,427,427,430,432,435,439,447,455,458,460],"ymouse":[514,514,514,514,514,514,514,514,514,514,514,514,514,514,514,514,514,514,514,514,514,514,514,514,514,513,467,349,306,285,276,271,264,261,257,252,235,229,220,220,220,220,219,216,213,211,208,205,205,205,203,199,195,193,192,191,189,184,182,181,179,178,175,168,165,163,160,156,156,155,154,154,153,152,152,152,152,150,147,147,147,149,155,170,179,183,197,215,265,297,326,361,394,439,449,459,469,486,494,494,494,495,495,495,495,495,495,495,494,492,492,492,452,400,339,287,230,210,183,174,166,162,160,156,154,153,153,153,153,153,150,149,145,144,143,143,142,140,133,129,126,120,111,104,101,99],"timestamp_mouse":[8,22,42,62,82,103,122,143,162,182,202,223,243,263,283,304,322,342,362,382,402,422,442,462,483,502,523,543,563,582,603,623,643,664,683,702,722,742,762,782,802,822,842,862,882,902,922,942,962,982,1002,1022,1043,1062,1082,1102,1122,1143,1163,1182,1202,1223,1243,1262,1282,1303,1323,1343,1363,1384,1402,1422,1443,1462,1483,1502,1522,1542,1562,1583,1602,1622,1642,1662,1683,1702,1722,1742,1762,1782,1802,1822,1842,1862,1883,1902,1922,1943,1962,1982,2002,2022,2043,2062,2082,2102,2122,2142,2162,2183,2203,2222,2242,2262,2283,2302,2323,2342,2362,2383,2402,2422,2442,2463,2482,2503,2522,2542,2562,2582,2602,2622,2645,2664,2683,2702,2723,2743,2762,2782,2802,2822,2842,2862,2882,2902],"xSR":741.5,"ySR":469.95,"xT1":424.9,"yT1":0,"xT2":1058.1,"yT2":0,"toosoon":0,"cond_shown":"equaldotanddens","ratio_trial":250,"smaller_num":"6","larger_num":"24","correct_side":1,"subjID":"laurarobayo9","gender":"No_gender","age":"No_age","school":"No_school"},{"start_time":1551902180896,"click_time":1551902182016,"finger_time":1551902181476,"fix_duration":1178.169093017656,"trial":47,"RT":580,"MT":540,"sideResp":2,"stimulus":"img/900/randomdotsizeEA/R/5_Ratio_900_L_9_R_10.png","xmouse":[758,758,758,758,758,758,758,758,758,758,758,758,758,758,758,758,758,758,758,758,758,758,758,758,760,763,764,773,782,821,835,854,867,896,916,936,948,963,988,996,1006,1014,1017,1025,1031,1036,1041,1044,1053,1055,1055,1056,1056,1056,1057,1058,1061],"ymouse":[533,533,533,533,533,533,533,533,533,533,533,533,533,533,533,533,533,533,533,533,533,533,533,533,533,531,530,524,516,467,438,404,370,301,256,210,179,144,85,71,60,52,47,40,36,32,29,28,23,22,22,22,22,22,22,22,22],"timestamp_mouse":[8,20,41,60,80,100,120,140,160,180,200,220,240,260,280,300,320,340,360,380,401,421,441,460,480,500,520,540,560,580,600,620,640,661,680,700,720,742,761,780,800,820,840,860,881,900,920,940,960,981,1000,1020,1040,1060,1080,1100,1120],"xSR":741.5,"ySR":469.95,"xT1":424.9,"yT1":0,"xT2":1058.1,"yT2":0,"toosoon":0,"cond_shown":"randomdotsizeEA","ratio_trial":900,"smaller_num":"9","larger_num":"10","correct_side":2,"subjID":"laurarobayo9","gender":"No_gender","age":"No_age","school":"No_school"},{"start_time":1551902185562,"click_time":1551902186256,"finger_time":1551902186176,"fix_duration":1084.6882322444424,"trial":48,"RT":614,"MT":80,"sideResp":1,"stimulus":"img/250/randomdotsizeEA/L/1_Ratio_250_L_8_R_2.png","xmouse":[813,813,813,813,813,813,813,813,813,813,813,813,813,813,813,813,813,813,813,813,813,813,813,813,813,813,813,807,789,763,681,639,577,544,498],"ymouse":[542,542,542,542,542,542,542,542,542,542,542,542,542,542,542,542,542,542,542,542,542,542,542,542,542,542,541,535,515,489,390,323,206,128,2],"timestamp_mouse":[20,34,54,74,94,114,135,155,174,194,215,234,254,274,294,314,335,355,374,394,415,434,454,474,494,514,534,555,574,594,614,634,654,674,694],"xSR":741.5,"ySR":469.95,"xT1":424.9,"yT1":0,"xT2":1058.1,"yT2":0,"toosoon":0,"cond_shown":"randomdotsizeEA","ratio_trial":250,"smaller_num":"2","larger_num":"8","correct_side":1,"subjID":"laurarobayo9","gender":"No_gender","age":"No_age","school":"No_school"},{"start_time":1551902189239,"click_time":1551902189877,"finger_time":1551902189776,"fix_duration":261.9834308236382,"trial":49,"RT":537,"MT":101,"sideResp":2,"stimulus":"img/250/equaldotanddens/R/8_Ratio_250_L_1_R_4.png","xmouse":[778,778,778,778,778,778,778,778,778,778,778,778,778,778,778,778,778,778,778,778,778,778,778,777,782,786,902,989,1068,1112,1125,1128],"ymouse":[531,531,531,531,531,531,531,531,531,531,531,531,531,531,531,531,531,531,531,531,531,531,531,532,529,526,431,346,257,177,124,84],"timestamp_mouse":[19,37,57,77,98,118,137,157,177,197,217,237,257,277,297,318,337,357,377,397,417,437,457,477,497,517,537,557,577,597,617,637],"xSR":741.5,"ySR":469.95,"xT1":424.9,"yT1":0,"xT2":1058.1,"yT2":0,"toosoon":0,"cond_shown":"equaldotanddens","ratio_trial":250,"smaller_num":"1","larger_num":"4","correct_side":2,"subjID":"laurarobayo9","gender":"No_gender","age":"No_age","school":"No_school"},{"start_time":1551902191744,"click_time":1551902192596,"finger_time":1551902192517,"fix_duration":827.1063099072362,"trial":50,"RT":773,"MT":79,"sideResp":2,"stimulus":"img/750/equaldotsize/R/5_Ratio_750_L_15_R_20.png","xmouse":[816,816,816,816,816,816,816,816,816,816,816,816,816,816,816,816,816,816,816,816,816,816,816,816,816,816,816,816,816,816,816,816,816,816,816,816,824,840,872,919,1001,1052,1089],"ymouse":[544,544,542,542,542,542,542,542,542,542,542,542,542,542,542,542,542,542,542,542,542,542,542,542,542,542,542,542,542,542,542,542,542,542,542,542,535,515,466,381,216,106,20],"timestamp_mouse":[13,33,52,72,92,112,132,152,172,192,212,232,252,272,292,312,332,353,373,394,413,432,452,472,493,512,532,552,572,592,613,632,652,672,692,713,733,752,773,792,812,832,852],"xSR":741.5,"ySR":469.95,"xT1":424.9,"yT1":0,"xT2":1058.1,"yT2":0,"toosoon":0,"cond_shown":"equaldotsize","ratio_trial":750,"smaller_num":"15","larger_num":"20","correct_side":2,"subjID":"laurarobayo9","gender":"No_gender","age":"No_age","school":"No_school"},{"start_time":1551902195268,"click_time":1551902196037,"finger_time":1551902195757,"fix_duration":1190.3081089727966,"trial":51,"RT":489,"MT":280,"sideResp":2,"stimulus":"img/250/equaldotsize/R/13_Ratio_250_L_2_R_8.png","xmouse":[814,814,814,814,814,814,814,814,814,814,814,814,814,814,814,814,814,814,814,814,814,818,827,839,855,870,912,945,974,996,1012,1025,1027,1031,1035,1043,1063,1072,1079],"ymouse":[532,532,532,532,532,532,532,532,532,532,532,532,532,532,532,532,532,532,532,532,532,527,514,501,480,458,398,349,306,266,233,201,193,187,179,165,124,104,85],"timestamp_mouse":[12,37,48,68,90,109,128,149,170,189,209,229,249,268,288,308,329,348,369,388,409,428,448,468,489,508,528,548,569,588,608,628,648,668,688,708,729,748,769],"xSR":741.5,"ySR":469.95,"xT1":424.9,"yT1":0,"xT2":1058.1,"yT2":0,"toosoon":0,"cond_shown":"equaldotsize","ratio_trial":250,"smaller_num":"2","larger_num":"8","correct_side":2,"subjID":"laurarobayo9","gender":"No_gender","age":"No_age","school":"No_school"},{"start_time":1551902197286,"click_time":1551902198477,"finger_time":1551902198196,"fix_duration":446.82384257512666,"trial":52,"RT":910,"MT":281,"sideResp":2,"stimulus":"img/750/equaldotsize/L/8_Ratio_750_L_4_R_3.png","xmouse":[794,794,794,794,794,794,794,794,794,794,794,794,794,794,794,794,794,794,794,794,794,794,794,794,794,794,794,794,794,794,794,794,794,794,794,794,794,794,794,794,794,794,803,817,834,866,888,910,936,964,1021,1034,1044,1050,1057,1065,1075,1081,1088,1092],"ymouse":[542,542,542,542,542,542,542,542,542,542,542,542,542,542,542,542,542,542,542,542,542,542,542,542,542,542,542,542,542,542,542,542,542,542,542,542,542,542,542,542,542,542,536,523,510,472,448,423,389,350,259,236,217,203,187,170,138,120,102,88],"timestamp_mouse":[11,36,50,70,90,111,130,150,170,190,210,230,250,270,290,310,330,351,370,391,410,430,450,471,490,510,531,550,570,590,610,631,651,670,690,712,730,750,770,790,810,830,850,870,890,910,931,951,971,991,1012,1031,1050,1070,1090,1110,1130,1150,1170,1191],"xSR":741.5,"ySR":469.95,"xT1":424.9,"yT1":0,"xT2":1058.1,"yT2":0,"toosoon":0,"cond_shown":"equaldotsize","ratio_trial":750,"smaller_num":"3","larger_num":"4","correct_side":1,"subjID":"laurarobayo9","gender":"No_gender","age":"No_age","school":"No_school"},{"start_time":1551902201107,"click_time":1551902202996,"finger_time":1551902201837,"fix_duration":250,"trial":53,"RT":730,"MT":1159,"sideResp":2,"stimulus":"img/900/equaldotsize/R/7_Ratio_900_L_9_R_10.png","xmouse":[751,751,751,751,751,753,753,755,755,756,756,756,756,756,756,756,756,756,756,756,756,756,756,756,756,756,756,756,756,756,756,756,756,756,756,749,738,716,684,644,623,600,575,558,543,542,542,542,542,543,548,549,551,551,552,553,553,553,553,555,565,581,623,687,863,964,1057,1057,1057,1057,1057,1057,1057,1057,1057,1057,1057,1057,1057,1057,1057,1184,1182,1179,1178,1178,1178,1178,1178,1178,1178,1175,1169,1161,1153],"ymouse":[548,548,548,548,548,546,546,545,544,544,544,544,544,544,544,544,544,544,544,544,544,544,544,544,544,544,544,544,544,544,544,544,544,541,534,506,482,454,420,386,371,356,340,330,321,320,320,319,319,316,311,306,301,294,288,284,283,283,282,282,277,268,243,207,107,51,3,3,3,3,3,3,3,3,3,3,3,3,3,3,3,4,9,12,14,15,15,15,15,15,15,18,26,37,50],"timestamp_mouse":[12,34,50,69,89,109,129,149,169,189,209,230,249,270,289,310,331,349,369,389,409,430,449,471,489,510,529,549,569,589,609,629,649,669,689,709,730,749,769,790,809,829,849,869,891,909,930,949,970,989,1009,1029,1050,1069,1089,1109,1130,1149,1169,1189,1210,1229,1249,1269,1290,1309,1330,1349,1370,1391,1409,1429,1449,1469,1489,1510,1529,1549,1569,1589,1609,1630,1649,1669,1691,1709,1729,1749,1769,1790,1809,1829,1850,1869,1889],"xSR":741.5,"ySR":469.95,"xT1":424.9,"yT1":0,"xT2":1058.1,"yT2":0,"toosoon":0,"cond_shown":"equaldotsize","ratio_trial":900,"smaller_num":"9","larger_num":"10","correct_side":2,"subjID":"laurarobayo9","gender":"No_gender","age":"No_age","school":"No_school"},{"start_time":1551902204897,"click_time":1551902206638,"finger_time":1551902206018,"fix_duration":1079.2866521424132,"trial":54,"RT":1121,"MT":620,"sideResp":1,"stimulus":"img/750/randomdotsizeEA/L/8_Ratio_750_L_4_R_3.png","xmouse":[770,770,770,770,770,770,770,770,770,770,770,770,770,770,770,770,770,770,770,770,770,770,770,770,770,770,770,770,770,770,770,770,770,770,770,770,770,770,770,770,770,770,770,770,770,770,770,770,770,770,770,770,770,770,770,770,727,680,648,636,634,636,643,643,643,643,643,643,643,643,632,580,550,530,521,517,513,512,512,512,512,512,512,512,512,511,509,502],"ymouse":[528,528,528,528,528,528,528,528,528,528,528,528,528,528,528,528,528,528,528,528,528,528,528,528,528,528,528,528,528,528,528,528,528,528,528,528,528,528,528,528,528,528,528,528,528,528,528,528,528,528,528,528,528,528,526,517,452,388,335,300,283,275,271,271,271,271,271,271,270,265,250,197,168,150,139,131,120,119,119,119,119,119,119,119,119,118,111,97],"timestamp_mouse":[1,29,40,60,80,99,120,139,159,179,200,219,239,259,280,299,319,340,360,380,400,420,440,460,480,500,521,540,560,580,600,620,640,660,680,700,721,741,761,780,800,820,841,860,881,900,920,940,961,980,1000,1020,1041,1061,1081,1101,1121,1140,1160,1181,1200,1220,1240,1260,1280,1300,1320,1340,1360,1380,1400,1420,1441,1461,1481,1501,1521,1541,1560,1581,1600,1620,1640,1661,1681,1700,1720,1740],"xSR":741.5,"ySR":469.95,"xT1":424.9,"yT1":0,"xT2":1058.1,"yT2":0,"toosoon":0,"cond_shown":"randomdotsizeEA","ratio_trial":750,"smaller_num":"3","larger_num":"4","correct_side":1,"subjID":"laurarobayo9","gender":"No_gender","age":"No_age","school":"No_school"},{"start_time":1551902208024,"click_time":1551902209077,"finger_time":1551902208779,"fix_duration":305.1868700697493,"trial":55,"RT":755,"MT":298,"sideResp":1,"stimulus":"img/900/equaldotsize/L/1_Ratio_900_L_10_R_9.png","xmouse":[791,791,791,791,791,791,791,791,791,791,791,791,791,791,791,791,791,791,791,791,791,791,791,791,791,791,791,791,791,791,791,791,791,791,789,787,781,770,744,700,675,654,640,630,622,605,594,578,554,536,524,524,524],"ymouse":[497,497,497,497,497,497,497,497,497,497,497,497,497,497,497,497,497,497,497,497,497,497,497,497,497,497,497,497,497,497,497,497,497,497,494,487,472,456,426,376,348,326,311,299,288,266,250,227,186,154,116,105,98],"timestamp_mouse":[13,37,53,73,93,114,133,154,174,194,213,234,254,273,293,313,333,353,374,393,413,433,454,474,494,514,535,555,574,595,614,635,654,675,694,714,735,755,774,794,815,833,854,874,894,913,933,953,973,993,1013,1033,1053],"xSR":741.5,"ySR":469.95,"xT1":424.9,"yT1":0,"xT2":1058.1,"yT2":0,"toosoon":0,"cond_shown":"equaldotsize","ratio_trial":900,"smaller_num":"9","larger_num":"10","correct_side":1,"subjID":"laurarobayo9","gender":"No_gender","age":"No_age","school":"No_school"},{"start_time":1551902212853,"click_time":1551902213937,"finger_time":1551902213597,"fix_duration":1394.6381126528665,"trial":56,"RT":744,"MT":340,"sideResp":2,"stimulus":"img/250/equaldotanddens/R/13_Ratio_250_L_2_R_8.png","xmouse":[826,826,825,825,825,825,825,825,825,825,825,825,825,825,825,825,825,825,825,825,825,825,825,825,825,825,825,825,825,825,825,825,825,825,825,825,833,853,867,919,936,950,959,969,980,983,984,985,986,991,1000,1017,1033,1048,1065],"ymouse":[512,512,513,513,513,513,513,513,513,513,513,513,513,513,513,513,513,513,513,513,513,513,513,513,513,513,513,513,513,513,513,513,513,513,513,513,504,481,459,357,304,258,233,212,194,188,186,185,184,178,168,152,136,120,93],"timestamp_mouse":[11,28,44,64,84,104,125,144,164,184,204,224,244,264,285,305,324,344,365,384,404,426,445,465,485,505,526,545,565,585,605,626,645,665,684,704,724,744,764,784,804,824,844,864,884,905,924,945,964,985,1005,1024,1044,1064,1084],"xSR":741.5,"ySR":469.95,"xT1":424.9,"yT1":0,"xT2":1058.1,"yT2":0,"toosoon":0,"cond_shown":"equaldotanddens","ratio_trial":250,"smaller_num":"2","larger_num":"8","correct_side":2,"subjID":"laurarobayo9","gender":"No_gender","age":"No_age","school":"No_school"},{"start_time":1551902215289,"click_time":1551902216698,"finger_time":1551902215958,"fix_duration":250,"trial":57,"RT":669,"MT":740,"sideResp":1,"stimulus":"img/250/randomdotsizeEA/L/14_Ratio_250_L_12_R_3.png","xmouse":[778,778,778,778,778,778,778,778,778,778,778,778,778,778,778,778,778,778,778,778,778,778,778,778,778,778,778,778,778,778,775,771,752,736,723,701,655,590,518,512,510,510,512,514,518,521,525,530,546,552,554,554,544,537,535,533,533,533,533,533,533,533,533,533,533,533,533,533,531,527,503],"ymouse":[548,548,548,548,548,548,548,548,548,548,548,548,548,548,548,548,548,548,548,548,548,548,548,548,548,548,548,548,548,548,540,531,503,483,464,432,391,350,293,282,279,274,269,266,261,257,252,245,214,196,173,147,81,70,66,65,65,65,65,65,65,65,65,65,65,65,65,65,65,65,67],"timestamp_mouse":[9,37,49,69,88,108,128,148,168,188,209,229,249,268,288,308,328,348,368,388,408,429,449,469,489,508,528,548,568,588,608,629,648,669,688,708,728,748,768,788,808,828,849,868,888,909,928,949,968,988,1009,1028,1049,1069,1089,1109,1129,1150,1169,1189,1209,1228,1248,1268,1289,1308,1328,1349,1368,1389,1409],"xSR":741.5,"ySR":469.95,"xT1":424.9,"yT1":0,"xT2":1058.1,"yT2":0,"toosoon":0,"cond_shown":"randomdotsizeEA","ratio_trial":250,"smaller_num":"3","larger_num":"12","correct_side":1,"subjID":"laurarobayo9","gender":"No_gender","age":"No_age","school":"No_school"},{"start_time":1551902218328,"click_time":1551902219698,"finger_time":1551902219038,"fix_duration":570.191063935651,"trial":58,"RT":710,"MT":660,"sideResp":2,"stimulus":"img/750/equaldotanddens/R/2_Ratio_750_L_6_R_8.png","xmouse":[769,769,769,769,769,769,769,769,769,769,769,769,769,769,769,769,769,769,769,769,769,769,769,769,769,769,769,769,769,769,770,773,776,780,787,811,824,845,871,932,980,1071,1106,1141,1176,1214,1214,1214,1214,1214,1214,1214,1214,1214,1214,1214,1214,1214,1214,1173,1170,1167,1166,1164,1164,1164,1163,1161,1154],"ymouse":[494,494,494,494,494,494,494,494,494,494,494,494,494,494,494,494,494,494,494,494,494,494,494,494,494,494,494,494,494,494,494,492,487,483,473,447,430,404,376,325,282,205,160,118,69,11,11,11,11,11,11,11,11,11,11,11,11,11,11,1,3,6,8,11,11,11,12,14,22],"timestamp_mouse":[9,37,49,71,91,110,129,149,169,189,209,229,250,269,289,309,329,350,369,389,409,429,449,469,489,509,529,549,569,589,609,629,650,671,690,710,729,749,769,789,809,829,849,869,889,910,929,950,969,989,1010,1030,1051,1070,1089,1109,1130,1149,1169,1189,1209,1230,1249,1269,1289,1311,1329,1349,1370],"xSR":741.5,"ySR":469.95,"xT1":424.9,"yT1":0,"xT2":1058.1,"yT2":0,"toosoon":0,"cond_shown":"equaldotanddens","ratio_trial":750,"smaller_num":"6","larger_num":"8","correct_side":2,"subjID":"laurarobayo9","gender":"No_gender","age":"No_age","school":"No_school"},{"start_time":1551902220823,"click_time":1551902222017,"finger_time":1551902221517,"fix_duration":382.5715430655776,"trial":59,"RT":694,"MT":500,"sideResp":1,"stimulus":"img/900/equaldotsize/L/2_Ratio_900_L_20_R_18.png","xmouse":[764,764,764,764,764,764,764,764,764,764,764,764,764,764,764,764,764,764,764,764,764,764,764,764,764,764,764,764,764,764,764,764,761,754,726,676,576,557,549,545,543,532,513,495,480,471,461,461,461,461,461,461,461,462,463,463,468,472,475,477],"ymouse":[535,535,535,535,535,535,535,535,535,535,535,535,535,535,535,535,535,535,535,535,535,535,535,535,535,535,535,535,535,535,535,535,531,509,472,413,313,291,279,273,268,255,235,212,192,175,159,159,159,159,159,158,156,154,152,151,139,122,102,78],"timestamp_mouse":[18,37,55,75,95,115,134,154,175,194,214,234,254,275,294,316,334,355,375,395,415,434,455,474,495,514,534,555,576,595,614,634,654,674,694,714,735,754,774,794,815,834,856,874,894,914,934,954,974,994,1014,1035,1055,1074,1094,1114,1134,1154,1174,1194],"xSR":741.5,"ySR":469.95,"xT1":424.9,"yT1":0,"xT2":1058.1,"yT2":0,"toosoon":0,"cond_shown":"equaldotsize","ratio_trial":900,"smaller_num":"18","larger_num":"20","correct_side":1,"subjID":"laurarobayo9","gender":"No_gender","age":"No_age","school":"No_school"},{"start_time":1551902223566,"click_time":1551902224257,"finger_time":1551902224017,"fix_duration":687.4396800642576,"trial":60,"RT":451,"MT":240,"sideResp":2,"stimulus":"img/750/equaldotsize/R/3_Ratio_750_L_15_R_20.png","xmouse":[814,814,814,814,814,814,814,814,814,814,814,814,814,814,814,814,814,814,817,827,832,839,851,862,896,907,922,936,954,980,992,1003,1022,1053,1104],"ymouse":[500,500,500,500,500,500,500,500,500,500,500,500,500,500,500,500,500,500,500,495,493,489,481,473,441,428,409,392,368,325,298,263,219,149,17],"timestamp_mouse":[14,35,52,72,91,112,131,151,171,191,212,231,252,271,292,311,331,351,371,391,411,431,451,472,492,512,531,551,571,593,611,632,651,672,691],"xSR":741.5,"ySR":469.95,"xT1":424.9,"yT1":0,"xT2":1058.1,"yT2":0,"toosoon":0,"cond_shown":"equaldotsize","ratio_trial":750,"smaller_num":"15","larger_num":"20","correct_side":2,"subjID":"laurarobayo9","gender":"No_gender","age":"No_age","school":"No_school"},{"start_time":1551902227485,"click_time":1551902228398,"finger_time":1551902228297,"fix_duration":905.1744397443925,"trial":61,"RT":812,"MT":101,"sideResp":1,"stimulus":"img/500/equaldotanddens/L/10_Ratio_500_L_4_R_2.png","xmouse":[792,792,792,792,792,792,792,792,792,792,792,792,792,792,792,792,792,792,792,792,792,792,792,792,792,790,785,781,780,780,780,780,780,780,780,780,780,780,776,749,723,689,655,609,534,506],"ymouse":[537,537,537,537,537,537,537,537,537,537,537,537,537,537,537,537,537,537,537,537,537,537,537,537,535,532,526,522,521,521,521,521,521,521,521,521,521,520,512,473,437,381,312,232,87,34],"timestamp_mouse":[19,37,53,73,92,112,132,152,172,193,213,233,253,272,292,312,333,352,373,392,412,432,452,473,492,512,532,552,572,592,612,632,652,672,693,712,732,753,772,792,812,833,853,873,893,913],"xSR":741.5,"ySR":469.95,"xT1":424.9,"yT1":0,"xT2":1058.1,"yT2":0,"toosoon":0,"cond_shown":"equaldotanddens","ratio_trial":500,"smaller_num":"2","larger_num":"4","correct_side":1,"subjID":"laurarobayo9","gender":"No_gender","age":"No_age","school":"No_school"},{"start_time":1551902229849,"click_time":1551902231317,"finger_time":1551902230557,"fix_duration":250,"trial":62,"RT":708,"MT":760,"sideResp":1,"stimulus":"img/500/randomdotsizeEA/L/8_Ratio_500_L_8_R_4.png","xmouse":[779,779,779,779,779,779,779,779,779,779,779,779,779,779,779,779,779,779,779,779,779,779,779,779,779,779,779,779,779,779,779,779,780,785,794,801,806,806,806,806,806,806,806,806,806,806,806,806,806,803,801,779,766,750,733,715,628,532,474,438,431,430,432,432,432,432,432,433,436,442,447,463,470,473],"ymouse":[478,478,478,478,478,478,478,478,478,478,478,478,478,478,478,478,478,478,478,478,478,478,478,478,478,478,478,478,478,478,478,478,478,478,472,468,465,465,465,465,465,465,465,465,465,465,465,465,465,465,466,472,475,475,475,469,413,332,265,218,197,187,185,185,185,185,185,183,179,170,158,126,110,97],"timestamp_mouse":[8,28,49,68,89,108,129,149,168,188,208,228,249,268,288,308,329,348,368,389,408,429,449,469,489,509,529,550,569,588,609,629,648,668,688,708,729,749,768,788,809,829,849,868,889,909,929,949,969,989,1008,1028,1048,1068,1088,1109,1128,1149,1168,1188,1208,1228,1248,1269,1289,1309,1329,1349,1369,1388,1409,1428,1448,1468],"xSR":741.5,"ySR":469.95,"xT1":424.9,"yT1":0,"xT2":1058.1,"yT2":0,"toosoon":0,"cond_shown":"randomdotsizeEA","ratio_trial":500,"smaller_num":"4","larger_num":"8","correct_side":1,"subjID":"laurarobayo9","gender":"No_gender","age":"No_age","school":"No_school"},{"start_time":1551902232958,"click_time":1551902233997,"finger_time":1551902233497,"fix_duration":619.4228990834905,"trial":63,"RT":539,"MT":500,"sideResp":1,"stimulus":"img/750/equaldotanddens/L/14_Ratio_750_L_8_R_6.png","xmouse":[772,772,772,772,772,772,772,772,772,772,772,772,772,772,772,772,772,772,772,772,772,772,772,772,772,772,767,749,729,709,696,671,664,655,645,637,628,601,589,575,559,533,528,528,528,528,528,528,527,519,512,500,492],"ymouse":[484,484,484,484,484,484,484,484,484,484,484,484,484,484,484,484,484,484,484,484,484,484,484,484,484,483,470,451,432,414,402,371,358,347,336,325,316,279,258,232,208,160,150,149,149,149,149,149,146,135,127,101,86],"timestamp_mouse":[1,29,39,60,79,99,119,139,159,179,199,219,239,259,279,299,320,340,360,380,400,419,439,459,480,499,519,539,559,579,599,620,639,659,679,699,720,739,760,780,801,820,841,860,880,900,920,940,960,980,1000,1020,1039],"xSR":741.5,"ySR":469.95,"xT1":424.9,"yT1":0,"xT2":1058.1,"yT2":0,"toosoon":0,"cond_shown":"equaldotanddens","ratio_trial":750,"smaller_num":"6","larger_num":"8","correct_side":1,"subjID":"laurarobayo9","gender":"No_gender","age":"No_age","school":"No_school"},{"start_time":1551902235958,"click_time":1551902237237,"finger_time":1551902236778,"fix_duration":979.2526638982157,"trial":64