[{"start_time":1551899635078,"click_time":1551899636163,"finger_time":1551899635742,"fix_duration":250,"trial":0,"RT":664,"MT":421,"sideResp":1,"stimulus":[],"xmouse":[802,802,802,802,802,802,802,802,802,802,802,802,802,802,802,802,802,802,802,802,802,802,802,802,802,802,802,802,802,802,802,802,790,758,710,670,659,659,659,659,659,659,659,659,659,659,658,601,558,537,532,532,529,525,522],"ymouse":[542,542,542,542,542,542,542,542,542,542,542,542,542,542,542,542,542,542,542,542,542,542,542,542,542,542,542,542,542,542,542,543,501,400,295,213,193,193,193,193,193,193,193,193,193,193,192,127,74,50,43,43,42,39,39],"timestamp_mouse":[9,24,49,64,84,104,124,144,164,184,204,224,244,264,284,304,325,344,364,384,404,424,444,464,484,504,524,544,564,584,605,624,644,664,684,704,724,745,764,785,805,824,844,864,884,904,924,944,964,984,1004,1025,1044,1064,1085],"xSR":741.5,"ySR":501.8,"xT1":424.9,"yT1":0,"xT2":1058.1,"yT2":0,"toosoon":0,"cond_shown":"Incongruent","ratio_trial":200,"L_num":11,"L_den":20,"R_num":3,"R_den":4,"correct_side":2,"subjID":"lauracatalinaacosta5","gender":"1","age":"10","school":"6","test":{"fix_dur":[250,1500],"timestim":1000,"targets_dim":[100,100],"targets_relative_coord":[0.3,0.7],"size_stim":[880,420],"start_dim":[100,100],"size_start":[300,300],"size_fix":60,"samplingrate":20,"img_types":["Congruent","Incongruent"],"ratios":[100,200,300],"rep_conds":19,"nTrials":120,"trials_to_rest":500,"Trials_order":[81,89,108,105,28,85,57,14,58,12,50,54,24,65,113,59,33,91,83,9,114,117,22,37,71,55,60,62,93,84,21,116,43,49,35,96,104,97,101,74,53,87,30,68,52,4,107,90,0,47,8,103,80,75,98,46,110,34,51,78,118,10,15,45,38,29,82,73,6,40,109,48,39,94,13,63,25,100,92,76,16,66,26,86,64,61,102,70,67,112,44,88,95,27,111,19,77,36,56,20,5,69,18,106,41,1,31,32,7,23,119,11,72,17,42,79,3,99,115,2],"cond_shown":["Incongruent","Incongruent","Congruent","Incongruent","Congruent","Incongruent","Incongruent","Congruent","Congruent","Congruent","Congruent","Congruent","Congruent","Incongruent","Incongruent","Incongruent","Incongruent","Incongruent","Incongruent","Incongruent","Congruent","Incongruent","Congruent","Incongruent","Incongruent","Incongruent","Congruent","Congruent","Incongruent","Congruent","Incongruent","Congruent","Incongruent","Incongruent","Incongruent","Congruent","Congruent","Incongruent","Incongruent","Congruent","Incongruent","Incongruent","Congruent","Congruent","Congruent","Congruent","Incongruent","Congruent","Congruent","Incongruent","Congruent","Incongruent","Congruent","Incongruent","Congruent","Congruent","Congruent","Congruent","Incongruent","Congruent","Congruent","Congruent","Incongruent","Incongruent","Congruent","Incongruent","Congruent","Incongruent","Congruent","Congruent","Incongruent","Congruent","Incongruent","Congruent","Incongruent","Incongruent","Incongruent","Congruent","Congruent","Congruent","Congruent","Congruent","Congruent","Congruent","Congruent","Incongruent","Congruent","Congruent","Incongruent","Congruent","Congruent","Congruent","Incongruent","Incongruent","Incongruent","Incongruent","Incongruent","Congruent","Congruent","Congruent","Incongruent","Incongruent","Congruent","Congruent","Incongruent","Incongruent","Incongruent","Congruent","Incongruent","Incongruent","Incongruent","Incongruent","Congruent","Incongruent","Congruent","Incongruent","Incongruent","Incongruent","Incongruent","Congruent"],"ratio_trial":[200,300,100,200,300,100,200,200,300,100,200,100,100,300,300,300,200,100,300,200,100,200,300,100,300,100,100,200,200,100,200,200,100,100,300,100,200,100,300,200,300,200,100,200,300,300,300,100,100,300,200,100,200,200,200,300,200,300,200,100,300,300,200,200,200,300,300,100,100,300,100,100,200,300,100,200,100,300,200,300,300,100,200,200,300,100,100,300,100,300,200,300,300,200,200,100,300,100,200,200,300,200,100,300,300,100,100,200,100,300,300,300,100,300,100,100,200,200,100,200],"left_num":[11,1,2,14,1,12,9,3,1,4,4,9,2,4,13,8,7,3,13,7,9,4,24,12,4,3,15,13,7,15,4,3,3,12,13,2,8,6,13,5,4,7,4,3,20,1,1,4,15,4,16,1,13,7,6,3,4,18,14,7,11,8,11,7,3,8,20,9,4,1,9,2,4,1,9,4,3,7,6,1,12,12,4,4,4,12,3,8,6,5,3,20,7,7,3,12,4,2,4,12,2,1,1,8,4,6,2,6,2,8,4,13,9,13,3,6,1,14,4,3],"right_num":[3,2,6,12,7,9,8,14,8,15,3,8,6,2,12,14,6,7,12,8,8,14,2,9,2,11,13,14,6,13,6,14,8,9,12,6,3,7,12,14,2,12,15,14,14,7,2,15,13,2,9,8,14,8,3,11,3,9,12,9,2,10,3,12,7,14,13,6,15,3,13,11,6,6,13,14,8,20,11,3,2,13,3,3,13,9,4,10,13,7,14,5,8,6,11,2,8,6,3,6,6,3,18,1,2,11,8,11,8,9,2,12,8,12,4,11,2,6,8,7],"left_den":[20,2,5,30,20,24,15,10,30,10,8,15,5,20,26,10,15,9,26,10,15,6,30,24,20,5,25,26,15,25,5,6,5,24,26,5,15,10,26,10,20,10,10,10,25,20,2,10,25,20,30,2,26,10,15,12,8,20,30,14,22,15,20,10,10,10,25,18,10,5,15,5,5,5,15,6,5,14,20,5,24,30,10,10,20,24,20,15,10,25,10,25,10,15,4,30,5,5,10,20,4,2,2,16,20,10,4,20,4,10,20,26,15,26,20,10,3,30,8,10],"right_den":[4,10,12,18,20,15,10,28,24,30,10,16,12,4,15,28,9,30,15,16,16,30,4,15,4,22,26,20,9,26,10,20,16,15,15,12,9,14,15,20,4,24,30,28,28,20,10,30,26,4,27,20,20,16,15,20,10,15,18,15,10,12,4,24,14,28,26,10,30,6,26,22,10,12,26,30,16,25,22,6,10,26,15,15,26,15,16,12,26,14,28,10,20,9,20,4,16,12,15,15,30,10,30,5,4,22,20,22,20,18,4,15,16,15,16,22,15,9,20,14],"correct_side":[2,1,2,2,2,2,2,2,2,2,1,1,2,2,2,1,2,1,2,1,1,1,1,2,2,1,1,2,2,1,1,2,1,2,2,2,1,1,2,2,2,1,2,2,1,2,1,2,1,2,1,1,2,1,1,2,1,1,2,2,1,2,2,1,2,1,1,2,2,2,1,2,1,2,1,1,1,2,2,2,1,2,1,1,2,2,2,2,1,2,2,1,1,2,1,2,1,2,1,1,1,1,2,1,2,1,1,2,1,1,2,2,1,2,2,1,1,2,1,2],"img_shown":["img2/200/Incongruent/R/I_Dist_200_LN_11_LD_20_RN_3_RD_4_1.png","img2/300/Incongruent/L/I_Dist_300_LN_1_LD_2_RN_2_RD_10_0.png","img2/100/Congruent/R/C_Dist_100_LN_2_LD_5_RN_6_RD_12_1.png","img2/200/Incongruent/R/I_Dist_200_LN_14_LD_30_RN_12_RD_18_1.png","img2/300/Congruent/R/C_Dist_300_LN_1_LD_20_RN_7_RD_20_1.png","img2/100/Incongruent/R/I_Dist_100_LN_12_LD_24_RN_9_RD_15_1.png","img2/200/Incongruent/R/I_Dist_200_LN_9_LD_15_RN_8_RD_10_1.png","img2/200/Congruent/R/C_Dist_200_LN_3_LD_10_RN_14_RD_28_1.png","img2/300/Congruent/R/C_Dist_300_LN_1_LD_30_RN_8_RD_24_1.png","img2/100/Congruent/R/C_Dist_100_LN_4_LD_10_RN_15_RD_30_1.png","img2/200/Congruent/L/C_Dist_200_LN_4_LD_8_RN_3_RD_10_0.png","img2/100/Congruent/L/C_Dist_100_LN_9_LD_15_RN_8_RD_16_0.png","img2/100/Congruent/R/C_Dist_100_LN_2_LD_5_RN_6_RD_12_1.png","img2/300/Incongruent/R/I_Dist_300_LN_4_LD_20_RN_2_RD_4_1.png","img2/300/Incongruent/R/I_Dist_300_LN_13_LD_26_RN_12_RD_15_1.png","img2/300/Incongruent/L/I_Dist_300_LN_8_LD_10_RN_14_RD_28_0.png","img2/200/Incongruent/R/I_Dist_200_LN_7_LD_15_RN_6_RD_9_1.png","img2/100/Incongruent/L/I_Dist_100_LN_3_LD_9_RN_7_RD_30_0.png","img2/300/Incongruent/R/I_Dist_300_LN_13_LD_26_RN_12_RD_15_1.png","img2/200/Incongruent/L/I_Dist_200_LN_7_LD_10_RN_8_RD_16_0.png","img2/100/Congruent/L/C_Dist_100_LN_9_LD_15_RN_8_RD_16_0.png","img2/200/Incongruent/L/I_Dist_200_LN_4_LD_6_RN_14_RD_30_0.png","img2/300/Congruent/L/C_Dist_300_LN_24_LD_30_RN_2_RD_4_0.png","img2/100/Incongruent/R/I_Dist_100_LN_12_LD_24_RN_9_RD_15_1.png","img2/300/Incongruent/R/I_Dist_300_LN_4_LD_20_RN_2_RD_4_1.png","img2/100/Incongruent/L/I_Dist_100_LN_3_LD_5_RN_11_RD_22_0.png","img2/100/Congruent/L/C_Dist_100_LN_15_LD_25_RN_13_RD_26_0.png","img2/200/Congruent/R/C_Dist_200_LN_13_LD_26_RN_14_RD_20_1.png","img2/200/Incongruent/R/I_Dist_200_LN_7_LD_15_RN_6_RD_9_1.png","img2/100/Congruent/L/C_Dist_100_LN_15_LD_25_RN_13_RD_26_0.png","img2/200/Incongruent/L/I_Dist_200_LN_4_LD_5_RN_6_RD_10_0.png","img2/200/Congruent/R/C_Dist_200_LN_3_LD_6_RN_14_RD_20_1.png","img2/100/Incongruent/L/I_Dist_100_LN_3_LD_5_RN_8_RD_16_0.png","img2/100/Incongruent/R/I_Dist_100_LN_12_LD_24_RN_9_RD_15_1.png","img2/300/Incongruent/R/I_Dist_300_LN_13_LD_26_RN_12_RD_15_1.png","img2/100/Congruent/R/C_Dist_100_LN_2_LD_5_RN_6_RD_12_1.png","img2/200/Congruent/L/C_Dist_200_LN_8_LD_15_RN_3_RD_9_0.png","img2/100/Incongruent/L/I_Dist_100_LN_6_LD_10_RN_7_RD_14_0.png","img2/300/Incongruent/R/I_Dist_300_LN_13_LD_26_RN_12_RD_15_1.png","img2/200/Congruent/R/C_Dist_200_LN_5_LD_10_RN_14_RD_20_1.png","img2/300/Incongruent/R/I_Dist_300_LN_4_LD_20_RN_2_RD_4_1.png","img2/200/Incongruent/L/I_Dist_200_LN_7_LD_10_RN_12_RD_24_0.png","img2/100/Congruent/R/C_Dist_100_LN_4_LD_10_RN_15_RD_30_1.png","img2/200/Congruent/R/C_Dist_200_LN_3_LD_10_RN_14_RD_28_1.png","img2/300/Congruent/L/C_Dist_300_LN_20_LD_25_RN_14_RD_28_0.png","img2/300/Congruent/R/C_Dist_300_LN_1_LD_20_RN_7_RD_20_1.png","img2/300/Incongruent/L/I_Dist_300_LN_1_LD_2_RN_2_RD_10_0.png","img2/100/Congruent/R/C_Dist_100_LN_4_LD_10_RN_15_RD_30_1.png","img2/100/Congruent/L/C_Dist_100_LN_15_LD_25_RN_13_RD_26_0.png","img2/300/Incongruent/R/I_Dist_300_LN_4_LD_20_RN_2_RD_4_1.png","img2/200/Congruent/L/C_Dist_200_LN_16_LD_30_RN_9_RD_27_0.png","img2/100/Incongruent/L/I_Dist_100_LN_1_LD_2_RN_8_RD_20_0.png","img2/200/Congruent/R/C_Dist_200_LN_13_LD_26_RN_14_RD_20_1.png","img2/200/Incongruent/L/I_Dist_200_LN_7_LD_10_RN_8_RD_16_0.png","img2/200/Congruent/L/C_Dist_200_LN_6_LD_15_RN_3_RD_15_0.png","img2/300/Congruent/R/C_Dist_300_LN_3_LD_12_RN_11_RD_20_1.png","img2/200/Congruent/L/C_Dist_200_LN_4_LD_8_RN_3_RD_10_0.png","img2/300/Congruent/L/C_Dist_300_LN_18_LD_20_RN_9_RD_15_0.png","img2/200/Incongruent/R/I_Dist_200_LN_14_LD_30_RN_12_RD_18_1.png","img2/100/Congruent/R/C_Dist_100_LN_7_LD_14_RN_9_RD_15_1.png","img2/300/Congruent/L/C_Dist_300_LN_11_LD_22_RN_2_RD_10_0.png","img2/300/Congruent/R/C_Dist_300_LN_8_LD_15_RN_10_RD_12_1.png","img2/200/Incongruent/R/I_Dist_200_LN_11_LD_20_RN_3_RD_4_1.png","img2/200/Incongruent/L/I_Dist_200_LN_7_LD_10_RN_12_RD_24_0.png","img2/200/Congruent/R/C_Dist_200_LN_3_LD_10_RN_7_RD_14_1.png","img2/300/Incongruent/L/I_Dist_300_LN_8_LD_10_RN_14_RD_28_0.png","img2/300/Congruent/L/C_Dist_300_LN_20_LD_25_RN_13_RD_26_0.png","img2/100/Incongruent/R/I_Dist_100_LN_9_LD_18_RN_6_RD_10_1.png","img2/100/Congruent/R/C_Dist_100_LN_4_LD_10_RN_15_RD_30_1.png","img2/300/Congruent/R/C_Dist_300_LN_1_LD_5_RN_3_RD_6_1.png","img2/100/Incongruent/L/I_Dist_100_LN_9_LD_15_RN_13_RD_26_0.png","img2/100/Congruent/R/C_Dist_100_LN_2_LD_5_RN_11_RD_22_1.png","img2/200/Incongruent/L/I_Dist_200_LN_4_LD_5_RN_6_RD_10_0.png","img2/300/Congruent/R/C_Dist_300_LN_1_LD_5_RN_6_RD_12_1.png","img2/100/Incongruent/L/I_Dist_100_LN_9_LD_15_RN_13_RD_26_0.png","img2/200/Incongruent/L/I_Dist_200_LN_4_LD_6_RN_14_RD_30_0.png","img2/100/Incongruent/L/I_Dist_100_LN_3_LD_5_RN_8_RD_16_0.png","img2/300/Congruent/R/C_Dist_300_LN_7_LD_14_RN_20_RD_25_1.png","img2/200/Congruent/R/C_Dist_200_LN_6_LD_20_RN_11_RD_22_1.png","img2/300/Congruent/R/C_Dist_300_LN_1_LD_5_RN_3_RD_6_1.png","img2/300/Congruent/L/C_Dist_300_LN_12_LD_24_RN_2_RD_10_0.png","img2/100/Congruent/R/C_Dist_100_LN_12_LD_30_RN_13_RD_26_1.png","img2/200/Congruent/L/C_Dist_200_LN_4_LD_10_RN_3_RD_15_0.png","img2/200/Congruent/L/C_Dist_200_LN_4_LD_10_RN_3_RD_15_0.png","img2/300/Congruent/R/C_Dist_300_LN_4_LD_20_RN_13_RD_26_1.png","img2/100/Incongruent/R/I_Dist_100_LN_12_LD_24_RN_9_RD_15_1.png","img2/100/Congruent/R/C_Dist_100_LN_3_LD_20_RN_4_RD_16_1.png","img2/300/Congruent/R/C_Dist_300_LN_8_LD_15_RN_10_RD_12_1.png","img2/100/Incongruent/L/I_Dist_100_LN_6_LD_10_RN_13_RD_26_0.png","img2/300/Congruent/R/C_Dist_300_LN_5_LD_25_RN_7_RD_14_1.png","img2/200/Congruent/R/C_Dist_200_LN_3_LD_10_RN_14_RD_28_1.png","img2/300/Congruent/L/C_Dist_300_LN_20_LD_25_RN_5_RD_10_0.png","img2/300/Incongruent/L/I_Dist_300_LN_7_LD_10_RN_8_RD_20_0.png","img2/200/Incongruent/R/I_Dist_200_LN_7_LD_15_RN_6_RD_9_1.png","img2/200/Incongruent/L/I_Dist_200_LN_3_LD_4_RN_11_RD_20_0.png","img2/100/Incongruent/R/I_Dist_100_LN_12_LD_30_RN_2_RD_4_1.png","img2/300/Incongruent/L/I_Dist_300_LN_4_LD_5_RN_8_RD_16_0.png","img2/100/Congruent/R/C_Dist_100_LN_2_LD_5_RN_6_RD_12_1.png","img2/200/Congruent/L/C_Dist_200_LN_4_LD_10_RN_3_RD_15_0.png","img2/200/Congruent/L/C_Dist_200_LN_12_LD_20_RN_6_RD_15_0.png","img2/300/Incongruent/L/I_Dist_300_LN_2_LD_4_RN_6_RD_30_0.png","img2/200/Incongruent/L/I_Dist_200_LN_1_LD_2_RN_3_RD_10_0.png","img2/100/Congruent/R/C_Dist_100_LN_1_LD_2_RN_18_RD_30_1.png","img2/300/Congruent/L/C_Dist_300_LN_8_LD_16_RN_1_RD_5_0.png","img2/300/Incongruent/R/I_Dist_300_LN_4_LD_20_RN_2_RD_4_1.png","img2/100/Incongruent/L/I_Dist_100_LN_6_LD_10_RN_11_RD_22_0.png","img2/100/Incongruent/L/I_Dist_100_LN_2_LD_4_RN_8_RD_20_0.png","img2/200/Congruent/R/C_Dist_200_LN_6_LD_20_RN_11_RD_22_1.png","img2/100/Incongruent/L/I_Dist_100_LN_2_LD_4_RN_8_RD_20_0.png","img2/300/Incongruent/L/I_Dist_300_LN_8_LD_10_RN_9_RD_18_0.png","img2/300/Incongruent/R/I_Dist_300_LN_4_LD_20_RN_2_RD_4_1.png","img2/300/Incongruent/R/I_Dist_300_LN_13_LD_26_RN_12_RD_15_1.png","img2/100/Congruent/L/C_Dist_100_LN_9_LD_15_RN_8_RD_16_0.png","img2/300/Incongruent/R/I_Dist_300_LN_13_LD_26_RN_12_RD_15_1.png","img2/100/Congruent/R/C_Dist_100_LN_3_LD_20_RN_4_RD_16_1.png","img2/100/Incongruent/L/I_Dist_100_LN_6_LD_10_RN_11_RD_22_0.png","img2/200/Incongruent/L/I_Dist_200_LN_1_LD_3_RN_2_RD_15_0.png","img2/200/Incongruent/R/I_Dist_200_LN_14_LD_30_RN_6_RD_9_1.png","img2/100/Incongruent/L/I_Dist_100_LN_4_LD_8_RN_8_RD_20_0.png","img2/200/Congruent/R/C_Dist_200_LN_3_LD_10_RN_7_RD_14_1.png"],"dist100_C":[["C_Dist_100_LN_10_LD_25_RN_3_RD_10_0.png","C_Dist_100_LN_11_LD_22_RN_4_RD_10_0.png","C_Dist_100_LN_11_LD_22_RN_6_RD_15_0.png","C_Dist_100_LN_15_LD_25_RN_13_RD_26_0.png","C_Dist_100_LN_3_LD_6_RN_2_RD_5_0.png","C_Dist_100_LN_6_LD_20_RN_5_RD_25_0.png","C_Dist_100_LN_8_LD_16_RN_2_RD_5_0.png","C_Dist_100_LN_9_LD_15_RN_8_RD_16_0.png"],["C_Dist_100_LN_1_LD_2_RN_18_RD_30_1.png","C_Dist_100_LN_1_LD_2_RN_3_RD_5_1.png","C_Dist_100_LN_12_LD_30_RN_13_RD_26_1.png","C_Dist_100_LN_2_LD_5_RN_11_RD_22_1.png","C_Dist_100_LN_2_LD_5_RN_6_RD_12_1.png","C_Dist_100_LN_3_LD_20_RN_4_RD_16_1.png","C_Dist_100_LN_4_LD_10_RN_15_RD_30_1.png","C_Dist_100_LN_4_LD_8_RN_6_RD_10_1.png","C_Dist_100_LN_6_LD_12_RN_15_RD_25_1.png","C_Dist_100_LN_7_LD_14_RN_15_RD_25_1.png","C_Dist_100_LN_7_LD_14_RN_9_RD_15_1.png"]],"dist100_I":[["I_Dist_100_LN_1_LD_2_RN_8_RD_20_0.png","I_Dist_100_LN_2_LD_4_RN_6_RD_15_0.png","I_Dist_100_LN_2_LD_4_RN_8_RD_20_0.png","I_Dist_100_LN_3_LD_5_RN_11_RD_22_0.png","I_Dist_100_LN_3_LD_5_RN_8_RD_16_0.png","I_Dist_100_LN_3_LD_6_RN_4_RD_10_0.png","I_Dist_100_LN_3_LD_9_RN_7_RD_30_0.png","I_Dist_100_LN_4_LD_8_RN_8_RD_20_0.png","I_Dist_100_LN_6_LD_10_RN_11_RD_22_0.png","I_Dist_100_LN_6_LD_10_RN_13_RD_26_0.png","I_Dist_100_LN_6_LD_10_RN_7_RD_14_0.png","I_Dist_100_LN_9_LD_10_RN_20_RD_25_0.png","I_Dist_100_LN_9_LD_15_RN_13_RD_26_0.png","I_Dist_100_LN_9_LD_15_RN_14_RD_28_0.png"],["I_Dist_100_LN_10_LD_25_RN_8_RD_16_1.png","I_Dist_100_LN_10_LD_25_RN_9_RD_18_1.png","I_Dist_100_LN_11_LD_22_RN_9_RD_15_1.png","I_Dist_100_LN_12_LD_24_RN_9_RD_15_1.png","I_Dist_100_LN_12_LD_30_RN_2_RD_4_1.png","I_Dist_100_LN_13_LD_26_RN_12_RD_20_1.png","I_Dist_100_LN_13_LD_26_RN_6_RD_10_1.png","I_Dist_100_LN_17_LD_30_RN_10_RD_15_1.png","I_Dist_100_LN_6_LD_12_RN_3_RD_5_1.png","I_Dist_100_LN_8_LD_16_RN_6_RD_10_1.png","I_Dist_100_LN_8_LD_20_RN_1_RD_2_1.png","I_Dist_100_LN_9_LD_18_RN_6_RD_10_1.png"]],"dist100_S":[["E_Dist_100_LN_2_LD_12_RN_2_RD_30_0.png","E_Dist_100_LN_6_LD_10_RN_6_RD_12_0.png"],["E_Dist_100_LN_6_LD_12_RN_6_RD_10_1.png"]],"dist200_C":[["C_Dist_200_LN_11_LD_22_RN_3_RD_10_0.png","C_Dist_200_LN_12_LD_15_RN_6_RD_10_0.png","C_Dist_200_LN_12_LD_20_RN_6_RD_15_0.png","C_Dist_200_LN_14_LD_28_RN_6_RD_20_0.png","C_Dist_200_LN_15_LD_25_RN_4_RD_10_0.png","C_Dist_200_LN_16_LD_20_RN_12_RD_20_0.png","C_Dist_200_LN_16_LD_30_RN_9_RD_27_0.png","C_Dist_200_LN_20_LD_25_RN_9_RD_15_0.png","C_Dist_200_LN_21_LD_30_RN_2_RD_4_0.png","C_Dist_200_LN_4_LD_10_RN_3_RD_15_0.png","C_Dist_200_LN_4_LD_8_RN_3_RD_10_0.png","C_Dist_200_LN_6_LD_15_RN_3_RD_15_0.png","C_Dist_200_LN_7_LD_21_RN_2_RD_15_0.png","C_Dist_200_LN_8_LD_15_RN_2_RD_6_0.png","C_Dist_200_LN_8_LD_15_RN_3_RD_9_0.png","C_Dist_200_LN_8_LD_15_RN_7_RD_21_0.png","C_Dist_200_LN_9_LD_20_RN_4_RD_16_0.png"],["C_Dist_200_LN_1_LD_2_RN_21_RD_30_1.png","C_Dist_200_LN_13_LD_26_RN_14_RD_20_1.png","C_Dist_200_LN_3_LD_10_RN_11_RD_22_1.png","C_Dist_200_LN_3_LD_10_RN_14_RD_28_1.png","C_Dist_200_LN_3_LD_10_RN_7_RD_14_1.png","C_Dist_200_LN_3_LD_12_RN_9_RD_20_1.png","C_Dist_200_LN_3_LD_6_RN_14_RD_20_1.png","C_Dist_200_LN_5_LD_10_RN_14_RD_20_1.png","C_Dist_200_LN_6_LD_12_RN_7_RD_10_1.png","C_Dist_200_LN_6_LD_20_RN_11_RD_22_1.png","C_Dist_200_LN_7_LD_15_RN_18_RD_27_1.png","C_Dist_200_LN_9_LD_30_RN_13_RD_26_1.png"]],"dist200_I":[["I_Dist_200_LN_1_LD_2_RN_3_RD_10_0.png","I_Dist_200_LN_1_LD_3_RN_2_RD_15_0.png","I_Dist_200_LN_3_LD_4_RN_11_RD_20_0.png","I_Dist_200_LN_4_LD_5_RN_6_RD_10_0.png","I_Dist_200_LN_4_LD_6_RN_14_RD_30_0.png","I_Dist_200_LN_7_LD_10_RN_12_RD_24_0.png","I_Dist_200_LN_7_LD_10_RN_14_RD_28_0.png","I_Dist_200_LN_7_LD_10_RN_8_RD_16_0.png"],["I_Dist_200_LN_11_LD_20_RN_3_RD_4_1.png","I_Dist_200_LN_14_LD_30_RN_12_RD_18_1.png","I_Dist_200_LN_14_LD_30_RN_6_RD_9_1.png","I_Dist_200_LN_3_LD_10_RN_1_RD_2_1.png","I_Dist_200_LN_4_LD_30_RN_1_RD_3_1.png","I_Dist_200_LN_6_LD_20_RN_3_RD_6_1.png","I_Dist_200_LN_7_LD_15_RN_4_RD_6_1.png","I_Dist_200_LN_7_LD_15_RN_6_RD_9_1.png","I_Dist_200_LN_9_LD_15_RN_8_RD_10_1.png"]],"dist200_S":[["E_Dist_200_LN_3_LD_6_RN_3_RD_10_0.png"],["E_Dist_200_LN_3_LD_10_RN_3_RD_6_1.png"]],"dist300_C":[["C_Dist_300_LN_11_LD_22_RN_1_RD_5_0.png","C_Dist_300_LN_11_LD_22_RN_2_RD_10_0.png","C_Dist_300_LN_11_LD_22_RN_4_RD_20_0.png","C_Dist_300_LN_12_LD_24_RN_2_RD_10_0.png","C_Dist_300_LN_18_LD_20_RN_9_RD_15_0.png","C_Dist_300_LN_20_LD_25_RN_13_RD_26_0.png","C_Dist_300_LN_20_LD_25_RN_14_RD_28_0.png","C_Dist_300_LN_20_LD_25_RN_5_RD_10_0.png","C_Dist_300_LN_20_LD_25_RN_8_RD_16_0.png","C_Dist_300_LN_20_LD_25_RN_9_RD_18_0.png","C_Dist_300_LN_24_LD_30_RN_2_RD_4_0.png","C_Dist_300_LN_24_LD_30_RN_8_RD_16_0.png","C_Dist_300_LN_3_LD_6_RN_2_RD_10_0.png","C_Dist_300_LN_4_LD_10_RN_1_RD_10_0.png","C_Dist_300_LN_4_LD_5_RN_2_RD_4_0.png","C_Dist_300_LN_8_LD_16_RN_1_RD_5_0.png","C_Dist_300_LN_9_LD_10_RN_3_RD_5_0.png"],["C_Dist_300_LN_1_LD_20_RN_7_RD_20_1.png","C_Dist_300_LN_1_LD_3_RN_19_RD_30_1.png","C_Dist_300_LN_1_LD_30_RN_8_RD_24_1.png","C_Dist_300_LN_1_LD_5_RN_11_RD_22_1.png","C_Dist_300_LN_1_LD_5_RN_3_RD_6_1.png","C_Dist_300_LN_1_LD_5_RN_6_RD_12_1.png","C_Dist_300_LN_2_LD_10_RN_12_RD_24_1.png","C_Dist_300_LN_2_LD_20_RN_10_RD_25_1.png","C_Dist_300_LN_3_LD_12_RN_11_RD_20_1.png","C_Dist_300_LN_3_LD_6_RN_4_RD_5_1.png","C_Dist_300_LN_4_LD_20_RN_13_RD_26_1.png","C_Dist_300_LN_5_LD_25_RN_6_RD_12_1.png","C_Dist_300_LN_5_LD_25_RN_7_RD_14_1.png","C_Dist_300_LN_7_LD_14_RN_20_RD_25_1.png","C_Dist_300_LN_8_LD_15_RN_10_RD_12_1.png"]],"dist300_I":[["I_Dist_300_LN_1_LD_2_RN_2_RD_10_0.png","I_Dist_300_LN_1_LD_2_RN_3_RD_15_0.png","I_Dist_300_LN_2_LD_4_RN_6_RD_30_0.png","I_Dist_300_LN_3_LD_6_RN_4_RD_20_0.png","I_Dist_300_LN_4_LD_5_RN_6_RD_12_0.png","I_Dist_300_LN_4_LD_5_RN_8_RD_16_0.png","I_Dist_300_LN_7_LD_10_RN_8_RD_20_0.png","I_Dist_300_LN_8_LD_10_RN_14_RD_28_0.png","I_Dist_300_LN_8_LD_10_RN_9_RD_18_0.png"],["I_Dist_300_LN_13_LD_26_RN_12_RD_15_1.png","I_Dist_300_LN_4_LD_20_RN_2_RD_4_1.png"]],"dist300_S":[["E_Dist_300_LN_9_LD_12_RN_9_RD_20_0.png"],["E_Dist_300_LN_18_LD_30_RN_18_RD_20_1.png","E_Dist_300_LN_3_LD_10_RN_3_RD_5_1.png","E_Dist_300_LN_9_LD_20_RN_9_RD_12_1.png"]],"dist500_C":[["C_Dist_500_LN_10_LD_13_RN_7_RD_26_0.png","C_Dist_500_LN_10_LD_15_RN_4_RD_24_0.png","C_Dist_500_LN_12_LD_16_RN_3_RD_12_0.png","C_Dist_500_LN_12_LD_18_RN_4_RD_24_0.png","C_Dist_500_LN_15_LD_18_RN_5_RD_15_0.png","C_Dist_500_LN_15_LD_20_RN_1_RD_4_0.png","C_Dist_500_LN_18_LD_27_RN_1_RD_6_0.png","C_Dist_500_LN_20_LD_24_RN_1_RD_3_0.png","C_Dist_500_LN_20_LD_24_RN_3_RD_9_0.png","C_Dist_500_LN_20_LD_24_RN_7_RD_21_0.png","C_Dist_500_LN_20_LD_28_RN_3_RD_14_0.png","C_Dist_500_LN_21_LD_28_RN_6_RD_24_0.png","C_Dist_500_LN_22_LD_28_RN_2_RD_7_0.png","C_Dist_500_LN_25_LD_30_RN_9_RD_27_0.png","C_Dist_500_LN_4_LD_6_RN_1_RD_6_0.png","C_Dist_500_LN_5_LD_6_RN_2_RD_6_0.png","C_Dist_500_LN_6_LD_9_RN_1_RD_6_0.png","C_Dist_500_LN_7_LD_10_RN_1_RD_5_0.png","C_Dist_500_LN_8_LD_12_RN_1_RD_6_0.png","C_Dist_500_LN_8_LD_12_RN_4_RD_24_0.png"],["C_Dist_500_LN_1_LD_4_RN_12_RD_16_1.png","C_Dist_500_LN_1_LD_4_RN_9_RD_12_1.png","C_Dist_500_LN_1_LD_9_RN_11_RD_18_1.png","C_Dist_500_LN_10_LD_24_RN_22_RD_24_1.png","C_Dist_500_LN_2_LD_12_RN_10_RD_15_1.png","C_Dist_500_LN_2_LD_12_RN_12_RD_18_1.png","C_Dist_500_LN_2_LD_12_RN_4_RD_6_1.png","C_Dist_500_LN_2_LD_24_RN_7_RD_12_1.png","C_Dist_500_LN_2_LD_5_RN_18_RD_20_1.png","C_Dist_500_LN_2_LD_5_RN_9_RD_10_1.png","C_Dist_500_LN_2_LD_8_RN_12_RD_16_1.png","C_Dist_500_LN_2_LD_8_RN_21_RD_28_1.png","C_Dist_500_LN_3_LD_10_RN_4_RD_5_1.png","C_Dist_500_LN_3_LD_12_RN_15_RD_20_1.png","C_Dist_500_LN_3_LD_30_RN_6_RD_10_1.png","C_Dist_500_LN_3_LD_8_RN_14_RD_16_1.png","C_Dist_500_LN_4_LD_16_RN_15_RD_20_1.png","C_Dist_500_LN_4_LD_24_RN_12_RD_18_1.png","C_Dist_500_LN_5_LD_14_RN_6_RD_7_1.png","C_Dist_500_LN_7_LD_21_RN_20_RD_24_1.png","C_Dist_500_LN_7_LD_28_RN_12_RD_16_1.png","C_Dist_500_LN_7_LD_28_RN_9_RD_12_1.png","C_Dist_500_LN_9_LD_27_RN_20_RD_24_1.png"]],"dist500_I":[["I_Dist_500_LN_2_LD_3_RN_4_RD_24_0.png","I_Dist_500_LN_5_LD_6_RN_6_RD_18_0.png","I_Dist_500_LN_7_LD_8_RN_9_RD_24_0.png"],["I_Dist_500_LN_7_LD_21_RN_5_RD_6_1.png"]],"dist500_S":[["E_Dist_500_LN_6_LD_8_RN_6_RD_24_0.png"],["E_Dist_500_LN_2_LD_12_RN_2_RD_3_1.png","E_Dist_500_LN_6_LD_24_RN_6_RD_8_1.png"]]}},{"start_time":1551899637494,"click_time":1551899643702,"finger_time":1551899637962,"fix_duration":250,"trial":1,"RT":468,"MT":5740,"sideResp":1,"stimulus":[],"xmouse":[800,800,800,800,800,800,800,800,800,800,800,800,800,800,800,800,800,800,800,800,800,800,812,821,840,872,922,944,959,972,983,997,1019,1024,1029,1039,1078,1091,1102,1105,1105,1105,1105,1105,1105,1105,1105,1105,1105,1105,1105,1090,1081,1073,1063,1048,1025,1015,1010,1004,998,993,992,989,984,979,965,957,947,936,925,902,890,881,860,849,834,830,826,822,820,814,813,812,812,812,812,812,810,810,810,810,810,810,810,810,810,810,810,810,810,810,810,810,810,810,810,810,810,810,810,810,810,810,810,810,810,809,806,805,803,803,803,803,803,803,803,803,803,803,803,803,803,803,803,803,803,803,803,803,803,802,801,801,801,801,801,801,801,801,801,801,799,798,795,794,794,794,794,794,794,794,794,794,794,794,794,794,794,794,794,794,794,794,794,794,794,794,794,794,794,794,794,794,794,794,794,794,794,794,794,794,794,794,794,794,794,794,794,794,794,794,794,794,794,794,794,794,794,794,794,794,794,794,794,794,794,794,794,794,794,794,794,794,794,794,794,794,794,794,794,794,794,794,794,794,794,794,794,794,794,794,794,794,794,794,794,794,794,794,794,794,794,794,794,794,794,794,794,794,794,794,794,794,794,794,794,794,794,794,794,794,794,794,794,794,794,794,794,794,794,794,794,790,783,769,734,722,717,711,706,695,674,665,658,653,650,645,641,633,627,620,613,613,612,612,607,584,563,536,509],"ymouse":[497,497,497,497,497,497,497,497,497,497,497,497,497,497,497,497,497,497,497,497,497,497,473,451,405,324,222,195,179,170,165,161,157,156,154,153,139,126,116,112,112,112,112,112,112,112,112,112,112,112,112,113,117,121,130,152,194,217,237,253,271,324,349,369,392,403,422,429,435,443,451,465,471,477,487,491,500,504,507,508,510,515,518,519,519,519,519,520,522,522,522,522,522,522,522,522,522,522,522,522,522,522,522,522,522,522,522,522,522,522,522,522,522,522,522,522,522,522,521,520,518,517,517,517,517,517,517,517,517,517,517,517,517,517,517,517,517,517,517,517,517,516,514,510,510,510,510,510,510,510,510,509,507,507,506,506,506,506,506,506,506,506,506,506,506,506,506,506,506,506,506,506,506,506,506,506,506,506,506,506,506,506,506,506,506,506,506,506,506,506,506,506,506,506,506,506,506,506,506,506,506,506,506,506,506,506,506,506,506,506,506,506,506,506,506,506,506,506,506,506,506,506,506,506,506,506,506,506,506,506,506,506,506,506,506,506,506,506,506,506,506,506,506,506,506,506,506,506,506,506,506,506,506,506,506,506,506,506,506,506,506,506,506,506,506,506,506,506,506,506,506,506,506,506,506,506,506,506,506,506,506,506,506,505,487,448,368,340,321,303,285,254,220,207,198,191,188,185,183,180,174,155,128,123,122,120,102,64,51,40,36],"timestamp_mouse":[9,28,51,69,88,108,129,148,168,188,208,228,249,268,288,308,328,348,369,388,408,428,449,468,488,508,528,548,568,588,608,629,648,668,688,709,728,748,768,788,808,829,848,868,888,908,929,948,968,988,1008,1028,1049,1068,1089,1108,1128,1149,1168,1188,1208,1228,1249,1268,1288,1308,1328,1349,1368,1388,1408,1428,1449,1468,1488,1508,1528,1548,1568,1588,1608,1629,1648,1668,1688,1708,1728,1748,1769,1788,1809,1828,1848,1869,1888,1908,1928,1948,1969,1988,2008,2028,2048,2068,2088,2108,2129,2148,2168,2188,2208,2229,2249,2268,2289,2309,2328,2348,2368,2389,2408,2428,2448,2468,2488,2508,2528,2548,2568,2589,2609,2628,2648,2668,2688,2708,2728,2749,2769,2788,2809,2828,2848,2868,2888,2909,2929,2949,2968,2988,3009,3028,3048,3068,3088,3108,3128,3148,3168,3188,3208,3228,3249,3268,3289,3308,3328,3349,3368,3388,3408,3428,3449,3468,3488,3508,3528,3548,3568,3588,3608,3628,3648,3668,3688,3708,3728,3749,3769,3788,3808,3828,3848,3868,3889,3909,3929,3948,3969,3988,4008,4028,4048,4068,4088,4108,4128,4148,4168,4188,4208,4229,4248,4268,4288,4308,4328,4349,4369,4388,4408,4428,4448,4469,4488,4509,4528,4548,4568,4589,4608,4628,4648,4668,4688,4708,4728,4748,4769,4788,4809,4830,4848,4868,4888,4908,4928,4948,4968,4988,5008,5028,5048,5068,5088,5109,5128,5149,5168,5188,5209,5228,5248,5268,5288,5308,5328,5348,5368,5388,5408,5428,5448,5469,5488,5508,5528,5548,5568,5588,5608,5628,5649,5668,5689,5708,5730,5749,5770,5788,5810,5828,5848,5868,5888,5909,5928,5949,5968,5988,6008,6028,6048,6068,6088,6108,6128,6148,6168,6188,6208],"xSR":741.5,"ySR":469.95,"xT1":424.9,"yT1":0,"xT2":1058.1,"yT2":0,"toosoon":0,"cond_shown":"Incongruent","ratio_trial":300,"L_num":1,"L_den":2,"R_num":2,"R_den":10,"correct_side":1,"subjID":"lauracatalinaacosta5","gender":"1","school":"6","age":"10"},{"start_time":1551899645507,"click_time":1551899646322,"finger_time":1551899645822,"fix_duration":863.4081998192908,"trial":2,"RT":315,"MT":500,"sideResp":2,"stimulus":[],"xmouse":[780,780,780,780,780,780,780,780,780,780,780,780,780,782,800,823,841,848,861,896,954,976,980,982,983,985,991,999,1020,1042,1042,1042,1042,1042,1042,1042,1042,1042,1042,1047,1061],"ymouse":[521,521,521,521,521,521,521,521,521,521,521,521,521,518,495,461,433,417,381,307,204,153,139,130,120,111,84,60,25,0,0,0,0,0,0,0,0,0,0,5,29],"timestamp_mouse":[22,35,63,75,95,115,135,155,175,195,215,236,256,275,296,315,336,355,375,395,415,435,456,476,495,515,535,555,575,595,615,635,656,676,695,716,735,755,775,795,815],"xSR":741.5,"ySR":469.95,"xT1":424.9,"yT1":0,"xT2":1058.1,"yT2":0,"toosoon":0,"cond_shown":"Congruent","ratio_trial":100,"L_num":2,"L_den":5,"R_num":6,"R_den":12,"correct_side":2,"subjID":"lauracatalinaacosta5","gender":"1","school":"6","age":"10"},{"start_time":1551899647395,"click_time":1551899653862,"finger_time":1551899647622,"fix_duration":250,"trial":3,"RT":227,"MT":6240,"sideResp":1,"stimulus":[],"xmouse":[802,802,802,802,802,802,802,801,800,797,795,785,731,705,691,680,673,662,623,603,592,588,588,588,588,588,587,587,587,587,587,587,587,587,587,586,585,585,585,584,608,648,716,727,739,751,767,800,811,818,822,823,823,823,823,823,827,832,832,833,833,833,833,833,833,833,832,820,809,809,809,809,809,809,809,809,809,809,809,809,807,806,804,801,800,800,800,800,800,800,800,800,800,800,800,800,799,793,789,789,789,789,789,789,789,789,789,789,789,789,789,789,789,789,789,789,789,789,789,789,789,789,789,789,789,789,789,789,789,789,789,789,789,789,789,789,789,789,789,789,789,788,784,781,780,780,780,780,780,780,780,780,780,780,780,780,780,780,780,780,780,780,780,780,780,780,780,780,780,780,780,780,780,780,780,780,780,780,780,780,780,780,780,780,780,780,780,780,780,780,780,780,780,780,780,780,780,780,780,780,780,780,780,780,780,780,780,780,780,780,780,780,780,780,780,780,780,780,780,780,780,780,780,780,780,780,780,780,780,780,780,780,780,780,780,780,780,780,780,780,780,780,780,780,780,780,780,780,780,780,780,780,780,780,780,780,780,780,780,780,780,780,780,780,780,780,780,780,780,780,780,780,780,780,780,780,780,780,780,780,780,780,780,780,780,780,780,780,780,780,780,780,780,780,780,780,780,780,780,780,780,780,780,780,780,780,780,780,780,779,779,778,777,742,700,662,632,619,616,614,606,587,560,524],"ymouse":[525,525,526,526,526,526,526,526,526,525,516,452,234,152,120,106,101,97,88,82,77,76,75,75,75,75,75,75,75,75,75,75,75,75,75,75,75,75,75,75,112,162,231,247,268,287,312,363,381,396,403,410,416,436,456,471,485,499,504,505,505,505,505,505,505,505,505,505,505,505,505,505,505,505,505,505,505,505,505,505,507,508,509,513,513,513,513,513,513,513,513,513,513,513,513,513,513,515,515,515,515,515,515,515,515,515,515,515,515,515,515,515,515,515,515,515,515,515,515,515,515,515,515,515,515,515,515,515,515,515,515,515,515,515,515,515,515,515,515,515,515,515,515,515,515,515,515,515,515,515,515,515,515,515,515,515,515,515,515,515,515,515,515,515,515,515,515,515,515,515,515,515,515,515,515,515,515,515,515,515,515,515,515,515,515,515,515,515,515,515,515,515,515,515,515,515,515,515,515,515,515,515,515,515,515,515,515,515,515,515,515,515,515,515,515,515,515,515,515,515,515,515,515,515,515,515,515,515,515,515,515,515,515,515,515,515,515,515,515,515,515,515,515,515,515,515,515,515,515,515,515,515,515,515,515,515,515,515,515,515,515,515,515,515,515,515,515,515,515,515,515,515,515,515,515,515,515,515,515,515,515,515,515,515,515,515,515,515,515,515,515,515,515,515,515,515,515,515,515,515,515,515,515,515,515,515,515,515,515,514,514,514,514,418,329,265,226,202,200,199,190,167,133,91],"timestamp_mouse":[7,33,48,68,87,107,127,147,167,187,207,227,247,267,287,307,327,348,367,387,407,427,448,467,487,507,527,548,567,587,607,627,647,668,687,708,727,748,768,787,807,827,848,868,887,907,927,948,967,987,1007,1027,1048,1067,1087,1107,1127,1147,1167,1187,1207,1227,1247,1267,1287,1308,1328,1347,1367,1388,1407,1427,1447,1468,1487,1507,1527,1547,1568,1588,1607,1627,1647,1667,1687,1707,1728,1747,1767,1787,1807,1827,1847,1867,1887,1907,1928,1947,1967,1987,2007,2027,2047,2067,2088,2107,2127,2147,2168,2187,2208,2227,2248,2268,2287,2307,2327,2347,2367,2387,2407,2427,2448,2467,2488,2508,2527,2547,2568,2587,2607,2627,2647,2668,2688,2708,2728,2747,2768,2787,2808,2827,2848,2867,2887,2907,2927,2947,2967,2987,3007,3027,3047,3067,3088,3108,3128,3147,3167,3188,3207,3227,3248,3267,3287,3308,3327,3347,3368,3387,3407,3427,3447,3467,3487,3507,3527,3547,3567,3587,3607,3628,3647,3667,3687,3707,3727,3748,3767,3787,3807,3827,3847,3867,3887,3907,3927,3947,3968,3987,4007,4027,4047,4068,4088,4107,4127,4148,4167,4187,4207,4228,4247,4267,4287,4307,4328,4347,4367,4387,4407,4427,4447,4468,4487,4507,4527,4547,4568,4587,4607,4627,4647,4668,4688,4707,4727,4747,4767,4787,4807,4827,4847,4869,4887,4907,4927,4947,4968,4988,5008,5028,5047,5067,5087,5107,5127,5147,5167,5188,5207,5227,5247,5267,5287,5307,5327,5347,5367,5388,5407,5427,5447,5468,5488,5507,5527,5547,5568,5587,5608,5627,5647,5668,5688,5707,5727,5747,5769,5787,5807,5828,5848,5868,5887,5907,5927,5948,5968,5988,6007,6027,6047,6067,6087,6107,6127,6147,6168,6188,6208,6227,6247,6267,6287,6307,6327,6347,6367,6388,6408,6427,6447,6467],"xSR":741.5,"ySR":469.95,"xT1":424.9,"yT1":0,"xT2":1058.1,"yT2":0,"toosoon":0,"cond_shown":"Incongruent","ratio_trial":200,"L_num":14,"L_den":30,"R_num":12,"R_den":18,"correct_side":2,"subjID":"lauracatalinaacosta5","gender":"1","school":"6","age":"10"},{"start_time":1551899655847,"click_time":1551899664262,"finger_time":1551899657642,"fix_duration":1082.7434128294603,"trial":4,"RT":1795,"MT":6620,"sideResp":2,"stimulus":[],"xmouse":[775,775,775,775,775,775,775,775,775,775,775,775,775,775,775,775,775,775,775,775,775,775,775,775,775,775,775,775,775,775,775,775,775,775,775,775,775,775,775,775,775,775,775,775,775,775,775,775,775,775,775,775,775,775,775,775,775,775,775,775,775,775,775,775,775,775,775,775,775,775,775,775,775,775,775,775,775,775,775,775,775,775,775,775,775,775,775,775,787,807,815,815,815,815,815,815,815,815,815,815,815,815,815,815,815,815,815,815,815,815,815,815,809,806,806,806,806,806,806,806,806,806,806,804,801,800,800,800,800,800,800,800,800,800,800,800,800,800,800,800,800,800,800,800,800,800,800,800,800,800,800,800,800,800,800,800,800,800,800,800,800,800,800,800,800,800,800,800,800,800,800,800,800,800,800,800,800,800,800,800,800,800,800,800,800,800,800,800,800,800,800,800,800,800,800,800,800,800,800,800,800,800,800,800,800,800,800,800,800,800,800,800,800,800,800,800,800,800,800,800,800,800,800,800,800,800,800,800,800,800,800,800,800,800,800,800,800,800,800,800,800,800,800,800,800,800,800,800,800,800,800,800,800,800,800,800,800,800,800,800,800,800,800,800,800,800,800,800,800,800,800,800,800,800,800,800,800,800,800,800,800,800,800,800,800,800,800,800,800,800,800,800,800,800,800,800,800,800,800,800,800,800,800,800,800,800,800,800,800,800,800,800,800,800,800,800,800,800,800,800,800,800,800,800,800,800,800,800,800,800,800,800,800,800,800,800,800,800,800,800,800,800,800,800,800,800,800,800,800,800,800,800,800,800,800,800,800,800,800,800,800,800,800,800,800,800,800,800,800,800,800,800,800,800,800,800,800,800,800,800,800,800,800,800,800,800,800,800,800,800,800,800,800,800,800,800,800,800,800,800,800,800,837,890,934,972,1009,1010,1010,1010,1010,1010,1010,1010,1010,1010,1010,1010,1031,1055,1065],"ymouse":[494,494,494,494,494,494,494,494,494,494,494,494,494,494,494,494,494,494,494,494,494,494,494,494,494,494,494,494,494,494,494,494,494,494,494,494,494,494,494,494,494,494,494,494,494,494,494,494,494,494,494,494,494,494,494,494,494,494,494,494,494,494,494,494,494,494,494,494,494,494,494,494,494,494,494,494,494,494,494,494,494,494,494,494,494,494,494,494,483,457,446,446,446,446,446,446,446,446,446,446,446,446,446,446,446,446,446,446,446,446,446,448,460,463,463,463,464,464,464,464,464,464,467,474,483,487,488,488,488,488,488,488,488,488,488,488,488,488,488,488,488,488,488,488,488,488,488,488,488,488,488,488,488,488,488,488,488,488,488,488,488,488,488,488,488,488,488,488,488,488,488,488,488,488,488,488,488,488,488,488,488,488,488,488,488,488,488,488,488,488,488,488,488,488,488,488,488,488,488,488,488,488,488,488,488,488,488,488,488,488,488,488,488,488,488,488,488,488,488,488,488,488,488,488,488,488,488,488,488,488,488,488,488,488,488,488,488,488,488,488,488,488,488,488,488,488,488,488,488,488,488,488,488,488,488,488,488,488,488,488,488,488,488,488,488,488,488,488,488,488,488,488,488,488,488,488,488,488,488,488,488,488,488,488,488,488,488,488,488,488,488,488,488,488,488,488,488,488,488,488,488,488,488,488,488,488,488,488,488,488,488,488,488,488,488,488,488,488,488,488,488,488,488,488,488,488,488,488,488,488,488,488,488,488,488,488,488,488,488,488,488,488,488,488,488,488,488,488,488,488,488,488,488,488,488,488,488,488,488,488,488,488,488,488,488,488,488,488,488,488,488,488,488,488,488,488,488,488,488,488,488,488,488,488,488,488,488,488,488,488,488,488,488,488,488,488,488,488,488,488,488,485,433,364,294,213,131,126,122,122,122,122,122,122,122,122,122,122,106,98,92],"timestamp_mouse":[17,35,62,76,95,115,136,156,175,195,215,235,256,275,295,315,335,355,375,395,416,435,455,475,495,515,535,555,576,595,615,635,655,676,696,716,736,755,775,795,815,836,857,875,895,916,935,956,975,996,1016,1035,1055,1075,1095,1115,1135,1155,1175,1195,1215,1235,1255,1275,1296,1315,1335,1355,1375,1395,1416,1435,1455,1475,1495,1515,1535,1555,1575,1595,1615,1635,1655,1675,1695,1715,1735,1755,1775,1795,1816,1835,1855,1875,1895,1915,1935,1955,1975,1995,2015,2035,2055,2075,2095,2116,2136,2155,2176,2195,2216,2235,2255,2276,2296,2316,2335,2355,2376,2395,2415,2435,2455,2475,2495,2515,2534,2555,2575,2596,2615,2635,2655,2675,2695,2716,2735,2755,2775,2795,2815,2836,2856,2875,2896,2916,2936,2955,2975,2995,3015,3035,3055,3075,3095,3115,3135,3155,3175,3195,3215,3235,3255,3275,3295,3315,3335,3355,3375,3395,3415,3435,3455,3475,3495,3515,3536,3555,3575,3595,3615,3635,3655,3676,3695,3715,3735,3756,3775,3795,3815,3835,3856,3875,3895,3915,3936,3955,3975,3995,4015,4036,4055,4075,4095,4115,4135,4155,4176,4196,4216,4235,4256,4275,4295,4315,4336,4355,4375,4396,4415,4436,4456,4475,4495,4515,4535,4556,4575,4596,4615,4635,4656,4675,4696,4715,4736,4756,4777,4795,4815,4835,4855,4875,4895,4915,4936,4955,4975,4995,5015,5036,5055,5075,5095,5115,5135,5155,5175,5195,5215,5235,5255,5276,5296,5315,5335,5356,5375,5395,5416,5436,5456,5476,5495,5515,5536,5555,5575,5595,5615,5635,5655,5676,5696,5715,5735,5755,5775,5795,5815,5835,5855,5875,5896,5915,5936,5957,5975,5995,6015,6036,6055,6075,6095,6116,6135,6155,6176,6195,6215,6235,6255,6275,6295,6315,6335,6355,6375,6395,6416,6435,6455,6475,6496,6516,6536,6555,6575,6595,6615,6636,6655,6676,6697,6716,6735,6755,6775,6796,6816,6836,6855,6876,6895,6915,6935,6955,6976,6995,7015,7035,7055,7075,7095,7115,7135,7155,7175,7195,7215,7235,7255,7275,7296,7315,7335,7355,7375,7395,7415,7435,7455,7475,7495,7515,7535,7555,7575,7596,7615,7635,7656,7676,7695,7715,7735,7755,7777,7795,7815,7835,7855,7875,7895,7915,7936,7955,7975,7995,8015,8035,8055,8076,8095,8115,8135,8155,8176,8195,8216,8235,8255,8276,8295,8315,8335,8355,8375,8396,8415],"xSR":741.5,"ySR":469.95,"xT1":424.9,"yT1":0,"xT2":1058.1,"yT2":0,"toosoon":0,"cond_shown":"Congruent","ratio_trial":300,"L_num":1,"L_den":20,"R_num":7,"R_den":20,"correct_side":2,"subjID":"lauracatalinaacosta5","gender":"1","school":"6","age":"10"},{"start_time":1551899665944,"click_time":1551899668622,"finger_time":1551899668242,"fix_duration":861.7259923367736,"trial":5,"RT":2298,"MT":380,"sideResp":2,"stimulus":[],"xmouse":[776,776,776,776,776,776,776,776,776,776,776,776,776,776,776,776,776,776,776,776,776,776,776,776,776,776,776,776,776,776,776,776,776,776,776,776,776,776,776,776,776,776,776,776,776,776,776,776,776,776,776,776,776,776,776,776,776,776,776,776,776,776,776,776,776,776,776,776,776,776,776,776,776,776,776,776,776,776,776,776,776,776,776,776,776,776,776,776,776,776,776,776,776,776,776,776,776,776,776,776,776,776,776,776,776,776,776,776,776,776,776,776,776,787,831,869,931,956,969,981,987,996,1012,1021,1030,1037,1039,1039,1039,1039,1039,1039,1049,1072],"ymouse":[522,522,522,522,522,522,522,522,522,522,522,522,522,522,522,522,522,522,522,522,522,522,522,522,522,522,522,522,522,522,522,522,522,522,522,522,522,522,522,522,522,522,522,522,522,522,522,522,522,522,522,522,522,522,522,522,522,522,522,522,522,522,522,522,522,522,522,522,522,522,522,522,522,522,522,522,522,522,522,522,522,522,522,522,522,522,522,522,522,522,522,522,522,522,522,522,522,522,522,522,522,522,522,522,522,522,522,522,522,522,522,522,522,517,459,415,332,288,262,238,216,198,161,139,117,98,84,74,74,74,74,74,66,60],"timestamp_mouse":[19,39,67,78,98,118,138,158,178,198,219,238,258,278,298,318,338,358,378,398,420,438,458,478,498,518,538,558,578,598,618,638,658,678,698,718,738,758,778,798,818,838,858,878,898,918,939,958,979,998,1018,1038,1058,1079,1098,1119,1138,1159,1178,1199,1218,1238,1258,1278,1298,1318,1338,1359,1378,1398,1418,1438,1458,1478,1498,1518,1538,1560,1578,1598,1618,1638,1658,1679,1698,1718,1738,1758,1779,1798,1818,1838,1858,1878,1899,1918,1939,1958,1978,1998,2018,2038,2059,2078,2098,2118,2139,2159,2179,2198,2218,2238,2260,2278,2298,2318,2340,2358,2379,2398,2418,2439,2459,2478,2498,2518,2538,2558,2578,2599,2619,2638,2659,2678],"xSR":741.5,"ySR":469.95,"xT1":424.9,"yT1":0,"xT2":1058.1,"yT2":0,"toosoon":0,"cond_shown":"Incongruent","ratio_trial":100,"L_num":12,"L_den":24,"R_num":9,"R_den":15,"correct_side":2,"subjID":"lauracatalinaacosta5","gender":"1","school":"6","age":"10"},{"start_time":1551899670441,"click_time":1551899672263,"finger_time":1551899672102,"fix_duration":837.4263606029668,"trial":6,"RT":1661,"MT":161,"sideResp":2,"stimulus":[],"xmouse":[792,792,792,792,792,792,792,792,792,792,792,792,792,792,792,792,792,792,792,792,792,792,792,792,792,792,792,792,792,792,792,792,792,792,792,792,792,792,792,792,792,792,792,792,792,792,792,792,792,792,792,792,792,792,792,792,792,792,792,792,792,792,792,792,792,792,792,792,792,792,792,792,792,792,792,792,792,792,792,792,792,792,792,907,918,918,918,918,982,1035,1075,1108],"ymouse":[501,501,501,501,501,501,501,501,501,501,501,501,501,501,501,501,501,501,501,501,501,501,501,501,501,501,501,501,501,501,501,501,501,501,501,501,501,501,501,501,501,501,501,501,501,501,501,501,501,501,501,501,501,501,501,501,501,501,501,501,501,501,501,501,501,501,501,501,501,501,501,501,501,501,501,501,501,501,501,501,501,501,497,381,370,370,369,369,309,230,151,75],"timestamp_mouse":[15,28,43,61,81,101,121,141,161,181,201,221,241,261,281,302,322,343,361,381,401,421,441,462,481,501,521,541,562,581,602,621,641,662,682,701,721,741,761,781,802,821,841,861,881,902,921,941,961,982,1001,1022,1041,1062,1081,1101,1121,1142,1161,1181,1201,1221,1241,1261,1281,1301,1321,1341,1361,1382,1401,1421,1442,1461,1481,1501,1522,1541,1561,1581,1602,1621,1641,1661,1681,1702,1721,1741,1762,1781,1801,1822],"xSR":741.5,"ySR":469.95,"xT1":424.9,"yT1":0,"xT2":1058.1,"yT2":0,"toosoon":0,"cond_shown":"Incongruent","ratio_trial":200,"L_num":9,"L_den":15,"R_num":8,"R_den":10,"correct_side":2,"subjID":"lauracatalinaacosta5","gender":"1","school":"6","age":"10"},{"start_time":1551899673935,"click_time":1551899677362,"finger_time":1551899675382,"fix_duration":311.8354366813756,"trial":7,"RT":1447,"MT":1980,"sideResp":1,"stimulus":[],"xmouse":[793,793,793,793,793,793,793,793,793,793,793,793,793,793,793,793,793,793,793,793,793,793,793,793,793,793,793,793,793,793,793,793,793,793,793,793,793,793,793,793,793,793,793,793,793,793,793,793,793,793,793,793,793,793,793,793,793,793,793,793,793,793,793,793,793,793,793,793,793,793,793,793,813,869,874,874,874,874,874,874,873,862,845,811,804,804,804,804,804,804,797,790,785,782,781,781,781,781,781,782,782,782,782,780,777,775,770,767,767,764,760,758,754,754,754,754,754,754,754,754,754,754,754,754,754,754,754,754,754,754,754,754,754,754,754,754,754,754,754,754,754,754,754,754,754,754,754,754,754,754,754,754,754,754,754,754,754,744,685,654,641,637,637,637,599,575,559,550,547,537,526,505],"ymouse":[496,496,496,496,496,496,496,496,496,496,496,496,496,496,496,496,496,496,496,496,496,496,496,496,496,496,496,496,496,496,496,496,496,496,496,496,496,496,496,496,496,496,496,496,496,496,496,496,496,496,496,496,496,496,496,496,496,496,496,496,496,496,496,496,496,496,496,496,496,496,495,495,461,359,348,348,348,348,348,347,321,296,278,260,258,258,258,258,258,258,280,326,362,387,408,426,446,462,478,480,481,484,488,493,499,499,499,499,499,499,498,496,489,488,488,488,488,488,488,488,488,488,488,488,488,488,488,488,488,488,488,488,488,488,488,488,488,488,488,488,488,488,488,488,488,488,488,488,488,488,488,488,488,488,488,488,488,439,310,250,227,218,217,216,163,129,110,96,89,68,55,34],"timestamp_mouse":[8,28,47,67,88,108,128,150,167,187,208,227,247,267,287,307,327,347,367,388,407,427,447,467,487,507,527,548,568,587,607,627,647,667,687,707,727,748,768,787,808,827,847,867,887,907,927,947,967,988,1007,1027,1047,1067,1087,1107,1127,1149,1168,1187,1207,1227,1248,1267,1287,1307,1328,1347,1367,1387,1407,1428,1447,1469,1487,1507,1527,1547,1568,1587,1608,1627,1647,1669,1687,1708,1727,1747,1769,1787,1807,1828,1848,1867,1887,1907,1927,1948,1968,1987,2008,2027,2047,2067,2087,2107,2129,2147,2167,2187,2208,2227,2247,2267,2287,2307,2327,2347,2367,2388,2407,2427,2447,2467,2488,2508,2527,2548,2567,2587,2607,2627,2647,2667,2688,2707,2727,2747,2768,2787,2808,2827,2847,2867,2888,2908,2927,2947,2968,2987,3007,3027,3047,3067,3088,3107,3128,3147,3169,3187,3208,3228,3248,3267,3287,3307,3328,3348,3367,3388,3409,3427],"xSR":741.5,"ySR":469.95,"xT1":424.9,"yT1":0,"xT2":1058.1,"yT2":0,"toosoon":0,"cond_shown":"Congruent","ratio_trial":200,"L_num":3,"L_den":10,"R_num":14,"R_den":28,"correct_side":2,"subjID":"lauracatalinaacosta5","gender":"1","school":"6","age":"10"},{"start_time":1551899678982,"click_time":1551899682162,"finger_time":1551899680422,"fix_duration":398.45609652750727,"trial":8,"RT":1440,"MT":1740,"sideResp":2,"stimulus":[],"xmouse":[775,775,775,771,770,769,768,763,762,762,762,762,762,762,762,762,762,762,762,762,762,762,762,762,762,762,762,762,762,762,762,762,762,762,762,762,762,762,762,762,762,762,762,762,762,762,762,762,762,762,762,762,762,762,762,762,762,762,762,762,762,762,762,762,762,762,762,762,762,762,765,787,835,837,837,837,837,841,852,856,857,857,857,857,857,857,857,857,857,857,857,857,857,857,857,856,850,839,837,834,834,834,834,834,834,826,818,809,809,809,809,809,805,802,802,801,801,801,801,801,801,801,801,801,801,801,801,801,813,846,872,882,882,882,882,882,882,882,882,881,885,891,906,914,925,943,959,979,986,1005,1015,1024,1031,1034,1034,1034,1034,1034,1058,1126],"ymouse":[529,529,529,529,529,529,529,528,528,528,528,528,528,528,528,528,528,528,528,528,528,528,528,528,528,528,528,528,528,528,528,528,528,528,528,528,528,528,528,528,528,528,528,528,528,528,528,528,528,528,528,528,528,528,528,528,528,528,528,528,528,528,528,528,528,528,528,528,528,528,519,482,406,403,403,403,403,392,365,354,353,353,353,353,353,353,353,353,353,353,353,353,353,353,353,354,377,404,408,412,413,414,414,414,415,429,447,463,463,463,463,463,478,487,488,489,489,489,489,489,489,489,489,489,489,489,489,489,462,389,337,318,318,318,318,318,318,318,318,316,279,242,207,195,181,166,152,138,134,124,119,117,113,113,113,113,112,112,103,84],"timestamp_mouse":[10,20,40,60,80,100,120,140,161,180,202,220,240,260,280,301,320,340,361,380,401,420,440,460,480,500,520,540,560,580,601,620,640,660,680,700,721,740,760,780,800,821,841,860,880,900,920,940,960,980,1001,1020,1041,1060,1080,1100,1120,1140,1160,1180,1201,1220,1241,1261,1280,1300,1320,1340,1360,1380,1400,1421,1440,1460,1480,1500,1521,1540,1561,1581,1600,1620,1640,1660,1680,1700,1721,1741,1760,1780,1800,1820,1840,1860,1880,1901,1920,1940,1960,1980,2000,2020,2040,2061,2080,2100,2120,2140,2160,2180,2200,2220,2240,2261,2280,2300,2320,2340,2360,2380,2400,2421,2440,2460,2481,2500,2520,2540,2560,2580,2600,2620,2640,2660,2680,2701,2720,2740,2760,2780,2801,2820,2840,2860,2880,2901,2920,2941,2960,2981,3000,3020,3040,3060,3080,3101,3120,3140,3160,3180],"xSR":741.5,"ySR":469.95,"xT1":424.9,"yT1":0,"xT2":1058.1,"yT2":0,"toosoon":0,"cond_shown":"Congruent","ratio_trial":300,"L_num":1,"L_den":30,"R_num":8,"R_den":24,"correct_side":2,"subjID":"lauracatalinaacosta5","gender":"1","school":"6","age":"10"},{"start_time":1551899683376,"click_time":1551899685304,"finger_time":1551899684043,"fix_duration":250,"trial":9,"RT":667,"MT":1261,"sideResp":1,"stimulus":[],"xmouse":[813,813,813,813,813,813,813,813,813,813,813,813,813,812,812,812,812,812,812,812,812,812,812,812,812,812,812,812,812,812,812,812,810,731,653,583,524,497,493,489,479,475,474,474,474,474,474,491,497,497,497,497,497,497,497,497,499,508,591,606,612,614,620,626,629,629,629,629,629,599,580,573,571,571,567,559,548,542,533,533,533,533,533,533,533,533,533,533,533,533,533,533,533,533,533,532,516],"ymouse":[537,537,537,537,537,537,537,537,537,537,537,537,537,537,537,537,537,537,537,537,537,537,537,537,537,537,537,537,537,537,537,537,537,455,387,313,248,208,200,194,181,175,174,174,174,174,171,151,143,143,143,143,143,143,143,143,143,155,237,252,259,261,273,283,287,287,287,287,277,186,145,128,125,123,120,100,76,56,40,40,39,39,39,39,39,39,39,39,39,39,39,39,39,39,39,39,54],"timestamp_mouse":[7,28,48,67,89,107,128,147,167,188,207,227,248,267,288,307,327,347,367,388,407,427,447,468,487,507,527,547,567,588,607,627,647,667,687,707,728,749,767,787,808,828,849,869,887,907,928,949,967,987,1007,1028,1048,1067,1089,1108,1127,1147,1167,1187,1207,1227,1248,1267,1288,1307,1327,1348,1368,1387,1407,1427,1447,1467,1487,1507,1528,1547,1567,1587,1607,1628,1649,1668,1687,1707,1727,1747,1767,1788,1807,1827,1849,1868,1888,1909,1928],"xSR":741.5,"ySR":469.95,"xT1":424.9,"yT1":0,"xT2":1058.1,"yT2":0,"toosoon":0,"cond_shown":"Congruent","ratio_trial":100,"L_num":4,"L_den":10,"R_num":15,"R_den":30,"correct_side":2,"subjID":"lauracatalinaacosta5","gender":"1","school":"6","age":"10"},{"start_time":1551899687082,"click_time":1551899689223,"finger_time":1551899689024,"fix_duration":776.2064080415298,"trial":10,"RT":1942,"MT":199,"sideResp":1,"stimulus":[],"xmouse":[797,797,797,797,797,797,797,797,797,797,797,797,797,797,797,797,797,797,797,797,797,797,797,797,797,797,797,797,797,797,797,797,797,797,797,797,797,797,797,797,797,797,797,797,797,797,797,797,797,797,797,797,797,797,797,797,797,797,797,797,797,797,797,797,797,797,797,797,797,797,797,797,797,797,797,797,797,797,797,797,797,797,797,797,797,797,797,797,797,797,797,797,797,797,797,793,788,749,570,506,481,474,474,474,474,481,492,503],"ymouse":[494,494,494,494,494,494,494,494,494,494,494,494,494,494,494,494,494,494,494,494,494,494,494,494,494,494,494,494,494,494,494,494,494,494,494,494,494,494,494,494,494,494,494,494,494,494,494,494,494,494,494,494,494,494,494,494,494,494,494,494,494,494,494,494,494,494,494,494,494,494,494,494,494,494,494,494,494,494,494,494,494,494,494,494,494,494,494,494,494,494,494,494,494,494,494,493,490,467,315,240,193,168,166,151,140,126,111,99],"timestamp_mouse":[8,21,48,62,81,101,121,141,161,181,201,221,242,261,281,301,321,342,361,381,402,421,442,461,482,501,521,542,561,582,603,622,642,661,681,702,721,741,762,782,801,821,841,863,881,901,922,942,961,981,1001,1022,1043,1061,1081,1101,1121,1141,1163,1181,1201,1221,1241,1261,1281,1302,1321,1341,1362,1381,1401,1421,1441,1461,1482,1502,1521,1541,1561,1583,1602,1621,1641,1662,1681,1702,1721,1741,1762,1781,1802,1821,1841,1863,1882,1901,1922,1942,1961,1983,2001,2021,2041,2061,2081,2101,2121,2141],"xSR":741.5,"ySR":469.95,"xT1":424.9,"yT1":0,"xT2":1058.1,"yT2":0,"toosoon":0,"cond_shown":"Congruent","ratio_trial":200,"L_num":4,"L_den":8,"R_num":3,"R_den":10,"correct_side":1,"subjID":"lauracatalinaacosta5","gender":"1","school":"6","age":"10"},{"start_time":1551899691420,"click_time":1551899693425,"finger_time":1551899693063,"fix_duration":1315.3362567446452,"trial":11,"RT":1643,"MT":362,"sideResp":2,"stimulus":[],"xmouse":[785,785,785,785,785,785,785,785,785,785,785,785,785,785,785,785,785,785,785,785,785,785,785,785,785,785,785,785,785,785,785,785,785,785,785,785,785,785,785,785,785,785,785,785,785,785,785,785,785,785,785,785,785,785,785,785,785,785,785,785,785,785,785,785,785,785,785,785,785,785,785,785,785,785,785,785,785,785,785,785,785,790,884,923,941,945,956,966,975,980,984,995,995,995,995,995,995,995,1004,1027,1107],"ymouse":[533,533,533,533,533,533,533,533,533,533,533,533,533,533,533,533,533,533,533,533,533,533,533,533,533,533,533,533,533,533,533,533,533,533,533,533,533,533,533,533,533,533,533,533,533,533,533,533,533,533,533,533,533,533,533,533,533,533,533,533,533,533,533,533,533,533,533,533,533,533,533,533,533,533,533,533,533,533,533,533,532,508,312,221,173,148,102,80,63,53,47,40,40,40,40,40,40,40,40,40,44],"timestamp_mouse":[9,24,44,68,83,104,123,143,163,183,204,223,243,263,283,303,323,343,363,383,403,424,443,463,483,503,524,545,564,584,603,623,643,663,683,703,723,743,763,783,803,824,844,863,883,903,924,943,964,984,1003,1023,1043,1063,1084,1103,1123,1143,1163,1183,1204,1223,1244,1264,1283,1303,1324,1343,1364,1383,1403,1424,1443,1463,1483,1505,1523,1544,1563,1584,1603,1624,1643,1665,1683,1704,1725,1743,1763,1784,1803,1825,1843,1865,1885,1903,1923,1943,1963,1983,2004],"xSR":741.5,"ySR":469.95,"xT1":424.9,"yT1":0,"xT2":1058.1,"yT2":0,"toosoon":0,"cond_shown":"Congruent","ratio_trial":100,"L_num":9,"L_den":15,"R_num":8,"R_den":16,"correct_side":1,"subjID":"lauracatalinaacosta5","gender":"1","school":"6","age":"10"},{"start_time":1551899697562,"click_time":1551899702743,"finger_time":1551899702484,"fix_duration":837.2929838765139,"trial":12,"RT":4922,"MT":259,"sideResp":1,"stimulus":[],"xmouse":[806,806,806,806,806,806,806,806,806,806,806,806,806,806,806,806,806,806,806,806,806,806,806,806,806,806,806,806,806,806,806,806,806,806,806,806,806,806,806,806,806,806,806,806,806,806,806,806,806,806,806,806,806,806,806,806,806,806,806,806,806,806,806,806,806,806,806,806,806,806,806,806,806,806,806,806,806,806,806,806,806,806,806,806,806,806,806,806,806,806,806,806,806,806,806,806,806,806,806,806,806,806,806,806,806,803,802,801,801,801,801,801,801,801,801,801,801,801,801,801,801,801,801,801,801,801,801,801,801,801,801,799,798,798,797,795,794,793,793,793,793,793,793,793,793,793,793,793,793,793,793,793,793,793,793,793,793,793,793,793,792,792,792,792,792,791,791,790,788,788,788,788,788,788,788,788,788,788,788,788,788,788,788,788,788,788,788,788,788,788,788,788,788,788,788,788,788,788,788,788,788,788,788,788,788,788,788,788,788,788,788,788,788,788,788,788,788,788,788,788,788,788,788,788,788,788,788,788,788,788,788,788,788,788,788,788,788,788,788,788,788,787,786,785,784,782,767,752,731,708,681,622,605,600,596,591,567,550,526,503],"ymouse":[529,529,529,529,529,529,529,529,529,529,529,529,529,529,529,529,529,529,529,529,529,529,529,529,529,529,529,529,529,529,529,529,529,529,529,529,529,529,529,529,529,529,529,529,529,529,529,529,529,529,529,529,529,529,529,529,529,529,529,529,529,529,529,529,529,529,529,529,529,529,529,529,529,529,529,529,529,529,529,529,529,529,529,529,529,529,529,529,529,529,529,529,529,529,529,529,529,529,529,529,529,529,529,529,529,529,528,528,528,528,528,528,528,528,528,528,528,528,528,528,528,528,528,528,528,528,528,528,528,528,528,526,526,526,526,525,524,524,524,524,524,524,524,524,524,524,524,524,524,524,523,523,523,523,523,523,523,523,523,523,523,523,523,523,523,522,522,515,508,508,508,508,508,508,508,508,508,508,508,508,508,508,508,508,508,508,508,508,508,508,508,508,508,508,508,508,508,508,508,508,508,508,508,508,508,508,508,508,508,508,508,508,508,508,508,508,508,508,508,508,508,508,508,508,508,508,508,508,508,508,508,508,508,508,508,508,508,508,508,508,507,507,506,506,505,502,464,440,412,379,340,255,227,215,207,198,166,141,108,81],"timestamp_mouse":[9,30,41,62,81,102,121,141,161,181,201,222,242,261,281,301,321,341,362,381,401,421,441,461,481,501,521,541,561,581,601,621,641,661,681,701,721,741,761,781,802,821,841,861,881,902,921,941,963,981,1001,1021,1042,1062,1081,1101,1121,1141,1161,1183,1201,1222,1241,1262,1281,1302,1321,1341,1361,1381,1401,1423,1441,1461,1481,1501,1522,1542,1562,1581,1601,1621,1642,1662,1682,1702,1722,1741,1762,1781,1802,1821,1841,1861,1881,1902,1921,1941,1961,1981,2001,2022,2042,2063,2081,2101,2122,2143,2162,2181,2201,2221,2243,2262,2282,2301,2321,2342,2362,2381,2402,2421,2441,2461,2482,2501,2521,2541,2562,2582,2601,2623,2641,2661,2682,2702,2722,2741,2762,2781,2801,2821,2842,2861,2881,2902,2921,2942,2961,2982,3001,3021,3042,3061,3081,3102,3121,3141,3161,3183,3201,3221,3242,3261,3281,3301,3321,3341,3361,3381,3402,3422,3441,3463,3481,3502,3522,3542,3561,3581,3601,3622,3643,3662,3682,3701,3721,3741,3761,3782,3801,3821,3841,3862,3882,3902,3921,3941,3961,3981,4001,4022,4041,4061,4082,4103,4122,4142,4161,4182,4202,4221,4241,4262,4282,4301,4322,4341,4362,4381,4402,4421,4442,4462,4481,4502,4522,4541,4562,4581,4602,4622,4642,4661,4681,4703,4722,4742,4761,4781,4802,4823,4841,4861,4881,4901,4922,4943,4962,4981,5001,5021,5041,5062,5081,5102,5122,5143,5163,5181],"xSR":741.5,"ySR":469.95,"xT1":424.9,"yT1":0,"xT2":1058.1,"yT2":0,"toosoon":0,"cond_shown":"Congruent","ratio_trial":100,"L_num":2,"L_den":5,"R_num":6,"R_den":12,"correct_side":2,"subjID":"lauracatalinaacosta5","gender":"1","school":"6","age":"10"},{"start_time":1551899704975,"click_time":1551899707884,"finger_time":1551899707343,"fix_duration":1350.378821848551,"trial":13,"RT":2368,"MT":541,"sideResp":2,"stimulus":[],"xmouse":[781,781,781,781,781,781,781,781,781,781,781,781,781,781,781,781,781,781,781,781,781,781,781,781,781,781,781,781,781,781,781,781,781,781,781,781,781,781,781,781,781,781,781,781,781,781,781,781,781,781,781,781,781,781,781,781,781,781,781,781,781,781,781,781,781,781,781,781,781,781,781,781,781,781,781,781,781,781,781,781,781,781,781,781,781,781,781,781,781,781,781,781,781,781,781,781,781,781,781,781,781,781,781,781,781,781,781,781,781,781,781,781,781,781,781,781,787,822,909,942,964,971,984,999,1009,1021,1032,1050,1068,1086,1087,1087,1087,1087,1087,1106,1110,1110,1110,1110,1110,1110,1110,1110,1111,1111],"ymouse":[521,521,521,521,521,521,521,521,521,521,521,521,521,521,521,521,521,521,521,521,521,521,521,521,521,521,521,521,521,521,521,521,521,521,521,521,521,521,521,521,521,521,521,521,521,521,521,521,521,521,521,521,521,521,521,521,521,521,521,521,521,521,521,521,521,521,521,521,521,521,521,521,521,521,521,521,521,521,521,521,521,521,521,521,521,521,521,521,521,521,521,521,521,521,521,521,521,521,521,521,521,521,521,521,521,521,521,521,521,521,521,521,521,521,521,521,519,491,419,387,333,305,266,235,218,198,185,170,159,149,149,149,149,149,148,119,113,112,112,112,112,112,106,102,100,99],"timestamp_mouse":[9,38,50,69,89,109,128,148,168,188,209,229,250,270,288,309,328,348,368,389,408,429,448,468,488,508,528,548,569,588,608,628,649,669,689,708,728,748,769,789,809,828,848,868,888,909,929,949,970,989,1008,1028,1049,1069,1088,1108,1128,1148,1169,1189,1208,1228,1248,1268,1288,1308,1328,1348,1368,1388,1410,1428,1448,1468,1488,1508,1530,1549,1568,1588,1608,1628,1648,1668,1689,1710,1729,1748,1768,1788,1808,1828,1849,1869,1889,1908,1929,1949,1969,1988,2008,2028,2048,2068,2088,2109,2129,2148,2169,2190,2209,2228,2248,2268,2288,2308,2329,2348,2368,2388,2408,2428,2449,2469,2488,2509,2528,2550,2568,2588,2608,2628,2648,2668,2689,2708,2729,2749,2768,2788,2809,2830,2849,2868,2888,2909],"xSR":741.5,"ySR":469.95,"xT1":424.9,"yT1":0,"xT2":1058.1,"yT2":0,"toosoon":0,"cond_shown":"Incongruent","ratio_trial":300,"L_num":4,"L_den":20,"R_num":2,"R_den":4,"correct_side":2,"subjID":"lauracatalinaacosta5","gender":"1","school":"6","age":"10"},{"start_time":1551899709752,"click_time":1551899713323,"finger_time":1551899713105,"fix_duration":806.3860915481739,"trial":14,"RT":3353,"MT":218,"sideResp":2,"stimulus":[],"xmouse":[818,818,818,818,818,818,818,818,818,818,818,818,818,818,818,818,818,818,818,818,818,818,818,818,818,818,818,818,818,818,818,818,818,818,818,818,818,818,818,818,818,818,818,818,818,818,818,818,818,818,818,818,818,818,818,818,818,818,818,818,818,818,818,818,818,818,818,818,818,818,818,818,818,818,818,818,818,818,818,818,818,818,818,818,818,818,818,818,818,818,818,818,818,818,818,818,818,818,818,818,818,818,818,818,818,818,818,818,818,818,818,818,818,818,818,818,818,818,818,818,818,818,818,818,818,818,818,818,818,818,818,818,818,818,818,818,818,818,818,818,818,818,818,818,818,818,818,818,818,818,818,818,818,818,818,818,818,818,818,818,818,818,818,818,817,817,817,863,896,931,958,965,969,969,969,969,989,1054,1089],"ymouse":[504,504,504,504,504,504,504,504,504,504,504,504,504,504,504,504,504,504,504,504,504,504,504,504,504,504,504,504,504,504,504,504,504,504,504,504,504,504,504,504,504,504,504,504,504,504,504,504,504,504,504,504,504,504,504,504,504,504,504,504,504,504,504,504,504,504,504,504,504,504,504,504,504,504,504,504,504,504,504,504,504,504,504,504,504,504,504,504,504,504,504,504,504,504,504,504,504,504,504,504,504,504,504,504,504,504,504,504,504,504,504,504,504,504,504,504,504,504,504,504,504,504,504,504,504,504,504,504,504,504,504,504,504,504,504,504,504,504,504,504,504,504,504,504,504,504,504,504,504,504,504,504,504,504,504,504,504,504,504,504,504,504,504,504,504,504,504,417,356,282,211,170,149,148,148,148,121,69,42],"timestamp_mouse":[13,35,51,72,91,112,132,151,172,192,212,231,251,271,291,312,331,351,372,392,411,431,451,472,491,511,531,551,572,592,611,632,651,671,691,712,733,752,771,792,812,831,852,871,892,911,931,951,973,991,1011,1032,1051,1071,1092,1111,1132,1151,1172,1191,1211,1231,1252,1271,1292,1312,1332,1353,1372,1391,1412,1431,1452,1472,1491,1512,1532,1552,1572,1591,1611,1631,1653,1672,1692,1712,1731,1752,1771,1791,1812,1831,1853,1872,1891,1911,1931,1951,1972,1991,2011,2031,2051,2072,2091,2111,2131,2152,2171,2191,2211,2231,2252,2271,2291,2311,2331,2352,2372,2391,2411,2431,2451,2471,2492,2512,2532,2551,2571,2591,2613,2631,2652,2672,2691,2711,2733,2752,2772,2792,2811,2833,2852,2872,2891,2912,2931,2952,2973,2992,3011,3031,3052,3073,3092,3111,3131,3152,3172,3191,3211,3231,3251,3272,3291,3311,3331,3353,3373,3391,3411,3431,3453,3472,3492,3512,3531,3551,3571],"xSR":741.5,"ySR":469.95,"xT1":424.9,"yT1":0,"xT2":1058.1,"yT2":0,"toosoon":0,"cond_shown":"Incongruent","ratio_trial":300,"L_num":13,"L_den":26,"R_num":12,"R_den":15,"correct_side":2,"subjID":"lauracatalinaacosta5","gender":"1","school":"6","age":"10"},{"start_time":1551899714475,"click_time":1551899716685,"finger_time":1551899716383,"fix_duration":250,"trial":15,"RT":1908,"MT":302,"sideResp":1,"stimulus":[],"xmouse":[786,786,786,786,786,786,786,786,786,786,786,786,786,786,786,786,786,786,786,786,786,786,786,786,786,786,786,786,786,786,786,786,786,786,786,786,786,786,786,786,786,786,786,786,786,786,786,786,786,786,786,786,786,786,786,786,786,786,786,786,786,786,786,786,786,786,786,786,786,785,784,777,776,775,775,775,775,775,775,775,775,775,775,775,775,775,775,775,775,775,775,775,775,768,754,714,672,619,614,614,608,575,549,529,521,519,518,518,512,505,502],"ymouse":[519,519,519,519,519,519,519,519,519,519,519,519,519,519,519,519,519,519,519,519,519,519,519,519,519,519,519,519,519,519,519,519,519,519,519,519,519,519,519,519,519,519,519,519,519,519,519,519,519,519,519,519,519,519,519,519,519,519,519,519,519,519,519,519,519,519,519,519,519,518,518,517,516,516,516,516,516,516,516,516,516,516,516,516,516,516,516,516,516,516,516,516,515,502,481,422,373,317,312,310,292,235,199,171,158,154,152,143,121,105,96],"timestamp_mouse":[8,28,55,69,88,109,128,148,168,190,208,228,248,269,289,308,328,348,370,388,408,429,448,468,489,508,528,549,570,588,608,628,648,668,688,708,728,749,770,788,809,828,848,868,889,908,928,948,969,988,1008,1029,1048,1068,1089,1110,1128,1149,1168,1188,1208,1228,1248,1269,1289,1309,1328,1349,1369,1388,1410,1429,1448,1468,1490,1508,1528,1548,1569,1590,1608,1628,1648,1668,1689,1709,1728,1748,1768,1789,1809,1828,1849,1868,1889,1908,1929,1949,1969,1988,2008,2029,2048,2069,2088,2109,2129,2149,2168,2189,2210],"xSR":741.5,"ySR":469.95,"xT1":424.9,"yT1":0,"xT2":1058.1,"yT2":0,"toosoon":0,"cond_shown":"Incongruent","ratio_trial":300,"L_num":8,"L_den":10,"R_num":14,"R_den":28,"correct_side":1,"subjID":"lauracatalinaacosta5","gender":"1","school":"6","age":"10"},{"start_time":1551899718076,"click_time":1551899719923,"finger_time":1551899719863,"fix_duration":250,"trial":16,"RT":1787,"MT":60,"sideResp":2,"stimulus":[],"xmouse":[774,774,774,774,774,774,774,774,774,774,774,774,774,774,774,774,774,774,774,774,774,774,774,774,774,774,774,774,774,774,774,774,774,774,774,774,774,774,774,774,774,774,774,774,774,774,774,774,774,774,774,774,774,774,774,774,774,774,774,774,774,774,774,774,774,774,774,774,774,774,774,774,774,774,774,774,774,774,774,774,774,774,774,774,774,774,774,774,793,888,987,1071,1150],"ymouse":[518,518,518,518,518,518,518,518,518,518,518,518,518,518,518,518,518,518,518,518,518,518,518,518,518,518,518,518,518,518,518,518,518,518,518,518,518,518,518,518,518,518,518,518,518,518,518,518,518,518,518,518,518,518,518,518,518,518,518,518,518,518,518,518,518,518,518,518,518,518,518,518,518,518,518,518,518,518,518,518,518,518,518,518,518,518,518,518,500,378,255,163,85],"timestamp_mouse":[8,34,48,68,87,107,127,147,168,187,207,228,249,267,287,307,328,348,367,387,407,429,448,467,487,507,529,548,569,587,608,628,648,667,687,708,727,747,767,787,808,827,847,868,888,907,928,948,968,987,1007,1028,1048,1068,1087,1107,1128,1147,1167,1188,1208,1227,1247,1267,1288,1308,1327,1347,1368,1387,1407,1427,1447,1467,1487,1507,1527,1547,1568,1587,1607,1629,1648,1667,1687,1707,1728,1747,1767,1787,1808,1827,1847],"xSR":741.5,"ySR":469.95,"xT1":424.9,"yT1":0,"xT2":1058.1,"yT2":0,"toosoon":0,"cond_shown":"Incongruent","ratio_trial":200,"L_num":7,"L_den":15,"R_num":6,"R_den":9,"correct_side":2,"subjID":"lauracatalinaacosta5","gender":"1","school":"6","age":"10"},{"start_time":1551899722357,"click_time":1551899724085,"finger_time":1551899723803,"fix_duration":1472.425237717366,"trial":17,"RT":1446,"MT":282,"sideResp":1,"stimulus":[],"xmouse":[798,798,798,798,798,798,798,798,798,798,798,798,798,798,798,798,798,798,798,798,798,798,798,798,798,798,798,798,798,798,798,798,798,798,798,798,798,798,798,798,798,798,798,798,798,798,798,798,798,798,798,798,798,798,798,798,798,798,798,798,798,798,798,798,798,798,798,798,798,794,793,771,686,627,595,595,594,594,590,570,559,547,545,545,545,538,518],"ymouse":[537,537,537,537,537,537,537,537,537,537,537,537,537,537,537,537,537,537,537,537,537,537,537,537,537,537,537,537,537,537,537,537,537,537,537,537,537,537,537,537,537,537,537,537,537,537,537,537,537,537,537,537,537,537,537,537,537,537,537,537,537,537,537,537,537,537,537,537,537,535,534,487,292,183,114,113,113,113,107,65,43,27,24,24,24,24,26],"timestamp_mouse":[9,26,46,68,86,106,127,147,166,187,207,226,248,267,286,307,326,346,367,387,407,426,447,467,486,506,526,546,566,586,607,626,647,668,686,707,727,746,767,787,807,827,847,866,886,906,926,947,966,986,1006,1026,1046,1066,1086,1106,1127,1147,1166,1186,1206,1228,1247,1267,1286,1306,1326,1347,1366,1386,1406,1427,1446,1466,1487,1506,1526,1546,1566,1586,1606,1626,1646,1667,1686,1707,1728],"xSR":741.5,"ySR":469.95,"xT1":424.9,"yT1":0,"xT2":1058.1,"yT2":0,"toosoon":0,"cond_shown":"Incongruent","ratio_trial":100,"L_num":3,"L_den":9,"R_num":7,"R_den":30,"correct_side":1,"subjID":"lauracatalinaacosta5","gender":"1","school":"6","age":"10"},{"start_time":1551899726551,"click_time":1551899727904,"finger_time":1551899727463,"fix_duration":1346.7117982412942,"trial":18,"RT":912,"MT":441,"sideResp":2,"stimulus":[],"xmouse":[785,785,785,785,785,785,785,785,785,785,785,785,785,785,785,785,785,785,785,785,785,785,785,785,785,785,785,785,785,785,785,785,785,785,785,785,785,785,785,785,785,785,785,785,785,814,867,904,921,940,948,953,960,967,989,1006,1022,1037,1044,1044,1044,1044,1044,1044,1044,1044,1044,1067],"ymouse":[517,517,517,517,517,517,517,517,517,517,517,517,517,517,517,517,517,517,517,517,517,517,517,517,517,517,517,517,517,517,517,517,517,517,517,517,517,517,517,517,517,517,517,517,517,455,344,253,213,173,164,158,152,147,130,120,109,97,92,92,92,92,92,92,92,92,92,80],"timestamp_mouse":[12,36,52,72,93,112,132,152,172,192,213,233,252,273,293,313,332,352,373,392,412,432,452,473,492,512,532,552,572,592,612,632,652,673,692,714,733,752,774,793,813,832,852,873,893,912,932,952,972,992,1012,1032,1052,1073,1092,1112,1133,1152,1172,1192,1212,1232,1253,1273,1292,1313,1333,1353],"xSR":741.5,"ySR":469.95,"xT1":424.9,"yT1":0,"xT2":1058.1,"yT2":0,"toosoon":0,"cond_shown":"Incongruent","ratio_trial":300,"L_num":13,"L_den":26,"R_num":12,"R_den":15,"correct_side":2,"subjID":"lauracatalinaacosta5","gender":"1","school":"6","age":"10"},{"start_time":1551899732034,"click_time":1551899733604,"finger_time":1551899733383,"fix_duration":848.2976907123588,"trial":19,"RT":1349,"MT":221,"sideResp":1,"stimulus":[],"xmouse":[813,813,813,813,813,813,813,813,813,813,813,813,813,813,813,813,813,813,813,813,813,813,813,813,813,813,813,813,813,813,813,813,813,813,813,813,813,813,813,813,813,813,813,813,813,813,813,813,813,813,813,813,813,813,813,813,813,813,813,813,813,813,813,813,813,810,787,739,710,690,678,676,661,623,566,538,534,527,515],"ymouse":[524,524,524,524,524,524,524,524,524,524,524,524,524,524,524,524,524,524,524,524,524,524,524,524,524,524,524,524,524,524,524,524,524,524,524,524,524,524,524,524,524,524,524,524,524,524,524,524,524,524,524,524,524,524,524,524,524,524,524,524,524,524,524,524,524,521,483,415,380,360,350,347,320,263,183,140,130,114,90],"timestamp_mouse":[10,30,51,69,90,110,129,149,170,190,209,231,250,270,290,309,329,349,369,389,409,429,449,469,490,510,530,550,570,590,609,630,650,669,689,711,729,750,769,789,810,829,849,870,890,909,929,949,970,989,1010,1029,1050,1069,1089,1109,1129,1149,1170,1189,1209,1229,1249,1270,1291,1310,1329,1349,1370,1391,1409,1429,1449,1469,1489,1510,1529,1549,1570],"xSR":741.5,"ySR":469.95,"xT1":424.9,"yT1":0,"xT2":1058.1,"yT2":0,"toosoon":0,"cond_shown":"Incongruent","ratio_trial":200,"L_num":7,"L_den":10,"R_num":8,"R_den":16,"correct_side":1,"subjID":"lauracatalinaacosta5","gender":"1","school":"6","age":"10"},{"start_time":1551899735574,"click_time":1551899737103,"finger_time":1551899736923,"fix_duration":968.6959555839242,"trial":20,"RT":1349,"MT":180,"sideResp":1,"stimulus":[],"xmouse":[778,778,778,778,778,778,778,778,778,778,778,778,778,778,778,778,778,778,778,778,778,778,778,778,778,778,778,778,778,778,778,778,778,778,778,778,778,778,778,778,778,778,778,778,778,778,778,778,778,778,778,778,778,778,778,778,778,778,778,778,778,778,778,778,778,774,771,756,722,679,674,674,673,673,589,537,510],"ymouse":[490,490,490,490,490,490,490,490,490,490,490,490,490,490,490,490,490,490,490,490,490,490,490,490,490,490,490,490,490,490,490,490,490,490,490,490,490,490,490,490,490,490,490,490,490,490,490,490,490,490,490,490,490,490,490,490,490,490,490,490,490,490,490,490,490,490,488,460,399,326,317,317,316,316,181,122,94],"timestamp_mouse":[11,33,49,69,89,109,129,150,170,190,210,229,249,269,289,309,329,350,369,389,409,430,450,470,489,510,529,550,569,589,610,629,649,669,690,710,730,750,769,789,809,829,849,870,890,910,930,949,970,990,1009,1030,1049,1069,1089,1109,1130,1149,1170,1189,1209,1229,1249,1270,1290,1309,1329,1349,1370,1389,1409,1429,1449,1470,1489,1511,1529],"xSR":741.5,"ySR":469.95,"xT1":424.9,"yT1":0,"xT2":1058.1,"yT2":0,"toosoon":0,"cond_shown":"Congruent","ratio_trial":100,"L_num":9,"L_den":15,"R_num":8,"R_den":16,"correct_side":1,"subjID":"lauracatalinaacosta5","gender":"1","school":"6","age":"10"},{"start_time":1551899738398,"click_time":1551899739363,"finger_time":1551899739183,"fix_duration":471.2252137045706,"trial":21,"RT":785,"MT":180,"sideResp":1,"stimulus":[],"xmouse":[793,793,793,793,793,793,793,793,793,793,793,793,793,793,793,793,793,793,793,793,793,793,793,793,793,793,793,793,793,793,793,793,793,793,793,793,793,793,776,718,657,616,598,594,591,573,540,512,495],"ymouse":[524,524,524,524,524,524,524,524,524,524,524,524,524,524,524,524,524,524,524,524,524,524,524,524,524,524,524,524,524,524,524,524,524,524,524,524,524,524,506,424,342,287,263,254,249,203,142,106,84],"timestamp_mouse":[9,33,46,65,86,106,125,146,165,186,205,225,247,265,285,306,326,345,365,386,406,426,446,466,485,505,525,545,567,586,605,625,645,665,685,705,725,745,765,785,805,826,845,866,885,907,925,946,965],"xSR":741.5,"ySR":469.95,"xT1":424.9,"yT1":0,"xT2":1058.1,"yT2":0,"toosoon":0,"cond_shown":"Incongruent","ratio_trial":200,"L_num":4,"L_den":6,"R_num":14,"R_den":30,"correct_side":1,"subjID":"lauracatalinaacosta5","gender":"1","school":"6","age":"10"},{"start_time":1551899741025,"click_time":1551899742423,"finger_time":1551899742104,"fix_duration":760.7575279489088,"trial":22,"RT":1079,"MT":319,"sideResp":1,"stimulus":[],"xmouse":[752,752,752,752,752,752,752,752,752,752,752,752,752,752,752,752,752,752,752,752,752,752,752,752,752,752,752,752,752,752,752,752,752,752,752,752,752,752,752,752,752,752,752,752,752,752,752,752,752,752,752,753,744,717,673,625,600,599,599,599,596,591,574,567,564,564,559,550,536,508],"ymouse":[521,521,521,521,521,521,521,521,521,521,521,521,521,521,521,521,521,521,521,521,521,521,521,521,521,521,521,521,521,521,521,521,521,521,521,521,521,521,521,521,521,521,521,521,521,521,521,521,521,521,521,521,507,453,371,290,236,235,235,235,218,191,139,122,115,115,111,103,82,50],"timestamp_mouse":[19,49,58,78,99,118,139,158,178,199,218,238,259,278,299,319,338,358,379,399,419,438,458,478,499,518,538,558,579,599,618,638,659,678,698,718,738,758,778,798,819,838,858,878,899,919,938,958,979,999,1019,1038,1058,1079,1098,1118,1138,1158,1179,1199,1219,1239,1259,1279,1299,1319,1339,1358,1379,1398],"xSR":741.5,"ySR":469.95,"xT1":424.9,"yT1":0,"xT2":1058.1,"yT2":0,"toosoon":0,"cond_shown":"Congruent","ratio_trial":300,"L_num":24,"L_den":30,"R_num":2,"R_den":4,"correct_side":1,"subjID":"lauracatalinaacosta5","gender":"1","school":"6","age":"10"},{"start_time":1551899743965,"click_time":1551899746284,"finger_time":1551899746004,"fix_duration":899.5380310202096,"trial":23,"RT":2039,"MT":280,"sideResp":2,"stimulus":[],"xmouse":[792,792,792,792,792,792,792,792,792,792,792,792,792,792,792,792,792,792,792,792,792,792,792,792,792,792,792,792,792,792,792,792,792,792,792,792,792,792,792,792,792,792,792,792,792,792,792,792,792,792,792,792,792,792,792,792,792,792,792,792,792,792,792,792,792,792,792,792,792,792,792,792,792,792,792,792,792,792,792,792,792,792,792,792,792,792,792,792,792,792,792,792,792,792,792,792,792,792,792,792,792,910,1038,1115,1164,1164,1164,1164,1164,1164,1164,1164,1164,1164,1164,1157],"ymouse":[510,510,510,510,510,510,510,510,510,510,510,510,510,510,510,510,510,510,510,510,510,510,510,510,510,510,510,510,510,510,510,510,510,510,510,510,510,510,510,510,510,510,510,510,510,510,510,510,510,510,510,510,510,510,510,510,510,510,510,510,510,510,510,510,510,510,510,510,510,510,510,510,510,510,510,510,510,510,510,510,510,510,510,510,510,510,510,510,510,510,510,510,510,510,510,510,510,510,510,510,510,397,279,170,84,83,83,83,83,83,83,83,83,82,82,77],"timestamp_mouse":[38,39,59,79,99,120,139,160,180,199,220,239,259,279,300,319,339,360,379,400,419,439,459,479,500,519,539,559,579,600,619,639,659,679,700,719,739,759,779,799,819,839,860,880,899,920,939,959,979,999,1019,1040,1059,1079,1100,1119,1140,1159,1179,1201,1220,1239,1259,1279,1300,1319,1339,1359,1379,1399,1419,1440,1459,1479,1500,1520,1539,1559,1581,1599,1619,1639,1659,1679,1699,1719,1740,1759,1779,1800,1820,1840,1859,1880,1899,1919,1939,1959,1979,1999,2019,2039,2059,2080,2101,2119,2139,2159,2179,2200,2219,2239,2259,2280,2299,2319],"xSR":741.5,"ySR":469.95,"xT1":424.9,"yT1":0,"xT2":1058.1,"yT2":0,"toosoon":0,"cond_shown":"Incongruent","ratio_trial":100,"L_num":12,"L_den":24,"R_num":9,"R_den":15,"correct_side":2,"subjID":"lauracatalinaacosta5","gender":"1","school":"6","age":"10"},{"start_time":1551899747681,"click_time":1551899749285,"finger_time":1551899749044,"fix_duration":535.3623500919398,"trial":24,"RT":1363,"MT":241,"sideResp":2,"stimulus":[],"xmouse":[795,795,795,795,795,795,795,795,795,795,795,795,795,795,795,795,795,795,795,795,795,795,795,795,795,795,795,795,795,795,795,795,795,795,795,795,795,795,795,795,795,795,795,795,795,795,795,795,795,795,795,795,795,795,795,795,795,795,795,795,795,795,795,795,795,795,795,816,885,979,1089,1100,1102,1107,1110,1120,1120,1120,1120,1118,1113],"ymouse":[529,529,529,529,529,529,529,529,529,529,529,529,529,529,529,529,529,529,529,529,529,529,529,529,529,529,529,529,529,529,529,529,529,529,529,529,529,529,529,529,529,529,529,529,529,529,529,529,529,529,529,529,529,529,529,529,529,529,529,529,529,529,529,529,529,529,529,512,452,370,251,234,228,212,202,156,145,135,126,115,97],"timestamp_mouse":[10,29,43,63,84,104,123,144,163,183,204,223,243,263,283,304,323,343,364,383,403,423,443,463,483,504,524,543,563,583,603,623,643,663,684,704,723,743,764,783,803,823,843,863,883,903,923,943,963,984,1003,1023,1044,1063,1083,1103,1123,1143,1164,1183,1203,1223,1244,1263,1283,1304,1324,1343,1363,1383,1404,1424,1443,1463,1483,1503,1524,1543,1563,1583,1604],"xSR":741.5,"ySR":469.95,"xT1":424.9,"yT1":0,"xT2":1058.1,"yT2":0,"toosoon":0,"cond_shown":"Incongruent","ratio_trial":300,"L_num":4,"L_den":20,"R_num":2,"R_den":4,"correct_side":2,"subjID":"lauracatalinaacosta5","gender":"1","school":"6","age":"10"},{"start_time":1551899751499,"click_time":1551899752324,"finger_time":1551899752285,"fix_duration":1313.2347708904797,"trial":25,"RT":786,"MT":39,"sideResp":1,"stimulus":[],"xmouse":[786,786,786,786,786,786,786,786,786,786,786,786,786,786,786,786,786,786,786,786,786,786,786,786,786,786,786,786,786,786,786,786,786,786,786,786,786,786,778,687,567,452],"ymouse":[507,507,507,507,507,507,507,507,507,507,507,507,507,507,507,507,507,507,507,507,507,507,507,507,507,507,507,507,507,507,507,507,507,507,507,507,507,507,492,364,202,60],"timestamp_mouse":[9,33,45,65,85,105,125,145,165,186,205,225,245,266,285,305,325,345,365,385,405,425,445,465,485,505,525,546,565,585,605,625,645,665,685,705,725,745,765,786,805,825],"xSR":741.5,"ySR":469.95,"xT1":424.9,"yT1":0,"xT2":1058.1,"yT2":0,"toosoon":0,"cond_shown":"Incongruent","ratio_trial":100,"L_num":3,"L_den":5,"R_num":11,"R_den":22,"correct_side":1,"subjID":"lauracatalinaacosta5","gender":"1","school":"6","age":"10"},{"start_time":1551899755083,"click_time":1551899757565,"finger_time":1551899757104,"fix_duration":1198.8019588636155,"trial":26,"RT":2021,"MT":461,"sideResp":1,"stimulus":[],"xmouse":[786,786,786,786,786,786,786,786,786,786,786,786,786,786,786,786,786,786,786,786,786,786,786,786,786,786,786,786,786,786,786,786,786,786,786,786,786,786,786,786,786,786,786,786,786,786,786,786,786,786,786,786,786,786,786,786,786,786,786,786,786,786,786,786,786,786,786,786,786,786,786,786,786,786,786,786,786,786,786,786,786,786,786,786,786,786,786,786,786,786,786,786,786,786,786,786,786,786,786,779,752,591,558,553,552,550,533,522,512,503,501,500,499,497,492,486,472,470,470,470,470,470,470,470,470],"ymouse":[533,533,533,533,533,533,533,533,533,533,533,533,533,533,533,533,533,533,533,533,533,533,533,533,533,533,533,533,533,533,533,533,533,533,533,533,533,533,533,533,533,533,533,533,533,533,533,533,533,533,533,533,533,533,533,533,533,533,533,533,533,533,533,533,533,533,533,533,533,533,533,533,533,533,533,533,533,533,533,533,533,533,533,533,533,533,533,533,533,533,533,533,533,533,533,533,533,533,533,523,492,296,249,237,229,220,185,166,145,128,124,122,122,121,119,117,103,100,100,100,100,100,100,100,99],"timestamp_mouse":[9,21,41,61,81,102,121,141,162,181,202,222,241,261,281,302,321,341,361,381,401,421,442,461,481,501,521,541,561,581,601,622,642,662,682,701,722,741,762,781,801,822,841,861,881,901,922,941,961,981,1001,1021,1041,1061,1081,1101,1122,1141,1161,1181,1201,1221,1242,1261,1281,1301,1322,1342,1361,1381,1402,1422,1441,1461,1481,1501,1522,1541,1561,1581,1601,1621,1641,1661,1682,1701,1722,1742,1761,1781,1801,1822,1842,1861,1881,1901,1922,1941,1961,1981,2001,2021,2042,2061,2081,2101,2121,2141,2161,2181,2201,2221,2241,2261,2281,2301,2321,2342,2361,2381,2402,2422,2441,2461,2482],"xSR":741.5,"ySR":469.95,"xT1":424.9,"yT1":0,"xT2":1058.1,"yT2":0,"toosoon":0,"cond_shown":"Congruent","ratio_trial":100,"L_num":15,"L_den":25,"R_num":13,"R_den":26,"correct_side":1,"subjID":"lauracatalinaacosta5","gender":"1","school":"6","age":"10"},{"start_time":1551899759948,"click_time":1551899761725,"finger_time":1551899761484,"fix_duration":1343.041918395414,"trial":27,"RT":1536,"MT":241,"sideResp":2,"stimulus":[],"xmouse":[769,769,769,769,769,769,769,769,769,769,769,769,769,769,769,769,769,769,769,769,769,769,769,769,769,769,769,769,769,769,769,769,769,769,769,769,769,769,769,769,769,769,769,769,769,769,769,769,769,769,769,769,769,769,769,769,769,769,769,769,769,769,769,769,769,769,769,769,769,769,769,769,769,769,769,774,849,893,968,983,986,991,1001,1007,1009,1011,1016,1056,1067],"ymouse":[502,502,502,502,502,502,502,502,502,502,502,502,502,502,502,502,502,502,502,502,502,502,502,502,502,502,502,502,502,502,502,502,502,502,502,502,502,502,502,502,502,502,502,502,502,502,502,502,502,502,502,502,502,502,502,502,502,502,502,502,502,502,502,502,502,502,502,502,502,502,502,502,502,502,502,490,401,348,167,105,79,54,23,14,11,8,6,5,5],"timestamp_mouse":[16,36,56,76,96,116,136,156,176,196,216,237,257,276,306,316,336,356,376,396,416,436,457,476,497,517,537,556,576,596,616,636,656,676,697,716,736,756,776,795,815,835,856,876,897,916,936,956,976,996,1016,1036,1057,1076,1096,1116,1136,1156,1176,1196,1216,1236,1256,1276,1296,1316,1336,1357,1376,1396,1416,1436,1457,1476,1497,1516,1536,1557,1576,1596,1617,1637,1657,1676,1696,1716,1737,1757,1776],"xSR":741.5,"ySR":469.95,"xT1":424.9,"yT1":0,"xT2":1058.1,"yT2":0,"toosoon":0,"cond_shown":"Congruent","ratio_trial":200,"L_num":13,"L_den":26,"R_num":14,"R_den":20,"correct_side":2,"subjID":"lauracatalinaacosta5","gender":"1","school":"6","age":"10"},{"start_time":1551899763297,"click_time":1551899764824,"finger_time":1551899764605,"fix_duration":871.0861334229304,"trial":28,"RT":1308,"MT":219,"sideResp":2,"stimulus":[],"xmouse":[785,785,785,785,785,785,785,785,785,785,785,785,785,785,785,785,785,785,785,785,785,785,785,785,785,785,785,785,785,785,785,785,785,785,785,785,785,785,785,785,785,785,785,785,785,785,785,785,785,785,785,785,785,785,785,785,785,785,785,785,785,785,785,785,800,860,964,980,988,995,1000,1010,1017,1025,1034,1048,1083],"ymouse":[524,524,524,524,524,524,524,524,524,524,524,524,524,524,524,524,524,524,524,524,524,524,524,524,524,524,524,524,524,524,524,524,524,524,524,524,524,524,524,524,524,524,524,524,524,524,524,524,524,524,524,524,524,524,524,524,524,524,524,524,524,524,524,521,496,417,276,244,225,210,194,171,158,143,130,116,94],"timestamp_mouse":[9,29,47,67,87,107,127,148,167,187,207,227,248,267,288,307,328,347,367,387,407,428,448,468,487,507,527,547,568,587,607,628,647,668,687,707,728,747,768,787,807,828,847,867,887,908,928,947,967,988,1009,1027,1047,1067,1087,1108,1128,1147,1168,1187,1207,1227,1247,1267,1287,1308,1327,1347,1367,1387,1407,1427,1448,1468,1487,1507,1527],"xSR":741.5,"ySR":469.95,"xT1":424.9,"yT1":0,"xT2":1058.1,"yT2":0,"toosoon":0,"cond_shown":"Incongruent","ratio_trial":200,"L_num":7,"L_den":15,"R_num":6,"R_den":9,"correct_side":2,"subjID":"lauracatalinaacosta5","gender":"1","school":"6","age":"10"},{"start_time":1551899766585,"click_time":1551899768525,"finger_time":1551899767984,"fix_duration":1120.3722609182832,"trial":29,"RT":1399,"MT":541,"sideResp":1,"stimulus":[],"xmouse":[799,799,799,799,799,799,799,799,799,799,799,799,799,799,799,799,799,799,799,799,799,799,799,799,799,799,799,799,799,799,799,799,799,799,799,799,799,799,799,799,799,799,799,799,799,799,799,799,799,799,799,799,799,799,799,799,799,799,799,799,799,799,799,799,799,799,799,799,799,796,759,667,640,627,615,604,589,585,581,579,579,579,579,579,577,531,389,349,341,341,341,341,341,354,376,417,478],"ymouse":[532,532,532,532,532,532,532,532,532,532,532,532,532,532,532,532,532,532,532,532,532,532,532,532,532,532,532,532,532,532,532,532,532,532,532,532,532,532,532,532,532,532,532,532,532,532,532,532,532,532,532,532,532,532,532,532,532,532,532,532,532,532,532,532,532,532,532,532,493,457,337,170,131,114,96,80,59,54,49,47,47,47,47,47,46,46,46,46,46,46,46,46,46,46,46,57,73],"timestamp_mouse":[19,39,59,79,100,119,140,160,180,199,219,239,259,279,299,319,339,359,380,399,419,440,459,479,499,519,540,559,580,599,619,640,659,679,700,719,739,760,779,799,819,839,860,880,899,919,939,959,979,999,1020,1039,1059,1079,1099,1119,1139,1160,1179,1199,1220,1240,1259,1279,1299,1319,1339,1359,1379,1399,1420,1439,1460,1480,1500,1519,1540,1559,1579,1599,1620,1639,1660,1679,1699,1719,1739,1759,1779,1799,1819,1839,1860,1880,1899,1919,1939],"xSR":741.5,"ySR":469.95,"xT1":424.9,"yT1":0,"xT2":1058.1,"yT2":0,"toosoon":0,"cond_shown":"Congruent","ratio_trial":100,"L_num":15,"L_den":25,"R_num":13,"R_den":26,"correct_side":1,"subjID":"lauracatalinaacosta5","gender":"1","school":"6","age":"10"},{"start_time":1551899769576,"click_time":1551899770944,"finger_time":1551899770884,"fix_duration":250,"trial":30,"RT":1308,"MT":60,"sideResp":1,"stimulus":[],"xmouse":[788,788,788,788,788,788,788,788,788,788,788,788,788,788,788,788,788,788,788,788,788,788,788,788,788,788,788,788,788,788,788,788,788,788,788,788,788,788,788,788,788,788,788,788,788,788,788,788,788,788,788,788,788,788,788,788,788,788,788,788,788,788,788,788,780,722,645,505,490],"ymouse":[497,497,497,497,497,497,497,497,497,497,497,497,497,497,497,497,497,497,497,497,497,497,497,497,497,497,497,497,497,497,497,497,497,497,497,497,497,497,497,497,497,497,497,497,497,497,497,497,497,497,497,497,497,497,497,497,497,497,497,497,497,497,497,497,482,400,314,106,49],"timestamp_mouse":[9,33,48,68,89,108,128,148,168,189,208,228,248,269,288,308,329,348,368,388,408,428,448,468,488,508,528,548,568,589,608,628,648,668,688,708,728,749,769,788,808,828,848,868,888,909,928,948,968,988,1008,1028,1048,1068,1088,1109,1129,1148,1168,1188,1208,1228,1248,1268,1288,1308,1328,1350,1368],"xSR":741.5,"ySR":469.95,"xT1":424.9,"yT1":0,"xT2":1058.1,"yT2":0,"toosoon":0,"cond_shown":"Incongruent","ratio_trial":200,"L_num":4,"L_den":5,"R_num":6,"R_den":10,"correct_side":1,"subjID":"lauracatalinaacosta5","gender":"1","school":"6","age":"10"},{"start_time":1551899773357,"click_time":1551899774765,"finger_time":1551899774444,"fix_duration":832.4050053574168,"trial":31,"RT":1087,"MT":321,"sideResp":1,"stimulus":[],"xmouse":[778,778,778,778,778,778,778,778,778,778,778,778,778,778,778,778,778,778,778,781,785,789,793,793,793,793,793,793,793,793,793,793,793,793,793,793,793,793,793,793,793,793,793,793,793,793,793,793,793,793,793,793,793,792,725,673,623,595,585,581,579,574,564,549,531,530,530,530,530,525,510],"ymouse":[493,493,493,493,493,493,493,493,493,493,493,493,493,493,494,494,494,494,494,516,530,539,544,544,544,545,545,545,545,545,545,545,545,545,545,545,545,545,545,545,545,545,545,545,545,545,545,545,545,545,545,545,545,544,432,366,298,252,232,216,211,199,182,158,126,124,124,124,124,112,90],"timestamp_mouse":[8,32,47,68,87,107,127,147,168,188,207,227,248,267,288,307,327,347,367,387,407,427,447,467,487,507,527,547,567,587,607,628,647,667,687,707,727,747,767,788,807,827,847,867,888,908,927,947,967,987,1007,1027,1047,1067,1087,1108,1128,1148,1167,1187,1207,1227,1248,1267,1287,1308,1327,1347,1367,1386,1407],"xSR":741.5,"ySR":469.95,"xT1":424.9,"yT1":0,"xT2":1058.1,"yT2":0,"toosoon":0,"cond_shown":"Congruent","ratio_trial":200,"L_num":3,"L_den":6,"R_num":14,"R_den":20,"correct_side":2,"subjID":"lauracatalinaacosta5","gender":"1","school":"6","age":"10"},{"start_time":1551899775901,"click_time":1551899777424,"finger_time":1551899777244,"fix_duration":416.9413064041968,"trial":32,"RT":1343,"MT":180,"sideResp":1,"stimulus":[],"xmouse":[802,802,802,802,802,802,802,802,802,802,802,802,802,802,802,802,802,802,802,802,802,802,802,802,802,802,802,802,802,802,802,802,802,802,802,802,802,802,802,802,802,802,802,802,802,802,802,802,802,802,802,802,802,802,802,802,802,802,802,802,802,802,802,802,802,802,801,718,653,589,535,530,529,529,529,517,505],"ymouse":[506,506,506,506,506,506,506,506,506,506,506,506,506,506,506,506,506,506,506,506,506,506,506,506,506,506,506,506,506,506,506,506,506,506,506,506,506,506,506,506,506,506,506,506,506,506,506,506,506,506,506,506,506,506,506,506,506,506,506,506,506,506,506,506,506,506,502,411,331,238,141,130,129,129,124,106,87],"timestamp_mouse":[9,23,46,63,83,103,123,143,163,183,203,223,243,263,283,304,323,343,363,383,403,423,443,463,484,503,523,543,563,583,603,623,643,664,684,703,723,743,763,783,803,823,843,863,884,903,924,943,963,984,1003,1023,1043,1063,1083,1104,1123,1143,1163,1183,1203,1223,1243,1263,1284,1303,1324,1343,1363,1384,1404,1423,1444,1464,1483,1503,1523],"xSR":741.5,"ySR":469.95,"xT1":424.9,"yT1":0,"xT2":1058.1,"yT2":0,"toosoon":0,"cond_shown":"Incongruent","ratio_trial":100,"L_num":3,"L_den":5,"R_num":8,"R_den":16,"correct_side":1,"subjID":"lauracatalinaacosta5","gender":"1","school":"6","age":"10"},{"start_time":1551899778965,"click_time":1551899780246,"finger_time":1551899779804,"fix_duration":819.5792307880364,"trial":33,"RT":839,"MT":442,"sideResp":2,"stimulus":[],"xmouse":[787,787,787,787,787,787,787,787,787,787,787,787,787,787,787,787,787,787,787,787,787,787,787,787,787,787,787,787,787,787,787,787,787,787,787,787,787,787,787,787,787,810,828,859,914,937,950,960,964,972,975,977,978,982,991,1012,1024,1029,1032,1033,1036,1039,1044,1053,1078],"ymouse":[506,506,506,506,506,506,506,506,506,506,506,506,506,506,506,506,506,506,506,506,506,506,506,506,506,506,506,506,506,506,506,506,506,506,506,506,506,506,506,506,506,485,467,432,355,299,277,256,241,212,196,185,179,170,161,139,122,112,104,98,92,86,79,70,48],"timestamp_mouse":[6,19,39,58,79,99,119,139,160,180,200,219,239,259,279,299,319,339,359,379,399,420,440,459,479,499,519,539,559,579,599,619,639,659,679,700,720,739,759,780,799,819,839,860,881,899,919,940,959,980,1000,1019,1040,1060,1079,1099,1119,1139,1160,1180,1199,1219,1239,1259,1281],"xSR":741.5,"ySR":469.95,"xT1":424.9,"yT1":0,"xT2":1058.1,"yT2":0,"toosoon":0,"cond_shown":"Incongruent","ratio_trial":100,"L_num":12,"L_den":24,"R_num":9,"R_den":15,"correct_side":2,"subjID":"lauracatalinaacosta5","gender":"1","school":"6","age":"10"},{"start_time":1551899781516,"click_time":1551899782764,"finger_time":1551899782364,"fix_duration":648.261422057914,"trial":34,"RT":848,"MT":400,"sideResp":2,"stimulus":[],"xmouse":[763,763,763,763,763,763,763,763,763,763,763,763,763,763,763,763,763,763,763,763,763,763,763,763,763,763,763,763,763,763,763,763,763,763,763,763,763,763,763,763,763,805,880,905,922,930,944,964,972,980,985,990,996,997,997,997,998,1011,1020,1030,1041,1051,1071],"ymouse":[553,553,553,553,553,553,553,553,553,553,553,553,553,553,553,553,553,553,553,553,553,553,553,553,553,553,553,553,553,553,553,553,553,553,553,553,553,553,553,553,553,495,384,350,326,311,290,262,250,235,222,208,183,175,167,155,141,112,102,93,86,81,72],"timestamp_mouse":[12,33,48,68,89,108,128,148,168,188,208,229,248,268,289,308,329,349,368,388,408,428,449,468,488,508,529,548,568,588,608,628,648,668,688,708,728,748,768,789,808,828,848,868,889,909,928,949,968,988,1008,1028,1048,1068,1088,1109,1129,1148,1168,1188,1209,1228,1248],"xSR":741.5,"ySR":469.95,"xT1":424.9,"yT1":0,"xT2":1058.1,"yT2":0,"toosoon":0,"cond_shown":"Incongruent","ratio_trial":300,"L_num":13,"L_den":26,"R_num":12,"R_den":15,"correct_side":2,"subjID":"lauracatalinaacosta5","gender":"1","school":"6","age":"10"},{"start_time":1551899785932,"click_time":1551899787685,"finger_time":1551899787064,"fix_duration":325.8252610624486,"trial":35,"RT":1132,"MT":621,"sideResp":1,"stimulus":[],"xmouse":[802,802,802,802,802,802,802,802,802,802,802,802,802,802,802,802,802,802,800,799,795,792,790,790,790,790,790,790,790,790,790,790,790,790,790,790,790,790,790,790,790,790,790,790,790,790,790,790,790,790,790,790,790,788,782,768,757,748,748,748,748,748,748,746,706,649,547,538,538,538,538,536,533,530,529,529,529,529,529,529,529,529,529,529,529,529,529,519],"ymouse":[520,520,520,520,520,520,520,520,520,520,520,520,520,520,520,520,520,520,520,520,520,519,518,518,518,518,518,518,518,517,517,517,517,517,517,517,517,517,517,517,517,517,517,517,517,517,517,517,517,517,517,517,517,517,502,473,452,438,438,438,438,438,438,431,333,247,117,101,99,99,99,86,73,61,53,51,51,51,51,51,51,51,51,51,51,51,51,52],"timestamp_mouse":[18,33,52,73,92,112,132,152,172,192,212,232,252,272,292,312,332,352,372,392,412,432,452,473,492,512,532,552,573,592,612,632,652,672,693,712,732,752,772,792,812,832,852,872,892,912,932,952,972,992,1012,1032,1052,1073,1092,1113,1132,1153,1172,1192,1212,1232,1253,1272,1292,1312,1332,1352,1372,1392,1412,1433,1452,1473,1492,1513,1533,1552,1573,1592,1612,1633,1652,1672,1692,1712,1732,1753],"xSR":741.5,"ySR":469.95,"xT1":424.9,"yT1":0,"xT2":1058.1,"yT2":0,"toosoon":0,"cond_shown":"Congruent","ratio_trial":100,"L_num":2,"L_den":5,"R_num":6,"R_den":12,"correct_side":2,"subjID":"lauracatalinaacosta5","gender":"1","school":"6","age":"10"},{"start_time":1551899789590,"click_time":1551899791284,"finger_time":1551899790984,"fix_duration":924.4289012457893,"trial":36,"RT":1394,"MT":300,"sideResp":1,"stimulus":[],"xmouse":[800,800,800,800,800,800,800,800,800,800,800,800,800,800,800,800,800,800,800,800,800,800,800,800,800,800,800,800,800,800,800,800,800,800,800,800,800,800,800,800,800,800,800,800,800,800,800,800,800,800,800,800,800,800,800,800,800,800,800,800,800,800,800,800,800,800,800,797,794,715,683,671,667,665,658,648,631,614,599,577,576,573,569,561,488],"ymouse":[513,513,513,513,513,513,513,513,513,513,513,513,513,513,513,513,513,513,513,513,513,513,513,513,513,513,513,513,513,513,513,513,513,513,513,513,513,513,513,513,513,513,513,513,513,513,513,513,513,513,513,513,513,513,513,513,513,513,513,513,513,513,513,513,513,513,513,512,510,326,246,218,210,205,200,189,168,145,127,108,107,107,105,103,81],"timestamp_mouse":[15,39,54,75,94,115,134,154,175,195,214,234,254,275,295,314,334,354,375,394,414,434,454,475,494,515,534,554,575,594,615,634,654,674,695,714,734,754,774,795,814,834,854,874,895,914,935,954,974,995,1014,1034,1054,1074,1095,1114,1134,1154,1174,1195,1214,1235,1254,1274,1294,1315,1334,1354,1374,1394,1414,1434,1455,1474,1495,1514,1534,1554,1575,1594,1614,1635,1655,1675,1694],"xSR":741.5,"ySR":469.95,"xT1":424.9,"yT1":0,"xT2":1058.1,"yT2":0,"toosoon":0,"cond_shown":"Congruent","ratio_trial":200,"L_num":8,"L_den":15,"R_num":3,"R_den":9,"correct_side":1,"subjID":"lauracatalinaacosta5","gender":"1","school":"6","age":"10"},{"start_time":1551899792668,"click_time":1551899794364,"finger_time":1551899794184,"fix_duration":521.006932507856,"trial":37,"RT":1516,"MT":180,"sideResp":1,"stimulus":[],"xmouse":[803,803,803,803,803,803,803,803,803,803,803,803,803,803,803,803,803,803,803,803,803,803,803,803,803,803,803,803,803,803,803,803,803,803,803,803,803,803,803,803,803,803,803,803,803,803,803,803,803,803,803,803,803,803,803,803,803,803,803,803,803,803,803,803,803,803,803,803,803,803,803,803,803,803,802,743,669,598,557,547,547,545,536,508,492],"ymouse":[514,514,514,514,514,514,514,514,514,514,514,514,514,514,514,514,514,514,514,514,514,514,514,514,514,514,514,514,514,514,514,514,514,514,514,514,514,514,514,514,514,514,514,514,514,514,514,514,514,514,514,514,514,514,514,514,514,514,514,514,514,514,514,514,514,514,514,514,514,514,514,514,514,514,512,432,331,250,204,190,189,187,161,107,81],"timestamp_mouse":[16,43,56,76,96,116,136,156,176,196,216,236,256,276,296,316,336,356,376,396,417,436,456,476,496,516,536,556,576,596,616,636,656,676,696,716,736,756,776,796,817,836,856,877,896,917,937,956,976,996,1016,1036,1056,1076,1096,1116,1136,1156,1176,1196,1217,1236,1256,1276,1296,1316,1337,1356,1376,1400,1416,1436,1456,1476,1496,1516,1537,1557,1577,1596,1616,1636,1656,1676,1696],"xSR":741.5,"ySR":469.95,"xT1":424.9,"yT1":0,"xT2":1058.1,"yT2":0,"toosoon":0,"cond_shown":"Incongruent","ratio_trial":100,"L_num":6,"L_den":10,"R_num":7,"R_den":14,"correct_side":1,"subjID":"lauracatalinaacosta5","gender":"1","school":"6","age":"10"},{"start_time":1551899796277,"click_time":1551899798104,"finger_time":1551899797425,"fix_duration":890.4871923177421,"trial":38,"RT":1148,"MT":679,"sideResp":2,"stimulus":[],"xmouse":[804,804,804,804,804,804,804,804,804,804,804,804,804,804,804,804,804,804,804,804,804,804,804,804,804,804,804,804,804,804,804,804,804,804,804,804,804,804,804,804,804,804,804,804,804,804,804,804,804,804,804,804,804,804,804,804,816,856,864,868,868,881,903,918,928,958,970,984,999,1011,1021,1038,1041,1042,1046,1049,1049,1049,1050,1050,1050,1050,1050,1050,1050,1050,1050,1050,1050,1050,1050,1071],"ymouse":[516,516,516,516,516,516,516,516,516,516,516,516,516,516,516,516,516,516,516,516,516,516,516,516,516,516,516,516,516,516,516,516,516,516,516,516,516,516,516,516,516,516,516,516,516,516,516,516,516,516,516,515,515,515,515,515,486,405,377,367,366,342,293,258,227,168,149,129,113,104,95,81,79,77,75,75,75,75,75,75,75,75,75,75,75,75,75,75,75,75,75,72],"timestamp_mouse":[11,38,47,67,87,108,127,148,167,188,208,227,247,267,287,307,327,347,368,387,407,427,447,467,487,507,527,548,567,587,608,627,647,668,687,707,727,747,767,787,807,827,848,867,888,907,928,947,967,987,1009,1028,1047,1067,1087,1108,1128,1148,1168,1187,1208,1227,1248,1267,1287,1309,1327,1347,1368,1387,1407,1427,1447,1468,1488,1507,1527,1547,1567,1587,1609,1627,1647,1668,1688,1708,1727,1747,1767,1788,1807,1827],"xSR":741.5,"ySR":469.95,"xT1":424.9,"yT1":0,"xT2":1058.1,"yT2":0,"toosoon":0,"cond_shown":"Incongruent","ratio_trial":300,"L_num":13,"L_den":26,"R_num":12,"R_den":15,"correct_side":2,"subjID":"lauracatalinaacosta5","gender":"1","school":"6","age":"10"},{"start_time":1551899800146,"click_time":1551899801264,"finger_time":1551899801085,"fix_duration":1341.1490628087895,"trial":39,"RT":939,"MT":179,"sideResp":2,"stimulus":[],"xmouse":[780,780,780,780,780,780,780,780,780,780,780,780,780,780,780,780,780,780,780,780,780,780,780,780,780,780,780,780,780,780,780,780,780,780,780,780,780,811,816,816,816,816,816,816,821,834,880,952,984,1007,1022,1030,1037,1039,1048,1061],"ymouse":[546,546,546,546,546,546,546,546,546,546,546,546,546,546,546,546,546,546,546,546,546,546,546,546,546,546,546,546,546,546,546,546,546,546,546,546,546,507,498,498,498,498,498,498,491,475,420,314,233,180,142,117,94,88,76,60],"timestamp_mouse":[18,38,59,78,98,118,138,158,178,198,218,238,259,278,298,318,338,358,378,398,418,438,459,478,499,518,538,558,578,599,619,638,658,678,698,718,738,758,779,798,818,838,858,878,898,918,939,958,979,998,1019,1038,1058,1078,1098,1118],"xSR":741.5,"ySR":469.95,"xT1":424.9,"yT1":0,"xT2":1058.1,"yT2":0,"toosoon":0,"cond_shown":"Congruent","ratio_trial":200,"L_num":5,"L_den":10,"R_num":14,"R_den":20,"correct_side":2,"subjID":"lauracatalinaacosta5","gender":"1","school":"6","age":"10"},{"start_time":1551899802922,"click_time":1551899804447,"finger_time":1551899803844,"fix_duration":936.408148698944,"trial":40,"RT":922,"MT":603,"sideResp":2,"stimulus":[],"xmouse":[790,790,790,790,790,790,790,790,790,790,790,790,790,790,790,790,790,790,790,790,790,790,790,790,790,790,790,790,790,790,790,790,790,790,790,790,790,790,790,790,790,790,790,790,790,841,870,876,876,876,876,876,876,876,876,876,876,876,876,876,876,876,876,876,876,876,876,861,842,836,836,836,836,854,990,1055,1095],"ymouse":[538,538,538,538,538,538,538,538,538,538,538,538,538,538,538,538,538,538,538,538,538,538,538,538,538,538,538,538,538,538,538,538,538,538,538,538,538,538,538,538,538,538,538,538,531,483,469,464,464,464,464,464,464,464,464,464,464,464,464,464,464,464,464,464,464,464,464,482,509,517,517,517,511,475,242,109,2],"timestamp_mouse":[18,25,45,62,82,102,122,142,162,182,202,222,242,262,282,303,322,342,362,382,403,422,442,463,482,502,522,542,562,582,602,622,642,663,682,702,722,742,763,782,802,822,842,862,883,902,922,942,962,983,1002,1022,1042,1064,1084,1104,1124,1144,1163,1184,1203,1224,1244,1264,1284,1303,1323,1344,1365,1384,1404,1424,1444,1465,1485,1503,1524],"xSR":741.5,"ySR":469.95,"xT1":424.9,"yT1":0,"xT2":1058.1,"yT2":0,"toosoon":0,"cond_shown":"Incongruent","ratio_trial":300,"L_num":4,"L_den":20,"R_num":2,"R_den":4,"correct_side":2,"subjID":"lauracatalinaacosta5","gender":"1","school":"6","age":"10"},{"start_time":1551899806596,"click_time":1551899808267,"finger_time":1551899808006,"fix_duration":1129.2335508929687,"trial":41,"RT":1410,"MT":261,"sideResp":1,"stimulus":[],"xmouse":[798,798,798,798,798,798,798,798,798,798,798,798,798,798,798,798,798,798,798,798,798,798,798,798,798,798,798,798,798,798,798,798,798,798,798,798,798,798,798,798,798,798,798,798,798,798,798,798,798,798,798,798,798,798,798,798,798,798,798,798,798,798,798,798,798,798,798,798,798,787,770,653,626,616,614,614,605,588,570,558,555,551,531,480],"ymouse":[516,516,516,516,516,516,516,516,516,516,516,516,516,516,516,516,516,516,516,516,516,516,516,516,516,516,516,516,516,516,516,516,516,516,516,516,516,516,516,516,516,516,516,516,516,516,516,516,516,516,516,516,516,516,516,516,516,516,516,516,516,516,516,516,516,516,516,516,516,473,434,233,190,171,168,168,152,129,110,99,97,95,85,64],"timestamp_mouse":[10,36,49,70,90,110,130,150,170,191,209,230,250,269,290,310,329,349,369,389,410,430,450,470,490,510,530,549,569,589,610,631,649,670,689,710,730,751,770,791,809,830,850,870,889,909,931,949,970,990,1010,1029,1050,1070,1089,1109,1131,1151,1170,1190,1209,1231,1249,1269,1289,1310,1330,1350,1371,1390,1410,1430,1450,1471,1489,1509,1530,1549,1570,1589,1610,1630,1650,1671],"xSR":741.5,"ySR":469.95,"xT1":424.9,"yT1":0,"xT2":1058.1,"yT2":0,"toosoon":0,"cond_shown":"Incongruent","ratio_trial":200,"L_num":7,"L_den":10,"R_num":12,"R_den":24,"correct_side":1,"subjID":"lauracatalinaacosta5","gender":"1","school":"6","age":"10"},{"start_time":1551899809479,"click_time":1551899810726,"finger_time":1551899810345,"fix_duration":250,"trial":42,"RT":866,"MT":381,"sideResp":1,"stimulus":[],"xmouse":[793,793,793,793,793,793,793,793,793,793,793,793,793,793,793,793,793,793,793,793,793,793,793,793,793,793,793,793,793,793,793,793,793,793,793,793,793,793,793,793,793,792,757,697,630,567,522,518,518,518,518,518,521,522,522,522,522,522,522,521,518,513,504],"ymouse":[524,524,524,524,524,524,524,524,524,524,524,524,524,524,524,524,524,524,524,524,524,524,524,524,524,524,524,524,524,524,524,524,524,524,524,524,524,524,524,524,524,518,486,446,392,345,304,298,298,295,287,278,260,242,213,202,177,159,155,147,138,124,96],"timestamp_mouse":[11,31,47,67,87,107,127,148,167,187,207,226,248,267,286,3