[{"start_time":1551900146236,"click_time":1551900147503,"finger_time":1551900147202,"fix_duration":810.9260308509107,"trial":0,"RT":966,"MT":301,"sideResp":2,"stimulus":"img/750/equaldotanddens/R/4_Ratio_750_L_15_R_20.png","xmouse":[764,764,764,764,764,764,764,764,764,764,764,764,764,764,764,764,764,764,764,764,764,764,764,764,764,764,764,764,764,764,764,764,764,764,764,764,764,764,764,764,764,764,764,764,764,764,769,780,810,843,863,892,910,929,938,943,946,950,958,967,997,997,997,1060],"ymouse":[545,545,545,545,545,545,545,545,545,545,545,545,545,545,545,545,545,545,545,545,545,545,545,545,545,545,545,545,545,545,545,545,545,545,545,545,545,545,545,545,545,545,545,545,545,545,541,521,455,382,336,241,171,103,63,39,31,25,17,10,0,0,0,2],"timestamp_mouse":[9,41,46,66,86,105,126,146,166,186,206,226,246,266,286,307,326,346,366,386,406,426,446,466,486,506,526,546,565,585,606,626,646,666,686,706,726,745,766,786,806,826,845,865,886,907,925,946,965,987,1007,1026,1046,1067,1087,1105,1125,1146,1167,1186,1207,1227,1246,1267],"xSR":741.5,"ySR":501.8,"xT1":424.9,"yT1":0,"xT2":1058.1,"yT2":0,"toosoon":0,"cond_shown":"equaldotanddens","ratio_trial":750,"smaller_num":"15","larger_num":"20","correct_side":2,"subjID":"lauracatalina5","gender":"1","age":"10","school":"6","test":{"fix_dur":[250,1500],"timestim":300,"targets_dim":[100,100],"targets_relative_coord":[0.3,0.7],"size_stim":[880,420],"start_dim":[100,100],"size_start":[300,300],"size_fix":60,"samplingrate":20,"img_types":["equaldotsize","equaldotanddens","randomdotsizeEA"],"ratios":[250,500,750,900],"rep_conds":9,"nTrials":120,"trials_to_rest":500,"Trials_order":[67,49,48,102,0,51,7,17,114,80,14,60,87,64,104,61,77,21,6,44,69,83,57,106,75,35,84,98,13,42,47,33,70,116,3,71,11,90,119,56,54,26,89,53,82,52,34,29,2,112,36,81,5,38,103,39,32,79,86,100,118,115,43,30,27,16,96,91,58,93,88,73,22,41,4,76,111,55,65,24,105,94,1,117,40,72,110,101,59,9,108,8,20,78,15,92,66,97,99,63,10,107,45,12,62,113,50,68,95,23,85,18,25,74,31,37,46,19,28,109],"cond_shown":["equaldotanddens","equaldotanddens","equaldotsize","equaldotsize","equaldotsize","equaldotsize","equaldotanddens","randomdotsizeEA","equaldotsize","randomdotsizeEA","randomdotsizeEA","equaldotsize","equaldotsize","equaldotanddens","randomdotsizeEA","equaldotanddens","randomdotsizeEA","equaldotsize","equaldotsize","randomdotsizeEA","equaldotsize","randomdotsizeEA","equaldotsize","equaldotanddens","equaldotsize","randomdotsizeEA","equaldotsize","randomdotsizeEA","equaldotanddens","equaldotsize","randomdotsizeEA","equaldotsize","equaldotanddens","randomdotsizeEA","equaldotsize","randomdotsizeEA","randomdotsizeEA","equaldotsize","randomdotsizeEA","randomdotsizeEA","equaldotsize","randomdotsizeEA","randomdotsizeEA","randomdotsizeEA","equaldotanddens","equaldotanddens","equaldotanddens","randomdotsizeEA","randomdotsizeEA","equaldotanddens","equaldotsize","equaldotsize","randomdotsizeEA","randomdotsizeEA","equaldotanddens","equaldotsize","randomdotsizeEA","equaldotanddens","randomdotsizeEA","equaldotanddens","equaldotanddens","equaldotanddens","equaldotanddens","equaldotsize","equaldotsize","equaldotanddens","equaldotsize","equaldotanddens","equaldotanddens","equaldotsize","equaldotanddens","equaldotanddens","equaldotanddens","randomdotsizeEA","equaldotanddens","equaldotanddens","equaldotsize","equaldotanddens","randomdotsizeEA","equaldotsize","equaldotsize","equaldotanddens","equaldotanddens","equaldotsize","equaldotanddens","equaldotsize","randomdotsizeEA","randomdotsizeEA","randomdotsizeEA","equaldotsize","equaldotsize","randomdotsizeEA","randomdotsizeEA","equaldotsize","equaldotsize","randomdotsizeEA","equaldotsize","equaldotanddens","equaldotsize","equaldotsize","equaldotanddens","randomdotsizeEA","equaldotsize","equaldotsize","randomdotsizeEA","randomdotsizeEA","randomdotsizeEA","randomdotsizeEA","randomdotsizeEA","randomdotsizeEA","equaldotanddens","equaldotsize","equaldotanddens","randomdotsizeEA","equaldotanddens","equaldotanddens","equaldotanddens","equaldotanddens","equaldotanddens","equaldotanddens"],"ratio_trial":[750,250,250,750,250,500,750,500,750,750,250,250,500,500,750,250,500,900,750,750,900,900,900,900,500,900,250,250,250,750,900,900,900,750,500,900,900,750,900,750,750,250,500,500,900,500,900,500,250,500,250,900,500,250,750,500,750,750,250,500,900,750,750,750,500,500,250,750,900,900,500,250,900,500,500,500,500,750,500,250,900,900,250,900,500,250,250,500,900,900,250,750,750,750,500,750,750,250,500,500,900,900,900,250,250,500,250,750,900,900,250,750,250,250,750,250,900,750,500,250],"smaller_num":["15","3","6","3","2","1","15","6","6","6","3","1","5","1","15","2","2","9","15","12","18","18","18","18","3","18","2","2","4","3","9","18","9","3","1","18","18","18","9","3","6","4","1","2","18","6","18","9","4","5","2","18","9","3","12","1","6","15","2","1","18","12","15","15","1","1","3","15","18","9","2","6","18","9","9","2","5","6","3","6","18","18","2","9","1","3","2","9","9","18","2","18","6","3","9","3","3","3","6","3","18","9","18","2","6","5","6","12","18","9","4","12","2","1","3","2","18","15","2","2"],"larger_num":["20","12","24","4","8","2","20","12","8","8","12","4","10","2","20","8","4","10","20","16","20","20","20","20","6","20","8","8","16","4","10","20","10","4","2","20","20","24","10","4","8","16","2","4","20","12","20","18","16","10","8","20","18","12","16","2","8","20","8","2","20","16","20","20","2","2","12","20","20","10","4","24","20","18","18","4","10","8","6","24","20","20","8","10","2","12","8","18","10","20","8","24","8","4","18","4","4","12","12","6","20","10","20","8","24","10","24","16","20","10","16","16","8","4","4","8","20","20","4","8"],"correct_side":[2,2,2,1,1,2,2,1,2,2,2,2,1,2,2,1,1,2,2,2,1,1,1,2,2,1,1,1,1,1,1,1,2,1,2,2,1,1,2,1,1,2,2,1,2,1,1,2,2,2,1,1,1,2,2,2,2,2,1,2,1,2,2,2,2,2,2,2,1,1,1,1,1,2,2,1,1,2,2,1,1,1,2,2,2,2,2,2,2,1,1,1,1,1,2,2,1,1,1,2,1,2,1,1,1,2,1,2,1,2,1,2,1,2,1,1,2,1,2,1],"img_shown":["img/750/equaldotanddens/R/4_Ratio_750_L_15_R_20.png","img/250/equaldotanddens/R/9_Ratio_250_L_3_R_12.png","img/250/equaldotsize/R/6_Ratio_250_L_6_R_24.png","img/750/equaldotsize/L/9_Ratio_750_L_4_R_3.png","img/250/equaldotsize/L/1_Ratio_250_L_8_R_2.png","img/500/equaldotsize/R/15_Ratio_500_L_1_R_2.png","img/750/equaldotanddens/R/5_Ratio_750_L_15_R_20.png","img/500/randomdotsizeEA/L/11_Ratio_500_L_12_R_6.png","img/750/equaldotsize/R/2_Ratio_750_L_6_R_8.png","img/750/randomdotsizeEA/R/2_Ratio_750_L_6_R_8.png","img/250/randomdotsizeEA/R/11_Ratio_250_L_3_R_12.png","img/250/equaldotsize/R/8_Ratio_250_L_1_R_4.png","img/500/equaldotsize/L/7_Ratio_500_L_10_R_5.png","img/500/equaldotanddens/R/12_Ratio_500_L_1_R_2.png","img/750/randomdotsizeEA/R/5_Ratio_750_L_15_R_20.png","img/250/equaldotanddens/L/7_Ratio_250_L_8_R_2.png","img/500/randomdotsizeEA/L/5_Ratio_500_L_4_R_2.png","img/900/equaldotsize/R/7_Ratio_900_L_9_R_10.png","img/750/equaldotsize/R/4_Ratio_750_L_15_R_20.png","img/750/randomdotsizeEA/R/11_Ratio_750_L_12_R_16.png","img/900/equaldotsize/L/4_Ratio_900_L_20_R_18.png","img/900/randomdotsizeEA/L/4_Ratio_900_L_20_R_18.png","img/900/equaldotsize/L/2_Ratio_900_L_20_R_18.png","img/900/equaldotanddens/R/14_Ratio_900_L_18_R_20.png","img/500/equaldotsize/R/2_Ratio_500_L_3_R_6.png","img/900/randomdotsizeEA/L/10_Ratio_900_L_20_R_18.png","img/250/equaldotsize/L/3_Ratio_250_L_8_R_2.png","img/250/randomdotsizeEA/L/1_Ratio_250_L_8_R_2.png","img/250/equaldotanddens/L/2_Ratio_250_L_16_R_4.png","img/750/equaldotsize/L/10_Ratio_750_L_4_R_3.png","img/900/randomdotsizeEA/L/1_Ratio_900_L_10_R_9.png","img/900/equaldotsize/L/10_Ratio_900_L_20_R_18.png","img/900/equaldotanddens/R/15_Ratio_900_L_9_R_10.png","img/750/randomdotsizeEA/L/8_Ratio_750_L_4_R_3.png","img/500/equaldotsize/R/15_Ratio_500_L_1_R_2.png","img/900/randomdotsizeEA/R/9_Ratio_900_L_18_R_20.png","img/900/randomdotsizeEA/L/10_Ratio_900_L_20_R_18.png","img/750/equaldotsize/L/6_Ratio_750_L_24_R_18.png","img/900/randomdotsizeEA/R/5_Ratio_900_L_9_R_10.png","img/750/randomdotsizeEA/L/10_Ratio_750_L_4_R_3.png","img/750/equaldotsize/L/14_Ratio_750_L_8_R_6.png","img/250/randomdotsizeEA/R/10_Ratio_250_L_4_R_16.png","img/500/randomdotsizeEA/R/15_Ratio_500_L_1_R_2.png","img/500/randomdotsizeEA/L/10_Ratio_500_L_4_R_2.png","img/900/equaldotanddens/R/12_Ratio_900_L_18_R_20.png","img/500/equaldotanddens/L/11_Ratio_500_L_12_R_6.png","img/900/equaldotanddens/L/8_Ratio_900_L_20_R_18.png","img/500/randomdotsizeEA/R/1_Ratio_500_L_9_R_18.png","img/250/randomdotsizeEA/R/10_Ratio_250_L_4_R_16.png","img/500/equaldotanddens/R/14_Ratio_500_L_5_R_10.png","img/250/equaldotsize/L/7_Ratio_250_L_8_R_2.png","img/900/equaldotsize/L/2_Ratio_900_L_20_R_18.png","img/500/randomdotsizeEA/L/4_Ratio_500_L_18_R_9.png","img/250/randomdotsizeEA/R/9_Ratio_250_L_3_R_12.png","img/750/equaldotanddens/R/11_Ratio_750_L_12_R_16.png","img/500/equaldotsize/R/12_Ratio_500_L_1_R_2.png","img/750/randomdotsizeEA/R/2_Ratio_750_L_6_R_8.png","img/750/equaldotanddens/R/3_Ratio_750_L_15_R_20.png","img/250/randomdotsizeEA/L/3_Ratio_250_L_8_R_2.png","img/500/equaldotanddens/R/12_Ratio_500_L_1_R_2.png","img/900/equaldotanddens/L/4_Ratio_900_L_20_R_18.png","img/750/equaldotanddens/R/11_Ratio_750_L_12_R_16.png","img/750/equaldotanddens/R/3_Ratio_750_L_15_R_20.png","img/750/equaldotsize/R/5_Ratio_750_L_15_R_20.png","img/500/equaldotsize/R/12_Ratio_500_L_1_R_2.png","img/500/equaldotanddens/R/15_Ratio_500_L_1_R_2.png","img/250/equaldotsize/R/11_Ratio_250_L_3_R_12.png","img/750/equaldotanddens/R/4_Ratio_750_L_15_R_20.png","img/900/equaldotanddens/L/8_Ratio_900_L_20_R_18.png","img/900/equaldotsize/L/1_Ratio_900_L_10_R_9.png","img/500/equaldotanddens/L/5_Ratio_500_L_4_R_2.png","img/250/equaldotanddens/L/5_Ratio_250_L_24_R_6.png","img/900/equaldotanddens/L/2_Ratio_900_L_20_R_18.png","img/500/randomdotsizeEA/R/6_Ratio_500_L_9_R_18.png","img/500/equaldotanddens/R/1_Ratio_500_L_9_R_18.png","img/500/equaldotanddens/L/5_Ratio_500_L_4_R_2.png","img/500/equaldotsize/L/7_Ratio_500_L_10_R_5.png","img/750/equaldotanddens/R/2_Ratio_750_L_6_R_8.png","img/500/randomdotsizeEA/R/2_Ratio_500_L_3_R_6.png","img/250/equaldotsize/L/5_Ratio_250_L_24_R_6.png","img/900/equaldotsize/L/4_Ratio_900_L_20_R_18.png","img/900/equaldotanddens/L/4_Ratio_900_L_20_R_18.png","img/250/equaldotanddens/R/13_Ratio_250_L_2_R_8.png","img/900/equaldotsize/R/6_Ratio_900_L_9_R_10.png","img/500/equaldotanddens/R/15_Ratio_500_L_1_R_2.png","img/250/equaldotsize/R/9_Ratio_250_L_3_R_12.png","img/250/randomdotsizeEA/R/13_Ratio_250_L_2_R_8.png","img/500/randomdotsizeEA/R/1_Ratio_500_L_9_R_18.png","img/900/randomdotsizeEA/R/15_Ratio_900_L_9_R_10.png","img/900/equaldotsize/L/10_Ratio_900_L_20_R_18.png","img/250/equaldotsize/L/1_Ratio_250_L_8_R_2.png","img/750/randomdotsizeEA/L/6_Ratio_750_L_24_R_18.png","img/750/randomdotsizeEA/L/13_Ratio_750_L_8_R_6.png","img/750/equaldotsize/L/9_Ratio_750_L_4_R_3.png","img/500/equaldotsize/R/6_Ratio_500_L_9_R_18.png","img/750/randomdotsizeEA/R/12_Ratio_750_L_3_R_4.png","img/750/equaldotsize/L/10_Ratio_750_L_4_R_3.png","img/250/equaldotanddens/L/14_Ratio_250_L_12_R_3.png","img/500/equaldotsize/L/13_Ratio_500_L_12_R_6.png","img/500/equaldotsize/R/2_Ratio_500_L_3_R_6.png","img/900/equaldotanddens/L/2_Ratio_900_L_20_R_18.png","img/900/randomdotsizeEA/R/5_Ratio_900_L_9_R_10.png","img/900/equaldotsize/L/2_Ratio_900_L_20_R_18.png","img/250/equaldotsize/L/1_Ratio_250_L_8_R_2.png","img/250/randomdotsizeEA/L/5_Ratio_250_L_24_R_6.png","img/500/randomdotsizeEA/R/14_Ratio_500_L_5_R_10.png","img/250/randomdotsizeEA/L/5_Ratio_250_L_24_R_6.png","img/750/randomdotsizeEA/R/11_Ratio_750_L_12_R_16.png","img/900/randomdotsizeEA/L/8_Ratio_900_L_20_R_18.png","img/900/randomdotsizeEA/R/5_Ratio_900_L_9_R_10.png","img/250/equaldotanddens/L/2_Ratio_250_L_16_R_4.png","img/750/equaldotsize/R/11_Ratio_750_L_12_R_16.png","img/250/equaldotanddens/L/7_Ratio_250_L_8_R_2.png","img/250/randomdotsizeEA/R/8_Ratio_250_L_1_R_4.png","img/750/equaldotanddens/L/8_Ratio_750_L_4_R_3.png","img/250/equaldotanddens/L/3_Ratio_250_L_8_R_2.png","img/900/equaldotanddens/R/9_Ratio_900_L_18_R_20.png","img/750/equaldotanddens/L/1_Ratio_750_L_20_R_15.png","img/500/equaldotanddens/R/9_Ratio_500_L_2_R_4.png","img/250/equaldotanddens/L/3_Ratio_250_L_8_R_2.png"],"Rat0":[["12_Ratio_0_L_9_R_0.png","13_Ratio_0_L_6_R_0.png","5_Ratio_0_L_2_R_0.png","6_Ratio_0_L_4_R_0.png","8_Ratio_0_L_6_R_0.png"],["1_Ratio_0_L_0_R_17.png","10_Ratio_0_L_0_R_22.png","11_Ratio_0_L_0_R_1.png","14_Ratio_0_L_0_R_24.png","15_Ratio_0_L_0_R_4.png","2_Ratio_0_L_0_R_5.png","3_Ratio_0_L_0_R_17.png","4_Ratio_0_L_0_R_7.png","7_Ratio_0_L_0_R_19.png","9_Ratio_0_L_0_R_15.png"]],"Rat250":[["1_Ratio_250_L_8_R_2.png","14_Ratio_250_L_12_R_3.png","15_Ratio_250_L_12_R_3.png","2_Ratio_250_L_16_R_4.png","3_Ratio_250_L_8_R_2.png","5_Ratio_250_L_24_R_6.png","7_Ratio_250_L_8_R_2.png"],["10_Ratio_250_L_4_R_16.png","11_Ratio_250_L_3_R_12.png","12_Ratio_250_L_5_R_20.png","13_Ratio_250_L_2_R_8.png","4_Ratio_250_L_3_R_12.png","6_Ratio_250_L_6_R_24.png","8_Ratio_250_L_1_R_4.png","9_Ratio_250_L_3_R_12.png"]],"Rat500":[["10_Ratio_500_L_4_R_2.png","11_Ratio_500_L_12_R_6.png","13_Ratio_500_L_12_R_6.png","4_Ratio_500_L_18_R_9.png","5_Ratio_500_L_4_R_2.png","7_Ratio_500_L_10_R_5.png","8_Ratio_500_L_8_R_4.png"],["1_Ratio_500_L_9_R_18.png","12_Ratio_500_L_1_R_2.png","14_Ratio_500_L_5_R_10.png","15_Ratio_500_L_1_R_2.png","2_Ratio_500_L_3_R_6.png","3_Ratio_500_L_10_R_20.png","6_Ratio_500_L_9_R_18.png","9_Ratio_500_L_2_R_4.png"]],"Rat750":[["1_Ratio_750_L_20_R_15.png","10_Ratio_750_L_4_R_3.png","13_Ratio_750_L_8_R_6.png","14_Ratio_750_L_8_R_6.png","6_Ratio_750_L_24_R_18.png","8_Ratio_750_L_4_R_3.png","9_Ratio_750_L_4_R_3.png"],["11_Ratio_750_L_12_R_16.png","12_Ratio_750_L_3_R_4.png","15_Ratio_750_L_9_R_12.png","2_Ratio_750_L_6_R_8.png","3_Ratio_750_L_15_R_20.png","4_Ratio_750_L_15_R_20.png","5_Ratio_750_L_15_R_20.png","7_Ratio_750_L_3_R_4.png"]],"Rat900":[["1_Ratio_900_L_10_R_9.png","10_Ratio_900_L_20_R_18.png","2_Ratio_900_L_20_R_18.png","4_Ratio_900_L_20_R_18.png","8_Ratio_900_L_20_R_18.png"],["11_Ratio_900_L_18_R_20.png","12_Ratio_900_L_18_R_20.png","13_Ratio_900_L_18_R_20.png","14_Ratio_900_L_18_R_20.png","15_Ratio_900_L_9_R_10.png","3_Ratio_900_L_9_R_10.png","5_Ratio_900_L_9_R_10.png","6_Ratio_900_L_9_R_10.png","7_Ratio_900_L_9_R_10.png","9_Ratio_900_L_18_R_20.png"]],"Rat1000":[["10_Ratio_1000_L_16_R_16.png","11_Ratio_1000_L_6_R_6.png","12_Ratio_1000_L_14_R_14.png","13_Ratio_1000_L_20_R_20.png","15_Ratio_1000_L_15_R_15.png","2_Ratio_1000_L_17_R_17.png","4_Ratio_1000_L_9_R_9.png","5_Ratio_1000_L_6_R_6.png","6_Ratio_1000_L_19_R_19.png","8_Ratio_1000_L_14_R_14.png","9_Ratio_1000_L_25_R_25.png"],["1_Ratio_1000_L_1_R_1.png","14_Ratio_1000_L_17_R_17.png","3_Ratio_1000_L_17_R_17.png","7_Ratio_1000_L_6_R_6.png"]]}},{"start_time":1551900149399,"click_time":1551900150422,"finger_time":1551900150001,"fix_duration":1034.114885323822,"trial":1,"RT":602,"MT":421,"sideResp":2,"stimulus":"img/250/equaldotanddens/R/9_Ratio_250_L_3_R_12.png","xmouse":[793,795,795,794,794,794,794,794,794,794,794,794,794,794,794,794,794,794,794,794,794,794,794,794,794,794,794,794,808,821,854,931,963,976,986,995,1007,1012,1018,1023,1026,1030,1034,1034,1034,1034,1034,1035,1037,1039,1053,1074],"ymouse":[509,515,525,529,530,530,530,530,530,530,530,530,530,530,530,530,530,530,530,530,530,530,530,530,530,530,530,530,508,484,433,321,257,225,189,149,89,76,62,50,44,40,36,36,36,36,36,35,35,35,44,56],"timestamp_mouse":[3,25,43,68,83,103,122,143,163,183,203,223,243,263,283,302,324,343,363,383,402,423,442,463,483,503,524,544,562,583,602,624,643,662,683,703,724,743,763,783,803,823,843,863,883,903,923,943,964,984,1002,1023],"xSR":741.5,"ySR":469.95,"xT1":424.9,"yT1":0,"xT2":1058.1,"yT2":0,"toosoon":0,"cond_shown":"equaldotanddens","ratio_trial":250,"smaller_num":"3","larger_num":"12","correct_side":2,"subjID":"lauracatalina5","gender":"1","age":"10","school":"6"},{"start_time":1551900152332,"click_time":1551900153183,"finger_time":1551900152821,"fix_duration":1309.1168218224966,"trial":2,"RT":489,"MT":362,"sideResp":2,"stimulus":"img/250/equaldotsize/R/6_Ratio_250_L_6_R_24.png","xmouse":[775,775,775,775,775,775,775,775,775,775,775,775,775,775,775,775,775,775,775,775,775,775,775,803,864,916,925,935,948,960,978,982,987,996,1000,1017,1025,1033,1034,1034,1034,1048,1079],"ymouse":[526,526,526,526,526,526,526,526,526,526,526,526,526,526,526,526,526,526,526,526,526,526,526,493,406,307,286,264,232,183,123,111,99,84,80,67,66,66,66,66,66,66,66],"timestamp_mouse":[11,30,50,69,91,110,130,150,170,190,210,231,251,270,289,309,330,350,369,389,411,431,451,470,489,510,529,550,569,590,610,630,650,669,690,710,730,750,770,790,810,831,851],"xSR":741.5,"ySR":469.95,"xT1":424.9,"yT1":0,"xT2":1058.1,"yT2":0,"toosoon":0,"cond_shown":"equaldotsize","ratio_trial":250,"smaller_num":"6","larger_num":"24","correct_side":2,"subjID":"lauracatalina5","gender":"1","age":"10","school":"6"},{"start_time":1551900154879,"click_time":1551900155683,"finger_time":1551900155542,"fix_duration":875.4469117682008,"trial":3,"RT":663,"MT":141,"sideResp":1,"stimulus":"img/750/equaldotsize/L/9_Ratio_750_L_4_R_3.png","xmouse":[781,781,781,781,781,781,781,781,781,781,781,781,781,781,781,781,781,781,781,781,781,781,781,781,781,781,781,781,781,781,781,781,769,711,558,514,498,498,493,486,467],"ymouse":[525,525,525,525,525,525,525,525,525,525,525,525,525,525,525,525,525,525,525,525,525,525,525,525,525,525,525,525,525,525,525,515,477,368,171,130,118,118,117,111,76],"timestamp_mouse":[9,23,43,63,82,103,123,143,163,183,203,224,243,262,283,302,323,344,363,383,403,423,443,463,482,503,523,543,563,583,603,623,643,663,683,704,722,743,764,783,804],"xSR":741.5,"ySR":469.95,"xT1":424.9,"yT1":0,"xT2":1058.1,"yT2":0,"toosoon":0,"cond_shown":"equaldotsize","ratio_trial":750,"smaller_num":"3","larger_num":"4","correct_side":1,"subjID":"lauracatalina5","gender":"1","age":"10","school":"6"},{"start_time":1551900157754,"click_time":1551900158744,"finger_time":1551900158522,"fix_duration":1350.5311620937118,"trial":4,"RT":768,"MT":222,"sideResp":1,"stimulus":"img/250/equaldotsize/L/1_Ratio_250_L_8_R_2.png","xmouse":[797,797,797,797,797,797,797,797,797,797,797,797,797,797,797,797,797,797,797,797,797,797,797,797,797,797,797,797,797,797,797,797,797,797,797,797,797,795,775,735,606,595,595,595,595,593,590,586,576,486],"ymouse":[512,512,512,512,512,512,512,512,512,512,512,512,512,512,512,512,512,512,512,512,512,512,512,512,512,512,512,512,512,512,512,512,512,512,512,512,511,504,424,335,157,147,147,147,147,146,146,145,139,81],"timestamp_mouse":[9,28,49,69,89,107,128,148,168,187,208,229,248,268,289,309,327,348,368,388,408,428,448,468,488,508,528,548,568,588,608,627,648,667,688,709,728,748,768,787,808,828,848,868,887,908,927,948,968,990],"xSR":741.5,"ySR":469.95,"xT1":424.9,"yT1":0,"xT2":1058.1,"yT2":0,"toosoon":0,"cond_shown":"equaldotsize","ratio_trial":250,"smaller_num":"2","larger_num":"8","correct_side":1,"subjID":"lauracatalina5","gender":"1","age":"10","school":"6"},{"start_time":1551900161031,"click_time":1551900162061,"finger_time":1551900161842,"fix_duration":1245.315966859845,"trial":5,"RT":811,"MT":219,"sideResp":2,"stimulus":"img/500/equaldotsize/R/15_Ratio_500_L_1_R_2.png","xmouse":[800,800,800,800,800,800,800,800,800,800,800,800,800,800,800,800,800,800,800,800,800,800,800,800,800,800,800,800,800,800,800,800,800,800,800,800,800,800,800,832,869,924,944,961,983,1026,1056,1066,1071,1073,1074,1074],"ymouse":[500,500,500,500,500,500,500,500,500,500,500,500,500,500,500,500,500,500,500,500,500,500,500,500,500,500,500,500,500,500,500,500,500,500,500,500,500,500,500,470,437,395,376,359,333,268,223,195,173,156,137,98],"timestamp_mouse":[11,30,50,71,91,111,131,151,171,192,210,230,251,271,291,310,331,351,371,391,410,431,451,471,490,511,531,552,571,591,611,631,651,671,690,711,732,751,770,791,811,831,850,870,891,912,931,951,971,992,1010,1030],"xSR":741.5,"ySR":469.95,"xT1":424.9,"yT1":0,"xT2":1058.1,"yT2":0,"toosoon":0,"cond_shown":"equaldotsize","ratio_trial":500,"smaller_num":"1","larger_num":"2","correct_side":2,"subjID":"lauracatalina5","gender":"1","age":"10","school":"6"},{"start_time":1551900163544,"click_time":1551900164663,"finger_time":1551900164521,"fix_duration":641.1941123236588,"trial":6,"RT":977,"MT":142,"sideResp":2,"stimulus":"img/750/equaldotanddens/R/5_Ratio_750_L_15_R_20.png","xmouse":[786,786,786,786,786,786,786,786,786,786,786,786,786,786,786,786,786,786,786,786,786,786,786,786,786,786,786,786,786,786,786,786,786,786,786,786,786,786,786,786,786,786,786,786,786,786,786,798,884,946,983,1017,1035,1048,1057,1063],"ymouse":[529,529,529,529,529,529,529,529,529,529,529,529,529,529,529,529,529,529,529,529,529,529,529,529,529,529,529,529,529,529,529,529,529,529,529,529,529,529,529,529,529,529,529,529,529,529,529,501,427,372,327,253,205,164,131,87],"timestamp_mouse":[18,38,58,78,97,117,137,157,178,198,217,238,258,278,298,318,339,358,378,398,418,439,458,478,498,518,538,557,577,598,619,638,658,678,699,718,738,758,778,797,818,838,858,878,897,917,938,959,977,998,1018,1038,1058,1079,1098,1119],"xSR":741.5,"ySR":469.95,"xT1":424.9,"yT1":0,"xT2":1058.1,"yT2":0,"toosoon":0,"cond_shown":"equaldotanddens","ratio_trial":750,"smaller_num":"15","larger_num":"20","correct_side":2,"subjID":"lauracatalina5","gender":"1","age":"10","school":"6"},{"start_time":1551900166529,"click_time":1551900167882,"finger_time":1551900167601,"fix_duration":1145.2740094911096,"trial":7,"RT":1072,"MT":281,"sideResp":1,"stimulus":"img/500/randomdotsizeEA/L/11_Ratio_500_L_12_R_6.png","xmouse":[780,780,780,780,780,780,780,780,780,780,780,780,780,780,780,780,780,780,780,780,780,780,780,780,780,780,780,780,780,780,780,780,780,780,780,780,780,780,780,780,780,780,780,780,780,780,780,780,780,780,780,776,754,694,623,557,532,525,525,523,519,516,512,511,511,511,511,511],"ymouse":[532,532,532,532,532,532,532,532,532,532,532,532,532,532,532,532,532,532,532,532,532,532,532,532,532,532,532,532,532,532,532,532,532,532,532,532,532,532,532,532,532,532,532,532,532,532,532,532,532,532,532,531,484,372,276,213,176,168,168,167,166,152,135,135,135,135,130,80],"timestamp_mouse":[12,33,61,73,93,113,133,153,173,193,213,233,254,273,293,312,334,353,372,392,413,433,453,473,493,513,534,554,574,593,613,632,654,673,693,714,733,753,773,793,812,834,854,873,893,912,933,954,973,993,1014,1033,1053,1072,1094,1112,1133,1154,1173,1193,1213,1233,1253,1273,1293,1313,1334,1353],"xSR":741.5,"ySR":469.95,"xT1":424.9,"yT1":0,"xT2":1058.1,"yT2":0,"toosoon":0,"cond_shown":"randomdotsizeEA","ratio_trial":500,"smaller_num":"6","larger_num":"12","correct_side":1,"subjID":"lauracatalina5","gender":"1","age":"10","school":"6"},{"start_time":1551900169594,"click_time":1551900170882,"finger_time":1551900170682,"fix_duration":729.9756686371397,"trial":8,"RT":1088,"MT":200,"sideResp":2,"stimulus":"img/750/equaldotsize/R/2_Ratio_750_L_6_R_8.png","xmouse":[766,766,766,766,766,766,766,766,766,766,766,766,766,766,766,766,766,766,766,766,766,766,766,766,766,766,766,766,766,766,766,766,766,766,766,766,766,766,766,766,766,766,766,766,766,766,769,770,770,770,770,770,770,770,818,873,941,983,1014,1074,1096,1120,1133,1135,1139],"ymouse":[511,511,511,511,511,511,511,511,511,511,511,511,511,511,511,511,511,511,511,511,511,511,511,511,511,511,511,511,511,511,511,511,511,511,511,511,511,511,511,511,511,511,511,511,511,506,490,489,489,489,489,489,489,486,438,398,352,320,297,233,202,150,114,105,80],"timestamp_mouse":[9,29,48,68,88,108,127,147,168,188,208,228,247,268,288,309,327,348,368,388,408,427,447,469,489,508,528,548,568,588,608,628,647,668,689,708,728,748,769,788,808,828,848,869,888,908,929,949,968,988,1008,1029,1047,1068,1088,1108,1127,1148,1167,1188,1209,1229,1247,1268,1288],"xSR":741.5,"ySR":469.95,"xT1":424.9,"yT1":0,"xT2":1058.1,"yT2":0,"toosoon":0,"cond_shown":"equaldotsize","ratio_trial":750,"smaller_num":"6","larger_num":"8","correct_side":2,"subjID":"lauracatalina5","gender":"1","age":"10","school":"6"},{"start_time":1551900172152,"click_time":1551900173002,"finger_time":1551900172822,"fix_duration":649.5380074908513,"trial":9,"RT":670,"MT":180,"sideResp":1,"stimulus":"img/750/randomdotsizeEA/R/2_Ratio_750_L_6_R_8.png","xmouse":[793,792,791,791,791,791,791,791,791,791,791,791,791,791,791,791,791,791,791,791,791,791,791,791,791,791,791,791,787,785,781,774,770,738,703,665,622,610,600,582,567,546,522],"ymouse":[538,538,538,538,538,538,538,538,538,538,538,538,538,538,538,538,538,538,538,538,538,538,538,538,538,538,538,538,537,536,535,532,530,468,405,350,276,251,218,172,137,100,67],"timestamp_mouse":[10,40,50,71,91,110,130,150,169,190,210,231,250,270,290,310,330,350,370,390,409,430,451,470,490,510,530,550,571,591,611,629,651,670,690,710,731,749,770,791,809,831,850],"xSR":741.5,"ySR":469.95,"xT1":424.9,"yT1":0,"xT2":1058.1,"yT2":0,"toosoon":0,"cond_shown":"randomdotsizeEA","ratio_trial":750,"smaller_num":"6","larger_num":"8","correct_side":2,"subjID":"lauracatalina5","gender":"1","age":"10","school":"6"},{"start_time":1551900177077,"click_time":1551900179144,"finger_time":1551900177864,"fix_duration":953.7054144332453,"trial":10,"RT":787,"MT":1280,"sideResp":2,"stimulus":"img/250/randomdotsizeEA/R/11_Ratio_250_L_3_R_12.png","xmouse":[774,774,774,774,774,774,774,774,774,774,774,774,774,774,774,774,774,774,774,774,774,774,774,774,774,774,774,774,774,774,774,774,774,774,774,774,774,774,756,735,687,584,565,561,560,560,557,547,536,527,518,514,514,514,513,512,510,510,510,510,510,510,510,510,510,510,510,510,510,510,510,510,510,512,529,558,623,634,643,648,653,665,668,672,674,675,698,721,750,791,821,868,897,921,946,962,986,998,1008,1018,1030,1049,1057,1065],"ymouse":[521,521,521,521,521,521,521,521,521,521,521,521,521,521,521,521,521,521,521,521,521,521,521,521,521,521,521,521,521,521,521,521,521,521,521,521,521,521,488,445,357,215,188,180,180,180,170,151,134,121,112,107,107,107,107,106,106,106,106,106,106,106,106,106,106,106,106,106,106,106,106,106,106,110,137,174,250,262,273,280,285,295,296,297,298,298,314,326,339,350,353,344,324,305,278,261,216,189,166,144,120,91,79,68],"timestamp_mouse":[9,25,45,69,84,105,125,145,164,186,205,225,244,265,285,305,325,345,366,385,406,425,445,465,485,505,524,545,565,585,605,624,645,665,685,705,726,746,766,787,805,826,846,866,886,907,926,946,966,987,1007,1026,1047,1066,1086,1106,1126,1146,1166,1186,1206,1226,1246,1265,1285,1306,1325,1345,1366,1386,1406,1427,1446,1466,1486,1507,1525,1546,1566,1587,1606,1626,1646,1666,1686,1706,1726,1746,1766,1786,1806,1826,1846,1866,1886,1907,1926,1945,1967,1987,2006,2026,2046,2066],"xSR":741.5,"ySR":469.95,"xT1":424.9,"yT1":0,"xT2":1058.1,"yT2":0,"toosoon":0,"cond_shown":"randomdotsizeEA","ratio_trial":250,"smaller_num":"3","larger_num":"12","correct_side":2,"subjID":"lauracatalina5","gender":"1","age":"10","school":"6"},{"start_time":1551900181129,"click_time":1551900182563,"finger_time":1551900182083,"fix_duration":1064.0398070168048,"trial":11,"RT":954,"MT":480,"sideResp":2,"stimulus":"img/250/equaldotsize/R/8_Ratio_250_L_1_R_4.png","xmouse":[797,797,797,797,797,797,797,797,797,797,797,797,797,797,797,797,797,797,797,797,797,797,797,797,797,797,797,797,797,797,797,797,797,797,797,797,797,797,797,797,797,797,797,797,797,797,797,820,844,885,893,900,906,914,925,928,933,939,952,956,963,973,991,1012,1039,1042,1042,1042,1042,1045,1057,1066],"ymouse":[494,494,494,494,494,494,494,494,494,494,494,494,494,494,494,494,494,494,494,494,494,494,494,494,494,494,494,494,494,494,494,494,494,494,494,494,494,494,494,494,494,494,494,494,494,494,494,454,403,277,242,219,197,177,151,143,136,127,110,107,103,102,102,102,104,104,104,104,104,104,98,91],"timestamp_mouse":[15,34,54,75,94,114,134,154,175,194,214,234,254,275,294,314,334,355,375,394,414,434,455,474,495,514,534,554,574,594,614,635,655,674,694,714,734,754,774,794,814,834,853,874,894,914,934,954,975,994,1014,1034,1054,1074,1095,1114,1134,1155,1175,1194,1213,1234,1254,1275,1294,1314,1334,1354,1375,1394,1414,1434],"xSR":741.5,"ySR":469.95,"xT1":424.9,"yT1":0,"xT2":1058.1,"yT2":0,"toosoon":0,"cond_shown":"equaldotsize","ratio_trial":250,"smaller_num":"1","larger_num":"4","correct_side":2,"subjID":"lauracatalina5","gender":"1","age":"10","school":"6"},{"start_time":1551900183862,"click_time":1551900184844,"finger_time":1551900184562,"fix_duration":356.02662034110153,"trial":12,"RT":700,"MT":282,"sideResp":1,"stimulus":"img/500/equaldotsize/L/7_Ratio_500_L_10_R_5.png","xmouse":[762,762,762,762,762,762,762,762,762,762,762,762,762,762,762,762,762,762,762,762,762,762,762,762,762,762,762,762,762,762,762,762,762,762,760,750,724,652,625,613,608,606,606,606,606,606,606,604,545,470],"ymouse":[524,524,524,524,524,524,524,524,524,524,524,524,524,524,524,524,524,524,524,524,524,524,524,524,524,524,524,524,524,524,524,524,524,524,521,467,390,238,193,170,160,156,156,156,156,156,156,154,111,50],"timestamp_mouse":[8,21,42,61,81,101,121,142,161,181,201,221,241,261,281,301,321,341,361,381,402,421,441,461,481,502,521,542,562,582,600,621,642,662,681,700,721,742,760,782,801,821,842,861,881,901,921,942,961,982],"xSR":741.5,"ySR":469.95,"xT1":424.9,"yT1":0,"xT2":1058.1,"yT2":0,"toosoon":0,"cond_shown":"equaldotsize","ratio_trial":500,"smaller_num":"5","larger_num":"10","correct_side":1,"subjID":"lauracatalina5","gender":"1","age":"10","school":"6"},{"start_time":1551900186681,"click_time":1551900187844,"finger_time":1551900187423,"fix_duration":697.6869094333731,"trial":13,"RT":742,"MT":421,"sideResp":2,"stimulus":"img/500/equaldotanddens/R/12_Ratio_500_L_1_R_2.png","xmouse":[765,765,765,765,765,765,765,765,765,765,765,765,765,765,765,765,765,765,765,765,765,765,765,765,765,765,765,765,765,765,765,765,765,765,765,765,771,803,831,857,884,906,926,934,942,950,957,976,979,982,987,1003,1029,1044,1053,1055,1055,1058,1076],"ymouse":[505,505,505,505,505,505,505,505,505,505,505,505,505,505,505,505,505,505,505,505,505,505,505,505,505,505,505,505,505,505,505,505,505,505,505,505,500,451,412,376,338,287,216,188,164,142,120,89,87,84,83,83,83,85,85,85,85,84,72],"timestamp_mouse":[9,23,42,62,82,102,122,142,162,183,203,222,242,262,282,302,322,342,363,382,402,422,442,462,482,502,522,542,562,582,602,622,643,662,682,702,722,742,762,782,803,822,843,863,882,903,922,942,963,981,1002,1022,1043,1063,1082,1102,1122,1141,1163],"xSR":741.5,"ySR":469.95,"xT1":424.9,"yT1":0,"xT2":1058.1,"yT2":0,"toosoon":0,"cond_shown":"equaldotanddens","ratio_trial":500,"smaller_num":"1","larger_num":"2","correct_side":2,"subjID":"lauracatalina5","gender":"1","age":"10","school":"6"},{"start_time":1551900189508,"click_time":1551900191524,"finger_time":1551900191143,"fix_duration":863.1990276070444,"trial":14,"RT":1635,"MT":381,"sideResp":1,"stimulus":"img/750/randomdotsizeEA/R/5_Ratio_750_L_15_R_20.png","xmouse":[776,776,776,776,776,776,776,776,776,776,776,776,776,776,776,776,776,776,776,776,776,776,776,776,776,776,776,776,776,776,776,776,776,776,776,776,776,776,776,776,776,776,776,776,776,776,776,776,776,776,776,776,776,776,776,776,776,776,776,776,776,776,776,776,776,776,776,776,776,776,776,776,776,776,776,776,776,776,776,776,763,702,657,614,581,529,508,488,482,481,477,474,472,468,468,468,468,468,468,468,468],"ymouse":[493,493,493,493,493,493,493,493,493,493,493,493,493,493,493,493,493,493,493,493,493,493,493,493,493,493,493,493,493,493,493,493,493,493,493,493,493,493,493,493,493,493,493,493,493,493,493,493,493,493,493,493,493,493,493,493,493,493,493,493,493,493,493,493,493,493,493,493,493,493,493,493,493,493,493,493,493,493,493,493,496,506,507,489,453,374,345,320,312,306,279,260,241,224,209,187,167,142,119,106,80],"timestamp_mouse":[16,36,55,76,95,115,135,155,174,195,215,235,255,276,295,315,335,355,375,395,415,435,455,476,495,515,534,555,575,595,615,635,655,675,695,715,735,755,774,795,816,835,855,875,895,915,936,954,975,995,1015,1036,1055,1075,1095,1115,1135,1156,1176,1195,1215,1235,1255,1275,1295,1315,1335,1355,1375,1395,1415,1435,1455,1476,1494,1514,1534,1555,1576,1595,1615,1635,1655,1676,1695,1716,1735,1755,1775,1795,1815,1835,1855,1876,1895,1916,1935,1956,1975,1994,2016],"xSR":741.5,"ySR":469.95,"xT1":424.9,"yT1":0,"xT2":1058.1,"yT2":0,"toosoon":0,"cond_shown":"randomdotsizeEA","ratio_trial":750,"smaller_num":"15","larger_num":"20","correct_side":2,"subjID":"lauracatalina5","gender":"1","age":"10","school":"6"},{"start_time":1551900194749,"click_time":1551900195483,"finger_time":1551900195443,"fix_duration":585.3473126774903,"trial":15,"RT":694,"MT":40,"sideResp":1,"stimulus":"img/250/equaldotanddens/L/7_Ratio_250_L_8_R_2.png","xmouse":[771,771,771,771,771,771,771,771,771,771,771,771,771,771,771,771,771,771,771,771,771,771,771,771,771,771,771,771,771,771,771,771,771,769,633,552,501],"ymouse":[533,533,533,533,533,533,533,533,533,533,533,533,533,533,533,533,533,533,533,533,533,533,533,533,533,533,533,533,533,533,533,533,531,509,211,107,44],"timestamp_mouse":[14,45,54,74,94,114,134,154,174,193,213,234,254,274,294,314,334,355,373,393,414,434,455,474,493,514,534,554,574,595,614,635,654,675,694,715,734],"xSR":741.5,"ySR":469.95,"xT1":424.9,"yT1":0,"xT2":1058.1,"yT2":0,"toosoon":0,"cond_shown":"equaldotanddens","ratio_trial":250,"smaller_num":"2","larger_num":"8","correct_side":1,"subjID":"lauracatalina5","gender":"1","age":"10","school":"6"},{"start_time":1551900197656,"click_time":1551900198944,"finger_time":1551900198083,"fix_duration":1071.821682626966,"trial":16,"RT":427,"MT":861,"sideResp":1,"stimulus":"img/500/randomdotsizeEA/L/5_Ratio_500_L_4_R_2.png","xmouse":[772,772,772,772,772,772,772,772,772,772,772,772,772,772,772,772,772,773,773,773,772,772,772,774,777,789,805,810,823,828,828,828,828,828,828,828,828,828,828,828,828,828,828,828,828,828,828,828,828,828,828,828,813,760,651,623,613,610,608,591,569,548,533,526,523],"ymouse":[512,512,512,512,512,512,512,512,512,512,512,512,512,512,512,512,512,512,512,510,483,468,460,453,446,431,411,405,390,383,383,383,383,383,383,383,382,382,382,382,382,382,382,382,382,382,382,382,382,382,382,382,367,305,162,125,113,110,108,99,85,74,65,62,62],"timestamp_mouse":[9,37,47,67,87,107,127,147,167,186,208,227,247,267,287,307,327,348,368,387,408,427,448,467,487,507,528,547,568,587,607,627,647,667,687,707,728,747,768,787,806,827,848,868,887,906,927,947,967,987,1008,1028,1047,1067,1088,1108,1128,1147,1168,1188,1207,1227,1248,1267,1287],"xSR":741.5,"ySR":469.95,"xT1":424.9,"yT1":0,"xT2":1058.1,"yT2":0,"toosoon":0,"cond_shown":"randomdotsizeEA","ratio_trial":500,"smaller_num":"2","larger_num":"4","correct_side":1,"subjID":"lauracatalina5","gender":"1","age":"10","school":"6"},{"start_time":1551900201900,"click_time":1551900203103,"finger_time":1551900202763,"fix_duration":736.1376419965759,"trial":17,"RT":863,"MT":340,"sideResp":2,"stimulus":"img/900/equaldotsize/R/7_Ratio_900_L_9_R_10.png","xmouse":[808,808,808,808,808,808,808,808,808,808,808,808,808,808,808,808,808,808,808,808,808,808,808,808,808,808,808,808,808,808,808,808,808,808,808,808,808,808,808,808,808,808,808,845,905,939,959,971,988,1000,1009,1020,1033,1043,1051,1057,1061,1064,1070,1072,1074],"ymouse":[522,522,522,522,522,522,522,522,522,522,522,522,522,522,522,522,522,522,522,522,522,522,522,522,522,522,522,522,522,522,522,522,522,522,522,522,522,522,522,522,522,522,522,468,388,348,322,305,277,261,248,234,213,195,178,165,152,140,117,106,94],"timestamp_mouse":[8,23,44,63,82,103,123,144,163,183,203,223,243,263,284,303,323,343,363,383,403,423,443,463,483,503,523,544,563,583,603,624,643,663,683,704,723,744,763,783,803,824,843,863,883,903,923,943,963,983,1003,1024,1045,1062,1083,1104,1123,1143,1164,1183,1202],"xSR":741.5,"ySR":469.95,"xT1":424.9,"yT1":0,"xT2":1058.1,"yT2":0,"toosoon":0,"cond_shown":"equaldotsize","ratio_trial":900,"smaller_num":"9","larger_num":"10","correct_side":2,"subjID":"lauracatalina5","gender":"1","age":"10","school":"6"},{"start_time":1551900204638,"click_time":1551900205684,"finger_time":1551900205483,"fix_duration":754.5992991207395,"trial":18,"RT":845,"MT":201,"sideResp":2,"stimulus":"img/750/equaldotsize/R/4_Ratio_750_L_15_R_20.png","xmouse":[805,805,805,805,805,805,805,805,805,805,805,805,805,805,805,805,805,805,805,805,805,805,805,805,805,805,805,805,805,805,805,805,805,805,805,805,803,802,802,801,801,827,908,969,1008,1014,1039,1050,1057,1062,1067,1081,1088],"ymouse":[517,517,517,517,517,517,517,517,517,517,517,517,517,517,517,517,517,517,517,517,517,517,517,517,517,517,517,517,517,517,517,517,517,517,517,517,518,518,518,518,517,472,363,283,228,218,164,149,137,130,123,108,98],"timestamp_mouse":[9,38,46,64,85,105,124,145,165,185,204,225,245,266,284,306,326,346,365,385,405,425,445,465,485,505,525,545,565,586,605,625,645,665,684,704,725,745,765,785,805,824,845,864,885,905,925,945,965,986,1005,1025,1046],"xSR":741.5,"ySR":469.95,"xT1":424.9,"yT1":0,"xT2":1058.1,"yT2":0,"toosoon":0,"cond_shown":"equaldotsize","ratio_trial":750,"smaller_num":"15","larger_num":"20","correct_side":2,"subjID":"lauracatalina5","gender":"1","age":"10","school":"6"},{"start_time":1551900206555,"click_time":1551900207843,"finger_time":1551900207563,"fix_duration":270.00561228058484,"trial":19,"RT":1008,"MT":280,"sideResp":2,"stimulus":"img/750/randomdotsizeEA/R/11_Ratio_750_L_12_R_16.png","xmouse":[790,790,790,790,790,790,790,790,790,790,790,790,785,783,783,783,783,783,783,783,783,783,783,783,783,783,783,783,783,783,783,783,783,783,782,779,779,779,779,779,779,779,779,779,779,779,779,779,779,779,862,899,922,939,953,993,1014,1035,1057,1065,1072,1073,1075,1079,1081],"ymouse":[561,561,561,561,561,561,561,561,561,561,543,510,489,479,479,479,479,479,479,479,479,479,479,479,479,479,479,479,479,479,479,479,479,479,479,499,517,529,535,535,535,535,535,535,535,535,535,535,535,533,397,345,311,291,275,230,204,176,138,122,112,110,107,100,94],"timestamp_mouse":[8,36,48,68,88,108,129,149,168,188,208,229,248,268,288,309,328,348,369,388,408,428,448,469,488,508,528,548,568,588,608,628,648,668,687,708,728,748,768,788,808,829,848,868,888,908,928,948,968,988,1008,1029,1048,1068,1089,1108,1128,1149,1169,1189,1208,1228,1248,1269,1288],"xSR":741.5,"ySR":469.95,"xT1":424.9,"yT1":0,"xT2":1058.1,"yT2":0,"toosoon":0,"cond_shown":"randomdotsizeEA","ratio_trial":750,"smaller_num":"12","larger_num":"16","correct_side":2,"subjID":"lauracatalina5","gender":"1","age":"10","school":"6"},{"start_time":1551900209610,"click_time":1551900210683,"finger_time":1551900210384,"fix_duration":866.5336760699824,"trial":20,"RT":774,"MT":299,"sideResp":1,"stimulus":"img/900/equaldotsize/L/4_Ratio_900_L_20_R_18.png","xmouse":[785,785,785,785,785,785,785,785,785,785,785,785,785,785,785,785,785,785,785,785,785,785,785,785,785,785,785,785,785,785,785,785,785,785,785,784,782,778,715,676,652,641,639,639,636,633,630,620,619,619,619,614,589,497],"ymouse":[513,513,513,513,513,513,513,513,513,513,513,513,513,513,513,513,513,513,513,513,513,513,513,513,513,513,513,513,513,513,513,513,513,513,513,513,513,511,352,275,223,197,188,169,143,123,107,88,86,86,86,86,86,86],"timestamp_mouse":[13,42,54,73,94,113,133,153,174,193,213,233,253,273,293,313,333,353,372,393,413,433,454,473,493,513,533,554,573,594,613,632,654,673,693,713,733,753,774,792,814,833,854,873,893,913,933,955,973,993,1013,1033,1052,1072],"xSR":741.5,"ySR":469.95,"xT1":424.9,"yT1":0,"xT2":1058.1,"yT2":0,"toosoon":0,"cond_shown":"equaldotsize","ratio_trial":900,"smaller_num":"18","larger_num":"20","correct_side":1,"subjID":"lauracatalina5","gender":"1","age":"10","school":"6"},{"start_time":1551900212008,"click_time":1551900213263,"finger_time":1551900212943,"fix_duration":382.2190626961791,"trial":21,"RT":935,"MT":320,"sideResp":1,"stimulus":"img/900/randomdotsizeEA/L/4_Ratio_900_L_20_R_18.png","xmouse":[779,779,779,779,779,779,779,779,779,779,779,779,779,779,779,779,779,779,779,779,778,777,775,773,773,773,773,773,773,773,773,773,773,773,773,773,773,773,773,773,773,773,772,770,769,769,769,759,740,733,727,720,711,676,663,651,640,626,594,574,553,534,512],"ymouse":[523,523,523,523,523,523,523,523,523,523,523,523,523,523,523,523,523,523,523,523,523,523,523,522,522,522,522,522,522,522,522,522,522,522,522,522,522,522,522,522,522,522,521,520,515,475,431,391,335,321,306,293,276,221,202,189,175,162,138,125,110,99,89],"timestamp_mouse":[15,35,54,75,95,115,136,155,175,195,215,235,255,275,295,315,335,355,375,395,416,435,455,475,496,515,535,555,575,596,615,635,655,675,695,715,735,755,775,795,815,835,854,875,895,915,935,955,974,995,1016,1035,1056,1075,1096,1115,1134,1155,1175,1195,1215,1235,1255],"xSR":741.5,"ySR":469.95,"xT1":424.9,"yT1":0,"xT2":1058.1,"yT2":0,"toosoon":0,"cond_shown":"randomdotsizeEA","ratio_trial":900,"smaller_num":"18","larger_num":"20","correct_side":1,"subjID":"lauracatalina5","gender":"1","age":"10","school":"6"},{"start_time":1551900216820,"click_time":1551900218303,"finger_time":1551900218144,"fix_duration":1356.4264696143398,"trial":22,"RT":1324,"MT":159,"sideResp":2,"stimulus":"img/900/equaldotsize/L/2_Ratio_900_L_20_R_18.png","xmouse":[779,779,779,779,779,779,779,779,779,779,779,779,779,779,779,779,779,779,779,779,779,779,779,779,779,779,779,779,779,779,779,779,779,779,779,779,779,779,779,779,779,779,779,779,779,779,779,779,779,779,779,779,779,779,779,779,779,779,779,779,779,779,779,779,790,829,858,887,958,1001,1057,1073,1087,1098,1122],"ymouse":[535,535,535,535,535,535,535,535,535,535,535,535,535,535,535,535,535,535,535,535,535,535,535,535,535,535,535,535,535,535,535,535,535,535,535,535,535,535,535,535,535,535,535,535,535,535,535,535,535,535,535,535,535,535,535,535,535,535,535,535,535,535,535,535,534,495,458,417,325,271,195,167,144,125,92],"timestamp_mouse":[11,23,43,62,83,103,122,143,163,183,203,223,243,263,283,302,324,343,363,382,403,423,443,463,483,503,523,543,563,583,604,623,643,663,683,703,723,743,763,783,803,823,843,863,883,903,923,944,964,984,1003,1023,1042,1063,1083,1103,1123,1143,1163,1183,1203,1223,1244,1263,1283,1303,1324,1343,1364,1383,1404,1423,1444,1464,1483],"xSR":741.5,"ySR":469.95,"xT1":424.9,"yT1":0,"xT2":1058.1,"yT2":0,"toosoon":0,"cond_shown":"equaldotsize","ratio_trial":900,"smaller_num":"18","larger_num":"20","correct_side":1,"subjID":"lauracatalina5","gender":"1","age":"10","school":"6"},{"start_time":1551900219900,"click_time":1551900220963,"finger_time":1551900220684,"fix_duration":596.417915689626,"trial":23,"RT":784,"MT":279,"sideResp":1,"stimulus":"img/900/equaldotanddens/R/14_Ratio_900_L_18_R_20.png","xmouse":[747,747,747,747,747,747,747,747,747,747,747,748,749,749,749,749,749,749,749,749,749,749,749,749,749,749,749,749,749,749,749,749,749,749,749,749,749,749,743,702,601,577,575,575,575,563,549,538,532,531,531,530,527,514],"ymouse":[565,565,565,565,565,565,565,565,565,565,565,565,565,565,565,565,565,565,565,565,565,565,565,565,565,565,565,565,565,565,565,565,565,565,565,565,565,557,514,392,215,189,186,186,186,149,95,63,50,49,49,48,46,15],"timestamp_mouse":[8,22,43,64,83,104,124,142,163,184,204,224,242,263,283,303,323,343,363,383,403,423,443,463,483,503,523,543,563,583,604,624,643,663,683,702,724,743,763,784,804,823,843,863,883,903,922,943,963,983,1003,1023,1043,1063],"xSR":741.5,"ySR":469.95,"xT1":424.9,"yT1":0,"xT2":1058.1,"yT2":0,"toosoon":0,"cond_shown":"equaldotanddens","ratio_trial":900,"smaller_num":"18","larger_num":"20","correct_side":2,"subjID":"lauracatalina5","gender":"1","age":"10","school":"6"},{"start_time":1551900223296,"click_time":1551900224563,"finger_time":1551900224183,"fix_duration":1451.5377504617945,"trial":24,"RT":887,"MT":380,"sideResp":2,"stimulus":"img/500/equaldotsize/R/2_Ratio_500_L_3_R_6.png","xmouse":[766,766,766,766,766,766,766,766,766,766,766,766,766,766,766,766,766,766,766,766,766,766,766,766,766,766,766,766,766,766,766,766,766,766,766,766,766,766,766,766,766,766,794,822,875,928,951,977,1000,1012,1026,1030,1036,1040,1043,1049,1050,1051,1052,1054,1058,1060,1070,1073],"ymouse":[510,510,510,510,510,510,510,510,510,510,510,510,510,510,510,510,510,510,510,510,510,510,510,510,510,510,510,510,510,510,510,510,510,510,510,510,510,510,510,510,510,510,489,471,437,396,369,330,293,266,224,210,190,180,172,152,143,141,136,131,121,115,101,97],"timestamp_mouse":[8,38,47,67,87,107,127,147,167,186,208,227,247,267,287,307,328,347,367,387,407,427,447,467,487,507,527,548,567,587,607,627,647,667,687,707,727,747,767,787,807,827,848,867,887,907,927,947,967,987,1008,1027,1047,1067,1087,1108,1126,1148,1167,1187,1207,1227,1247,1267],"xSR":741.5,"ySR":469.95,"xT1":424.9,"yT1":0,"xT2":1058.1,"yT2":0,"toosoon":0,"cond_shown":"equaldotsize","ratio_trial":500,"smaller_num":"3","larger_num":"6","correct_side":2,"subjID":"lauracatalina5","gender":"1","age":"10","school":"6"},{"start_time":1551900226063,"click_time":1551900228264,"finger_time":1551900227643,"fix_duration":278.02504389567997,"trial":25,"RT":1580,"MT":621,"sideResp":1,"stimulus":"img/900/randomdotsizeEA/L/10_Ratio_900_L_20_R_18.png","xmouse":[783,783,783,783,783,783,783,783,783,783,783,783,783,783,783,783,783,783,783,783,783,783,783,783,783,783,783,783,783,783,783,783,783,783,783,783,783,783,783,783,783,783,783,783,783,783,783,783,783,783,783,783,783,783,783,783,783,783,783,783,783,783,783,783,783,783,783,783,783,783,783,783,783,783,783,783,783,783,782,770,744,702,671,662,662,662,662,662,662,662,660,658,656,649,644,634,620,586,579,572,568,567,566,566,566,566,565,557,534,526,521],"ymouse":[512,512,512,512,512,512,512,512,512,512,512,512,512,512,512,512,512,512,512,512,512,512,512,512,512,512,512,512,512,512,512,512,512,512,512,512,512,512,512,512,512,512,512,512,512,512,512,512,512,512,512,512,512,512,512,512,512,512,512,512,512,512,512,512,512,512,512,512,512,512,512,512,512,512,512,512,512,512,511,438,333,226,151,125,125,125,125,125,125,125,124,122,122,119,117,115,114,112,110,107,107,107,107,107,107,107,106,104,88,78,74],"timestamp_mouse":[9,20,40,61,80,99,120,141,161,180,199,220,241,260,280,300,321,340,360,380,399,421,441,460,480,500,521,540,560,580,600,620,640,660,680,700,720,740,760,780,799,820,841,861,880,900,920,940,960,980,1000,1020,1040,1060,1079,1100,1120,1140,1160,1181,1200,1220,1240,1260,1281,1300,1320,1340,1360,1380,1400,1420,1440,1460,1480,1500,1520,1540,1561,1580,1601,1620,1640,1660,1680,1699,1720,1740,1760,1779,1800,1821,1840,1860,1880,1901,1921,1942,1959,1981,2001,2019,2040,2060,2080,2100,2121,2139,2160,2180,2201],"xSR":741.5,"ySR":469.95,"xT1":424.9,"yT1":0,"xT2":1058.1,"yT2":0,"toosoon":0,"cond_shown":"randomdotsizeEA","ratio_trial":900,"smaller_num":"18","larger_num":"20","correct_side":1,"subjID":"lauracatalina5","gender":"1","age":"10","school":"6"},{"start_time":1551900229538,"click_time":1551900230623,"finger_time":1551900230343,"fix_duration":492.2035127784832,"trial":26,"RT":805,"MT":280,"sideResp":1,"stimulus":"img/250/equaldotsize/L/3_Ratio_250_L_8_R_2.png","xmouse":[801,799,799,798,798,798,798,798,798,798,798,798,798,798,798,798,798,798,798,798,798,798,798,798,798,798,798,798,798,798,798,798,798,798,798,798,798,798,798,793,769,733,693,656,642,641,639,635,628,608,604,599,587,570,521],"ymouse":[527,527,526,526,526,526,526,526,526,526,526,526,526,526,526,526,526,526,526,526,526,526,526,526,526,526,526,526,526,526,526,526,526,526,526,526,526,526,526,510,434,350,264,200,161,156,148,134,119,89,86,85,81,78,78],"timestamp_mouse":[9,25,47,65,86,105,125,145,164,185,205,225,245,265,285,305,325,345,365,385,405,425,445,464,485,505,525,544,565,586,605,625,645,665,686,704,725,745,765,785,805,825,846,866,886,905,925,945,966,985,1004,1025,1045,1065,1084],"xSR":741.5,"ySR":469.95,"xT1":424.9,"yT1":0,"xT2":1058.1,"yT2":0,"toosoon":0,"cond_shown":"equaldotsize","ratio_trial":250,"smaller_num":"2","larger_num":"8","correct_side":1,"subjID":"lauracatalina5","gender":"1","age":"10","school":"6"},{"start_time":1551900232777,"click_time":1551900234043,"finger_time":1551900233503,"fix_duration":1151.6877561741837,"trial":27,"RT":726,"MT":540,"sideResp":1,"stimulus":"img/250/randomdotsizeEA/L/1_Ratio_250_L_8_R_2.png","xmouse":[787,787,787,787,787,787,787,787,787,787,787,787,787,787,787,787,787,787,787,787,787,787,787,787,787,787,787,787,787,787,787,787,787,787,787,781,750,646,611,611,611,611,611,611,611,611,611,611,611,611,555,545,536,536,536,536,536,536,536,536,536,536,536,523],"ymouse":[511,511,511,511,511,511,511,511,511,511,511,511,511,511,511,511,511,511,511,511,511,511,511,511,511,511,511,511,511,511,511,511,511,511,511,495,403,135,24,24,24,24,24,24,24,24,24,24,24,24,17,31,52,52,52,52,52,52,52,52,52,52,52,59],"timestamp_mouse":[9,26,46,66,86,106,127,146,166,186,206,227,246,265,286,306,326,346,366,386,407,427,446,466,486,505,526,547,566,585,606,626,646,666,686,706,726,746,766,787,806,826,847,867,886,907,926,946,966,986,1006,1026,1047,1065,1087,1106,1126,1146,1166,1186,1206,1225,1246,1266],"xSR":741.5,"ySR":469.95,"xT1":424.9,"yT1":0,"xT2":1058.1,"yT2":0,"toosoon":0,"cond_shown":"randomdotsizeEA","ratio_trial":250,"smaller_num":"2","larger_num":"8","correct_side":1,"subjID":"lauracatalina5","gender":"1","age":"10","school":"6"},{"start_time":1551900235958,"click_time":1551900237025,"finger_time":1551900236544,"fix_duration":952.3437372584714,"trial":28,"RT":586,"MT":481,"sideResp":1,"stimulus":"img/250/equaldotanddens/L/2_Ratio_250_L_16_R_4.png","xmouse":[765,765,765,765,765,765,765,765,765,765,765,765,765,765,765,765,765,765,765,765,765,765,765,765,766,766,766,766,766,754,728,691,663,647,647,645,643,637,627,626,626,626,625,614,568,559,556,555,551,548,545,539,531,519],"ymouse":[474,474,474,474,474,474,474,474,474,474,474,474,474,474,474,474,474,474,474,474,474,474,474,474,473,473,473,473,473,461,440,409,386,369,367,355,333,309,272,268,268,268,259,208,62,48,43,42,41,39,38,36,28,21],"timestamp_mouse":[9,36,45,65,86,105,125,146,165,185,205,225,244,266,285,306,325,345,366,385,405,425,445,465,486,505,525,545,565,586,605,625,645,667,684,705,725,746,767,785,806,825,845,866,885,904,924,945,967,985,1006,1025,1045,1067],"xSR":741.5,"ySR":469.95,"xT1":424.9,"yT1":0,"xT2":1058.1,"yT2":0,"toosoon":0,"cond_shown":"equaldotanddens","ratio_trial":250,"smaller_num":"4","larger_num":"16","correct_side":1,"subjID":"lauracatalina5","gender":"1","age":"10","school":"6"},{"start_time":1551900238953,"click_time":1551900239985,"finger_time":1551900239684,"fix_duration":908.5811356223322,"trial":29,"RT":731,"MT":301,"sideResp":1,"stimulus":"img/750/equaldotsize/L/10_Ratio_750_L_4_R_3.png","xmouse":[781,781,781,781,781,781,781,781,781,781,781,781,781,781,781,781,781,781,781,781,781,781,781,781,781,781,781,781,781,781,781,781,781,781,778,767,756,745,739,729,721,700,670,641,631,627,627,627,626,594,553,514],"ymouse":[512,512,512,512,512,512,512,512,512,512,512,512,512,512,512,512,512,512,512,512,512,512,512,512,512,512,512,512,512,512,512,512,512,512,497,472,445,429,418,402,381,344,291,238,221,214,213,213,213,176,126,87],"timestamp_mouse":[12,38,51,72,90,110,130,150,172,191,210,230,250,272,290,311,330,350,370,391,412,431,451,471,490,510,530,551,571,592,611,630,650,670,690,711,731,752,772,791,811,830,850,870,890,910,930,951,970,990,1010,1032],"xSR":741.5,"ySR":469.95,"xT1":424.9,"yT1":0,"xT2":1058.1,"yT2":0,"toosoon":0,"cond_shown":"equaldotsize","ratio_trial":750,"smaller_num":"3","larger_num":"4","correct_side":1,"subjID":"lauracatalina5","gender":"1","age":"10","school":"6"},{"start_time":1551900242338,"click_time":1551900243703,"finger_time":1551900243003,"fix_duration":1492.0193156447856,"trial":30,"RT":665,"MT":700,"sideResp":1,"stimulus":"img/900/randomdotsizeEA/L/1_Ratio_900_L_10_R_9.png","xmouse":[796,796,796,796,796,796,796,796,796,796,796,796,796,796,796,796,796,796,796,796,796,796,796,796,796,796,796,796,796,796,795,777,765,763,763,763,761,755,746,735,705,682,662,639,622,603,599,599,598,598,578,557,516,501,499,498,498,498,498,498,498,498,498,498,498,498,498,497,499],"ymouse":[545,545,545,545,545,545,545,545,545,545,545,545,545,545,545,545,545,545,545,545,545,545,545,545,545,545,545,545,545,544,536,493,470,466,466,466,463,453,438,421,368,327,292,261,242,226,224,224,223,223,198,170,120,106,104,104,104,104,104,104,104,104,104,104,104,104,104,101,83],"timestamp_mouse":[9,36,45,66,86,105,125,146,166,185,205,225,245,265,286,307,326,345,366,386,406,427,445,465,487,505,525,545,566,586,605,625,645,665,686,706,726,746,767,787,807,825,845,865,885,906,925,947,965,987,1007,1025,1046,1066,1086,1106,1125,1145,1165,1186,1206,1225,1247,1265,1286,1306,1325,1345,1365],"xSR":741.5,"ySR":469.95,"xT1":424.9,"yT1":0,"xT2":1058.1,"yT2":0,"toosoon":0,"cond_shown":"randomdotsizeEA","ratio_trial":900,"smaller_num":"9","larger_num":"10","correct_side":1,"subjID":"lauracatalina5","gender":"1","age":"10","school":"6"},{"start_time":1551900246009,"click_time":1551900247063,"finger_time":1551900246764,"fix_duration":1384.4448099535657,"trial":31,"RT":755,"MT":299,"sideResp":1,"stimulus":"img/900/equaldotsize/L/10_Ratio_900_L_20_R_18.png","xmouse":[776,776,776,776,776,776,776,776,776,776,776,776,776,776,776,776,776,776,776,776,776,776,776,776,776,776,776,776,776,776,776,776,776,776,776,776,776,765,743,723,705,693,682,679,674,667,660,637,626,613,592,563,503],"ymouse":[526,526,526,526,526,526,526,526,526,526,526,526,526,526,526,526,526,526,526,526,526,526,526,526,526,526,526,526,526,526,526,526,526,526,526,526,524,450,369,285,215,174,141,132,121,109,101,81,77,74,70,67,60],"timestamp_mouse":[15,34,55,75,94,115,135,155,174,194,215,235,255,275,295,314,334,354,375,394,414,436,455,474,495,515,534,554,574,594,614,635,654,675,694,715,734,755,775,795,815,834,854,874,894,914,934,954,975,994,1015,1035,1054],"xSR":741.5,"ySR":469.95,"xT1":424.9,"yT1":0,"xT2":1058.1,"yT2":0,"toosoon":0,"cond_shown":"equaldotsize","ratio_trial":900,"smaller_num":"18","larger_num":"20","correct_side":1,"subjID":"lauracatalina5","gender":"1","age":"10","school":"6"},{"start_time":1551900249303,"click_time":1551900250164,"finger_time":1551900249903,"fix_duration":1157.1494654726614,"trial":32,"RT":600,"MT":261,"sideResp":2,"stimulus":"img/900/equaldotanddens/R/15_Ratio_900_L_9_R_10.png","xmouse":[819,819,819,819,819,819,819,819,819,819,819,819,819,819,819,820,820,820,820,820,820,820,820,820,820,820,820,820,820,829,843,859,870,898,924,960,1000,1030,1079,1093,1106,1124,1133,1140],"ymouse":[508,508,508,508,508,508,508,508,508,508,508,508,508,508,508,508,508,508,508,508,508,508,508,508,508,508,508,508,508,507,491,478,470,444,419,385,337,290,218,199,176,137,115,83],"timestamp_mouse":[8,20,40,61,80,101,121,140,160,181,201,221,240,262,281,300,321,341,360,380,401,422,440,460,480,500,521,540,560,581,600,621,640,660,681,700,721,740,762,780,800,820,840,861],"xSR":741.5,"ySR":469.95,"xT1":424.9,"yT1":0,"xT2":1058.1,"yT2":0,"toosoon":0,"cond_shown":"equaldotanddens","ratio_trial":900,"smaller_num":"9","larger_num":"10","correct_side":2,"subjID":"lauracatalina5","gender":"1","age":"10","school":"6"},{"start_time":1551900252120,"click_time":1551900252983,"finger_time":1551900252664,"fix_duration":1174.6313953286653,"trial":33,"RT":544,"MT":319,"sideResp":1,"stimulus":"img/750/randomdotsizeEA/L/8_Ratio_750_L_4_R_3.png","xmouse":[805,805,805,805,805,805,805,805,805,805,805,805,805,805,805,805,805,805,805,805,805,805,805,805,805,805,802,766,721,666,649,642,639,638,634,625,614,604,593,589,584,574,538,517],"ymouse":[524,524,524,524,524,524,524,524,524,524,524,524,524,524,524,524,524,524,524,524,524,524,524,524,524,524,516,445,390,328,311,305,302,292,265,220,182,151,129,122,118,107,82,70],"timestamp_mouse":[9,24,44,64,83,104,123,143,163,183,204,224,243,263,284,303,323,343,363,383,404,424,443,465,484,505,524,544,563,584,604,623,644,663,683,704,723,743,764,783,804,825,844,863],"xSR":741.5,"ySR":469.95,"xT1":424.9,"yT1":0,"xT2":1058.1,"yT2":0,"toosoon":0,"cond_shown":"randomdotsizeEA","ratio_trial":750,"smaller_num":"3","larger_num":"4","correct_side":1,"subjID":"lauracatalina5","gender":"1","age":"10","school":"6"},{"start_time":1551900254861,"click_time":1551900255723,"finger_time":1551900255465,"fix_duration":1235.047973552874,"trial":34,"RT":604,"MT":258,"sideResp":2,"stimulus":"img/500/equaldotsize/R/15_Ratio_500_L_1_R_2.png","xmouse":[795,795,795,795,795,795,795,795,795,795,795,795,795,795,795,795,795,795,795,795,795,795,795,795,795,795,795,795,797,809,918,980,1005,1025,1039,1050,1073,1082,1090,1096,1105,1113,1116,1121],"ymouse":[507,507,507,507,507,507,507,507,507,507,507,507,507,507,507,507,507,507,507,507,507,507,507,507,507,507,507,507,505,493,369,295,266,241,225,213,182,170,161,152,134,116,107,95],"timestamp_mouse":[17,43,43,62,82,102,124,142,163,182,202,223,242,263,282,302,323,342,362,383,402,424,442,462,482,503,523,543,563,582,604,622,642,662,683,704,723,742,762,783,803,823,842,862],"xSR":741.5,"ySR":469.95,"xT1":424.9,"yT1":0,"xT2":1058.1,"yT2":0,"toosoon":0,"cond_shown":"equaldotsize","ratio_trial":500,"smaller_num":"1","larger_num":"2","correct_side":2,"subjID":"lauracatalina5","gender":"1","age":"10","school":"6"},{"start_time":1551900257917,"click_time":1551900259043,"finger_time":1551900258664,"fix_duration":1332.0384578996661,"trial":35,"RT":747,"MT":379,"sideResp":1,"stimulus":"img/900/randomdotsizeEA/R/9_Ratio_900_L_18_R_20.png","xmouse":[796,796,796,796,796,796,796,796,796,796,796,796,796,796,796,796,796,796,796,796,796,796,796,796,796,796,796,796,796,796,796,796,796,796,796,796,807,841,860,860,860,860,860,846,806,727,682,654,643,643,642,642,636,589,556,535,523],"ymouse":[499,499,499,499,499,499,499,499,499,499,499,499,499,499,499,499,499,499,499,499,499,499,499,499,499,499,499,499,499,499,499,499,499,499,499,499,483,436,410,410,410,410,409,329,262,163,116,86,76,76,76,76,72,33,17,12,9],"timestamp_mouse":[9,26,46,66,87,106,126,146,166,187,207,226,246,266,286,307,327,348,366,387,406,426,446,467,487,506,526,546,566,587,607,626,647,666,686,706,726,747,767,786,806,827,848,866,886,906,926,946,967,987,1006,1027,1047,1067,1086,1106,1126],"xSR":741.5,"ySR":469.95,"xT1":424.9,"yT1":0,"xT2":1058.1,"yT2":0,"toosoon":0,"cond_shown":"randomdotsizeEA","ratio_trial":900,"smaller_num":"18","larger_num":"20","correct_side":2,"subjID":"lauracatalina5","gender":"1","age":"10","school":"6"},{"start_time":1551900261032,"click_time":1551900263925,"finger_time":1551900261065,"fix_duration":1087.8633020024643,"trial":36,"RT":33,"MT":2860,"sideResp":2,"stimulus":"img/900/randomdotsizeEA/L/10_Ratio_900_L_20_R_18.png","xmouse":[793,802,803,807,807,807,807,807,807,807,807,807,807,807,807,807,807,807,807,807,807,803,797,789,786,784,784,784,784,784,784,784,784,784,784,784,784,784,784,784,784,784,784,784,784,784,784,784,784,784,784,784,784,784,784,784,784,784,784,784,784,784,784,784,784,784,784,784,784,784,784,784,784,784,784,784,784,784,784,784,784,784,784,786,790,791,791,791,791,791,791,791,791,791,791,791,791,791,791,791,791,791,791,791,791,791,791,791,791,791,791,791,791,791,791,791,791,791,791,791,791,791,791,791,791,791,791,791,791,791,791,791,791,791,791,796,851,921,1040,1055,1068,1081,1103,1115,1129],"ymouse":[471,464,464,462,462,462,462,462,462,462,462,462,462,462,462,462,462,462,462,462,462,465,471,484,489,491,491,491,491,491,491,491,491,491,491,491,491,491,491,491,491,491,491,491,491,491,491,491,491,491,491,491,491,491,491,491,491,491,491,491,491,491,491,491,491,491,491,491,491,491,491,491,491,491,491,491,491,491,491,491,491,491,490,477,465,462,462,462,461,461,461,461,461,461,461,461,461,461,461,461,461,461,461,461,461,461,461,461,461,461,461,461,461,461,461,461,461,461,461,461,461,461,461,461,461,461,461,461,461,461,461,461,461,461,461,456,407,345,237,215,194,170,136,119,99],"timestamp_mouse":[12,33,51,71,91,111,131,152,172,192,211,232,252,272,293,311,332,352,372,392,411,432,451,472,492,511,531,552,572,591,611,632,651,671,691,712,731,751,772,791,811,831,851,871,892,911,932,951,971,991,1011,1031,1051,1071,1091,1111,1131,1151,1171,1191,1212,1232,1251,1271,1291,1311,1332,1352,1371,1391,1411,1432,1452,1472,1491,1511,1531,1552,1571,1591,1612,1631,1651,1672,1691,1712,1732,1751,1771,1791,1812,1832,1851,1871,1891,1911,1932,1951,1971,1993,2012,2032,2052,2071,2092,2112,2132,2151,2171,2191,2212,2231,2252,2271,2292,2312,2332,2351,2372,2391,2411,2432,2451,2471,2491,2511,2531,2551,2572,2591,2611,2632,2652,2671,2691,2712,2731,2751,2771,2792,2813,2833,2853,2871,2892],"xSR":741.5,"ySR":469.95,"xT1":424.9,"yT1":0,"xT2":1058.1,"yT2":0,"toosoon":0,"cond_shown":"randomdotsizeEA","ratio_trial":900,"smaller_num":"18","larger_num":"20","correct_side":1,"subjID":"lauracatalina5","gender":"1","age":"10","school":"6"},{"start_time":1551900265770,"click_time":1551900267444,"finger_time":1551900266643,"fix_duration":1125.0274667920887,"trial":37,"RT":873,"MT":801,"sideResp":1,"stimulus":"img/750/equaldotsize/L/6_Ratio_750_L_24_R_18.png","xmouse":[778,778,778,778,778,778,778,778,778,778,778,778,778,778,778,778,778,778,778,778,778,778,778,778,778,778,778,778,778,778,778,778,778,778,778,778,778,779,779,779,779,779,774,754,725,698,669,667,661,659,639,616,606,600,595,587,570,560,549,541,525,496,476,460,446,436,432,432,432,432,432,432,432,432,432,432,432,432,432,432,432,432,436,459],"ymouse":[523,523,523,523,523,523,523,523,523,523,523,523,523,523,523,523,523,523,523,523,523,523,523,523,523,523,523,523,523,523,523,523,523,523,523,523,523,523,523,523,523,521,489,440,397,365,339,338,336,335,328,318,314,312,308,290,233,206,183,165,148,135,127,119,113,108,107,107,107,107,107,107,107,107,107,107,107,107,107,107,107,107,101,75],"timestamp_mouse":[13,42,55,73,93,114,134,153,173,195,213,233,254,273,293,313,335,353,373,394,414,434,453,473,494,513,535,554,574,593,613,634,654,673,693,713,733,753,773,793,813,833,854,873,895,914,933,955,974,993,1013,1033,1054,1074,1094,1113,1134,1155,1173,1193,1213,1233,1254,1274,1293,1314,1334,1354,1373,1393,1413,1434,1453,1473,1493,1513,1533,1553,1573,1593,1613,1634,1653,1674],"xSR":741.5,"ySR":469.95,"xT1":424.9,"yT1":0,"xT2":1058.1,"yT2":0,"toosoon":0,"cond_shown":"equaldotsize","ratio_trial":750,"smaller_num":"18","larger_num":"24","correct_side":1,"subjID":"lauracatalina5","gender":"1","age":"10","school":"6"},{"start_time":1551900270978,"click_time":1551900272284,"finger_time":1551900271844,"fix_duration":1113.187543640459,"trial":38,"RT":866,"MT":440,"sideResp":1,"stimulus":"img/900/randomdotsizeEA/R/5_Ratio_900_L_9_R_10.png","xmouse":[789,789,789,789,789,789,789,789,789,789,789,789,789,789,789,789,789,789,789,789,789,789,789,789,789,789,789,789,789,789,789,789,789,789,789,789,789,789,789,789,789,790,806,810,810,810,798,766,749,726,707,692,686,686,686,684,651,600,584,571,565,561,550,542,534,522],"ymouse":[519,519,519,519,519,519,519,519,519,519,519,519,519,519,519,519,519,519,519,519,519,519,519,519,519,519,519,519,519,519,519,519,519,519,519,519,519,519,519,519,519,512,473,449,431,410,391,358,350,340,332,327,324,324,324,319,263,182,155,134,121,110,89,75,60,43],"timestamp_mouse":[13,27,45,66,86,105,126,145,165,186,205,225,245,265,285,305,326,347,366,386,406,426,446,465,485,505,525,547,566,585,605,625,646,665,686,706,726,745,766,785,805,826,846,866,885,905,926,945,965,985,1005,1027,1046,1066,1085,1105,1127,1145,1165,1185,1206,1225,1245,1265,1285,1306],"xSR":741.5,"ySR":469.95,"xT1":424.9,"yT1":0,"xT2":1058.1,"yT2":0,"toosoon":0,"cond_shown":"randomdotsizeEA","ratio_trial":900,"smaller_num":"9","larger_num":"10","correct_side":2,"subjID":"lauracatalina5","gender":"1","age":"10","school":"6"},{"start_time":1551900274400,"click_time":1551900278143,"finger_time":1551900277843,"fix_duration":1236.937684839186,"trial":39,"RT":3443,"MT":300,"sideResp":1,"stimulus":"img/750/randomdotsizeEA/L/10_Ratio_750_L_4_R_3.png","xmouse":[760,760,760,760,760,760,760,760,760,760,760,760,760,760,760,760,760,760,760,760,760,760,760,760,760,760,760,760,760,760,760,760,760,760,760,760,760,760,760,760,760,760,760,760,760,760,760,760,760,760,760,760,760,760,760,760,760,760,760,760,760,760,760,760,760,760,760,760,760,760,760,760,760,760,760,760,760,760,760,760,760,760,760,760,760,760,760,760,760,760,760,760,760,760,760,760,760,760,760,760,760,760,760,760,760,760,760,760,760,760,760,760,760,760,760,760,760,760,760,760,760,760,760,760,760,760,760,760,760,760,760,760,760,760,760,760,760,760,760,760,760,760,760,760,760,760,760,760,760,760,760,760,760,760,760,760,760,760,760,760,760,760,760,760,760,760,760,760,760,760,760,760,731,681,628,590,565,562,559,550,535,516,505,483,468,455,445,444],"ymouse":[502,502,502,502,502,502,502,502,502,502,502,502,502,502,502,502,502,502,502,502,502,502,502,502,502,502,502,502,502,502,502,502,502,502,502,502,502,502,502,502,502,502,502,502,502,502,502,502,502,502,502,502,502,502,502,502,502,502,502,502,502,502,502,502,502,502,502,502,502,502,502,502,502,502,502,502,502,502,502,502,502,502,502,502,502,502,502,502,502,502,502,502,502,502,502,502,502,502,502,502,502,502,502,502,502,502,502,502,502,502,502,502,502,502,502,502,502,502,502,502,502,502,502,502,502,502,502,502,502,502,502,502,502,502,502,502,502,502,502,502,502,502,502,502,502,502,502,502,502,502,502,502,502,502,502,502,502,502,502,502,502,502,502,502,502,502,502,502,502,502,502,502,433,342,251,182,154,151,150,146,139,132,127,118,110,105,100,98],"timestamp_mouse":[9,34,44,63,83,103,124,144,164,184,203,223,244,263,283,303,324,343,365,384,403,423,443,464,483,503,524,544,563,583,603,624,643,663,683,704,725,743,763,783,803,825,843,863,883,903,924,944,963,983,1003,1023,1044,1064,1083,1103,1123,1144,1164,1183,1203,1223,1243,1263,1283,1303,1324,1344,1364,1383,1403,1423,1443,1464,1483,1504,1525,1544,1564,1583,1603,1623,1644,1663,1683,1703,1723,1743,1763,1783,1803,1824,1845,1863,1883,1903,1923,1944,1964,1983,2003,2023,2043,2063,2083,2103,2124,2143,2164,2184,2203,2224,2243,2263,2285,2303,2323,2343,2364,2383,2403,2424,2444,2463,2484,2503,2523,2544,2563,2584,2603,2624,2643,2663,2684,2704,2724,2743,2763,2785,2805,2824,2843,2863,2883,2903,2923,2944,2963,2983,3003,3023,3044,3063,3083,3103,3123,3145,3163,3183,3203,3225,3243,3263,3283,3303,3323,3344,3363,3383,3403,3424,3443,3464,3484,3505,3524,3543,3563,3584,3604,3624,3643,3663,3684,3704,3724,3743],"xSR":741.5,"ySR":469.95,"xT1":424.9,"yT1":0,"xT2":1058.1,"yT2":0,"toosoon":0,"cond_shown":"randomdotsizeEA","ratio_trial":750,"smaller_num":"3","larger_num":"4","correct_side":1,"subjID":"lauracatalina5","gender":"1","age":"10","school":"6"},{"start_time":1551900279803,"click_time":1551900281844,"finger_time":1551900281505,"fix_duration":838.3099226861144,"trial":40,"RT":1702,"MT":339,"sideResp":1,"stimulus":"img/750/equaldotsize/L/14_Ratio_750_L_8_R_6.png","xmouse":[774,775,775,775,775,775,775,775,775,775,775,775,775,775,775,775,775,775,775,775,775,775,775,775,775,775,775,775,775,775,775,775,775,775,775,775,775,775,775,775,775,775,775,775,775,775,775,775,775,775,775,775,775,775,775,775,775,775,775,775,775,775,775,775,775,775,775,775,775,775,775,775,775,775,775,775,775,775,775,775,775,775,775,775,767,725,678,608,599,598,598,598,598,598,596,593,593,593,590,584,574,561,506],"ymouse":[530,530,530,530,530,530,530,530,530,530,530,530,530,530,530,530,530,530,530,530,530,530,530,530,530,530,530,530,530,530,530,530,530,530,530,530,530,530,530,530,530,530,530,530,530,530,530,530,530,530,530,530,530,530,530,530,530,530,530,530,530,530,530,530,530,530,530,530,530,530,530,530,530,530,530,530,530,530,530,530,530,530,530,530,493,389,281,132,112,111,111,111,94,63,39,31,31,31,31,33,40,48,82],"timestamp_mouse":[10,23,49,60,80,100,120,140,161,181,201,222,241,260,280,301,321,340,360,382,401,420,440,461,481,501,520,541,560,580,601,621,642,662,681,701,720,741,760,780,800,822,841,860,880,900,920,941,961,980,1000,1020,1041,1060,1080,1100,1121,1141,1161,1180,1200,1222,1241,1261,1280,1300,1321,1341,1360,1380,1401,1422,1441,1460,1480,1500,1520,1541,1560,1581,1602,1620,1641,1661,1681,1702,1720,1741,1760,1780,1801,1822,1841,1861,1882,1901,1922,1941,1960,1980,2000,2021,2041],"xSR":741.5,"ySR":469.95,"xT1":424.9,"yT1":0,"xT2":1058.1,"yT2":0,"toosoon":0,"cond_shown":"equaldotsize","ratio_trial":750,"smaller_num":"6","larger_num":"8","correct_side":1,"subjID":"lauracatalina5","gender":"1","age":"10","school":"6"},{"start_time":1551900284158,"click_time":1551900294983,"finger_time":1551900294323,"fix_duration":1114.616432830771,"trial":41,"RT":10165,"MT":660,"sideResp":2,"stimulus":"img/250/randomdotsizeEA/R/10_Ratio_250_L_4_R_16.png","xmouse":[808,808,808,808,808,808,808,808,808,808,808,808,808,808,808,808,808,808,808,808,808,808,808,808,808,808,808,808,808,808,808,808,808,808,808,808,808,808,808,808,808,808,808,808,808,808,808,808,808,808,808,808,808,808,808,808,808,808,808,808,808,808,808,808,808,808,808,808,808,808,808,808,808,808,808,808,808,808,808,808,808,808,808,808,808,808,808,808,808,808,808,808,808,808,808,808,808,808,808,808,808,808,808,808,808,808,808,808,808,808,808,808,808,808,808,808,808,808,808,808,808,808,808,808,808,808,808,808,808,808,808,808,808,808,808,808,808,808,808,808,808,808,808,808,808,808,808,808,808,808,808,808,808,808,808,808,808,808,808,808,808,808,808,808,808,808,808,808,808,808,808,808,808,808,808,808,808,808,808,808,808,808,808,808,808,808,808,808,808,808,808,808,808,808,808,808,808,808,808,808,808,808,808,808,808,808,808,808,808,808,808,808,808,808,808,808,808,808,808,808,808,808,808,808,808,808,808,808,808,808,808,808,808,808,808,808,808,808,808,808,808,808,808,808,808,808,808,808,808,808,808,808,808,808,808,808,808,808,808,808,808,808,808,808,808,808,808,808,808,808,808,808,808,808,808,808,808,808,808,808,808,808,808,808,808,808,808,808,808,808,808,808,808,808,808,808,808,808,808,808,808,808,808,808,808,808,808,808,808,808,808,808,808,808,808,808,808,808,808,808,808,808,808,808,808,808,808,808,808,808,808,808,808,808,808,808,808,808,808,808,808,808,808,808,808,808,808,808,808,808,808,808,808,808,808,808,808,808,808,808,808,808,808,808,808,808,808,808,808,808,808,808,808,808,808,808,808,808,808,808,808,808,808,808,808,808,808,808,808,808,808,808,808,808,808,808,808,808,808,808,808,808,808,808,808,808,808,808,808,808,808,808,808,808,808,808,808,808,808,808,808,808,808,808,808,808,808,808,808,808,808,808,808,808,808,808,808,808,808,808,808,808,808,808,808,808,808,808,808,808,808,808,808,808,808,808,808,808,808,808,808,808,808,808,808,808,808,808,808,808,808,808,808,808,808,808,808,808,808,808,808,808,808,808,808,808,808,808,808,808,808,808,808,808,808,808,808,808,808,808,808,808,808,808,808,808,816,829,870,894,929,936,938,940,941,942,946,948,956,962,975,982,987,990,993,1002,1008,1013,1019,1020,1020,1024,1026,1027,1030,1032,1034,1035,1036,1036,1043,1061],"ymouse":[495,495,495,495,495,495,495,495,495,495,495,495,495,495,495,495,495,495,495,495,495,495,495,495,495,495,495,495,495,495,495,495,495,495,495,495,495,495,495,495,495,495,495,495,495,495,495,495,495,495,495,495,495,495,495,495,495,495,495,495,495,495,495,495,495,495,495,495,495,495,495,495,495,495,495,495,495,495,495,495,495,495,495,495,495,495,495,495,495,495,495,495,495,495,495,495,495,495,495,495,495,495,495,495,495,495,495,495,495,495,495,495,495,495,495,495,495,495,495,495,495,495,495,495,495,495,495,495,495,495,495,495,495,495,495,495,495,495,495,495,495,495,495,495,495,495,495,495,495,495,495,495,495,495,495,495,495,495,495,495,495,495,495,495,495,495,495,495,495,495,495,495,495,495,495,495,495,495,495,495,495,495,495,495,495,495,495,495,495,495,495,495,495,495,495,495,495,495,495,495,495,495,495,495,495,495,495,495,495,495,495,495,495,495,495,495,495,495,495,495,495,495,495,495,495,495,495,495,495,495,495,495,495,495,495,495,495,495,495,495,495,495,495,495,495,495,495,495,495,495,495,495,495,495,495,495,495,495,495,495,495,495,495,495,495,495,495,495,495,495,495,495,495,495,495,495,495,495,495,495,495,495,495,495,495,495,495,495,495,495,495,495,495,495,495,495,495,495,495,495,495,495,495,495,495,495,495,495,495,495,495,495,495,495,495,495,495,495,495,495,495,495,495,495,495,495,495,495,495,495,495,495,495,495,495,495,495,495,495,495,495,495,495,495,495,495,495,495,495,495,495,495,495,495,495,495,495,495,495,495,495,495,495,495,495,495,495,495,495,495,495,495,495,495,495,495,495,495,495,495,495,495,495,495,495,495,495,495,495,495,495,495,495,495,495,495,495,495,495,495,495,495,495,495,495,495,495,495,495,495,495,495,495,495,495,495,495,495,495,495,495,495,495,495,495,495,495,495,495,495,495,495,495,495,495,495,495,495,495,495,495,495,495,495,495,495,495,495,495,495,495,495,495,495,495,495,495,495,495,495,495,495,495,495,495,495,495,495,495,495,495,495,495,495,495,495,495,495,495,495,495,495,495,495,495,495,495,495,495,495,495,495,495,495,495,495,495,495,495,495,495,495,495,495,495,495,490,473,403,342,240,218,203,194,188,168,148,141,125,118,111,111,111,111,111,108,106,103,101,101,101,97,96,95,93,91,89,88,88,88,85,82],"timestamp_mouse":[9,25,45,66,86,105,126,145,165,185,206,225,245,265,286,305,326,345,366,385,405,426,447,465,486,506,525,545,565,585,605,625,645,666,685,705,725,746,765,785,805,825,847,865,885,905,925,945,966,986,1005,1026,1046,1066,1086,1105,1125,1145,1166,1185,1206,1226,1246,1265,1285,1305,1327,1346,1366,1385,1405,1425,1445,1465,1486,1505,1525,1545,1566,1586,1605,1626,1646,1666,1685,1705,1726,1745,1766,1785,1805,1825,1845,1865,1885,1906,1927,1946,1966,1985,2005,2025,2045,2066,2085,2105,2125,2145,2166,2186,2205,2225,2246,2266,2286,2306,2325,2346,2365,2385,2405,2425,2445,2466,2486,2505,2526,2545,2565,2585,2605,2626,2645,2665,2685,2706,2727,2745,2766,2785,2806,2825,2846,2865,2886,2907,2926,2945,2966,2985,3006,3025,3045,3065,3085,3105,3126,3146,3166,3185,3206,3225,3245,3265,3285,3305,3325,3345,3365,3385,3407,3426,3445,3465,3485,3506,3525,3545,3566,3586,3605,3626,3645,3666,3685,3705,3727,3746,3766,3786,3805,3826,3846,3865,3886,3905,3926,3945,3965,3985,4005,4026,4045,4065,4085,4105,4126,4145,4166,4186,4206,4225,4246,4266,4286,4306,4325,4345,4367,4385,4406,4425,4445,4465,4485,4506,4527,4546,4565,4585,4606,4625,4645,4666,4687,4706,4725,4745,4765,4786,4806,4827,4846,4865,4885,4907,4925,4946,4965,4986,5006,5026,5046,5065,5086,5105,5125,5146,5165,5185,5206,5226,5245,5265,5285,5305,5326,5346,5365,5385,5405,5426,5445,5465,5486,5507,5526,5547,5566,5585,5606,5625,5645,5665,5685,5706,5725,5745,5766,5787,5806,5826,5846,5865,5886,5907,5926,5945,5966,5987,6005,6025,6045,6066,6085,6105,6125,6146,6165,6185,6206,6226,6245,6266,6287,6305,6325,6345,6367,6385,6406,6425,6445,6466,6486,6506,6525,6545,6566,6585,6606,6626,6647,6665,6685,6705,6725,6745,6766,6786,6805,6825,6845,6866,6885,6906,6925,6945,6966,6986,7006,7026,7047,7066,7086,7106,7125,7146,7166,7186,7205,7225,7245,7265,7285,7307,7325,7345,7366,7386,7405,7425,7446,7465,7485,7506,7526,7547,7566,7585,7605,7626,7646,7665,7686,7705,7726,7745,7765,7785,7805,7826,7846,7866,7885,7905,7925,7945,7965,7985,8007,8026,8046,8065,8086,8105,8125,8145,8166,8186,8205,8225,8247,8265,8285,8306,8326,8345,8365,8386,8407,8426,8446,8465,8485,8506,8526,8545,8565,8586,8607,8625,8645,8665,8686,8706,8725,8746,8767,8786,8805,8825,8846,8866,8887,8905,8925,8945,8965,8985,9005,9025,9045,9066,9086,9105,9126,9145,9165,9185,9205,9225,9245,9265,9286,9307,9326,9345,9366,9387,9407,9425,9445,9465,9485,9505,9526,9545,9565,9586,9606,9625,9646,9667,9686,9706,9726,9745,9765,9785,9806,9826,9846,9866,9887,9905,9925,9946,9965,9985,10005,10025,10045,10066,10085,10106,10126,10145,10165,10187,10206,10227,10246,10267,10286,10306,10325,10346,10365,10386,10406,10425,10445,10465,10486,10506,10525,10545,10565,10587,10606,10625,10646,10665,10685,10705,10725,10745,10765,10785,10806,10825],"xSR":741.5,"ySR":469.95,"xT1":424.9,"yT1":0,"xT2":1058.1,"yT2":0,"toosoon":0,"cond_shown":"randomdotsizeEA","ratio_trial":250,"smaller_num":"4","larger_num":"16","correct_side":2,"subjID":"lauracatalina5","gender":"1","age":"10","school":"6"},{"start_time":1551900296636,"click_time":1551900297683,"finger_time":1551900297364,"fix_duration":250,"trial":42,"RT":728,"MT":319,"sideResp":1,"stimulus":"img/500/randomdotsizeEA/R/15_Ratio_500_L_1_R_2.png","xmouse":[763,763,763,763,763,763,763,763,763,763,763,763,763,763,763,763,763,763,763,764,765,765,765,765,765,765,765,765,765,765,765,765,765,765,765,760,732,666,645,634,628,620,612,606,599,589,578,575,569,562,550,527,514],"ymouse":[519,519,519,519,519,519,519,519,519,519,519,519,519,519,519,519,519,519,520,520,520,520,520,520,520,520,520,520,520,520,520,520,520,520,518,489,402,297,269,253,243,229,213,201,190,175,159,154,148,141,132,108,97],"timestamp_mouse":[8,28,48,67,97,107,128,147,167,188,207,227,247,268,288,308,328,347,367,388,408,428,448,467,487,508,528,547,568,588,608,628,647,668,687,708,728,747,768,787,807,828,847,868,888,908,929,947,967,989,1007,1029,1047],"xSR":741.5,"ySR":469.95,"xT1":424.9,"yT1":0,"xT2":1058.1,"yT2":0,"toosoon":0,"cond_shown":"randomdotsizeEA","ratio_trial":500,"smaller_num":"1","larger_num":"2","correct_side":2,"subjID":"lauracatalina5","gender":"1","age":"10","school":"6"},{"start_time":1551900299754,"click_time":1551900300684,"finger_time":1551900300384,"fix_duration":1188.2165155611763,"trial":43,"RT":630,"MT":300,"sideResp":1,"stimulus":"img/500/randomdotsizeEA/L/10_Ratio_500_L_4_R_2.png","xmouse":[804,804,804,804,804,804,804,804,804,804,804,804,804,804,804,804,804,804,804,804,804,804,804,804,804,804,804,804,804,803,798,761,715,664,598,598,598,598,598,598,598,598,598,598,598,598,492],"ymouse":[526,526,526,526,526,526,526,526,526,526,526,526,526,526,526,526,526,526,526,526,526,526,526,526,526,527,527,527,527,527,524,395,262,154,24,24,24,24,24,24,24,24,24,24,24,24,81],"timestamp_mouse":[10,30,49,69,89,110,129,150,169,190,209,230,250,271,290,309,331,349,371,391,410,429,449,471,491,509,529,550,571,591,609,630,649,671,689,710,730,750,770,791,810,830,849,870,890,910,929],"xSR":741.5,"ySR":469.95,"xT1":424.9,"yT1":0,"xT2":1058.1,"yT2":0,"toosoon":0,"cond_shown":"randomdotsizeEA","ratio_trial":500,"smaller_num":"2","larger_num":"4","correct_side":1,"subjID":"lauracatalina5","gender":"1","age":"10","school":"6"},{"start_time":1551900301936,"click_time":1551900303364,"finger_time":1551900303083,"fix_duration":250,"trial":44,"RT":1147,"MT":281,"sideResp":2,"stimulus":"img/900/equaldotanddens/R/12_Ratio_900_L_18_R_20.png","xmouse":[772,772,772,772,772,772,772,772,772,772,772,772,772,772,772,772,772,772,772,772,772,772,772,772,772,772,772,772,772,772,772,772,772,772,772,772,772,772,772,772,772,772,772,772,772,772,772,772,772,772,772,772,772,772,772,772,772,821,850,873,891,904,934,965,985,1003,1020,1051,1063,1074,1082,1087],"ymouse":[504,504,504,504,504,504,504,504,504,504,504,504,504,504,504,504,504,504,504,504,504,504,504,504,504,504,504,504,504,504,504,504,504,504,504,504,504,504,504,504,504,504,504,504,504,504,504,504,504,504,504,504,504,504,504,504,504,442,401,374,357,346,319,290,260,235,213,162,140,123,108,95],"timestamp_mouse":[9,28,60,69,88,107,128,148,168,188,207,228,247,268,289,308,327,348,368,388,408,429,448,468,488,508,528,547,568,587,608,628,648,668,688,708,728,748,767,787,808,828,848,868,888,908,929,948,968,988,1008,1028,1048,1068,1087,1108,1128,1147,1167,1189,1209,1228,1248,1268,1287,1307,1327,1348,1368,1389,1408,1427],"xSR":741.5,"ySR":469.95,"xT1":424.9,"yT1":0,"xT2":1058.1,"yT2":0,"toosoon":0,"cond_shown":"equaldotanddens","ratio_trial":900,"smaller_num":"18","larger_num":"20","correct_side":2,"subjID":"lauracatalina5","gender":"1","age":"10","school":"6"},{"start_time":1551900304983,"click_time":1551900306025,"finger_time":1551900305603,"fix_duration":697.7430007704804,"trial":45,"RT":620,"MT":422,"sideResp":1,"stimulus":"img/500/equaldotanddens/L/11_Ratio_500_L_12_R_6.png","xmouse":[820,820,820,819,815,809,808,808,808,808,808,808,808,808,808,808,808,808,808,808,808,808,808,808,808,808,808,808,808,806,784,724,693,689,689,689,689,689,689,689,689,689,689,689,680,651,560,524,507,500,497,486,478],"ymouse":[523,523,523,523,523,522,522,522,522,522,522,522,522,522,522,522,522,522,522,522,522,522,522,522,522,522,522,522,522,522,521,508,499,495,495,495,495,495,495,495,495,495,495,495,477,412,274,215,187,167,148,104,88],"timestamp_mouse":[8,21,46,61,82,101,121,141,161,181,202,221,242,261,281,300,321,341,360,380,400,421,442,461,482,501,521,541,560,580,602,620,640,661,681,702,720,742,760,780,802,820,841,860,881,900,921,941,962,981,1002,1021,1042],"xSR":741.5,"ySR":469.95,"xT1":424.9,"yT1":0,"xT2":1058.1,"yT2":0,"toosoon":0,"cond_shown":"equaldotanddens","ratio_trial":500,"smaller_num":"6","larger_num":"12","correct_side":1,"subjID":"lauracatalina5","gender":"1","age":"10","school":"6"},{"start_time":1551900308614,"click_time":1551900309865,"finger_time":1551900309504,"fix_duration":288.3709369306614,"trial":46,"RT":890,"MT":361,"sideResp":1,"stimulus":"img/900/equaldotanddens/L/8_Ratio_900_L_20_R_18.png","xmouse":[796,796,796,796,796,796,796,796,796,796,796,796,796,796,796,796,796,796,796,796,796,796,796,796,796,796,796,796,796,796,796,796,795,794,793,791,784,779,772,772,772,769,762,742,687,668,650,635,616,598,593,588,582,578,568,559,552,541,534,518,512,508,498],"ymouse":[542,542,542,542,542,542,542,542,542,542,542,542,542,542,542,542,542,542,542,542,542,542,542,542,542,542,542,542,542,541,541,540,539,538,538,528,513,503,496,496,496,494,491,486,452,433,405,370,299,239,221,209,199,191,178,165,156,141,133,118,113,107,93],"timestamp_mouse":[10,30,49,70,90,110,130,149,169,189,209,231,250,270,290,310,329,350,371,390,409,429,451,470,489,510,530,551,569,589,609,629,650,669,690,710,729,750,770,789,810,829,850,870,890,911,931,950,971,990,1010,1030,1050,1070,1089,1111,1130,1149,1170,1190,1209,1230,1251],"xSR":741.5,"ySR":469.95,"xT1":424.9,"yT1":0,"xT2":1058.1,"yT2":0,"toosoon":0,"cond_shown":"equaldotanddens","ratio_trial":900,"smaller_num":"18","larger_num":"20","correct_side":1,"subjID":"lauracatalina5","gender":"1","age":"10","school":"6"},{"start_time":1551900310757,"click_time":1551900312723,"finger_time":1551900311684,"fix_duration":250,"trial":47,"RT":927,"MT":1039,"sideResp":2,"stimulus":"img/500/randomdotsizeEA/R/1_Ratio_500_L_9_R_18.png","xmouse":[823,823,823,823,823,823,823,823,823,823,823,823,823,823,823,823,823,823,823,823,823,823,823,823,823,823,823,823,823,823,823,823,823,823,823,823,823,823,823,823,823,823,823,823,820,811,773,702,688,685,685,685,685,685,685,685,685,685,685,685,685,685,696,727,728,728,728,728,728,728,728,728,728,728,729,729,729,729,729,730,731,731,732,737,738,739,739,739,753,777,832,898,963,1022,1030,1037,1047,1057,1084],"ymouse":[501,501,501,501,501,501,501,501,501,501,501,501,501,501,501,501,501,501,501,501,501,501,501,501,501,501,501,501,501,501,501,501,501,501,501,501,501,501,501,501,501,501,501,501,494,481,433,337,309,300,298,298,296,289,287,287,287,287,287,287,287,291,332,387,389,389,389,389,390,390,390,400,427,432,433,433,433,433,434,435,435,435,437,458,461,462,462,462,461,439,374,289,214,138,127,118,108,100,76],"timestamp_mouse":[7,37,47,67,87,107,126,146,168,186,208,227,248,267,288,306,327,347,367,387,407,427,447,467,486,507,526,547,567,587,607,627,647,666,686,706,727,746,766,787,807,827,846,868,887,907,927,947,966,987,1007,1026,1047,1068,1087,1106,1126,1147,1166,1186,1206,1226,1247,1267,1287,1307,1327,1347,1367,1387,1407,1428,1448,1467,1487,1507,1527,1547,1568,1587,1607,1626,1647,1666,1687,1706,1727,1748,1767,1787,1808,1828,1847,1867,1888,1907,1927,1947,1966],"xSR":741.5,"ySR":469.95,"xT1":424.9,"yT1":0,"xT2":1058.1,"yT2":0,"toosoon":0,"cond_shown":"randomdotsizeEA","ratio_trial":500,"smaller_num":"9","larger_num":"18","correct_side":2,"subjID":"lauracatalina5","gender":"1","age":"10","school":"6"},{"start_time":1551900315055,"click_time":1551900315964,"finger_time":1551900315745,"fix_duration":250,"trial":48,"RT":690,"MT":219,"sideResp":2,"stimulus":"img/250/randomdotsizeEA/R/10_Ratio_250_L_4_R_16.png","xmouse":[778,778,778,778,778,778,778,778,778,778,778,778,778,778,778,778,778,778,778,778,778,778,778,778,778,778,778,778,778,778,778,778,778,805,873,924,965,1003,1017,1033,1059,1081,1100,1118,1124,1130],"ymouse":[537,537,537,537,537,537,537,537,537,537,537,537,537,537,537,537,537,537,537,537,537,537,537,537,537,537,537,537,537,537,537,537,537,510,422,367,321,276,260,237,201,173,144,120,108,98],"timestamp_mouse":[11,30,50,69,88,109,129,149,170,188,208,229,250,268,289,309,329,349,370,389,409,429,450,469,489,509,529,549,569,590,608,629,649,669,690,709,730,750,769,790,810,829,848,868,889,908],"xSR":741.5,"ySR":469.95,"xT1":424.9,"yT1":0,"xT2":1058.1,"yT2":0,"toosoon":0,"cond_shown":"randomdotsizeEA","ratio_trial":250,"smaller_num":"4","larger_num":"16","correct_side":2,"subjID":"lauracatalina5","gender":"1","age":"10","school":"6"},{"start_time":1551900317850,"click_time":1551900318905,"finger_time":1551900318584,"fix_duration":1083.2160419271183,"trial":49,"RT":734,"MT":321,"sideResp":2,"stimulus":"img/500/equaldotanddens/R/14_Ratio_500_L_5_R_10.png","xmouse":[806,806,806,806,806,806,806,806,806,806,806,806,806,806,806,806,806,806,806,806,806,806,806,806,806,806,806,806,806,806,806,806,806,806,806,806,866,939,1000,1001,1001,1001,1001,1001,1002,1003,1003,1003,1003,1003,1003,1027,1065],"ymouse":[531,531,531,531,531,531,531,531,531,531,531,531,531,531,531,531,531,531,531,531,531,531,531,531,531,531,531,531,531,531,531,531,531,531,531,529,443,313,148,124,111,109,109,109,105,90,85,85,85,85,85,79,73],"timestamp_mouse":[15,37,54,74,93,114,134,155,174,193,214,233,254,275,294,314,334,355,374,395,414,434,453,474,494,513,533,554,574,594,613,634,654,675,693,713,734,754,774,793,815,835,855,875,895,914,935,955,975,994,1014,1034,1055],"xSR":741.5,"ySR":469.95,"xT1":424.9,"yT1":0,"xT2":1058.1,"yT2":0,"toosoon":0,"cond_shown":"equaldotanddens","ratio_trial":500,"smaller_num":"5","larger_num":"10","correct_side":2,"subjID":"lauracatalina5","gender":"1","age":"10","school":"6"},{"start_time":1551900321522,"click_time":1551900322225,"finger_time":1551900322145,"fix_duration":496.1407729473304,"trial":50,"RT":623,"MT":80,"sideResp":1,"stimulus":"img/250/equaldotsize/L/7_Ratio_250_L_8_R_2.png","xmouse":[795,795,795,795,795,795,795,795,795,795,795,795,795,795,795,795,795,795,795,795,795,795,795,795,795,795,795,795,795,795,793,721,631,541,470,426],"ymouse":[510,510,510,510,510,510,510,510,510,510,510,510,510,510,510,510,510,510,510,510,510,510,510,510,510,510,510,510,510,510,507,436,334,229,148,84],"timestamp_mouse":[9,22,44,62,82,102,122,142,161,181,202,222,241,262,282,301,322,342,361,381,402,422,441,461,482,502,522,542,561,581,602,623,643,663,682,702],"xSR":741.5,"ySR":469.95,"xT1":424.9,"yT1":0,"xT2":1058.1,"yT2":0,"toosoon":0,"cond_shown":"equaldotsize","ratio_trial":250,"smaller_num":"2","larger_num":"8","correct_side":1,"subjID":"lauracatalina5","gender":"1","age":"10","school":"6"},{"start_time":1551900323800,"click_time":1551900325185,"finger_time":1551900324624,"fix_duration":774.5045630326124,"trial":51,"RT":824,"MT":561,"sideResp":2,"stimulus":"img/900/equaldotsize/L/2_Ratio_900_L_20_R_18.png","xmouse":[776,776,776,776,776,776,776,776,776,776,776,776,776,776,776,776,776,776,776,776,776,776,776,776,776,776,776,776,776,776,776,776,776,776,776,776,776,776,776,777,802,939,1037,1057,1079,1106,1144,1213,1230,1239,1244,1249,1255,1256,1256,1256,1256,1256,1256,1256,1254,1238,1203,1189,1185,1185,1185,1177,1164,1149],"ymouse":[510,510,510,510,510,510,510,510,510,510,510,510,510,510,510,510,510,510,510,510,510,510,510,510,510,510,510,510,510,510,510,510,510,510,510,510,510,510,510,510,502,431,396,385,367,339,298,188,143,117,101,85,53,44,42,42,42,42,42,42,41,52,66,72,75,75,75,75,76,76],"timestamp_mouse":[12,36,45,64,83,105,125,144,163,183,204,225,244,263,283,304,325,343,364,385,403,424,443,464,483,503,523,543,563,584,604,624,643,664,684,704,724,743,764,784,803,824,844,864,884,905,924,945,963,984,1003,1025,1044,1065,1083,1103,1125,1143,1164,1184,1204,1225,1243,1265,1284,1304,1323,1343,1365,1384],"xSR":741.5,"ySR":469.95,"xT1":424.9,"yT1":0,"xT2":1058.1,"yT2":0,"toosoon":0,"cond_shown":"equaldotsize","ratio_trial":900,"smaller_num":"18","larger_num":"20","correct_side":1,"subjID":"lauracatalina5","gender":"1","age":"10","school":"6"},{"start_time":1551900326616,"click_time":1551900328364,"finger_time":1551900328044,"fix_duration":471.9111621606987,"trial":52,"RT":1428,"MT":320,"sideResp":1,"stimulus":"img/500/randomdotsizeEA/L/4_Ratio_500_L_18_R_9.png","xmouse":[811,811,811,811,811,811,811,811,811,811,811,811,811,811,811,819,829,829,829,829,829,829,829,829,829,829,829,829,829,829,829,829,828,818,813,813,813,813,813,813,813,813,813,813,813,813,813,813,813,813,813,813,813,813,813,813,813,813,813,813,813,813,813,813,813,813,813,813,813,813,793,676,629,601,589,582,571,563,555,549,545,541,541,541,541,541,534,524],"ymouse":[504,504,504,504,504,504,504,504,504,504,504,504,504,504,504,498,492,492,492,492,492,492,492,492,492,492,492,492,492,492,492,492,494,521,538,543,543,543,543,543,543,543,543,543,543,543,543,543,543,543,543,543,543,543,543,543,543,543,543,543,543,543,543,543,543,543,543,543,543,544,520,380,324,288,272,263,240,226,214,205,196,165,150,144,140,127,75,54],"timestamp_mouse":[22,38,48,67,88,109,127,147,167,188,207,227,248,268,287,308,329,349,368,387,408,428,449,468,488,508,528,548,568,588,608,629,647,668,688,708,728,748,768,788,808,828,848,868,887,907,927,947,967,987,1007,1027,1047,1067,1087,1107,1127,1147,1167,1187,1207,1227,1247,1267,1287,1307,1329,1348,1368,1388,1408,1428,1448,1468,1488,1508,1528,1548,1568,1589,1608,1627,1648,1668,1688,1708,1727,1748],"xSR":741.5,"ySR":469.95,"xT1":424.9,"yT1":0,"xT2":1058.1,"yT2":0,"toosoon":0,"cond_shown":"randomdotsizeEA","ratio_trial":500,"smaller_num":"9","larger_num":"18","correct_side":1,"subjID":"lauracatalina5","gender":"1","age":"10","school":"6"},{"start_time":1551900330166,"click_time":1551900331185,"finger_time":1551900331044,"fix_duration":1121.9185748133439,"trial":53,"RT":878,"MT":141,"sideResp":2,"stimulus":"img/250/randomdotsizeEA/R/9_Ratio_250_L_3_R_12.png","xmouse":[815,815,815,815,815,815,815,815,815,815,815,815,815,815,815,815,815,815,815,815,815,815,815,815,816,816,816,816,815,815,813,813,813,813,813,813,813,813,813,813,813,812,820,860,879,898,914,937,1008,1051,1069],"ymouse":[545,545,545,545,545,545,545,545,545,545,545,545,545,545,545,545,545,545,545,545,545,545,545,545,544,543,543,543,542,542,542,542,542,542,542,542,542,542,542,542,542,541,509,424,398,377,353,315,170,64,28],"timestamp_mouse":[19,38,59,78,98,117,139,158,178,198,217,237,258,278,298,317,337,358,378,397,417,439,458,478,497,518,538,558,578,598,617,638,658,678,699,718,738,758,777,797,818,838,858,878,897,918,938,959,979,997,1019],"xSR":741.5,"ySR":469.95,"xT1":424.9,"yT1":0,"xT2":1058.1,"yT2":0,"toosoon":0,"cond_shown":"randomdotsizeEA","ratio_trial":250,"smaller_num":"3","larger_num":"12","correct_side":2,"subjID":"lauracatalina5","gender":"1","age":"10","school":"6"},{"start_time":1551900332436,"click_time":1551900333705,"finger_time":1551900333463,"fix_duration":250,"trial":54,"RT":1027,"MT":242,"sideResp":2,"stimulus":"img/750/equaldotanddens/R/11_Ratio_750_L_12_R_16.png","xmouse":[791,791,791,791,791,791,791,791,791,791,791,791,791,791,791,791,791,791,791,791,791,791,791,791,791,791,791,791,791,791,791,791,791,791,791,791,791,791,791,791,791,791,791,791,791,791,791,791,791,791,807,865,893,909,924,940,999,1015,1025,1036,1052,1078,1087,1095],"ymouse":[508,508,508,508,508,508,508,508,508,508,508,508,508,508,508,508,508,508,508,508,508,508,508,508,508,508,508,508,508,508,508,508,508,508,508,508,508,508,508,508,508,508,508,508,508,508,508,508,508,508,491,424,405,392,377,355,260,224,201,184,164,128,112,95],"timestamp_mouse":[9,37,47,68,88,107,128,148,168,187,207,227,247,268,288,307,328,348,368,389,409,427,448,467,487,508,527,548,569,589,608,629,648,667,687,709,727,749,769,788,807,828,847,867,887,909,929,948,968,988,1007,1027,1047,1068,1088,1109,1128,1149,1168,1188,1209,1228,1248,1269],"xSR":741.5,"ySR":469.95,"xT1":424.9,"yT1":0,"xT2":1058.1,"yT2":0,"toosoon":0,"cond_shown":"equaldotanddens","ratio_trial":750,"smaller_num":"12","larger_num":"16","correct_side":2,"subjID":"lauracatalina5","gender":"1","age":"10","school":"6"},{"start_time":1551900334756,"click_time":1551900336405,"finger_time":1551900335443,"fix_duration":250,"trial":55,"RT":687,"MT":962,"sideResp":2,"stimulus":"img/500/equaldotsize/R/12_Ratio_500_L_1_R_2.png","xmouse":[803,803,803,803,803,803,803,803,803,803,803,803,803,803,803,803,803,803,803,803,803,803,803,803,803,803,803,803,803,803,803,803,795,781,724,600,583,582,582,582,577,573,573,573,573,573,573,605,620,647,650,650,651,659,668,680,680,680,680,680,685,706,732,752,771,803,826,847,873,884,917,944,975,1003,1019,1035,1039,1042,1046,1057,1070,1098,1108],"ymouse":[490,490,490,490,490,490,490,490,490,490,490,490,490,490,490,490,490,490,490,490,490,490,490,490,490,490,490,490,490,490,490,490,487,470,400,288,276,276,276,276,275,274,274,274,274,274,275,358,387,431,436,436,437,453,469,485,485,485,485,485,489,501,510,514,514,501,485,468,443,428,367,322,262,218,188,162,155,152,148,140,131,108,96],"timestamp_mouse":[9,34,48,68,88,108,128,147,167,187,207,227,248,268,288,308,328,348,369,387,407,428,447,468,488,508,527,547,569,588,609,628,648,667,687,708,728,748,769,788,808,827,848,869,888,908,928,948,968,989,1009,1028,1048,1068,1087,1109,1127,1148,1168,1188,1207,1229,1247,1268,1288,1307,1329,1349,1367,1388,1408,1427,1448,1468,1487,1508,1529,1549,1568,1587,1608,1628,1649],"xSR":741.5,"ySR":469.95,"xT1":424.9,"yT1":0,"xT2":1058.1,"yT2":0,"toosoon":0,"cond_shown":"equaldotsize","ratio_trial":500,"smaller_num":"1","larger_num":"2","correct_side":2,"subjID":"lauracatalina5","gender":"1","age":"10","school":"6"},{"start_time":1551900337911,"click_time":1551900344984,"finger_time":1551900338664,"fix_duration":946.83706528368,"trial":56,"RT":753,"MT":6320,"sideResp":2,"stimulus":"img/750/randomdotsizeEA/R/2_Ratio_750_L_6_R_8.png","xmouse":[779,779,779,779,779,779,779,779,779,779,779,779,779,779,779,779,779,779,779,779,779,779,779,779,779,779,779,779,779,779,779,779,779,779,779,779,773,735,682,656,645,639,632,628,619,610,601,590,584,581,578,576,576,576,576,576,576,576,576,576,576,576,576,576,579,585,589,590,590,590,590,590,591,591,591,591,594,598,604,608,612,617,625,628,632,635,635,635,635,635,635,635,635,638,642,643,645,647,654,657,660,666,708,730,747,752,752,753,755,755,755,755,755,755,755,755,755,755,755,755,753,732,716,716,716,716,716,716,716,716,716,716,716,716,716,716,731,743,749,749,749,749,749,749,749,749,749,749,727,727,727,727,727,718,707,702,698,696,695,695,695,695,695,695,695,695,695,694,663,642,630,628,627,627,627,627,627,627,627,627,627,627,627,627,627,627,627,627,627,627,627,627,627,627,627,623,619,619,619,613,602,584,565,552,552,552,552,552,552,552,564,580,590,595,595,595,595,595,595,595,595,595,595,595,595,595,604,604,611,612,613,615,617,620,620,620,620,620,620,620,620,620,649,720,747,768,800,811,871,883,890,896,900,910,917,929,955,959,965,965,965,965,965,965,965,965,965,965,965,965,965,966,973,1009,1013,1013,1013,1013,1013,1013,1013,1013,1013,1014,1014,1014,1017,1025,1043,1049,1050,1052,1053,1054,1054,1054,1052,1047,1038,1034,1031,1028,1023,997,977,960,949,947,947,947,947,947,947,947,947,947,946,943,942,940,936,934,933,933,933,933,933,933,933,933,933,933,933,933,933,933,933,933,933,933,933,933,933,940,969,1001,1031,1069,1097,1109,1123,1130,1133,1136],"ymouse":[513,513,513,513,513,513,513,513,513,513,513,513,513,513,513,513,513,513,513,513,513,513,513,513,513,513,513,513,513,513,513,513,513,513,513,513,493,419,349,320,306,300,297,294,279,258,241,220,206,198,193,189,189,189,189,189,189,189,189,189,189,189,189,189,189,194,200,202,202,202,202,202,202,202,202,202,204,208,218,224,227,230,233,238,243,246,246,246,246,246,246,246,247,248,250,250,252,252,254,255,256,256,244,241,240,238,238,238,238,238,238,238,238,238,238,238,238,238,238,238,238,240,241,241,241,241,241,242,242,242,242,242,242,242,242,242,242,242,242,242,242,242,242,242,242,242,242,243,259,259,259,259,259,265,271,273,275,277,277,277,277,277,277,277,277,277,277,279,301,311,316,317,318,318,318,318,318,318,318,318,318,318,318,318,318,318,318,318,318,318,318,318,318,318,318,324,330,330,331,334,343,357,370,381,382,382,382,382,382,382,380,375,370,364,363,363,363,363,363,363,363,363,363,363,377,388,412,412,420,422,427,433,438,443,443,443,443,443,443,443,443,443,427,390,379,370,356,351,317,310,305,300,297,292,290,287,284,284,281,281,281,281,281,281,281,281,281,281,281,281,281,281,269,202,197,197,197,197,197,197,197,197,197,196,196,196,197,209,229,236,239,242,247,264,271,279,286,297,305,307,308,308,308,298,287,279,276,275,275,275,275,275,275,275,275,275,275,288,299,304,312,318,322,323,323,323,323,323,323,323,323,323,323,323,323,323,323,323,323,323,323,323,323,324,310,292,272,240,197,171,138,115,101,87],"timestamp_mouse":[13,33,53,72,94,113,133,152,173,193,213,233,252,272,292,313,332,354,372,393,414,433,453,472,494,514,532,552,573,593,613,632,654,672,694,713,732,753,772,793,813,833,853,872,892,914,932,954,972,993,1013,1033,1053,1073,1092,1113,1132,1154,1173,1194,1213,1233,1254,1273,1292,1314,1333,1354,1373,1392,1414,1432,1454,1473,1493,1513,1533,1554,1573,1593,1613,1632,1654,1672,1694,1714,1732,1754,1773,1793,1813,1832,1854,1873,1893,1914,1933,1952,1972,1992,2012,2033,2054,2072,2093,2113,2133,2153,2172,2193,2213,2234,2254,2272,2292,2312,2333,2354,2373,2394,2413,2432,2454,2473,2492,2513,2532,2553,2573,2593,2613,2633,2654,2674,2693,2713,2733,2752,2773,2792,2812,2833,2854,2872,2892,2913,2932,2953,2972,2993,3014,3034,3053,3072,3093,3113,3133,3153,3173,3192,3212,3233,3254,3273,3292,3312,3332,3354,3372,3393,3413,3433,3454,3473,3493,3513,3532,3552,3572,3592,3613,3633,3653,3672,3692,3712,3732,3752,3773,3793,3812,3833,3854,3872,3892,3913,3934,3954,3973,3993,4013,4032,4052,4073,4093,4113,4132,4152,4172,4193,4212,4232,4253,4273,4294,4313,4333,4354,4373,4393,4413,4432,4452,4473,4492,4513,4539,4552,4572,4592,4612,4632,4652,4672,4693,4712,4733,4753,4773,4792,4812,4833,4852,4872,4892,4913,4933,4954,4973,4994,5013,5034,5053,5073,5093,5114,5133,5152,5173,5193,5213,5233,5253,5273,5293,5313,5332,5353,5373,5393,5413,5432,5452,5473,5493,5513,5533,5552,5573,5592,5612,5633,5652,5672,5693,5713,5733,5752,5774,5793,5813,5834,5852,5873,5894,5912,5932,5952,5973,5993,6013,6034,6052,6072,6093,6114,6133,6153,6173,6193,6212,6233,6253,6273,6293,6312,6332,6354,6373,6393,6412,6433,6452,6474,6493,6513,6533,6553,6574,6594,6613,6634,6652,6673,6693,6712,6733,6753,6774,6793,6813,6833,6853,6873,6893,6913,6932,6953,6973,6993,7012,7032,7052,7072],"xSR":741.5,"ySR":469.95,"xT1":424.9,"yT1":0,"xT2":1058.1,"yT2":0,"toosoon":0,"cond_shown":"randomdotsizeEA","ratio_trial":750,"smaller_num":"6","larger_num":"8","correct_side":2,"subjID":"lauracatalina5","gender":"1","age":"10","school":"6"},{"start_time":1551900346375,"click_time":1551900347485,"finger_time":1551900347184,"fix_duration":268.1601969137478,"trial":57,"RT":809,"MT":301,"sideResp":2,"stimulus":"img/750/equaldotanddens/R/3_Ratio_750_L_15_R_20.png","xmouse":[814,814,814,814,814,814,814,813,813,813,811,797,794,791,791,791,791,791,791,791,791,791,791,791,791,791,791,791,791,791,791,791,791,791,791,791,791,791,791,791,802,802,798,798,798,798,798,798,833,913,1059,1088,1103,1110,1119,1138],"ymouse":[525,525,525,525,525,525,525,525,525,525,524,523,523,523,523,523,523,523,523,523,523,523,523,523,523,523,523,523,523,523,523,523,523,523,523,523,523,523,522,511,441,394,378,378,378,378,378,376,350,307,214,182,155,138,119,68],"timestamp_mouse":[8,37,49,69,88,108,129,150,169,188,208,229,250,269,288,309,329,349,368,388,409,430,448,468,489,509,529,550,568,588,608,629,649,669,688,709,729,749,770,788,809,828,849,869,888,909,929,949,970,988,1010,1028,1049,1068,1088,1110],"xSR":741.5,"ySR":469.95,"xT1":424.9,"yT1":0,"xT2":1058.1,"yT2":0,"toosoon":0,"cond_shown":"equaldotanddens","ratio_trial":750,"smaller_num":"15","larger_num":"20","correct_side":2,"subjID":"lauracatalina5","gender":"1","age":"10","school":"6"},{"start_time":1551900348355,"click_time":1551900349504,"finger_time":1551900349224,"fix_duration":250,"trial":58,"RT":869,"MT":280,"sideResp":1,"stimulus":"img/250/randomdotsizeEA/L/3_Ratio_250_L_8_R_2.png","xmouse":[774,774,774,774,774,774,774,774,774,774,774,774,774,774,774,774,774,774,774,774,774,774,774,774,774,774,774,774,774,774,774,774,774,774,774,774,774,774,774,774,774,774,758,719,688,673,663,661,656,650,639,611,598,595,594,591,579,512],"ymouse":[525,525,525,525,525,525,525,525,525,525,525,525,525,525,525,525,525,525,525,525,525,525,525,525,525,525,525,525,525,525,525,525,525,525,525,525,525,525,525,525,525,525,506,453,418,396,376,367,350,329,304,225,198,194,194,191,168,72],"timestamp_mouse":[9,35,48,69,89,108,129,149,168,189,209,230,249,269,289,308,328,348,369,389,409,429,450,470,488,508,528,549,569,588,608,629,649,668,689,70