[{"start_time":1551882514647,"click_time":1551882523303,"finger_time":1551882522623,"fix_duration":362.79467885204406,"trial":0,"RT":7976,"MT":680,"sideResp":2,"stimulus":[],"xmouse":[783,783,783,783,783,783,783,783,783,783,783,783,783,783,783,783,783,783,783,783,783,783,783,783,783,783,783,783,783,783,783,783,783,783,783,783,783,783,783,783,783,783,783,783,783,783,783,783,783,783,783,783,783,783,783,783,783,783,783,783,783,783,783,783,783,783,783,783,783,783,783,783,783,783,783,783,783,783,783,783,783,783,783,783,783,783,783,783,783,783,783,783,783,783,783,783,783,783,783,783,783,783,783,783,783,783,783,783,783,783,783,783,783,783,783,783,783,783,783,783,783,783,783,783,783,783,783,783,783,783,783,783,783,783,783,783,783,783,783,783,783,783,783,783,783,783,783,783,783,783,783,783,783,783,783,783,783,783,783,783,783,783,783,783,783,783,783,783,783,783,783,783,783,783,783,783,783,783,783,783,783,783,783,783,783,783,783,783,783,783,783,783,783,783,783,783,783,783,783,783,783,783,783,783,783,783,783,783,783,783,783,783,783,783,783,783,783,783,783,783,783,783,783,783,783,783,783,783,783,783,783,783,783,783,783,783,783,783,783,783,783,783,783,783,783,783,783,783,783,783,783,783,783,783,783,783,783,783,783,783,783,783,783,783,783,783,783,783,783,783,783,783,783,783,783,783,783,783,783,783,783,783,783,783,783,783,783,783,783,783,783,783,783,783,783,783,783,783,783,783,783,783,783,783,783,783,783,783,783,783,783,783,783,783,783,783,783,783,783,783,783,783,783,783,783,783,783,783,783,783,783,783,783,783,783,783,783,783,783,783,783,783,783,783,783,783,783,783,783,783,783,783,783,783,783,783,783,783,783,783,783,783,783,783,783,783,783,783,783,783,783,783,783,783,783,783,783,783,783,783,783,783,783,783,783,783,783,783,783,783,783,783,783,783,783,783,783,785,854,954,1054,1157,1361,1429,1470,1505,1530,1562,1562,1562,1562,1562,1562,1562,1571,1544,1508,1508,1508,1508,1508,1508,1508,1508,1508,1508,1508,1508,1508,1508,1508,1508,1144],"ymouse":[495,495,495,495,495,495,495,495,495,495,495,495,495,495,495,495,495,495,495,495,495,495,495,495,495,495,495,495,495,495,495,495,495,495,495,495,495,495,495,495,495,495,495,495,495,495,495,495,495,495,495,495,495,495,495,495,495,495,495,495,495,495,495,495,495,495,495,495,495,495,495,495,495,495,495,495,495,495,495,495,495,495,495,495,495,495,495,495,495,495,495,495,495,495,495,495,495,495,495,495,495,495,495,495,495,495,495,495,495,495,495,495,495,495,495,495,495,495,495,495,495,495,495,495,495,495,495,495,495,495,495,495,495,495,495,495,495,495,495,495,495,495,495,495,495,495,495,495,495,495,495,495,495,495,495,495,495,495,495,495,495,495,495,495,495,495,495,495,495,495,495,495,495,495,495,495,495,495,495,495,495,495,495,495,495,495,495,495,495,495,495,495,495,495,495,495,495,495,495,495,495,495,495,495,495,495,495,495,495,495,495,495,495,495,495,495,495,495,495,495,495,495,495,495,495,495,495,495,495,495,495,495,495,495,495,495,495,495,495,495,495,495,495,495,495,495,495,495,495,495,495,495,495,495,495,495,495,495,495,495,495,495,495,495,495,495,495,495,495,495,495,495,495,495,495,495,495,495,495,495,495,495,495,495,495,495,495,495,495,495,495,495,495,495,495,495,495,495,495,495,495,495,495,495,495,495,495,495,495,495,495,495,495,495,495,495,495,495,495,495,495,495,495,495,495,495,495,495,495,495,495,495,495,495,495,495,495,495,495,495,495,495,495,495,495,495,495,495,495,495,495,495,495,495,495,495,495,495,495,495,495,495,495,495,495,495,495,495,495,495,495,495,495,495,495,495,495,495,495,495,495,495,495,495,495,495,495,495,495,495,495,495,495,495,495,495,495,494,483,481,481,481,480,469,460,449,442,433,433,433,433,433,433,433,157,95,29,29,29,29,29,29,29,29,29,29,29,29,29,29,29,29,4],"timestamp_mouse":[16,36,58,76,97,116,136,157,177,196,216,237,256,277,297,318,337,356,376,397,416,436,456,478,496,517,536,556,576,596,616,636,656,677,696,716,736,756,778,797,816,836,856,877,896,916,936,956,976,996,1016,1036,1056,1077,1097,1116,1136,1156,1176,1197,1217,1236,1256,1277,1297,1316,1336,1356,1376,1396,1416,1436,1456,1476,1496,1516,1536,1556,1576,1596,1616,1636,1656,1676,1696,1716,1737,1756,1776,1796,1817,1836,1856,1877,1896,1917,1936,1956,1977,1997,2016,2036,2056,2077,2096,2116,2137,2156,2177,2196,2216,2236,2256,2276,2297,2317,2336,2356,2376,2397,2417,2436,2456,2477,2496,2517,2536,2556,2576,2597,2616,2636,2657,2676,2697,2717,2737,2758,2776,2796,2816,2837,2857,2877,2896,2917,2936,2958,2977,2996,3016,3037,3058,3076,3097,3117,3137,3156,3176,3196,3216,3237,3256,3276,3296,3317,3336,3356,3377,3396,3416,3436,3456,3477,3496,3517,3536,3556,3577,3596,3616,3636,3656,3677,3697,3716,3736,3756,3776,3797,3816,3836,3856,3877,3897,3917,3937,3956,3977,3996,4016,4036,4056,4076,4096,4116,4137,4156,4176,4196,4216,4237,4256,4277,4296,4316,4336,4356,4376,4396,4417,4436,4457,4477,4496,4516,4536,4556,4577,4596,4616,4637,4656,4676,4697,4717,4737,4756,4776,4798,4816,4837,4857,4876,4897,4916,4936,4956,4976,4996,5017,5037,5056,5077,5098,5117,5137,5156,5177,5198,5217,5236,5258,5276,5296,5318,5336,5356,5376,5396,5417,5437,5456,5477,5497,5516,5536,5556,5576,5598,5617,5636,5656,5676,5697,5716,5737,5757,5776,5796,5816,5837,5856,5877,5896,5917,5936,5956,5976,5997,6016,6038,6056,6076,6096,6117,6137,6156,6176,6197,6217,6236,6257,6276,6297,6317,6337,6356,6376,6396,6416,6437,6456,6476,6496,6517,6536,6556,6576,6596,6616,6636,6656,6677,6697,6716,6736,6756,6776,6796,6817,6836,6856,6876,6897,6916,6937,6956,6976,6996,7017,7036,7056,7077,7097,7116,7136,7156,7176,7196,7216,7236,7257,7277,7296,7317,7336,7357,7376,7396,7417,7437,7457,7476,7496,7516,7537,7556,7576,7598,7617,7636,7657,7676,7697,7717,7736,7757,7776,7796,7816,7836,7856,7876,7896,7916,7936,7956,7976,7996,8016,8037,8056,8076,8096,8117,8136,8156,8176,8196,8217,8237,8256,8276,8297,8316,8337,8356,8376,8396,8416,8437,8456,8476,8496,8516,8537,8556,8576,8597,8617,8636,8656],"xSR":741.5,"ySR":449.15000000000003,"xT1":424.9,"yT1":0,"xT2":1058.1,"yT2":0,"toosoon":0,"cond_shown":"Incongruent","ratio_trial":200,"L_num":3,"L_den":10,"R_num":1,"R_den":2,"correct_side":2,"subjID":"IsabellaRubianoDuarte29","gender":"1","age":"10","school":"6","test":{"fix_dur":[250,1500],"timestim":1000,"targets_dim":[100,100],"targets_relative_coord":[0.3,0.7],"size_stim":[880,420],"start_dim":[100,100],"size_start":[300,300],"size_fix":60,"samplingrate":20,"img_types":["Congruent","Incongruent"],"ratios":[100,200,300],"rep_conds":19,"nTrials":120,"trials_to_rest":500,"Trials_order":[27,12,108,89,36,97,45,21,6,33,104,72,48,42,74,2,115,117,32,13,101,31,17,107,111,20,58,93,47,46,56,29,110,88,25,38,53,112,96,87,61,80,119,66,41,94,23,100,57,113,84,86,35,92,8,70,16,79,116,26,99,15,114,83,11,43,34,44,68,71,109,90,63,3,18,24,76,60,118,4,22,98,39,9,106,30,50,49,64,95,37,0,85,5,103,54,65,40,81,28,51,69,102,77,1,19,62,73,67,14,82,10,91,59,105,55,78,7,52,75],"cond_shown":["Incongruent","Congruent","Congruent","Incongruent","Congruent","Incongruent","Incongruent","Incongruent","Congruent","Incongruent","Congruent","Congruent","Congruent","Congruent","Congruent","Congruent","Incongruent","Incongruent","Congruent","Incongruent","Incongruent","Incongruent","Incongruent","Incongruent","Incongruent","Congruent","Congruent","Incongruent","Incongruent","Congruent","Congruent","Incongruent","Congruent","Congruent","Incongruent","Congruent","Incongruent","Congruent","Congruent","Incongruent","Incongruent","Congruent","Incongruent","Congruent","Incongruent","Congruent","Incongruent","Congruent","Incongruent","Incongruent","Congruent","Congruent","Incongruent","Congruent","Congruent","Congruent","Congruent","Incongruent","Congruent","Congruent","Incongruent","Incongruent","Congruent","Incongruent","Incongruent","Incongruent","Congruent","Congruent","Congruent","Incongruent","Incongruent","Congruent","Incongruent","Incongruent","Congruent","Congruent","Congruent","Congruent","Congruent","Congruent","Congruent","Congruent","Incongruent","Incongruent","Congruent","Congruent","Congruent","Incongruent","Congruent","Incongruent","Incongruent","Congruent","Incongruent","Incongruent","Incongruent","Congruent","Incongruent","Congruent","Incongruent","Congruent","Incongruent","Incongruent","Congruent","Incongruent","Incongruent","Incongruent","Congruent","Incongruent","Incongruent","Congruent","Congruent","Congruent","Incongruent","Incongruent","Incongruent","Incongruent","Congruent","Incongruent","Congruent","Incongruent"],"ratio_trial":[200,100,100,300,100,100,200,200,100,200,200,100,100,100,200,200,100,200,200,100,300,100,300,300,200,200,300,200,300,300,200,300,200,300,100,200,300,300,100,200,100,200,300,100,300,300,300,300,200,300,100,200,300,200,200,300,300,100,200,200,200,200,100,300,300,100,300,200,200,300,100,100,200,200,100,100,300,100,300,300,300,200,200,200,300,100,200,100,300,300,100,100,100,300,100,100,300,300,200,300,200,200,100,300,100,100,200,100,100,200,300,300,100,300,200,100,100,100,300,200],"left_num":[3,3,1,3,2,8,4,1,12,11,4,11,12,9,3,9,10,4,3,13,4,8,13,13,1,3,1,1,3,3,16,13,15,7,6,9,4,20,6,6,6,15,8,15,4,11,13,2,1,4,11,13,3,20,20,1,7,2,3,6,1,14,4,1,4,3,1,4,4,13,2,11,4,7,3,4,24,3,20,5,18,8,7,1,11,2,15,13,4,1,10,7,9,4,4,2,7,4,9,11,7,3,6,4,6,6,3,13,3,8,5,20,10,3,1,12,3,6,24,7],"right_num":[1,2,3,4,11,1,6,3,13,3,3,6,13,8,14,13,9,1,9,12,2,1,12,12,2,9,8,2,4,2,12,12,4,20,3,13,6,5,5,3,3,4,9,13,2,4,12,10,3,2,4,14,4,9,9,11,20,6,14,11,2,6,15,2,2,4,11,3,3,12,6,6,6,8,2,6,2,2,8,6,9,2,6,3,1,11,4,6,2,3,8,15,6,2,8,6,8,13,8,2,12,1,15,8,7,3,11,12,7,7,6,8,9,4,2,9,4,3,2,8],"left_den":[10,6,2,6,5,20,5,2,30,20,8,22,30,15,10,30,25,30,12,26,20,20,26,26,3,12,30,3,6,6,20,26,25,14,12,30,5,25,20,20,12,25,10,25,20,22,26,20,2,20,22,26,6,25,25,5,14,4,10,20,3,30,10,2,20,6,5,8,10,26,4,22,5,10,6,8,30,6,25,25,20,15,15,2,22,5,25,26,5,2,25,14,18,20,8,5,10,20,15,22,10,10,12,5,10,12,10,26,9,15,25,25,25,6,3,24,20,12,30,10],"right_den":[2,5,5,20,22,2,10,10,26,4,10,15,26,16,28,26,18,3,20,20,4,2,15,15,15,20,24,15,20,10,20,15,10,25,5,26,12,10,25,6,5,10,18,26,4,20,15,25,10,4,10,20,20,15,15,22,25,15,28,22,15,9,30,10,4,10,22,10,15,15,15,15,10,16,5,10,4,5,16,12,15,6,9,10,5,22,10,10,4,15,16,25,10,4,20,12,20,26,10,10,24,2,25,16,14,5,22,20,30,21,12,16,18,20,15,15,16,5,4,16],"correct_side":[2,1,2,1,2,2,1,1,2,2,1,1,2,1,2,2,2,2,2,2,2,2,2,2,1,2,2,1,1,1,1,2,1,2,2,2,1,1,1,2,2,1,1,1,2,1,2,2,1,2,1,2,1,1,1,2,2,1,2,2,1,2,2,1,2,1,2,1,1,2,1,1,1,1,1,2,1,1,1,2,1,1,2,1,1,2,1,2,1,1,2,2,2,2,1,2,1,2,2,1,1,2,2,1,1,2,2,2,1,1,2,1,2,1,1,2,2,2,1,1],"img_shown":["img2/200/Incongruent/R/I_Dist_200_LN_3_LD_10_RN_1_RD_2_1.png","img2/100/Congruent/L/C_Dist_100_LN_3_LD_6_RN_2_RD_5_0.png","img2/100/Congruent/R/C_Dist_100_LN_1_LD_2_RN_3_RD_5_1.png","img2/300/Incongruent/L/I_Dist_300_LN_3_LD_6_RN_4_RD_20_0.png","img2/100/Congruent/R/C_Dist_100_LN_2_LD_5_RN_11_RD_22_1.png","img2/100/Incongruent/R/I_Dist_100_LN_8_LD_20_RN_1_RD_2_1.png","img2/200/Incongruent/L/I_Dist_200_LN_4_LD_5_RN_6_RD_10_0.png","img2/200/Incongruent/L/I_Dist_200_LN_1_LD_2_RN_3_RD_10_0.png","img2/100/Congruent/R/C_Dist_100_LN_12_LD_30_RN_13_RD_26_1.png","img2/200/Incongruent/R/I_Dist_200_LN_11_LD_20_RN_3_RD_4_1.png","img2/200/Congruent/L/C_Dist_200_LN_4_LD_8_RN_3_RD_10_0.png","img2/100/Congruent/L/C_Dist_100_LN_11_LD_22_RN_6_RD_15_0.png","img2/100/Congruent/R/C_Dist_100_LN_12_LD_30_RN_13_RD_26_1.png","img2/100/Congruent/L/C_Dist_100_LN_9_LD_15_RN_8_RD_16_0.png","img2/200/Congruent/R/C_Dist_200_LN_3_LD_10_RN_14_RD_28_1.png","img2/200/Congruent/R/C_Dist_200_LN_9_LD_30_RN_13_RD_26_1.png","img2/100/Incongruent/R/I_Dist_100_LN_10_LD_25_RN_9_RD_18_1.png","img2/200/Incongruent/R/I_Dist_200_LN_4_LD_30_RN_1_RD_3_1.png","img2/200/Congruent/R/C_Dist_200_LN_3_LD_12_RN_9_RD_20_1.png","img2/100/Incongruent/R/I_Dist_100_LN_13_LD_26_RN_12_RD_20_1.png","img2/300/Incongruent/R/I_Dist_300_LN_4_LD_20_RN_2_RD_4_1.png","img2/100/Incongruent/R/I_Dist_100_LN_8_LD_20_RN_1_RD_2_1.png","img2/300/Incongruent/R/I_Dist_300_LN_13_LD_26_RN_12_RD_15_1.png","img2/300/Incongruent/R/I_Dist_300_LN_13_LD_26_RN_12_RD_15_1.png","img2/200/Incongruent/L/I_Dist_200_LN_1_LD_3_RN_2_RD_15_0.png","img2/200/Congruent/R/C_Dist_200_LN_3_LD_12_RN_9_RD_20_1.png","img2/300/Congruent/R/C_Dist_300_LN_1_LD_30_RN_8_RD_24_1.png","img2/200/Incongruent/L/I_Dist_200_LN_1_LD_3_RN_2_RD_15_0.png","img2/300/Incongruent/L/I_Dist_300_LN_3_LD_6_RN_4_RD_20_0.png","img2/300/Congruent/L/C_Dist_300_LN_3_LD_6_RN_2_RD_10_0.png","img2/200/Congruent/L/C_Dist_200_LN_16_LD_20_RN_12_RD_20_0.png","img2/300/Incongruent/R/I_Dist_300_LN_13_LD_26_RN_12_RD_15_1.png","img2/200/Congruent/L/C_Dist_200_LN_15_LD_25_RN_4_RD_10_0.png","img2/300/Congruent/R/C_Dist_300_LN_7_LD_14_RN_20_RD_25_1.png","img2/100/Incongruent/R/I_Dist_100_LN_6_LD_12_RN_3_RD_5_1.png","img2/200/Congruent/R/C_Dist_200_LN_9_LD_30_RN_13_RD_26_1.png","img2/300/Incongruent/L/I_Dist_300_LN_4_LD_5_RN_6_RD_12_0.png","img2/300/Congruent/L/C_Dist_300_LN_20_LD_25_RN_5_RD_10_0.png","img2/100/Congruent/L/C_Dist_100_LN_6_LD_20_RN_5_RD_25_0.png","img2/200/Incongruent/R/I_Dist_200_LN_6_LD_20_RN_3_RD_6_1.png","img2/100/Incongruent/R/I_Dist_100_LN_6_LD_12_RN_3_RD_5_1.png","img2/200/Congruent/L/C_Dist_200_LN_15_LD_25_RN_4_RD_10_0.png","img2/300/Incongruent/L/I_Dist_300_LN_8_LD_10_RN_9_RD_18_0.png","img2/100/Congruent/L/C_Dist_100_LN_15_LD_25_RN_13_RD_26_0.png","img2/300/Incongruent/R/I_Dist_300_LN_4_LD_20_RN_2_RD_4_1.png","img2/300/Congruent/L/C_Dist_300_LN_11_LD_22_RN_4_RD_20_0.png","img2/300/Incongruent/R/I_Dist_300_LN_13_LD_26_RN_12_RD_15_1.png","img2/300/Congruent/R/C_Dist_300_LN_2_LD_20_RN_10_RD_25_1.png","img2/200/Incongruent/L/I_Dist_200_LN_1_LD_2_RN_3_RD_10_0.png","img2/300/Incongruent/R/I_Dist_300_LN_4_LD_20_RN_2_RD_4_1.png","img2/100/Congruent/L/C_Dist_100_LN_11_LD_22_RN_4_RD_10_0.png","img2/200/Congruent/R/C_Dist_200_LN_13_LD_26_RN_14_RD_20_1.png","img2/300/Incongruent/L/I_Dist_300_LN_3_LD_6_RN_4_RD_20_0.png","img2/200/Congruent/L/C_Dist_200_LN_20_LD_25_RN_9_RD_15_0.png","img2/200/Congruent/L/C_Dist_200_LN_20_LD_25_RN_9_RD_15_0.png","img2/300/Congruent/R/C_Dist_300_LN_1_LD_5_RN_11_RD_22_1.png","img2/300/Congruent/R/C_Dist_300_LN_7_LD_14_RN_20_RD_25_1.png","img2/100/Incongruent/L/I_Dist_100_LN_2_LD_4_RN_6_RD_15_0.png","img2/200/Congruent/R/C_Dist_200_LN_3_LD_10_RN_14_RD_28_1.png","img2/200/Congruent/R/C_Dist_200_LN_6_LD_20_RN_11_RD_22_1.png","img2/200/Incongruent/L/I_Dist_200_LN_1_LD_3_RN_2_RD_15_0.png","img2/200/Incongruent/R/I_Dist_200_LN_14_LD_30_RN_6_RD_9_1.png","img2/100/Congruent/R/C_Dist_100_LN_4_LD_10_RN_15_RD_30_1.png","img2/300/Incongruent/L/I_Dist_300_LN_1_LD_2_RN_2_RD_10_0.png","img2/300/Incongruent/R/I_Dist_300_LN_4_LD_20_RN_2_RD_4_1.png","img2/100/Incongruent/L/I_Dist_100_LN_3_LD_6_RN_4_RD_10_0.png","img2/300/Congruent/R/C_Dist_300_LN_1_LD_5_RN_11_RD_22_1.png","img2/200/Congruent/L/C_Dist_200_LN_4_LD_8_RN_3_RD_10_0.png","img2/200/Congruent/L/C_Dist_200_LN_4_LD_10_RN_3_RD_15_0.png","img2/300/Incongruent/R/I_Dist_300_LN_13_LD_26_RN_12_RD_15_1.png","img2/100/Incongruent/L/I_Dist_100_LN_2_LD_4_RN_6_RD_15_0.png","img2/100/Congruent/L/C_Dist_100_LN_11_LD_22_RN_6_RD_15_0.png","img2/200/Incongruent/L/I_Dist_200_LN_4_LD_5_RN_6_RD_10_0.png","img2/200/Incongruent/L/I_Dist_200_LN_7_LD_10_RN_8_RD_16_0.png","img2/100/Congruent/L/C_Dist_100_LN_3_LD_6_RN_2_RD_5_0.png","img2/100/Congruent/R/C_Dist_100_LN_4_LD_8_RN_6_RD_10_1.png","img2/300/Congruent/L/C_Dist_300_LN_24_LD_30_RN_2_RD_4_0.png","img2/100/Congruent/L/C_Dist_100_LN_3_LD_6_RN_2_RD_5_0.png","img2/300/Congruent/L/C_Dist_300_LN_20_LD_25_RN_8_RD_16_0.png","img2/300/Congruent/R/C_Dist_300_LN_5_LD_25_RN_6_RD_12_1.png","img2/300/Congruent/L/C_Dist_300_LN_18_LD_20_RN_9_RD_15_0.png","img2/200/Congruent/L/C_Dist_200_LN_8_LD_15_RN_2_RD_6_0.png","img2/200/Incongruent/R/I_Dist_200_LN_7_LD_15_RN_6_RD_9_1.png","img2/200/Incongruent/L/I_Dist_200_LN_1_LD_2_RN_3_RD_10_0.png","img2/300/Congruent/L/C_Dist_300_LN_11_LD_22_RN_1_RD_5_0.png","img2/100/Congruent/R/C_Dist_100_LN_2_LD_5_RN_11_RD_22_1.png","img2/200/Congruent/L/C_Dist_200_LN_15_LD_25_RN_4_RD_10_0.png","img2/100/Incongruent/R/I_Dist_100_LN_13_LD_26_RN_6_RD_10_1.png","img2/300/Congruent/L/C_Dist_300_LN_4_LD_5_RN_2_RD_4_0.png","img2/300/Incongruent/L/I_Dist_300_LN_1_LD_2_RN_3_RD_15_0.png","img2/100/Incongruent/R/I_Dist_100_LN_10_LD_25_RN_8_RD_16_1.png","img2/100/Congruent/R/C_Dist_100_LN_7_LD_14_RN_15_RD_25_1.png","img2/100/Incongruent/R/I_Dist_100_LN_9_LD_18_RN_6_RD_10_1.png","img2/300/Incongruent/R/I_Dist_300_LN_4_LD_20_RN_2_RD_4_1.png","img2/100/Incongruent/L/I_Dist_100_LN_4_LD_8_RN_8_RD_20_0.png","img2/100/Congruent/R/C_Dist_100_LN_2_LD_5_RN_6_RD_12_1.png","img2/300/Incongruent/L/I_Dist_300_LN_7_LD_10_RN_8_RD_20_0.png","img2/300/Congruent/R/C_Dist_300_LN_4_LD_20_RN_13_RD_26_1.png","img2/200/Incongruent/R/I_Dist_200_LN_9_LD_15_RN_8_RD_10_1.png","img2/300/Congruent/L/C_Dist_300_LN_11_LD_22_RN_2_RD_10_0.png","img2/200/Incongruent/L/I_Dist_200_LN_7_LD_10_RN_12_RD_24_0.png","img2/200/Incongruent/R/I_Dist_200_LN_3_LD_10_RN_1_RD_2_1.png","img2/100/Congruent/R/C_Dist_100_LN_6_LD_12_RN_15_RD_25_1.png","img2/300/Incongruent/L/I_Dist_300_LN_4_LD_5_RN_8_RD_16_0.png","img2/100/Incongruent/L/I_Dist_100_LN_6_LD_10_RN_7_RD_14_0.png","img2/100/Incongruent/R/I_Dist_100_LN_6_LD_12_RN_3_RD_5_1.png","img2/200/Congruent/R/C_Dist_200_LN_3_LD_10_RN_11_RD_22_1.png","img2/100/Incongruent/R/I_Dist_100_LN_13_LD_26_RN_12_RD_20_1.png","img2/100/Incongruent/L/I_Dist_100_LN_3_LD_9_RN_7_RD_30_0.png","img2/200/Congruent/L/C_Dist_200_LN_8_LD_15_RN_7_RD_21_0.png","img2/300/Congruent/R/C_Dist_300_LN_5_LD_25_RN_6_RD_12_1.png","img2/300/Congruent/L/C_Dist_300_LN_20_LD_25_RN_8_RD_16_0.png","img2/100/Incongruent/R/I_Dist_100_LN_10_LD_25_RN_9_RD_18_1.png","img2/300/Incongruent/L/I_Dist_300_LN_3_LD_6_RN_4_RD_20_0.png","img2/200/Incongruent/L/I_Dist_200_LN_1_LD_3_RN_2_RD_15_0.png","img2/100/Incongruent/R/I_Dist_100_LN_12_LD_24_RN_9_RD_15_1.png","img2/100/Congruent/R/C_Dist_100_LN_3_LD_20_RN_4_RD_16_1.png","img2/100/Incongruent/R/I_Dist_100_LN_6_LD_12_RN_3_RD_5_1.png","img2/300/Congruent/L/C_Dist_300_LN_24_LD_30_RN_2_RD_4_0.png","img2/200/Incongruent/L/I_Dist_200_LN_7_LD_10_RN_8_RD_16_0.png"],"dist100_C":[["C_Dist_100_LN_10_LD_25_RN_3_RD_10_0.png","C_Dist_100_LN_11_LD_22_RN_4_RD_10_0.png","C_Dist_100_LN_11_LD_22_RN_6_RD_15_0.png","C_Dist_100_LN_15_LD_25_RN_13_RD_26_0.png","C_Dist_100_LN_3_LD_6_RN_2_RD_5_0.png","C_Dist_100_LN_6_LD_20_RN_5_RD_25_0.png","C_Dist_100_LN_8_LD_16_RN_2_RD_5_0.png","C_Dist_100_LN_9_LD_15_RN_8_RD_16_0.png"],["C_Dist_100_LN_1_LD_2_RN_18_RD_30_1.png","C_Dist_100_LN_1_LD_2_RN_3_RD_5_1.png","C_Dist_100_LN_12_LD_30_RN_13_RD_26_1.png","C_Dist_100_LN_2_LD_5_RN_11_RD_22_1.png","C_Dist_100_LN_2_LD_5_RN_6_RD_12_1.png","C_Dist_100_LN_3_LD_20_RN_4_RD_16_1.png","C_Dist_100_LN_4_LD_10_RN_15_RD_30_1.png","C_Dist_100_LN_4_LD_8_RN_6_RD_10_1.png","C_Dist_100_LN_6_LD_12_RN_15_RD_25_1.png","C_Dist_100_LN_7_LD_14_RN_15_RD_25_1.png","C_Dist_100_LN_7_LD_14_RN_9_RD_15_1.png"]],"dist100_I":[["I_Dist_100_LN_1_LD_2_RN_8_RD_20_0.png","I_Dist_100_LN_2_LD_4_RN_6_RD_15_0.png","I_Dist_100_LN_2_LD_4_RN_8_RD_20_0.png","I_Dist_100_LN_3_LD_5_RN_11_RD_22_0.png","I_Dist_100_LN_3_LD_5_RN_8_RD_16_0.png","I_Dist_100_LN_3_LD_6_RN_4_RD_10_0.png","I_Dist_100_LN_3_LD_9_RN_7_RD_30_0.png","I_Dist_100_LN_4_LD_8_RN_8_RD_20_0.png","I_Dist_100_LN_6_LD_10_RN_11_RD_22_0.png","I_Dist_100_LN_6_LD_10_RN_13_RD_26_0.png","I_Dist_100_LN_6_LD_10_RN_7_RD_14_0.png","I_Dist_100_LN_9_LD_10_RN_20_RD_25_0.png","I_Dist_100_LN_9_LD_15_RN_13_RD_26_0.png","I_Dist_100_LN_9_LD_15_RN_14_RD_28_0.png"],["I_Dist_100_LN_10_LD_25_RN_8_RD_16_1.png","I_Dist_100_LN_10_LD_25_RN_9_RD_18_1.png","I_Dist_100_LN_11_LD_22_RN_9_RD_15_1.png","I_Dist_100_LN_12_LD_24_RN_9_RD_15_1.png","I_Dist_100_LN_12_LD_30_RN_2_RD_4_1.png","I_Dist_100_LN_13_LD_26_RN_12_RD_20_1.png","I_Dist_100_LN_13_LD_26_RN_6_RD_10_1.png","I_Dist_100_LN_17_LD_30_RN_10_RD_15_1.png","I_Dist_100_LN_6_LD_12_RN_3_RD_5_1.png","I_Dist_100_LN_8_LD_16_RN_6_RD_10_1.png","I_Dist_100_LN_8_LD_20_RN_1_RD_2_1.png","I_Dist_100_LN_9_LD_18_RN_6_RD_10_1.png"]],"dist100_S":[["E_Dist_100_LN_2_LD_12_RN_2_RD_30_0.png","E_Dist_100_LN_6_LD_10_RN_6_RD_12_0.png"],["E_Dist_100_LN_6_LD_12_RN_6_RD_10_1.png"]],"dist200_C":[["C_Dist_200_LN_11_LD_22_RN_3_RD_10_0.png","C_Dist_200_LN_12_LD_15_RN_6_RD_10_0.png","C_Dist_200_LN_12_LD_20_RN_6_RD_15_0.png","C_Dist_200_LN_14_LD_28_RN_6_RD_20_0.png","C_Dist_200_LN_15_LD_25_RN_4_RD_10_0.png","C_Dist_200_LN_16_LD_20_RN_12_RD_20_0.png","C_Dist_200_LN_16_LD_30_RN_9_RD_27_0.png","C_Dist_200_LN_20_LD_25_RN_9_RD_15_0.png","C_Dist_200_LN_21_LD_30_RN_2_RD_4_0.png","C_Dist_200_LN_4_LD_10_RN_3_RD_15_0.png","C_Dist_200_LN_4_LD_8_RN_3_RD_10_0.png","C_Dist_200_LN_6_LD_15_RN_3_RD_15_0.png","C_Dist_200_LN_7_LD_21_RN_2_RD_15_0.png","C_Dist_200_LN_8_LD_15_RN_2_RD_6_0.png","C_Dist_200_LN_8_LD_15_RN_3_RD_9_0.png","C_Dist_200_LN_8_LD_15_RN_7_RD_21_0.png","C_Dist_200_LN_9_LD_20_RN_4_RD_16_0.png"],["C_Dist_200_LN_1_LD_2_RN_21_RD_30_1.png","C_Dist_200_LN_13_LD_26_RN_14_RD_20_1.png","C_Dist_200_LN_3_LD_10_RN_11_RD_22_1.png","C_Dist_200_LN_3_LD_10_RN_14_RD_28_1.png","C_Dist_200_LN_3_LD_10_RN_7_RD_14_1.png","C_Dist_200_LN_3_LD_12_RN_9_RD_20_1.png","C_Dist_200_LN_3_LD_6_RN_14_RD_20_1.png","C_Dist_200_LN_5_LD_10_RN_14_RD_20_1.png","C_Dist_200_LN_6_LD_12_RN_7_RD_10_1.png","C_Dist_200_LN_6_LD_20_RN_11_RD_22_1.png","C_Dist_200_LN_7_LD_15_RN_18_RD_27_1.png","C_Dist_200_LN_9_LD_30_RN_13_RD_26_1.png"]],"dist200_I":[["I_Dist_200_LN_1_LD_2_RN_3_RD_10_0.png","I_Dist_200_LN_1_LD_3_RN_2_RD_15_0.png","I_Dist_200_LN_3_LD_4_RN_11_RD_20_0.png","I_Dist_200_LN_4_LD_5_RN_6_RD_10_0.png","I_Dist_200_LN_4_LD_6_RN_14_RD_30_0.png","I_Dist_200_LN_7_LD_10_RN_12_RD_24_0.png","I_Dist_200_LN_7_LD_10_RN_14_RD_28_0.png","I_Dist_200_LN_7_LD_10_RN_8_RD_16_0.png"],["I_Dist_200_LN_11_LD_20_RN_3_RD_4_1.png","I_Dist_200_LN_14_LD_30_RN_12_RD_18_1.png","I_Dist_200_LN_14_LD_30_RN_6_RD_9_1.png","I_Dist_200_LN_3_LD_10_RN_1_RD_2_1.png","I_Dist_200_LN_4_LD_30_RN_1_RD_3_1.png","I_Dist_200_LN_6_LD_20_RN_3_RD_6_1.png","I_Dist_200_LN_7_LD_15_RN_4_RD_6_1.png","I_Dist_200_LN_7_LD_15_RN_6_RD_9_1.png","I_Dist_200_LN_9_LD_15_RN_8_RD_10_1.png"]],"dist200_S":[["E_Dist_200_LN_3_LD_6_RN_3_RD_10_0.png"],["E_Dist_200_LN_3_LD_10_RN_3_RD_6_1.png"]],"dist300_C":[["C_Dist_300_LN_11_LD_22_RN_1_RD_5_0.png","C_Dist_300_LN_11_LD_22_RN_2_RD_10_0.png","C_Dist_300_LN_11_LD_22_RN_4_RD_20_0.png","C_Dist_300_LN_12_LD_24_RN_2_RD_10_0.png","C_Dist_300_LN_18_LD_20_RN_9_RD_15_0.png","C_Dist_300_LN_20_LD_25_RN_13_RD_26_0.png","C_Dist_300_LN_20_LD_25_RN_14_RD_28_0.png","C_Dist_300_LN_20_LD_25_RN_5_RD_10_0.png","C_Dist_300_LN_20_LD_25_RN_8_RD_16_0.png","C_Dist_300_LN_20_LD_25_RN_9_RD_18_0.png","C_Dist_300_LN_24_LD_30_RN_2_RD_4_0.png","C_Dist_300_LN_24_LD_30_RN_8_RD_16_0.png","C_Dist_300_LN_3_LD_6_RN_2_RD_10_0.png","C_Dist_300_LN_4_LD_10_RN_1_RD_10_0.png","C_Dist_300_LN_4_LD_5_RN_2_RD_4_0.png","C_Dist_300_LN_8_LD_16_RN_1_RD_5_0.png","C_Dist_300_LN_9_LD_10_RN_3_RD_5_0.png"],["C_Dist_300_LN_1_LD_20_RN_7_RD_20_1.png","C_Dist_300_LN_1_LD_3_RN_19_RD_30_1.png","C_Dist_300_LN_1_LD_30_RN_8_RD_24_1.png","C_Dist_300_LN_1_LD_5_RN_11_RD_22_1.png","C_Dist_300_LN_1_LD_5_RN_3_RD_6_1.png","C_Dist_300_LN_1_LD_5_RN_6_RD_12_1.png","C_Dist_300_LN_2_LD_10_RN_12_RD_24_1.png","C_Dist_300_LN_2_LD_20_RN_10_RD_25_1.png","C_Dist_300_LN_3_LD_12_RN_11_RD_20_1.png","C_Dist_300_LN_3_LD_6_RN_4_RD_5_1.png","C_Dist_300_LN_4_LD_20_RN_13_RD_26_1.png","C_Dist_300_LN_5_LD_25_RN_6_RD_12_1.png","C_Dist_300_LN_5_LD_25_RN_7_RD_14_1.png","C_Dist_300_LN_7_LD_14_RN_20_RD_25_1.png","C_Dist_300_LN_8_LD_15_RN_10_RD_12_1.png"]],"dist300_I":[["I_Dist_300_LN_1_LD_2_RN_2_RD_10_0.png","I_Dist_300_LN_1_LD_2_RN_3_RD_15_0.png","I_Dist_300_LN_2_LD_4_RN_6_RD_30_0.png","I_Dist_300_LN_3_LD_6_RN_4_RD_20_0.png","I_Dist_300_LN_4_LD_5_RN_6_RD_12_0.png","I_Dist_300_LN_4_LD_5_RN_8_RD_16_0.png","I_Dist_300_LN_7_LD_10_RN_8_RD_20_0.png","I_Dist_300_LN_8_LD_10_RN_14_RD_28_0.png","I_Dist_300_LN_8_LD_10_RN_9_RD_18_0.png"],["I_Dist_300_LN_13_LD_26_RN_12_RD_15_1.png","I_Dist_300_LN_4_LD_20_RN_2_RD_4_1.png"]],"dist300_S":[["E_Dist_300_LN_9_LD_12_RN_9_RD_20_0.png"],["E_Dist_300_LN_18_LD_30_RN_18_RD_20_1.png","E_Dist_300_LN_3_LD_10_RN_3_RD_5_1.png","E_Dist_300_LN_9_LD_20_RN_9_RD_12_1.png"]],"dist500_C":[["C_Dist_500_LN_10_LD_13_RN_7_RD_26_0.png","C_Dist_500_LN_10_LD_15_RN_4_RD_24_0.png","C_Dist_500_LN_12_LD_16_RN_3_RD_12_0.png","C_Dist_500_LN_12_LD_18_RN_4_RD_24_0.png","C_Dist_500_LN_15_LD_18_RN_5_RD_15_0.png","C_Dist_500_LN_15_LD_20_RN_1_RD_4_0.png","C_Dist_500_LN_18_LD_27_RN_1_RD_6_0.png","C_Dist_500_LN_20_LD_24_RN_1_RD_3_0.png","C_Dist_500_LN_20_LD_24_RN_3_RD_9_0.png","C_Dist_500_LN_20_LD_24_RN_7_RD_21_0.png","C_Dist_500_LN_20_LD_28_RN_3_RD_14_0.png","C_Dist_500_LN_21_LD_28_RN_6_RD_24_0.png","C_Dist_500_LN_22_LD_28_RN_2_RD_7_0.png","C_Dist_500_LN_25_LD_30_RN_9_RD_27_0.png","C_Dist_500_LN_4_LD_6_RN_1_RD_6_0.png","C_Dist_500_LN_5_LD_6_RN_2_RD_6_0.png","C_Dist_500_LN_6_LD_9_RN_1_RD_6_0.png","C_Dist_500_LN_7_LD_10_RN_1_RD_5_0.png","C_Dist_500_LN_8_LD_12_RN_1_RD_6_0.png","C_Dist_500_LN_8_LD_12_RN_4_RD_24_0.png"],["C_Dist_500_LN_1_LD_4_RN_12_RD_16_1.png","C_Dist_500_LN_1_LD_4_RN_9_RD_12_1.png","C_Dist_500_LN_1_LD_9_RN_11_RD_18_1.png","C_Dist_500_LN_10_LD_24_RN_22_RD_24_1.png","C_Dist_500_LN_2_LD_12_RN_10_RD_15_1.png","C_Dist_500_LN_2_LD_12_RN_12_RD_18_1.png","C_Dist_500_LN_2_LD_12_RN_4_RD_6_1.png","C_Dist_500_LN_2_LD_24_RN_7_RD_12_1.png","C_Dist_500_LN_2_LD_5_RN_18_RD_20_1.png","C_Dist_500_LN_2_LD_5_RN_9_RD_10_1.png","C_Dist_500_LN_2_LD_8_RN_12_RD_16_1.png","C_Dist_500_LN_2_LD_8_RN_21_RD_28_1.png","C_Dist_500_LN_3_LD_10_RN_4_RD_5_1.png","C_Dist_500_LN_3_LD_12_RN_15_RD_20_1.png","C_Dist_500_LN_3_LD_30_RN_6_RD_10_1.png","C_Dist_500_LN_3_LD_8_RN_14_RD_16_1.png","C_Dist_500_LN_4_LD_16_RN_15_RD_20_1.png","C_Dist_500_LN_4_LD_24_RN_12_RD_18_1.png","C_Dist_500_LN_5_LD_14_RN_6_RD_7_1.png","C_Dist_500_LN_7_LD_21_RN_20_RD_24_1.png","C_Dist_500_LN_7_LD_28_RN_12_RD_16_1.png","C_Dist_500_LN_7_LD_28_RN_9_RD_12_1.png","C_Dist_500_LN_9_LD_27_RN_20_RD_24_1.png"]],"dist500_I":[["I_Dist_500_LN_2_LD_3_RN_4_RD_24_0.png","I_Dist_500_LN_5_LD_6_RN_6_RD_18_0.png","I_Dist_500_LN_7_LD_8_RN_9_RD_24_0.png"],["I_Dist_500_LN_7_LD_21_RN_5_RD_6_1.png"]],"dist500_S":[["E_Dist_500_LN_6_LD_8_RN_6_RD_24_0.png"],["E_Dist_500_LN_2_LD_12_RN_2_RD_3_1.png","E_Dist_500_LN_6_LD_24_RN_6_RD_8_1.png"]]}},{"start_time":1551882527065,"click_time":1551882531324,"finger_time":1551882530723,"fix_duration":1280.380926372964,"trial":1,"RT":3658,"MT":601,"sideResp":2,"stimulus":[],"xmouse":[774,774,774,774,774,774,774,774,774,774,774,774,774,774,774,774,774,774,774,774,774,774,774,774,774,774,774,774,774,774,774,774,774,774,774,774,774,774,774,774,774,774,774,774,774,774,774,774,774,774,774,774,774,774,774,774,774,774,774,774,774,774,774,774,774,774,774,774,774,774,774,774,774,774,774,774,774,774,774,774,774,774,774,774,774,774,774,774,774,774,774,774,774,774,774,774,774,774,774,774,774,774,774,774,774,774,774,774,774,774,774,774,774,774,774,774,774,774,774,774,774,774,774,774,774,774,774,774,774,774,774,774,774,774,774,774,774,774,774,774,774,774,774,774,774,774,774,774,774,774,774,774,774,774,774,774,774,774,774,774,774,774,774,774,774,774,774,774,774,774,774,774,774,774,774,774,774,774,774,774,774,832,866,902,928,951,980,993,1009,1029,1047,1082,1114,1134,1149,1154,1159,1161,1162,1163,1165,1173,1175,1177,1179,1180,1180,1180,1177,1173,1169,1164,1149],"ymouse":[518,518,518,518,518,518,518,518,518,518,518,518,518,518,518,518,518,518,518,518,518,518,518,518,518,518,518,518,518,518,518,518,518,518,518,518,518,518,518,518,518,518,518,518,518,518,518,518,518,518,518,518,518,518,518,518,518,518,518,518,518,518,518,518,518,518,518,518,518,518,518,518,518,518,518,518,518,518,518,518,518,518,518,518,518,518,518,518,518,518,518,518,518,518,518,518,518,518,518,518,518,518,518,518,518,518,518,518,518,518,518,518,518,518,518,518,518,518,518,518,518,518,518,518,518,518,518,518,518,518,518,518,518,518,518,518,518,518,518,518,518,518,518,518,518,518,518,518,518,518,518,518,518,518,518,518,518,518,518,518,518,518,518,518,518,518,518,518,518,518,518,518,518,518,518,518,518,518,517,517,517,490,477,465,453,439,413,400,388,376,366,343,321,306,293,282,265,259,255,251,246,230,221,213,205,198,191,185,177,163,147,127,76],"timestamp_mouse":[18,38,58,78,98,119,138,159,178,198,219,238,258,279,298,319,339,359,378,398,418,438,458,478,498,518,538,559,578,598,619,639,658,678,698,719,739,759,779,799,819,838,858,879,899,918,939,959,978,998,1019,1038,1058,1078,1099,1118,1138,1159,1178,1198,1218,1238,1258,1280,1298,1318,1339,1359,1379,1398,1418,1438,1460,1479,1498,1518,1539,1559,1578,1598,1618,1638,1659,1678,1699,1718,1738,1758,1778,1798,1818,1838,1858,1878,1898,1918,1938,1959,1978,1998,2018,2038,2058,2078,2099,2119,2138,2159,2178,2198,2219,2238,2258,2279,2299,2319,2338,2358,2379,2398,2418,2438,2458,2479,2499,2519,2538,2559,2579,2598,2619,2638,2659,2680,2699,2719,2738,2758,2778,2799,2818,2838,2859,2879,2898,2918,2938,2958,2979,2998,3018,3040,3058,3078,3099,3118,3138,3158,3178,3198,3219,3238,3259,3278,3298,3319,3338,3358,3378,3398,3419,3439,3458,3479,3498,3518,3538,3558,3580,3599,3618,3638,3658,3679,3698,3718,3738,3758,3778,3798,3818,3838,3859,3879,3898,3918,3938,3958,3978,3998,4018,4039,4058,4079,4098,4118,4138,4158,4178,4198,4219,4238,4259],"xSR":741.5,"ySR":449.15000000000003,"xT1":424.9,"yT1":0,"xT2":1058.1,"yT2":0,"toosoon":0,"cond_shown":"Congruent","ratio_trial":100,"L_num":3,"L_den":6,"R_num":2,"R_den":5,"correct_side":1,"subjID":"IsabellaRubianoDuarte29","gender":"1","school":"6","age":"10"},{"start_time":1551882538752,"click_time":1551882544104,"finger_time":1551882541903,"fix_duration":1449.6549479829673,"trial":2,"RT":3151,"MT":2201,"sideResp":2,"stimulus":[],"xmouse":[808,808,808,808,808,808,808,808,808,808,808,808,808,808,808,808,808,808,808,808,808,808,808,808,808,808,808,808,808,808,808,808,808,808,808,808,808,808,808,808,808,808,808,808,808,808,808,808,808,808,808,808,808,808,808,808,808,808,808,808,808,808,808,808,808,808,808,808,808,808,808,808,808,808,808,808,808,808,808,808,808,808,808,808,808,808,808,808,808,808,808,808,808,808,808,808,808,808,808,808,808,808,808,808,808,808,808,808,808,808,808,808,808,808,808,808,808,808,808,808,808,808,808,808,808,808,808,808,808,808,808,808,808,808,808,808,808,808,808,808,808,808,808,808,808,808,808,808,808,808,808,808,808,808,808,810,812,820,822,822,822,822,822,822,822,822,822,822,822,822,822,822,822,822,822,822,822,822,822,822,822,822,822,822,822,822,822,822,822,822,822,822,822,822,822,822,822,822,822,822,822,822,822,822,822,822,822,822,822,822,822,822,822,822,822,822,822,822,822,822,822,822,822,822,822,824,824,826,830,845,865,880,905,923,957,1005,1038,1092,1109,1124,1140,1151,1169,1177,1184,1186,1188,1188,1185,1182,1179,1176,1170,1169,1168,1167,1166,1165,1165,1165,1164,1164,1164,1164,1162,1160,1159,1158],"ymouse":[503,503,503,503,503,503,503,503,503,503,503,503,503,503,503,503,503,503,503,503,503,503,503,503,503,503,503,503,503,503,503,503,503,503,503,503,503,503,503,503,503,503,503,503,503,503,503,503,503,503,503,503,503,503,503,503,503,503,503,503,503,503,503,503,503,503,503,503,503,503,503,503,503,503,503,503,503,503,503,503,503,503,503,503,503,503,503,503,503,503,503,503,503,503,503,503,503,503,503,503,503,503,503,503,503,503,503,503,503,503,503,503,503,503,503,503,503,503,503,503,503,503,503,503,503,503,503,503,503,503,503,503,503,503,503,503,503,503,503,503,503,503,503,503,503,503,503,503,503,503,503,503,503,503,503,488,471,421,419,419,419,419,419,419,419,419,419,419,419,419,419,419,419,419,419,419,419,419,419,419,419,419,419,419,419,419,419,419,419,419,419,419,419,419,419,419,419,419,419,419,419,419,419,419,419,419,419,419,419,419,419,419,419,419,419,419,419,419,419,419,419,419,419,419,419,419,419,419,419,419,419,419,413,407,395,383,373,338,322,308,294,282,256,244,232,226,218,206,202,197,192,188,180,178,176,174,173,170,164,159,152,141,114,102,90,81,75,71],"timestamp_mouse":[11,31,52,71,91,111,131,151,171,192,211,232,251,271,291,311,331,352,371,391,412,431,451,471,491,511,531,551,571,591,611,631,651,671,691,711,731,751,771,791,811,831,851,871,891,912,931,952,972,991,1011,1031,1051,1072,1092,1111,1131,1151,1171,1191,1211,1232,1251,1271,1291,1311,1333,1351,1372,1392,1411,1431,1451,1471,1491,1511,1531,1552,1572,1593,1611,1631,1651,1672,1691,1712,1731,1751,1772,1792,1811,1831,1851,1871,1891,1911,1932,1951,1971,1992,2011,2031,2053,2071,2092,2112,2131,2152,2171,2191,2211,2231,2251,2271,2292,2312,2332,2351,2371,2391,2412,2432,2451,2471,2491,2511,2531,2551,2571,2592,2612,2631,2651,2671,2691,2712,2731,2752,2771,2791,2811,2831,2851,2871,2891,2911,2932,2951,2972,2991,3011,3031,3051,3071,3091,3111,3131,3151,3171,3191,3211,3232,3251,3271,3291,3311,3331,3351,3371,3391,3411,3432,3451,3471,3491,3511,3531,3551,3572,3591,3611,3632,3651,3672,3693,3711,3731,3751,3772,3792,3811,3831,3851,3871,3891,3911,3932,3951,3971,3991,4011,4031,4051,4071,4091,4111,4132,4151,4171,4191,4211,4232,4252,4272,4292,4311,4331,4351,4371,4391,4412,4432,4451,4471,4491,4511,4532,4551,4572,4591,4612,4631,4651,4672,4691,4711,4732,4751,4771,4791,4811,4832,4851,4871,4891,4911,4931,4952,4971,4992,5011,5031,5051,5072,5092,5112,5131,5151,5172,5192,5212,5231,5251,5271,5291,5311,5331,5351],"xSR":741.5,"ySR":449.15000000000003,"xT1":424.9,"yT1":0,"xT2":1058.1,"yT2":0,"toosoon":0,"cond_shown":"Congruent","ratio_trial":100,"L_num":1,"L_den":2,"R_num":3,"R_den":5,"correct_side":2,"subjID":"IsabellaRubianoDuarte29","gender":"1","school":"6","age":"10"},{"start_time":1551882546155,"click_time":1551882548903,"finger_time":1551882548163,"fix_duration":250,"trial":3,"RT":2008,"MT":740,"sideResp":1,"stimulus":[],"xmouse":[795,791,785,785,785,785,785,785,785,785,785,785,785,785,785,785,785,785,785,785,785,785,785,785,785,785,785,785,785,785,785,785,785,785,785,785,785,785,785,785,785,785,785,785,785,785,785,785,785,785,785,785,785,785,785,785,785,785,785,785,785,785,785,785,785,785,785,785,785,785,785,785,785,785,785,785,785,785,785,785,785,785,785,785,785,785,785,782,780,776,773,771,768,766,764,762,760,757,757,757,757,753,743,737,734,729,720,689,669,657,650,645,639,639,639,639,639,635,626,621,616,606,571,555,550,550,550,548,547,547,547,547,546,543,537,533,529,517],"ymouse":[529,533,537,537,537,537,537,537,537,537,537,537,537,537,537,537,537,537,537,537,537,537,537,537,537,537,537,537,537,537,537,537,537,537,537,537,537,537,537,537,537,537,537,537,537,537,537,537,537,537,537,537,537,537,537,537,537,537,537,537,537,537,537,537,537,537,537,537,537,537,537,537,537,537,537,537,537,537,537,537,537,537,537,537,537,537,537,532,526,520,514,509,498,491,482,475,468,457,454,450,444,438,423,415,407,398,386,349,317,296,282,271,259,259,258,256,252,231,204,185,167,151,118,106,102,101,100,100,100,100,100,100,100,99,98,98,98,95],"timestamp_mouse":[8,28,48,69,89,109,128,148,168,188,209,228,248,268,288,309,329,348,368,388,408,428,448,468,488,509,528,548,569,589,610,628,648,668,688,708,728,748,768,788,808,828,848,869,889,909,929,948,969,989,1009,1028,1049,1068,1090,1108,1128,1149,1168,1188,1208,1229,1248,1268,1288,1308,1328,1348,1368,1388,1408,1429,1448,1469,1489,1508,1528,1548,1568,1588,1608,1628,1648,1668,1688,1709,1728,1748,1769,1789,1808,1829,1848,1869,1888,1909,1929,1949,1969,1990,2008,2028,2049,2068,2088,2108,2130,2148,2168,2189,2208,2228,2248,2270,2288,2308,2328,2348,2369,2389,2408,2428,2448,2468,2488,2509,2529,2549,2568,2588,2609,2628,2648,2668,2688,2709,2729,2748],"xSR":741.5,"ySR":449.15000000000003,"xT1":424.9,"yT1":0,"xT2":1058.1,"yT2":0,"toosoon":0,"cond_shown":"Incongruent","ratio_trial":300,"L_num":3,"L_den":6,"R_num":4,"R_den":20,"correct_side":1,"subjID":"IsabellaRubianoDuarte29","gender":"1","school":"6","age":"10"},{"start_time":1551882551954,"click_time":1551882553803,"finger_time":1551882552924,"fix_duration":250,"trial":4,"RT":970,"MT":879,"sideResp":2,"stimulus":[],"xmouse":[742,742,742,742,742,742,742,742,742,742,742,742,742,742,742,742,742,742,742,742,742,742,742,742,742,742,742,742,742,742,742,742,742,742,742,742,742,742,742,742,742,742,742,742,742,742,742,742,741,739,738,737,737,737,737,737,737,737,737,737,737,739,754,761,768,776,788,815,836,853,868,875,888,893,900,909,922,959,984,998,1010,1020,1040,1053,1066,1080,1086,1089,1088,1087,1087,1088,1100],"ymouse":[468,468,468,468,468,468,468,468,468,468,468,468,468,468,468,468,468,468,468,468,468,468,468,468,468,468,468,468,468,468,468,468,468,468,468,468,468,468,468,468,468,468,468,468,468,468,468,468,466,463,459,457,457,457,457,457,457,457,457,457,457,455,448,445,440,435,428,410,397,392,387,382,370,366,361,356,349,329,309,295,283,274,256,244,229,216,203,173,150,137,127,118,97],"timestamp_mouse":[9,30,49,70,89,110,130,149,170,190,210,229,250,269,290,310,329,349,369,389,409,430,450,470,489,509,529,549,570,590,610,629,649,669,689,709,730,751,769,790,810,830,850,869,890,909,929,949,970,989,1010,1029,1049,1069,1089,1111,1129,1149,1169,1189,1209,1230,1249,1269,1289,1309,1329,1349,1369,1389,1409,1430,1450,1469,1490,1510,1530,1549,1569,1589,1610,1629,1649,1669,1690,1709,1729,1749,1769,1790,1809,1829,1849],"xSR":741.5,"ySR":449.15000000000003,"xT1":424.9,"yT1":0,"xT2":1058.1,"yT2":0,"toosoon":0,"cond_shown":"Congruent","ratio_trial":100,"L_num":2,"L_den":5,"R_num":11,"R_den":22,"correct_side":2,"subjID":"IsabellaRubianoDuarte29","gender":"1","school":"6","age":"10"},{"start_time":1551882555494,"click_time":1551882557003,"finger_time":1551882556323,"fix_duration":309.46471431642817,"trial":5,"RT":829,"MT":680,"sideResp":1,"stimulus":[],"xmouse":[774,774,774,774,774,774,774,774,774,774,774,774,774,774,774,774,774,774,774,774,774,774,774,774,774,774,774,774,774,774,774,774,774,774,775,776,776,776,776,776,776,766,751,732,715,700,696,693,692,691,689,688,686,685,680,663,656,651,644,635,608,585,570,559,553,549,549,548,548,548,546,544,541,533,523,508],"ymouse":[485,485,485,485,485,485,485,485,485,485,485,485,485,485,485,485,485,485,485,485,485,485,485,485,485,485,485,485,485,485,485,485,485,484,483,481,480,479,478,477,467,443,419,387,356,313,300,291,288,284,274,267,262,257,250,229,221,214,205,195,168,150,137,128,124,122,122,121,121,118,118,117,116,112,106,96],"timestamp_mouse":[13,29,49,69,89,109,130,149,170,189,209,229,249,269,289,310,329,349,369,389,409,429,449,469,489,509,529,549,570,590,610,629,649,669,689,709,729,750,770,789,809,829,849,869,889,909,929,951,969,989,1009,1030,1050,1069,1091,1110,1129,1149,1170,1190,1209,1229,1249,1270,1289,1309,1329,1350,1369,1390,1409,1429,1450,1469,1489,1509],"xSR":741.5,"ySR":449.15000000000003,"xT1":424.9,"yT1":0,"xT2":1058.1,"yT2":0,"toosoon":0,"cond_shown":"Incongruent","ratio_trial":100,"L_num":8,"L_den":20,"R_num":1,"R_den":2,"correct_side":2,"subjID":"IsabellaRubianoDuarte29","gender":"1","school":"6","age":"10"},{"start_time":1551882559342,"click_time":1551882561364,"finger_time":1551882560903,"fix_duration":656.1654830642424,"trial":6,"RT":1561,"MT":461,"sideResp":1,"stimulus":[],"xmouse":[779,779,779,779,779,779,779,779,779,779,779,779,779,779,779,779,779,779,779,779,779,779,778,778,778,778,778,778,778,778,778,778,778,778,778,778,778,778,778,778,778,778,778,778,778,778,778,778,778,778,778,778,778,778,778,778,778,778,778,778,778,778,778,778,778,776,776,775,773,770,768,764,762,759,759,759,758,756,735,720,704,690,683,674,672,669,664,659,641,636,633,627,621,597,583,572,564,554,519,502,489,482],"ymouse":[483,483,483,483,483,483,483,483,483,483,483,483,483,483,483,483,483,483,483,483,483,483,484,484,484,484,484,484,484,484,484,484,484,484,484,484,484,484,484,484,484,484,484,484,484,484,484,484,484,484,484,484,484,484,484,484,484,484,484,484,484,484,484,484,484,484,483,483,481,479,478,476,475,473,473,473,473,472,457,445,431,419,404,374,356,337,319,304,266,254,243,232,219,185,170,158,151,143,122,112,105,99],"timestamp_mouse":[4,22,41,61,82,101,122,141,161,182,203,221,242,261,281,301,321,341,361,381,401,422,442,461,481,501,521,541,562,581,601,621,641,661,681,701,722,741,761,782,801,821,842,862,881,901,921,941,961,981,1002,1021,1041,1061,1081,1102,1123,1142,1161,1181,1202,1221,1241,1261,1282,1301,1321,1341,1361,1382,1402,1421,1442,1461,1482,1502,1522,1541,1561,1582,1602,1622,1641,1661,1681,1701,1721,1741,1761,1782,1802,1821,1842,1861,1882,1902,1922,1941,1961,1981,2001,2022],"xSR":741.5,"ySR":449.15000000000003,"xT1":424.9,"yT1":0,"xT2":1058.1,"yT2":0,"toosoon":0,"cond_shown":"Incongruent","ratio_trial":200,"L_num":4,"L_den":5,"R_num":6,"R_den":10,"correct_side":1,"subjID":"IsabellaRubianoDuarte29","gender":"1","school":"6","age":"10"},{"start_time":1551882562635,"click_time":1551882566464,"finger_time":1551882565544,"fix_duration":250,"trial":7,"RT":2909,"MT":920,"sideResp":1,"stimulus":[],"xmouse":[760,760,760,760,760,760,760,760,760,760,760,760,760,760,760,760,760,760,760,760,760,760,760,760,760,760,760,760,760,760,760,760,760,760,760,760,760,760,760,760,760,760,760,760,760,760,760,760,760,760,760,760,760,760,760,760,759,758,758,758,758,758,758,758,757,757,757,757,757,757,757,757,757,757,757,757,757,757,757,756,756,756,756,756,756,756,756,755,754,753,753,752,752,751,750,750,750,750,750,750,750,750,750,749,749,749,749,748,748,748,748,748,748,748,748,748,748,748,748,748,748,748,748,748,748,748,748,748,748,748,748,747,746,745,745,745,745,745,745,743,743,743,742,742,742,740,740,739,739,739,739,738,738,738,738,736,735,731,722,718,716,715,714,709,703,696,689,684,679,676,674,665,656,625,615,606,597,587,569,561,557,555,555,555,553,550,545,541,538,521,508,493],"ymouse":[478,478,478,478,478,478,478,478,478,478,478,478,478,478,478,478,478,478,478,478,478,478,478,478,478,478,478,478,478,478,478,478,478,478,478,478,478,478,478,478,478,478,478,478,478,478,478,478,478,478,478,478,478,478,478,478,477,477,476,476,476,476,475,475,475,474,474,474,474,474,474,474,474,474,474,474,474,474,474,474,473,473,473,473,473,473,473,473,471,470,470,469,468,468,467,467,467,467,466,466,466,466,466,465,465,465,465,464,464,464,464,464,464,464,464,464,464,464,464,464,464,464,464,464,464,464,464,464,464,464,464,463,462,462,462,462,462,462,462,461,461,461,461,461,461,460,460,459,459,459,459,459,459,459,459,459,459,459,454,452,451,450,449,438,426,413,399,385,347,319,287,257,227,173,160,151,140,131,119,114,113,112,112,112,112,112,111,110,109,104,101,95],"timestamp_mouse":[9,28,48,69,89,108,128,149,169,188,208,228,249,269,288,309,328,349,368,388,408,428,448,469,488,509,529,548,569,589,608,629,648,668,688,709,728,749,768,788,808,828,848,868,888,908,929,949,969,988,1009,1028,1049,1068,1089,1109,1128,1149,1168,1189,1208,1229,1248,1268,1288,1308,1328,1348,1368,1388,1408,1430,1448,1468,1488,1509,1528,1550,1568,1588,1608,1628,1648,1668,1688,1708,1729,1748,1768,1788,1808,1828,1848,1868,1888,1908,1928,1948,1968,1989,2009,2028,2048,2068,2090,2108,2128,2149,2168,2189,2209,2228,2249,2269,2289,2309,2329,2348,2368,2388,2408,2429,2448,2468,2489,2510,2529,2548,2569,2588,2608,2628,2649,2668,2688,2709,2729,2749,2768,2788,2809,2828,2849,2868,2889,2909,2928,2948,2968,2988,3008,3028,3048,3068,3088,3109,3128,3148,3168,3188,3208,3228,3248,3268,3289,3309,3329,3348,3368,3388,3408,3428,3448,3468,3488,3509,3529,3549,3568,3590,3609,3628,3649,3669,3688,3709,3729,3750,3768,3789,3808,3829],"xSR":741.5,"ySR":449.15000000000003,"xT1":424.9,"yT1":0,"xT2":1058.1,"yT2":0,"toosoon":0,"cond_shown":"Incongruent","ratio_trial":200,"L_num":1,"L_den":2,"R_num":3,"R_den":10,"correct_side":1,"subjID":"IsabellaRubianoDuarte29","gender":"1","school":"6","age":"10"},{"start_time":1551882567919,"click_time":1551882569964,"finger_time":1551882569363,"fix_duration":375.4772965473997,"trial":8,"RT":1444,"MT":601,"sideResp":2,"stimulus":[],"xmouse":[809,809,809,809,809,809,809,809,809,809,809,809,809,809,809,809,809,809,809,809,809,809,809,809,809,809,809,809,809,809,809,809,809,809,809,809,809,809,809,809,809,809,809,809,809,809,809,809,809,809,809,809,809,809,809,809,809,809,809,809,809,809,809,809,809,809,809,810,809,809,809,809,809,811,820,825,827,828,829,834,845,855,866,872,890,895,904,913,924,952,967,971,975,980,1003,1023,1050,1072,1095,1128,1143,1150,1154],"ymouse":[469,469,469,469,469,469,469,469,469,469,469,469,469,469,469,469,469,469,469,469,469,469,469,469,469,469,469,469,469,469,469,469,469,469,469,469,469,469,469,469,469,469,469,469,469,469,469,469,469,469,469,469,469,469,469,469,469,469,469,469,469,469,469,469,469,469,469,467,466,463,459,454,442,428,410,403,399,397,396,395,392,391,387,384,372,368,362,353,344,319,308,306,303,297,273,254,228,204,177,134,112,100,94],"timestamp_mouse":[4,24,45,65,85,105,125,144,165,185,204,224,244,264,284,304,325,344,364,385,404,424,445,465,484,505,524,544,564,585,604,624,644,665,685,704,725,744,764,784,805,825,844,864,884,905,925,945,965,984,1004,1026,1044,1064,1084,1104,1124,1144,1164,1185,1205,1225,1244,1264,1284,1305,1324,1344,1364,1384,1404,1424,1444,1464,1484,1504,1524,1544,1565,1584,1604,1624,1644,1664,1684,1705,1724,1744,1765,1784,1805,1824,1844,1864,1884,1904,1926,1944,1964,1984,2004,2024,2045],"xSR":741.5,"ySR":449.15000000000003,"xT1":424.9,"yT1":0,"xT2":1058.1,"yT2":0,"toosoon":0,"cond_shown":"Congruent","ratio_trial":100,"L_num":12,"L_den":30,"R_num":13,"R_den":26,"correct_side":2,"subjID":"IsabellaRubianoDuarte29","gender":"1","school":"6","age":"10"},{"start_time":1551882576743,"click_time":1551882578685,"finger_time":1551882578403,"fix_duration":1178.0361421439247,"trial":9,"RT":1660,"MT":282,"sideResp":2,"stimulus":[],"xmouse":[742,742,742,742,742,742,742,742,742,742,742,742,742,742,742,742,742,742,742,742,742,742,742,742,742,742,742,742,742,742,742,742,742,742,742,742,742,742,742,742,742,742,742,742,742,742,742,742,742,742,742,742,742,742,742,742,742,742,742,742,742,742,742,742,742,742,742,742,742,742,742,742,742,742,742,746,754,769,780,785,794,805,822,881,928,971,998,1018,1036,1045,1054,1061,1068,1085,1093,1105,1122,1130],"ymouse":[477,477,477,477,477,477,477,477,477,477,477,477,477,477,477,477,477,477,477,477,477,477,477,477,477,477,477,477,477,477,477,477,477,477,477,477,477,477,477,477,477,477,477,477,477,477,477,477,477,477,477,477,477,477,477,477,477,477,477,477,477,477,477,477,477,477,477,477,477,477,477,477,477,477,477,477,477,477,475,474,474,472,469,452,436,419,404,388,364,344,332,319,304,264,238,194,132,72],"timestamp_mouse":[4,21,41,61,80,100,120,140,160,180,201,221,240,260,280,300,320,341,361,381,400,422,441,460,480,501,520,540,560,580,600,621,641,661,681,701,720,740,761,781,801,821,840,860,880,900,921,942,960,980,1001,1020,1040,1061,1080,1101,1122,1140,1160,1181,1201,1221,1240,1260,1281,1301,1320,1341,1360,1381,1401,1421,1440,1460,1482,1500,1522,1540,1560,1580,1600,1621,1641,1660,1680,1701,1720,1740,1760,1781,1800,1820,1841,1861,1880,1901,1920,1941],"xSR":741.5,"ySR":449.15000000000003,"xT1":424.9,"yT1":0,"xT2":1058.1,"yT2":0,"toosoon":0,"cond_shown":"Incongruent","ratio_trial":200,"L_num":11,"L_den":20,"R_num":3,"R_den":4,"correct_side":2,"subjID":"IsabellaRubianoDuarte29","gender":"1","school":"6","age":"10"},{"start_time":1551882581391,"click_time":1551882585023,"finger_time":1551882583003,"fix_duration":1306.3458222314282,"trial":10,"RT":1612,"MT":2020,"sideResp":2,"stimulus":[],"xmouse":[789,789,789,789,789,789,789,789,789,789,789,789,789,789,789,789,789,789,789,789,789,789,789,789,789,789,789,789,789,789,789,789,789,789,789,789,789,789,789,789,789,789,789,789,789,789,789,789,789,789,789,789,789,789,789,789,789,789,789,789,789,789,789,789,789,789,789,789,789,789,789,789,789,789,789,790,790,789,787,786,784,783,782,781,780,775,765,758,750,741,730,726,722,718,712,701,695,691,689,689,689,689,689,689,689,689,689,689,689,690,701,714,734,761,803,936,1043,1096,1124,1137,1143,1144,1145,1145,1145,1147,1150,1150,1150,1150,1150,1151,1152,1153,1153,1153,1153,1153,1153,1153,1146,1139,1133,1130,1126,1119,1117,1117,1117,1117,1117,1117,1117,1116,1116,1114,1111,1109,1106,1105,1105,1105,1105,1105,1105,1105,1105,1105,1105,1106,1107,1107,1107,1107,1107,1107,1107,1107,1107,1107,1107,1108],"ymouse":[469,469,469,469,469,469,469,469,469,469,469,469,469,469,469,469,469,469,469,469,469,469,469,469,469,469,469,469,469,469,469,469,469,469,469,469,469,469,469,469,469,469,469,469,469,469,469,469,469,469,469,469,469,469,469,469,469,469,469,469,469,469,469,469,469,469,469,469,469,469,469,469,469,469,469,466,461,456,452,450,445,443,441,438,436,426,412,400,384,367,341,330,321,309,295,269,254,247,242,239,238,238,238,238,238,238,238,238,238,237,242,251,261,271,287,324,338,343,343,339,329,325,323,322,320,307,282,262,240,220,189,180,174,168,165,164,164,163,162,159,149,141,134,125,116,103,101,100,100,100,100,100,100,100,100,104,110,113,117,118,119,119,119,119,119,119,119,116,113,111,107,106,105,104,104,104,104,103,103,102,100,99],"timestamp_mouse":[12,32,52,73,92,113,133,152,172,192,212,233,252,273,292,312,334,352,372,392,412,433,452,473,493,514,532,552,573,593,613,632,652,672,692,712,733,752,772,793,813,832,854,872,892,912,932,952,972,993,1012,1033,1054,1073,1092,1112,1132,1152,1173,1193,1212,1233,1253,1272,1293,1313,1333,1352,1372,1392,1413,1434,1453,1473,1493,1512,1532,1554,1573,1593,1612,1632,1654,1672,1692,1712,1733,1752,1772,1793,1812,1832,1852,1872,1892,1912,1932,1954,1972,1994,2012,2032,2054,2072,2093,2112,2132,2152,2172,2192,2212,2233,2253,2273,2292,2312,2332,2352,2372,2392,2412,2432,2452,2472,2492,2512,2533,2553,2572,2592,2612,2632,2653,2672,2692,2713,2732,2752,2772,2793,2813,2833,2852,2872,2893,2912,2934,2952,2973,2992,3012,3033,3054,3072,3093,3112,3132,3153,3172,3192,3212,3232,3253,3274,3292,3312,3333,3352,3373,3392,3412,3434,3452,3472,3493,3513,3532,3552,3572,3594,3612,3632],"xSR":741.5,"ySR":449.15000000000003,"xT1":424.9,"yT1":0,"xT2":1058.1,"yT2":0,"toosoon":0,"cond_shown":"Congruent","ratio_trial":200,"L_num":4,"L_den":8,"R_num":3,"R_den":10,"correct_side":1,"subjID":"IsabellaRubianoDuarte29","gender":"1","school":"6","age":"10"},{"start_time":1551882586937,"click_time":1551882589463,"finger_time":1551882588323,"fix_duration":292.6942971813854,"trial":11,"RT":1386,"MT":1140,"sideResp":1,"stimulus":[],"xmouse":[785,785,785,785,785,785,785,785,785,785,785,785,785,785,785,785,785,785,785,785,785,785,785,785,785,785,785,785,785,785,785,785,785,785,785,785,785,785,785,785,785,785,785,785,785,785,785,785,785,785,785,785,785,785,785,785,785,785,785,785,785,785,785,785,785,788,793,806,832,842,846,854,868,898,908,912,913,913,913,913,913,913,913,913,911,909,906,904,898,879,860,834,801,715,676,645,624,609,596,590,589,589,589,589,589,589,589,588,585,579,570,560,544,511,503,502,502,502,502,502,502,502,502,502,504,504,504],"ymouse":[483,483,483,483,483,483,483,483,483,483,483,483,483,483,484,484,484,484,484,484,484,484,484,484,484,484,484,484,484,484,484,484,484,484,484,484,484,484,484,484,484,484,484,484,484,484,484,484,484,484,484,484,484,484,484,484,484,484,484,484,484,484,484,484,484,484,484,483,478,474,470,461,448,411,398,390,388,388,388,388,388,388,388,387,387,387,386,386,381,368,354,334,311,248,218,195,178,165,152,146,144,144,144,144,144,144,144,144,141,137,133,129,125,115,113,112,112,112,112,112,112,112,110,105,103,101,98],"timestamp_mouse":[6,27,47,66,86,106,127,146,166,186,206,228,246,266,287,307,327,347,366,386,408,426,447,466,486,507,527,546,566,586,606,626,646,666,687,707,727,748,766,786,807,827,846,867,886,906,927,946,966,986,1007,1026,1046,1067,1086,1106,1128,1146,1166,1186,1206,1226,1247,1266,1286,1307,1327,1347,1367,1386,1406,1427,1446,1467,1487,1506,1528,1546,1566,1588,1607,1628,1648,1666,1686,1706,1727,1747,1766,1786,1807,1828,1847,1867,1887,1906,1927,1947,1966,1986,2008,2027,2047,2066,2086,2106,2127,2146,2166,2186,2206,2227,2246,2266,2288,2307,2327,2346,2367,2386,2406,2426,2446,2466,2486,2507,2526],"xSR":741.5,"ySR":449.15000000000003,"xT1":424.9,"yT1":0,"xT2":1058.1,"yT2":0,"toosoon":0,"cond_shown":"Congruent","ratio_trial":100,"L_num":11,"L_den":22,"R_num":6,"R_den":15,"correct_side":1,"subjID":"IsabellaRubianoDuarte29","gender":"1","school":"6","age":"10"},{"start_time":1551882592653,"click_time":1551882594544,"finger_time":1551882594003,"fix_duration":549.2340978681941,"trial":12,"RT":1350,"MT":541,"sideResp":2,"stimulus":[],"xmouse":[777,777,777,777,777,777,777,777,777,777,777,777,777,777,777,777,777,777,777,777,777,777,777,777,777,777,777,777,777,777,777,777,777,777,777,777,777,777,777,777,777,777,777,777,777,777,777,778,778,778,778,779,780,780,780,780,780,780,780,780,781,781,784,791,798,809,815,828,833,839,846,858,891,901,909,919,929,952,958,961,963,965,976,986,991,992,993,998,1003,1011,1014,1019,1031,1049,1062],"ymouse":[504,504,504,504,504,504,504,504,504,504,504,504,504,504,504,504,504,504,504,504,504,504,504,504,504,504,504,504,504,504,504,504,504,504,504,504,504,504,504,504,504,504,504,504,504,504,504,504,504,504,504,504,504,504,504,504,504,504,502,502,502,502,497,490,484,475,466,439,423,410,394,377,337,323,308,290,272,235,222,210,202,194,170,154,143,139,137,135,133,131,128,123,111,98,89],"timestamp_mouse":[11,30,50,70,91,111,130,150,170,191,211,230,250,270,291,312,331,350,371,390,411,432,450,471,492,510,530,551,571,591,611,631,650,670,691,712,730,750,770,790,810,831,850,870,891,911,930,950,971,990,1010,1030,1051,1070,1090,1111,1130,1150,1170,1191,1210,1230,1251,1270,1290,1310,1330,1350,1370,1391,1412,1430,1450,1471,1491,1510,1531,1551,1570,1590,1611,1630,1650,1671,1690,1712,1731,1750,1770,1790,1810,1830,1850,1870,1891],"xSR":741.5,"ySR":449.15000000000003,"xT1":424.9,"yT1":0,"xT2":1058.1,"yT2":0,"toosoon":0,"cond_shown":"Congruent","ratio_trial":100,"L_num":12,"L_den":30,"R_num":13,"R_den":26,"correct_side":2,"subjID":"IsabellaRubianoDuarte29","gender":"1","school":"6","age":"10"},{"start_time":1551882602059,"click_time":1551882604403,"finger_time":1551882603643,"fix_duration":1074.736949992162,"trial":13,"RT":1584,"MT":760,"sideResp":1,"stimulus":[],"xmouse":[788,788,788,788,788,788,788,788,788,788,788,788,788,788,788,788,788,788,788,788,788,788,788,788,788,788,788,788,788,788,788,788,788,788,788,788,788,788,788,788,788,788,788,788,788,788,788,788,788,788,788,788,788,788,788,788,788,788,788,788,788,788,788,788,788,788,788,788,788,788,788,788,788,788,788,788,786,777,773,768,760,751,734,724,719,718,718,718,718,718,717,717,706,697,694,690,685,661,649,641,635,633,616,600,585,571,562,554,554,553,552,549,536,534,534,533,531,509],"ymouse":[515,515,515,515,515,515,515,515,515,515,515,515,515,515,515,515,515,515,515,515,515,515,515,515,515,515,515,515,515,515,515,515,515,515,515,515,515,515,515,515,515,515,515,515,515,515,515,515,515,515,515,515,515,515,515,515,515,515,515,515,515,515,515,515,515,515,515,515,515,515,515,515,515,514,509,503,493,467,453,426,384,336,240,191,173,167,166,166,166,166,166,166,165,164,164,164,164,163,161,160,159,159,154,149,141,132,123,110,108,106,103,98,86,84,84,83,82,75],"timestamp_mouse":[4,25,46,64,85,105,124,145,164,184,205,225,245,265,285,306,324,344,365,385,404,426,444,464,484,506,524,545,564,584,604,625,644,665,684,704,724,744,764,784,805,824,844,864,885,904,924,944,964,984,1004,1025,1044,1064,1086,1104,1125,1145,1164,1185,1205,1225,1244,1264,1285,1305,1324,1344,1364,1384,1405,1424,1444,1465,1484,1504,1524,1544,1564,1584,1604,1624,1644,1664,1684,1705,1724,1745,1765,1784,1804,1825,1844,1864,1885,1904,1924,1944,1965,1985,2004,2024,2045,2064,2085,2104,2124,2144,2165,2184,2205,2224,2244,2265,2284,2305,2324,2344],"xSR":741.5,"ySR":449.15000000000003,"xT1":424.9,"yT1":0,"xT2":1058.1,"yT2":0,"toosoon":0,"cond_shown":"Congruent","ratio_trial":100,"L_num":9,"L_den":15,"R_num":8,"R_den":16,"correct_side":1,"subjID":"IsabellaRubianoDuarte29","gender":"1","school":"6","age":"10"},{"start_time":1551882606234,"click_time":1551882608664,"finger_time":1551882607984,"fix_duration":250,"trial":14,"RT":1750,"MT":680,"sideResp":2,"stimulus":[],"xmouse":[801,801,801,801,801,801,801,801,801,801,801,801,801,801,801,801,801,801,801,801,801,801,801,801,801,801,801,801,801,801,801,801,801,801,801,801,801,801,801,801,801,801,801,801,801,801,801,801,801,801,801,801,801,801,801,801,801,801,801,801,801,801,801,801,801,801,801,801,801,801,801,801,801,801,801,801,801,801,801,801,801,801,801,801,803,806,812,816,829,835,842,848,853,858,860,863,868,877,898,912,923,932,942,967,991,1011,1028,1038,1047,1048,1051,1053,1053,1054,1054,1054,1054,1055,1061,1062,1065,1069],"ymouse":[467,467,467,467,467,467,467,467,467,467,467,467,467,467,467,467,467,467,467,467,467,467,467,467,467,467,467,467,467,467,467,467,467,467,467,467,467,467,467,467,467,467,467,467,467,467,467,467,467,467,467,467,467,467,467,467,467,467,467,467,467,467,467,467,467,467,467,467,467,467,467,467,467,467,467,467,467,467,467,467,467,467,467,466,462,459,454,447,428,415,401,387,374,357,352,348,343,338,323,315,307,300,292,271,248,226,205,183,142,127,116,110,109,108,108,108,108,107,105,104,101,99],"timestamp_mouse":[9,29,49,69,91,109,130,149,169,191,210,229,249,270,289,309,330,350,370,389,409,429,450,470,490,509,531,549,569,589,609,630,649,670,689,709,730,749,769,789,810,829,850,869,889,910,929,950,970,989,1010,1030,1050,1069,1089,1109,1129,1149,1169,1191,1209,1229,1249,1269,1289,1309,1329,1349,1369,1390,1410,1430,1449,1470,1490,1509,1530,1549,1569,1590,1610,1629,1649,1669,1690,1709,1730,1750,1769,1789,1809,1829,1849,1869,1889,1911,1929,1950,1970,1990,2009,2029,2050,2069,2089,2109,2130,2149,2170,2189,2210,2229,2250,2270,2289,2309,2330,2349,2369,2389,2409,2430],"xSR":741.5,"ySR":449.15000000000003,"xT1":424.9,"yT1":0,"xT2":1058.1,"yT2":0,"toosoon":0,"cond_shown":"Congruent","ratio_trial":200,"L_num":3,"L_den":10,"R_num":14,"R_den":28,"correct_side":2,"subjID":"IsabellaRubianoDuarte29","gender":"1","school":"6","age":"10"},{"start_time":1551882611288,"click_time":1551882613184,"finger_time":1551882612663,"fix_duration":1003.9063168513177,"trial":15,"RT":1375,"MT":521,"sideResp":2,"stimulus":[],"xmouse":[775,775,775,775,775,775,775,775,775,775,775,775,775,775,775,775,775,775,775,775,775,775,775,775,775,775,775,775,775,775,775,775,775,775,775,775,775,775,775,775,775,775,775,775,775,775,775,775,775,775,775,775,775,775,775,775,775,775,775,775,775,775,775,775,780,794,805,815,824,834,854,860,867,872,878,892,899,905,914,925,949,964,973,982,990,1007,1014,1022,1029,1039,1050,1057,1063,1071,1078],"ymouse":[498,498,498,498,498,498,498,498,498,498,498,498,498,498,498,498,498,498,498,498,498,498,498,498,498,498,498,498,498,498,498,498,498,498,498,498,498,498,498,498,498,498,498,498,498,498,498,498,498,498,498,498,498,498,498,498,498,498,498,498,498,498,498,498,494,481,469,458,446,433,405,397,387,379,372,352,343,332,319,304,274,255,239,223,210,189,180,172,165,155,139,123,112,101,93],"timestamp_mouse":[16,35,55,76,96,115,135,155,176,196,215,235,255,275,297,315,336,355,375,396,415,435,456,476,495,515,535,555,576,595,616,635,655,676,695,715,735,755,776,795,815,835,855,875,895,915,936,955,975,995,1015,1036,1056,1076,1095,1115,1135,1156,1175,1195,1217,1235,1255,1275,1295,1315,1336,1355,1375,1395,1416,1435,1455,1475,1495,1516,1535,1555,1575,1596,1615,1636,1656,1675,1695,1715,1736,1755,1776,1795,1815,1836,1856,1876,1896],"xSR":741.5,"ySR":449.15000000000003,"xT1":424.9,"yT1":0,"xT2":1058.1,"yT2":0,"toosoon":0,"cond_shown":"Congruent","ratio_trial":200,"L_num":9,"L_den":30,"R_num":13,"R_den":26,"correct_side":2,"subjID":"IsabellaRubianoDuarte29","gender":"1","school":"6","age":"10"},{"start_time":1551882616231,"click_time":1551882618204,"finger_time":1551882617664,"fix_duration":1327.469475376675,"trial":16,"RT":1433,"MT":540,"sideResp":1,"stimulus":[],"xmouse":[786,786,786,786,786,786,786,786,786,786,786,786,786,786,786,786,786,786,786,786,786,786,786,786,786,786,786,786,786,786,786,786,786,786,786,786,786,786,786,786,786,786,786,786,786,786,786,786,786,786,786,786,786,786,786,786,786,786,786,786,786,786,786,786,786,785,783,778,769,757,743,723,699,644,633,630,628,627,623,620,618,617,615,605,597,589,582,576,567,561,557,551,543,536,534,532,530,526,518],"ymouse":[510,510,510,510,510,510,510,510,510,510,510,510,510,510,510,510,510,510,510,510,510,510,510,510,510,510,510,510,510,510,510,510,510,510,510,510,510,510,510,510,510,510,510,510,510,510,510,510,510,510,510,510,510,510,510,510,510,510,510,510,510,510,510,510,510,511,511,511,510,505,499,493,489,479,472,456,449,445,437,433,429,425,418,378,353,329,304,284,253,236,219,200,182,156,140,130,120,108,93],"timestamp_mouse":[13,34,53,73,93,114,132,153,172,192,212,232,252,273,293,313,332,353,373,392,413,434,452,472,493,512,532,554,572,592,614,632,653,673,692,712,733,752,772,793,812,832,852,874,892,912,932,952,972,992,1012,1032,1052,1072,1092,1113,1133,1152,1172,1193,1212,1232,1252,1272,1293,1313,1332,1353,1373,1393,1413,1433,1453,1473,1492,1513,1532,1553,1572,1592,1613,1634,1654,1672,1692,1713,1734,1752,1772,1792,1813,1832,1852,1872,1892,1913,1933,1952,1972],"xSR":741.5,"ySR":449.15000000000003,"xT1":424.9,"yT1":0,"xT2":1058.1,"yT2":0,"toosoon":0,"cond_shown":"Incongruent","ratio_trial":100,"L_num":10,"L_den":25,"R_num":9,"R_den":18,"correct_side":2,"subjID":"IsabellaRubianoDuarte29","gender":"1","school":"6","age":"10"},{"start_time":1551882619834,"click_time":1551882621824,"finger_time":1551882621603,"fix_duration":250,"trial":17,"RT":1769,"MT":221,"sideResp":2,"stimulus":[],"xmouse":[812,812,812,812,812,812,812,812,812,812,812,812,812,812,812,812,812,812,812,810,810,809,809,809,809,809,809,809,809,809,809,809,809,809,809,809,809,809,809,809,808,806,804,804,804,804,804,804,804,804,804,804,804,804,804,804,804,804,804,804,804,804,804,804,804,804,804,804,804,805,805,805,805,805,805,805,806,806,807,807,807,807,808,808,811,814,820,831,859,875,893,908,926,970,987,1005,1029,1058,1119,1141],"ymouse":[490,490,490,490,490,490,490,490,490,490,490,490,490,490,490,490,490,490,491,496,499,501,501,501,501,501,501,501,501,501,501,501,501,501,501,501,501,501,501,501,502,505,507,509,509,509,509,509,509,509,509,509,509,509,509,509,509,509,509,509,509,509,509,509,509,509,509,509,509,508,508,508,508,508,508,508,507,507,506,506,506,506,505,505,501,497,490,481,459,445,428,415,397,343,316,291,259,224,136,97],"timestamp_mouse":[9,31,50,70,89,109,129,150,170,189,209,229,250,270,289,309,329,349,369,390,410,430,450,469,489,510,530,549,569,591,611,630,649,669,689,710,729,749,769,790,810,831,849,870,889,910,929,949,969,989,1010,1030,1049,1069,1089,1110,1130,1149,1170,1190,1210,1229,1249,1269,1289,1309,1329,1349,1369,1390,1410,1429,1449,1469,1490,1509,1530,1549,1570,1590,1609,1630,1649,1669,1691,1710,1730,1750,1769,1789,1809,1829,1849,1869,1890,1909,1930,1949,1969,1990],"xSR":741.5,"ySR":449.15000000000003,"xT1":424.9,"yT1":0,"xT2":1058.1,"yT2":0,"toosoon":0,"cond_shown":"Incongruent","ratio_trial":200,"L_num":4,"L_den":30,"R_num":1,"R_den":3,"correct_side":2,"subjID":"IsabellaRubianoDuarte29","gender":"1","school":"6","age":"10"},{"start_time":1551882634647,"click_time":1551882636842,"finger_time":1551882636303,"fix_duration":1123.9490258573614,"trial":18,"RT":1656,"MT":539,"sideResp":2,"stimulus":[],"xmouse":[787,787,787,787,787,787,787,787,787,787,787,787,787,787,787,787,787,787,787,787,787,787,787,787,787,787,787,787,787,787,787,787,787,787,787,787,787,787,787,787,787,787,787,787,787,787,787,787,787,787,787,787,787,787,787,787,787,787,787,787,787,787,787,787,787,787,787,787,787,787,787,787,787,787,787,787,787,787,787,787,799,826,933,993,1042,1087,1125,1165,1179,1194,1205,1215,1231,1232,1231,1230,1230,1230,1229,1226,1222,1218,1205,1194,1189,1184,1179,1167,1161,1154],"ymouse":[491,491,491,491,491,491,491,491,491,491,491,491,491,491,491,491,491,491,491,491,491,491,491,491,491,491,491,491,491,491,491,491,491,491,491,491,491,491,491,491,491,491,491,491,491,491,491,491,491,491,491,491,491,491,491,491,491,491,491,491,491,491,491,491,491,491,491,491,491,491,491,491,491,491,491,491,491,491,491,491,483,468,433,394,361,324,289,216,183,148,117,84,30,21,16,14,14,14,14,14,16,17,22,25,28,28,29,30,30,31],"timestamp_mouse":[16,37,58,77,97,116,137,156,177,196,217,236,256,277,297,316,336,357,376,397,416,437,456,476,496,516,536,556,576,597,617,636,656,677,697,716,736,756,776,796,817,836,856,876,898,917,937,956,978,997,1016,1037,1056,1076,1098,1117,1137,1156,1178,1197,1216,1236,1256,1276,1297,1318,1336,1356,1377,1396,1416,1437,1456,1477,1497,1517,1537,1556,1576,1597,1616,1637,1656,1676,1696,1716,1736,1756,1776,1798,1818,1836,1857,1876,1897,1916,1936,1956,1977,1996,2016,2036,2056,2077,2096,2116,2136,2156,2176,2195],"xSR":741.5,"ySR":449.15000000000003,"xT1":424.9,"yT1":0,"xT2":1058.1,"yT2":0,"toosoon":0,"cond_shown":"Congruent","ratio_trial":200,"L_num":3,"L_den":12,"R_num":9,"R_den":20,"correct_side":2,"subjID":"IsabellaRubianoDuarte29","gender":"1","school":"6","age":"10"},{"start_time":1551882639070,"click_time":1551882641203,"finger_time":1551882640723,"fix_duration":847.1749418784868,"trial":19,"RT":1653,"MT":480,"sideResp":1,"stimulus":[],"xmouse":[763,763,763,763,763,763,763,763,763,763,763,763,763,763,763,763,763,763,763,763,763,763,763,763,763,763,763,763,763,763,763,763,763,763,763,763,763,763,763,763,763,763,763,763,763,763,763,763,763,763,763,763,763,763,763,763,763,763,763,763,763,763,763,763,763,763,763,763,763,763,763,763,763,763,763,763,763,763,765,765,769,780,781,775,764,754,736,732,725,714,697,647,622,597,573,558,547,544,543,540,540,540,540,539,537,531,510],"ymouse":[503,503,503,503,503,503,503,503,503,503,503,503,503,503,503,503,503,503,503,503,503,503,503,503,503,503,503,503,503,503,503,503,503,503,503,503,503,503,503,503,503,503,503,503,503,503,503,503,503,503,503,503,503,503,503,503,503,503,503,503,503,503,503,503,503,503,503,503,503,503,503,503,503,503,503,503,503,503,502,501,494,455,412,373,335,304,255,240,224,208,191,128,96,69,47,41,40,40,40,40,40,40,40,40,40,40,40],"timestamp_mouse":[13,33,54,73,92,113,133,152,173,193,213,232,254,272,292,314,334,353,373,393,413,433,452,472,492,513,533,553,574,592,612,633,652,674,692,712,733,753,772,792,812,832,853,873,894,914,932,952,973,993,1012,1033,1053,1074,1092,1113,1133,1152,1174,1193,1212,1233,1254,1272,1292,1312,1332,1352,1373,1394,1413,1432,1454,1474,1492,1512,1533,1553,1572,1594,1613,1633,1653,1673,1693,1713,1732,1754,1773,1794,1812,1832,1853,1873,1894,1912,1933,1953,1974,1992,2012,2032,2052,2073,2093,2114,2133],"xSR":741.5,"ySR":449.15000000000003,"xT1":424.9,"yT1":0,"xT2":1058.1,"yT2":0,"toosoon":0,"cond_shown":"Incongruent","ratio_trial":100,"L_num":13,"L_den":26,"R_num":12,"R_den":20,"correct_side":2,"subjID":"IsabellaRubianoDuarte29","gender":"1","school":"6","age":"10"},{"start_time":1551882645268,"click_time":1551882648724,"finger_time":1551882648223,"fix_duration":884.9267830919048,"trial":20,"RT":2955,"MT":501,"sideResp":2,"stimulus":[],"xmouse":[806,806,806,806,806,806,806,806,806,806,806,806,806,806,806,806,806,806,806,806,806,806,806,806,806,806,806,806,806,806,806,806,806,806,806,806,806,806,806,806,806,806,806,806,806,806,806,806,806,806,806,806,806,806,806,806,806,806,806,806,806,806,806,806,806,806,806,806,806,806,806,806,806,806,806,806,806,806,806,806,806,806,806,806,806,806,806,806,806,806,806,806,806,806,806,806,806,806,806,806,806,806,806,806,806,806,806,806,806,806,806,806,806,806,806,806,806,806,806,806,806,806,806,806,806,806,806,806,806,806,806,806,806,806,806,806,806,806,806,806,806,806,806,806,806,809,829,841,854,872,887,907,927,943,961,973,983,986,990,996,1000,1013,1022,1023,1025,1031,1056,1063,1067,1072,1079,1104,1115],"ymouse":[488,488,488,488,488,488,488,488,488,488,488,488,488,488,488,488,488,488,488,488,488,488,488,488,488,488,488,488,488,488,488,488,488,488,488,488,488,488,488,488,488,488,488,488,488,488,488,488,488,488,488,488,488,488,488,488,488,488,488,488,488,488,488,488,488,488,488,488,488,488,488,488,488,488,488,488,488,488,488,488,488,488,488,488,488,488,488,488,488,488,488,488,488,488,488,488,488,488,488,488,488,488,488,488,488,488,488,488,488,488,488,488,488,488,488,488,488,488,488,488,488,488,488,488,488,488,488,488,488,488,488,488,488,488,488,488,488,488,488,488,488,488,488,488,488,484,450,424,396,366,338,287,245,222,202,189,169,160,153,146,143,139,138,137,136,135,134,132,129,124,118,103,92],"timestamp_mouse":[15,38,55,76,95,116,134,154,175,195,215,235,255,275,294,314,335,355,375,395,414,435,456,475,495,515,536,555,575,595,615,634,655,676,694,716,736,755,774,795,816,834,854,875,895,915,935,956,975,994,1015,1035,1054,1074,1095,1116,1134,1154,1175,1194,1214,1236,1255,1276,1294,1315,1335,1355,1375,1396,1415,1434,1454,1475,1496,1514,1535,1555,1574,1594,1615,1635,1654,1675,1695,1714,1735,1755,1774,1794,1815,1835,1855,1876,1895,1917,1934,1956,1975,1995,2015,2035,2056,2075,2095,2115,2135,2154,2175,2195,2215,2235,2255,2274,2295,2315,2334,2355,2375,2395,2415,2435,2456,2475,2495,2515,2535,2554,2575,2594,2615,2635,2655,2675,2695,2714,2736,2755,2775,2795,2815,2834,2855,2875,2895,2914,2935,2955,2975,2995,3016,3035,3055,3075,3094,3115,3135,3155,3175,3195,3214,3235,3256,3275,3296,3315,3334,3355,3376,3394,3415,3435,3456],"xSR":741.5,"ySR":449.15000000000003,"xT1":424.9,"yT1":0,"xT2":1058.1,"yT2":0,"toosoon":0,"cond_shown":"Incongruent","ratio_trial":300,"L_num":4,"L_den":20,"R_num":2,"R_den":4,"correct_side":2,"subjID":"IsabellaRubianoDuarte29","gender":"1","school":"6","age":"10"},{"start_time":1551882651173,"click_time":1551882653283,"finger_time":1551882652544,"fix_duration":1369.4773137837744,"trial":21,"RT":1371,"MT":739,"sideResp":1,"stimulus":[],"xmouse":[778,778,778,778,778,778,778,778,778,778,778,778,778,778,778,778,778,778,778,778,778,778,778,778,778,778,778,778,778,778,778,778,778,778,778,778,778,778,778,778,778,778,778,778,778,778,778,778,778,778,778,778,778,778,778,778,778,778,778,778,778,778,778,778,777,775,763,757,751,745,736,718,707,697,688,682,675,670,665,660,655,645,640,634,632,632,630,628,626,622,619,615,615,615,615,614,613,612,612,611,607,585,568,551,534,522],"ymouse":[509,509,509,509,509,509,509,509,509,509,509,509,509,509,509,509,509,509,509,509,509,509,509,509,509,509,509,509,509,509,509,509,509,509,509,509,509,509,509,509,509,509,509,509,509,509,509,509,509,509,509,509,509,509,509,509,509,509,509,509,509,509,509,508,506,500,472,459,446,430,413,376,350,326,298,275,221,203,189,176,165,147,140,133,129,128,127,124,123,121,120,118,118,118,118,118,117,117,117,117,116,110,102,94,85,78],"timestamp_mouse":[9,29,50,71,90,109,130,150,169,191,211,229,249,269,291,309,330,351,370,391,411,430,449,469,490,510,529,550,571,589,610,630,650,669,691,710,730,750,770,791,811,830,850,871,891,910,930,950,971,989,1010,1031,1051,1070,1090,1109,1130,1150,1170,1191,1211,1230,1250,1271,1290,1310,1331,1350,1371,1390,1411,1430,1449,1470,1491,1511,1530,1550,1569,1591,1609,1630,1651,1669,1690,1711,1729,1751,1769,1791,1810,1829,1850,1870,1890,1910,1930,1950,1970,1990,2011,2030,2050,2070,2090,2110],"xSR":741.5,"ySR":449.15000000000003,"xT1":424.9,"yT1":0,"xT2":1058.1,"yT2":0,"toosoon":0,"cond_shown":"Incongruent","ratio_trial":100,"L_num":8,"L_den":20,"R_num":1,"R_den":2,"correct_side":2,"subjID":"IsabellaRubianoDuarte29","gender":"1","school":"6","age":"10"},{"start_time":1551882655060,"click_time":1551882656503,"finger_time":1551882656103,"fix_duration":357.5102563996608,"trial":22,"RT":1043,"MT":400,"sideResp":2,"stimulus":[],"xmouse":[774,774,774,774,774,774,774,774,774,774,774,774,774,774,774,774,774,774,774,774,774,774,774,774,774,774,774,774,774,774,774,774,774,774,774,774,774,774,774,774,774,774,774,774,774,774,774,774,774,774,774,774,771,766,765,765,783,806,807,808,808,811,826,845,863,879,895,926,950,975,1006,1041,1097],"ymouse":[455,455,455,455,455,455,455,455,455,455,455,455,455,455,455,455,455,455,455,455,455,455,455,455,455,455,455,455,455,455,455,455,455,455,455,455,455,455,455,455,455,455,455,455,455,455,455,455,455,455,455,454,445,433,431,429,421,415,414,414,413,412,403,396,388,380,368,331,298,260,215,164,49],"timestamp_mouse":[5,23,43,63,82,103,123,142,164,184,203,223,244,264,284,302,323,343,364,384,402,423,443,464,483,504,523,542,564,584,603,623,643,662,684,704,723,742,764,782,802,823,843,862,882,903,922,943,964,983,1002,1022,1043,1064,1084,1103,1123,1143,1163,1184,1203,1224,1243,1264,1282,1303,1323,1342,1363,1384,1403,1423,1443],"xSR":741.5,"ySR":449.15000000000003,"xT1":424.9,"yT1":0,"xT2":1058.1,"yT2":0,"toosoon":0,"cond_shown":"Incongruent","ratio_trial":300,"L_num":13,"L_den":26,"R_num":12,"R_den":15,"correct_side":2,"subjID":"IsabellaRubianoDuarte29","gender":"1","school":"6","age":"10"},{"start_time":1551882658275,"click_time":1551882660062,"finger_time":1551882659584,"fix_duration":250,"trial":23,"RT":1309,"MT":478,"sideResp":2,"stimulus":[],"xmouse":[792,792,792,792,792,792,792,792,792,792,792,792,792,792,792,792,792,792,792,792,792,792,792,792,792,792,792,792,792,792,792,792,792,792,792,792,792,792,792,792,792,792,792,792,792,792,792,792,792,797,799,807,812,813,815,815,816,817,818,819,821,822,824,828,834,844,867,875,884,894,906,924,937,944,950,954,963,969,976,984,992,1003,1013,1020,1030,1039,1065,1076,1086,1095],"ymouse":[499,499,499,499,499,499,499,499,499,499,499,499,499,499,499,499,499,499,499,499,499,499,499,499,499,499,499,499,499,499,499,499,499,499,499,499,499,499,499,499,499,499,499,499,499,499,499,499,499,496,494,487,483,482,481,481,481,480,479,479,478,478,476,472,466,459,441,433,421,404,386,361,344,337,328,323,309,300,286,272,262,245,231,219,206,191,148,123,100,79],"timestamp_mouse":[8,27,47,68,87,107,128,148,168,188,209,228,248,268,288,308,328,347,368,388,407,428,448,467,487,508,528,547,568,588,608,627,647,668,689,708,728,749,768,789,808,828,849,868,888,908,928,947,969,988,1008,1027,1048,1068,1087,1109,1128,1147,1168,1188,1209,1227,1248,1269,1288,1309,1328,1348,1369,1387,1408,1428,1448,1467,1488,1508,1528,1549,1568,1588,1609,1628,1649,1668,1688,1707,1729,1748,1768,1787],"xSR":741.5,"ySR":449.15000000000003,"xT1":424.9,"yT1":0,"xT2":1058.1,"yT2":0,"toosoon":0,"cond_shown":"Incongruent","ratio_trial":300,"L_num":13,"L_den":26,"R_num":12,"R_den":15,"correct_side":2,"subjID":"IsabellaRubianoDuarte29","gender":"1","school":"6","age":"10"},{"start_time":1551882661674,"click_time":1551882664463,"finger_time":1551882663223,"fix_duration":250,"trial":24,"RT":1549,"MT":1240,"sideResp":1,"stimulus":[],"xmouse":[809,809,809,809,809,809,809,809,809,809,809,809,809,809,809,809,809,809,809,809,809,809,809,809,809,809,809,809,809,809,809,809,809,809,809,809,809,809,809,809,809,809,809,809,809,809,809,809,809,809,809,809,809,809,809,809,809,809,809,809,809,809,809,809,809,809,809,809,809,809,809,809,809,804,797,790,788,787,787,787,787,787,787,787,787,787,787,787,787,787,787,787,787,787,787,787,787,787,787,787,787,787,787,787,787,787,787,787,787,787,787,764,747,728,711,702,694,689,682,671,660,636,623,620,618,617,610,601,593,586,581,576,571,568,566,563,555,544,530,514],"ymouse":[481,481,481,481,481,481,482,482,482,483,483,483,483,483,483,483,483,483,483,483,483,483,483,483,483,483,483,483,483,483,483,483,483,483,483,483,483,483,483,483,483,483,483,483,483,483,483,483,483,483,483,483,483,483,483,483,483,483,483,483,483,483,483,483,483,483,483,483,483,483,483,483,480,473,463,454,450,449,449,449,449,449,449,449,449,449,449,449,449,449,449,449,449,449,449,449,449,449,449,449,449,449,449,449,449,449,449,449,449,449,448,425,409,390,373,361,348,342,334,322,311,285,267,261,257,252,229,212,197,182,170,152,141,133,128,123,107,95,82,70],"timestamp_mouse":[8,28,49,70,89,109,129,148,170,189,208,228,249,269,290,310,329,349,368,388,410,429,449,469,489,508,529,548,569,590,609,628,649,670,689,708,729,749,769,790,808,828,849,868,890,909,929,949,968,989,1009,1030,1049,1069,1089,1109,1128,1150,1169,1188,1208,1229,1249,1270,1288,1308,1329,1349,1369,1388,1409,1428,1449,1469,1489,1509,1529,1549,1569,1589,1610,1628,1648,1669,1689,1710,1728,1749,1770,1790,1809,1829,1850,1868,1889,1910,1929,1949,1968,1988,2009,2029,2049,2070,2088,2108,2128,2149,2169,2189,2210,2229,2248,2268,2289,2309,2329,2349,2369,2390,2409,2429,2449,2469,2489,2508,2529,2549,2569,2590,2609,2628,2649,2670,2690,2709,2729,2750,2768,2789],"xSR":741.5,"ySR":449.15000000000003,"xT1":424.9,"yT1":0,"xT2":1058.1,"yT2":0,"toosoon":0,"cond_shown":"Incongruent","ratio_trial":200,"L_num":1,"L_den":3,"R_num":2,"R_den":15,"correct_side":1,"subjID":"IsabellaRubianoDuarte29","gender":"1","school":"6","age":"10"},{"start_time":1551882665986,"click_time":1551882668023,"finger_time":1551882667503,"fix_duration":402.75180281532266,"trial":25,"RT":1517,"MT":520,"sideResp":2,"stimulus":[],"xmouse":[775,775,775,775,775,775,775,775,775,775,775,775,775,775,775,775,775,775,775,775,775,775,775,775,775,775,775,775,775,775,775,775,775,775,775,775,775,775,775,775,775,775,775,775,775,775,775,775,775,775,775,775,775,775,775,775,775,775,775,775,775,775,775,775,775,775,775,775,775,775,775,775,775,776,779,805,821,833,845,857,875,881,884,886,888,901,910,920,928,934,946,952,962,969,977,989,997,1005,1017,1029,1054,1064],"ymouse":[476,476,476,476,476,476,476,476,476,476,476,476,476,476,476,476,476,476,476,476,476,476,476,476,476,476,476,476,476,476,476,476,476,476,476,476,476,476,476,476,476,476,476,476,476,476,476,476,476,476,476,476,476,476,476,476,476,476,476,476,476,476,476,476,476,476,476,476,476,476,476,475,472,471,467,436,419,403,384,368,353,350,348,346,344,329,318,304,292,280,256,245,233,223,214,194,181,165,147,128,90,73],"timestamp_mouse":[20,36,57,77,97,117,137,157,178,197,217,237,258,276,297,316,337,357,377,396,417,437,457,477,497,517,536,557,578,597,617,638,656,677,697,716,737,757,777,796,817,837,858,876,897,917,936,956,978,997,1017,1037,1056,1076,1097,1116,1138,1157,1176,1197,1216,1237,1257,1276,1297,1317,1337,1358,1377,1397,1417,1437,1458,1477,1497,1517,1537,1557,1576,1597,1617,1637,1657,1678,1697,1717,1738,1757,1777,1798,1817,1837,1857,1877,1897,1916,1937,1957,1977,1996,2016,2037],"xSR":741.5,"ySR":449.15000000000003,"xT1":424.9,"yT1":0,"xT2":1058.1,"yT2":0,"toosoon":0,"cond_shown":"Congruent","ratio_trial":200,"L_num":3,"L_den":12,"R_num":9,"R_den":20,"correct_side":2,"subjID":"IsabellaRubianoDuarte29","gender":"1","school":"6","age":"10"},{"start_time":1551882670546,"click_time":1551882672743,"finger_time":1551882672224,"fix_duration":1262.9425254498206,"trial":26,"RT":1678,"MT":519,"sideResp":2,"stimulus":[],"xmouse":[801,801,801,801,802,803,803,803,803,803,803,803,803,803,803,803,803,803,803,803,803,803,803,803,803,803,803,803,803,803,803,803,803,803,803,803,803,803,803,804,804,804,805,806,806,806,806,807,807,807,807,807,807,807,807,807,807,807,807,807,807,807,807,807,807,807,807,807,807,807,807,807,807,807,809,809,809,809,809,809,812,818,838,853,865,879,893,923,941,951,959,965,971,972,973,975,977,997,1005,1012,1016,1021,1033,1043,1059,1072,1085,1103,1112,1117],"ymouse":[510,510,510,510,510,510,510,510,510,510,510,510,510,510,510,510,510,510,510,510,510,510,510,510,510,510,510,510,510,510,510,510,510,510,510,510,510,510,510,510,510,510,510,509,509,508,507,499,497,495,493,491,489,487,487,487,487,487,487,487,487,487,487,487,487,487,487,487,487,487,487,487,486,484,480,477,476,476,475,472,469,465,450,440,427,411,393,357,331,316,301,287,271,268,266,263,258,230,218,209,206,200,188,178,168,159,150,128,101,83],"timestamp_mouse":[17,38,58,76,97,117,137,157,176,197,217,237,257,277,297,318,337,357,376,398,417,436,457,476,498,516,537,557,577,597,616,637,656,678,697,716,738,757,776,798,817,837,856,878,896,917,937,956,976,997,1016,1038,1056,1076,1097,1116,1138,1156,1177,1198,1217,1238,1257,1277,1298,1318,1336,1356,1377,1397,1418,1438,1456,1477,1497,1517,1536,1557,1577,1596,1616,1637,1657,1678,1696,1716,1737,1757,1778,1797,1817,1837,1857,1877,1897,1918,1937,1957,1976,1996,2017,2037,2057,2078,2096,2116,2137,2157,2176,2197],"xSR":741.5,"ySR":449.15000000000003,"xT1":424.9,"yT1":0,"xT2":1058.1,"yT2":0,"toosoon":0,"cond_shown":"Congruent","ratio_trial":300,"L_num":1,"L_den":30,"R_num":8,"R_den":24,"correct_side":2,"subjID":"IsabellaRubianoDuarte29","gender":"1","school":"6","age":"10"},{"start_time":1551882674153,"click_time":1551882676803,"finger_time":1551882675944,"fix_duration":250,"trial":27,"RT":1791,"MT":859,"sideResp":1,"stimulus":[],"xmouse":[762,762,762,762,762,762,762,762,762,762,762,762,762,762,762,762,762,762,762,762,762,762,762,762,762,762,762,762,762,762,762,762,762,762,762,762,762,762,762,762,762,762,762,762,762,762,762,763,763,763,763,763,763,763,764,764,764,765,765,766,766,766,766,766,766,766,766,766,766,766,766,766,766,766,766,766,766,766,766,766,766,766,766,766,766,765,764,758,751,741,724,696,635,615,602,593,586,580,578,576,575,574,569,567,563,559,555,549,547,545,544,543,542,542,542,542,542,542,542,542,542,542,542,542,542,542,542,540,534,527,517,507,488],"ymouse":[501,501,501,501,501,501,501,501,501,501,501,501,501,501,501,501,501,501,501,501,501,501,501,501,501,501,501,501,501,501,501,501,501,501,501,501,501,501,501,501,501,501,501,501,501,501,501,501,501,501,501,501,501,501,501,501,501,500,500,499,499,499,499,499,499,499,499,499,499,499,499,499,499,499,499,499,499,498,497,495,494,492,489,488,484,482,479,464,452,434,407,371,304,284,269,257,249,240,239,236,233,229,218,211,203,194,182,163,152,145,139,135,133,133,133,133,133,133,133,133,133,133,133,133,133,133,133,130,124,119,112,104,88],"timestamp_mouse":[10,30,51,70,90,110,130,149,170,191,209,229,250,270,291,311,330,350,369,390,410,431,450,470,490,510,530,549,571,591,609,629,650,671,689,711,730,750,769,791,809,829,849,870,890,910,930,950,970,990,1011,1031,1050,1070,1089,1111,1130,1149,1170,1191,1210,1230,1250,1269,1291,1309,1330,1350,1370,1391,1410,1431,1450,1469,1490,1511,1531,1551,1570,1591,1609,1630,1650,1669,1691,1710,1730,1750,1771,1791,1810,1830,1850,1870,1889,1910,1930,1950,1971,1989,2009,2031,2050,2070,2091,2109,2130,2150,2170,2190,2210,2229,2249,2270,2290,2309,2331,2350,2370,2390,2411,2431,2450,2471,2490,2510,2531,2550,2570,2591,2610,2630,2650],"xSR":741.5,"ySR":449.15000000000003,"xT1":424.9,"yT1":0,"xT2":1058.1,"yT2":0,"toosoon":0,"cond_shown":"Incongruent","ratio_trial":200,"L_num":1,"L_den":3,"R_num":2,"R_den":15,"correct_side":1,"subjID":"IsabellaRubianoDuarte29","gender":"1","school":"6","age":"10"},{"start_time":1551882678585,"click_time":1551882681264,"finger_time":1551882679883,"fix_duration":721.2919010750478,"trial":28,"RT":1298,"MT":1381,"sideResp":1,"stimulus":[],"xmouse":[762,762,762,762,762,762,762,762,762,762,762,762,762,762,762,762,762,762,762,762,762,762,762,762,762,762,762,762,762,762,762,762,762,762,762,762,762,762,762,762,762,762,762,762,762,762,762,762,762,763,763,763,763,763,763,763,763,763,763,763,763,763,762,762,761,759,759,759,759,759,759,759,759,758,758,755,754,753,752,750,746,743,741,740,740,739,738,737,737,737,737,737,737,737,737,737,737,737,737,737,737,736,733,730,724,705,686,671,658,647,626,617,612,608,606,598,593,588,582,578,575,573,569,561,548,523,517,515,515,514,502,495,490,490],"ymouse":[489,489,489,489,489,489,489,489,489,489,489,489,489,489,489,489,489,489,489,489,489,489,489,489,489,489,489,489,489,489,489,489,489,489,489,489,489,489,488,488,486,484,482,480,478,476,476,476,476,474,471,469,467,464,460,458,458,458,458,457,455,453,452,450,448,446,446,446,446,446,446,446,445,444,444,439,437,435,432,429,417,411,407,405,403,400,398,397,396,395,395,394,394,394,394,394,394,394,394,394,394,392,389,384,377,354,328,307,288,270,232,213,201,192,184,164,156,149,143,139,135,135,133,131,128,118,117,115,115,115,108,103,100,98],"timestamp_mouse":[22,38,58,77,97,118,137,159,179,197,218,238,258,279,297,318,338,358,378,397,418,438,457,479,497,518,538,557,578,598,619,637,657,678,698,718,738,758,777,798,818,838,857,878,899,918,939,957,977,999,1018,1039,1057,1079,1099,1118,1137,1158,1177,1197,1218,1238,1258,1278,1298,1317,1339,1357,1378,1398,1418,1439,1458,1479,1497,1518,1538,1557,1578,1597,1618,1639,1658,1677,1699,1718,1738,1759,1779,1798,1818,1838,1858,1878,1898,1918,1939,1958,1978,1998,2018,2038,2058,2078,2099,2118,2138,2158,2178,2198,2218,2238,2258,2279,2299,2317,2338,2357,2378,2399,2418,2438,2458,2479,2498,2518,2538,2557,2577,2597,2618,2637,2658,2679],"xSR":741.5,"ySR":449.15000000000003,"xT1":424.9,"yT1":0,"xT2":1058.1,"yT2":0,"toosoon":0,"cond_shown":"Incongruent","ratio_trial":300,"L_num":3,"L_den":6,"R_num":4,"R_den":20,"correct_side":1,"subjID":"IsabellaRubianoDuarte29","gender":"1","school":"6","age":"10"},{"start_time":1551882683395,"click_time":1551882686403,"finger_time":1551882685102,"fix_duration":1252.7499824748672,"trial":29,"RT":1707,"MT":1301,"sideResp":1,"stimulus":[],"xmouse":[794,794,794,794,794,794,794,794,795,795,795,795,795,795,795,795,795,795,795,795,795,795,795,795,795,795,795,795,795,795,795,795,795,795,795,795,795,795,795,795,795,795,795,795,795,795,795,795,795,795,795,795,795,795,795,795,795,795,795,795,795,795,795,795,795,795,795,794,792,789,788,787,787,786,785,778,773,769,766,765,765,764,764,763,762,761,760,758,758,758,756,755,753,750,749,746,743,740,737,734,731,731,731,731,731,730,729,729,729,729,729,729,729,729,729,729,728,728,727,727,723,717,711,704,699,691,680,668,653,644,626,620,616,614,613,608,606,606,604,603,599,595,588,579,567,550,548,546,544,538,518],"ymouse":[504,504,504,504,504,504,504,504,504,504,504,504,504,504,504,504,504,504,504,504,504,504,504,504,504,504,504,504,504,504,504,504,504,504,504,504,504,504,504,504,504,504,504,504,504,504,504,504,504,504,504,504,504,504,504,504,504,504,504,504,504,504,504,504,504,504,501,499,496,494,491,490,489,488,486,474,466,462,457,455,455,454,453,452,450,448,446,443,442,441,438,434,429,424,420,413,408,405,402,398,395,393,392,392,391,386,381,379,378,377,377,377,377,376,376,371,367,367,366,365,360,353,347,342,337,327,311,298,276,255,215,198,185,174,166,144,141,141,139,138,136,131,116,102,88,73,72,72,71,70,66],"timestamp_mouse":[7,28,48,67,89,108,127,149,169,187,208,229,249,268,288,308,328,347,367,388,408,428,448,467,488,508,527,548,568,588,608,628,649,669,688,707,727,748,769,787,807,828,849,867,887,908,927,948,969,988,1009,1027,1047,1068,1088,1108,1127,1148,1167,1189,1208,1229,1248,1267,1288,1307,1328,1349,1368,1389,1408,1427,1448,1468,1487,1509,1529,1548,1567,1589,1608,1628,1648,1667,1688,1707,1729,1747,1769,1787,1807,1828,1849,1868,1888,1907,1928,1948,1968,1988,2008,2028,2048,2068,2087,2107,2128,2148,2167,2189,2208,2228,2248,2268,2287,2307,2328,2347,2368,2389,2408,2428,2447,2469,2489,2508,2529,2548,2567,2588,2607,2628,2648,2668,2687,2707,2728,2747,2768,2787,2808,2828,2849,2867,2888,2907,2927,2947,2967,2988,3008],"xSR":741.5,"ySR":449.15000000000003,"xT1":424.9,"yT1":0,"xT2":1058.1,"yT2":0,"toosoon":0,"cond_shown":"Congruent","ratio_trial":300,"L_num":3,"L_den":6,"R_num":2,"R_den":10,"correct_side":1,"subjID":"IsabellaRubianoDuarte29","gender":"1","school":"6","age":"10"},{"start_time":1551882688368,"click_time":1551882690162,"finger_time":1551882689702,"fix_duration":1163.4246839812924,"trial":30,"RT":1334,"MT":460,"sideResp":1,"stimulus":[],"xmouse":[821,821,821,821,821,821,821,821,821,821,821,821,821,821,821,821,821,821,821,821,821,821,821,821,821,821,821,821,821,821,821,821,821,821,821,821,821,821,821,821,821,821,821,821,821,821,821,821,821,821,821,819,817,815,814,814,814,814,814,814,813,811,807,801,788,772,724,710,698,685,675,657,649,641,635,629,611,604,595,588,578,550,534,522,511,504,498,494,492,490],"ymouse":[514,514,514,514,514,514,514,514,514,514,514,514,514,514,514,514,514,514,514,514,514,514,514,514,514,514,514,514,514,514,514,514,514,514,514,514,514,514,514,514,514,514,514,514,514,514,514,514,514,514,514,513,511,508,507,506,506,505,505,505,505,502,497,488,470,450,393,374,353,332,307,268,256,245,239,232,212,204,197,191,183,165,155,146,136,129,123,115,108,98],"timestamp_mouse":[14,35,55,74,95,115,135,155,175,196,216,234,254,275,295,315,335,355,375,395,415,435,455,474,495,515,535,555,576,594,615,635,655,674,694,715,735,755,776,795,814,834,854,874,895,915,935,955,975,994,1014,1036,1054,1075,1096,1115,1135,1156,1174,1195,1216,1235,1256,1274,1295,1315,1334,1355,1375,1396,1416,1435,1456,1474,1495,1515,1535,1555,1575,1595,1614,1634,1655,1676,1696,1715,1735,1755,1776,1794],"xSR":741.5,"ySR":449.15000000000003,"xT1":424.9,"yT1":0,"xT2":1058.1,"yT2":0,"toosoon":0,"cond_shown":"Congruent","ratio_trial":200,"L_num":16,"L_den":20,"R_num":12,"R_den":20,"correct_side":1,"subjID":"IsabellaRubianoDuarte29","gender":"1","school":"6","age":"10"},{"start_time":1551882692663,"click_time":1551882694543,"finger_time":1551882694102,"fix_duration":1319.5574189082815,"trial":31,"RT":1439,"MT":441,"sideResp":2,"stimulus":[],"xmouse":[789,789,789,789,789,789,789,789,789,789,789,789,789,789,789,789,789,789,789,789,789,789,789,789,789,789,789,789,789,789,789,789,789,789,789,789,789,789,789,789,789,789,789,789,789,789,789,789,789,789,789,789,789,789,789,789,789,789,789,789,789,789,789,789,789,789,790,793,798,803,813,824,844,864,875,883,891,912,925,939,953,966,988,999,1007,1014,1019,1025,1034,1039,1043,1049,1055,1058,1060],"ymouse":[530,530,530,530,530,530,530,530,530,530,530,530,530,530,530,530,530,530,530,530,530,530,530,530,530,530,530,530,530,530,530,530,530,530,530,530,530,530,530,530,530,530,530,530,530,530,530,530,530,530,530,530,530,530,530,530,530,530,530,530,530,530,530,530,530,530,530,528,522,516,507,497,479,463,452,444,432,407,391,375,359,341,306,279,262,248,236,224,205,192,174,154,114,95,89],"timestamp_mouse":[0,19,39,59,80,100,120,139,160,179,201,220,239,260,281,301,320,340,360,380,400,420,440,460,480,500,519,540,560,581,600,619,640,660,679,700,719,740,760,779,799,820,840,859,880,899,920,940,960,980,1000,1020,1040,1060,1079,1100,1120,1140,1160,1181,1199,1221,1240,1260,1280,1299,1319,1340,1360,1380,1399,1420,1439,1460,1480,1501,1520,1540,1560,1579,1599,1621,1640,1660,1679,1700,1720,1739,1759,1780,1799,1820,1839,1861,1880],"xSR":741.5,"ySR":449.15000000000003,"xT1":424.9,"yT1":0,"xT2":1058.1,"yT2":0,"toosoon":0,"cond_shown":"Incongruent","ratio_trial":300,"L_num":13,"L_den":26,"R_num":12,"R_den":15,"correct_side":2,"subjID":"IsabellaRubianoDuarte29","gender":"1","school":"6","age":"10"},{"start_time":1551882695915,"click_time":1551882698041,"finger_time":1551882697580,"fix_duration":250,"trial":32,"RT":1665,"MT":461,"sideResp":2,"stimulus":[],"xmouse":[769,769,769,769,769,769,769,769,769,769,769,769,769,769,769,769,769,769,769,769,769,769,769,769,769,769,769,769,769,769,769,769,769,769,769,769,769,769,769,769,769,769,769,769,769,769,769,769,769,769,769,769,769,769,769,769,769,769,769,769,769,769,769,769,769,769,769,769,769,770,770,770,770,770,770,770,770,770,772,774,783,793,804,815,842,858,871,881,891,927,943,957,967,973,988,997,1007,1015,1019,1028,1032,1033,1034,1035,1045,1054,1060],"ymouse":[501,501,501,501,501,501,501,501,501,501,501,501,501,501,501,501,501,501,501,501,501,501,501,501,501,501,501,501,501,501,501,501,501,501,501,501,501,501,501,501,501,501,501,501,501,502,502,502,502,502,502,502,502,502,502,502,502,502,502,502,502,502,502,502,502,502,502,502,502,502,502,502,502,501,501,500,499,497,495,487,476,466,456,441,405,385,367,348,331,275,252,232,215,199,169,155,145,136,129,117,113,111,110,108,102,98,95],"timestamp_mouse":[7,27,49,67,87,108,127,148,169,188,207,227,249,268,287,308,329,347,368,387,408,429,447,469,488,507,528,548,568,588,608,629,647,668,688,707,729,749,767,788,807,827,846,866,886,906,927,946,966,986,1007,1026,1047,1066,1086,1106,1126,1146,1166,1186,1206,1226,1247,1266,1286,1306,1327,1346,1367,1386,1406,1427,1447,1466,1486,1506,1526,1547,1565,1586,1606,1626,1646,1665,1686,1706,1727,1747,1767,1786,1806,1826,1846,1866,1886,1906,1926,1947,1965,1986,2007,2026,2046,2067,2086,2106,2125],"xSR":741.5,"ySR":449.15000000000003,"xT1":424.9,"yT1":0,"xT2":1058.1,"yT2":0,"toosoon":0,"cond_shown":"Congruent","ratio_trial":200,"L_num":15,"L_den":25,"R_num":4,"R_den":10,"correct_side":1,"subjID":"IsabellaRubianoDuarte29","gender":"1","school":"6","age":"10"},{"start_time":1551882700105,"click_time":1551882701381,"finger_time":1551882700881,"fix_duration":842.3542319211437,"trial":33,"RT":776,"MT":500,"sideResp":2,"stimulus":[],"xmouse":[791,791,791,791,791,791,791,791,791,791,791,791,791,791,791,791,791,791,791,791,791,791,791,791,791,791,791,791,791,791,791,791,791,791,793,803,816,831,844,860,869,879,889,898,908,915,922,930,939,957,965,972,982,991,1008,1015,1021,1027,1033,1045,1054,1059,1065,1071],"ymouse":[516,516,516,516,516,516,516,516,516,516,516,516,516,516,516,516,516,516,516,516,516,516,516,516,516,516,516,516,516,516,516,516,516,516,515,508,501,492,482,467,456,442,428,413,389,369,351,333,317,287,268,253,237,222,191,179,168,158,148,129,117,111,104,99],"timestamp_mouse":[15,36,57,76,96,117,136,156,176,195,217,237,256,276,297,315,336,357,376,395,417,435,456,477,496,517,535,557,577,597,616,636,655,676,696,716,736,757,776,796,815,836,856,877,896,916,936,957,976,996,1015,1036,1057,1076,1095,1116,1136,1157,1176,1196,1216,1236,1256,1276],"xSR":741.5,"ySR":449.15000000000003,"xT1":424.9,"yT1":0,"xT2":1058.1,"yT2":0,"toosoon":0,"cond_shown":"Congruent","ratio_trial":300,"L_num":7,"L_den":14,"R_num":20,"R_den":25,"correct_side":2,"subjID":"IsabellaRubianoDuarte29","gender":"1","school":"6","age":"10"},{"start_time":1551882703880,"click_time":1551882705681,"finger_time":1551882705262,"fix_duration":1379.335512490601,"trial":34,"RT":1382,"MT":419,"sideResp":2,"stimulus":[],"xmouse":[794,794,794,794,794,794,794,794,794,794,794,794,794,794,794,794,794,794,794,794,794,794,794,794,794,794,794,794,794,794,794,794,794,794,794,794,794,794,794,794,794,794,796,796,796,796,796,796,796,796,796,797,797,797,797,797,797,797,797,797,797,797,797,799,801,804,815,823,836,852,872,915,925,935,947,960,989,1001,1008,1014,1019,1035,1039,1044,1048,1054,1068,1073,1079,1083,1091],"ymouse":[499,499,499,499,499,499,499,499,499,499,499,499,499,499,499,499,499,499,499,499,499,499,499,499,499,499,499,499,499,499,499,499,499,499,499,499,499,499,499,499,499,499,499,499,499,499,499,499,499,499,499,498,498,498,498,498,498,498,498,498,498,498,498,496,495,493,485,476,464,448,424,359,340,323,306,289,256,245,236,227,219,191,181,172,163,154,132,123,112,104,92],"timestamp_mouse":[4,24,41,61,82,101,121,140,161,181,201,220,242,261,282,300,321,341,361,381,401,421,441,462,481,501,521,542,561,581,601,621,641,661,681,701,721,742,761,781,800,821,841,862,880,901,921,940,961,981,1002,1021,1041,1061,1081,1101,1121,1141,1161,1182,1201,1221,1241,1261,1282,1302,1321,1342,1362,1382,1401,1421,1441,1461,1481,1501,1522,1542,1562,1581,1601,1622,1641,1662,1681,1701,1722,1741,1762,1782,1801],"xSR":741.5,"ySR":449.15000000000003,"xT1":424.9,"yT1":0,"xT2":1058.1,"yT2":0,"toosoon":0,"cond_shown":"Incongruent","ratio_trial":100,"L_num":6,"L_den":12,"R_num":3,"R_den":5,"correct_side":2,"subjID":"IsabellaRubianoDuarte29","gender":"1","school":"6","age":"10"},{"start_time":1551882709688,"click_time":1551882711162,"finger_time":1551882710961,"fix_duration":486.38055636205803,"trial":35,"RT":1273,"MT":201,"sideResp":2,"stimulus":[],"xmouse":[775,775,775,775,775,775,775,775,775,775,775,775,775,775,775,775,775,775,775,775,775,775,775,775,775,775,775,775,775,775,775,775,775,775,775,775,775,775,775,775,775,775,774,774,774,774,774,774,775,775,775,776,777,777,778,779,780,780,780,781,786,794,800,810,819,839,847,857,868,885,901,990,1034,1059],"ymouse":[527,527,527,527,527,527,527,527,527,527,527,527,527,527,527,527,527,527,527,527,527,527,527,527,527,527,527,527,527,527,527,527,527,527,527,527,527,527,527,527,527,527,527,527,526,523,522,520,519,518,517,515,514,511,510,505,503,501,500,498,487,471,456,436,415,373,356,340,327,308,290,178,111,66],"timestamp_mouse":[17,33,54,72,93,113,134,152,173,193,213,234,253,273,293,313,332,353,373,393,413,434,453,474,493,513,534,553,573,593,613,634,654,674,693,713,733,754,773,794,813,833,853,873,894,913,934,953,973,994,1013,1033,1052,1073,1093,1113,1134,1153,1173,1193,1213,1233,1254,1273,1293,1312,1333,1353,1374,1392,1412,1433,1454,1474],"xSR":741.5,"ySR":449.15000000000003,"xT1":424.9,"yT1":0,"xT2":1058.1,"yT2":0,"toosoon":0,"cond_shown":"Congruent","ratio_trial":200,"L_num":9,"L_den":30,"R_num":13,"R_den":26,"correct_side":2,"subjID":"IsabellaRubianoDuarte29","gender":"1","school":"6","age":"10"},{"start_time":1551882713084,"click_time":1551882714801,"finger_time":1551882714301,"fix_duration":582.7004055697256,"trial":36,"RT":1217,"MT":500,"sideResp":1,"stimulus":[],"xmouse":[794,794,794,794,794,794,794,794,794,794,794,794,794,794,794,794,794,794,794,794,794,794,794,794,794,794,794,794,794,794,794,794,794,794,794,794,794,794,794,794,794,794,794,795,795,795,795,795,795,795,795,795,795,795,795,795,795,795,793,793,784,770,756,741,726,707,699,693,685,677,654,644,641,638,632,615,602,588,581,576,565,556,545,533,518,494],"ymouse":[464,464,464,464,464,464,464,464,464,464,464,464,464,464,464,464,464,464,464,464,464,464,464,464,464,464,464,464,464,464,464,464,464,464,464,464,464,464,464,464,464,462,460,459,459,459,459,459,459,459,459,459,459,458,457,457,457,456,453,452,442,426,410,391,372,334,319,304,291,278,251,235,226,220,211,190,177,166,158,153,144,139,130,118,105,83],"timestamp_mouse":[20,37,57,78,98,117,137,157,177,197,217,237,257,278,296,317,337,357,377,397,417,438,457,477,497,517,537,557,576,598,617,637,657,677,697,717,737,756,778,797,817,837,857,878,897,917,937,957,977,997,1017,1037,1057,1077,1097,1117,1137,1158,1177,1197,1217,1237,1257,1278,1297,1317,1337,1357,1377,1397,1417,1437,1457,1477,1497,1517,1537,1557,1577,1598,1617,1636,1657,1677,1697,1717],"xSR":741.5,"ySR":449.15000000000003,"xT1":424.9,"yT1":0,"xT2":1058.1,"yT2":0,"toosoon":0,"cond_shown":"Incongruent","ratio_trial":300,"L_num":4,"L_den":5,"R_num":6,"R_den":12,"correct_side":1,"subjID":"IsabellaRubianoDuarte29","gender":"1","school":"6","age":"10"},{"start_time":1551882717791,"click_time":1551882719521,"finger_time":1551882719141,"fix_duration":309.87186039127533,"trial":37,"RT":1350,"MT":380,"sideResp":1,"stimulus":[],"xmouse":[775,775,775,775,775,775,775,775,775,775,775,775,775,775,775,775,775,775,775,775,775,775,775,775,775,775,775,775,775,775,775,775,775,775,775,775,775,775,775,775,775,775,775,775,775,775,774,774,774,774,774,774,772,771,769,767,767,767,767,767,767,767,767,767,766,758,748,736,718,700,669,655,644,633,622,606,599,596,594,592,583,579,574,570,564,534,511],"ymouse":[487,487,487,487,487,487,487,487,487,487,487,487,487,487,487,487,487,487,487,487,487,487,487,487,487,487,487,487,487,487,487,487,487,487,487,487,487,487,487,487,487,487,487,487,487,487,488,487,486,486,486,486,485,483,479,475,475,475,475,475,475,475,475,475,473,464,454,442,424,406,365,345,326,309,291,264,245,232,219,204,178,166,151,134,115,53,26],"timestamp_mouse":[15,31,51,70,90,110,130,150,170,190,210,230,250,270,290,310,329,351,370,390,410,430,450,471,490,510,530,550,570,590,611,631,650,671,690,710,730,751,770,790,810,830,850,870,890,911,931,951,970,990,1009,1029,1051,1070,1091,1110,1131,1150,1170,1190,1211,1231,1251,1270,1290,1310,1330,1350,1370,1389,1410,1430,1450,1469,1489,1510,1530,1551,1570,1590,1609,1630,1650,1671,1689,1710,1730],"xSR":741.5,"ySR":449.15000000000003,"xT1":424.9,"yT1":0,"xT2":1058.1,"yT2":0,"toosoon":0,"cond_shown":"Congruent","ratio_trial":300,"L_num":20,"L_den":25,"R_num":5,"R_den":10,"correct_side":1,"subjID":"IsabellaRubianoDuarte29","gender":"1","school":"6","age":"10"},{"start_time":1551882721366,"click_time":1551882723601,"finger_time":1551882723082,"fix_duration":785.4779237309702,"trial":38,"RT":1716,"MT":519,"sideResp":1,"stimulus":[],"xmouse":[769,769,769,769,769,769,769,769,769,769,769,769,769,769,769,769,769,769,769,769,769,769,769,769,769,769,769,769,769,769,769,769,769,769,769,769,769,769,769,769,769,769,769,769,769,769,769,769,769,769,769,769,769,769,769,769,769,769,769,769,769,769,769,769,769,769,769,769,769,769,769,769,769,769,769,769,769,769,769,769,769,769,769,765,755,737,723,719,717,714,709,692,680,666,654,641,615,585,561,537,517,501,497,495,495,495,497,497,497,497,497,499],"ymouse":[486,486,486,486,486,486,486,486,486,486,486,486,486,486,486,486,486,486,486,486,486,486,486,486,486,486,486,486,486,486,486,486,486,486,486,486,486,486,486,486,486,486,486,486,486,486,486,486,486,486,486,486,486,486,486,486,486,486,486,486,486,486,486,486,486,486,486,486,486,486,486,486,486,486,486,486,486,485,485,483,481,477,472,464,451,427,395,382,371,358,344,312,298,281,269,258,238,216,198,176,158,129,120,114,111,108,102,101,100,100,100,98],"timestamp_mouse":[15,35,55,75,95,115,135,155,176,195,216,235,256,276,295,314,335,355,376,395,415,435,455,476,496,515,535,555,575,595,615,635,655,676,696,715,735,754,775,796,814,835,855,876,895,915,935,955,976,994,1015,1036,1055,1075,1095,1115,1135,1155,1175,1195,1215,1235,1255,1275,1295,1316,1335,1354,1375,1395,1415,1435,1454,1475,1495,1515,1535,1555,1575,1595,1616,1635,1656,1675,1696,1716,1735,1756,1775,1795,1816,1835,1855,1876,1894,1915,1935,1956,1975,1996,2015,2034,2055,2076,2094,2115,2134,2155,2176,