[{"start_time":1551882911132,"click_time":1551882911781,"finger_time":1551882911740,"fix_duration":1266.5926948228782,"trial":0,"RT":608,"MT":41,"sideResp":1,"stimulus":"img/750/randomdotsizeEA/L/13_Ratio_750_L_8_R_6.png","xmouse":[773,773,773,773,773,773,773,773,773,773,773,773,773,773,773,773,773,773,773,773,773,773,773,773,773,773,773,773,773,763,714,643,471],"ymouse":[544,544,544,544,544,544,544,544,544,544,544,544,544,544,544,544,544,544,544,544,544,544,544,544,544,544,544,544,544,502,391,281,29],"timestamp_mouse":[9,38,48,69,89,108,128,148,168,188,209,228,248,268,289,308,329,348,368,388,408,428,448,468,489,508,528,549,568,588,608,629,648],"xSR":741.5,"ySR":490.1,"xT1":424.9,"yT1":0,"xT2":1058.1,"yT2":0,"toosoon":0,"cond_shown":"randomdotsizeEA","ratio_trial":750,"smaller_num":"6","larger_num":"8","correct_side":1,"subjID":"Laurasalomeguerrero9","gender":"1","age":"11","school":"6","test":{"fix_dur":[250,1500],"timestim":300,"targets_dim":[100,100],"targets_relative_coord":[0.3,0.7],"size_stim":[880,420],"start_dim":[100,100],"size_start":[300,300],"size_fix":60,"samplingrate":20,"img_types":["equaldotsize","equaldotanddens","randomdotsizeEA"],"ratios":[250,500,750,900],"rep_conds":9,"nTrials":120,"trials_to_rest":500,"Trials_order":[104,40,58,52,94,116,113,97,3,96,85,45,41,57,5,55,83,118,7,21,73,106,31,100,95,101,79,9,27,65,72,76,80,35,68,87,28,16,64,110,29,91,10,111,119,39,11,78,56,117,81,66,48,19,26,71,67,84,50,88,36,25,69,59,102,44,103,61,4,63,86,74,108,22,98,42,33,53,62,99,77,2,82,105,60,114,34,92,112,30,75,6,49,37,54,14,46,89,0,13,115,1,43,18,24,32,109,51,90,23,12,20,70,107,47,93,8,15,17,38],"cond_shown":["randomdotsizeEA","equaldotanddens","equaldotanddens","equaldotanddens","equaldotanddens","randomdotsizeEA","randomdotsizeEA","equaldotanddens","equaldotsize","equaldotsize","equaldotanddens","equaldotsize","randomdotsizeEA","equaldotsize","randomdotsizeEA","equaldotanddens","randomdotsizeEA","equaldotanddens","equaldotanddens","equaldotsize","equaldotanddens","equaldotanddens","equaldotanddens","equaldotanddens","randomdotsizeEA","randomdotsizeEA","equaldotanddens","equaldotsize","equaldotsize","randomdotsizeEA","equaldotsize","equaldotanddens","randomdotsizeEA","randomdotsizeEA","randomdotsizeEA","equaldotsize","equaldotanddens","equaldotanddens","equaldotanddens","randomdotsizeEA","randomdotsizeEA","equaldotanddens","equaldotanddens","equaldotsize","randomdotsizeEA","equaldotsize","randomdotsizeEA","equaldotsize","randomdotsizeEA","equaldotsize","equaldotsize","equaldotsize","equaldotsize","equaldotanddens","randomdotsizeEA","randomdotsizeEA","equaldotanddens","equaldotsize","randomdotsizeEA","equaldotanddens","equaldotsize","equaldotanddens","equaldotsize","randomdotsizeEA","equaldotsize","randomdotsizeEA","equaldotanddens","equaldotanddens","equaldotanddens","equaldotsize","randomdotsizeEA","randomdotsizeEA","equaldotsize","equaldotanddens","randomdotsizeEA","equaldotsize","equaldotsize","randomdotsizeEA","randomdotsizeEA","equaldotsize","randomdotsizeEA","randomdotsizeEA","equaldotanddens","equaldotsize","equaldotsize","equaldotsize","equaldotanddens","randomdotsizeEA","equaldotanddens","equaldotsize","equaldotsize","equaldotsize","equaldotanddens","equaldotanddens","equaldotsize","randomdotsizeEA","equaldotanddens","randomdotsizeEA","equaldotsize","equaldotanddens","equaldotanddens","equaldotanddens","equaldotanddens","equaldotsize","equaldotsize","randomdotsizeEA","equaldotanddens","equaldotsize","equaldotsize","randomdotsizeEA","equaldotsize","randomdotsizeEA","equaldotanddens","randomdotsizeEA","randomdotsizeEA","equaldotsize","randomdotsizeEA","equaldotsize","randomdotsizeEA","randomdotsizeEA"],"ratio_trial":[750,500,900,500,900,750,500,250,500,250,250,900,500,900,500,750,900,900,750,900,250,900,750,500,900,500,750,900,500,500,250,500,750,900,750,500,500,500,500,250,500,750,900,500,900,500,900,750,750,900,900,750,250,750,250,900,750,250,250,500,250,250,900,900,750,750,750,250,500,500,250,250,250,900,250,750,900,500,250,500,500,250,900,900,250,750,900,750,500,750,500,750,250,250,750,250,900,500,250,250,750,250,750,750,250,750,250,500,750,900,250,750,900,900,900,900,750,500,500,250],"smaller_num":["6","2","18","2","18","6","6","4","2","3","3","9","9","18","9","3","9","18","3","18","2","18","18","6","18","2","3","18","9","9","3","6","6","18","12","6","5","2","6","2","10","3","18","3","18","1","18","15","15","18","18","6","6","6","3","9","9","2","2","1","3","6","18","9","3","15","18","2","1","3","2","4","3","9","3","15","9","6","5","6","5","2","9","18","3","15","9","15","10","12","5","18","3","6","3","3","9","5","2","3","15","5","3","3","1","15","6","4","15","18","3","15","18","9","18","18","3","5","2","3"],"larger_num":["8","4","20","4","20","8","12","16","4","12","12","10","18","20","18","4","10","20","4","20","8","20","24","12","20","4","4","20","18","18","12","12","8","20","16","12","10","4","12","8","20","4","20","6","20","2","20","20","20","20","20","8","24","8","12","10","12","8","8","2","12","24","20","10","4","20","24","8","2","6","8","16","12","10","12","20","10","12","20","12","10","8","10","20","12","20","10","20","20","16","10","24","12","24","4","12","10","10","8","12","20","20","4","4","4","20","24","8","20","20","12","20","20","10","20","20","4","10","4","12"],"correct_side":[1,1,1,1,1,2,1,1,2,2,2,2,2,1,2,1,2,1,1,2,1,1,1,1,1,1,2,2,2,2,1,1,1,2,2,1,1,2,1,1,2,2,2,2,1,2,1,1,1,1,2,2,1,1,1,1,2,1,1,2,2,1,2,1,2,2,1,1,2,2,1,2,1,2,1,2,2,1,2,1,2,2,2,1,2,1,2,1,2,2,1,1,2,2,1,2,2,2,2,2,2,2,1,1,2,2,1,1,2,2,2,2,1,2,1,1,1,1,2,1],"img_shown":["img/750/randomdotsizeEA/L/13_Ratio_750_L_8_R_6.png","img/500/equaldotanddens/L/10_Ratio_500_L_4_R_2.png","img/900/equaldotanddens/L/10_Ratio_900_L_20_R_18.png","img/500/equaldotanddens/L/5_Ratio_500_L_4_R_2.png","img/900/equaldotanddens/L/4_Ratio_900_L_20_R_18.png","img/750/randomdotsizeEA/R/2_Ratio_750_L_6_R_8.png","img/500/randomdotsizeEA/L/13_Ratio_500_L_12_R_6.png","img/250/equaldotanddens/L/2_Ratio_250_L_16_R_4.png","img/500/equaldotsize/R/9_Ratio_500_L_2_R_4.png","img/250/equaldotsize/R/4_Ratio_250_L_3_R_12.png","img/250/equaldotanddens/R/9_Ratio_250_L_3_R_12.png","img/900/equaldotsize/R/7_Ratio_900_L_9_R_10.png","img/500/randomdotsizeEA/R/6_Ratio_500_L_9_R_18.png","img/900/equaldotsize/L/10_Ratio_900_L_20_R_18.png","img/500/randomdotsizeEA/R/6_Ratio_500_L_9_R_18.png","img/750/equaldotanddens/L/9_Ratio_750_L_4_R_3.png","img/900/randomdotsizeEA/R/15_Ratio_900_L_9_R_10.png","img/900/equaldotanddens/L/2_Ratio_900_L_20_R_18.png","img/750/equaldotanddens/L/10_Ratio_750_L_4_R_3.png","img/900/equaldotsize/R/12_Ratio_900_L_18_R_20.png","img/250/equaldotanddens/L/1_Ratio_250_L_8_R_2.png","img/900/equaldotanddens/L/10_Ratio_900_L_20_R_18.png","img/750/equaldotanddens/L/6_Ratio_750_L_24_R_18.png","img/500/equaldotanddens/L/13_Ratio_500_L_12_R_6.png","img/900/randomdotsizeEA/L/8_Ratio_900_L_20_R_18.png","img/500/randomdotsizeEA/L/5_Ratio_500_L_4_R_2.png","img/750/equaldotanddens/R/7_Ratio_750_L_3_R_4.png","img/900/equaldotsize/R/11_Ratio_900_L_18_R_20.png","img/500/equaldotsize/R/1_Ratio_500_L_9_R_18.png","img/500/randomdotsizeEA/R/6_Ratio_500_L_9_R_18.png","img/250/equaldotsize/L/15_Ratio_250_L_12_R_3.png","img/500/equaldotanddens/L/11_Ratio_500_L_12_R_6.png","img/750/randomdotsizeEA/L/14_Ratio_750_L_8_R_6.png","img/900/randomdotsizeEA/R/11_Ratio_900_L_18_R_20.png","img/750/randomdotsizeEA/R/11_Ratio_750_L_12_R_16.png","img/500/equaldotsize/L/13_Ratio_500_L_12_R_6.png","img/500/equaldotanddens/L/7_Ratio_500_L_10_R_5.png","img/500/equaldotanddens/R/9_Ratio_500_L_2_R_4.png","img/500/equaldotanddens/L/13_Ratio_500_L_12_R_6.png","img/250/randomdotsizeEA/L/1_Ratio_250_L_8_R_2.png","img/500/randomdotsizeEA/R/3_Ratio_500_L_10_R_20.png","img/750/equaldotanddens/R/7_Ratio_750_L_3_R_4.png","img/900/equaldotanddens/R/13_Ratio_900_L_18_R_20.png","img/500/equaldotsize/R/2_Ratio_500_L_3_R_6.png","img/900/randomdotsizeEA/L/2_Ratio_900_L_20_R_18.png","img/500/equaldotsize/R/15_Ratio_500_L_1_R_2.png","img/900/randomdotsizeEA/L/8_Ratio_900_L_20_R_18.png","img/750/equaldotsize/L/1_Ratio_750_L_20_R_15.png","img/750/randomdotsizeEA/L/1_Ratio_750_L_20_R_15.png","img/900/equaldotsize/L/8_Ratio_900_L_20_R_18.png","img/900/equaldotsize/R/14_Ratio_900_L_18_R_20.png","img/750/equaldotsize/R/2_Ratio_750_L_6_R_8.png","img/250/equaldotsize/L/5_Ratio_250_L_24_R_6.png","img/750/equaldotanddens/L/13_Ratio_750_L_8_R_6.png","img/250/randomdotsizeEA/L/15_Ratio_250_L_12_R_3.png","img/900/randomdotsizeEA/L/1_Ratio_900_L_10_R_9.png","img/750/equaldotanddens/R/15_Ratio_750_L_9_R_12.png","img/250/equaldotsize/L/3_Ratio_250_L_8_R_2.png","img/250/randomdotsizeEA/L/3_Ratio_250_L_8_R_2.png","img/500/equaldotanddens/R/15_Ratio_500_L_1_R_2.png","img/250/equaldotsize/R/4_Ratio_250_L_3_R_12.png","img/250/equaldotanddens/L/5_Ratio_250_L_24_R_6.png","img/900/equaldotsize/R/12_Ratio_900_L_18_R_20.png","img/900/randomdotsizeEA/L/1_Ratio_900_L_10_R_9.png","img/750/equaldotsize/R/7_Ratio_750_L_3_R_4.png","img/750/randomdotsizeEA/R/3_Ratio_750_L_15_R_20.png","img/750/equaldotanddens/L/6_Ratio_750_L_24_R_18.png","img/250/equaldotanddens/L/7_Ratio_250_L_8_R_2.png","img/500/equaldotanddens/R/12_Ratio_500_L_1_R_2.png","img/500/equaldotsize/R/2_Ratio_500_L_3_R_6.png","img/250/randomdotsizeEA/L/3_Ratio_250_L_8_R_2.png","img/250/randomdotsizeEA/R/10_Ratio_250_L_4_R_16.png","img/250/equaldotsize/L/15_Ratio_250_L_12_R_3.png","img/900/equaldotanddens/R/6_Ratio_900_L_9_R_10.png","img/250/randomdotsizeEA/L/15_Ratio_250_L_12_R_3.png","img/750/equaldotsize/R/3_Ratio_750_L_15_R_20.png","img/900/equaldotsize/R/5_Ratio_900_L_9_R_10.png","img/500/randomdotsizeEA/L/13_Ratio_500_L_12_R_6.png","img/250/randomdotsizeEA/R/12_Ratio_250_L_5_R_20.png","img/500/equaldotsize/L/13_Ratio_500_L_12_R_6.png","img/500/randomdotsizeEA/R/14_Ratio_500_L_5_R_10.png","img/250/randomdotsizeEA/R/13_Ratio_250_L_2_R_8.png","img/900/equaldotanddens/R/5_Ratio_900_L_9_R_10.png","img/900/equaldotsize/L/2_Ratio_900_L_20_R_18.png","img/250/equaldotsize/R/11_Ratio_250_L_3_R_12.png","img/750/equaldotsize/L/1_Ratio_750_L_20_R_15.png","img/900/equaldotanddens/R/3_Ratio_900_L_9_R_10.png","img/750/randomdotsizeEA/L/1_Ratio_750_L_20_R_15.png","img/500/equaldotanddens/R/3_Ratio_500_L_10_R_20.png","img/750/equaldotsize/R/11_Ratio_750_L_12_R_16.png","img/500/equaldotsize/L/7_Ratio_500_L_10_R_5.png","img/750/equaldotsize/L/6_Ratio_750_L_24_R_18.png","img/250/equaldotanddens/R/4_Ratio_250_L_3_R_12.png","img/250/equaldotanddens/R/6_Ratio_250_L_6_R_24.png","img/750/equaldotsize/L/9_Ratio_750_L_4_R_3.png","img/250/randomdotsizeEA/R/4_Ratio_250_L_3_R_12.png","img/900/equaldotanddens/R/3_Ratio_900_L_9_R_10.png","img/500/randomdotsizeEA/R/14_Ratio_500_L_5_R_10.png","img/250/equaldotsize/R/13_Ratio_250_L_2_R_8.png","img/250/equaldotanddens/R/9_Ratio_250_L_3_R_12.png","img/750/equaldotanddens/R/5_Ratio_750_L_15_R_20.png","img/250/equaldotanddens/R/12_Ratio_250_L_5_R_20.png","img/750/equaldotanddens/L/9_Ratio_750_L_4_R_3.png","img/750/equaldotsize/L/8_Ratio_750_L_4_R_3.png","img/250/equaldotsize/R/8_Ratio_250_L_1_R_4.png","img/750/randomdotsizeEA/R/4_Ratio_750_L_15_R_20.png","img/250/equaldotanddens/L/5_Ratio_250_L_24_R_6.png","img/500/equaldotsize/L/8_Ratio_500_L_8_R_4.png","img/750/equaldotsize/R/3_Ratio_750_L_15_R_20.png","img/900/randomdotsizeEA/R/14_Ratio_900_L_18_R_20.png","img/250/equaldotsize/R/11_Ratio_250_L_3_R_12.png","img/750/randomdotsizeEA/R/4_Ratio_750_L_15_R_20.png","img/900/equaldotanddens/L/2_Ratio_900_L_20_R_18.png","img/900/randomdotsizeEA/R/6_Ratio_900_L_9_R_10.png","img/900/randomdotsizeEA/L/4_Ratio_900_L_20_R_18.png","img/900/equaldotsize/L/4_Ratio_900_L_20_R_18.png","img/750/randomdotsizeEA/L/8_Ratio_750_L_4_R_3.png","img/500/equaldotsize/L/7_Ratio_500_L_10_R_5.png","img/500/randomdotsizeEA/R/9_Ratio_500_L_2_R_4.png","img/250/randomdotsizeEA/L/14_Ratio_250_L_12_R_3.png"],"Rat0":[["12_Ratio_0_L_9_R_0.png","13_Ratio_0_L_6_R_0.png","5_Ratio_0_L_2_R_0.png","6_Ratio_0_L_4_R_0.png","8_Ratio_0_L_6_R_0.png"],["1_Ratio_0_L_0_R_17.png","10_Ratio_0_L_0_R_22.png","11_Ratio_0_L_0_R_1.png","14_Ratio_0_L_0_R_24.png","15_Ratio_0_L_0_R_4.png","2_Ratio_0_L_0_R_5.png","3_Ratio_0_L_0_R_17.png","4_Ratio_0_L_0_R_7.png","7_Ratio_0_L_0_R_19.png","9_Ratio_0_L_0_R_15.png"]],"Rat250":[["1_Ratio_250_L_8_R_2.png","14_Ratio_250_L_12_R_3.png","15_Ratio_250_L_12_R_3.png","2_Ratio_250_L_16_R_4.png","3_Ratio_250_L_8_R_2.png","5_Ratio_250_L_24_R_6.png","7_Ratio_250_L_8_R_2.png"],["10_Ratio_250_L_4_R_16.png","11_Ratio_250_L_3_R_12.png","12_Ratio_250_L_5_R_20.png","13_Ratio_250_L_2_R_8.png","4_Ratio_250_L_3_R_12.png","6_Ratio_250_L_6_R_24.png","8_Ratio_250_L_1_R_4.png","9_Ratio_250_L_3_R_12.png"]],"Rat500":[["10_Ratio_500_L_4_R_2.png","11_Ratio_500_L_12_R_6.png","13_Ratio_500_L_12_R_6.png","4_Ratio_500_L_18_R_9.png","5_Ratio_500_L_4_R_2.png","7_Ratio_500_L_10_R_5.png","8_Ratio_500_L_8_R_4.png"],["1_Ratio_500_L_9_R_18.png","12_Ratio_500_L_1_R_2.png","14_Ratio_500_L_5_R_10.png","15_Ratio_500_L_1_R_2.png","2_Ratio_500_L_3_R_6.png","3_Ratio_500_L_10_R_20.png","6_Ratio_500_L_9_R_18.png","9_Ratio_500_L_2_R_4.png"]],"Rat750":[["1_Ratio_750_L_20_R_15.png","10_Ratio_750_L_4_R_3.png","13_Ratio_750_L_8_R_6.png","14_Ratio_750_L_8_R_6.png","6_Ratio_750_L_24_R_18.png","8_Ratio_750_L_4_R_3.png","9_Ratio_750_L_4_R_3.png"],["11_Ratio_750_L_12_R_16.png","12_Ratio_750_L_3_R_4.png","15_Ratio_750_L_9_R_12.png","2_Ratio_750_L_6_R_8.png","3_Ratio_750_L_15_R_20.png","4_Ratio_750_L_15_R_20.png","5_Ratio_750_L_15_R_20.png","7_Ratio_750_L_3_R_4.png"]],"Rat900":[["1_Ratio_900_L_10_R_9.png","10_Ratio_900_L_20_R_18.png","2_Ratio_900_L_20_R_18.png","4_Ratio_900_L_20_R_18.png","8_Ratio_900_L_20_R_18.png"],["11_Ratio_900_L_18_R_20.png","12_Ratio_900_L_18_R_20.png","13_Ratio_900_L_18_R_20.png","14_Ratio_900_L_18_R_20.png","15_Ratio_900_L_9_R_10.png","3_Ratio_900_L_9_R_10.png","5_Ratio_900_L_9_R_10.png","6_Ratio_900_L_9_R_10.png","7_Ratio_900_L_9_R_10.png","9_Ratio_900_L_18_R_20.png"]],"Rat1000":[["10_Ratio_1000_L_16_R_16.png","11_Ratio_1000_L_6_R_6.png","12_Ratio_1000_L_14_R_14.png","13_Ratio_1000_L_20_R_20.png","15_Ratio_1000_L_15_R_15.png","2_Ratio_1000_L_17_R_17.png","4_Ratio_1000_L_9_R_9.png","5_Ratio_1000_L_6_R_6.png","6_Ratio_1000_L_19_R_19.png","8_Ratio_1000_L_14_R_14.png","9_Ratio_1000_L_25_R_25.png"],["1_Ratio_1000_L_1_R_1.png","14_Ratio_1000_L_17_R_17.png","3_Ratio_1000_L_17_R_17.png","7_Ratio_1000_L_6_R_6.png"]]}},{"start_time":1551882915302,"click_time":1551882916540,"finger_time":1551882916080,"fix_duration":1201.212674725491,"trial":1,"RT":778,"MT":460,"sideResp":1,"stimulus":"img/500/equaldotanddens/L/10_Ratio_500_L_4_R_2.png","xmouse":[824,824,824,824,824,824,824,824,824,824,824,824,824,824,824,824,824,824,824,824,824,824,824,824,824,824,824,824,824,824,824,824,824,824,824,824,824,824,805,757,735,735,735,735,735,735,735,735,735,735,735,735,735,735,735,735,735,735,735,735,735,477],"ymouse":[521,521,521,521,521,521,521,521,521,521,521,521,521,521,521,521,521,521,521,521,521,521,521,521,521,521,521,521,521,521,521,521,521,521,521,521,521,521,337,133,52,52,52,52,52,52,52,52,52,52,52,52,52,52,52,52,52,52,52,52,52,2],"timestamp_mouse":[18,39,58,79,99,119,138,159,179,198,218,239,259,279,299,319,338,359,378,398,419,439,458,479,498,518,538,558,579,598,618,639,659,678,699,720,739,758,778,797,818,838,858,878,899,918,938,958,979,999,1018,1038,1058,1079,1098,1118,1138,1160,1179,1198,1218,1238],"xSR":741.5,"ySR":458.25,"xT1":424.9,"yT1":0,"xT2":1058.1,"yT2":0,"toosoon":0,"cond_shown":"equaldotanddens","ratio_trial":500,"smaller_num":"2","larger_num":"4","correct_side":1,"subjID":"Laurasalomeguerrero9","gender":"1","age":"11","school":"6"},{"start_time":1551882918631,"click_time":1551882920081,"finger_time":1551882919440,"fix_duration":250,"trial":2,"RT":809,"MT":641,"sideResp":2,"stimulus":"img/900/equaldotanddens/L/10_Ratio_900_L_20_R_18.png","xmouse":[771,771,771,771,771,771,771,771,771,771,771,771,771,771,771,771,771,771,771,771,771,771,771,771,771,771,771,771,771,771,771,771,771,772,772,773,774,793,810,829,847,863,892,909,925,937,944,950,950,951,952,954,959,962,966,971,979,1000,1007,1012,1014,1016,1021,1026,1032,1039,1044,1046,1048,1049,1052,1057,1065],"ymouse":[529,529,529,529,529,529,529,529,529,529,529,529,529,529,529,529,529,529,529,529,529,529,529,529,529,529,529,529,529,529,529,527,520,518,517,517,516,499,485,468,451,432,399,381,363,346,332,302,295,290,286,282,272,266,255,245,232,200,188,177,164,150,121,110,100,92,86,83,80,79,77,75,71],"timestamp_mouse":[10,38,50,70,90,109,129,149,169,190,209,230,249,270,289,309,330,350,370,389,409,430,449,469,489,510,529,550,569,589,609,629,649,670,689,709,729,750,769,790,809,829,849,869,889,909,929,950,969,989,1010,1029,1050,1069,1089,1109,1130,1150,1169,1189,1209,1229,1249,1269,1289,1309,1329,1349,1369,1389,1409,1429,1450],"xSR":741.5,"ySR":458.25,"xT1":424.9,"yT1":0,"xT2":1058.1,"yT2":0,"toosoon":0,"cond_shown":"equaldotanddens","ratio_trial":900,"smaller_num":"18","larger_num":"20","correct_side":1,"subjID":"Laurasalomeguerrero9","gender":"1","age":"11","school":"6"},{"start_time":1551882922954,"click_time":1551882924160,"finger_time":1551882923780,"fix_duration":1493.7156116832912,"trial":3,"RT":826,"MT":380,"sideResp":1,"stimulus":"img/500/equaldotanddens/L/5_Ratio_500_L_4_R_2.png","xmouse":[782,782,782,782,782,782,782,782,782,782,782,782,782,782,782,782,782,782,782,782,782,782,782,782,782,782,782,782,782,782,782,782,782,782,782,782,782,782,782,778,765,666,614,578,554,534,521,506,505,504,504,504,505,505,508,510,512,513,513,513,513],"ymouse":[500,500,500,500,500,500,500,500,500,500,500,500,500,500,500,500,500,500,500,500,500,500,500,500,500,500,500,500,500,500,500,500,500,500,500,500,500,500,496,490,473,390,346,311,286,262,245,220,211,205,197,178,172,166,160,151,128,119,110,103,99],"timestamp_mouse":[9,26,46,67,87,106,126,146,166,186,207,227,246,266,286,306,327,346,366,387,407,427,446,467,486,507,527,547,566,586,607,627,646,667,687,706,726,747,766,787,806,826,846,866,886,906,926,947,967,986,1006,1026,1046,1066,1086,1106,1126,1146,1166,1186,1206],"xSR":741.5,"ySR":458.25,"xT1":424.9,"yT1":0,"xT2":1058.1,"yT2":0,"toosoon":0,"cond_shown":"equaldotanddens","ratio_trial":500,"smaller_num":"2","larger_num":"4","correct_side":1,"subjID":"Laurasalomeguerrero9","gender":"1","age":"11","school":"6"},{"start_time":1551882926456,"click_time":1551882927820,"finger_time":1551882927300,"fix_duration":574.6606943535577,"trial":4,"RT":844,"MT":520,"sideResp":2,"stimulus":"img/900/equaldotanddens/L/4_Ratio_900_L_20_R_18.png","xmouse":[762,762,762,762,762,762,762,762,762,762,762,762,762,762,762,762,762,762,762,762,762,762,762,762,762,762,762,762,762,762,762,771,777,783,788,790,790,790,790,792,794,813,827,843,874,930,1008,1016,1022,1027,1033,1038,1047,1049,1051,1053,1055,1057,1061,1065,1071,1084,1085,1086,1087,1090,1092,1093,1093],"ymouse":[533,533,533,533,533,533,533,533,533,533,533,533,533,533,533,533,533,533,533,533,533,533,533,533,533,533,533,533,533,533,533,531,520,506,496,490,490,490,490,488,487,473,458,441,418,388,341,329,317,302,285,269,247,240,232,227,220,203,192,181,169,140,138,134,128,120,106,101,99],"timestamp_mouse":[10,24,45,64,84,104,124,144,164,184,204,224,245,265,284,304,325,344,365,385,405,424,445,465,484,504,524,545,564,584,604,624,644,664,684,704,725,745,765,785,804,825,844,864,884,904,924,944,964,984,1004,1024,1044,1064,1084,1104,1125,1144,1164,1185,1204,1225,1244,1264,1284,1304,1325,1345,1364],"xSR":741.5,"ySR":458.25,"xT1":424.9,"yT1":0,"xT2":1058.1,"yT2":0,"toosoon":0,"cond_shown":"equaldotanddens","ratio_trial":900,"smaller_num":"18","larger_num":"20","correct_side":1,"subjID":"Laurasalomeguerrero9","gender":"1","age":"11","school":"6"},{"start_time":1551882929689,"click_time":1551882934481,"finger_time":1551882932480,"fix_duration":788.4884661324744,"trial":5,"RT":2791,"MT":2001,"sideResp":1,"stimulus":"img/750/randomdotsizeEA/R/2_Ratio_750_L_6_R_8.png","xmouse":[769,769,769,769,769,769,769,769,769,769,769,769,769,769,769,769,769,769,769,769,769,769,769,769,769,769,769,769,769,769,769,769,769,769,769,769,769,769,769,769,769,769,769,769,769,769,769,769,769,769,769,769,769,769,769,769,769,769,769,769,769,769,769,769,769,769,769,769,769,769,769,769,769,770,770,770,769,769,769,769,769,769,769,769,769,769,772,773,774,777,778,781,784,786,794,795,795,795,795,795,795,795,795,795,795,791,789,789,789,790,794,797,798,798,798,809,819,828,832,835,838,838,838,837,832,827,823,816,810,800,798,798,798,798,798,798,802,815,834,872,890,906,930,968,1132,1199,1250,1275,1291,1297,1297,1297,1297,1297,1297,1277,1259,1233,1204,1127,1091,1063,1041,1026,1010,1009,1008,1007,1006,991,973,961,950,938,912,900,889,882,879,870,867,862,860,857,849,844,837,831,823,812,807,802,800,799,797,797,797,797,797,797,797,797,797,797,797,797,797,797,797,797,797,797,797,797,797,797,797,797,797,797,797,797,797,794,785,777,765,736,705,658,645,634,620,607,577,562,549,537,528,513],"ymouse":[510,510,510,510,510,510,510,510,510,510,510,510,510,510,510,510,510,510,510,510,510,510,510,510,510,510,510,510,510,510,510,510,510,510,510,510,510,510,510,510,510,510,510,510,510,510,510,510,510,510,510,510,510,510,510,510,510,510,510,510,510,510,510,510,510,510,510,510,510,510,510,510,510,501,481,476,474,474,474,474,474,479,481,486,503,508,513,514,515,515,515,515,513,510,501,497,496,493,491,490,490,490,490,490,490,499,509,519,528,538,541,542,543,543,543,530,515,502,491,484,476,476,476,476,477,480,484,490,497,516,526,531,532,533,533,533,533,530,524,518,516,516,514,512,536,561,583,598,605,609,609,609,609,610,610,610,605,597,589,567,557,550,543,539,537,537,537,537,536,534,531,530,528,526,517,511,508,507,504,502,502,501,501,501,501,502,504,505,507,508,509,510,510,511,511,511,511,511,511,511,511,511,511,511,511,511,511,511,511,511,511,511,511,511,511,511,511,511,511,511,511,511,511,510,487,468,444,405,364,304,284,265,245,225,184,164,145,129,116,94],"timestamp_mouse":[11,39,51,71,92,111,131,151,172,192,211,231,251,272,292,312,331,351,371,392,411,432,451,471,492,511,531,551,572,591,612,631,651,671,691,711,732,752,771,792,812,831,852,871,891,911,931,951,972,991,1011,1032,1051,1072,1091,1111,1131,1151,1172,1191,1211,1232,1252,1271,1291,1312,1331,1351,1372,1392,1412,1432,1451,1471,1492,1512,1532,1551,1573,1592,1612,1632,1651,1671,1691,1712,1731,1751,1772,1791,1811,1831,1851,1871,1891,1912,1931,1951,1971,1992,2012,2031,2051,2072,2091,2112,2131,2152,2172,2191,2211,2232,2252,2272,2291,2311,2331,2351,2372,2392,2412,2432,2452,2472,2491,2512,2531,2552,2571,2592,2611,2632,2652,2671,2691,2711,2731,2751,2772,2791,2811,2831,2851,2871,2891,2911,2931,2952,2972,2992,3012,3031,3052,3071,3091,3112,3132,3152,3171,3191,3210,3231,3252,3272,3291,3312,3331,3351,3371,3392,3411,3431,3451,3471,3491,3511,3531,3552,3571,3591,3610,3631,3652,3672,3691,3711,3731,3751,3772,3792,3812,3831,3851,3871,3891,3912,3931,3951,3971,3992,4012,4031,4051,4071,4092,4111,4132,4151,4172,4191,4211,4231,4251,4271,4292,4311,4332,4351,4371,4392,4412,4432,4452,4471,4491,4511,4531,4552,4571,4591,4611,4631,4651,4671,4692,4711,4731,4751,4771,4792],"xSR":741.5,"ySR":458.25,"xT1":424.9,"yT1":0,"xT2":1058.1,"yT2":0,"toosoon":0,"cond_shown":"randomdotsizeEA","ratio_trial":750,"smaller_num":"6","larger_num":"8","correct_side":2,"subjID":"Laurasalomeguerrero9","gender":"1","age":"11","school":"6"},{"start_time":1551882937018,"click_time":1551882937961,"finger_time":1551882937420,"fix_duration":1437.6400833840469,"trial":6,"RT":402,"MT":541,"sideResp":2,"stimulus":"img/500/randomdotsizeEA/L/13_Ratio_500_L_12_R_6.png","xmouse":[763,763,763,763,763,763,763,763,763,763,763,763,763,763,763,763,763,780,802,816,831,847,865,897,905,914,919,923,928,932,936,940,945,956,959,962,962,963,971,974,976,978,981,983,999,1021,1047,1066],"ymouse":[483,483,483,483,483,483,483,483,483,483,483,483,483,483,483,483,484,477,467,459,451,439,425,396,385,374,367,358,345,337,328,318,305,279,270,263,258,253,235,229,225,221,216,210,177,144,112,96],"timestamp_mouse":[12,24,46,62,82,103,124,142,163,183,202,222,243,262,283,302,323,342,362,384,402,422,442,463,482,502,522,543,563,583,602,622,643,663,681,702,722,742,763,782,802,823,842,863,882,903,922,943],"xSR":741.5,"ySR":458.25,"xT1":424.9,"yT1":0,"xT2":1058.1,"yT2":0,"toosoon":0,"cond_shown":"randomdotsizeEA","ratio_trial":500,"smaller_num":"6","larger_num":"12","correct_side":1,"subjID":"Laurasalomeguerrero9","gender":"1","age":"11","school":"6"},{"start_time":1551882939152,"click_time":1551882939801,"finger_time":1551882939540,"fix_duration":250,"trial":7,"RT":388,"MT":261,"sideResp":1,"stimulus":"img/250/equaldotanddens/L/2_Ratio_250_L_16_R_4.png","xmouse":[801,801,801,801,801,801,801,801,801,801,801,801,801,801,801,801,794,781,765,738,709,643,623,603,585,570,544,533,527,525,522,514,512],"ymouse":[516,516,516,516,516,516,516,516,516,516,516,516,516,516,516,516,511,496,473,434,393,310,286,260,235,214,177,162,150,143,130,101,93],"timestamp_mouse":[8,34,49,69,90,109,128,148,169,188,208,228,248,268,288,308,328,348,368,388,408,429,448,468,488,508,528,548,569,588,608,629,649],"xSR":741.5,"ySR":458.25,"xT1":424.9,"yT1":0,"xT2":1058.1,"yT2":0,"toosoon":0,"cond_shown":"equaldotanddens","ratio_trial":250,"smaller_num":"4","larger_num":"16","correct_side":1,"subjID":"Laurasalomeguerrero9","gender":"1","age":"11","school":"6"},{"start_time":1551882941714,"click_time":1551882942760,"finger_time":1551882942081,"fix_duration":893.0721390690935,"trial":8,"RT":367,"MT":679,"sideResp":2,"stimulus":"img/500/equaldotsize/R/9_Ratio_500_L_2_R_4.png","xmouse":[789,789,789,789,789,789,789,789,789,788,788,788,788,788,788,788,795,815,866,892,917,934,948,960,961,961,961,961,961,961,961,961,963,984,998,1015,1030,1045,1069,1081,1091,1098,1104,1107,1107,1107,1107,1107,1107,1107,1107,1107,1107],"ymouse":[512,512,512,512,512,512,512,512,512,512,512,512,512,512,512,512,508,498,474,458,443,430,415,389,376,360,342,322,302,274,262,251,241,212,203,194,184,175,159,150,142,136,131,125,123,122,121,120,118,114,107,100,92],"timestamp_mouse":[9,39,47,67,86,107,126,146,166,187,206,227,247,266,286,306,326,346,367,386,406,426,446,467,487,506,526,546,566,585,606,627,646,667,686,706,727,746,767,786,806,826,846,867,887,906,926,946,966,986,1006,1026,1046],"xSR":741.5,"ySR":458.25,"xT1":424.9,"yT1":0,"xT2":1058.1,"yT2":0,"toosoon":0,"cond_shown":"equaldotsize","ratio_trial":500,"smaller_num":"2","larger_num":"4","correct_side":2,"subjID":"Laurasalomeguerrero9","gender":"1","age":"11","school":"6"},{"start_time":1551882943925,"click_time":1551882944581,"finger_time":1551882944320,"fix_duration":343.6790708721933,"trial":9,"RT":395,"MT":261,"sideResp":1,"stimulus":"img/250/equaldotsize/R/4_Ratio_250_L_3_R_12.png","xmouse":[802,799,796,795,794,793,793,793,793,791,791,791,791,791,791,791,791,789,785,776,762,746,701,681,659,639,616,571,552,532,511,497,480],"ymouse":[483,484,486,486,486,486,486,486,487,487,487,487,487,487,487,487,487,486,465,435,391,342,228,196,171,154,143,130,126,119,110,105,93],"timestamp_mouse":[20,35,55,75,95,115,135,155,174,195,215,235,256,275,296,316,335,355,375,395,415,437,456,475,495,515,535,556,574,595,615,635,656],"xSR":741.5,"ySR":458.25,"xT1":424.9,"yT1":0,"xT2":1058.1,"yT2":0,"toosoon":0,"cond_shown":"equaldotsize","ratio_trial":250,"smaller_num":"3","larger_num":"12","correct_side":2,"subjID":"Laurasalomeguerrero9","gender":"1","age":"11","school":"6"},{"start_time":1551882946743,"click_time":1551882947701,"finger_time":1551882947060,"fix_duration":1220.6431831862835,"trial":10,"RT":317,"MT":641,"sideResp":2,"stimulus":"img/250/equaldotanddens/R/9_Ratio_250_L_3_R_12.png","xmouse":[771,771,771,771,771,771,771,771,771,771,771,771,776,793,822,857,916,935,948,959,965,969,978,985,990,995,1003,1007,1014,1022,1034,1053,1061,1068,1073,1076,1079,1081,1082,1083,1083,1083,1083,1083,1084,1087,1092,1108],"ymouse":[523,523,523,523,523,523,523,523,523,523,523,523,520,503,480,451,405,392,382,373,366,360,345,334,322,313,298,291,279,265,239,206,190,177,163,153,142,138,134,133,131,131,131,131,130,121,108,85],"timestamp_mouse":[18,37,57,78,98,118,137,157,177,198,218,237,257,277,297,317,338,356,377,397,417,437,458,478,497,517,538,556,577,597,617,637,656,677,697,717,737,757,777,797,817,838,858,877,898,917,937,958],"xSR":741.5,"ySR":458.25,"xT1":424.9,"yT1":0,"xT2":1058.1,"yT2":0,"toosoon":0,"cond_shown":"equaldotanddens","ratio_trial":250,"smaller_num":"3","larger_num":"12","correct_side":2,"subjID":"Laurasalomeguerrero9","gender":"1","age":"11","school":"6"},{"start_time":1551882949363,"click_time":1551882950201,"finger_time":1551882949740,"fix_duration":822.2741605447459,"trial":11,"RT":377,"MT":461,"sideResp":2,"stimulus":"img/900/equaldotsize/R/7_Ratio_900_L_9_R_10.png","xmouse":[762,762,762,762,762,762,762,762,762,762,762,762,762,762,762,764,777,795,815,836,878,889,901,915,934,968,974,976,977,977,980,986,991,998,1005,1022,1030,1038,1046,1056,1069,1081],"ymouse":[496,496,496,496,496,496,496,496,496,496,496,496,496,496,496,495,485,468,433,395,315,292,272,250,226,194,189,187,186,186,182,176,171,165,159,144,135,127,121,113,104,98],"timestamp_mouse":[17,37,57,78,98,117,137,157,177,198,217,237,258,278,298,317,337,357,377,398,417,437,457,478,498,518,537,557,577,598,618,637,657,677,698,718,736,757,777,798,817,838],"xSR":741.5,"ySR":458.25,"xT1":424.9,"yT1":0,"xT2":1058.1,"yT2":0,"toosoon":0,"cond_shown":"equaldotsize","ratio_trial":900,"smaller_num":"9","larger_num":"10","correct_side":2,"subjID":"Laurasalomeguerrero9","gender":"1","age":"11","school":"6"},{"start_time":1551882951611,"click_time":1551882952460,"finger_time":1551882951981,"fix_duration":250,"trial":12,"RT":370,"MT":479,"sideResp":2,"stimulus":"img/500/randomdotsizeEA/R/6_Ratio_500_L_9_R_18.png","xmouse":[811,811,811,811,811,811,811,810,806,802,798,797,796,796,796,796,798,810,840,868,908,952,997,1055,1064,1067,1068,1068,1073,1078,1083,1089,1097,1101,1102,1102,1104,1106,1113,1115,1118,1120,1124],"ymouse":[470,470,470,470,470,470,470,471,475,479,482,483,484,484,484,484,484,473,436,409,373,332,279,203,192,188,188,187,180,173,166,157,147,142,141,139,135,131,117,113,107,100,92],"timestamp_mouse":[9,36,50,70,90,110,130,150,170,189,210,231,249,270,289,310,329,350,370,389,409,431,450,471,489,510,530,551,570,589,609,631,650,670,689,709,730,751,770,791,809,830,849],"xSR":741.5,"ySR":458.25,"xT1":424.9,"yT1":0,"xT2":1058.1,"yT2":0,"toosoon":0,"cond_shown":"randomdotsizeEA","ratio_trial":500,"smaller_num":"9","larger_num":"18","correct_side":2,"subjID":"Laurasalomeguerrero9","gender":"1","age":"11","school":"6"},{"start_time":1551882953792,"click_time":1551882954621,"finger_time":1551882954141,"fix_duration":250,"trial":13,"RT":349,"MT":480,"sideResp":2,"stimulus":"img/900/equaldotsize/L/10_Ratio_900_L_20_R_18.png","xmouse":[750,750,750,750,750,751,751,751,751,751,752,753,755,758,760,771,782,796,816,822,884,909,926,943,967,978,990,1001,1014,1035,1040,1044,1047,1052,1059,1063,1067,1070,1074,1077,1079,1081],"ymouse":[501,501,501,501,501,502,502,502,502,502,502,502,502,501,500,489,474,453,426,417,349,328,311,296,270,257,243,230,215,183,175,169,163,156,144,136,129,121,114,107,104,99],"timestamp_mouse":[8,36,48,69,89,109,129,150,170,188,209,228,249,269,288,308,329,349,369,389,408,428,449,469,489,509,528,549,568,590,608,628,648,668,690,708,729,749,769,789,809,829],"xSR":741.5,"ySR":458.25,"xT1":424.9,"yT1":0,"xT2":1058.1,"yT2":0,"toosoon":0,"cond_shown":"equaldotsize","ratio_trial":900,"smaller_num":"18","larger_num":"20","correct_side":1,"subjID":"Laurasalomeguerrero9","gender":"1","age":"11","school":"6"},{"start_time":1551882955833,"click_time":1551882957081,"finger_time":1551882956641,"fix_duration":250,"trial":14,"RT":808,"MT":440,"sideResp":1,"stimulus":"img/500/randomdotsizeEA/R/6_Ratio_500_L_9_R_18.png","xmouse":[759,759,759,759,759,759,759,759,759,759,759,759,759,759,759,759,759,759,762,764,764,765,765,765,765,765,765,765,765,765,765,765,765,765,765,765,765,765,765,762,755,746,737,707,687,668,648,627,595,588,588,588,588,588,588,588,588,588,588,588,588,588,494],"ymouse":[513,513,513,513,513,513,513,513,513,513,513,513,513,513,513,513,513,509,501,498,497,495,495,495,495,495,495,495,495,495,495,495,495,495,495,495,495,495,486,468,443,406,354,235,190,151,119,86,21,0,0,0,0,0,0,0,0,0,0,0,0,0,5],"timestamp_mouse":[9,29,48,67,89,107,128,149,167,187,209,227,248,267,288,308,328,348,369,387,408,429,447,468,487,507,527,548,567,589,607,627,649,669,687,707,728,749,769,787,808,828,848,867,887,908,928,948,968,987,1008,1027,1048,1067,1087,1109,1129,1148,1169,1188,1207,1227,1248],"xSR":741.5,"ySR":458.25,"xT1":424.9,"yT1":0,"xT2":1058.1,"yT2":0,"toosoon":0,"cond_shown":"randomdotsizeEA","ratio_trial":500,"smaller_num":"9","larger_num":"18","correct_side":2,"subjID":"Laurasalomeguerrero9","gender":"1","age":"11","school":"6"},{"start_time":1551882962244,"click_time":1551882963520,"finger_time":1551882962741,"fix_duration":1159.3531060803355,"trial":15,"RT":497,"MT":779,"sideResp":1,"stimulus":"img/750/equaldotanddens/L/9_Ratio_750_L_4_R_3.png","xmouse":[779,779,779,779,779,779,779,779,779,783,783,784,785,785,785,785,785,785,786,790,794,809,821,837,853,879,894,895,896,896,896,896,896,896,896,895,879,866,854,843,836,827,822,817,815,815,790,790,790,790,790,790,790,790,790,790,790,790,790,790,790,790,790,428],"ymouse":[519,519,519,519,519,519,519,519,519,516,514,513,510,509,509,509,509,509,507,505,501,489,477,463,448,402,382,381,381,381,381,381,381,381,381,381,385,389,391,391,391,380,361,315,233,149,1,1,1,1,1,1,1,1,1,1,1,1,1,1,1,1,1,2],"timestamp_mouse":[17,37,56,77,98,116,138,156,176,197,217,237,256,278,296,317,337,357,377,397,416,437,456,477,497,516,537,556,577,597,616,637,658,677,696,717,737,757,776,796,816,838,856,876,897,917,937,956,977,996,1016,1037,1057,1076,1097,1117,1136,1156,1177,1197,1217,1237,1257,1276],"xSR":741.5,"ySR":458.25,"xT1":424.9,"yT1":0,"xT2":1058.1,"yT2":0,"toosoon":0,"cond_shown":"equaldotanddens","ratio_trial":750,"smaller_num":"3","larger_num":"4","correct_side":1,"subjID":"Laurasalomeguerrero9","gender":"1","age":"11","school":"6"},{"start_time":1551882965460,"click_time":1551882966500,"finger_time":1551882965820,"fix_duration":538.1620275681122,"trial":16,"RT":360,"MT":680,"sideResp":1,"stimulus":"img/900/randomdotsizeEA/R/15_Ratio_900_L_9_R_10.png","xmouse":[778,778,778,778,778,778,778,777,777,777,777,775,774,773,773,773,773,773,769,763,762,762,762,762,762,762,762,762,762,762,762,762,761,758,752,738,721,660,641,623,608,586,581,573,563,554,546,545,544,543,538,525,516],"ymouse":[508,508,508,508,508,508,508,507,507,507,507,506,504,502,501,499,480,471,453,440,436,436,436,436,436,436,436,436,436,436,436,436,433,423,400,355,295,154,117,93,76,62,59,56,52,48,46,46,46,46,46,48,50],"timestamp_mouse":[9,20,40,61,81,102,120,140,162,181,200,222,242,260,280,302,321,342,360,380,402,421,440,460,482,501,522,540,561,580,600,621,640,661,681,700,720,742,760,781,801,821,840,860,881,901,921,941,960,982,1001,1021,1040],"xSR":741.5,"ySR":458.25,"xT1":424.9,"yT1":0,"xT2":1058.1,"yT2":0,"toosoon":0,"cond_shown":"randomdotsizeEA","ratio_trial":900,"smaller_num":"9","larger_num":"10","correct_side":2,"subjID":"Laurasalomeguerrero9","gender":"1","age":"11","school":"6"},{"start_time":1551882969076,"click_time":1551882970261,"finger_time":1551882969720,"fix_duration":1473.351072613915,"trial":17,"RT":644,"MT":541,"sideResp":2,"stimulus":"img/900/equaldotanddens/L/2_Ratio_900_L_20_R_18.png","xmouse":[782,782,782,782,782,782,782,782,782,782,782,782,782,782,782,782,782,783,792,801,808,814,815,815,816,816,816,816,816,816,816,816,819,820,827,852,879,895,911,928,972,988,998,1003,1006,1011,1012,1014,1015,1018,1028,1035,1039,1043,1045,1049,1051,1055,1057,1059],"ymouse":[480,480,480,480,480,480,480,480,480,480,480,480,480,480,480,480,480,482,480,475,472,468,467,465,464,464,464,464,464,464,464,463,458,455,444,402,361,337,314,293,242,222,209,201,197,187,183,180,175,166,144,132,122,113,108,95,87,81,75,70],"timestamp_mouse":[8,39,45,65,85,105,125,145,164,186,204,225,245,264,285,305,326,344,365,385,404,425,445,466,485,506,526,545,565,585,605,625,644,665,684,705,724,744,765,785,805,825,845,865,885,905,925,944,965,984,1005,1024,1044,1065,1085,1105,1124,1144,1166,1185],"xSR":741.5,"ySR":458.25,"xT1":424.9,"yT1":0,"xT2":1058.1,"yT2":0,"toosoon":0,"cond_shown":"equaldotanddens","ratio_trial":900,"smaller_num":"18","larger_num":"20","correct_side":1,"subjID":"Laurasalomeguerrero9","gender":"1","age":"11","school":"6"},{"start_time":1551882971644,"click_time":1551882973100,"finger_time":1551882972661,"fix_duration":460.97927030279806,"trial":18,"RT":1017,"MT":439,"sideResp":1,"stimulus":"img/750/equaldotanddens/L/10_Ratio_750_L_4_R_3.png","xmouse":[777,777,777,777,774,769,758,758,758,758,758,758,758,758,758,758,758,758,758,758,758,759,759,759,759,759,759,759,759,759,759,759,759,759,759,759,759,759,759,759,759,759,759,759,759,759,759,759,757,752,736,641,622,619,618,617,617,617,617,617,617,614,601,588,572,557,533,530,526,523,519,510,503],"ymouse":[527,527,527,527,531,537,553,556,557,557,557,557,557,557,557,557,557,557,557,553,551,543,541,540,539,539,539,539,539,539,539,539,539,539,539,539,539,539,539,539,539,539,539,539,539,539,539,537,516,487,421,245,218,213,211,211,211,211,211,211,211,208,201,192,178,162,131,126,120,117,112,100,91],"timestamp_mouse":[18,37,58,77,97,116,137,157,177,198,216,236,258,277,297,317,337,357,377,396,416,437,457,477,496,516,538,556,576,597,617,636,656,678,696,717,736,756,778,796,817,836,857,876,898,916,938,958,976,997,1017,1036,1056,1077,1097,1116,1136,1157,1178,1198,1216,1238,1256,1277,1297,1318,1337,1356,1376,1396,1417,1437,1456],"xSR":741.5,"ySR":458.25,"xT1":424.9,"yT1":0,"xT2":1058.1,"yT2":0,"toosoon":0,"cond_shown":"equaldotanddens","ratio_trial":750,"smaller_num":"3","larger_num":"4","correct_side":1,"subjID":"Laurasalomeguerrero9","gender":"1","age":"11","school":"6"},{"start_time":1551882975530,"click_time":1551882976981,"finger_time":1551882976760,"fix_duration":1328.6913049732823,"trial":19,"RT":1230,"MT":221,"sideResp":1,"stimulus":"img/900/equaldotsize/R/12_Ratio_900_L_18_R_20.png","xmouse":[796,796,796,796,796,796,796,796,796,796,796,796,796,795,794,794,793,793,793,793,793,793,793,793,793,793,793,793,793,793,793,793,793,793,793,793,793,793,793,793,793,793,793,793,793,793,793,793,793,793,793,793,793,792,791,791,790,789,789,788,785,780,776,768,759,743,722,670,640,607,572,542,491],"ymouse":[517,517,517,517,517,517,517,517,517,518,518,518,518,518,518,518,519,519,519,519,519,519,519,519,519,519,519,519,519,519,519,519,519,519,519,519,519,519,519,519,519,519,519,519,519,519,519,519,519,519,519,517,516,513,510,508,506,502,497,491,472,442,412,354,319,279,238,163,140,124,109,100,80],"timestamp_mouse":[10,36,52,71,91,110,132,151,170,191,210,232,250,271,291,311,331,351,370,390,411,430,451,471,491,511,531,552,570,591,610,632,650,671,691,710,731,750,771,790,810,831,851,872,890,911,932,950,971,991,1010,1032,1050,1072,1090,1111,1131,1151,1171,1191,1211,1230,1250,1271,1290,1312,1331,1351,1370,1390,1410,1431,1451],"xSR":741.5,"ySR":458.25,"xT1":424.9,"yT1":0,"xT2":1058.1,"yT2":0,"toosoon":0,"cond_shown":"equaldotsize","ratio_trial":900,"smaller_num":"18","larger_num":"20","correct_side":2,"subjID":"Laurasalomeguerrero9","gender":"1","age":"11","school":"6"},{"start_time":1551882993414,"click_time":1551882999420,"finger_time":1551882999221,"fix_duration":250,"trial":20,"RT":5807,"MT":199,"sideResp":1,"stimulus":"img/250/equaldotanddens/L/1_Ratio_250_L_8_R_2.png","xmouse":[798,798,798,798,798,798,798,798,798,798,798,798,798,798,798,798,798,798,798,798,798,798,798,798,798,798,798,798,798,798,798,798,798,798,798,798,798,798,798,798,798,798,798,798,798,798,798,798,798,798,798,798,798,798,798,798,798,798,798,798,798,798,798,798,798,798,798,798,798,798,797,796,795,792,789,786,783,781,778,776,774,771,767,760,756,753,750,747,746,746,746,746,746,746,746,746,746,746,746,746,746,746,746,746,746,746,746,746,746,746,746,746,746,746,746,746,746,746,746,746,746,746,746,746,746,746,746,746,747,748,748,748,748,748,748,748,748,748,748,748,748,748,748,748,748,748,748,748,748,748,748,748,748,748,748,748,748,748,748,748,748,748,748,748,748,748,748,748,748,748,748,748,748,748,748,748,748,748,748,748,748,748,748,748,748,748,748,748,748,748,748,748,748,748,748,748,748,748,748,748,748,748,748,748,748,748,748,748,748,748,748,748,748,748,748,748,748,748,748,748,748,748,748,748,748,748,748,748,751,758,760,761,762,762,762,762,762,762,760,755,752,752,752,752,752,752,752,752,752,752,752,752,752,752,752,752,752,752,752,752,752,752,752,752,752,752,752,752,752,752,752,752,752,752,752,752,752,752,752,752,752,752,752,752,752,752,752,752,752,752,752,747,744,729,723,713,699,656,551,527,510],"ymouse":[520,520,520,520,520,520,520,520,520,520,520,520,520,520,520,520,520,520,520,520,520,520,520,520,520,520,520,520,520,520,520,520,520,520,520,520,520,520,520,520,520,520,520,520,520,520,520,520,520,520,520,520,520,520,520,520,520,520,520,520,520,520,520,520,520,520,520,520,520,520,520,520,520,521,522,523,523,524,525,525,525,525,525,524,524,523,522,521,520,520,520,520,520,520,520,520,520,520,520,520,520,520,520,520,520,520,520,520,520,520,520,520,520,520,520,520,520,520,520,520,520,520,520,520,520,520,520,520,520,520,520,520,520,520,520,520,520,520,520,520,520,520,520,520,520,520,520,520,520,520,520,520,520,520,520,520,520,520,520,520,520,520,520,520,520,520,520,520,520,520,520,520,520,520,520,520,520,520,520,520,520,520,520,520,520,520,520,520,520,520,520,520,520,520,520,520,520,520,520,520,520,520,520,520,520,520,520,520,520,520,520,520,520,520,520,520,520,520,520,520,520,520,520,520,520,520,520,520,517,511,510,510,510,510,510,510,510,510,510,511,511,511,511,511,511,511,511,511,511,511,511,511,511,511,511,511,511,511,511,511,511,511,511,511,511,511,511,511,511,511,511,511,511,511,511,511,511,511,507,501,497,493,492,492,492,492,492,492,490,477,457,431,407,361,339,318,292,220,119,102,90],"timestamp_mouse":[8,27,47,67,86,108,126,146,168,187,207,226,248,267,286,308,327,347,366,388,406,426,447,466,488,506,526,546,567,586,608,626,646,666,688,706,728,746,767,786,808,826,848,866,887,906,926,947,967,987,1006,1028,1047,1067,1087,1106,1128,1146,1166,1186,1207,1227,1247,1267,1287,1307,1326,1347,1367,1387,1407,1428,1447,1467,1487,1507,1527,1547,1567,1586,1606,1627,1646,1667,1687,1707,1726,1747,1767,1787,1807,1828,1848,1868,1887,1906,1927,1946,1967,1986,2007,2027,2046,2068,2086,2107,2127,2146,2167,2188,2207,2226,2246,2267,2287,2307,2326,2348,2367,2388,2406,2426,2447,2468,2486,2506,2528,2546,2566,2588,2608,2628,2647,2668,2688,2707,2727,2748,2767,2788,2807,2828,2848,2867,2888,2908,2928,2947,2967,2988,3008,3027,3047,3067,3088,3108,3128,3146,3167,3188,3208,3227,3248,3267,3288,3306,3328,3346,3367,3387,3408,3426,3447,3467,3486,3506,3528,3546,3567,3588,3607,3628,3646,3667,3687,3707,3727,3747,3766,3788,3806,3826,3848,3866,3888,3907,3928,3948,3967,3987,4006,4028,4048,4066,4088,4107,4128,4148,4166,4187,4206,4227,4247,4267,4287,4308,4328,4346,4368,4387,4406,4427,4447,4468,4487,4508,4528,4548,4567,4587,4607,4627,4646,4668,4687,4707,4728,4748,4767,4787,4807,4827,4848,4866,4887,4907,4928,4947,4968,4986,5008,5027,5046,5068,5088,5106,5128,5146,5166,5188,5206,5228,5247,5267,5288,5308,5326,5346,5368,5387,5407,5428,5447,5468,5487,5508,5526,5546,5567,5587,5607,5627,5646,5668,5686,5707,5727,5746,5767,5787,5807,5827,5846,5866,5886,5907,5927,5946,5967,5986,6006],"xSR":741.5,"ySR":458.25,"xT1":424.9,"yT1":0,"xT2":1058.1,"yT2":0,"toosoon":0,"cond_shown":"equaldotanddens","ratio_trial":250,"smaller_num":"2","larger_num":"8","correct_side":1,"subjID":"Laurasalomeguerrero9","gender":"1","age":"11","school":"6"},{"start_time":1551883000994,"click_time":1551883001881,"finger_time":1551883001641,"fix_duration":250,"trial":21,"RT":647,"MT":240,"sideResp":1,"stimulus":"img/900/equaldotanddens/L/10_Ratio_900_L_20_R_18.png","xmouse":[787,787,787,787,787,787,787,787,787,787,787,787,787,787,787,788,788,788,787,787,787,787,787,787,787,786,785,785,785,784,784,783,780,776,775,779,789,799,810,823,817,789,736,632,456],"ymouse":[524,524,524,524,524,524,524,524,524,524,524,524,524,524,524,523,523,521,520,519,519,519,519,519,519,519,518,518,517,504,488,466,439,411,364,349,333,320,301,242,211,174,134,96,47],"timestamp_mouse":[10,36,47,68,87,108,128,148,167,187,206,227,246,266,288,306,326,347,366,386,407,428,446,466,488,507,526,547,566,587,607,627,647,667,687,706,726,747,767,787,806,826,846,866,886],"xSR":741.5,"ySR":458.25,"xT1":424.9,"yT1":0,"xT2":1058.1,"yT2":0,"toosoon":0,"cond_shown":"equaldotanddens","ratio_trial":900,"smaller_num":"18","larger_num":"20","correct_side":1,"subjID":"Laurasalomeguerrero9","gender":"1","age":"11","school":"6"},{"start_time":1551883004533,"click_time":1551883005181,"finger_time":1551883004781,"fix_duration":250,"trial":22,"RT":248,"MT":400,"sideResp":1,"stimulus":"img/750/equaldotanddens/L/6_Ratio_750_L_24_R_18.png","xmouse":[789,789,789,786,785,784,783,782,780,776,768,758,708,687,667,654,646,632,622,610,599,591,585,585,585,585,585,580,576,570,559,535,494],"ymouse":[502,502,502,502,502,502,502,502,502,502,489,467,327,264,216,182,158,116,96,75,59,45,32,32,32,32,32,32,32,32,34,35,35],"timestamp_mouse":[8,43,48,68,87,109,128,147,168,187,208,228,248,267,287,309,328,348,368,388,408,428,448,468,488,508,529,548,568,589,608,628,648],"xSR":741.5,"ySR":458.25,"xT1":424.9,"yT1":0,"xT2":1058.1,"yT2":0,"toosoon":0,"cond_shown":"equaldotanddens","ratio_trial":750,"smaller_num":"18","larger_num":"24","correct_side":1,"subjID":"Laurasalomeguerrero9","gender":"1","age":"11","school":"6"},{"start_time":1551883007163,"click_time":1551883007781,"finger_time":1551883007561,"fix_duration":1061.7414902377002,"trial":23,"RT":398,"MT":220,"sideResp":1,"stimulus":"img/500/equaldotanddens/L/13_Ratio_500_L_12_R_6.png","xmouse":[771,768,768,768,771,778,782,784,786,787,793,795,796,796,796,796,792,787,776,764,722,677,662,647,631,597,582,563,544,527,499],"ymouse":[507,530,530,544,544,539,536,534,533,533,528,524,520,516,513,506,501,494,478,456,386,293,255,220,187,131,110,89,68,50,22],"timestamp_mouse":[18,51,58,78,97,118,138,158,177,198,218,239,258,277,298,318,338,358,377,398,418,439,458,479,497,518,537,558,578,598,618],"xSR":741.5,"ySR":458.25,"xT1":424.9,"yT1":0,"xT2":1058.1,"yT2":0,"toosoon":0,"cond_shown":"equaldotanddens","ratio_trial":500,"smaller_num":"6","larger_num":"12","correct_side":1,"subjID":"Laurasalomeguerrero9","gender":"1","age":"11","school":"6"},{"start_time":1551883009923,"click_time":1551883011781,"finger_time":1551883011421,"fix_duration":1160.3097457773263,"trial":24,"RT":1498,"MT":360,"sideResp":1,"stimulus":"img/900/randomdotsizeEA/L/8_Ratio_900_L_20_R_18.png","xmouse":[776,776,775,775,774,774,774,773,773,773,773,773,773,773,773,773,773,773,773,773,773,773,773,773,773,773,773,773,773,773,773,773,773,773,773,773,773,773,773,773,773,773,773,773,773,773,773,773,773,773,773,773,773,773,773,773,773,773,773,773,773,773,773,773,773,773,773,773,773,773,773,773,773,769,761,738,714,679,658,641,624,606,560,543,530,523,521,521,521,520,517,513,508],"ymouse":[508,508,507,506,504,503,502,502,502,502,502,502,502,502,502,502,502,502,502,502,502,502,502,502,502,502,502,502,502,502,502,502,502,502,502,502,502,502,502,502,502,502,502,502,502,502,502,502,502,502,502,502,502,502,502,502,502,502,502,502,502,502,502,502,502,502,502,502,502,502,502,502,502,485,456,414,378,343,333,327,323,320,306,292,272,252,237,209,192,169,145,122,91],"timestamp_mouse":[18,39,59,78,97,117,137,158,179,198,218,239,259,279,299,319,338,359,378,398,417,439,458,479,497,518,538,558,579,597,617,639,658,679,698,718,739,760,777,798,818,839,858,878,898,918,937,958,978,997,1019,1038,1057,1078,1097,1118,1138,1158,1178,1198,1217,1238,1259,1278,1299,1317,1339,1357,1379,1397,1418,1438,1457,1479,1498,1519,1538,1559,1578,1598,1618,1637,1658,1677,1697,1717,1738,1757,1778,1798,1817,1839,1857],"xSR":741.5,"ySR":458.25,"xT1":424.9,"yT1":0,"xT2":1058.1,"yT2":0,"toosoon":0,"cond_shown":"randomdotsizeEA","ratio_trial":900,"smaller_num":"18","larger_num":"20","correct_side":1,"subjID":"Laurasalomeguerrero9","gender":"1","age":"11","school":"6"},{"start_time":1551883039443,"click_time":1551883040362,"finger_time":1551883039880,"fix_duration":1180.1456322606914,"trial":25,"RT":437,"MT":482,"sideResp":1,"stimulus":"img/500/randomdotsizeEA/L/5_Ratio_500_L_4_R_2.png","xmouse":[763,763,763,763,763,763,763,763,759,757,756,756,756,756,756,755,755,756,756,755,752,731,706,662,619,575,508,493,479,468,460,440,428,419,416,412,412,412,412,412,412,418,423,431,444,463],"ymouse":[512,512,512,512,512,512,512,512,512,512,512,512,512,512,512,512,504,498,493,490,484,462,443,412,384,354,308,294,278,261,244,200,173,149,133,123,120,120,120,119,117,113,112,107,100,89],"timestamp_mouse":[17,37,59,78,97,118,138,158,177,198,219,239,258,278,298,317,337,359,377,399,417,437,457,477,497,517,537,558,578,598,617,637,657,678,697,718,738,758,778,797,817,837,858,877,897,919],"xSR":741.5,"ySR":458.25,"xT1":424.9,"yT1":0,"xT2":1058.1,"yT2":0,"toosoon":0,"cond_shown":"randomdotsizeEA","ratio_trial":500,"smaller_num":"2","larger_num":"4","correct_side":1,"subjID":"Laurasalomeguerrero9","gender":"1","age":"11","school":"6"},{"start_time":1551883041738,"click_time":1551883042500,"finger_time":1551883042081,"fix_duration":256.1924714868525,"trial":26,"RT":343,"MT":419,"sideResp":1,"stimulus":"img/750/equaldotanddens/R/7_Ratio_750_L_3_R_4.png","xmouse":[781,781,781,779,775,770,767,766,766,766,766,766,766,766,766,762,754,729,706,679,662,650,641,637,631,621,608,598,597,595,592,583,547,534,524,513,501,486,476],"ymouse":[529,529,529,529,532,536,540,542,542,542,542,542,540,534,525,511,495,444,408,370,345,324,286,275,266,255,242,230,229,227,224,216,175,156,138,124,112,103,96],"timestamp_mouse":[9,23,43,63,82,103,123,142,164,183,202,222,243,263,283,302,323,343,362,383,403,422,442,462,483,503,522,542,563,582,602,624,643,664,683,702,722,742,762],"xSR":741.5,"ySR":458.25,"xT1":424.9,"yT1":0,"xT2":1058.1,"yT2":0,"toosoon":0,"cond_shown":"equaldotanddens","ratio_trial":750,"smaller_num":"3","larger_num":"4","correct_side":2,"subjID":"Laurasalomeguerrero9","gender":"1","age":"11","school":"6"},{"start_time":1551883043607,"click_time":1551883044420,"finger_time":1551883043980,"fix_duration":384.1859646525637,"trial":27,"RT":373,"MT":440,"sideResp":2,"stimulus":"img/900/equaldotsize/R/11_Ratio_900_L_18_R_20.png","xmouse":[791,792,792,792,792,792,792,792,792,792,792,792,796,799,800,800,801,805,837,865,895,924,955,1012,1033,1045,1055,1064,1086,1095,1101,1104,1105,1105,1105,1105,1105,1105,1107,1110,1116],"ymouse":[530,530,530,530,530,530,530,530,530,530,530,530,525,519,515,512,506,497,455,433,415,397,375,311,274,247,225,206,181,175,170,168,166,164,164,164,163,160,131,101,65],"timestamp_mouse":[13,40,53,74,93,113,134,155,173,195,214,233,254,274,294,313,333,355,373,393,414,434,453,473,493,514,534,553,573,594,614,633,653,673,694,714,734,755,773,793,813],"xSR":741.5,"ySR":458.25,"xT1":424.9,"yT1":0,"xT2":1058.1,"yT2":0,"toosoon":0,"cond_shown":"equaldotsize","ratio_trial":900,"smaller_num":"18","larger_num":"20","correct_side":2,"subjID":"Laurasalomeguerrero9","gender":"1","age":"11","school":"6"},{"start_time":1551883046494,"click_time":1551883047100,"finger_time":1551883046922,"fix_duration":1211.5322907402222,"trial":28,"RT":428,"MT":178,"sideResp":1,"stimulus":"img/500/equaldotsize/R/1_Ratio_500_L_9_R_18.png","xmouse":[793,793,793,793,793,793,793,793,793,793,793,793,793,792,792,792,792,792,792,791,791,795,796,796,751,720,690,652,614,539,498],"ymouse":[495,495,495,495,495,495,495,495,495,495,495,495,496,496,496,496,496,496,496,496,477,451,418,384,292,257,224,191,164,102,68],"timestamp_mouse":[8,34,47,68,87,108,127,147,167,186,208,228,247,267,288,308,327,346,367,386,407,428,447,466,487,508,526,546,567,587,606],"xSR":741.5,"ySR":458.25,"xT1":424.9,"yT1":0,"xT2":1058.1,"yT2":0,"toosoon":0,"cond_shown":"equaldotsize","ratio_trial":500,"smaller_num":"9","larger_num":"18","correct_side":2,"subjID":"Laurasalomeguerrero9","gender":"1","age":"11","school":"6"},{"start_time":1551883049625,"click_time":1551883050281,"finger_time":1551883049781,"fix_duration":1283.265768787834,"trial":29,"RT":156,"MT":500,"sideResp":1,"stimulus":"img/500/randomdotsizeEA/R/6_Ratio_500_L_9_R_18.png","xmouse":[775,774,775,775,775,772,764,739,733,731,731,733,735,735,735,735,736,734,710,689,667,656,636,631,624,620,617,601,590,575,560,546,521],"ymouse":[523,523,517,514,511,509,508,512,518,524,528,532,532,532,532,532,532,523,482,445,408,367,314,294,276,259,248,199,168,133,109,92,74],"timestamp_mouse":[15,39,55,76,97,115,136,156,175,196,215,235,257,275,296,317,337,356,375,396,415,435,456,475,496,516,536,556,575,596,616,635,656],"xSR":741.5,"ySR":458.25,"xT1":424.9,"yT1":0,"xT2":1058.1,"yT2":0,"toosoon":0,"cond_shown":"randomdotsizeEA","ratio_trial":500,"smaller_num":"9","larger_num":"18","correct_side":2,"subjID":"Laurasalomeguerrero9","gender":"1","age":"11","school":"6"},{"start_time":1551883052570,"click_time":1551883053842,"finger_time":1551883053160,"fix_duration":1388.4943080434136,"trial":30,"RT":590,"MT":682,"sideResp":2,"stimulus":"img/250/equaldotsize/L/15_Ratio_250_L_12_R_3.png","xmouse":[771,771,771,765,753,746,745,745,745,745,745,745,744,744,744,744,744,744,744,744,744,744,748,762,778,810,819,823,827,832,850,856,862,870,880,906,919,933,948,959,973,980,987,997,1007,1029,1035,1041,1042,1043,1044,1047,1052,1056,1059,1064,1068,1070,1072,1073,1076,1078,1084,1095],"ymouse":[532,532,530,529,526,525,525,525,525,525,525,525,524,523,523,523,523,523,523,523,523,523,522,517,508,483,474,469,459,448,409,394,379,366,352,316,297,277,258,242,224,217,208,201,195,181,177,174,173,172,171,168,165,161,158,152,144,140,137,136,130,124,114,97],"timestamp_mouse":[10,42,50,71,91,110,131,150,171,192,210,231,252,270,291,311,332,351,371,392,410,432,451,470,491,511,530,551,570,590,610,630,650,671,690,711,731,750,770,791,811,830,851,870,890,911,931,951,972,991,1010,1030,1050,1072,1091,1111,1130,1151,1170,1191,1211,1231,1250,1272],"xSR":741.5,"ySR":458.25,"xT1":424.9,"yT1":0,"xT2":1058.1,"yT2":0,"toosoon":0,"cond_shown":"equaldotsize","ratio_trial":250,"smaller_num":"3","larger_num":"12","correct_side":1,"subjID":"Laurasalomeguerrero9","gender":"1","age":"11","school":"6"},{"start_time":1551883058253,"click_time":1551883083281,"finger_time":1551883081621,"fix_duration":250,"trial":31,"RT":23368,"MT":1660,"sideResp":1,"stimulus":"img/500/equaldotanddens/L/11_Ratio_500_L_12_R_6.png","xmouse":[755,755,755,755,755,755,755,755,755,755,755,755,755,755,755,755,755,755,755,755,755,755,755,755,755,755,755,755,755,755,755,755,755,755,755,755,755,755,755,755,755,755,755,755,755,755,755,755,755,755,755,755,755,755,755,755,755,755,755,755,755,755,755,755,755,755,755,755,755,755,755,755,755,755,755,755,755,755,755,755,755,755,755,755,755,755,755,755,755,755,755,755,755,755,755,755,755,755,755,755,755,755,755,755,755,755,755,755,755,755,755,755,755,755,755,755,755,755,755,755,755,755,755,755,755,755,755,755,755,755,755,755,755,755,755,755,755,755,755,755,755,755,755,755,755,755,755,755,755,755,755,755,755,755,755,755,755,755,755,755,755,755,755,755,755,755,755,755,755,755,755,755,755,755,755,755,755,755,755,755,755,755,755,755,755,755,755,755,755,755,755,755,755,755,755,755,755,755,755,755,755,755,755,755,755,755,755,755,755,755,755,755,755,755,755,755,755,755,755,755,755,755,755,755,755,755,755,755,755,755,755,755,755,755,755,755,755,755,755,755,755,755,755,755,755,755,755,755,755,755,755,755,755,755,755,755,755,755,755,755,755,755,755,755,755,755,755,755,755,755,755,755,755,755,755,755,755,755,755,755,755,755,755,755,755,755,755,755,755,755,755,755,755,755,755,755,755,755,755,755,755,755,755,755,755,755,755,755,755,755,755,755,755,755,755,755,755,755,755,755,755,755,755,755,755,755,755,755,755,755,755,755,755,755,755,755,755,755,755,755,755,755,755,755,755,755,755,755,755,755,755,755,755,755,755,755,755,755,755,755,755,755,755,755,755,755,755,755,755,755,755,755,755,755,755,755,755,755,755,755,755,755,755,755,755,755,755,755,755,755,755,755,755,755,755,755,755,755,755,755,755,755,755,755,755,755,755,755,755,755,755,755,755,755,755,755,755,755,755,755,755,755,755,755,755,755,755,755,755,755,755,755,755,755,755,755,755,755,755,755,755,755,755,755,755,755,755,755,755,755,755,755,755,755,755,755,755,755,755,755,755,755,755,755,755,755,755,755,755,755,755,755,755,755,755,755,755,755,755,755,755,755,755,755,755,755,755,755,755,755,755,755,755,755,755,755,755,755,755,755,755,755,755,755,755,755,755,755,755,755,755,755,755,755,755,755,755,755,755,755,755,755,755,755,755,755,755,755,755,755,755,755,755,755,755,755,755,755,755,755,755,755,755,755,755,755,755,755,755,755,755,755,755,755,755,755,755,755,755,755,755,755,755,755,755,755,755,755,755,755,755,755,755,755,755,755,755,755,755,755,755,755,755,755,755,755,755,755,755,755,755,755,755,755,755,755,755,755,755,755,755,755,755,755,755,755,755,755,755,755,755,755,755,755,755,755,755,755,755,755,755,755,755,755,755,755,755,755,755,755,755,755,755,755,755,755,755,755,755,755,755,755,755,755,755,755,755,755,755,755,755,755,755,755,755,755,755,755,755,755,755,755,755,755,755,755,755,755,755,755,755,755,755,755,755,755,755,755,755,755,755,755,755,755,755,755,755,755,755,755,755,755,755,755,755,755,755,755,755,755,755,755,755,755,755,755,755,755,755,755,755,755,755,755,755,755,755,755,755,755,755,755,755,755,755,755,755,755,755,755,755,755,755,755,755,755,755,755,755,755,755,755,755,755,755,755,755,755,755,755,755,755,755,755,755,755,755,755,755,755,755,755,755,755,755,755,755,755,755,755,755,755,755,755,755,755,755,755,755,755,755,755,755,755,755,755,755,755,755,755,755,755,755,755,755,755,755,755,755,755,755,755,755,755,755,755,755,755,755,755,755,755,755,755,755,755,755,755,755,755,755,755,755,755,755,755,755,755,755,755,755,755,755,755,755,755,755,755,755,755,755,755,755,755,755,755,755,755,755,755,755,755,755,755,755,755,755,755,755,755,755,755,755,755,755,755,755,755,755,755,755,755,755,755,755,755,755,755,755,755,755,755,755,755,755,755,755,755,755,755,755,755,755,755,755,755,755,755,755,755,755,755,755,755,755,755,755,755,755,755,755,755,755,755,755,755,755,755,755,755,755,755,755,755,755,755,755,755,755,755,755,755,755,755,755,755,755,755,755,755,755,755,755,755,755,755,755,755,755,755,755,755,755,755,755,755,755,755,755,755,755,755,755,755,755,755,755,755,755,755,755,755,755,755,755,755,755,755,755,755,755,755,755,755,755,755,755,755,755,755,755,755,755,755,755,755,755,755,755,755,755,755,755,755,755,755,755,755,755,755,755,755,755,755,755,755,755,755,755,755,755,755,755,755,755,755,755,755,755,755,755,755,755,755,755,755,755,755,755,755,755,755,755,755,755,755,755,755,755,755,755,755,755,755,755,755,755,755,755,755,755,755,755,755,755,755,755,755,755,755,755,755,755,755,755,755,755,755,755,755,755,755,755,755,755,755,755,755,755,755,755,755,755,755,755,755,755,755,755,755,755,755,755,755,755,755,755,755,755,755,755,755,755,755,755,755,755,755,755,755,755,755,755,755,755,755,755,755,755,755,755,755,755,755,755,755,755,755,755,755,755,755,755,755,755,755,755,755,755,755,755,755,755,755,755,755,755,755,755,755,755,755,755,755,755,755,755,775,886,1075,1245,1337,1379,1377,1369,1367,1360,1342,1316,1309,1303,1302,1302,1302,1300,1298,1296,1296,1296,1296,1296,1296,1296,1296,1296,1296,1296,1296,1296,1296,1296,1296,1296,1296,1296,1296,1296,1296,1296,11,12,12,16,17,21,33,52,79,94,105,113,115,115,115,117,122,141,166,208,258,299,350,372,387,390,390,380,378,377,376,376,376,377,378,380,382,393,399,404,410,415,436],"ymouse":[487,487,487,487,487,487,487,487,487,487,487,487,487,487,487,487,487,487,487,487,487,487,487,487,487,487,487,487,487,487,487,487,487,487,487,487,487,487,487,487,487,487,487,487,487,487,487,487,487,487,487,487,487,487,487,487,487,487,487,487,487,487,487,487,487,487,487,487,487,487,487,487,487,487,487,487,487,487,487,487,487,487,487,487,487,487,487,487,487,487,487,487,487,487,487,487,487,487,487,487,487,487,487,487,487,487,487,487,487,487,487,487,487,487,487,487,487,487,487,487,487,487,487,487,487,487,487,487,487,487,487,487,487,487,487,487,487,487,487,487,487,487,487,487,487,487,487,487,487,487,487,487,487,487,487,487,487,487,487,487,487,487,487,487,487,487,487,487,487,487,487,487,487,487,487,487,487,487,487,487,487,487,487,487,487,487,487,487,487,487,487,487,487,487,487,487,487,487,487,487,487,487,487,487,487,487,487,487,487,487,487,487,487,487,487,487,487,487,487,487,487,487,487,487,487,487,487,487,487,487,487,487,487,487,487,487,487,487,487,487,487,487,487,487,487,487,487,487,487,487,487,487,487,487,487,487,487,487,487,487,487,487,487,487,487,487,487,487,487,487,487,487,487,487,487,487,487,487,487,487,487,487,487,487,487,487,487,487,487,487,487,487,487,487,487,487,487,487,487,487,487,487,487,487,487,487,487,487,487,487,487,487,487,487,487,487,487,487,487,487,487,487,487,487,487,487,487,487,487,487,487,487,487,487,487,487,487,487,487,487,487,487,487,487,487,487,487,487,487,487,487,487,487,487,487,487,487,487,487,487,487,487,487,487,487,487,487,487,487,487,487,487,487,487,487,487,487,487,487,487,487,487,487,487,487,487,487,487,487,487,487,487,487,487,487,487,487,487,487,487,487,487,487,487,487,487,487,487,487,487,487,487,487,487,487,487,487,487,487,487,487,487,487,487,487,487,487,487,487,487,487,487,487,487,487,487,487,487,487,487,487,487,487,487,487,487,487,487,487,487,487,487,487,487,487,487,487,487,487,487,487,487,487,487,487,487,487,487,487,487,487,487,487,487,487,487,487,487,487,487,487,487,487,487,487,487,487,487,487,487,487,487,487,487,487,487,487,487,487,487,487,487,487,487,487,487,487,487,487,487,487,487,487,487,487,487,487,487,487,487,487,487,487,487,487,487,487,487,487,487,487,487,487,487,487,487,487,487,487,487,487,487,487,487,487,487,487,487,487,487,487,487,487,487,487,487,487,487,487,487,487,487,487,487,487,487,487,487,487,487,487,487,487,487,487,487,487,487,487,487,487,487,487,487,487,487,487,487,487,487,487,487,487,487,487,487,487,487,487,487,487,487,487,487,487,487,487,487,487,487,487,487,487,487,487,487,487,487,487,487,487,487,487,487,487,487,487,487,487,487,487,487,487,487,487,487,487,487,487,487,487,487,487,487,487,487,487,487,487,487,487,487,487,487,487,487,487,487,487,487,487,487,487,487,487,487,487,487,487,487,487,487,487,487,487,487,487,487,487,487,487,487,487,487,487,487,487,487,487,487,487,487,487,487,487,487,487,487,487,487,487,487,487,487,487,487,487,487,487,487,487,487,487,487,487,487,487,487,487,487,487,487,487,487,487,487,487,487,487,487,487,487,487,487,487,487,487,487,487,487,487,487,487,487,487,487,487,487,487,487,487,487,487,487,487,487,487,487,487,487,487,487,487,487,487,487,487,487,487,487,487,487,487,487,487,487,487,487,487,487,487,487,487,487,487,487,487,487,487,487,487,487,487,487,487,487,487,487,487,487,487,487,487,487,487,487,487,487,487,487,487,487,487,487,487,487,487,487,487,487,487,487,487,487,487,487,487,487,487,487,487,487,487,487,487,487,487,487,487,487,487,487,487,487,487,487,487,487,487,487,487,487,487,487,487,487,487,487,487,487,487,487,487,487,487,487,487,487,487,487,487,487,487,487,487,487,487,487,487,487,487,487,487,487,487,487,487,487,487,487,487,487,487,487,487,487,487,487,487,487,487,487,487,487,487,487,487,487,487,487,487,487,487,487,487,487,487,487,487,487,487,487,487,487,487,487,487,487,487,487,487,487,487,487,487,487,487,487,487,487,487,487,487,487,487,487,487,487,487,487,487,487,487,487,487,487,487,487,487,487,487,487,487,487,487,487,487,487,487,487,487,487,487,487,487,487,487,487,487,487,487,487,487,487,487,487,487,487,487,487,487,487,487,487,487,487,487,487,487,487,487,487,487,487,487,487,487,487,487,487,487,487,487,487,487,487,487,487,487,487,487,487,487,487,487,487,487,487,487,487,487,487,487,487,487,487,487,487,487,487,487,487,487,487,487,487,487,487,487,487,487,487,487,487,487,487,487,487,487,487,487,487,487,487,487,487,487,487,487,487,487,487,487,487,487,487,487,487,487,487,487,487,487,487,487,487,487,487,487,487,487,487,487,487,487,487,487,487,487,487,487,487,487,487,487,487,487,487,487,487,487,487,487,487,487,487,487,487,487,487,487,487,487,487,487,487,487,487,487,487,487,487,487,487,487,487,487,487,487,487,487,487,487,487,487,487,487,487,487,487,487,487,487,487,487,487,487,487,487,487,487,487,487,487,487,487,487,491,490,431,316,178,110,109,107,107,107,107,113,118,121,122,122,122,115,91,9,9,9,9,9,9,9,9,9,9,9,9,9,9,9,9,9,9,9,9,9,9,9,9,37,78,118,119,119,106,78,46,38,33,30,30,30,30,28,28,27,27,27,27,27,32,45,56,59,59,64,64,64,64,64,62,61,61,60,60,60,60,60,60,61,77],"timestamp_mouse":[8,36,48,69,88,109,128,147,169,187,209,227,247,267,288,308,328,348,368,387,407,427,449,468,488,509,527,549,569,588,607,628,648,668,687,708,727,749,768,787,807,829,848,867,888,908,927,949,968,987,1007,1028,1047,1067,1087,1108,1127,1148,1169,1188,1208,1229,1247,1267,1287,1307,1329,1348,1367,1387,1408,1428,1448,1467,1489,1507,1528,1547,1568,1587,1609,1627,1647,1667,1689,1707,1729,1748,1769,1787,1808,1829,1847,1867,1889,1907,1929,1947,1968,1988,2008,2028,2048,2067,2089,2108,2128,2148,2167,2189,2209,2227,2248,2268,2289,2307,2329,2348,2369,2389,2409,2429,2448,2469,2488,2507,2529,2549,2568,2589,2608,2629,2647,2669,2688,2709,2727,2749,2768,2787,2809,2828,2848,2869,2887,2907,2929,2947,2969,2988,3007,3029,3048,3067,3089,3107,3128,3149,3167,3189,3207,3229,3247,3269,3287,3309,3327,3348,3369,3387,3408,3428,3449,3469,3489,3508,3528,3549,3568,3587,3608,3629,3648,3669,3688,3707,3728,3747,3769,3788,3807,3829,3848,3868,3887,3909,3927,3948,3969,3988,4007,4029,4047,4067,4088,4107,4127,4148,4169,4188,4209,4229,4247,4268,4289,4307,4328,4349,4368,4387,4408,4427,4449,4469,4489,4508,4528,4548,4568,4587,4609,4627,4649,4667,4687,4709,4727,4749,4768,4787,4808,4828,4849,4869,4887,4907,4928,4947,4967,4987,5009,5027,5049,5067,5087,5108,5127,5148,5167,5189,5207,5229,5249,5267,5287,5309,5327,5349,5368,5388,5408,5429,5447,5468,5489,5507,5529,5548,5569,5587,5607,5629,5648,5667,5688,5707,5729,5749,5767,5788,5807,5828,5849,5867,5888,5908,5927,5948,5967,5987,6008,6027,6049,6067,6087,6107,6128,6149,6168,6188,6209,6228,6248,6267,6287,6309,6328,6348,6368,6387,6407,6428,6447,6469,6488,6508,6529,6548,6568,6587,6609,6629,6648,6668,6689,6709,6727,6749,6767,6788,6807,6828,6847,6868,6888,6909,6927,6947,6969,6987,7008,7029,7047,7067,7087,7107,7128,7147,7167,7188,7207,7228,7249,7268,7289,7307,7328,7348,7367,7388,7407,7429,7447,7469,7488,7507,7528,7547,7567,7587,7608,7628,7649,7668,7687,7708,7729,7749,7767,7787,7808,7829,7847,7869,7888,7907,7928,7949,7969,7987,8008,8028,8049,8068,8087,8108,8127,8148,8167,8188,8208,8228,8249,8267,8287,8308,8327,8349,8367,8387,8408,8427,8447,8468,8487,8508,8528,8549,8567,8587,8607,8627,8648,8669,8689,8707,8729,8747,8769,8787,8809,8828,8847,8868,8888,8907,8929,8947,8969,8988,9007,9029,9048,9068,9088,9108,9129,9147,9167,9188,9208,9227,9248,9267,9288,9309,9327,9349,9368,9387,9408,9428,9448,9467,9489,9507,9528,9547,9569,9587,9607,9629,9648,9669,9688,9708,9727,9749,9768,9788,9807,9829,9848,9867,9888,9908,9928,9947,9968,9987,10007,10028,10048,10068,10088,10108,10129,10148,10168,10189,10208,10229,10247,10267,10287,10307,10329,10348,10368,10388,10408,10429,10448,10467,10487,10507,10529,10548,10567,10588,10608,10627,10647,10667,10687,10707,10727,10749,10768,10788,10807,10829,10847,10867,10889,10907,10927,10949,10968,10988,11007,11028,11047,11067,11087,11108,11128,11148,11168,11187,11209,11227,11249,11267,11289,11309,11329,11349,11368,11388,11409,11427,11447,11469,11487,11508,11529,11549,11567,11588,11608,11628,11648,11669,11689,11707,11729,11747,11767,11788,11808,11828,11848,11867,11888,11907,11927,11947,11969,11987,12007,12028,12048,12067,12089,12107,12129,12148,12169,12187,12208,12227,12248,12269,12288,12308,12329,12348,12369,12389,12407,12429,12447,12468,12487,12509,12529,12549,12567,12588,12608,12629,12648,12669,12689,12708,12728,12749,12767,12789,12809,12828,12848,12868,12889,12909,12927,12948,12969,12987,13009,13029,13047,13068,13089,13107,13128,13149,13169,13187,13209,13227,13248,13269,13287,13307,13328,13349,13367,13387,13409,13429,13448,13467,13487,13508,13529,13548,13568,13589,13607,13628,13648,13667,13688,13708,13728,13748,13769,13788,13807,13828,13848,13868,13888,13908,13928,13948,13968,13987,14009,14028,14049,14067,14087,14108,14127,14149,14167,14187,14208,14228,14249,14267,14287,14309,14327,14348,14369,14387,14407,14428,14447,14468,14488,14507,14528,14548,14567,14587,14607,14628,14648,14668,14687,14708,14728,14747,14768,14789,14807,14827,14847,14869,14888,14908,14928,14949,14968,14989,15007,15028,15049,15067,15089,15108,15127,15149,15168,15187,15208,15227,15249,15268,15289,15307,15329,15349,15367,15387,15408,15428,15448,15468,15487,15508,15527,15548,15569,15589,15608,15628,15648,15667,15687,15707,15728,15747,15767,15788,15807,15828,15849,15869,15888,15908,15927,15948,15967,15988,16008,16027,16049,16067,16087,16109,16127,16148,16168,16187,16208,16229,16247,16268,16289,16308,16327,16349,16369,16389,16408,16427,16448,16468,16487,16508,16528,16549,16567,16588,16609,16627,16648,16669,16688,16707,16727,16748,16769,16789,16808,16828,16848,16869,16888,16908,16929,16947,16968,16987,17008,17028,17048,17068,17089,17108,17128,17147,17168,17188,17207,17228,17249,17269,17289,17308,17327,17347,17368,17387,17408,17429,17449,17469,17487,17508,17529,17547,17567,17588,17608,17628,17647,17667,17689,17708,17729,17747,17769,17788,17809,17828,17848,17868,17887,17909,17927,17947,17969,17987,18008,18028,18049,18067,18088,18108,18127,18148,18167,18189,18209,18229,18248,18267,18289,18309,18327,18348,18368,18388,18407,18428,18448,18469,18487,18509,18527,18549,18567,18587,18608,18627,18649,18667,18687,18707,18728,18748,18767,18787,18809,18827,18848,18867,18887,18907,18928,18949,18967,18987,19008,19028,19048,19069,19088,19107,19129,19148,19168,19189,19207,19229,19247,19269,19287,19309,19328,19347,19369,19388,19408,19428,19447,19468,19488,19508,19529,19549,19567,19588,19608,19628,19647,19669,19688,19707,19728,19747,19769,19788,19809,19827,19848,19867,19888,19908,19929,19947,19968,19988,20007,20028,20047,20069,20088,20107,20129,20148,20167,20189,20207,20227,20247,20267,20288,20307,20329,20349,20367,20387,20408,20428,20449,20469,20487,20507,20527,20548,20569,20589,20607,20629,20648,20667,20689,20707,20728,20749,20768,20788,20808,20829,20848,20868,20889,20907,20929,20948,20967,20988,21007,21027,21048,21067,21087,21108,21127,21149,21169,21187,21209,21229,21247,21269,21288,21307,21328,21348,21369,21387,21409,21427,21447,21469,21487,21509,21527,21549,21568,21588,21608,21627,21647,21668,21687,21709,21729,21748,21767,21789,21808,21829,21848,21868,21888,21907,21928,21949,21969,21988,22007,22028,22049,22069,22087,22108,22128,22149,22167,22187,22208,22227,22249,22269,22287,22308,22328,22347,22367,22388,22408,22427,22449,22468,22487,22508,22527,22549,22568,22587,22609,22628,22648,22667,22688,22708,22727,22749,22767,22787,22807,22829,22848,22867,22889,22907,22929,22947,22968,22988,23007,23027,23047,23067,23087,23107,23127,23148,23168,23188,23208,23229,23248,23268,23287,23308,23329,23347,23368,23388,23407,23428,23448,23468,23487,23508,23528,23549,23568,23588,23607,23627,23648,23667,23688,23707,23727,23747,23767,23787,23807,23827,23849,23868,23889,23908,23928,23948,23969,23987,24007,24028,24048,24067,24087,24107,24129,24147,24169,24188,24207,24227,24248,24267,24287,24308,24327,24347,24368,24388,24409,24427,24447,24467,24488,24508,24527,24549,24568,24587,24608,24627,24648,24667,24688,24708,24728,24747,24767,24788,24808,24827,24847,24868,24888,24907,24927,24947,24967,24988,25007,25028],"xSR":741.5,"ySR":458.25,"xT1":424.9,"yT1":0,"xT2":1058.1,"yT2":0,"toosoon":0,"cond_shown":"equaldotanddens","ratio_trial":500,"smaller_num":"6","larger_num":"12","correct_side":1,"subjID":"Laurasalomeguerrero9","gender":"1","age":"11","school":"6"},{"start_time":1551883084943,"click_time":1551883086922,"finger_time":1551883085740,"fix_duration":680.4236991323353,"trial":32,"RT":797,"MT":1182,"sideResp":1,"stimulus":"img/750/randomdotsizeEA/L/14_Ratio_750_L_8_R_6.png","xmouse":[791,791,785,776,774,774,774,774,774,774,774,774,774,770,769,769,768,768,770,770,770,770,770,770,777,781,781,781,781,781,781,781,781,781,779,778,777,775,774,771,771,771,771,771,771,771,771,771,771,771,771,771,771,771,771,771,771,771,771,771,771,771,680,672,662,645,615,609,604,600,596,592,591,590,584,575,538,508,476,453,437,413,405,397,392,388,386,386,386,389,392,398,401,405,407,409,417,423,429],"ymouse":[528,528,529,529,529,529,529,529,529,529,529,529,529,530,531,531,530,521,516,516,516,516,516,516,515,516,516,516,516,516,516,516,516,516,517,517,517,520,533,602,602,602,602,602,602,602,602,602,602,602,602,602,602,602,602,602,602,602,602,602,602,602,679,651,616,554,450,423,403,389,378,361,355,346,336,318,272,247,219,198,174,134,124,114,103,95,78,73,69,65,62,59,59,58,57,57,55,54,51],"timestamp_mouse":[18,37,57,77,99,118,137,158,178,198,217,239,259,277,298,319,337,357,377,399,418,437,458,477,497,518,539,558,579,597,617,637,659,677,698,719,739,758,778,797,817,838,858,877,898,918,938,957,978,999,1018,1039,1058,1078,1098,1117,1138,1157,1178,1199,1217,1237,1257,1278,1299,1318,1338,1357,1377,1397,1418,1438,1458,1477,1498,1517,1538,1558,1577,1598,1618,1637,1657,1677,1698,1718,1737,1757,1777,1798,1818,1838,1858,1879,1897,1917,1937,1957,1979],"xSR":741.5,"ySR":458.25,"xT1":424.9,"yT1":0,"xT2":1058.1,"yT2":0,"toosoon":0,"cond_shown":"randomdotsizeEA","ratio_trial":750,"smaller_num":"6","larger_num":"8","correct_side":1,"subjID":"Laurasalomeguerrero9","gender":"1","age":"11","school":"6"},{"start_time":1551883088696,"click_time":1551883089460,"finger_time":1551883089100,"fix_duration":494.9294575785852,"trial":33,"RT":404,"MT":360,"sideResp":1,"stimulus":"img/900/randomdotsizeEA/R/11_Ratio_900_L_18_R_20.png","xmouse":[798,796,795,795,793,793,792,792,791,791,791,791,791,791,790,788,786,784,778,771,741,722,705,689,666,661,657,655,652,650,642,636,628,619,588,571,535,493,471],"ymouse":[507,507,507,507,507,507,508,508,509,509,509,509,509,509,510,510,510,508,502,490,444,417,385,359,320,313,307,303,298,294,276,262,248,233,186,164,131,100,84],"timestamp_mouse":[9,24,52,66,84,105,125,144,165,184,204,225,246,265,285,305,324,345,365,384,404,425,444,464,485,504,525,545,564,584,604,624,644,666,685,705,724,745,764],"xSR":741.5,"ySR":458.25,"xT1":424.9,"yT1":0,"xT2":1058.1,"yT2":0,"toosoon":0,"cond_shown":"randomdotsizeEA","ratio_trial":900,"smaller_num":"18","larger_num":"20","correct_side":2,"subjID":"Laurasalomeguerrero9","gender":"1","age":"11","school":"6"},{"start_time":1551883090862,"click_time":1551883091820,"finger_time":1551883091181,"fix_duration":620.4534687820542,"trial":34,"RT":319,"MT":639,"sideResp":2,"stimulus":"img/750/randomdotsizeEA/R/11_Ratio_750_L_12_R_16.png","xmouse":[786,787,787,787,787,787,787,787,787,787,787,790,792,798,806,829,838,848,858,869,896,910,926,942,958,981,991,999,1004,1010,1018,1022,1028,1036,1048,1074,1083,1091,1095,1097,1097,1097,1098,1098,1099,1102,1105,1108],"ymouse":[525,526,526,526,526,527,527,527,527,527,527,526,525,516,504,453,432,411,386,363,312,290,267,241,218,189,182,177,175,172,166,163,160,155,148,136,133,130,128,127,127,127,127,127,125,112,102,94],"timestamp_mouse":[18,49,59,79,98,118,139,159,179,200,219,238,260,279,299,319,338,359,378,398,418,438,458,479,499,519,539,558,579,599,618,638,658,679,698,718,738,759,779,798,819,839,858,879,900,918,939,958],"xSR":741.5,"ySR":458.25,"xT1":424.9,"yT1":0,"xT2":1058.1,"yT2":0,"toosoon":0,"cond_shown":"randomdotsizeEA","ratio_trial":750,"smaller_num":"12","larger_num":"16","correct_side":2,"subjID":"Laurasalomeguerrero9","gender":"1","age":"11","school":"6"},{"start_time":1551883097799,"click_time":1551883098360,"finger_time":1551883098221,"fix_duration":716.7173842076714,"trial":35,"RT":422,"MT":139,"sideResp":1,"stimulus":"img/500/equaldotsize/L/13_Ratio_500_L_12_R_6.png","xmouse":[807,807,807,807,807,807,807,807,807,807,807,807,807,807,807,807,807,807,806,801,795,787,758,686,617,568,551,533,514],"ymouse":[509,509,509,509,509,509,509,509,509,509,509,509,509,509,509,509,509,509,508,483,460,432,367,262,184,118,95,74,53],"timestamp_mouse":[1,24,49,61,81,101,122,143,163,182,203,222,241,262,283,301,321,343,361,381,402,422,443,461,481,502,522,541,561],"xSR":741.5,"ySR":458.25,"xT1":424.9,"yT1":0,"xT2":1058.1,"yT2":0,"toosoon":0,"cond_shown":"equaldotsize","ratio_trial":500,"smaller_num":"6","larger_num":"12","correct_side":1,"subjID":"Laurasalomeguerrero9","gender":"1","age":"11","school":"6"},{"start_time":1551883100351,"click_time":1551883101181,"finger_time":1551883101080,"fix_duration":408.8151367591291,"trial":36,"RT":729,"MT":101,"sideResp":1,"stimulus":"img/500/equaldotanddens/L/7_Ratio_500_L_10_R_5.png","xmouse":[770,770,770,770,770,770,770,770,770,770,770,770,770,770,770,770,770,770,770,770,770,770,771,771,771,771,771,771,771,771,771,771,771,771,770,763,729,702,673,653,611,515],"ymouse":[522,522,522,522,522,522,522,522,522,522,522,522,522,522,522,522,522,522,522,522,522,522,522,522,522,522,522,522,522,522,522,522,522,519,509,488,409,347,291,240,146,5],"timestamp_mouse":[9,39,50,69,89,111,130,149,171,190,210,229,249,270,289,310,329,349,370,390,411,429,449,469,491,509,530,549,571,590,609,631,651,669,689,711,729,749,769,790,809,830],"xSR":741.5,"ySR":458.25,"xT1":424.9,"yT1":0,"xT2":1058.1,"yT2":0,"toosoon":0,"cond_shown":"equaldotanddens","ratio_trial":500,"smaller_num":"5","larger_num":"10","correct_side":1,"subjID":"Laurasalomeguerrero9","gender":"1","age":"11","school":"6"},{"start_time":1551883103997,"click_time":1551883105381,"finger_time":1551883104362,"fix_duration":1036.0464262335017,"trial":37,"RT":365,"MT":1019,"sideResp":2,"stimulus":"img/500/equaldotanddens/R/9_Ratio_500_L_2_R_4.png","xmouse":[777,777,777,778,778,778,778,778,778,778,778,778,778,778,778,778,778,774,768,745,733,721,711,703,695,683,641,610,598,594,594,594,594,594,594,594,598,614,636,717,750,776,800,819,851,866,882,903,921,964,975,980,984,985,991,995,1000,1007,1013,1030,1036,1042,1048,1054,1063,1067,1070,1076,1081,1091],"ymouse":[488,488,488,486,486,486,486,486,486,486,486,486,486,486,486,482,476,467,453,401,378,358,344,332,315,297,256,222,206,200,200,200,200,200,200,200,205,223,243,311,331,339,341,340,325,315,304,293,286,263,254,244,231,223,213,209,204,197,190,164,156,149,144,140,133,130,127,120,114,99],"timestamp_mouse":[9,34,43,65,85,103,123,145,163,183,204,224,244,263,284,303,323,344,365,384,403,423,443,464,483,503,523,544,563,583,603,625,643,664,684,703,724,744,763,783,803,824,844,863,883,903,924,944,963,983,1003,1024,1044,1063,1083,1103,1124,1144,1164,1183,1203,1223,1244,1263,1283,1303,1324,1344,1363,1383],"xSR":741.5,"ySR":458.25,"xT1":424.9,"yT1":0,"xT2":1058.1,"yT2":0,"toosoon":0,"cond_shown":"equaldotanddens","ratio_trial":500,"smaller_num":"2","larger_num":"4","correct_side":2,"subjID":"Laurasalomeguerrero9","gender":"1","age":"11","school":"6"},{"start_time":1551883106591,"click_time":1551883108162,"finger_time":1551883107160,"fix_duration":250,"trial":38,"RT":569,"MT":1002,"sideResp":1,"stimulus":"img/500/equaldotanddens/L/13_Ratio_500_L_12_R_6.png","xmouse":[756,756,756,756,756,756,756,756,756,756,756,756,756,756,756,756,756,756,756,756,756,756,756,756,756,754,752,746,740,723,717,711,705,698,678,658,650,649,646,633,629,621,610,599,587,561,549,541,533,516,511,509,506,503,500,499,499,499,498,496,496,496,495,495,495,495,495,495,495,495,494,493,493,493,493,492,492,491,490],"ymouse":[522,522,522,522,522,522,522,522,522,522,522,522,522,522,522,522,522,522,522,522,522,522,522,522,522,509,500,477,455,396,373,353,333,318,289,273,266,265,263,252,246,239,228,216,202,171,159,149,139,124,120,118,117,115,112,111,110,110,110,108,107,106,106,106,106,106,106,106,106,104,104,103,103,103,102,101,100,100,98],"timestamp_mouse":[11,37,50,70,90,109,129,149,169,189,210,231,249,269,291,309,329,349,370,390,411,429,449,470,489,509,529,551,569,589,610,629,649,670,689,709,730,750,770,789,809,829,850,871,890,910,930,949,970,990,1009,1029,1049,1069,1089,1109,1130,1149,1171,1190,1211,1230,1249,1270,1290,1310,1330,1349,1369,1390,1409,1429,1449,1470,1490,1511,1529,1550,1571],"xSR":741.5,"ySR":458.25,"xT1":424.9,"yT1":0,"xT2":1058.1,"yT2":0,"toosoon":0,"cond_shown":"equaldotanddens","ratio_trial":500,"smaller_num":"6","larger_num":"12","correct_side":1,"subjID":"Laurasalomeguerrero9","gender":"1","age":"11","school":"6"},{"start_time":1551883115686,"click_time":1551883116480,"finger_time":1551883116060,"fix_duration":844.342772094263,"trial":39,"RT":374,"MT":420,"sideResp":1,"stimulus":"img/250/randomdotsizeEA/L/1_Ratio_250_L_8_R_2.png","xmouse":[794,794,794,794,794,794,794,793,791,791,791,790,790,790,790,788,782,774,762,720,693,671,652,635,611,601,598,596,595,593,591,590,590,589,584,578,569,556,542,510],"ymouse":[514,514,514,514,514,514,514,509,507,505,505,505,505,505,505,503,491,477,457,386,341,301,265,229,175,158,149,142,137,129,127,125,125,124,122,120,117,110,102,84],"timestamp_mouse":[14,39,55,75,96,115,134,155,174,195,215,234,255,275,294,314,334,355,374,394,416,434,454,475,494,514,535,554,574,594,614,634,654,675,695,715,735,754,774,794],"xSR":741.5,"ySR":458.25,"xT1":424.9,"yT1":0,"xT2":1058.1,"yT2":0,"toosoon":0,"cond_shown":"randomdotsizeEA","ratio_trial":250,"smaller_num":"2","larger_num":"8","correct_side":1,"subjID":"Laurasalomeguerrero9","gender":"1","age":"11","school":"6"},{"start_time":1551883117832,"click_time":1551883118580,"finger_time":1551883118181,"fix_duration":250,"trial":40,"RT":349,"MT":399,"sideResp":1,"stimulus":"img/500/randomdotsizeEA/R/3_Ratio_500_L_10_R_20.png","xmouse":[790,790,793,793,793,793,793,793,793,792,792,791,791,791,791,791,791,763,736,700,663,634,603,595,588,581,570,561,554,552,550,550,550,550,550,549,546,516],"ymouse":[522,520,514,511,509,509,509,508,508,508,508,508,508,508,505,497,474,346,284,227,175,136,98,88,81,76,69,65,63,63,63,63,63,63,63,63,61,53],"timestamp_mouse":[8,35,48,68,89,109,129,149,170,188,208,228,248,269,288,308,328,349,368,388,408,428,449,468,489,509,530,549,568,588,608,629,649,670,690,709,729,748],"xSR":741.5,"ySR":458.25,"xT1":424.9,"yT1":0,"xT2":1058.1,"yT2":0,"toosoon":0,"cond_shown":"randomdotsizeEA","ratio_trial":500,"smaller_num":"10","larger_num":"20","correct_side":2,"subjID":"Laurasalomeguerrero9","gender":"1","age":"11","school":"6"},{"start_time":1551883120339,"click_time":1551883121421,"finger_time":1551883120721,"fix_duration":816.2044436368445,"trial":41,"RT":382,"MT":700,"sideResp":2,"stimulus":"img/750/equaldotanddens/R/7_Ratio_750_L_3_R_4.png","xmouse":[789,789,789,789,789,789,789,789,789,789,789,789,789,789,789,789,793,809,834,865,894,916,945,952,961,970,984,1012,1028,1040,1048,1053,1055,1055,1053,1035,1015,980,977,977,976,976,985,993,998,1001,1005,1022,1026,1029,1031,1031,1032,1038,1081],"ymouse":[497,497,497,497,497,497,497,497,497,497,497,497,497,497,497,497,497,487,467,438,401,372,334,323,311,297,283,249,231,217,203,195,191,191,190,195,201,204,204,204,204,201,191,184,181,177,174,152,143,133,127,126,125,119,99],"timestamp_mouse":[9,22,41,63,81,101,122,141,163,183,201,223,242,262,282,301,322,342,362,382,401,422,442,462,481,501,521,541,561,581,603,623,643,662,681,702,723,742,761,782,802,821,841,862,882,902,921,941,961,982,1001,1022,1042,1063,1082],"xSR":741.5,"ySR":458.25,"xT1":424.9,"yT1":0,"xT2":1058.1,"yT2":0,"toosoon":0,"cond_shown":"equaldotanddens","ratio_trial":750,"smaller_num":"3","larger_num":"4","correct_side":2,"subjID":"Laurasalomeguerrero9","gender":"1","age":"11","school":"6"},{"start_time":1551883123356,"click_time":1551883124240,"finger_time":1551883123761,"fix_duration":1011.6817051508089,"trial":42,"RT":405,"MT":479,"sideResp":1,"stimulus":"img/900/equaldotanddens/R/13_Ratio_900_L_18_R_20.png","xmouse":[787,787,795,797,798,798,798,798,798,798,798,798,798,798,798,798,790,788,787,787,787,778,769,758,745,735,715,709,702,696,690,669,659,647,634,629,618,613,606,599,587,551,537,526,517],"ymouse":[489,489,485,484,484,484,484,484,484,484,484,484,484,484,484,484,484,484,483,468,422,348,315,281,255,233,198,187,175,163,150,119,109,101,96,93,90,88,86,85,82,72,68,64,63],"timestamp_mouse":[8,24,44,64,85,106,125,145,166,185,204,225,245,265,284,305,324,346,365,385,405,425,446,464,485,504,524,545,565,584,604,624,644,665,686,704,724,744,764,784,805,825,845,865,884],"xSR":741.5,"ySR":458.25,"xT1":424.9,"yT1":0,"xT2":1058.1,"yT2":0,"toosoon":0,"cond_shown":"equaldotanddens","ratio_trial":900,"smaller_num":"18","larger_num":"20","correct_side":2,"subjID":"Laurasalomeguerrero9","gender":"1","age":"11","school":"6"},{"start_time":1551883126356,"click_time":1551883127500,"finger_time":1551883126980,"fix_duration":1194.7966078649138,"trial":43,"RT":624,"MT":520,"sideResp":2,"stimulus":"img/500/equaldotsize/R/2_Ratio_500_L_3_R_6.png","xmouse":[809,810,810,810,811,812,812,812,812,813,813,813,813,814,814,814,815,815,815,816,816,816,816,816,816,816,816,816,818,820,823,849,867,881,891,901,924,943,975,1008,1030,1049,1054,1057,1065,1075,1100,1112,1122,1129,1133,1138,1142,1145,1147,1151,1154,1154],"ymouse":[518,515,515,514,511,510,510,510,510,509,509,509,509,508,508,508,507,507,507,506,506,506,506,506,506,506,506,506,504,503,496,444,401,369,347,328,300,286,270,260,253,246,242,239,235,230,215,207,197,189,179,159,150,140,130,118,100,94],"timestamp_mouse":[4,41,45,64,85,104,125,144,164,184,204,225,245,264,285,304,325,346,364,384,406,425,444,464,485,504,526,545,564,585,605,624,644,665,685,704,724,746,765,784,804,824,845,864,884,905,924,944,964,986,1004,1026,1045,1064,1084,1105,1126,1144],"xSR":741.5,"ySR":458.25,"xT1":424.9,"yT1":0,"xT2":1058.1,"yT2":0,"toosoon":0,"cond_shown":"equaldotsize","ratio_trial":500,"smaller_num":"3","larger_num":"6","correct_side":2,"subjID":"Laurasalomeguerrero9","gender":"1","age":"11","school":"6"},{"start_time":1551883133425,"click_time":1551883134700,"finger_time":1551883133981,"fix_duration":1443.2283330012328,"trial":44,"RT":556,"MT":719,"sideResp":1,"stimulus":"img/900/randomdotsizeEA/L/2_Ratio_900_L_20_R_18.png","xmouse":[807,806,806,806,806,806,806,806,806,806,806,806,806,806,806,806,806,806,805,805,803,799,791,784,778,771,759,742,728,716,704,696,683,678,675,671,667,660,657,653,648,644,633,616,598,579,555,536,531,528,526,526,526,526,526,526,526,522,520,516,511,508,503,497],"ymouse":[521,521,521,521,521,521,521,521,521,521,521,521,521,521,521,521,521,521,521,521,521,521,510,498,488,478,463,432,408,385,360,339,308,295,283,270,257,227,215,203,193,187,179,171,166,159,153,145,142,140,139,139,139,139,138,137,135,128,125,120,113,108,102,94],"timestamp_mouse":[15,35,55,75,97,115,137,157,175,196,217,237,257,275,295,316,337,357,376,396,416,436,456,475,496,517,535,556,575,596,616,635,656,675,695,716,735,756,775,797,817,835,856,875,895,915,936,956,976,995,1016,1036,1056,1077,1096,1115,1136,1157,1177,1196,1216,1235,1255,1275],"xSR":741.5,"ySR":458.25,"xT1":424.9,"yT1":0,"xT2":1058.1,"yT2":0,"toosoon":0,"cond_shown":"randomdotsizeEA","ratio_trial":900,"smaller_num":"18","larger_num":"20","correct_side":1,"subjID":"Laurasalomeguerrero9","gender":"1","age":"11","school":"6"},{"start_time":1551883135712,"click_time":1551883136901,"finger_time":1551883136402,"fix_duration":250,"trial":45,"RT":690,"MT":499,"sideResp":2,"stimulus":"img/500/equaldotsize/R/15_Ratio_500_L_1_R_2.png","xmouse":[804,804,804,804,804,804,804,804,804,804,804,804,804,804,804,804,804,804,804,804,804,804,803,803,803,803,803,803,803,803,803,803,804,831,855,890,923,949,984,991,998,1003,1008,1017,1023,1033,1045,1057,1073,1078,1081,1083,1084,1087,1088,1089,1091,1092,1093,1094],"ymouse":[520,520,520,520,520,520,520,520,520,520,520,520,520,520,520,520,520,520,520,520,520,520,520,520,520,520,520,520,520,520,520,520,517,494,474,443,413,377,303,278,263,253,248,236,230,219,203,183,148,136,126,122,119,115,112,110,106,103,100,97],"timestamp_mouse":[8,34,49,69,88,108,128,150,168,188,209,229,249,269,289,309,328,348,369,390,408,428,449,468,488,508,530,548,569,589,610,628,649,668,690,709,728,750,768,790,809,828,848,868,888,909,929,948,969,990,1009,1030,1049,1068,1088,1109,1128,1149,1168,1189],"xSR":741.5,"ySR":458.25,"xT1":424.9,"yT1":0,"xT2":1058.1,"yT2":0,"toosoon":0,"cond_shown":"equaldotsize","ratio_trial":500,"smaller_num":"1","larger_num":"2","correct_side":2,"subjID":"Laurasalomeguerrero9","gender":"1","age":"11","school":"6"},{"start_time":1551883141527,"click_time":1551883156081,"finger_time":1551883143322,"fix_duration":526.6998325497849,"trial":46,"RT":1795,"MT":12759,"sideResp":1,"stimulus":"img/900/randomdotsizeEA/L/8_Ratio_900_L_20_R_18.png","xmouse":[784,784,784,784,784,790,793,798,800,805,808,810,812,812,812,812,812,812,812,812,812,812,812,812,812,812,812,812,812,812,812,812,812,812,812,812,812,812,812,812,812,812,812,812,812,812,808,794,784,777,775,774,774,774,774,774,774,774,773,773,773,773,774,775,775,775,775,775,772,767,763,759,757,757,757,756,756,756,756,756,756,756,756,762,768,773,774,777,777,777,777,777,788,794,800,801,803,803,803,803,806,807,819,831,842,850,856,857,858,858,858,858,857,855,854,853,852,849,841,833,828,821,813,812,811,811,808,804,804,804,804,804,804,804,804,804,804,804,804,804,804,804,804,804,804,804,804,804,804,804,804,804,804,804,804,804,804,804,803,802,798,787,777,756,749,747,747,747,747,747,747,747,747,747,747,747,747,747,747,747,747,747,747,747,747,752,760,797,814,823,825,825,825,825,821,817,814,810,809,807,807,807,807,807,808,809,810,810,807,806,806,806,806,805,802,798,793,783,780,778,778,778,778,778,782,793,800,802,804,805,805,805,804,801,793,786,781,780,779,779,779,778,773,772,770,769,767,761,758,754,747,732,724,724,724,724,724,724,724,724,724,723,723,726,729,732,733,733,733,733,734,736,742,745,749,752,754,754,754,754,754,754,754,754,754,754,754,754,754,756,756,756,756,756,758,763,767,769,769,770,770,770,760,758,758,758,758,758,757,756,755,753,753,753,752,752,752,746,738,731,728,726,726,726,726,726,726,726,725,724,723,723,723,723,723,723,722,719,717,706,692,683,683,682,676,675,675,688,699,703,704,704,704,704,704,705,707,707,707,707,707,707,707,707,707,707,707,707,707,707,707,707,707,707,707,707,707,707,707,707,707,706,705,704,702,700,698,696,696,696,696,696,696,696,696,696,696,694,693,690,688,683,679,678,677,677,676,676,676,675,673,671,671,671,671,671,671,671,671,671,671,671,671,671,671,671,671,671,671,671,671,671,671,671,670,666,664,658,657,657,657,657,657,656,651,644,637,630,625,620,616,614,613,613,613,613,613,613,613,613,613,613,613,613,613,613,613,613,613,612,614,617,625,627,628,629,629,629,629,628,622,618,609,605,602,601,600,600,600,600,600,600,607,611,615,624,647,781,886,886,886,886,886,886,886,886,886,886,886,1045,1038,1033,1023,1021,1020,1018,1014,991,971,946,921,895,857,853,853,852,852,852,852,852,852,852,847,839,830,820,809,800,799,799,799,799,799,799,799,799,799,799,799,798,798,798,796,795,795,795,795,795,795,795,795,795,795,795,795,795,794,790,785,780,777,776,774,768,762,757,757,757,757,757,757,757,757,757,757,757,757,757,757,757,757,757,757,757,757,757,757,757,757,757,757,757,757,758,758,758,759,759,759,759,759,759,759,759,759,759,759,759,759,759,759,762,768,769,770,770,770,770,770,770,770,771,775,777,779,779,779,779,779,779,779,779,779,779,779,779,779,779,780,780,780,780,782,784,786,787,787,787,785,783,782,781,781,783,786,803,820,833,837,841,841,841,838,833,826,821,816,812,812,812,812,812,812,812,812,811,808,802,802,802,802,804,810,810,808,797,783,766,716,697,681,668,653,645,637,628,620,606,603,601,600,599,592,588,584,577,566,555,548,542,538,535,532,530,527,526,521,516],"ymouse":[520,520,520,520,517,513,512,511,510,509,506,506,505,505,505,505,505,505,505,505,505,505,505,505,505,505,505,505,505,505,505,505,505,505,505,505,505,505,505,505,505,505,505,505,505,505,507,515,522,525,527,527,527,527,527,527,527,527,527,527,527,525,521,519,518,518,518,518,525,532,541,548,551,551,551,552,552,552,552,552,552,552,553,553,553,554,554,557,558,560,562,565,607,630,649,656,659,659,660,662,667,668,664,647,626,608,595,583,580,578,576,572,561,558,554,553,552,550,547,543,540,536,529,528,528,527,526,523,523,523,523,523,523,523,523,523,523,523,523,523,523,523,523,523,523,523,523,523,523,523,523,523,523,523,523,523,523,523,523,523,520,513,505,486,481,479,479,479,479,479,479,479,479,479,479,479,479,479,479,479,479,479,479,479,479,479,480,498,509,517,517,517,518,521,524,531,536,540,540,541,541,541,541,541,539,534,525,510,505,502,501,501,501,501,502,504,507,512,513,514,514,514,514,514,518,523,525,525,525,524,520,519,512,510,506,504,501,501,500,496,495,489,472,470,469,468,467,464,462,460,456,450,448,448,448,448,448,448,448,448,448,449,458,465,468,472,473,473,473,473,473,474,481,485,490,493,494,494,494,494,494,494,494,494,494,494,494,494,494,492,491,491,491,491,491,490,490,489,489,489,488,482,457,454,454,454,454,454,454,454,454,454,459,459,459,459,459,463,472,481,486,487,488,488,488,488,488,488,489,489,489,489,489,489,489,489,489,489,489,495,507,523,523,524,533,535,535,521,507,501,501,501,501,500,496,491,486,484,484,484,484,484,484,484,484,484,484,484,484,484,484,484,484,484,484,484,484,484,484,484,485,489,491,490,485,480,475,473,473,473,473,473,473,473,473,473,472,472,472,472,473,477,482,483,485,487,490,490,490,492,495,501,502,502,502,502,502,502,502,502,502,502,502,503,504,504,504,504,504,505,505,505,505,505,505,493,480,452,448,446,445,445,445,445,448,455,460,466,469,472,475,477,477,477,477,477,477,477,477,477,477,477,477,477,477,477,477,477,477,477,471,464,429,412,398,389,384,383,383,383,383,386,393,396,399,400,402,413,422,435,450,473,496,502,508,520,545,621,670,670,670,670,670,670,670,670,670,670,670,694,680,667,636,627,622,616,611,596,584,570,555,538,511,510,510,509,509,509,509,509,509,509,509,509,509,509,509,509,509,509,509,509,509,509,509,509,509,509,509,509,509,509,509,509,509,509,509,509,509,509,510,510,510,510,510,510,510,510,511,511,511,511,511,511,507,505,505,505,505,505,505,505,505,505,505,505,505,505,505,505,505,505,505,505,505,505,505,505,505,505,505,505,505,505,505,505,505,505,505,505,505,505,505,505,505,505,505,505,505,505,505,505,505,505,505,505,505,505,505,505,505,505,501,495,492,489,487,484,484,484,484,484,486,492,497,502,507,513,515,516,516,516,516,514,509,504,501,498,498,498,498,500,504,510,510,510,509,498,488,477,466,461,460,460,464,469,475,481,481,481,481,481,477,477,477,476,476,484,486,486,486,481,457,440,423,405,390,373,333,315,297,282,257,239,219,199,179,152,145,140,139,136,125,120,117,112,108,108,108,108,109,109,109,109,109,107,104,96],"timestamp_mouse":[14,34,54,73,93,114,133,153,174,193,215,234,254,274,294,314,334,355,374,394,415,433,453,475,493,515,533,554,575,593,614,634,654,673,693,715,734,753,773,794,814,833,853,874,893,915,935,954,973,993,1014,1033,1054,1074,1093,1113,1133,1155,1173,1193,1213,1235,1254,1273,1293,1313,1333,1354,1374,1393,1413,1434,1454,1473,1494,1515,1533,1553,1575,1595,1613,1633,1653,1674,1694,1714,1734,1754,1773,1795,1814,1833,1853,1873,1893,1914,1934,1954,1973,1993,2015,2033,2054,2074,2094,2115,2135,2153,2174,2193,2214,2233,2253,2274,2293,2314,2334,2354,2374,2393,2413,2434,2453,2475,2494,2513,2535,2553,2574,2593,2614,2634,2654,2673,2693,2714,2733,2753,2775,2793,2813,2835,2854,2873,2895,2913,2934,2955,2974,2994,3014,3033,3055,3073,3093,3113,3134,3153,3173,3193,3213,3235,3253,3273,3294,3313,3335,3353,3374,3395,3413,3433,3454,3473,3493,3515,3533,3555,3573,3593,3614,3634,3653,3675,3695,3713,3733,3754,3774,3794,3814,3833,3853,3875,3893,3913,3933,3953,3974,3994,4014,4034,4054,4073,4093,4113,4133,4153,4174,4194,4214,4233,4255,4274,4295,4313,4335,4353,4373,4394,4413,4433,4454,4473,4494,4514,4533,4555,4573,4595,4615,4633,4654,4674,4693,4714,4734,4754,4775,4795,4813,4835,4854,4874,4893,4913,4934,4954,4973,4994,5014,5033,5054,5074,5094,5114,5133,5154,5174,5194,5214,5233,5253,5274,5294,5314,5333,5353,5374,5393,5414,5434,5453,5474,5493,5513,5533,5554,5575,5593,5613,5634,5654,5673,5694,5713,5735,5753,5775,5795,5814,5834,5854,5873,5893,5914,5935,5953,5975,5995,6013,6035,6053,6073,6094,6113,6134,6154,6174,6193,6213,6235,6254,6274,6293,6314,6333,6354,6375,6393,6413,6434,6454,6474,6494,6513,6535,6554,6573,6594,6614,6634,6654,6674,6694,6714,6733,6753,6774,6794,6813,6833,6854,6875,6894,6913,6933,6954,6975,6995,7013,7033,7054,7074,7093,7113,7135,7155,7174,7194,7213,7233,7255,7275,7294,7314,7334,7354,7373,7393,7413,7434,7455,7473,7494,7513,7535,7554,7574,7594,7615,7633,7654,7673,7693,7715,7734,7754,7773,7794,7814,7835,7854,7875,7893,7914,7934,7955,7974,7994,8015,8033,8054,8073,8094,8114,8135,8154,8175,8193,8213,8234,8255,8274,8295,8313,8334,8354,8375,8395,8413,8434,8454,8474,8494,8515,8533,8554,8573,8593,8614,8634,8654,8674,8694,8715,8733,8754,8775,8794,8814,8834,8853,8874,8894,8914,8935,8954,8974,8994,9013,9033,9054,9075,9094,9113,9135,9154,9174,9195,9214,9235,9255,9274,9294,9314,9334,9354,9373,9395,9414,9434,9453,9474,9494,9513,9535,9554,9573,9593,9614,9633,9653,9673,9693,9713,9733,9754,9775,9795,9813,9833,9854,9874,9894,9913,9935,9954,9973,9993,10014,10035,10054,10074,10093,10114,10133,10154,10173,10194,10214,10235,10254,10275,10293,10315,10335,10353,10373,10394,10414,10435,10454,10474,10493,10514,10535,10553,10574,10594,10613,10634,10654,10674,10694,10714,10734,10754,10775,10793,10813,10835,10853,10873,10893,10915,10933,10954,10975,10994,11015,11033,11053,11075,11094,11113,11134,11154,11174,11194,11214,11234,11255,11274,11293,11315,11334,11353,11373,11394,11413,11434,11453,11474,11495,11513,11533,11554,11573,11595,11613,11633,11655,11673,11694,11714,11733,11755,11773,11793,11814,11835,11853,11874,11895,11914,11933,11954,11974,11993,12015,12033,12055,12074,12094,12114,12134,12154,12174,12194,12214,12233,12255,12273,12293,12314,12333,12354,12375,12393,12415,12435,12454,12474,12494,12515,12535,12553,12575,12593,12614,12635,12654,12674,12693,12715,12734,12754,12773,12794,12814,12834,12853,12873,12893,12914,12933,12953,12974,12995,13014,13034,13053,13075,13094,13114,13134,13154,13174,13195,13215,13234,13253,13273,13293,13314,13333,13354,13373,13394,13415,13433,13454,13475,13494,13514,13534,13553,13575,13593,13613,13633,13653,13674,13694,13713,13733,13754,13773,13794,13813,13834,13853,13874,13895,13913,13933,13953,13973,13994,14015,14035,14053,14073,14093,14113,14135,14154,14173,14194,14213,14234,14253,14274,14293,14314,14335,14353,14373,14394,14413,14435,14454,14474,14494,14515,14534,14554],"xSR":741.5,"ySR":458.25,"xT1":424.9,"yT1":0,"xT2":1058.1,"yT2":0,"toosoon":0,"cond_shown":"randomdotsizeEA","ratio_trial":900,"smaller_num":"18","larger_num":"20","correct_side":1,"subjID":"Laurasalomeguerrero9","gender":"1","age":"11","school":"6"},{"start_time":1551883158352,"click_time":1551883159481,"finger_time":1551883159081,"fix_duration":1329.9685221096215,"trial":47,"RT":729,"MT":400,"sideResp":1,"stimulus":"img/750/equaldotsize/L/1_Ratio_750_L_20_R_15.png","xmouse":[806,804,804,804,804,804,804,804,804,805,806,807,807,807,807,806,804,802,799,796,792,785,785,785,785,785,785,785,785,785,785,783,783,782,782,782,782,773,749,708,667,619,612,609,606,601,596,596,596,595,593,577,566,554,539,525,509],"ymouse":[498,503,503,503,503,503,503,503,503,503,503,500,500,498,498,498,496,495,492,488,483,472,472,472,472,472,472,472,472,472,472,473,476,477,477,477,442,372,285,196,131,81,78,77,76,75,75,75,75,75,75,75,75,75,70,64,57],"timestamp_mouse":[8,46,48,69,89,109,128,149,169,190,209,229,248,269,288,309,329,350,369,389,409,428,449,468,490,508,528,550,568,590,609,629,649,669,690,708,729,748,768,790,808,828,848,869,890,909,928,949,970,990,1008,1029,1049,1068,1090,1109,1129],"xSR":741.5,"ySR":458.25,"xT1":424.9,"yT1":0,"xT2":1058.1,"yT2":0,"toosoon":0,"cond_shown":"equaldotsize","ratio_trial":750,"smaller_num":"15","larger_num":"20","correct_side":1,"subjID":"Laurasalomeguerrero9","gender":"1","age":"11","school":"6"},{"start_time":1551883161334,"click_time":1551883162181,"finger_time":1551883161820,"fix_duration":1051.0516821929664,"trial":48,"RT":486,"MT":361,"sideResp":1,"stimulus":"img/750/randomdotsizeEA/L/1_Ratio_750_L_20_R_15.png","xmouse":[801,801,801,801,801,801,801,801,801,801,801,801,801,801,801,801,801,801,801,801,801,801,797,792,783,776,768,750,742,728,713,685,627,588,557,541,538,537,537,535,531,525,513],"ymouse":[499,501,502,502,502,502,502,503,503,503,503,504,505,505,505,505,505,505,505,505,505,505,492,473,453,436,422,396,378,349,314,248,149,103,74,64,63,62,62,62,59,56,49],"timestamp_mouse":[6,28,46,66,87,108,127,147,167,188,207,227,248,267,286,306,328,346,368,387,407,427,446,467,486,506,527,547,567,586,606,628,647,6