[{"start_time":1551881917674,"click_time":1551881918719,"finger_time":1551881917684,"fix_duration":250,"trial":0,"RT":10,"MT":1035,"sideResp":2,"stimulus":[],"xmouse":[780,780,780,780,780,780,780,780,780,780,780,780,780,780,780,780,780,780,780,780,780,780,780,780,780,780,780,780,780,780,780,780,846,895,914,914,914,914,922,992,1097,1187,1261,1316,1316,1314,1308,1308,1297,1276,1241,1179,1084],"ymouse":[554,554,554,554,554,554,554,554,554,554,554,554,554,554,554,554,554,554,554,554,554,554,554,554,554,554,554,554,554,554,554,554,509,485,482,482,482,482,472,369,238,121,32,0,0,0,0,0,0,0,0,0,3],"timestamp_mouse":[10,24,44,63,83,105,123,144,164,183,203,224,244,263,284,303,323,344,363,384,403,423,444,463,483,504,524,543,563,584,604,623,644,663,684,703,723,744,764,783,804,824,843,864,883,903,924,943,964,983,1003,1023,1044],"xSR":741.5,"ySR":488.8,"xT1":424.9,"yT1":0,"xT2":1058.1,"yT2":0,"toosoon":0,"cond_shown":"Congruent","ratio_trial":300,"L_num":12,"L_den":24,"R_num":2,"R_den":10,"correct_side":1,"subjID":"laurasalomeguerrero9","gender":"1","age":"11","school":"6","test":{"fix_dur":[250,1500],"timestim":1000,"targets_dim":[100,100],"targets_relative_coord":[0.3,0.7],"size_stim":[880,420],"start_dim":[100,100],"size_start":[300,300],"size_fix":60,"samplingrate":20,"img_types":["Congruent","Incongruent"],"ratios":[100,200,300],"rep_conds":19,"nTrials":120,"trials_to_rest":500,"Trials_order":[82,48,118,87,9,30,42,98,102,80,36,91,73,70,88,32,106,23,68,85,109,10,4,19,101,15,46,51,90,17,94,44,95,12,0,61,64,113,92,99,26,77,93,116,50,76,89,60,20,45,55,63,33,111,38,7,27,62,96,53,105,59,74,54,69,65,29,14,104,1,5,79,66,39,22,43,71,18,25,47,83,6,21,100,35,110,34,16,3,75,115,108,119,56,40,67,2,97,49,31,114,41,28,81,78,103,37,117,86,107,84,112,11,58,13,57,8,52,24,72],"cond_shown":["Congruent","Congruent","Congruent","Incongruent","Incongruent","Congruent","Congruent","Congruent","Congruent","Congruent","Congruent","Incongruent","Incongruent","Congruent","Congruent","Congruent","Congruent","Incongruent","Congruent","Incongruent","Incongruent","Congruent","Congruent","Incongruent","Incongruent","Incongruent","Congruent","Incongruent","Congruent","Incongruent","Congruent","Congruent","Incongruent","Congruent","Congruent","Incongruent","Congruent","Incongruent","Congruent","Incongruent","Congruent","Incongruent","Incongruent","Congruent","Congruent","Congruent","Incongruent","Congruent","Congruent","Incongruent","Incongruent","Incongruent","Incongruent","Incongruent","Congruent","Incongruent","Incongruent","Congruent","Congruent","Incongruent","Incongruent","Incongruent","Congruent","Congruent","Incongruent","Incongruent","Incongruent","Congruent","Congruent","Incongruent","Incongruent","Incongruent","Congruent","Incongruent","Congruent","Incongruent","Incongruent","Congruent","Incongruent","Incongruent","Incongruent","Congruent","Incongruent","Congruent","Incongruent","Congruent","Congruent","Congruent","Incongruent","Incongruent","Incongruent","Congruent","Incongruent","Congruent","Congruent","Incongruent","Congruent","Incongruent","Incongruent","Incongruent","Congruent","Incongruent","Congruent","Incongruent","Congruent","Incongruent","Incongruent","Incongruent","Congruent","Incongruent","Congruent","Congruent","Incongruent","Congruent","Incongruent","Incongruent","Congruent","Congruent","Congruent","Congruent"],"ratio_trial":[300,100,300,200,200,100,100,200,100,200,100,100,100,300,300,200,300,300,200,100,100,300,300,100,300,200,300,200,100,300,300,200,300,100,100,100,300,300,200,200,200,300,200,200,200,300,300,100,200,200,100,200,200,200,200,100,200,200,100,300,200,300,200,100,200,300,300,200,200,100,300,100,100,200,300,100,300,100,100,300,300,100,200,300,300,200,300,300,200,200,100,100,300,200,300,100,200,100,100,100,100,300,300,200,100,100,100,200,200,300,100,300,300,300,100,200,200,300,100,100],"left_num":[12,2,20,1,11,11,4,14,3,4,7,10,6,20,18,20,1,4,7,9,11,3,3,6,13,11,20,3,4,2,5,6,2,10,12,3,2,3,4,14,12,8,4,8,6,4,4,4,14,7,9,1,9,4,11,8,9,3,7,4,7,4,6,11,7,7,4,12,16,13,4,6,7,7,20,2,13,2,3,13,13,6,7,3,2,21,4,1,1,7,13,9,4,3,2,3,3,6,2,2,4,13,3,11,7,11,6,7,3,4,7,5,8,20,1,1,3,11,6,9],"right_num":[2,6,8,3,3,4,15,6,2,3,15,8,3,8,9,9,3,2,18,6,9,11,11,11,12,3,8,1,15,6,7,3,6,3,13,11,10,4,3,6,6,9,1,2,7,1,2,6,6,14,6,3,8,1,3,6,8,11,9,8,12,2,11,4,6,8,2,6,12,6,2,3,15,14,5,6,12,6,4,12,12,5,14,2,6,2,1,19,3,14,6,8,8,14,12,11,9,13,6,8,15,12,4,3,15,9,11,4,11,2,15,7,9,14,8,3,14,2,5,8],"left_den":[24,5,25,2,20,22,10,28,6,10,14,25,12,25,20,25,5,20,15,18,22,12,12,10,26,20,25,10,10,4,25,15,4,25,30,5,20,6,10,30,15,10,30,15,12,10,20,8,28,10,18,2,15,30,22,16,15,10,14,5,10,20,20,22,15,10,20,20,20,26,20,12,14,10,25,4,26,5,6,26,26,20,10,6,4,30,10,3,2,10,26,15,5,6,10,5,12,10,4,4,10,26,6,20,14,22,10,15,10,20,14,25,10,25,2,2,6,22,20,15],"right_den":[10,12,16,10,4,10,30,20,5,15,25,16,5,16,15,15,6,4,27,10,15,20,20,22,15,4,16,2,30,30,14,15,30,10,26,22,25,20,15,9,10,18,3,6,10,10,4,10,20,28,10,10,10,3,10,10,10,22,15,16,24,4,22,10,9,20,4,15,20,10,4,5,25,28,10,15,15,12,10,15,15,25,28,10,30,4,10,30,10,28,10,16,16,20,24,22,20,26,15,20,30,15,5,4,25,15,22,6,22,4,25,14,18,28,20,10,20,10,25,16],"correct_side":[1,2,1,1,2,1,2,1,1,1,2,2,2,1,1,1,2,2,2,2,2,2,2,1,2,2,1,2,2,1,2,1,1,1,2,1,2,1,1,2,1,1,2,1,2,1,2,2,1,1,2,1,2,2,1,2,2,2,2,1,1,2,2,1,2,1,2,1,1,2,2,2,2,1,1,1,2,2,1,2,2,1,1,1,1,1,1,2,1,1,2,1,1,2,2,1,2,1,1,1,2,2,2,2,2,2,1,2,2,2,2,2,1,1,1,1,2,1,1,1],"img_shown":["img2/300/Congruent/L/C_Dist_300_LN_12_LD_24_RN_2_RD_10_0.png","img2/100/Congruent/R/C_Dist_100_LN_2_LD_5_RN_6_RD_12_1.png","img2/300/Congruent/L/C_Dist_300_LN_20_LD_25_RN_8_RD_16_0.png","img2/200/Incongruent/L/I_Dist_200_LN_1_LD_2_RN_3_RD_10_0.png","img2/200/Incongruent/R/I_Dist_200_LN_11_LD_20_RN_3_RD_4_1.png","img2/100/Congruent/L/C_Dist_100_LN_11_LD_22_RN_4_RD_10_0.png","img2/100/Congruent/R/C_Dist_100_LN_4_LD_10_RN_15_RD_30_1.png","img2/200/Congruent/L/C_Dist_200_LN_14_LD_28_RN_6_RD_20_0.png","img2/100/Congruent/L/C_Dist_100_LN_3_LD_6_RN_2_RD_5_0.png","img2/200/Congruent/L/C_Dist_200_LN_4_LD_10_RN_3_RD_15_0.png","img2/100/Congruent/R/C_Dist_100_LN_7_LD_14_RN_15_RD_25_1.png","img2/100/Incongruent/R/I_Dist_100_LN_10_LD_25_RN_8_RD_16_1.png","img2/100/Incongruent/R/I_Dist_100_LN_6_LD_12_RN_3_RD_5_1.png","img2/300/Congruent/L/C_Dist_300_LN_20_LD_25_RN_8_RD_16_0.png","img2/300/Congruent/L/C_Dist_300_LN_18_LD_20_RN_9_RD_15_0.png","img2/200/Congruent/L/C_Dist_200_LN_20_LD_25_RN_9_RD_15_0.png","img2/300/Congruent/R/C_Dist_300_LN_1_LD_5_RN_3_RD_6_1.png","img2/300/Incongruent/R/I_Dist_300_LN_4_LD_20_RN_2_RD_4_1.png","img2/200/Congruent/R/C_Dist_200_LN_7_LD_15_RN_18_RD_27_1.png","img2/100/Incongruent/R/I_Dist_100_LN_9_LD_18_RN_6_RD_10_1.png","img2/100/Incongruent/R/I_Dist_100_LN_11_LD_22_RN_9_RD_15_1.png","img2/300/Congruent/R/C_Dist_300_LN_3_LD_12_RN_11_RD_20_1.png","img2/300/Congruent/R/C_Dist_300_LN_3_LD_12_RN_11_RD_20_1.png","img2/100/Incongruent/L/I_Dist_100_LN_6_LD_10_RN_11_RD_22_0.png","img2/300/Incongruent/R/I_Dist_300_LN_13_LD_26_RN_12_RD_15_1.png","img2/200/Incongruent/R/I_Dist_200_LN_11_LD_20_RN_3_RD_4_1.png","img2/300/Congruent/L/C_Dist_300_LN_20_LD_25_RN_8_RD_16_0.png","img2/200/Incongruent/R/I_Dist_200_LN_3_LD_10_RN_1_RD_2_1.png","img2/100/Congruent/R/C_Dist_100_LN_4_LD_10_RN_15_RD_30_1.png","img2/300/Incongruent/L/I_Dist_300_LN_2_LD_4_RN_6_RD_30_0.png","img2/300/Congruent/R/C_Dist_300_LN_5_LD_25_RN_7_RD_14_1.png","img2/200/Congruent/L/C_Dist_200_LN_6_LD_15_RN_3_RD_15_0.png","img2/300/Incongruent/L/I_Dist_300_LN_2_LD_4_RN_6_RD_30_0.png","img2/100/Congruent/L/C_Dist_100_LN_10_LD_25_RN_3_RD_10_0.png","img2/100/Congruent/R/C_Dist_100_LN_12_LD_30_RN_13_RD_26_1.png","img2/100/Incongruent/L/I_Dist_100_LN_3_LD_5_RN_11_RD_22_0.png","img2/300/Congruent/R/C_Dist_300_LN_2_LD_20_RN_10_RD_25_1.png","img2/300/Incongruent/L/I_Dist_300_LN_3_LD_6_RN_4_RD_20_0.png","img2/200/Congruent/L/C_Dist_200_LN_4_LD_10_RN_3_RD_15_0.png","img2/200/Incongruent/R/I_Dist_200_LN_14_LD_30_RN_6_RD_9_1.png","img2/200/Congruent/L/C_Dist_200_LN_12_LD_15_RN_6_RD_10_0.png","img2/300/Incongruent/L/I_Dist_300_LN_8_LD_10_RN_9_RD_18_0.png","img2/200/Incongruent/R/I_Dist_200_LN_4_LD_30_RN_1_RD_3_1.png","img2/200/Congruent/L/C_Dist_200_LN_8_LD_15_RN_2_RD_6_0.png","img2/200/Congruent/R/C_Dist_200_LN_6_LD_12_RN_7_RD_10_1.png","img2/300/Congruent/L/C_Dist_300_LN_4_LD_10_RN_1_RD_10_0.png","img2/300/Incongruent/R/I_Dist_300_LN_4_LD_20_RN_2_RD_4_1.png","img2/100/Congruent/R/C_Dist_100_LN_4_LD_8_RN_6_RD_10_1.png","img2/200/Congruent/L/C_Dist_200_LN_14_LD_28_RN_6_RD_20_0.png","img2/200/Incongruent/L/I_Dist_200_LN_7_LD_10_RN_14_RD_28_0.png","img2/100/Incongruent/R/I_Dist_100_LN_9_LD_18_RN_6_RD_10_1.png","img2/200/Incongruent/L/I_Dist_200_LN_1_LD_2_RN_3_RD_10_0.png","img2/200/Incongruent/R/I_Dist_200_LN_9_LD_15_RN_8_RD_10_1.png","img2/200/Incongruent/R/I_Dist_200_LN_4_LD_30_RN_1_RD_3_1.png","img2/200/Congruent/L/C_Dist_200_LN_11_LD_22_RN_3_RD_10_0.png","img2/100/Incongruent/R/I_Dist_100_LN_8_LD_16_RN_6_RD_10_1.png","img2/200/Incongruent/R/I_Dist_200_LN_9_LD_15_RN_8_RD_10_1.png","img2/200/Congruent/R/C_Dist_200_LN_3_LD_10_RN_11_RD_22_1.png","img2/100/Congruent/R/C_Dist_100_LN_7_LD_14_RN_9_RD_15_1.png","img2/300/Incongruent/L/I_Dist_300_LN_4_LD_5_RN_8_RD_16_0.png","img2/200/Incongruent/L/I_Dist_200_LN_7_LD_10_RN_12_RD_24_0.png","img2/300/Incongruent/R/I_Dist_300_LN_4_LD_20_RN_2_RD_4_1.png","img2/200/Congruent/R/C_Dist_200_LN_6_LD_20_RN_11_RD_22_1.png","img2/100/Congruent/L/C_Dist_100_LN_11_LD_22_RN_4_RD_10_0.png","img2/200/Incongruent/R/I_Dist_200_LN_7_LD_15_RN_6_RD_9_1.png","img2/300/Incongruent/L/I_Dist_300_LN_7_LD_10_RN_8_RD_20_0.png","img2/300/Incongruent/R/I_Dist_300_LN_4_LD_20_RN_2_RD_4_1.png","img2/200/Congruent/L/C_Dist_200_LN_12_LD_20_RN_6_RD_15_0.png","img2/200/Congruent/L/C_Dist_200_LN_16_LD_20_RN_12_RD_20_0.png","img2/100/Incongruent/R/I_Dist_100_LN_13_LD_26_RN_6_RD_10_1.png","img2/300/Incongruent/R/I_Dist_300_LN_4_LD_20_RN_2_RD_4_1.png","img2/100/Incongruent/R/I_Dist_100_LN_6_LD_12_RN_3_RD_5_1.png","img2/100/Congruent/R/C_Dist_100_LN_7_LD_14_RN_15_RD_25_1.png","img2/200/Incongruent/L/I_Dist_200_LN_7_LD_10_RN_14_RD_28_0.png","img2/300/Congruent/L/C_Dist_300_LN_20_LD_25_RN_5_RD_10_0.png","img2/100/Incongruent/L/I_Dist_100_LN_2_LD_4_RN_6_RD_15_0.png","img2/300/Incongruent/R/I_Dist_300_LN_13_LD_26_RN_12_RD_15_1.png","img2/100/Congruent/R/C_Dist_100_LN_2_LD_5_RN_6_RD_12_1.png","img2/100/Incongruent/L/I_Dist_100_LN_3_LD_6_RN_4_RD_10_0.png","img2/300/Incongruent/R/I_Dist_300_LN_13_LD_26_RN_12_RD_15_1.png","img2/300/Incongruent/R/I_Dist_300_LN_13_LD_26_RN_12_RD_15_1.png","img2/100/Congruent/L/C_Dist_100_LN_6_LD_20_RN_5_RD_25_0.png","img2/200/Incongruent/L/I_Dist_200_LN_7_LD_10_RN_14_RD_28_0.png","img2/300/Congruent/L/C_Dist_300_LN_3_LD_6_RN_2_RD_10_0.png","img2/300/Incongruent/L/I_Dist_300_LN_2_LD_4_RN_6_RD_30_0.png","img2/200/Congruent/L/C_Dist_200_LN_21_LD_30_RN_2_RD_4_0.png","img2/300/Congruent/L/C_Dist_300_LN_4_LD_10_RN_1_RD_10_0.png","img2/300/Congruent/R/C_Dist_300_LN_1_LD_3_RN_19_RD_30_1.png","img2/200/Incongruent/L/I_Dist_200_LN_1_LD_2_RN_3_RD_10_0.png","img2/200/Incongruent/L/I_Dist_200_LN_7_LD_10_RN_14_RD_28_0.png","img2/100/Incongruent/R/I_Dist_100_LN_13_LD_26_RN_6_RD_10_1.png","img2/100/Congruent/L/C_Dist_100_LN_9_LD_15_RN_8_RD_16_0.png","img2/300/Incongruent/L/I_Dist_300_LN_4_LD_5_RN_8_RD_16_0.png","img2/200/Congruent/R/C_Dist_200_LN_3_LD_6_RN_14_RD_20_1.png","img2/300/Congruent/R/C_Dist_300_LN_2_LD_10_RN_12_RD_24_1.png","img2/100/Incongruent/L/I_Dist_100_LN_3_LD_5_RN_11_RD_22_0.png","img2/200/Congruent/R/C_Dist_200_LN_3_LD_12_RN_9_RD_20_1.png","img2/100/Incongruent/L/I_Dist_100_LN_6_LD_10_RN_13_RD_26_0.png","img2/100/Incongruent/L/I_Dist_100_LN_2_LD_4_RN_6_RD_15_0.png","img2/100/Incongruent/L/I_Dist_100_LN_2_LD_4_RN_8_RD_20_0.png","img2/100/Congruent/R/C_Dist_100_LN_4_LD_10_RN_15_RD_30_1.png","img2/300/Incongruent/R/I_Dist_300_LN_13_LD_26_RN_12_RD_15_1.png","img2/300/Congruent/R/C_Dist_300_LN_3_LD_6_RN_4_RD_5_1.png","img2/200/Incongruent/R/I_Dist_200_LN_11_LD_20_RN_3_RD_4_1.png","img2/100/Congruent/R/C_Dist_100_LN_7_LD_14_RN_15_RD_25_1.png","img2/100/Incongruent/R/I_Dist_100_LN_11_LD_22_RN_9_RD_15_1.png","img2/100/Incongruent/L/I_Dist_100_LN_6_LD_10_RN_11_RD_22_0.png","img2/200/Incongruent/R/I_Dist_200_LN_7_LD_15_RN_4_RD_6_1.png","img2/200/Congruent/R/C_Dist_200_LN_3_LD_10_RN_11_RD_22_1.png","img2/300/Incongruent/R/I_Dist_300_LN_4_LD_20_RN_2_RD_4_1.png","img2/100/Congruent/R/C_Dist_100_LN_7_LD_14_RN_15_RD_25_1.png","img2/300/Congruent/R/C_Dist_300_LN_5_LD_25_RN_7_RD_14_1.png","img2/300/Incongruent/L/I_Dist_300_LN_8_LD_10_RN_9_RD_18_0.png","img2/300/Congruent/L/C_Dist_300_LN_20_LD_25_RN_14_RD_28_0.png","img2/100/Incongruent/L/I_Dist_100_LN_1_LD_2_RN_8_RD_20_0.png","img2/200/Incongruent/L/I_Dist_200_LN_1_LD_2_RN_3_RD_10_0.png","img2/200/Congruent/R/C_Dist_200_LN_3_LD_6_RN_14_RD_20_1.png","img2/300/Congruent/L/C_Dist_300_LN_11_LD_22_RN_2_RD_10_0.png","img2/100/Congruent/L/C_Dist_100_LN_6_LD_20_RN_5_RD_25_0.png","img2/100/Congruent/L/C_Dist_100_LN_9_LD_15_RN_8_RD_16_0.png"],"dist100_C":[["C_Dist_100_LN_10_LD_25_RN_3_RD_10_0.png","C_Dist_100_LN_11_LD_22_RN_4_RD_10_0.png","C_Dist_100_LN_11_LD_22_RN_6_RD_15_0.png","C_Dist_100_LN_15_LD_25_RN_13_RD_26_0.png","C_Dist_100_LN_3_LD_6_RN_2_RD_5_0.png","C_Dist_100_LN_6_LD_20_RN_5_RD_25_0.png","C_Dist_100_LN_8_LD_16_RN_2_RD_5_0.png","C_Dist_100_LN_9_LD_15_RN_8_RD_16_0.png"],["C_Dist_100_LN_1_LD_2_RN_18_RD_30_1.png","C_Dist_100_LN_1_LD_2_RN_3_RD_5_1.png","C_Dist_100_LN_12_LD_30_RN_13_RD_26_1.png","C_Dist_100_LN_2_LD_5_RN_11_RD_22_1.png","C_Dist_100_LN_2_LD_5_RN_6_RD_12_1.png","C_Dist_100_LN_3_LD_20_RN_4_RD_16_1.png","C_Dist_100_LN_4_LD_10_RN_15_RD_30_1.png","C_Dist_100_LN_4_LD_8_RN_6_RD_10_1.png","C_Dist_100_LN_6_LD_12_RN_15_RD_25_1.png","C_Dist_100_LN_7_LD_14_RN_15_RD_25_1.png","C_Dist_100_LN_7_LD_14_RN_9_RD_15_1.png"]],"dist100_I":[["I_Dist_100_LN_1_LD_2_RN_8_RD_20_0.png","I_Dist_100_LN_2_LD_4_RN_6_RD_15_0.png","I_Dist_100_LN_2_LD_4_RN_8_RD_20_0.png","I_Dist_100_LN_3_LD_5_RN_11_RD_22_0.png","I_Dist_100_LN_3_LD_5_RN_8_RD_16_0.png","I_Dist_100_LN_3_LD_6_RN_4_RD_10_0.png","I_Dist_100_LN_3_LD_9_RN_7_RD_30_0.png","I_Dist_100_LN_4_LD_8_RN_8_RD_20_0.png","I_Dist_100_LN_6_LD_10_RN_11_RD_22_0.png","I_Dist_100_LN_6_LD_10_RN_13_RD_26_0.png","I_Dist_100_LN_6_LD_10_RN_7_RD_14_0.png","I_Dist_100_LN_9_LD_10_RN_20_RD_25_0.png","I_Dist_100_LN_9_LD_15_RN_13_RD_26_0.png","I_Dist_100_LN_9_LD_15_RN_14_RD_28_0.png"],["I_Dist_100_LN_10_LD_25_RN_8_RD_16_1.png","I_Dist_100_LN_10_LD_25_RN_9_RD_18_1.png","I_Dist_100_LN_11_LD_22_RN_9_RD_15_1.png","I_Dist_100_LN_12_LD_24_RN_9_RD_15_1.png","I_Dist_100_LN_12_LD_30_RN_2_RD_4_1.png","I_Dist_100_LN_13_LD_26_RN_12_RD_20_1.png","I_Dist_100_LN_13_LD_26_RN_6_RD_10_1.png","I_Dist_100_LN_17_LD_30_RN_10_RD_15_1.png","I_Dist_100_LN_6_LD_12_RN_3_RD_5_1.png","I_Dist_100_LN_8_LD_16_RN_6_RD_10_1.png","I_Dist_100_LN_8_LD_20_RN_1_RD_2_1.png","I_Dist_100_LN_9_LD_18_RN_6_RD_10_1.png"]],"dist100_S":[["E_Dist_100_LN_2_LD_12_RN_2_RD_30_0.png","E_Dist_100_LN_6_LD_10_RN_6_RD_12_0.png"],["E_Dist_100_LN_6_LD_12_RN_6_RD_10_1.png"]],"dist200_C":[["C_Dist_200_LN_11_LD_22_RN_3_RD_10_0.png","C_Dist_200_LN_12_LD_15_RN_6_RD_10_0.png","C_Dist_200_LN_12_LD_20_RN_6_RD_15_0.png","C_Dist_200_LN_14_LD_28_RN_6_RD_20_0.png","C_Dist_200_LN_15_LD_25_RN_4_RD_10_0.png","C_Dist_200_LN_16_LD_20_RN_12_RD_20_0.png","C_Dist_200_LN_16_LD_30_RN_9_RD_27_0.png","C_Dist_200_LN_20_LD_25_RN_9_RD_15_0.png","C_Dist_200_LN_21_LD_30_RN_2_RD_4_0.png","C_Dist_200_LN_4_LD_10_RN_3_RD_15_0.png","C_Dist_200_LN_4_LD_8_RN_3_RD_10_0.png","C_Dist_200_LN_6_LD_15_RN_3_RD_15_0.png","C_Dist_200_LN_7_LD_21_RN_2_RD_15_0.png","C_Dist_200_LN_8_LD_15_RN_2_RD_6_0.png","C_Dist_200_LN_8_LD_15_RN_3_RD_9_0.png","C_Dist_200_LN_8_LD_15_RN_7_RD_21_0.png","C_Dist_200_LN_9_LD_20_RN_4_RD_16_0.png"],["C_Dist_200_LN_1_LD_2_RN_21_RD_30_1.png","C_Dist_200_LN_13_LD_26_RN_14_RD_20_1.png","C_Dist_200_LN_3_LD_10_RN_11_RD_22_1.png","C_Dist_200_LN_3_LD_10_RN_14_RD_28_1.png","C_Dist_200_LN_3_LD_10_RN_7_RD_14_1.png","C_Dist_200_LN_3_LD_12_RN_9_RD_20_1.png","C_Dist_200_LN_3_LD_6_RN_14_RD_20_1.png","C_Dist_200_LN_5_LD_10_RN_14_RD_20_1.png","C_Dist_200_LN_6_LD_12_RN_7_RD_10_1.png","C_Dist_200_LN_6_LD_20_RN_11_RD_22_1.png","C_Dist_200_LN_7_LD_15_RN_18_RD_27_1.png","C_Dist_200_LN_9_LD_30_RN_13_RD_26_1.png"]],"dist200_I":[["I_Dist_200_LN_1_LD_2_RN_3_RD_10_0.png","I_Dist_200_LN_1_LD_3_RN_2_RD_15_0.png","I_Dist_200_LN_3_LD_4_RN_11_RD_20_0.png","I_Dist_200_LN_4_LD_5_RN_6_RD_10_0.png","I_Dist_200_LN_4_LD_6_RN_14_RD_30_0.png","I_Dist_200_LN_7_LD_10_RN_12_RD_24_0.png","I_Dist_200_LN_7_LD_10_RN_14_RD_28_0.png","I_Dist_200_LN_7_LD_10_RN_8_RD_16_0.png"],["I_Dist_200_LN_11_LD_20_RN_3_RD_4_1.png","I_Dist_200_LN_14_LD_30_RN_12_RD_18_1.png","I_Dist_200_LN_14_LD_30_RN_6_RD_9_1.png","I_Dist_200_LN_3_LD_10_RN_1_RD_2_1.png","I_Dist_200_LN_4_LD_30_RN_1_RD_3_1.png","I_Dist_200_LN_6_LD_20_RN_3_RD_6_1.png","I_Dist_200_LN_7_LD_15_RN_4_RD_6_1.png","I_Dist_200_LN_7_LD_15_RN_6_RD_9_1.png","I_Dist_200_LN_9_LD_15_RN_8_RD_10_1.png"]],"dist200_S":[["E_Dist_200_LN_3_LD_6_RN_3_RD_10_0.png"],["E_Dist_200_LN_3_LD_10_RN_3_RD_6_1.png"]],"dist300_C":[["C_Dist_300_LN_11_LD_22_RN_1_RD_5_0.png","C_Dist_300_LN_11_LD_22_RN_2_RD_10_0.png","C_Dist_300_LN_11_LD_22_RN_4_RD_20_0.png","C_Dist_300_LN_12_LD_24_RN_2_RD_10_0.png","C_Dist_300_LN_18_LD_20_RN_9_RD_15_0.png","C_Dist_300_LN_20_LD_25_RN_13_RD_26_0.png","C_Dist_300_LN_20_LD_25_RN_14_RD_28_0.png","C_Dist_300_LN_20_LD_25_RN_5_RD_10_0.png","C_Dist_300_LN_20_LD_25_RN_8_RD_16_0.png","C_Dist_300_LN_20_LD_25_RN_9_RD_18_0.png","C_Dist_300_LN_24_LD_30_RN_2_RD_4_0.png","C_Dist_300_LN_24_LD_30_RN_8_RD_16_0.png","C_Dist_300_LN_3_LD_6_RN_2_RD_10_0.png","C_Dist_300_LN_4_LD_10_RN_1_RD_10_0.png","C_Dist_300_LN_4_LD_5_RN_2_RD_4_0.png","C_Dist_300_LN_8_LD_16_RN_1_RD_5_0.png","C_Dist_300_LN_9_LD_10_RN_3_RD_5_0.png"],["C_Dist_300_LN_1_LD_20_RN_7_RD_20_1.png","C_Dist_300_LN_1_LD_3_RN_19_RD_30_1.png","C_Dist_300_LN_1_LD_30_RN_8_RD_24_1.png","C_Dist_300_LN_1_LD_5_RN_11_RD_22_1.png","C_Dist_300_LN_1_LD_5_RN_3_RD_6_1.png","C_Dist_300_LN_1_LD_5_RN_6_RD_12_1.png","C_Dist_300_LN_2_LD_10_RN_12_RD_24_1.png","C_Dist_300_LN_2_LD_20_RN_10_RD_25_1.png","C_Dist_300_LN_3_LD_12_RN_11_RD_20_1.png","C_Dist_300_LN_3_LD_6_RN_4_RD_5_1.png","C_Dist_300_LN_4_LD_20_RN_13_RD_26_1.png","C_Dist_300_LN_5_LD_25_RN_6_RD_12_1.png","C_Dist_300_LN_5_LD_25_RN_7_RD_14_1.png","C_Dist_300_LN_7_LD_14_RN_20_RD_25_1.png","C_Dist_300_LN_8_LD_15_RN_10_RD_12_1.png"]],"dist300_I":[["I_Dist_300_LN_1_LD_2_RN_2_RD_10_0.png","I_Dist_300_LN_1_LD_2_RN_3_RD_15_0.png","I_Dist_300_LN_2_LD_4_RN_6_RD_30_0.png","I_Dist_300_LN_3_LD_6_RN_4_RD_20_0.png","I_Dist_300_LN_4_LD_5_RN_6_RD_12_0.png","I_Dist_300_LN_4_LD_5_RN_8_RD_16_0.png","I_Dist_300_LN_7_LD_10_RN_8_RD_20_0.png","I_Dist_300_LN_8_LD_10_RN_14_RD_28_0.png","I_Dist_300_LN_8_LD_10_RN_9_RD_18_0.png"],["I_Dist_300_LN_13_LD_26_RN_12_RD_15_1.png","I_Dist_300_LN_4_LD_20_RN_2_RD_4_1.png"]],"dist300_S":[["E_Dist_300_LN_9_LD_12_RN_9_RD_20_0.png"],["E_Dist_300_LN_18_LD_30_RN_18_RD_20_1.png","E_Dist_300_LN_3_LD_10_RN_3_RD_5_1.png","E_Dist_300_LN_9_LD_20_RN_9_RD_12_1.png"]],"dist500_C":[["C_Dist_500_LN_10_LD_13_RN_7_RD_26_0.png","C_Dist_500_LN_10_LD_15_RN_4_RD_24_0.png","C_Dist_500_LN_12_LD_16_RN_3_RD_12_0.png","C_Dist_500_LN_12_LD_18_RN_4_RD_24_0.png","C_Dist_500_LN_15_LD_18_RN_5_RD_15_0.png","C_Dist_500_LN_15_LD_20_RN_1_RD_4_0.png","C_Dist_500_LN_18_LD_27_RN_1_RD_6_0.png","C_Dist_500_LN_20_LD_24_RN_1_RD_3_0.png","C_Dist_500_LN_20_LD_24_RN_3_RD_9_0.png","C_Dist_500_LN_20_LD_24_RN_7_RD_21_0.png","C_Dist_500_LN_20_LD_28_RN_3_RD_14_0.png","C_Dist_500_LN_21_LD_28_RN_6_RD_24_0.png","C_Dist_500_LN_22_LD_28_RN_2_RD_7_0.png","C_Dist_500_LN_25_LD_30_RN_9_RD_27_0.png","C_Dist_500_LN_4_LD_6_RN_1_RD_6_0.png","C_Dist_500_LN_5_LD_6_RN_2_RD_6_0.png","C_Dist_500_LN_6_LD_9_RN_1_RD_6_0.png","C_Dist_500_LN_7_LD_10_RN_1_RD_5_0.png","C_Dist_500_LN_8_LD_12_RN_1_RD_6_0.png","C_Dist_500_LN_8_LD_12_RN_4_RD_24_0.png"],["C_Dist_500_LN_1_LD_4_RN_12_RD_16_1.png","C_Dist_500_LN_1_LD_4_RN_9_RD_12_1.png","C_Dist_500_LN_1_LD_9_RN_11_RD_18_1.png","C_Dist_500_LN_10_LD_24_RN_22_RD_24_1.png","C_Dist_500_LN_2_LD_12_RN_10_RD_15_1.png","C_Dist_500_LN_2_LD_12_RN_12_RD_18_1.png","C_Dist_500_LN_2_LD_12_RN_4_RD_6_1.png","C_Dist_500_LN_2_LD_24_RN_7_RD_12_1.png","C_Dist_500_LN_2_LD_5_RN_18_RD_20_1.png","C_Dist_500_LN_2_LD_5_RN_9_RD_10_1.png","C_Dist_500_LN_2_LD_8_RN_12_RD_16_1.png","C_Dist_500_LN_2_LD_8_RN_21_RD_28_1.png","C_Dist_500_LN_3_LD_10_RN_4_RD_5_1.png","C_Dist_500_LN_3_LD_12_RN_15_RD_20_1.png","C_Dist_500_LN_3_LD_30_RN_6_RD_10_1.png","C_Dist_500_LN_3_LD_8_RN_14_RD_16_1.png","C_Dist_500_LN_4_LD_16_RN_15_RD_20_1.png","C_Dist_500_LN_4_LD_24_RN_12_RD_18_1.png","C_Dist_500_LN_5_LD_14_RN_6_RD_7_1.png","C_Dist_500_LN_7_LD_21_RN_20_RD_24_1.png","C_Dist_500_LN_7_LD_28_RN_12_RD_16_1.png","C_Dist_500_LN_7_LD_28_RN_9_RD_12_1.png","C_Dist_500_LN_9_LD_27_RN_20_RD_24_1.png"]],"dist500_I":[["I_Dist_500_LN_2_LD_3_RN_4_RD_24_0.png","I_Dist_500_LN_5_LD_6_RN_6_RD_18_0.png","I_Dist_500_LN_7_LD_8_RN_9_RD_24_0.png"],["I_Dist_500_LN_7_LD_21_RN_5_RD_6_1.png"]],"dist500_S":[["E_Dist_500_LN_6_LD_8_RN_6_RD_24_0.png"],["E_Dist_500_LN_2_LD_12_RN_2_RD_3_1.png","E_Dist_500_LN_6_LD_24_RN_6_RD_8_1.png"]]}},{"start_time":1551881920148,"click_time":1551881933518,"finger_time":1551881929758,"fix_duration":668.4254749939623,"trial":1,"RT":9610,"MT":3760,"sideResp":2,"stimulus":[],"xmouse":[776,776,776,776,776,776,776,776,776,776,776,776,776,776,776,776,776,776,776,776,776,776,776,776,776,776,776,776,776,776,776,776,776,776,776,776,776,776,776,776,776,776,776,776,776,776,776,776,776,776,776,776,776,776,776,776,776,776,776,776,776,776,776,776,776,776,776,776,776,776,776,776,776,776,776,776,776,776,776,776,776,776,776,776,776,776,776,776,776,776,776,776,776,776,776,776,776,776,776,776,776,776,776,776,776,776,776,776,776,776,776,776,776,776,776,776,776,776,776,776,776,776,776,776,776,776,776,776,776,776,776,776,776,776,776,776,776,776,776,776,776,776,776,776,776,776,776,776,776,776,776,776,776,776,776,776,776,776,776,776,776,776,776,776,776,776,776,776,776,776,776,776,776,776,776,776,776,776,776,776,776,776,776,776,776,776,776,776,776,776,776,776,776,776,776,776,776,776,776,776,776,776,776,776,776,776,776,776,776,776,776,776,776,776,776,776,776,776,776,776,776,776,776,776,776,776,776,776,776,776,776,776,776,776,776,776,776,776,776,776,776,776,776,776,776,776,776,776,776,776,776,776,776,776,776,776,776,776,776,776,776,776,776,776,776,776,776,776,776,776,776,776,776,776,776,776,776,776,776,776,776,776,776,776,776,776,776,776,776,776,776,776,776,776,776,776,776,776,776,776,776,776,776,776,776,776,776,776,776,776,776,776,776,776,776,776,776,776,776,776,776,776,776,776,776,776,776,776,776,776,776,776,776,776,776,776,776,776,776,776,776,776,776,776,776,776,776,776,776,776,776,776,776,776,776,776,776,776,776,776,776,776,776,776,776,776,776,776,776,776,776,776,776,776,776,776,776,776,776,776,776,776,776,776,776,776,776,776,776,776,776,776,776,776,776,776,776,776,776,776,776,776,776,776,776,776,776,776,776,776,776,776,776,776,776,776,776,776,776,776,776,776,776,776,776,776,776,776,776,776,776,776,776,776,776,776,776,776,776,776,776,776,776,776,776,776,776,780,812,821,821,821,821,821,821,821,821,821,821,821,821,821,821,821,821,821,822,822,824,827,827,827,827,827,827,827,827,827,827,826,824,823,828,840,850,856,859,859,859,859,859,859,852,846,840,834,826,819,818,818,818,818,818,818,815,813,811,807,805,802,799,797,794,794,794,794,794,794,794,794,794,794,794,794,794,794,794,794,794,794,794,794,794,794,794,794,794,794,794,794,794,794,794,794,794,794,794,794,794,794,794,794,794,794,794,794,794,794,794,794,794,794,794,794,794,794,794,794,794,794,794,794,794,794,794,794,794,794,794,794,794,794,794,794,794,794,794,794,794,794,794,794,794,794,794,794,794,794,794,794,794,794,794,794,794,794,794,794,794,794,794,794,794,794,794,794,794,794,794,794,794,794,794,794,794,794,794,794,794,794,794,794,794,794,794,794,825,937,1013,1106,1199,1276,1448,1480,1495,1499,1502,1502,1502,1502,1502,1502,1489,1461,1440,1420,1401,1364,1342,1317,1294,1272,1247,1198,1187,1177,1166,1139],"ymouse":[632,632,632,632,632,632,632,632,632,632,632,632,632,632,632,632,632,632,632,632,632,632,632,632,632,632,632,632,632,632,632,632,632,632,632,632,632,632,632,632,632,632,632,632,632,632,632,632,632,632,632,632,632,632,632,632,632,632,632,632,632,632,632,632,632,632,632,632,632,632,632,632,632,632,632,632,632,632,632,632,632,632,632,632,632,632,632,632,632,632,632,632,632,632,632,632,632,632,632,632,632,632,632,632,632,632,632,632,632,632,632,632,632,632,632,632,632,632,632,632,632,632,632,632,632,632,632,632,632,632,632,632,632,632,632,632,632,632,632,632,632,632,632,632,632,632,632,632,632,632,632,632,632,632,632,632,632,632,632,632,632,632,632,632,632,632,632,632,632,632,632,632,632,632,632,632,632,632,632,632,632,632,632,632,632,632,632,632,632,632,632,632,632,632,632,632,632,632,632,632,632,632,632,632,632,632,632,632,632,632,632,632,632,632,632,632,632,632,632,632,632,632,632,632,632,632,632,632,632,632,632,632,632,632,632,632,632,632,632,632,632,632,632,632,632,632,632,632,632,632,632,632,632,632,632,632,632,632,632,632,632,632,632,632,632,632,632,632,632,632,632,632,632,632,632,632,632,632,632,632,632,632,632,632,632,632,632,632,632,632,632,632,632,632,632,632,632,632,632,632,632,632,632,632,632,632,632,632,632,632,632,632,632,632,632,632,632,632,632,632,632,632,632,632,632,632,632,632,632,632,632,632,632,632,632,632,632,632,632,632,632,632,632,632,632,632,632,632,632,632,632,632,632,632,632,632,632,632,632,632,632,632,632,632,632,632,632,632,632,632,632,632,632,632,632,632,632,632,632,632,632,632,632,632,632,632,632,632,632,632,632,632,632,632,632,632,632,632,632,632,632,632,632,632,632,632,632,632,632,632,632,632,632,632,632,632,632,632,632,632,632,632,632,632,632,632,632,632,632,632,632,632,632,632,632,632,632,632,632,632,632,632,632,632,632,632,630,624,611,609,609,609,609,609,609,609,609,609,609,609,609,609,609,609,609,609,609,609,606,597,589,584,578,576,575,575,575,575,575,572,568,558,525,492,468,453,444,441,441,441,441,446,472,486,499,510,520,531,532,532,532,532,532,535,541,546,554,572,581,590,597,602,608,609,609,609,609,609,609,609,609,609,609,609,609,609,609,609,609,609,609,609,609,609,609,609,609,609,609,609,609,609,609,609,609,609,609,609,609,609,609,609,609,609,609,609,609,609,609,609,609,609,609,609,609,609,609,609,609,609,609,609,609,609,609,609,609,609,609,609,609,609,609,609,609,609,609,609,609,609,609,609,609,609,609,609,609,609,609,609,609,609,609,609,609,609,609,609,609,609,609,609,609,609,609,609,609,609,609,609,609,609,609,609,609,609,609,609,609,609,609,609,609,609,609,609,580,499,428,360,285,225,121,100,89,84,80,78,74,74,73,73,71,71,71,71,71,69,63,57,50,43,39,32,31,31,31,34],"timestamp_mouse":[9,49,69,90,109,130,149,169,189,209,229,249,269,291,310,329,349,370,389,411,429,449,470,490,509,529,550,569,590,609,630,649,671,689,709,729,749,771,789,810,829,850,870,890,909,931,949,969,989,1010,1031,1051,1070,1089,1111,1129,1149,1169,1189,1209,1229,1250,1271,1290,1309,1329,1351,1369,1390,1410,1431,1449,1469,1490,1511,1530,1549,1569,1589,1610,1631,1650,1669,1689,1709,1730,1749,1769,1789,1810,1830,1849,1870,1890,1910,1929,1949,1970,1991,2009,2031,2049,2069,2089,2110,2131,2149,2169,2190,2209,2229,2249,2271,2290,2311,2330,2349,2370,2389,2409,2429,2449,2469,2489,2509,2530,2550,2570,2590,2610,2630,2650,2671,2689,2709,2730,2750,2769,2789,2809,2830,2850,2871,2889,2910,2930,2949,2969,2991,3009,3030,3050,3071,3090,3110,3130,3149,3169,3189,3211,3230,3250,3270,3290,3310,3329,3349,3369,3390,3411,3430,3450,3469,3489,3510,3530,3550,3571,3590,3610,3630,3649,3670,3690,3710,3729,3750,3769,3790,3810,3830,3850,3871,3890,3909,3930,3950,3969,3989,4011,4030,4050,4069,4089,4110,4131,4150,4170,4190,4210,4229,4250,4270,4289,4310,4330,4349,4370,4390,4409,4429,4449,4469,4490,4509,4530,4549,4569,4589,4609,4629,4650,4669,4689,4710,4729,4749,4769,4790,4811,4829,4849,4870,4889,4909,4930,4950,4970,4990,5009,5030,5049,5069,5090,5110,5130,5150,5170,5190,5210,5229,5250,5269,5289,5309,5331,5349,5370,5390,5409,5430,5449,5469,5489,5509,5529,5549,5569,5590,5609,5629,5651,5669,5690,5709,5730,5749,5770,5790,5809,5830,5851,5869,5890,5910,5930,5950,5969,5989,6009,6029,6049,6069,6089,6109,6129,6149,6169,6189,6209,6231,6250,6270,6289,6309,6331,6350,6370,6389,6409,6430,6449,6470,6490,6510,6530,6550,6569,6589,6609,6629,6649,6671,6689,6710,6729,6750,6769,6790,6811,6830,6850,6871,6890,6909,6930,6949,6969,6990,7010,7029,7049,7069,7090,7110,7129,7150,7170,7189,7210,7231,7250,7270,7290,7310,7329,7350,7369,7390,7410,7430,7449,7470,7489,7509,7529,7550,7569,7589,7609,7629,7649,7669,7689,7710,7729,7749,7770,7789,7810,7829,7850,7870,7889,7909,7929,7949,7969,7990,8009,8029,8050,8069,8089,8110,8129,8150,8170,8189,8209,8229,8249,8270,8290,8309,8330,8349,8371,8389,8409,8430,8449,8469,8489,8509,8530,8549,8569,8589,8609,8629,8649,8669,8689,8710,8730,8750,8770,8789,8809,8830,8850,8870,8890,8910,8930,8949,8969,8989,9010,9029,9049,9069,9090,9110,9130,9149,9170,9189,9211,9230,9250,9269,9290,9310,9329,9350,9369,9389,9410,9430,9450,9470,9489,9509,9530,9550,9569,9589,9610,9629,9650,9670,9689,9709,9730,9750,9770,9789,9811,9829,9850,9870,9889,9909,9930,9949,9970,9989,10010,10029,10049,10069,10089,10110,10129,10149,10170,10189,10209,10229,10249,10270,10289,10309,10329,10351,10369,10389,10410,10429,10449,10469,10490,10509,10531,10549,10571,10589,10609,10630,10649,10670,10689,10709,10729,10749,10770,10789,10810,10829,10851,10870,10891,10909,10929,10950,10970,10990,11010,11030,11050,11070,11090,11110,11129,11150,11171,11190,11210,11229,11250,11269,11289,11309,11330,11349,11369,11389,11411,11430,11450,11470,11489,11510,11529,11550,11569,11590,11609,11630,11650,11670,11690,11710,11729,11750,11770,11789,11809,11830,11850,11869,11890,11911,11929,11950,11970,11989,12010,12031,12049,12070,12089,12109,12129,12149,12169,12189,12210,12229,12249,12270,12289,12310,12331,12350,12369,12390,12411,12429,12449,12469,12490,12511,12530,12550,12569,12589,12610,12630,12649,12670,12690,12710,12729,12749,12770,12789,12809,12829,12850,12870,12889,12910,12929,12949,12970,12990,13010,13031,13050,13070,13089,13109,13129,13149,13170,13189,13211,13229,13250,13269,13289,13309,13329,13350,13370],"xSR":741.5,"ySR":573.95,"xT1":424.9,"yT1":0,"xT2":1058.1,"yT2":0,"toosoon":0,"cond_shown":"Congruent","ratio_trial":100,"L_num":2,"L_den":5,"R_num":6,"R_den":12,"correct_side":2,"subjID":"laurasalomeguerrero9","gender":"1","school":"6","age":"11"},{"start_time":1551881940949,"click_time":1551881944638,"finger_time":1551881943457,"fix_duration":250,"trial":2,"RT":2508,"MT":1181,"sideResp":2,"stimulus":[],"xmouse":[758,758,758,758,760,760,760,760,760,760,760,760,760,760,760,760,760,760,760,760,760,760,760,760,760,760,760,760,760,760,760,760,760,760,760,760,760,760,760,760,760,760,760,760,760,760,760,760,760,760,760,760,760,760,760,760,760,760,760,760,760,760,760,760,760,760,760,760,760,760,760,760,760,760,760,760,760,760,760,760,760,760,760,760,760,760,760,760,760,760,760,760,760,760,760,760,760,760,760,760,760,760,760,760,760,760,760,760,760,760,760,760,760,760,760,760,760,760,760,760,760,760,760,760,746,732,723,715,711,709,709,709,709,709,709,709,709,709,709,709,709,709,709,709,709,711,716,717,718,718,718,718,719,723,725,727,728,730,732,748,760,773,787,798,823,832,837,842,843,844,844,846,850,863,889,905,924,946,966,1012,1035,1060,1099,1111,1158],"ymouse":[646,646,646,645,644,644,644,644,644,644,644,644,644,644,644,644,644,644,644,644,644,644,644,644,644,644,644,644,644,644,644,644,644,644,644,644,644,644,644,644,644,644,644,644,644,644,644,644,644,644,644,644,644,644,644,644,644,644,644,644,644,644,644,644,644,644,644,644,644,644,644,644,644,644,644,644,644,644,644,644,644,644,644,644,644,644,644,644,644,644,644,644,644,644,644,644,644,644,644,644,644,644,644,644,644,644,644,644,644,644,644,644,644,644,644,644,644,644,644,644,644,644,644,644,632,622,613,606,600,593,593,593,593,593,593,593,593,593,593,593,593,593,593,593,593,592,595,596,596,596,596,596,597,597,598,598,598,599,599,599,599,599,598,595,581,575,571,568,567,567,566,564,560,549,526,513,496,476,453,388,344,284,199,168,52],"timestamp_mouse":[8,37,48,69,89,108,128,150,169,190,209,228,248,269,289,309,330,348,368,389,408,428,448,468,489,508,528,549,568,589,609,628,649,668,693,708,730,749,770,789,808,828,848,868,889,908,928,948,968,988,1008,1028,1049,1069,1089,1109,1129,1149,1169,1189,1208,1228,1248,1270,1288,1308,1330,1348,1369,1388,1408,1428,1448,1468,1489,1509,1528,1548,1568,1589,1608,1628,1648,1668,1688,1709,1728,1750,1769,1788,1808,1828,1848,1868,1888,1908,1928,1949,1968,1988,2009,2028,2050,2069,2088,2108,2128,2148,2168,2188,2208,2229,2248,2270,2289,2309,2328,2348,2368,2388,2408,2428,2448,2468,2488,2508,2528,2548,2568,2588,2608,2628,2648,2669,2689,2709,2729,2749,2770,2789,2808,2830,2848,2869,2889,2909,2929,2948,2969,2988,3009,3028,3048,3069,3088,3108,3130,3149,3168,3188,3210,3229,3249,3269,3289,3308,3328,3348,3369,3390,3408,3429,3448,3468,3488,3509,3528,3548,3568,3588,3608,3629,3648,3668,3689],"xSR":741.5,"ySR":573.95,"xT1":424.9,"yT1":0,"xT2":1058.1,"yT2":0,"toosoon":0,"cond_shown":"Congruent","ratio_trial":300,"L_num":20,"L_den":25,"R_num":8,"R_den":16,"correct_side":1,"subjID":"laurasalomeguerrero9","gender":"1","school":"6","age":"11"},{"start_time":1551881946765,"click_time":1551881949497,"finger_time":1551881948857,"fix_duration":426.22065820725953,"trial":3,"RT":2092,"MT":640,"sideResp":1,"stimulus":[],"xmouse":[767,767,767,767,767,767,767,767,767,767,767,767,767,767,767,767,767,767,767,767,767,767,767,767,767,767,767,767,767,767,767,767,767,767,767,767,767,767,767,767,767,767,767,767,767,767,767,767,767,767,767,767,767,767,767,767,767,767,767,767,767,767,767,767,767,767,767,767,767,767,767,767,767,767,767,767,767,767,767,767,767,767,767,767,767,767,767,767,767,767,767,767,767,767,767,767,766,764,762,760,758,755,751,745,741,737,733,728,716,707,699,691,677,661,653,643,633,616,590,586,584,581,577,562,553,548,545,545,545,542,538,536,533,530,526,519,512],"ymouse":[648,648,648,648,648,648,648,648,648,648,648,648,648,648,648,648,648,648,648,648,648,648,648,648,648,648,648,648,648,648,648,648,648,648,648,648,648,648,648,648,648,648,648,648,648,648,648,648,648,648,648,648,648,648,648,648,648,648,648,648,648,648,648,648,648,648,648,648,648,648,648,648,648,648,648,648,648,648,648,648,648,648,648,648,648,648,648,648,648,648,648,648,648,648,648,648,645,642,634,630,625,619,609,592,583,572,560,547,522,513,501,492,476,451,435,415,392,361,313,294,276,260,238,209,197,190,187,187,186,179,169,164,155,136,120,100,83],"timestamp_mouse":[13,37,53,73,92,113,133,153,174,192,212,233,253,272,293,312,333,352,373,393,413,432,452,473,492,513,533,552,572,593,614,632,652,673,692,712,732,753,772,792,812,832,852,874,892,913,932,952,972,992,1012,1033,1053,1073,1092,1113,1134,1152,1172,1192,1212,1232,1253,1272,1293,1313,1332,1352,1372,1393,1413,1432,1453,1472,1492,1513,1533,1552,1573,1592,1612,1633,1652,1673,1693,1712,1732,1754,1773,1793,1813,1833,1852,1872,1894,1912,1932,1953,1972,1992,2013,2033,2052,2072,2092,2112,2132,2152,2172,2192,2213,2233,2252,2273,2293,2312,2333,2352,2372,2392,2412,2432,2452,2473,2492,2512,2532,2553,2572,2592,2612,2633,2653,2672,2692,2712,2732],"xSR":741.5,"ySR":573.95,"xT1":424.9,"yT1":0,"xT2":1058.1,"yT2":0,"toosoon":0,"cond_shown":"Incongruent","ratio_trial":200,"L_num":1,"L_den":2,"R_num":3,"R_den":10,"correct_side":1,"subjID":"laurasalomeguerrero9","gender":"1","school":"6","age":"11"},{"start_time":1551881957773,"click_time":1551881960559,"finger_time":1551881959937,"fix_duration":994.5922475261772,"trial":4,"RT":2164,"MT":622,"sideResp":2,"stimulus":[],"xmouse":[781,781,781,781,781,781,781,781,781,781,781,781,781,781,781,781,781,781,781,781,781,781,781,781,781,781,781,781,781,781,781,781,781,781,781,781,781,781,781,781,781,781,781,781,781,781,781,781,781,781,781,781,781,781,781,781,781,781,781,781,781,781,781,781,781,781,781,781,781,781,781,781,781,781,781,781,781,781,781,778,776,771,764,760,760,759,759,759,759,758,758,758,758,758,758,758,758,758,758,758,758,758,758,758,758,758,758,758,767,780,794,812,837,898,924,944,961,986,994,1000,1008,1015,1020,1024,1025,1027,1028,1033,1039,1042,1042,1043,1045,1048,1051,1055,1061,1068,1075,1077],"ymouse":[637,637,637,637,637,637,637,637,637,637,637,637,637,637,637,637,637,637,637,637,637,637,637,637,637,637,637,637,637,637,637,637,637,637,637,637,637,637,637,637,637,637,637,637,637,637,637,637,637,637,637,637,637,637,637,637,637,637,637,637,637,637,637,637,637,637,637,637,637,637,637,637,637,637,637,637,637,637,637,631,624,613,597,589,588,586,586,585,585,584,583,583,583,583,583,583,583,583,583,583,583,583,583,583,583,583,583,583,569,555,536,518,499,451,420,397,376,340,324,311,296,281,259,233,219,208,201,190,175,167,161,156,152,141,136,130,123,115,103,98],"timestamp_mouse":[9,37,45,66,84,105,125,146,165,184,205,224,246,264,285,305,324,345,366,384,405,425,445,464,486,505,526,545,565,585,604,625,646,664,684,705,726,745,765,785,805,825,845,865,884,906,925,945,965,985,1006,1025,1045,1065,1085,1104,1125,1145,1165,1185,1206,1225,1244,1265,1285,1304,1325,1346,1364,1384,1405,1426,1444,1464,1486,1504,1525,1545,1564,1584,1605,1625,1645,1664,1684,1704,1724,1745,1764,1784,1805,1824,1846,1866,1886,1905,1925,1945,1965,1984,2005,2025,2046,2064,2085,2104,2126,2144,2164,2184,2205,2225,2245,2265,2284,2304,2325,2346,2364,2385,2404,2425,2444,2465,2485,2504,2524,2545,2564,2585,2605,2624,2644,2664,2684,2706,2724,2744,2764,2786],"xSR":741.5,"ySR":573.95,"xT1":424.9,"yT1":0,"xT2":1058.1,"yT2":0,"toosoon":0,"cond_shown":"Incongruent","ratio_trial":200,"L_num":11,"L_den":20,"R_num":3,"R_den":4,"correct_side":2,"subjID":"laurasalomeguerrero9","gender":"1","school":"6","age":"11"},{"start_time":1551881968031,"click_time":1551881969857,"finger_time":1551881969378,"fix_duration":1352.3038084043221,"trial":5,"RT":1347,"MT":479,"sideResp":2,"stimulus":[],"xmouse":[773,773,773,773,773,773,773,773,773,773,773,773,773,773,773,773,773,773,773,773,773,773,773,773,773,773,773,773,773,773,773,773,773,773,773,773,773,773,773,773,773,773,773,773,773,773,773,773,773,773,773,773,773,773,773,773,773,773,773,773,773,773,773,773,773,775,793,813,837,872,889,894,895,898,906,910,912,913,916,925,932,942,955,972,989,1024,1041,1054,1068,1093,1104,1107],"ymouse":[612,612,612,612,612,612,612,612,612,612,612,612,612,612,612,612,612,612,612,612,612,612,612,612,612,612,612,612,612,612,612,612,612,612,612,612,612,612,612,612,612,612,612,612,612,612,612,612,612,612,612,612,612,612,612,612,612,612,612,612,612,612,612,612,612,612,594,566,537,490,466,460,458,453,431,419,412,409,405,390,378,361,338,315,297,264,245,226,204,146,108,94],"timestamp_mouse":[8,27,46,66,87,107,127,148,166,186,207,226,248,266,287,307,326,346,366,387,406,426,446,467,487,506,528,546,567,587,606,628,647,667,687,706,728,746,768,786,806,827,847,866,887,907,927,948,966,987,1007,1027,1046,1067,1088,1106,1128,1146,1166,1188,1206,1227,1246,1267,1287,1306,1327,1347,1366,1387,1406,1427,1447,1466,1487,1506,1527,1546,1568,1587,1606,1626,1647,1667,1686,1706,1727,1748,1768,1787,1806,1826],"xSR":741.5,"ySR":573.95,"xT1":424.9,"yT1":0,"xT2":1058.1,"yT2":0,"toosoon":0,"cond_shown":"Congruent","ratio_trial":100,"L_num":11,"L_den":22,"R_num":4,"R_den":10,"correct_side":1,"subjID":"laurasalomeguerrero9","gender":"1","school":"6","age":"11"},{"start_time":1551881975601,"click_time":1551881983518,"finger_time":1551881977957,"fix_duration":1461.4474888337027,"trial":6,"RT":2356,"MT":5561,"sideResp":1,"stimulus":[],"xmouse":[762,762,762,762,762,762,762,762,762,762,762,762,762,762,762,762,762,762,762,762,762,762,762,762,762,762,762,762,762,762,762,762,762,762,762,762,762,762,762,762,762,762,762,762,762,762,762,762,762,762,762,762,762,762,762,762,762,762,762,762,762,762,762,762,762,762,762,762,762,762,762,762,762,762,762,762,762,762,762,762,762,762,762,762,762,762,762,762,762,762,762,762,762,762,762,762,762,762,762,762,762,762,762,762,762,762,762,762,762,762,762,762,762,762,762,761,754,741,726,704,677,673,671,669,665,661,645,636,626,620,616,616,616,616,616,623,647,666,689,707,722,724,724,724,724,724,724,724,724,724,724,726,728,732,736,739,741,742,742,742,742,742,744,746,747,748,748,749,751,751,751,751,751,751,751,751,751,751,751,751,751,751,751,751,751,751,751,751,751,751,751,752,752,752,753,753,754,755,756,757,765,777,784,788,790,790,790,790,790,790,790,790,790,790,790,790,790,790,790,790,790,790,795,796,797,797,797,797,797,797,797,797,797,797,797,797,797,797,797,797,797,797,797,797,797,797,797,794,793,793,793,793,793,793,793,793,793,793,793,793,793,793,793,793,793,793,793,793,793,793,793,793,793,793,793,793,793,793,793,793,793,793,793,793,793,793,793,793,793,793,789,784,780,775,771,764,756,753,752,752,752,752,752,752,752,752,752,752,752,750,752,759,760,760,760,760,760,765,768,772,775,775,775,775,775,775,775,775,775,775,775,776,776,776,776,776,776,776,776,776,776,776,776,776,776,776,776,776,776,776,776,776,776,776,776,776,776,776,776,776,776,776,776,776,776,776,777,771,748,723,703,678,676,675,674,673,666,658,652,644,631,615,605,596,587,583,580,580,580,580,580,578,567,552,535,514],"ymouse":[629,629,629,629,629,629,629,629,629,629,629,629,629,629,629,629,629,629,629,629,629,629,629,629,629,629,629,629,629,629,629,629,629,629,629,629,629,629,629,629,629,629,629,629,629,629,629,629,629,629,629,629,629,629,629,629,629,629,629,629,629,629,629,629,629,629,629,629,629,629,629,629,629,629,629,629,629,629,629,629,629,629,629,629,629,629,629,629,629,629,629,629,629,629,629,629,629,629,629,629,629,629,629,629,629,629,629,629,629,629,629,629,629,629,629,629,628,623,619,617,615,615,615,615,616,617,618,618,618,618,618,618,618,618,618,621,626,629,636,639,641,641,641,641,641,641,641,641,641,641,641,643,644,646,648,648,649,649,649,649,649,649,649,649,649,649,649,649,648,648,648,648,648,648,648,648,648,648,648,648,648,648,648,648,648,648,648,648,648,648,648,647,647,647,647,647,647,647,647,647,647,647,647,647,647,647,647,647,647,647,647,647,647,647,647,647,647,647,647,647,647,647,637,633,632,632,632,632,632,632,632,632,632,632,632,632,632,632,632,632,632,632,633,637,637,637,637,638,638,639,639,639,639,639,639,639,639,639,639,639,639,639,639,639,639,639,639,639,639,639,639,639,639,639,639,639,639,639,632,627,622,622,622,622,622,622,622,622,622,622,621,622,625,627,630,635,641,643,646,646,646,646,646,646,646,646,646,646,646,646,639,621,619,619,619,619,619,616,614,613,611,611,611,611,611,611,611,611,611,611,611,611,611,611,611,611,611,611,611,611,611,611,611,611,611,611,611,611,611,611,611,611,611,611,611,611,611,611,611,611,611,611,611,611,611,611,610,589,551,513,474,441,437,434,430,427,408,391,368,340,264,149,94,54,24,7,0,0,0,0,0,0,3,10,17,26],"timestamp_mouse":[17,46,56,76,98,116,137,157,177,196,218,236,256,278,298,316,337,356,377,397,418,436,456,477,497,517,536,558,576,597,616,638,658,677,698,717,736,757,778,796,816,837,857,877,896,918,936,957,976,996,1018,1036,1057,1077,1096,1118,1137,1158,1176,1196,1218,1237,1256,1278,1296,1316,1337,1358,1376,1397,1417,1436,1456,1477,1497,1518,1537,1556,1576,1596,1616,1636,1657,1677,1696,1716,1738,1756,1777,1797,1816,1837,1856,1877,1897,1917,1936,1956,1977,1998,2016,2036,2057,2076,2098,2116,2136,2157,2177,2198,2216,2236,2258,2276,2296,2318,2336,2356,2376,2396,2417,2436,2456,2478,2497,2516,2536,2556,2577,2597,2618,2637,2658,2676,2696,2716,2736,2758,2778,2797,2818,2836,2856,2877,2897,2917,2937,2956,2977,2996,3018,3036,3056,3076,3097,3116,3136,3156,3176,3196,3217,3237,3256,3276,3296,3317,3336,3356,3377,3396,3418,3436,3458,3476,3497,3518,3537,3557,3576,3598,3617,3637,3656,3676,3696,3716,3737,3756,3777,3796,3816,3838,3858,3876,3897,3916,3936,3956,3976,3996,4017,4036,4056,4077,4097,4118,4136,4158,4177,4197,4216,4236,4256,4276,4297,4316,4336,4356,4377,4398,4417,4437,4456,4476,4497,4517,4537,4557,4578,4596,4616,4637,4657,4677,4698,4716,4737,4758,4776,4798,4817,4836,4856,4877,4898,4916,4936,4956,4976,4998,5016,5036,5056,5076,5097,5117,5136,5157,5176,5197,5216,5238,5258,5277,5296,5317,5336,5357,5377,5398,5417,5437,5457,5477,5496,5517,5538,5558,5576,5598,5616,5636,5657,5677,5698,5716,5737,5758,5777,5798,5817,5838,5856,5877,5897,5917,5936,5957,5976,5996,6017,6036,6058,6078,6097,6117,6137,6158,6178,6198,6217,6238,6256,6276,6297,6316,6338,6357,6377,6396,6417,6437,6456,6477,6497,6517,6538,6557,6576,6597,6616,6637,6656,6677,6698,6716,6736,6756,6776,6796,6816,6836,6857,6876,6896,6918,6937,6957,6977,6997,7016,7038,7056,7077,7098,7117,7137,7157,7178,7196,7217,7236,7256,7278,7297,7317,7336,7358,7377,7397,7416,7437,7457,7478,7497,7516,7536,7557,7577,7597,7616,7638,7656,7676,7696,7716,7736,7756,7777,7797,7818,7837,7856,7877,7898,7917],"xSR":741.5,"ySR":573.95,"xT1":424.9,"yT1":0,"xT2":1058.1,"yT2":0,"toosoon":0,"cond_shown":"Congruent","ratio_trial":100,"L_num":4,"L_den":10,"R_num":15,"R_den":30,"correct_side":2,"subjID":"laurasalomeguerrero9","gender":"1","school":"6","age":"11"},{"start_time":1551881988370,"click_time":1551881990837,"finger_time":1551881989837,"fix_duration":250,"trial":7,"RT":1467,"MT":1000,"sideResp":1,"stimulus":[],"xmouse":[807,807,807,807,807,807,807,807,807,807,807,807,807,807,807,807,807,807,807,807,807,807,807,807,807,807,807,807,807,807,807,807,807,807,807,807,807,807,807,807,807,807,807,807,807,807,807,807,807,807,807,807,807,807,807,807,807,807,807,807,807,807,807,807,807,807,807,807,807,808,812,819,828,851,861,870,880,897,906,911,914,917,918,918,918,918,920,925,941,951,959,963,964,964,964,964,964,964,964,964,961,950,912,799,752,717,691,640,622,611,608,607,605,603,602,602,600,596,590,580,565,545,535,513],"ymouse":[638,638,638,638,638,638,638,638,638,638,638,638,638,638,638,638,638,638,638,638,638,638,638,638,638,638,638,638,638,638,638,638,638,638,638,638,638,638,638,638,638,638,638,638,638,638,638,638,638,638,638,638,638,638,638,638,638,638,638,638,638,638,638,638,638,638,638,638,638,628,614,596,577,537,515,487,450,389,359,339,325,316,312,312,312,312,310,304,281,263,246,233,226,221,221,221,221,221,217,214,211,207,201,186,178,169,163,140,133,126,123,122,120,116,115,115,113,110,109,107,105,101,95,78],"timestamp_mouse":[9,42,48,68,88,108,128,148,169,187,207,228,247,268,287,307,327,348,367,388,407,427,447,467,489,507,527,547,567,588,609,629,647,668,687,709,727,749,767,788,807,828,847,868,887,908,927,949,967,987,1008,1029,1048,1067,1089,1107,1129,1149,1167,1187,1208,1228,1247,1267,1288,1308,1327,1347,1367,1387,1407,1428,1447,1467,1487,1508,1528,1548,1567,1587,1608,1629,1647,1668,1687,1709,1728,1748,1767,1787,1808,1829,1847,1869,1888,1907,1927,1947,1967,1988,2008,2028,2047,2069,2088,2109,2128,2148,2167,2188,2207,2227,2248,2269,2288,2308,2327,2348,2367,2387,2407,2429,2448,2467],"xSR":741.5,"ySR":573.95,"xT1":424.9,"yT1":0,"xT2":1058.1,"yT2":0,"toosoon":0,"cond_shown":"Congruent","ratio_trial":200,"L_num":14,"L_den":28,"R_num":6,"R_den":20,"correct_side":1,"subjID":"laurasalomeguerrero9","gender":"1","school":"6","age":"11"},{"start_time":1551882004333,"click_time":1551882006938,"finger_time":1551882006257,"fix_duration":754.0536053916252,"trial":8,"RT":1924,"MT":681,"sideResp":2,"stimulus":[],"xmouse":[801,801,801,801,801,801,801,801,801,801,801,801,801,801,801,801,801,801,801,801,801,801,801,801,801,801,801,801,801,801,801,801,801,801,801,801,801,801,801,801,801,801,801,801,801,801,801,801,801,801,801,801,801,801,801,801,801,801,801,801,801,801,801,801,801,801,801,801,801,801,801,801,801,801,801,801,801,801,801,801,801,801,801,801,801,801,801,801,801,801,801,801,801,801,815,828,842,862,879,904,915,927,936,945,956,964,967,968,972,982,988,993,997,1000,1007,1010,1014,1018,1024,1030,1039,1043,1047,1051,1062,1067,1072,1079,1083,1092,1097],"ymouse":[627,627,627,627,627,627,627,627,627,627,627,627,627,627,627,627,627,627,627,627,627,627,627,627,627,627,627,627,627,627,627,627,627,627,627,627,627,627,627,627,627,627,627,627,627,627,627,627,627,627,627,627,627,627,627,627,627,627,627,627,627,627,627,627,627,627,627,627,627,627,627,627,627,627,627,627,627,627,627,627,627,627,627,627,627,627,627,627,627,627,627,627,627,627,609,592,570,541,518,481,462,443,426,406,382,354,344,333,320,290,275,264,253,248,230,225,217,210,202,195,181,176,170,164,152,145,138,128,119,102,94],"timestamp_mouse":[9,38,44,66,85,105,124,144,164,186,205,225,246,266,284,306,325,344,366,384,405,424,445,465,485,504,524,544,565,585,604,625,645,664,684,705,726,745,764,784,805,826,845,865,885,905,924,944,965,986,1004,1025,1044,1064,1085,1106,1125,1144,1165,1185,1205,1224,1245,1265,1285,1305,1326,1345,1364,1384,1405,1424,1446,1464,1484,1506,1525,1545,1564,1585,1605,1624,1646,1665,1685,1705,1725,1744,1764,1785,1804,1826,1844,1864,1885,1905,1924,1945,1965,1985,2004,2025,2045,2064,2085,2104,2125,2146,2165,2185,2204,2225,2244,2265,2285,2304,2325,2345,2365,2384,2404,2425,2444,2465,2485,2504,2525,2545,2564,2586,2604],"xSR":741.5,"ySR":573.95,"xT1":424.9,"yT1":0,"xT2":1058.1,"yT2":0,"toosoon":0,"cond_shown":"Congruent","ratio_trial":100,"L_num":3,"L_den":6,"R_num":2,"R_den":5,"correct_side":1,"subjID":"laurasalomeguerrero9","gender":"1","school":"6","age":"11"},{"start_time":1551882009134,"click_time":1551882012337,"finger_time":1551882011778,"fix_duration":475.46389311570715,"trial":9,"RT":2644,"MT":559,"sideResp":2,"stimulus":[],"xmouse":[793,793,793,793,793,793,793,793,793,793,793,793,793,793,793,793,793,793,793,793,793,793,793,793,793,793,793,793,793,793,793,793,793,793,793,793,793,793,793,793,793,793,793,793,793,793,793,793,793,793,793,793,793,793,793,793,793,793,793,793,793,793,793,793,793,793,793,793,793,793,793,793,793,793,793,793,793,793,793,793,793,793,793,793,793,793,793,793,793,793,793,793,793,793,793,793,793,793,793,793,793,793,793,793,793,793,793,793,793,793,793,793,793,793,793,793,793,793,793,793,793,793,793,793,793,793,793,793,793,793,797,803,813,827,858,881,898,916,935,954,961,965,968,974,993,1000,1007,1013,1018,1034,1039,1043,1044,1045,1045,1045,1046,1047,1050,1053,1067],"ymouse":[619,619,619,619,619,619,619,619,619,619,619,619,619,619,619,619,619,619,619,619,619,619,619,619,619,619,619,619,619,619,619,619,619,619,619,619,619,619,619,619,619,619,619,619,619,619,619,619,619,619,619,619,619,619,619,619,619,619,619,619,619,619,619,619,619,619,619,619,619,619,619,619,619,619,619,619,619,619,619,619,619,619,619,619,619,619,619,619,619,619,619,619,619,619,619,619,619,619,619,619,619,619,619,619,619,619,619,619,619,619,619,619,619,619,619,619,619,619,619,619,619,619,619,619,619,619,619,619,619,619,603,588,566,534,429,378,337,297,254,218,209,203,199,191,158,144,130,120,114,105,103,101,100,100,100,100,100,100,98,98,91],"timestamp_mouse":[9,40,44,65,83,105,125,144,164,185,203,223,245,263,284,304,324,343,365,384,403,425,443,465,484,503,524,543,563,583,604,624,643,664,684,704,723,744,764,785,804,825,843,863,884,903,924,945,964,984,1005,1024,1043,1063,1083,1104,1123,1144,1163,1183,1204,1224,1244,1263,1285,1304,1324,1343,1364,1383,1403,1423,1443,1463,1483,1505,1525,1544,1564,1583,1603,1624,1644,1664,1683,1704,1723,1744,1763,1783,1804,1823,1844,1863,1883,1903,1924,1943,1963,1983,2003,2023,2043,2065,2083,2104,2123,2144,2164,2185,2203,2225,2243,2265,2285,2303,2324,2343,2364,2383,2404,2424,2443,2464,2484,2505,2524,2544,2564,2583,2603,2625,2644,2664,2684,2703,2724,2743,2764,2784,2803,2824,2844,2863,2884,2903,2923,2944,2964,2984,3003,3024,3044,3064,3084,3104,3123,3144,3164,3184,3203],"xSR":741.5,"ySR":573.95,"xT1":424.9,"yT1":0,"xT2":1058.1,"yT2":0,"toosoon":0,"cond_shown":"Congruent","ratio_trial":200,"L_num":4,"L_den":10,"R_num":3,"R_den":15,"correct_side":1,"subjID":"laurasalomeguerrero9","gender":"1","school":"6","age":"11"},{"start_time":1551882014865,"click_time":1551882017278,"finger_time":1551882016257,"fix_duration":786.7379205888176,"trial":10,"RT":1392,"MT":1021,"sideResp":1,"stimulus":[],"xmouse":[788,788,788,788,788,788,788,788,788,788,788,788,788,788,788,788,788,788,788,788,788,788,788,788,788,788,788,788,788,788,788,788,788,788,788,788,788,788,788,788,788,788,788,788,788,788,788,788,788,788,788,788,788,788,788,788,788,788,788,788,788,788,788,788,788,788,781,773,759,749,737,731,726,726,726,726,724,720,716,710,703,695,674,659,644,629,620,600,594,591,589,588,586,584,582,580,577,563,555,546,539,532,515,508,503,501,501,501,501,501,501,501,501,501,501,501,501,501,501,499,497],"ymouse":[630,630,630,630,630,630,630,630,630,630,630,630,630,630,630,630,630,630,630,630,630,630,630,630,630,630,630,630,630,630,630,630,630,630,630,630,630,630,630,630,630,630,630,630,630,630,630,630,630,630,630,630,630,630,630,630,630,630,630,630,630,630,630,630,630,630,621,612,582,558,531,513,497,491,485,477,462,412,392,375,358,345,324,314,306,298,291,279,276,274,272,271,264,262,257,252,246,220,205,190,174,157,125,117,111,109,108,108,108,108,108,108,108,108,108,108,108,108,107,102,97],"timestamp_mouse":[13,33,52,74,92,113,133,154,173,193,213,233,253,273,293,312,333,352,372,394,412,433,452,474,492,513,532,554,572,592,614,633,654,674,693,713,734,752,772,794,812,833,853,872,894,912,932,952,973,994,1012,1034,1052,1074,1092,1112,1134,1152,1173,1193,1213,1234,1252,1272,1294,1312,1334,1352,1373,1392,1414,1433,1453,1472,1493,1513,1533,1553,1572,1592,1614,1633,1653,1672,1693,1713,1734,1753,1772,1792,1813,1833,1853,1872,1893,1912,1933,1953,1972,1993,2013,2033,2053,2072,2093,2114,2132,2153,2173,2193,2213,2233,2253,2274,2293,2312,2332,2354,2372,2392,2412],"xSR":741.5,"ySR":573.95,"xT1":424.9,"yT1":0,"xT2":1058.1,"yT2":0,"toosoon":0,"cond_shown":"Congruent","ratio_trial":100,"L_num":7,"L_den":14,"R_num":15,"R_den":25,"correct_side":2,"subjID":"laurasalomeguerrero9","gender":"1","school":"6","age":"11"},{"start_time":1551882021788,"click_time":1551882024577,"finger_time":1551882023838,"fix_duration":809.6540769544051,"trial":11,"RT":2050,"MT":739,"sideResp":2,"stimulus":[],"xmouse":[765,765,765,765,765,765,765,765,765,765,765,765,765,765,765,765,765,765,765,765,765,765,765,765,765,765,765,765,765,765,765,765,765,765,765,765,765,765,765,765,765,765,765,765,765,765,765,765,765,765,765,765,765,765,765,765,765,765,765,765,765,765,765,765,765,765,765,765,765,765,765,765,765,765,765,765,765,765,765,765,765,765,765,765,765,765,765,765,765,765,765,765,765,765,765,765,765,765,765,765,766,773,832,863,894,923,957,969,975,983,987,991,992,992,992,992,1000,1008,1016,1025,1039,1091,1124,1141,1154,1158,1159,1159,1159,1159,1159,1159,1159,1158,1157,1155,1152,1151,1150,1149],"ymouse":[620,620,620,620,620,620,620,620,620,620,620,620,620,620,620,620,620,620,620,620,620,620,620,620,620,620,620,620,620,620,620,620,620,620,620,620,620,620,620,620,620,620,620,620,620,620,620,620,620,620,620,620,620,620,620,620,620,620,620,620,620,620,620,620,620,620,620,620,620,620,620,620,620,620,620,620,620,620,620,620,620,620,620,620,620,620,620,620,620,620,620,620,620,620,620,620,620,620,620,620,617,612,570,548,524,500,452,431,415,401,387,371,350,343,337,330,312,299,288,276,257,207,179,164,151,145,143,143,143,143,140,134,130,127,124,121,111,106,101,99],"timestamp_mouse":[9,40,49,71,89,110,131,150,171,189,210,231,249,270,290,309,330,351,369,391,409,429,450,470,490,510,529,551,570,589,610,629,650,670,690,710,730,750,769,789,811,830,850,870,890,910,931,949,970,989,1009,1030,1051,1071,1089,1110,1130,1149,1169,1190,1209,1229,1250,1270,1291,1309,1331,1349,1370,1391,1411,1430,1449,1471,1490,1509,1529,1550,1569,1591,1610,1629,1650,1671,1689,1710,1730,1750,1770,1790,1810,1829,1849,1869,1891,1910,1930,1949,1970,1989,2009,2029,2050,2069,2090,2109,2130,2149,2170,2190,2209,2230,2250,2269,2289,2309,2330,2349,2370,2389,2409,2429,2449,2469,2489,2509,2529,2549,2570,2590,2609,2629,2649,2669,2690,2710,2730,2749,2769,2789],"xSR":741.5,"ySR":573.95,"xT1":424.9,"yT1":0,"xT2":1058.1,"yT2":0,"toosoon":0,"cond_shown":"Incongruent","ratio_trial":100,"L_num":10,"L_den":25,"R_num":8,"R_den":16,"correct_side":2,"subjID":"laurasalomeguerrero9","gender":"1","school":"6","age":"11"},{"start_time":1551882030305,"click_time":1551882033558,"finger_time":1551882032737,"fix_duration":906.3577399450643,"trial":12,"RT":2432,"MT":821,"sideResp":1,"stimulus":[],"xmouse":[813,813,813,813,813,813,813,813,813,813,813,813,813,813,813,813,813,813,813,813,813,813,813,813,813,813,813,813,813,813,813,813,813,813,813,813,813,813,813,813,813,813,813,813,813,813,813,813,813,813,813,813,813,813,813,813,813,813,813,813,813,813,813,813,813,813,813,813,813,813,813,813,813,813,813,813,813,813,813,813,813,813,813,813,813,813,813,813,813,813,813,813,813,813,813,813,813,813,813,813,813,813,813,813,813,813,813,813,813,813,813,813,813,813,809,805,775,766,758,754,748,740,727,712,687,638,611,598,587,580,573,573,572,571,569,563,559,557,554,551,540,536,532,526,522,511,505,502,501,500,499,499,499,499,498,498,498,498,498,498,498,497,497],"ymouse":[618,618,618,618,618,618,618,618,618,618,618,618,618,618,618,618,618,618,618,618,618,618,618,618,618,618,618,618,618,618,618,618,618,618,618,618,618,618,618,618,618,618,618,618,618,618,618,618,618,618,618,618,618,618,618,618,618,618,618,618,618,618,618,618,618,618,618,618,618,618,618,618,618,618,618,618,618,618,618,618,618,618,618,618,618,618,618,618,618,618,618,618,618,618,618,618,618,618,618,618,618,618,618,618,618,618,618,618,618,618,618,618,618,618,618,617,601,598,594,591,587,579,565,539,492,407,362,342,328,318,310,308,306,302,297,282,269,260,254,246,220,206,192,179,170,140,123,116,113,110,109,109,109,109,108,108,108,108,107,107,102,101,99],"timestamp_mouse":[13,34,53,73,92,114,134,153,172,192,213,233,254,273,294,312,333,353,373,394,412,433,454,472,493,514,532,554,572,593,612,633,652,672,692,712,732,752,772,792,812,833,853,874,892,913,932,953,974,992,1012,1032,1053,1072,1092,1112,1132,1153,1172,1194,1213,1232,1266,1272,1292,1313,1333,1353,1372,1393,1413,1433,1452,1474,1492,1512,1532,1552,1573,1592,1613,1632,1654,1674,1692,1712,1732,1754,1773,1794,1812,1832,1852,1872,1892,1912,1934,1953,1974,1992,2013,2033,2052,2073,2092,2113,2132,2154,2172,2192,2212,2233,2252,2272,2292,2312,2333,2352,2373,2393,2412,2432,2452,2472,2493,2512,2534,2552,2573,2592,2612,2632,2652,2672,2694,2712,2734,2752,2772,2792,2812,2832,2852,2872,2894,2912,2933,2952,2973,2993,3013,3033,3053,3072,3093,3113,3133,3152,3173,3192,3212,3233,3253],"xSR":741.5,"ySR":573.95,"xT1":424.9,"yT1":0,"xT2":1058.1,"yT2":0,"toosoon":0,"cond_shown":"Incongruent","ratio_trial":100,"L_num":6,"L_den":12,"R_num":3,"R_den":5,"correct_side":2,"subjID":"laurasalomeguerrero9","gender":"1","school":"6","age":"11"},{"start_time":1551882036207,"click_time":1551882038798,"finger_time":1551882037997,"fix_duration":968.9880091720993,"trial":13,"RT":1790,"MT":801,"sideResp":2,"stimulus":[],"xmouse":[781,781,781,781,781,781,781,781,781,781,781,781,781,781,781,781,781,781,781,781,781,781,781,781,781,781,781,781,781,781,781,781,781,781,781,781,781,781,781,781,781,781,781,781,781,781,781,781,781,781,781,781,781,781,781,781,781,781,781,781,781,781,781,781,781,781,781,781,781,781,781,781,781,781,781,781,781,781,781,781,781,781,781,781,781,786,792,797,803,810,822,834,843,856,870,898,913,927,939,950,973,983,995,1000,1006,1014,1016,1019,1023,1025,1029,1031,1033,1035,1039,1052,1061,1068,1075,1079,1081,1081,1081,1081,1081,1083,1086,1090,1095,1099],"ymouse":[601,601,601,601,601,601,601,601,601,601,601,601,601,601,601,601,601,601,601,601,601,601,601,601,601,601,601,601,601,601,601,601,601,601,601,601,601,601,601,601,601,601,601,601,601,601,601,601,601,601,601,601,601,601,601,601,601,601,601,601,601,601,601,601,601,601,601,601,601,601,601,601,601,601,601,601,601,601,601,601,601,601,601,601,601,599,591,585,578,573,562,550,537,520,499,450,424,400,377,358,319,304,283,270,256,235,228,222,215,209,202,200,196,194,190,172,161,151,142,134,130,130,130,130,130,125,118,110,101,94],"timestamp_mouse":[11,43,51,70,92,110,132,151,170,192,211,231,251,270,292,310,330,351,370,391,410,430,451,470,490,512,531,550,570,591,610,631,650,671,691,711,730,751,770,791,810,831,850,871,890,912,931,951,970,990,1010,1031,1051,1070,1090,1110,1130,1150,1170,1190,1211,1232,1250,1270,1291,1310,1331,1350,1370,1391,1410,1431,1451,1470,1491,1510,1530,1551,1570,1591,1612,1630,1650,1671,1690,1710,1730,1751,1771,1790,1810,1830,1850,1870,1890,1911,1931,1950,1970,1992,2010,2030,2050,2071,2091,2110,2130,2151,2171,2192,2210,2230,2250,2272,2291,2310,2330,2350,2370,2391,2411,2432,2452,2470,2490,2510,2531,2552,2571,2591],"xSR":741.5,"ySR":573.95,"xT1":424.9,"yT1":0,"xT2":1058.1,"yT2":0,"toosoon":0,"cond_shown":"Congruent","ratio_trial":300,"L_num":20,"L_den":25,"R_num":8,"R_den":16,"correct_side":1,"subjID":"laurasalomeguerrero9","gender":"1","school":"6","age":"11"},{"start_time":1551882041214,"click_time":1551882046798,"finger_time":1551882045417,"fix_duration":734.5099318802277,"trial":14,"RT":4203,"MT":1381,"sideResp":1,"stimulus":[],"xmouse":[755,755,755,755,755,756,756,758,759,760,762,762,762,762,762,762,762,762,762,762,762,762,762,762,762,762,762,762,762,762,762,762,762,762,762,762,762,762,762,762,762,762,762,762,762,762,762,762,762,762,762,762,762,762,762,762,762,762,762,762,762,762,762,762,762,762,762,762,762,762,762,762,762,762,762,762,762,762,762,762,762,762,762,762,762,762,762,762,762,762,762,762,762,762,762,762,762,762,762,762,762,762,762,762,762,762,762,762,762,762,762,762,762,762,762,762,762,762,762,762,762,762,762,762,762,762,762,762,762,762,762,762,762,762,762,762,762,762,762,762,762,762,762,762,762,762,762,762,762,762,762,762,762,762,762,762,762,762,762,762,762,762,762,762,762,762,762,762,762,762,762,762,762,762,762,762,762,762,762,762,762,762,762,762,762,762,762,762,762,762,762,762,762,762,762,762,762,762,762,762,762,761,760,758,754,749,748,747,746,744,739,729,722,712,702,684,679,672,668,664,655,653,652,650,649,642,633,616,600,596,594,594,594,594,594,594,594,594,594,594,594,594,594,594,594,594,594,594,594,594,594,594,594,594,594,594,594,594,594,594,594,594,594,594,591,586,583,580,578,576,573,571,565,556,547,541,539,535,531,524],"ymouse":[616,616,616,616,616,617,617,617,618,619,620,620,620,620,620,620,620,620,620,620,620,620,620,620,620,620,620,620,620,620,620,620,620,620,620,620,620,620,620,620,620,620,620,620,620,620,620,620,620,620,620,620,620,620,620,620,620,620,620,620,620,620,620,620,620,620,620,620,620,620,620,620,620,620,620,620,620,620,620,620,620,620,620,620,620,620,620,620,620,620,620,620,620,620,620,620,620,620,620,620,620,620,620,620,620,620,620,620,620,620,620,620,620,620,620,620,620,620,620,620,620,620,620,620,620,620,620,620,620,620,620,620,620,620,620,620,620,620,620,620,620,620,620,620,620,620,620,620,620,620,620,620,620,620,620,620,620,620,620,620,620,620,620,620,620,620,620,620,620,620,620,620,620,620,620,620,620,620,620,620,620,620,620,620,620,620,620,620,620,620,620,620,620,620,620,620,620,620,620,620,620,614,611,607,602,594,592,591,589,587,580,569,561,551,541,521,515,506,500,494,478,474,470,464,458,431,394,337,283,255,232,231,230,230,230,230,230,230,230,230,230,230,230,230,230,230,230,230,230,230,230,230,230,230,230,230,230,230,230,226,208,194,174,161,155,145,141,139,137,135,134,133,132,129,125,122,120,116,106,91],"timestamp_mouse":[12,38,44,64,83,103,123,143,164,184,204,225,243,264,283,303,323,345,364,384,404,425,443,464,483,504,525,544,565,583,603,623,645,664,683,704,724,744,765,783,803,823,843,864,883,904,923,943,965,983,1003,1025,1044,1063,1084,1104,1124,1144,1164,1184,1203,1225,1244,1263,1284,1304,1324,1344,1364,1383,1404,1423,1444,1463,1484,1504,1524,1543,1565,1583,1604,1623,1643,1663,1683,1703,1724,1744,1763,1783,1804,1823,1844,1864,1883,1904,1923,1943,1964,1984,2004,2024,2043,2065,2084,2103,2124,2143,2165,2184,2203,2223,2243,2265,2284,2304,2324,2343,2363,2383,2403,2423,2443,2464,2484,2503,2524,2543,2563,2583,2603,2623,2644,2664,2684,2703,2723,2744,2764,2784,2804,2823,2843,2863,2883,2903,2923,2944,2963,2983,3003,3023,3043,3065,3083,3103,3124,3143,3163,3185,3203,3224,3244,3263,3283,3304,3324,3345,3363,3385,3403,3423,3443,3464,3485,3504,3523,3543,3565,3585,3603,3623,3644,3663,3685,3703,3724,3745,3764,3783,3804,3823,3843,3864,3885,3903,3923,3945,3964,3983,4003,4023,4043,4065,4084,4104,4123,4143,4164,4184,4203,4224,4243,4264,4284,4303,4323,4344,4364,4383,4403,4423,4444,4463,4484,4504,4524,4544,4563,4583,4603,4623,4644,4663,4685,4704,4724,4744,4764,4783,4804,4825,4844,4863,4883,4903,4924,4944,4963,4983,5004,5023,5045,5064,5084,5104,5123,5143,5164,5185,5203,5224,5243,5263,5284,5303,5323,5343,5363,5383,5403,5423,5443,5464,5484,5503,5523,5544,5564,5584],"xSR":741.5,"ySR":573.95,"xT1":424.9,"yT1":0,"xT2":1058.1,"yT2":0,"toosoon":0,"cond_shown":"Congruent","ratio_trial":300,"L_num":18,"L_den":20,"R_num":9,"R_den":15,"correct_side":1,"subjID":"laurasalomeguerrero9","gender":"1","school":"6","age":"11"},{"start_time":1551882050983,"click_time":1551882066258,"finger_time":1551882064578,"fix_duration":1025.1396533182603,"trial":15,"RT":13595,"MT":1680,"sideResp":1,"stimulus":[],"xmouse":[806,806,806,806,806,806,806,806,806,806,806,806,806,806,806,806,806,806,806,806,806,806,806,806,806,806,806,806,806,806,806,806,806,806,806,806,806,806,806,806,806,806,806,806,806,806,806,806,806,806,806,806,806,806,806,806,806,806,806,806,806,806,806,806,806,806,806,806,806,806,806,806,806,806,806,806,806,806,806,806,806,806,806,806,806,806,806,806,806,806,806,806,806,806,806,806,806,806,806,806,806,806,806,806,806,806,806,806,806,806,806,806,806,806,806,806,806,806,806,806,806,806,806,806,806,806,806,806,806,806,806,806,806,806,806,806,806,806,806,806,806,806,806,806,806,806,806,806,806,806,806,806,806,806,806,806,806,806,806,806,806,806,806,806,806,806,806,806,806,806,806,806,806,806,806,806,806,806,806,806,806,806,806,806,806,806,806,806,804,804,804,804,804,804,804,804,804,804,804,804,804,804,804,804,804,804,804,804,804,804,804,804,804,804,804,804,804,804,804,804,804,804,804,804,804,804,804,804,804,804,804,804,804,804,804,804,804,804,804,804,804,804,804,804,804,804,804,804,804,804,804,804,804,804,804,804,804,804,804,804,804,804,804,804,804,804,804,804,804,804,804,804,804,804,804,804,804,804,804,804,804,804,804,804,804,804,804,804,804,804,804,804,804,804,804,804,804,804,804,804,804,804,804,804,804,804,804,804,804,804,804,804,804,804,804,804,804,804,804,804,804,804,804,804,804,804,804,804,804,804,804,804,804,804,804,804,804,804,804,804,804,804,804,804,804,804,804,804,804,804,804,804,804,804,804,804,804,804,804,804,804,804,804,804,804,804,804,804,804,804,804,804,804,804,804,804,804,804,804,804,804,804,804,804,804,804,804,804,804,804,804,804,804,804,804,804,804,804,804,804,804,804,804,804,804,804,804,804,804,804,804,804,804,804,804,804,804,804,804,804,804,804,804,804,804,804,804,804,804,804,804,804,804,804,804,804,804,804,804,804,804,804,804,804,804,804,804,804,804,804,804,804,804,804,804,804,804,804,804,804,804,804,804,804,804,804,804,804,804,804,804,804,804,804,804,804,804,804,804,804,804,804,804,804,804,804,804,804,804,804,804,804,804,804,804,804,804,804,804,804,804,804,804,804,804,804,804,804,804,804,804,804,804,804,804,804,804,804,804,804,804,804,804,804,804,804,804,804,804,804,804,804,804,804,804,804,804,804,804,804,804,804,804,804,804,804,804,804,804,804,804,804,804,804,804,804,804,804,804,804,804,804,804,804,804,804,804,804,804,804,804,804,804,804,804,804,804,804,804,804,804,804,804,804,804,804,804,804,804,804,804,804,804,804,804,804,804,804,804,804,804,804,804,804,804,804,804,804,804,804,804,804,804,804,804,804,804,804,804,804,804,804,804,804,804,804,804,804,804,804,804,804,804,804,804,804,804,804,804,804,804,804,804,804,804,804,804,804,804,804,804,804,804,804,804,804,804,804,804,804,804,804,804,804,804,804,804,804,804,804,804,804,804,804,804,803,803,800,798,797,794,787,782,781,781,781,779,766,761,756,750,744,710,683,667,657,644,640,637,634,631,630,629,629,629,629,629,629,629,629,626,622,620,620,620,620,620,625,638,654,670,682,684,684,684,684,684,684,683,683,683,683,691,695,701,702,702,702,702,703,698,662,643,625,612,603,592,589,586,583,581,574,572,569,566,561,549,544,541,538,533,530,519,514],"ymouse":[643,643,643,643,643,643,643,643,643,643,643,643,643,643,643,643,643,643,643,643,643,643,643,643,643,643,643,643,643,643,643,643,643,643,643,643,643,643,643,643,643,643,643,643,643,643,643,643,643,643,643,643,643,643,643,643,643,643,643,643,643,643,643,643,643,643,643,643,643,643,643,643,643,643,643,643,643,643,643,643,643,643,643,643,643,643,643,643,643,643,643,643,643,643,643,643,643,643,643,643,643,643,643,643,643,643,643,643,643,643,643,643,643,643,643,643,643,643,643,643,643,643,643,643,643,643,643,643,643,643,643,643,643,643,643,643,643,643,643,643,643,643,643,643,643,643,643,643,643,643,643,643,643,643,643,643,643,643,643,643,643,643,643,643,643,643,643,643,643,643,643,643,643,643,643,643,643,643,643,643,643,643,643,643,643,643,643,643,647,647,647,647,647,647,647,647,647,647,647,647,647,647,647,647,647,647,647,647,647,647,647,647,647,647,647,647,647,647,647,647,647,647,647,647,647,647,647,647,647,647,647,647,647,647,647,647,647,647,647,647,647,647,647,647,647,647,647,647,647,647,647,647,647,647,647,647,647,647,647,647,647,647,647,647,647,647,647,647,647,647,647,647,647,647,647,647,647,647,647,647,647,647,647,647,647,647,647,647,647,647,647,647,647,647,647,647,647,647,647,647,647,647,647,647,647,647,647,647,647,647,647,647,647,647,647,647,647,647,647,647,647,647,647,647,647,647,647,647,647,647,647,647,647,647,647,647,647,647,647,647,647,647,647,647,647,647,647,647,647,647,647,647,647,647,647,647,647,647,647,647,647,647,647,647,647,647,647,647,647,647,647,647,647,647,647,647,647,647,647,647,647,647,647,647,647,647,647,647,647,647,647,647,647,647,647,647,647,647,647,647,647,647,647,647,647,647,647,647,647,647,647,647,647,647,647,647,647,647,647,647,647,647,647,647,647,647,647,647,647,647,647,647,647,647,647,647,647,647,647,647,647,647,647,647,647,647,647,647,647,647,647,647,647,647,647,647,647,647,647,647,647,647,647,647,647,647,647,647,647,647,647,647,647,647,647,647,647,647,647,647,647,647,647,647,647,647,647,647,647,647,647,647,647,647,647,647,647,647,647,647,647,647,647,647,647,647,647,647,647,647,647,647,647,647,647,647,647,647,647,647,647,647,647,647,647,647,647,647,647,647,647,647,647,647,647,647,647,647,647,647,647,647,647,647,647,647,647,647,647,647,647,647,647,647,647,647,647,647,647,647,647,647,647,647,647,647,647,647,647,647,647,647,647,647,647,647,647,647,647,647,647,647,647,647,647,647,647,647,647,647,647,647,647,647,647,647,647,647,647,647,647,647,647,647,647,647,647,647,647,647,647,647,647,647,647,647,647,647,647,647,647,647,647,647,647,647,647,647,647,647,647,647,647,647,647,647,647,647,647,647,647,647,647,647,647,647,647,647,647,647,647,647,647,647,647,647,647,647,647,647,647,647,647,647,647,647,647,647,647,647,647,647,647,647,647,647,617,597,583,571,554,511,476,454,431,409,383,334,315,301,282,271,252,240,234,230,223,221,218,215,212,211,210,210,210,210,210,210,210,210,205,200,197,196,196,196,196,196,196,199,199,199,198,198,198,198,198,198,197,197,197,197,184,180,176,176,176,176,176,175,171,166,161,155,148,140,125,122,117,113,111,106,106,105,104,104,104,104,104,104,104,104,100,97],"timestamp_mouse":[14,42,55,76,95,114,134,155,175,196,215,235,255,276,296,314,335,354,375,396,414,434,455,474,494,514,535,554,575,594,614,634,655,676,694,716,735,754,775,794,816,834,855,875,894,914,934,954,975,996,1014,1034,1056,1075,1094,1114,1135,1155,1176,1195,1215,1235,1254,1275,1294,1314,1334,1355,1376,1394,1414,1434,1454,1476,1494,1515,1535,1554,1574,1594,1616,1635,1655,1674,1694,1716,1734,1754,1774,1794,1816,1834,1856,1876,1894,1915,1935,1954,1975,1996,2014,2035,2054,2074,2094,2116,2134,2154,2176,2194,2215,2234,2255,2275,2294,2315,2335,2354,2374,2394,2416,2435,2454,2474,2494,2516,2534,2554,2574,2594,2614,2636,2655,2676,2694,2715,2734,2754,2774,2794,2816,2835,2855,2874,2894,2914,2934,2955,2974,2995,3014,3035,3055,3075,3094,3114,3135,3154,3174,3195,3215,3235,3255,3276,3295,3314,3335,3354,3374,3394,3414,3435,3454,3476,3494,3515,3535,3554,3574,3596,3615,3635,3654,3674,3694,3716,3734,3754,3775,3796,3814,3835,3854,3874,3894,3916,3934,3955,3976,3994,4015,4035,4055,4075,4094,4114,4136,4154,4174,4195,4214,4236,4254,4276,4294,4314,4335,4355,4374,4395,4416,4435,4455,4474,4494,4514,4534,4556,4574,4594,4616,4635,4654,4675,4694,4716,4734,4754,4775,4796,4814,4834,4854,4875,4896,4914,4935,4954,4976,4995,5014,5035,5054,5075,5095,5115,5134,5155,5175,5195,5214,5235,5255,5274,5294,5315,5335,5355,5376,5395,5414,5434,5454,5476,5496,5514,5535,5555,5574,5595,5614,5635,5655,5675,5694,5714,5734,5755,5775,5795,5814,5835,5854,5875,5895,5915,5935,5954,5976,5994,6014,6036,6055,6074,6095,6115,6136,6155,6175,6195,6216,6236,6255,6274,6295,6315,6334,6354,6376,6395,6414,6435,6454,6476,6494,6515,6535,6555,6575,6595,6614,6635,6654,6676,6696,6714,6734,6755,6775,6795,6815,6835,6854,6874,6894,6914,6935,6955,6975,6995,7015,7034,7054,7075,7096,7114,7136,7155,7174,7196,7214,7235,7255,7274,7295,7315,7334,7354,7374,7395,7415,7435,7454,7474,7494,7515,7535,7554,7575,7596,7616,7634,7654,7676,7695,7715,7734,7755,7776,7795,7815,7834,7854,7874,7894,7915,7934,7954,7976,7995,8016,8036,8054,8074,8095,8114,8135,8154,8174,8194,8216,8234,8255,8275,8294,8316,8335,8355,8375,8394,8415,8434,8454,8475,8494,8515,8534,8554,8576,8595,8614,8634,8654,8675,8694,8715,8734,8755,8775,8794,8814,8834,8854,8876,8895,8914,8935,8956,8976,8996,9014,9034,9056,9074,9095,9114,9134,9155,9174,9195,9215,9236,9255,9274,9295,9314,9334,9356,9374,9396,9415,9434,9455,9474,9495,9514,9535,9554,9575,9595,9614,9635,9655,9675,9695,9716,9734,9754,9774,9795,9814,9835,9855,9874,9894,9915,9934,9955,9975,9994,10014,10034,10055,10074,10094,10116,10135,10154,10174,10195,10214,10235,10255,10274,10295,10315,10336,10355,10376,10394,10414,10435,10454,10476,10495,10514,10535,10555,10575,10595,10614,10635,10655,10675,10694,10716,10734,10754,10775,10794,10815,10835,10854,10875,10895,10914,10934,10956,10976,10994,11014,11035,11055,11076,11094,11114,11134,11154,11175,11195,11215,11234,11254,11275,11296,11314,11335,11355,11374,11394,11415,11434,11456,11476,11494,11515,11534,11554,11576,11594,11616,11635,11654,11674,11696,11714,11735,11754,11774,11795,11815,11834,11854,11875,11894,11915,11934,11956,11975,11994,12016,12034,12055,12074,12094,12114,12136,12154,12175,12195,12215,12234,12254,12275,12294,12314,12335,12356,12374,12394,12416,12434,12454,12474,12494,12515,12535,12554,12576,12594,12616,12634,12655,12674,12694,12715,12735,12755,12775,12795,12814,12835,12854,12874,12895,12914,12935,12954,12975,12995,13015,13034,13054,13076,13094,13114,13135,13155,13174,13194,13215,13234,13255,13275,13296,13315,13335,13354,13374,13395,13414,13434,13455,13475,13496,13514,13535,13554,13575,13595,13614,13634,13655,13674,13696,13715,13735,13754,13775,13795,13815,13835,13855,13874,13896,13915,13935,13954,13974,13994,14015,14034,14055,14074,14094,14115,14136,14154,14175,14194,14216,14235,14256,14275,14295,14316,14335,14354,14375,14395,14416,14434,14455,14475,14494,14514,14535,14554,14575,14594,14615,14635,14655,14674,14696,14716,14735,14755,14775,14795,14815,14835,14854,14874,14895,14915,14935,14955,14974,14995,15014,15035,15055,15074,15096,15115,15135,15154,15174,15195,15215,15234,15254,15274],"xSR":741.5,"ySR":573.95,"xT1":424.9,"yT1":0,"xT2":1058.1,"yT2":0,"toosoon":0,"cond_shown":"Congruent","ratio_trial":200,"L_num":20,"L_den":25,"R_num":9,"R_den":15,"correct_side":1,"subjID":"laurasalomeguerrero9","gender":"1","school":"6","age":"11"},{"start_time":1551882082120,"click_time":1551882084817,"finger_time":1551882084118,"fix_duration":520.528354311983,"trial":16,"RT":1998,"MT":699,"sideResp":2,"stimulus":[],"xmouse":[768,768,768,768,768,768,768,768,768,768,768,768,768,768,768,768,768,768,768,768,768,768,768,768,768,768,768,768,768,768,768,768,768,768,768,768,768,768,768,768,768,768,768,768,768,768,768,768,768,768,768,768,768,768,768,768,768,768,768,768,768,768,768,768,768,768,768,768,768,768,768,768,768,768,768,768,768,768,768,768,768,768,768,768,768,768,768,768,768,768,768,768,768,768,768,768,770,778,790,810,832,840,848,856,907,934,945,950,953,958,964,971,978,983,1000,1005,1009,1015,1019,1029,1033,1037,1041,1043,1043,1047,1049,1051,1054,1055,1055,1057,1057,1057,1062],"ymouse":[618,618,618,618,618,618,618,618,618,618,618,618,618,618,618,618,618,618,618,618,618,618,618,618,618,618,618,618,618,618,618,618,618,618,618,618,618,618,618,618,618,618,618,618,618,618,618,618,618,618,618,618,618,618,618,618,618,618,618,618,618,618,618,618,618,618,618,618,618,618,618,618,618,618,618,618,618,618,618,618,618,618,618,618,618,618,618,618,618,618,618,618,618,618,618,618,618,605,585,547,506,491,479,464,391,357,338,321,307,281,268,254,244,236,210,201,195,186,182,170,164,159,150,141,128,118,113,107,104,100,99,97,97,96,90],"timestamp_mouse":[19,37,58,77,98,118,137,158,178,197,218,239,258,278,297,318,339,357,377,397,417,438,457,477,497,518,537,559,577,599,617,639,657,678,697,717,738,759,777,798,818,837,857,877,897,917,939,957,978,997,1018,1039,1057,1079,1097,1117,1138,1158,1177,1198,1218,1237,1257,1278,1298,1318,1338,1358,1377,1398,1418,1437,1459,1477,1497,1519,1537,1558,1578,1597,1617,1637,1657,1677,1697,1717,1737,1757,1778,1798,1817,1837,1857,1877,1898,1918,1938,1957,1977,1997,2017,2038,2057,2078,2098,2117,2137,2159,2178,2197,2218,2238,2257,2277,2297,2319,2337,2358,2377,2397,2417,2438,2457,2478,2497,2517,2537,2558,2578,2597,2617,2638,2657,2677,2697],"xSR":741.5,"ySR":573.95,"xT1":424.9,"yT1":0,"xT2":1058.1,"yT2":0,"toosoon":0,"cond_shown":"Congruent","ratio_trial":300,"L_num":1,"L_den":5,"R_num":3,"R_den":6,"correct_side":2,"subjID":"laurasalomeguerrero9","gender":"1","school":"6","age":"11"},{"start_time":1551882088524,"click_time":1551882090558,"finger_time":1551882089878,"fix_duration":604.5446217023934,"trial":17,"RT":1354,"MT":680,"sideResp":2,"stimulus":[],"xmouse":[774,774,774,774,774,774,774,774,774,774,774,774,774,774,774,774,774,774,774,774,774,774,774,774,774,774,774,774,774,774,774,774,774,774,774,774,774,774,774,774,774,774,774,774,774,774,774,774,774,774,774,774,774,774,774,774,774,774,774,774,774,774,774,774,776,792,801,808,812,816,819,822,827,834,857,873,901,924,946,983,999,1011,1024,1036,1056,1061,1064,1068,1069,1073,1073,1073,1073,1073,1076,1077,1079,1080,1080,1082,1082,1083],"ymouse":[634,634,634,634,634,634,634,634,634,634,634,634,634,634,634,634,634,634,634,634,634,634,634,634,634,634,634,634,634,634,634,634,634,634,634,634,634,634,634,634,634,634,634,634,634,634,634,634,634,634,634,634,634,634,634,634,634,634,634,634,634,634,634,634,623,596,580,567,560,551,547,542,532,520,479,454,414,381,344,278,251,230,211,195,157,146,138,131,127,119,118,118,118,118,111,109,107,105,104,101,100,99],"timestamp_mouse":[14,40,54,73,94,115,134,153,174,194,214,234,254,273,293,314,333,354,373,393,413,435,453,473,493,513,534,553,573,594,613,634,654,673,694,713,734,753,773,793,814,833,853,873,893,915,933,954,973,993,1013,1033,1054,1073,1094,1113,1133,1153,1174,1193,1213,1234,1253,1274,1293,1313,1333,1354,1373,1394,1415,1434,1453,1474,1493,1513,1533,1554,1574,1593,1613,1634,1653,1674,1693,1713,1733,1753,1773,1793,1814,1834,1854,1873,1893,1913,1933,1954,1974,1993,2014,2033],"xSR":741.5,"ySR":573.95,"xT1":424.9,"yT1":0,"xT2":1058.1,"yT2":0,"toosoon":0,"cond_shown":"Incongruent","ratio_trial":300,"L_num":4,"L_den":20,"R_num":2,"R_den":4,"correct_side":2,"subjID":"laurasalomeguerrero9","gender":"1","school":"6","age":"11"},{"start_time":1551882094100,"click_time":1551882096918,"finger_time":1551882096257,"fix_duration":1122.2270151307966,"trial":18,"RT":2157,"MT":661,"sideResp":1,"stimulus":[],"xmouse":[782,782,782,782,782,782,782,782,782,782,782,782,782,782,782,782,782,782,782,782,782,782,782,782,782,782,782,782,782,782,782,782,782,782,782,782,782,782,782,782,782,782,782,782,782,782,782,782,782,782,782,782,782,782,782,782,782,782,782,782,782,782,782,782,782,782,782,782,782,782,782,782,782,782,782,782,782,782,782,782,782,782,782,782,782,782,782,782,782,782,782,782,782,782,782,782,782,782,782,782,782,782,782,782,782,777,774,768,765,762,751,747,744,741,739,731,718,707,691,676,643,628,614,603,590,567,554,547,542,540,535,533,532,531,529,528,526,521,516,511,504],"ymouse":[608,608,608,608,608,608,608,608,608,608,608,608,608,608,608,608,608,608,608,608,608,608,608,608,608,608,608,608,608,608,608,608,608,608,608,608,608,608,608,608,608,608,608,608,608,608,608,608,608,608,608,608,608,608,608,608,608,608,608,608,608,608,608,608,608,608,608,608,608,608,608,608,608,608,608,608,608,608,608,608,608,608,608,608,608,608,608,608,608,608,608,608,608,608,608,608,608,608,608,608,608,608,608,607,603,590,576,554,537,518,479,462,444,425,406,363,323,296,269,249,218,205,194,184,172,155,146,140,135,131,124,121,119,118,117,114,112,107,104,101,98],"timestamp_mouse":[25,48,57,77,97,118,137,158,177,197,217,237,257,278,297,318,338,357,378,397,417,437,457,477,499,518,538,558,577,597,619,638,658,677,699,718,738,757,778,798,818,839,857,877,897,918,937,957,977,997,1018,1037,1057,1077,1098,1117,1137,1157,1178,1197,1219,1237,1258,1277,1297,1318,1339,1357,1379,1398,1418,1438,1457,1477,1498,1517,1538,1558,1577,1597,1617,1637,1657,1677,1697,1717,1739,1757,1778,1799,1819,1838,1857,1877,1897,1917,1937,1957,1977,1998,2017,2039,2057,2078,2097,2117,2137,2157,2178,2197,2217,2237,2257,2278,2297,2317,2338,2357,2379,2397,2417,2438,2458,2477,2498,2517,2538,2557,2577,2597,2617,2637,2657,2677,2697,2717,2738,2757,2778,2797,2817],"xSR":741.5,"ySR":573.95,"xT1":424.9,"yT1":0,"xT2":1058.1,"yT2":0,"toosoon":0,"cond_shown":"Congruent","ratio_trial":200,"L_num":7,"L_den":15,"R_num":18,"R_den":27,"correct_side":2,"subjID":"laurasalomeguerrero9","gender":"1","school":"6","age":"11"},{"start_time":1551882101138,"click_time":1551882102658,"finger_time":1551882102417,"fix_duration":659.1565348629512,"trial":19,"RT":1279,"MT":241,"sideResp":2,"stimulus":[],"xmouse":[769,769,769,769,768,768,769,769,769,769,769,769,769,769,769,769,769,769,769,769,769,769,769,769,769,769,769,769,769,769,769,769,769,769,769,769,769,769,769,769,769,769,769,769,769,769,769,769,769,769,770,772,774,780,784,785,785,785,786,786,786,790,795,852,894,949,982,1011,1049,1061,1071,1078,1082,1091,1096,1097],"ymouse":[633,633,633,633,633,635,636,637,637,637,637,637,637,637,637,637,637,637,637,637,637,637,637,637,637,637,637,637,637,637,637,637,637,637,637,637,637,637,637,637,637,637,637,637,637,637,637,637,637,637,637,635,631,620,613,610,610,610,609,609,609,600,592,506,441,343,291,243,177,156,141,129,120,107,101,99],"timestamp_mouse":[20,40,59,80,101,120,141,159,179,199,219,241,259,280,300,319,340,361,379,401,420,440,460,480,500,519,540,559,581,599,619,640,659,681,699,720,739,759,781,799,820,839,860,880,899,921,939,960,980,999,1019,1039,1059,1079,1099,1121,1141,1159,1179,1200,1221,1239,1260,1279,1299,1319,1339,1359,1380,1400,1419,1440,1461,1479,1499,1519],"xSR":741.5,"ySR":573.95,"xT1":424.9,"yT1":0,"xT2":1058.1,"yT2":0,"toosoon":0,"cond_shown":"Incongruent","ratio_trial":100,"L_num":9,"L_den":18,"R_num":6,"R_den":10,"correct_side":2,"subjID":"laurasalomeguerrero9","gender":"1","school":"6","age":"11"},{"start_time":1551882117328,"click_time":1551882119918,"finger_time":1551882118878,"fix_duration":608.8920885465116,"trial":20,"RT":1550,"MT":1040,"sideResp":2,"stimulus":[],"xmouse":[801,801,801,801,801,801,801,801,801,801,801,801,801,801,801,801,801,801,801,801,801,801,801,801,801,801,801,801,801,801,801,801,801,801,801,801,801,801,801,801,801,801,801,801,801,801,801,801,801,801,801,801,801,801,801,801,801,801,801,801,801,801,801,801,801,801,801,801,801,801,801,801,801,801,801,812,835,850,866,893,907,918,927,934,942,947,951,954,957,967,974,979,982,986,989,997,1000,1009,1014,1021,1024,1027,1029,1033,1035,1035,1036,1036,1036,1036,1036,1036,1037,1038,1043,1044,1045,1045,1045,1046,1046,1046,1047,1047,1050,1052,1056,1057,1058,1059],"ymouse":[609,609,609,609,609,609,609,609,609,609,609,609,609,609,609,609,609,609,609,609,609,609,609,609,609,609,609,609,609,609,609,609,609,609,609,609,609,609,609,609,609,609,609,609,609,609,609,609,609,609,609,609,609,609,609,609,609,609,609,609,609,609,609,609,609,609,609,609,609,609,609,609,609,609,609,598,577,562,546,511,495,483,472,463,446,435,420,410,400,364,345,327,313,283,266,236,225,196,177,145,129,119,111,104,99,97,96,96,96,96,96,96,96,94,92,92,91,91,91,91,91,91,91,91,91,90,89,89,89,89],"timestamp_mouse":[9,29,49,70,90,110,129,149,171,189,209,231,249,269,289,309,329,349,369,389,410,430,451,469,489,510,529,551,569,589,609,631,649,669,689,710,729,749,769,789,810,830,849,869,889,909,930,950,970,990,1011,1029,1051,1069,1089,1109,1129,1149,1169,1190,1209,1230,1250,1270,1290,1311,1329,1349,1370,1390,1410,1429,1449,1469,1489,1509,1529,1550,1570,1590,1609,1629,1649,1671,1689,1709,1729,1750,1770,1789,1809,1829,1850,1871,1889,1909,1929,1949,1969,1989,2010,2029,2050,2069,2089,2109,2130,2150,2171,2189,2209,2229,2249,2270,2290,2310,2329,2350,2370,2390,2409,2429,2449,2469,2489,2509,2529,2549,2569,2589],"xSR":741.5,"ySR":573.95,"xT1":424.9,"yT1":0,"xT2":1058.1,"yT2":0,"toosoon":0,"cond_shown":"Incongruent","ratio_trial":100,"L_num":11,"L_den":22,"R_num":9,"R_den":15,"correct_side":2,"subjID":"laurasalomeguerrero9","gender":"1","school":"6","age":"11"},{"start_time":1551882126104,"click_time":1551882128637,"finger_time":1551882127718,"fix_duration":1245.7249334946482,"trial":21,"RT":1614,"MT":919,"sideResp":2,"stimulus":[],"xmouse":[797,797,797,797,797,797,797,797,797,797,797,797,797,797,797,797,797,797,797,797,797,797,797,797,797,797,797,797,797,797,797,797,797,797,797,797,797,797,797,797,797,797,797,797,797,797,797,797,797,797,797,797,797,797,797,797,797,797,797,797,797,797,797,797,797,797,797,797,797,797,797,797,797,797,797,797,797,797,797,798,810,818,830,838,842,847,853,866,882,898,925,933,942,953,963,986,995,1003,1010,1013,1016,1017,1017,1019,1023,1030,1033,1037,1042,1048,1061,1066,1069,1071,1072,1072,1078,1082,1087,1092,1100,1103,1104,1104,1104,1105,1109],"ymouse":[609,609,609,609,609,609,609,609,609,609,609,609,609,609,609,609,609,609,609,609,609,609,609,609,609,609,609,609,609,609,609,609,609,609,609,609,609,609,609,609,609,609,609,609,609,609,609,609,609,609,609,609,609,609,609,609,609,609,609,609,609,609,609,609,609,609,609,609,609,609,609,609,609,609,609,609,609,609,593,583,543,514,481,465,457,453,448,440,430,421,402,394,383,367,350,309,292,279,265,255,242,238,236,234,228,220,217,210,202,193,178,172,167,164,163,160,149,141,133,127,116,111,109,109,108,106,99],"timestamp_mouse":[14,46,54,74,94,113,134,153,174,193,213,234,253,273,294,315,334,353,373,395,415,434,453,473,494,515,533,554,573,594,615,633,653,673,694,713,734,754,773,793,813,834,854,873,893,913,933,953,974,993,1013,1033,1053,1073,1093,1114,1133,1154,1173,1193,1213,1233,1253,1273,1293,1313,1334,1353,1373,1394,1414,1433,1453,1473,1494,1513,1533,1553,1574,1594,1614,1633,1653,1673,1694,1714,1734,1753,1774,1793,1813,1833,1853,1873,1895,1914,1934,1953,1973,1994,2014,2033,2053,2073,2093,2113,2133,2154,2173,2193,2213,2235,2254,2274,2293,2313,2333,2353,2373,2393,2414,2433,2453,2473,2494,2513,2533],"xSR":741.5,"ySR":573.95,"xT1":424.9,"yT1":0,"xT2":1058.1,"yT2":0,"toosoon":0,"cond_shown":"Congruent","ratio_trial":300,"L_num":3,"L_den":12,"R_num":11,"R_den":20,"correct_side":2,"subjID":"laurasalomeguerrero9","gender":"1","school":"6","age":"11"},{"start_time":1551882131412,"click_time":1551882133358,"finger_time":1551882132777,"fix_duration":433.59410304454025,"trial":22,"RT":1365,"MT":581,"sideResp":2,"stimulus":[],"xmouse":[757,757,757,757,757,757,757,757,757,757,757,757,757,757,757,757,757,757,757,757,757,757,757,757,757,757,758,758,758,758,758,758,758,758,759,759,759,759,759,759,759,759,759,759,759,759,759,759,759,759,759,759,759,759,759,759,759,759,759,759,759,759,759,759,759,761,766,770,778,796,856,901,941,967,982,991,991,991,991,991,991,991,991,991,991,991,992,995,1006,1014,1028,1031,1033,1035,1041,1052,1055,1059],"ymouse":[659,659,659,659,659,659,659,659,659,659,659,659,659,659,659,659,659,659,659,659,655,652,651,649,647,643,642,640,639,638,637,637,637,637,636,636,635,634,634,634,633,633,633,633,633,633,633,633,633,633,633,633,633,633,633,633,633,633,633,633,633,633,633,633,633,625,612,594,567,507,342,252,188,152,130,118,118,118,118,118,118,118,118,118,118,118,117,113,102,96,88,86,85,84,81,77,75,74],"timestamp_mouse":[8,25,46,67,85,105,126,146,166,185,205,225,246,265,286,305,326,346,365,386,406,425,446,467,485,505,525,546,565,585,605,625,647,666,686,707,727,745,766,785,806,826,845,865,885,905,925,947,965,985,1005,1026,1046,1066,1086,1106,1127,1147,1165,1185,1205,1226,1245,1266,1287,1305,1325,1346,1365,1387,1406,1425,1446,1466,1485,1505,1525,1545,1565,1586,1606,1625,1645,1667,1686,1706,1726,1746,1765,1786,1805,1825,1845,1865,1885,1905,1925,1946],"xSR":741.5,"ySR":573.95,"xT1":424.9,"yT1":0,"xT2":1058.1,"yT2":0,"toosoon":0,"cond_shown":"Congruent","ratio_trial":300,"L_num":3,"L_den":12,"R_num":11,"R_den":20,"correct_side":2,"subjID":"laurasalomeguerrero9","gender":"1","school":"6","age":"11"},{"start_time":1551882137730,"click_time":1551882141537,"finger_time":1551882140317,"fix_duration":250,"trial":23,"RT":2587,"MT":1220,"sideResp":1,"stimulus":[],"xmouse":[778,778,778,778,778,778,778,778,778,778,778,778,778,778,778,778,778,778,778,778,778,778,778,778,778,778,778,778,778,778,778,778,778,778,778,778,778,778,778,778,778,778,778,778,778,778,778,778,778,778,778,778,778,778,778,778,778,778,778,778,778,778,778,778,778,778,778,778,778,778,778,778,778,778,778,778,778,778,778,778,778,778,778,778,778,778,778,778,778,778,778,778,778,778,778,778,778,778,778,778,778,778,778,778,778,778,778,778,778,778,778,778,778,778,778,778,778,779,779,779,779,779,779,779,779,779,779,779,779,781,789,797,809,821,857,896,924,956,980,995,1009,1014,1019,1020,1021,1021,1021,1021,1021,1002,979,945,905,859,807,786,777,769,761,755,754,751,744,732,698,689,683,676,669,658,652,639,624,606,573,553,537,523,514,509,509,509,509,509,509,508,508,508,508,505,504],"ymouse":[601,601,601,601,601,601,601,601,601,601,601,601,601,601,601,601,601,601,601,601,601,601,601,601,601,601,601,601,601,601,601,601,601,601,601,601,601,601,601,601,601,601,601,601,601,601,601,601,601,601,601,601,601,601,601,601,601,601,601,601,601,601,601,601,601,601,601,601,601,601,601,601,601,601,601,601,601,601,601,601,601,601,601,601,601,601,601,601,601,601,601,601,601,601,601,601,601,601,601,601,601,601,601,601,601,601,601,601,601,601,601,601,601,601,601,601,602,600,599,599,599,599,599,599,597,590,587,585,581,568,558,549,537,527,500,465,438,405,376,356,331,319,310,305,302,302,302,302,302,292,282,268,251,231,207,194,187,182,179,178,177,177,177,177,177,177,177,177,174,170,168,165,162,155,145,138,134,130,129,129,129,129,129,129,129,127,123,120,115,104,99],"timestamp_mouse":[9,34,47,68,87,108,128,148,168,188,209,227,249,268,287,308,328,348,367,387,409,427,448,467,487,507,528,548,567,587,609,627,648,668,688,708,727,749,767,787,807,827,847,868,889,909,928,948,967,989,1007,1028,1048,1068,1087,1108,1129,1147,1168,1188,1207,1229,1247,1268,1287,1308,1327,1347,1367,1388,1408,1427,1449,1467,1488,1508,1527,1547,1567,1587,1607,1627,1648,1668,1688,1707,1727,1747,1767,1788,1807,1827,1847,1867,1887,1907,1927,1947,1968,1987,2007,2028,2048,2068,2087,2107,2127,2147,2168,2187,2207,2227,2249,2267,2287,2307,2328,2347,2367,2387,2409,2427,2447,2468,2487,2508,2527,2547,2568,2587,2608,2627,2647,2669,2687,2707,2727,2747,2767,2788,2808,2827,2847,2867,2887,2908,2927,2949,2967,2987,3007,3028,3048,3067,3087,3108,3127,3147,3167,3188,3209,3228,3247,3267,3287,3308,3327,3348,3367,3387,3407,3427,3447,3469,3487,3507,3527,3548,3568,3588,3607,3627,3648,3667,3687,3709,3727,3747,3768,3787,3807],"xSR":741.5,"ySR":573.95,"xT1":424.9,"yT1":0,"xT2":1058.1,"yT2":0,"toosoon":0,"cond_shown":"Incongruent","ratio_trial":100,"L_num":6,"L_den":10,"R_num":11,"R_den":22,"correct_side":1,"subjID":"laurasalomeguerrero9","gender":"1","school":"6","age":"11"},{"start_time":1551882151037,"click_time":1551882153157,"finger_time":1551882152617,"fix_duration":1038.3059976889397,"trial":24,"RT":1580,"MT":540,"sideResp":1,"stimulus":[],"xmouse":[772,773,773,773,773,773,773,773,773,773,773,773,773,773,773,773,773,773,773,773,773,773,773,773,773,773,773,773,773,773,773,773,773,773,773,773,773,773,773,773,773,773,773,773,773,773,773,773,773,773,773,773,773,773,773,773,773,773,773,773,773,773,773,773,773,773,776,779,782,784,784,784,784,784,784,784,785,786,786,787,787,787,781,775,762,753,733,708,684,644,622,611,599,588,564,551,543,537,535,535,534,534,533,532,532,529,524],"ymouse":[617,617,617,617,617,617,617,617,617,617,617,617,617,617,617,617,617,617,617,617,617,617,617,617,617,617,617,617,617,617,617,617,617,617,617,617,617,617,617,617,617,617,617,617,617,617,617,617,617,617,617,617,617,617,617,617,617,617,617,617,617,617,617,617,617,617,617,616,614,612,612,612,612,612,612,612,609,605,598,567,550,532,512,490,445,417,366,322,279,210,170,152,132,114,83,69,62,56,54,54,53,53,53,53,53,55,59],"timestamp_mouse":[9,36,41,60,81,100,120,140,161,181,200,222,241,260,280,301,321,342,360,380,400,420,440,460,480,500,520,540,561,580,601,621,641,660,680,700,722,740,760,780,800,820,840,860,881,900,920,942,960,980,1000,1020,1040,1060,1080,1100,1120,1141,1162,1181,1200,1220,1240,1260,1281,1300,1320,1340,1360,1380,1400,1422,1440,1461,1481,1500,1520,1540,1562,1580,1600,1620,1641,1660,1680,1700,1720,1740,1761,1780,1800,1820,1841,1860,1880,1902,1920,1941,1961,1980,2001,2020,2041,2060,2080,2100,2120],"xSR":741.5,"ySR":573.95,"xT1":424.9,"yT1":0,"xT2":1058.1,"yT2":0,"toosoon":0,"cond_shown":"Incongruent","ratio_trial":300,"L_num":13,"L_den":26,"R_num":12,"R_den":15,"correct_side":2,"subjID":"laurasalomeguerrero9","gender":"1","school":"6","age":"11"},{"start_time":1551882155529,"click_time":1551882157677,"finger_time":1551882157157,"fix_duration":531.4766648991861,"trial":25,"RT":1628,"MT":520,"sideResp":1,"stimulus":[],"xmouse":[799,799,799,799,799,799,799,799,799,799,799,799,799,799,799,799,799,799,799,799,799,799,799,799,799,799,799,799,799,799,799,799,799,799,799,799,799,799,799,799,799,799,799,799,799,799,799,799,799,799,799,799,799,799,799,799,799,799,799,799,799,799,799,799,799,799,799,799,799,799,799,799,799,799,799,799,799,800,800,791,784,779,774,769,759,736,713,694,682,671,666,661,655,646,630,622,620,619,617,608,600,589,577,567,551,537,526,520],"ymouse":[631,631,631,631,631,631,631,631,631,631,631,631,631,631,631,631,631,631,631,631,631,631,631,631,631,631,631,631,631,631,631,631,631,631,631,631,631,631,631,631,631,631,631,631,631,631,631,631,631,631,631,631,631,631,631,631,631,631,631,631,631,631,631,631,631,631,631,631,631,631,631,631,631,631,631,631,631,631,622,599,583,570,558,547,515,455,389,336,303,263,245,229,214,198,170,158,155,154,152,143,138,130,122,115,105,98,93,91],"timestamp_mouse":[11,35,49,68,88,110,129,148,169,188,208,228,248,268,289,308,328,348,368,388,408,428,449,469,488,510,528,549,570,589,608,628,648,670,689,709,728,748,769,788,809,829,850,868,888,909,928,950,969,989,1010,1029,1048,1068,1088,1108,1128,1150,1169,1189,1208,1229,1250,1269,1288,1309,1329,1349,1370,1389,1409,1429,1448,1468,1490,1508,1528,1549,1568,1588,1608,1628,1648,1669,1688,1709,1728,1748,1768,1789,1808,1828,1848,1870,1888,1909,1928,1949,1968,1988,2009,2029,2048,2068,2088,2108,2128,2148],"xSR":741.5,"ySR":573.95,"xT1":424.9,"yT1":0,"xT2":1058.1,"yT2":0,"toosoon":0,"cond_shown":"Incongruent","ratio_trial":200,"L_num":11,"L_den":20,"R_num":3,"R_den":4,"correct_side":2,"subjID":"laurasalomeguerrero9","gender":"1","school":"6","age":"11"},{"start_time":1551882162796,"click_time":1551882165497,"finger_time":1551882164377,"fix_duration":297.08037050386605,"trial":26,"RT":1581,"MT":1120,"sideResp":1,"stimulus":[],"xmouse":[756,756,756,756,756,756,756,756,756,756,756,756,756,756,756,756,756,756,756,756,756,756,756,756,756,756,756,756,756,756,756,756,756,756,756,756,756,756,756,756,756,756,756,756,756,756,756,756,756,756,756,756,756,756,756,756,756,756,756,756,756,756,756,756,758,759,767,772,778,784,789,805,807,810,812,814,824,831,839,849,861,884,897,900,902,902,902,902,902,902,902,902,902,901,893,881,861,847,833,822,811,793,778,767,754,742,724,720,717,715,712,705,699,690,685,683,681,681,681,680,679,674,671,665,657,650,626,611,600,589,582,566,556,538,524,512],"ymouse":[630,630,630,630,630,630,630,630,630,630,630,630,630,630,630,630,630,630,630,630,630,630,630,630,630,630,630,630,630,630,630,630,630,630,630,630,630,630,630,630,630,630,630,630,630,630,630,630,630,630,630,630,630,630,630,630,630,630,630,630,630,630,630,630,630,630,629,628,626,624,622,617,616,615,613,612,607,602,595,588,577,558,548,546,545,545,545,545,545,545,545,545,544,537,526,511,489,477,463,448,433,402,382,368,349,332,300,291,285,279,275,265,259,251,246,244,242,241,241,240,239,235,233,228,221,216,197,186,177,169,162,149,140,125,111,97],"timestamp_mouse":[9,37,42,62,83,101,121,141,161,183,201,221,242,262,282,301,321,341,362,381,401,421,442,461,483,503,522,541,562,583,601,622,642,661,683,702,722,742,762,781,801,822,842,862,881,901,921,941,961,981,1001,1021,1041,1061,1081,1101,1121,1141,1161,1181,1203,1223,1242,1263,1282,1302,1321,1341,1361,1381,1401,1421,1441,1461,1481,1501,1521,1541,1561,1581,1601,1621,1641,1661,1681,1703,1721,1741,1761,1781,1801,1821,1841,1862,1881,1901,1921,1941,1961,1982,2002,2021,2042,2061,2082,2101,2121,2141,2162,2181,2201,2221,2241,2262,2282,2301,2321,2342,2361,2381,2401,2421,2442,2461,2481,2501,2521,2542,2561,2581,2602,2621,2641,2662,2682,2701],"xSR":741.5,"ySR":573.95,"xT1":424.9,"yT1":0,"xT2":1058.1,"yT2":0,"toosoon":0,"cond_shown":"Congruent","ratio_trial":300,"L_num":20,"L_den":25,"R_num":8,"R_den":16,"correct_side":1,"subjID":"laurasalomeguerrero9","gender":"1","school":"6","age":"11"},{"start_time":1551882171610,"click_time":1551882173657,"finger_time":1551882173017,"fix_duration":1271.0095687696885,"trial":27,"RT":1407,"MT":640,"sideResp":2,"stimulus":[],"xmouse":[801,801,801,801,801,801,800,800,800,800,800,800,800,800,800,800,800,800,800,800,800,800,800,800,800,800,800,800,800,800,800,800,800,800,800,800,800,800,800,800,800,800,800,800,800,800,800,800,800,800,800,800,800,800,800,800,800,800,800,800,800,800,800,800,800,800,800,800,809,819,849,868,899,916,927,942,948,955,964,970,980,984,989,991,997,1009,1013,1019,1023,1028,1037,1043,1052,1060,1066,1081,1088,1094,1098,1102,1108,1111,1111],"ymouse":[629,629,629,629,629,629,629,629,629,629,629,629,629,629,629,629,629,629,629,629,629,629,629,629,629,629,629,629,629,629,629,629,629,629,629,629,629,629,629,629,629,629,629,629,629,629,629,629,629,629,629,629,629,629,629,629,629,629,629,629,629,629,629,629,629,629,629,629,624,621,608,595,570,548,526,473,456,440,427,415,394,380,363,352,339,319,311,302,293,283,259,246,224,210,199,169,155,140,130,120,106,101,99],"timestamp_mouse":[9,39,47,68,87,107,128,147,167,187,207,227,247,269,287,308,328,347,368,388,407,427,448,467,487,507,529,548,567,587,607,627,647,667,687,708,727,747,768,787,807,828,848,869,889,907,928,947,969,988,1007,1028,1048,1068,1087,1107,1128,1148,1168,1189,1208,1228,1247,1269,1288,1307,1329,1347,1367,1387,1407,1428,1447,1469,1487,1507,1527,1547,1567,1588,1607,1627,1647,1667,1687,1707,1728,1747,1767,1788,1807,1827,1847,1867,1887,1907,1928,1947,1967,1988,2008,2027,2047],"xSR":741.5,"ySR":573.95,"xT1":424.9,"yT1":0,"xT2":1058.1,"yT2":0,"toosoon":0,"cond_shown":"Incongruent","ratio_trial":200,"L_num":3,"L_den":10,"R_num":1,"R_den":2,"correct_side":2,"subjID":"laurasalomeguerrero9","gender":"1","school":"6","age":"11"},{"start_time":1551882177804,"click_time":1551882179998,"finger_time":1551882179397,"fix_duration":765.147222766328,"trial":28,"RT":1593,"MT":601,"sideResp":2,"stimulus":[],"xmouse":[769,769,769,769,769,769,769,769,769,769,769,769,769,769,769,769,769,769,769,769,769,769,769,769,769,769,769,769,769,769,769,769,769,769,769,769,769,769,769,769,769,769,769,769,769,769,769,769,769,769,769,769,769,769,769,769,769,769,769,769,769,769,769,769,769,769,769,769,769,766,764,763,763,763,763,763,766,768,777,791,824,840,866,880,901,933,945,957,972,1005,1021,1040,1058,1077,1084,1086,1086,1086,1088,1092,1098,1098,1098,1098,1098,1099,1099,1099,1099,1099],"ymouse":[616,616,616,616,616,616,616,616,616,616,617,618,618,618,618,618,618,618,618,618,618,618,618,618,618,618,618,618,618,618,618,618,618,618,618,618,618,618,618,618,618,618,618,618,618,618,618,618,618,618,618,618,618,618,618,618,618,618,618,618,618,618,618,618,618,618,618,618,614,608,599,597,597,597,597,597,593,589,575,554,506,477,422,389,352,297,274,253,233,197,183,170,157,145,140,139,139,138,137,133,128,128,128,128,127,116,109,104,