[{"start_time":1551899867926,"click_time":1551899873931,"finger_time":1551899867933,"fix_duration":1251.4412320168808,"trial":0,"RT":7,"MT":5998,"sideResp":2,"stimulus":[],"xmouse":[809,809,809,809,809,809,809,809,809,809,809,809,809,809,809,809,809,809,809,809,809,809,809,809,809,809,809,809,809,809,808,808,808,808,808,808,808,808,808,807,807,807,807,807,807,806,806,805,800,798,798,797,797,796,795,794,792,791,789,787,787,787,787,787,787,787,787,787,787,787,787,787,787,787,787,787,787,787,787,787,787,787,787,787,787,787,787,786,786,786,787,790,793,797,803,803,803,803,803,803,803,808,814,816,815,808,801,794,787,784,784,784,784,784,784,784,784,784,789,796,796,796,796,796,796,796,796,796,796,796,796,796,796,796,796,796,796,796,796,796,796,796,796,796,796,796,796,796,796,796,796,790,781,774,773,773,773,773,773,773,773,773,773,773,773,773,773,773,773,773,773,773,773,773,773,773,773,773,773,773,773,773,773,772,769,768,768,768,769,783,787,788,788,788,788,788,788,788,788,788,788,788,788,788,788,788,788,788,788,788,795,803,813,818,818,818,818,818,818,818,818,818,818,818,818,818,818,818,818,818,818,818,818,818,818,818,818,818,818,818,818,818,818,818,818,818,818,818,818,818,818,818,818,818,818,818,818,818,818,818,818,818,818,818,817,807,795,791,789,789,789,789,792,799,833,853,867,889,903,932,951,975,998,1022,1063,1079,1092,1104,1121,1140,1150,1160,1167,1174,1174,1174,1174,1172,1168,1160,1151],"ymouse":[561,561,561,561,561,561,561,561,561,561,561,561,561,561,561,561,561,561,561,561,561,561,561,561,561,561,561,561,561,561,561,561,561,561,561,561,561,561,561,561,561,561,561,561,561,562,563,565,575,578,582,585,586,588,596,599,602,605,608,612,613,613,613,613,613,613,613,613,613,613,613,613,613,613,613,613,613,613,613,613,613,613,613,613,613,613,613,614,615,625,632,641,648,656,679,693,712,727,727,727,727,725,719,716,713,708,706,704,702,702,702,702,702,702,702,702,700,695,677,633,619,614,613,613,613,613,613,613,613,613,613,613,613,613,613,613,613,613,613,613,613,613,613,613,613,613,613,613,613,613,613,612,612,612,612,612,611,611,611,611,611,611,611,611,611,611,611,611,611,611,611,611,611,611,611,611,611,611,610,610,610,610,610,610,610,610,610,610,610,609,609,609,609,609,609,609,609,609,609,609,609,609,609,609,609,609,609,609,609,609,609,608,606,605,605,605,605,605,605,605,605,605,605,605,605,605,605,605,605,605,605,605,605,605,605,605,605,605,605,605,605,605,605,605,605,605,605,605,605,605,605,605,605,605,605,605,605,605,605,605,605,605,605,605,605,604,603,604,605,605,605,605,608,610,607,598,589,572,563,542,529,515,503,493,475,468,460,451,435,402,375,329,282,202,178,161,150,141,125,97,80],"timestamp_mouse":[7,25,44,64,85,104,126,145,165,186,205,226,245,266,286,304,324,344,364,384,405,424,444,465,484,505,525,544,564,585,604,624,644,666,685,706,725,745,766,785,805,826,846,866,885,906,925,946,965,985,1004,1026,1045,1066,1085,1105,1125,1145,1164,1186,1205,1225,1244,1264,1285,1305,1325,1344,1366,1385,1405,1425,1445,1464,1484,1504,1525,1545,1566,1585,1604,1624,1645,1665,1684,1704,1724,1744,1764,1786,1805,1825,1845,1864,1885,1906,1925,1944,1964,1984,2005,2025,2044,2064,2085,2105,2125,2144,2165,2185,2205,2224,2244,2266,2285,2304,2325,2345,2365,2386,2405,2425,2445,2465,2485,2504,2524,2546,2565,2585,2604,2625,2645,2665,2684,2705,2725,2746,2764,2784,2804,2825,2845,2865,2884,2904,2926,2945,2964,2984,3004,3026,3044,3065,3086,3104,3125,3146,3165,3184,3204,3224,3245,3265,3285,3306,3324,3346,3365,3385,3404,3424,3444,3464,3484,3505,3525,3545,3564,3584,3604,3624,3645,3665,3685,3704,3724,3746,3764,3786,3804,3824,3845,3865,3885,3906,3925,3945,3965,3984,4005,4025,4044,4065,4085,4105,4126,4146,4165,4184,4205,4224,4244,4264,4285,4305,4325,4345,4364,4384,4405,4425,4445,4464,4484,4504,4525,4545,4564,4586,4605,4624,4646,4664,4684,4705,4725,4745,4765,4784,4804,4826,4846,4864,4885,4905,4925,4945,4965,4985,5004,5024,5045,5065,5085,5104,5124,5144,5165,5186,5204,5224,5246,5265,5285,5304,5325,5345,5364,5385,5405,5424,5445,5465,5485,5505,5525,5545,5565,5584,5604,5625,5645,5666,5685,5705,5725,5745,5765,5785,5806,5825,5844,5865,5884,5905,5925,5944,5964,5986,6004],"xSR":741.5,"ySR":494.65000000000003,"xT1":424.9,"yT1":0,"xT2":1058.1,"yT2":0,"toosoon":0,"cond_shown":"Incongruent","ratio_trial":200,"L_num":7,"L_den":10,"R_num":14,"R_den":28,"correct_side":1,"subjID":"Laurasofiacortesdiaz18","gender":"1","age":"11","school":"6","test":{"fix_dur":[250,1500],"timestim":1000,"targets_dim":[100,100],"targets_relative_coord":[0.3,0.7],"size_stim":[880,420],"start_dim":[100,100],"size_start":[300,300],"size_fix":60,"samplingrate":20,"img_types":["Congruent","Incongruent"],"ratios":[100,200,300],"rep_conds":19,"nTrials":120,"trials_to_rest":500,"Trials_order":[9,89,102,67,57,115,11,27,50,73,88,48,80,5,100,2,118,52,64,34,112,77,28,33,62,1,14,78,116,87,36,106,74,7,90,91,99,37,26,51,110,4,53,42,16,25,96,105,54,104,49,30,24,17,47,76,19,103,40,114,8,70,92,117,84,22,113,41,23,94,46,13,44,61,55,72,6,0,86,18,85,107,79,10,95,68,82,56,75,63,83,65,59,12,15,32,21,39,38,108,93,43,101,119,69,97,35,58,81,111,20,29,71,109,66,45,60,3,98,31],"cond_shown":["Incongruent","Incongruent","Congruent","Incongruent","Incongruent","Incongruent","Incongruent","Incongruent","Congruent","Incongruent","Congruent","Congruent","Congruent","Incongruent","Congruent","Congruent","Congruent","Congruent","Congruent","Congruent","Congruent","Incongruent","Congruent","Incongruent","Congruent","Incongruent","Congruent","Congruent","Congruent","Incongruent","Congruent","Congruent","Congruent","Incongruent","Congruent","Incongruent","Incongruent","Incongruent","Congruent","Incongruent","Congruent","Congruent","Incongruent","Congruent","Congruent","Incongruent","Congruent","Incongruent","Congruent","Congruent","Incongruent","Congruent","Congruent","Incongruent","Incongruent","Congruent","Incongruent","Incongruent","Congruent","Congruent","Congruent","Congruent","Congruent","Incongruent","Congruent","Congruent","Incongruent","Incongruent","Incongruent","Congruent","Congruent","Incongruent","Congruent","Incongruent","Incongruent","Congruent","Congruent","Congruent","Congruent","Congruent","Incongruent","Incongruent","Incongruent","Congruent","Incongruent","Congruent","Congruent","Congruent","Incongruent","Incongruent","Incongruent","Incongruent","Incongruent","Congruent","Incongruent","Congruent","Incongruent","Incongruent","Congruent","Congruent","Incongruent","Incongruent","Incongruent","Incongruent","Incongruent","Incongruent","Incongruent","Congruent","Incongruent","Incongruent","Congruent","Incongruent","Incongruent","Incongruent","Congruent","Incongruent","Congruent","Incongruent","Congruent","Incongruent"],"ratio_trial":[200,300,100,100,200,100,300,200,200,100,300,100,200,300,300,200,300,300,300,300,300,300,300,200,200,100,200,100,200,200,100,300,200,100,100,100,200,100,200,200,200,300,300,100,300,100,100,200,100,200,100,100,100,300,300,300,100,100,300,100,200,300,200,200,100,300,300,300,300,300,300,100,200,100,100,100,100,100,200,100,100,300,100,300,300,200,300,200,200,200,300,300,300,100,200,200,200,200,200,100,200,100,300,300,200,100,300,300,200,200,200,300,300,100,100,200,100,200,200,100],"left_num":[7,13,6,3,14,2,1,3,3,6,11,11,11,2,11,11,24,2,1,3,1,1,4,3,8,10,15,4,8,1,15,3,3,2,11,9,1,2,1,7,15,1,13,4,3,8,8,3,10,20,13,2,2,8,1,1,3,13,3,1,9,9,4,1,7,2,13,8,8,4,3,9,6,2,13,2,12,9,12,6,2,4,8,1,13,8,8,6,3,4,13,13,13,3,3,5,9,6,9,11,7,12,13,13,14,1,13,9,9,4,6,2,2,12,4,3,9,7,6,6],"right_num":[14,12,15,4,6,6,3,1,11,3,4,6,3,6,1,3,8,10,19,11,8,3,2,1,7,9,4,6,7,3,13,11,14,6,4,13,2,8,21,6,4,8,12,6,2,1,2,11,3,9,12,6,11,14,3,19,8,6,11,3,13,3,3,3,15,12,12,9,14,2,4,6,11,8,12,11,13,8,6,5,8,2,6,8,12,3,10,7,1,6,12,12,12,4,11,14,8,3,13,6,12,2,12,12,6,8,12,3,8,14,11,6,6,9,6,11,8,4,7,7],"left_den":[10,26,12,6,30,4,2,10,10,12,22,22,22,4,22,22,30,20,3,12,30,2,5,10,15,25,25,8,15,2,25,12,6,4,22,15,3,4,2,15,25,30,26,8,6,20,16,4,25,25,26,5,5,10,2,3,5,26,12,2,30,10,10,2,14,10,26,10,10,5,6,18,20,4,26,5,30,15,15,20,4,20,16,30,26,15,15,12,10,5,26,26,26,20,4,10,15,20,30,22,10,30,26,26,30,2,26,10,15,6,20,4,4,24,8,4,15,15,12,10],"right_den":[28,15,25,10,9,15,15,2,22,5,20,15,10,30,5,10,16,25,30,20,24,15,4,2,21,18,10,10,21,10,26,20,20,15,10,26,15,20,30,9,10,24,15,10,10,2,5,20,10,15,20,12,22,28,15,30,16,10,20,5,26,5,15,10,25,24,15,18,28,4,5,10,22,20,20,22,26,16,10,25,20,4,10,24,15,9,12,10,2,10,15,15,15,16,20,20,10,6,26,15,24,4,15,15,9,20,15,5,10,30,22,30,30,15,10,20,16,6,10,14],"correct_side":[1,2,2,1,2,1,1,2,2,2,1,1,1,1,1,1,1,2,2,2,2,1,1,2,1,2,1,2,1,1,1,2,2,1,1,1,1,1,2,2,1,2,2,2,1,2,1,1,1,1,2,2,2,1,1,2,1,2,2,2,2,1,1,1,2,2,2,1,1,1,2,2,2,1,2,2,2,1,1,1,1,2,2,2,2,1,2,2,2,1,2,2,2,2,1,2,2,2,2,1,1,2,2,2,2,1,2,1,2,1,2,1,1,2,2,1,1,2,2,1],"img_shown":["img2/200/Incongruent/L/I_Dist_200_LN_7_LD_10_RN_14_RD_28_0.png","img2/300/Incongruent/R/I_Dist_300_LN_13_LD_26_RN_12_RD_15_1.png","img2/100/Congruent/R/C_Dist_100_LN_6_LD_12_RN_15_RD_25_1.png","img2/100/Incongruent/L/I_Dist_100_LN_3_LD_6_RN_4_RD_10_0.png","img2/200/Incongruent/R/I_Dist_200_LN_14_LD_30_RN_6_RD_9_1.png","img2/100/Incongruent/L/I_Dist_100_LN_2_LD_4_RN_6_RD_15_0.png","img2/300/Incongruent/L/I_Dist_300_LN_1_LD_2_RN_3_RD_15_0.png","img2/200/Incongruent/R/I_Dist_200_LN_3_LD_10_RN_1_RD_2_1.png","img2/200/Congruent/R/C_Dist_200_LN_3_LD_10_RN_11_RD_22_1.png","img2/100/Incongruent/R/I_Dist_100_LN_6_LD_12_RN_3_RD_5_1.png","img2/300/Congruent/L/C_Dist_300_LN_11_LD_22_RN_4_RD_20_0.png","img2/100/Congruent/L/C_Dist_100_LN_11_LD_22_RN_6_RD_15_0.png","img2/200/Congruent/L/C_Dist_200_LN_11_LD_22_RN_3_RD_10_0.png","img2/300/Incongruent/L/I_Dist_300_LN_2_LD_4_RN_6_RD_30_0.png","img2/300/Congruent/L/C_Dist_300_LN_11_LD_22_RN_1_RD_5_0.png","img2/200/Congruent/L/C_Dist_200_LN_11_LD_22_RN_3_RD_10_0.png","img2/300/Congruent/L/C_Dist_300_LN_24_LD_30_RN_8_RD_16_0.png","img2/300/Congruent/R/C_Dist_300_LN_2_LD_20_RN_10_RD_25_1.png","img2/300/Congruent/R/C_Dist_300_LN_1_LD_3_RN_19_RD_30_1.png","img2/300/Congruent/R/C_Dist_300_LN_3_LD_12_RN_11_RD_20_1.png","img2/300/Congruent/R/C_Dist_300_LN_1_LD_30_RN_8_RD_24_1.png","img2/300/Incongruent/L/I_Dist_300_LN_1_LD_2_RN_3_RD_15_0.png","img2/300/Congruent/L/C_Dist_300_LN_4_LD_5_RN_2_RD_4_0.png","img2/200/Incongruent/R/I_Dist_200_LN_3_LD_10_RN_1_RD_2_1.png","img2/200/Congruent/L/C_Dist_200_LN_8_LD_15_RN_7_RD_21_0.png","img2/100/Incongruent/R/I_Dist_100_LN_10_LD_25_RN_9_RD_18_1.png","img2/200/Congruent/L/C_Dist_200_LN_15_LD_25_RN_4_RD_10_0.png","img2/100/Congruent/R/C_Dist_100_LN_4_LD_8_RN_6_RD_10_1.png","img2/200/Congruent/L/C_Dist_200_LN_8_LD_15_RN_7_RD_21_0.png","img2/200/Incongruent/L/I_Dist_200_LN_1_LD_2_RN_3_RD_10_0.png","img2/100/Congruent/L/C_Dist_100_LN_15_LD_25_RN_13_RD_26_0.png","img2/300/Congruent/R/C_Dist_300_LN_3_LD_12_RN_11_RD_20_1.png","img2/200/Congruent/R/C_Dist_200_LN_3_LD_6_RN_14_RD_20_1.png","img2/100/Incongruent/L/I_Dist_100_LN_2_LD_4_RN_6_RD_15_0.png","img2/100/Congruent/L/C_Dist_100_LN_11_LD_22_RN_4_RD_10_0.png","img2/100/Incongruent/L/I_Dist_100_LN_9_LD_15_RN_13_RD_26_0.png","img2/200/Incongruent/L/I_Dist_200_LN_1_LD_3_RN_2_RD_15_0.png","img2/100/Incongruent/L/I_Dist_100_LN_2_LD_4_RN_8_RD_20_0.png","img2/200/Congruent/R/C_Dist_200_LN_1_LD_2_RN_21_RD_30_1.png","img2/200/Incongruent/R/I_Dist_200_LN_7_LD_15_RN_6_RD_9_1.png","img2/200/Congruent/L/C_Dist_200_LN_15_LD_25_RN_4_RD_10_0.png","img2/300/Congruent/R/C_Dist_300_LN_1_LD_30_RN_8_RD_24_1.png","img2/300/Incongruent/R/I_Dist_300_LN_13_LD_26_RN_12_RD_15_1.png","img2/100/Congruent/R/C_Dist_100_LN_4_LD_8_RN_6_RD_10_1.png","img2/300/Congruent/L/C_Dist_300_LN_3_LD_6_RN_2_RD_10_0.png","img2/100/Incongruent/R/I_Dist_100_LN_8_LD_20_RN_1_RD_2_1.png","img2/100/Congruent/L/C_Dist_100_LN_8_LD_16_RN_2_RD_5_0.png","img2/200/Incongruent/L/I_Dist_200_LN_3_LD_4_RN_11_RD_20_0.png","img2/100/Congruent/L/C_Dist_100_LN_10_LD_25_RN_3_RD_10_0.png","img2/200/Congruent/L/C_Dist_200_LN_20_LD_25_RN_9_RD_15_0.png","img2/100/Incongruent/R/I_Dist_100_LN_13_LD_26_RN_12_RD_20_1.png","img2/100/Congruent/R/C_Dist_100_LN_2_LD_5_RN_6_RD_12_1.png","img2/100/Congruent/R/C_Dist_100_LN_2_LD_5_RN_11_RD_22_1.png","img2/300/Incongruent/L/I_Dist_300_LN_8_LD_10_RN_14_RD_28_0.png","img2/300/Incongruent/L/I_Dist_300_LN_1_LD_2_RN_3_RD_15_0.png","img2/300/Congruent/R/C_Dist_300_LN_1_LD_3_RN_19_RD_30_1.png","img2/100/Incongruent/L/I_Dist_100_LN_3_LD_5_RN_8_RD_16_0.png","img2/100/Incongruent/R/I_Dist_100_LN_13_LD_26_RN_6_RD_10_1.png","img2/300/Congruent/R/C_Dist_300_LN_3_LD_12_RN_11_RD_20_1.png","img2/100/Congruent/R/C_Dist_100_LN_1_LD_2_RN_3_RD_5_1.png","img2/200/Congruent/R/C_Dist_200_LN_9_LD_30_RN_13_RD_26_1.png","img2/300/Congruent/L/C_Dist_300_LN_9_LD_10_RN_3_RD_5_0.png","img2/200/Congruent/L/C_Dist_200_LN_4_LD_10_RN_3_RD_15_0.png","img2/200/Incongruent/L/I_Dist_200_LN_1_LD_2_RN_3_RD_10_0.png","img2/100/Congruent/R/C_Dist_100_LN_7_LD_14_RN_15_RD_25_1.png","img2/300/Congruent/R/C_Dist_300_LN_2_LD_10_RN_12_RD_24_1.png","img2/300/Incongruent/R/I_Dist_300_LN_13_LD_26_RN_12_RD_15_1.png","img2/300/Incongruent/L/I_Dist_300_LN_8_LD_10_RN_9_RD_18_0.png","img2/300/Incongruent/L/I_Dist_300_LN_8_LD_10_RN_14_RD_28_0.png","img2/300/Congruent/L/C_Dist_300_LN_4_LD_5_RN_2_RD_4_0.png","img2/300/Congruent/R/C_Dist_300_LN_3_LD_6_RN_4_RD_5_1.png","img2/100/Incongruent/R/I_Dist_100_LN_9_LD_18_RN_6_RD_10_1.png","img2/200/Congruent/R/C_Dist_200_LN_6_LD_20_RN_11_RD_22_1.png","img2/100/Incongruent/L/I_Dist_100_LN_2_LD_4_RN_8_RD_20_0.png","img2/100/Incongruent/R/I_Dist_100_LN_13_LD_26_RN_12_RD_20_1.png","img2/100/Congruent/R/C_Dist_100_LN_2_LD_5_RN_11_RD_22_1.png","img2/100/Congruent/R/C_Dist_100_LN_12_LD_30_RN_13_RD_26_1.png","img2/100/Congruent/L/C_Dist_100_LN_9_LD_15_RN_8_RD_16_0.png","img2/200/Congruent/L/C_Dist_200_LN_12_LD_15_RN_6_RD_10_0.png","img2/100/Congruent/L/C_Dist_100_LN_6_LD_20_RN_5_RD_25_0.png","img2/100/Incongruent/L/I_Dist_100_LN_2_LD_4_RN_8_RD_20_0.png","img2/300/Incongruent/R/I_Dist_300_LN_4_LD_20_RN_2_RD_4_1.png","img2/100/Incongruent/R/I_Dist_100_LN_8_LD_16_RN_6_RD_10_1.png","img2/300/Congruent/R/C_Dist_300_LN_1_LD_30_RN_8_RD_24_1.png","img2/300/Incongruent/R/I_Dist_300_LN_13_LD_26_RN_12_RD_15_1.png","img2/200/Congruent/L/C_Dist_200_LN_8_LD_15_RN_3_RD_9_0.png","img2/300/Congruent/R/C_Dist_300_LN_8_LD_15_RN_10_RD_12_1.png","img2/200/Congruent/R/C_Dist_200_LN_6_LD_12_RN_7_RD_10_1.png","img2/200/Incongruent/R/I_Dist_200_LN_3_LD_10_RN_1_RD_2_1.png","img2/200/Incongruent/L/I_Dist_200_LN_4_LD_5_RN_6_RD_10_0.png","img2/300/Incongruent/R/I_Dist_300_LN_13_LD_26_RN_12_RD_15_1.png","img2/300/Incongruent/R/I_Dist_300_LN_13_LD_26_RN_12_RD_15_1.png","img2/300/Incongruent/R/I_Dist_300_LN_13_LD_26_RN_12_RD_15_1.png","img2/100/Congruent/R/C_Dist_100_LN_3_LD_20_RN_4_RD_16_1.png","img2/200/Incongruent/L/I_Dist_200_LN_3_LD_4_RN_11_RD_20_0.png","img2/200/Congruent/R/C_Dist_200_LN_5_LD_10_RN_14_RD_20_1.png","img2/200/Incongruent/R/I_Dist_200_LN_9_LD_15_RN_8_RD_10_1.png","img2/200/Incongruent/R/I_Dist_200_LN_6_LD_20_RN_3_RD_6_1.png","img2/200/Congruent/R/C_Dist_200_LN_9_LD_30_RN_13_RD_26_1.png","img2/100/Congruent/L/C_Dist_100_LN_11_LD_22_RN_6_RD_15_0.png","img2/200/Incongruent/L/I_Dist_200_LN_7_LD_10_RN_12_RD_24_0.png","img2/100/Incongruent/R/I_Dist_100_LN_12_LD_30_RN_2_RD_4_1.png","img2/300/Incongruent/R/I_Dist_300_LN_13_LD_26_RN_12_RD_15_1.png","img2/300/Incongruent/R/I_Dist_300_LN_13_LD_26_RN_12_RD_15_1.png","img2/200/Incongruent/R/I_Dist_200_LN_14_LD_30_RN_6_RD_9_1.png","img2/100/Incongruent/L/I_Dist_100_LN_1_LD_2_RN_8_RD_20_0.png","img2/300/Incongruent/R/I_Dist_300_LN_13_LD_26_RN_12_RD_15_1.png","img2/300/Congruent/L/C_Dist_300_LN_9_LD_10_RN_3_RD_5_0.png","img2/200/Incongruent/R/I_Dist_200_LN_9_LD_15_RN_8_RD_10_1.png","img2/200/Incongruent/L/I_Dist_200_LN_4_LD_6_RN_14_RD_30_0.png","img2/200/Congruent/R/C_Dist_200_LN_6_LD_20_RN_11_RD_22_1.png","img2/300/Incongruent/L/I_Dist_300_LN_2_LD_4_RN_6_RD_30_0.png","img2/300/Incongruent/L/I_Dist_300_LN_2_LD_4_RN_6_RD_30_0.png","img2/100/Incongruent/R/I_Dist_100_LN_12_LD_24_RN_9_RD_15_1.png","img2/100/Congruent/R/C_Dist_100_LN_4_LD_8_RN_6_RD_10_1.png","img2/200/Incongruent/L/I_Dist_200_LN_3_LD_4_RN_11_RD_20_0.png","img2/100/Congruent/L/C_Dist_100_LN_9_LD_15_RN_8_RD_16_0.png","img2/200/Incongruent/R/I_Dist_200_LN_7_LD_15_RN_4_RD_6_1.png","img2/200/Congruent/R/C_Dist_200_LN_6_LD_12_RN_7_RD_10_1.png","img2/100/Incongruent/L/I_Dist_100_LN_6_LD_10_RN_7_RD_14_0.png"],"dist100_C":[["C_Dist_100_LN_10_LD_25_RN_3_RD_10_0.png","C_Dist_100_LN_11_LD_22_RN_4_RD_10_0.png","C_Dist_100_LN_11_LD_22_RN_6_RD_15_0.png","C_Dist_100_LN_15_LD_25_RN_13_RD_26_0.png","C_Dist_100_LN_3_LD_6_RN_2_RD_5_0.png","C_Dist_100_LN_6_LD_20_RN_5_RD_25_0.png","C_Dist_100_LN_8_LD_16_RN_2_RD_5_0.png","C_Dist_100_LN_9_LD_15_RN_8_RD_16_0.png"],["C_Dist_100_LN_1_LD_2_RN_18_RD_30_1.png","C_Dist_100_LN_1_LD_2_RN_3_RD_5_1.png","C_Dist_100_LN_12_LD_30_RN_13_RD_26_1.png","C_Dist_100_LN_2_LD_5_RN_11_RD_22_1.png","C_Dist_100_LN_2_LD_5_RN_6_RD_12_1.png","C_Dist_100_LN_3_LD_20_RN_4_RD_16_1.png","C_Dist_100_LN_4_LD_10_RN_15_RD_30_1.png","C_Dist_100_LN_4_LD_8_RN_6_RD_10_1.png","C_Dist_100_LN_6_LD_12_RN_15_RD_25_1.png","C_Dist_100_LN_7_LD_14_RN_15_RD_25_1.png","C_Dist_100_LN_7_LD_14_RN_9_RD_15_1.png"]],"dist100_I":[["I_Dist_100_LN_1_LD_2_RN_8_RD_20_0.png","I_Dist_100_LN_2_LD_4_RN_6_RD_15_0.png","I_Dist_100_LN_2_LD_4_RN_8_RD_20_0.png","I_Dist_100_LN_3_LD_5_RN_11_RD_22_0.png","I_Dist_100_LN_3_LD_5_RN_8_RD_16_0.png","I_Dist_100_LN_3_LD_6_RN_4_RD_10_0.png","I_Dist_100_LN_3_LD_9_RN_7_RD_30_0.png","I_Dist_100_LN_4_LD_8_RN_8_RD_20_0.png","I_Dist_100_LN_6_LD_10_RN_11_RD_22_0.png","I_Dist_100_LN_6_LD_10_RN_13_RD_26_0.png","I_Dist_100_LN_6_LD_10_RN_7_RD_14_0.png","I_Dist_100_LN_9_LD_10_RN_20_RD_25_0.png","I_Dist_100_LN_9_LD_15_RN_13_RD_26_0.png","I_Dist_100_LN_9_LD_15_RN_14_RD_28_0.png"],["I_Dist_100_LN_10_LD_25_RN_8_RD_16_1.png","I_Dist_100_LN_10_LD_25_RN_9_RD_18_1.png","I_Dist_100_LN_11_LD_22_RN_9_RD_15_1.png","I_Dist_100_LN_12_LD_24_RN_9_RD_15_1.png","I_Dist_100_LN_12_LD_30_RN_2_RD_4_1.png","I_Dist_100_LN_13_LD_26_RN_12_RD_20_1.png","I_Dist_100_LN_13_LD_26_RN_6_RD_10_1.png","I_Dist_100_LN_17_LD_30_RN_10_RD_15_1.png","I_Dist_100_LN_6_LD_12_RN_3_RD_5_1.png","I_Dist_100_LN_8_LD_16_RN_6_RD_10_1.png","I_Dist_100_LN_8_LD_20_RN_1_RD_2_1.png","I_Dist_100_LN_9_LD_18_RN_6_RD_10_1.png"]],"dist100_S":[["E_Dist_100_LN_2_LD_12_RN_2_RD_30_0.png","E_Dist_100_LN_6_LD_10_RN_6_RD_12_0.png"],["E_Dist_100_LN_6_LD_12_RN_6_RD_10_1.png"]],"dist200_C":[["C_Dist_200_LN_11_LD_22_RN_3_RD_10_0.png","C_Dist_200_LN_12_LD_15_RN_6_RD_10_0.png","C_Dist_200_LN_12_LD_20_RN_6_RD_15_0.png","C_Dist_200_LN_14_LD_28_RN_6_RD_20_0.png","C_Dist_200_LN_15_LD_25_RN_4_RD_10_0.png","C_Dist_200_LN_16_LD_20_RN_12_RD_20_0.png","C_Dist_200_LN_16_LD_30_RN_9_RD_27_0.png","C_Dist_200_LN_20_LD_25_RN_9_RD_15_0.png","C_Dist_200_LN_21_LD_30_RN_2_RD_4_0.png","C_Dist_200_LN_4_LD_10_RN_3_RD_15_0.png","C_Dist_200_LN_4_LD_8_RN_3_RD_10_0.png","C_Dist_200_LN_6_LD_15_RN_3_RD_15_0.png","C_Dist_200_LN_7_LD_21_RN_2_RD_15_0.png","C_Dist_200_LN_8_LD_15_RN_2_RD_6_0.png","C_Dist_200_LN_8_LD_15_RN_3_RD_9_0.png","C_Dist_200_LN_8_LD_15_RN_7_RD_21_0.png","C_Dist_200_LN_9_LD_20_RN_4_RD_16_0.png"],["C_Dist_200_LN_1_LD_2_RN_21_RD_30_1.png","C_Dist_200_LN_13_LD_26_RN_14_RD_20_1.png","C_Dist_200_LN_3_LD_10_RN_11_RD_22_1.png","C_Dist_200_LN_3_LD_10_RN_14_RD_28_1.png","C_Dist_200_LN_3_LD_10_RN_7_RD_14_1.png","C_Dist_200_LN_3_LD_12_RN_9_RD_20_1.png","C_Dist_200_LN_3_LD_6_RN_14_RD_20_1.png","C_Dist_200_LN_5_LD_10_RN_14_RD_20_1.png","C_Dist_200_LN_6_LD_12_RN_7_RD_10_1.png","C_Dist_200_LN_6_LD_20_RN_11_RD_22_1.png","C_Dist_200_LN_7_LD_15_RN_18_RD_27_1.png","C_Dist_200_LN_9_LD_30_RN_13_RD_26_1.png"]],"dist200_I":[["I_Dist_200_LN_1_LD_2_RN_3_RD_10_0.png","I_Dist_200_LN_1_LD_3_RN_2_RD_15_0.png","I_Dist_200_LN_3_LD_4_RN_11_RD_20_0.png","I_Dist_200_LN_4_LD_5_RN_6_RD_10_0.png","I_Dist_200_LN_4_LD_6_RN_14_RD_30_0.png","I_Dist_200_LN_7_LD_10_RN_12_RD_24_0.png","I_Dist_200_LN_7_LD_10_RN_14_RD_28_0.png","I_Dist_200_LN_7_LD_10_RN_8_RD_16_0.png"],["I_Dist_200_LN_11_LD_20_RN_3_RD_4_1.png","I_Dist_200_LN_14_LD_30_RN_12_RD_18_1.png","I_Dist_200_LN_14_LD_30_RN_6_RD_9_1.png","I_Dist_200_LN_3_LD_10_RN_1_RD_2_1.png","I_Dist_200_LN_4_LD_30_RN_1_RD_3_1.png","I_Dist_200_LN_6_LD_20_RN_3_RD_6_1.png","I_Dist_200_LN_7_LD_15_RN_4_RD_6_1.png","I_Dist_200_LN_7_LD_15_RN_6_RD_9_1.png","I_Dist_200_LN_9_LD_15_RN_8_RD_10_1.png"]],"dist200_S":[["E_Dist_200_LN_3_LD_6_RN_3_RD_10_0.png"],["E_Dist_200_LN_3_LD_10_RN_3_RD_6_1.png"]],"dist300_C":[["C_Dist_300_LN_11_LD_22_RN_1_RD_5_0.png","C_Dist_300_LN_11_LD_22_RN_2_RD_10_0.png","C_Dist_300_LN_11_LD_22_RN_4_RD_20_0.png","C_Dist_300_LN_12_LD_24_RN_2_RD_10_0.png","C_Dist_300_LN_18_LD_20_RN_9_RD_15_0.png","C_Dist_300_LN_20_LD_25_RN_13_RD_26_0.png","C_Dist_300_LN_20_LD_25_RN_14_RD_28_0.png","C_Dist_300_LN_20_LD_25_RN_5_RD_10_0.png","C_Dist_300_LN_20_LD_25_RN_8_RD_16_0.png","C_Dist_300_LN_20_LD_25_RN_9_RD_18_0.png","C_Dist_300_LN_24_LD_30_RN_2_RD_4_0.png","C_Dist_300_LN_24_LD_30_RN_8_RD_16_0.png","C_Dist_300_LN_3_LD_6_RN_2_RD_10_0.png","C_Dist_300_LN_4_LD_10_RN_1_RD_10_0.png","C_Dist_300_LN_4_LD_5_RN_2_RD_4_0.png","C_Dist_300_LN_8_LD_16_RN_1_RD_5_0.png","C_Dist_300_LN_9_LD_10_RN_3_RD_5_0.png"],["C_Dist_300_LN_1_LD_20_RN_7_RD_20_1.png","C_Dist_300_LN_1_LD_3_RN_19_RD_30_1.png","C_Dist_300_LN_1_LD_30_RN_8_RD_24_1.png","C_Dist_300_LN_1_LD_5_RN_11_RD_22_1.png","C_Dist_300_LN_1_LD_5_RN_3_RD_6_1.png","C_Dist_300_LN_1_LD_5_RN_6_RD_12_1.png","C_Dist_300_LN_2_LD_10_RN_12_RD_24_1.png","C_Dist_300_LN_2_LD_20_RN_10_RD_25_1.png","C_Dist_300_LN_3_LD_12_RN_11_RD_20_1.png","C_Dist_300_LN_3_LD_6_RN_4_RD_5_1.png","C_Dist_300_LN_4_LD_20_RN_13_RD_26_1.png","C_Dist_300_LN_5_LD_25_RN_6_RD_12_1.png","C_Dist_300_LN_5_LD_25_RN_7_RD_14_1.png","C_Dist_300_LN_7_LD_14_RN_20_RD_25_1.png","C_Dist_300_LN_8_LD_15_RN_10_RD_12_1.png"]],"dist300_I":[["I_Dist_300_LN_1_LD_2_RN_2_RD_10_0.png","I_Dist_300_LN_1_LD_2_RN_3_RD_15_0.png","I_Dist_300_LN_2_LD_4_RN_6_RD_30_0.png","I_Dist_300_LN_3_LD_6_RN_4_RD_20_0.png","I_Dist_300_LN_4_LD_5_RN_6_RD_12_0.png","I_Dist_300_LN_4_LD_5_RN_8_RD_16_0.png","I_Dist_300_LN_7_LD_10_RN_8_RD_20_0.png","I_Dist_300_LN_8_LD_10_RN_14_RD_28_0.png","I_Dist_300_LN_8_LD_10_RN_9_RD_18_0.png"],["I_Dist_300_LN_13_LD_26_RN_12_RD_15_1.png","I_Dist_300_LN_4_LD_20_RN_2_RD_4_1.png"]],"dist300_S":[["E_Dist_300_LN_9_LD_12_RN_9_RD_20_0.png"],["E_Dist_300_LN_18_LD_30_RN_18_RD_20_1.png","E_Dist_300_LN_3_LD_10_RN_3_RD_5_1.png","E_Dist_300_LN_9_LD_20_RN_9_RD_12_1.png"]],"dist500_C":[["C_Dist_500_LN_10_LD_13_RN_7_RD_26_0.png","C_Dist_500_LN_10_LD_15_RN_4_RD_24_0.png","C_Dist_500_LN_12_LD_16_RN_3_RD_12_0.png","C_Dist_500_LN_12_LD_18_RN_4_RD_24_0.png","C_Dist_500_LN_15_LD_18_RN_5_RD_15_0.png","C_Dist_500_LN_15_LD_20_RN_1_RD_4_0.png","C_Dist_500_LN_18_LD_27_RN_1_RD_6_0.png","C_Dist_500_LN_20_LD_24_RN_1_RD_3_0.png","C_Dist_500_LN_20_LD_24_RN_3_RD_9_0.png","C_Dist_500_LN_20_LD_24_RN_7_RD_21_0.png","C_Dist_500_LN_20_LD_28_RN_3_RD_14_0.png","C_Dist_500_LN_21_LD_28_RN_6_RD_24_0.png","C_Dist_500_LN_22_LD_28_RN_2_RD_7_0.png","C_Dist_500_LN_25_LD_30_RN_9_RD_27_0.png","C_Dist_500_LN_4_LD_6_RN_1_RD_6_0.png","C_Dist_500_LN_5_LD_6_RN_2_RD_6_0.png","C_Dist_500_LN_6_LD_9_RN_1_RD_6_0.png","C_Dist_500_LN_7_LD_10_RN_1_RD_5_0.png","C_Dist_500_LN_8_LD_12_RN_1_RD_6_0.png","C_Dist_500_LN_8_LD_12_RN_4_RD_24_0.png"],["C_Dist_500_LN_1_LD_4_RN_12_RD_16_1.png","C_Dist_500_LN_1_LD_4_RN_9_RD_12_1.png","C_Dist_500_LN_1_LD_9_RN_11_RD_18_1.png","C_Dist_500_LN_10_LD_24_RN_22_RD_24_1.png","C_Dist_500_LN_2_LD_12_RN_10_RD_15_1.png","C_Dist_500_LN_2_LD_12_RN_12_RD_18_1.png","C_Dist_500_LN_2_LD_12_RN_4_RD_6_1.png","C_Dist_500_LN_2_LD_24_RN_7_RD_12_1.png","C_Dist_500_LN_2_LD_5_RN_18_RD_20_1.png","C_Dist_500_LN_2_LD_5_RN_9_RD_10_1.png","C_Dist_500_LN_2_LD_8_RN_12_RD_16_1.png","C_Dist_500_LN_2_LD_8_RN_21_RD_28_1.png","C_Dist_500_LN_3_LD_10_RN_4_RD_5_1.png","C_Dist_500_LN_3_LD_12_RN_15_RD_20_1.png","C_Dist_500_LN_3_LD_30_RN_6_RD_10_1.png","C_Dist_500_LN_3_LD_8_RN_14_RD_16_1.png","C_Dist_500_LN_4_LD_16_RN_15_RD_20_1.png","C_Dist_500_LN_4_LD_24_RN_12_RD_18_1.png","C_Dist_500_LN_5_LD_14_RN_6_RD_7_1.png","C_Dist_500_LN_7_LD_21_RN_20_RD_24_1.png","C_Dist_500_LN_7_LD_28_RN_12_RD_16_1.png","C_Dist_500_LN_7_LD_28_RN_9_RD_12_1.png","C_Dist_500_LN_9_LD_27_RN_20_RD_24_1.png"]],"dist500_I":[["I_Dist_500_LN_2_LD_3_RN_4_RD_24_0.png","I_Dist_500_LN_5_LD_6_RN_6_RD_18_0.png","I_Dist_500_LN_7_LD_8_RN_9_RD_24_0.png"],["I_Dist_500_LN_7_LD_21_RN_5_RD_6_1.png"]],"dist500_S":[["E_Dist_500_LN_6_LD_8_RN_6_RD_24_0.png"],["E_Dist_500_LN_2_LD_12_RN_2_RD_3_1.png","E_Dist_500_LN_6_LD_24_RN_6_RD_8_1.png"]]}},{"start_time":1551899880407,"click_time":1551899882691,"finger_time":1551899881911,"fix_duration":1394.640336306772,"trial":1,"RT":1504,"MT":780,"sideResp":2,"stimulus":[],"xmouse":[782,782,782,782,782,782,782,782,782,782,782,782,782,782,782,782,782,782,782,782,782,782,782,782,782,782,782,782,782,782,782,782,782,782,782,782,782,782,782,782,782,782,782,782,782,782,782,782,782,782,782,782,782,782,782,782,782,782,782,782,782,782,782,782,782,782,782,782,782,782,782,782,782,782,788,845,867,869,872,876,884,886,889,894,923,999,1056,1107,1155,1213,1234,1246,1250,1240,1230,1219,1219,1219,1219,1219,1216,1210,1208,1205,1202,1193,1184,1177,1175,1175,1175,1173,1167,1159,1150],"ymouse":[609,609,609,609,609,609,609,609,609,609,609,609,609,609,609,609,609,609,609,609,609,609,609,609,609,609,609,609,609,609,609,609,609,609,609,609,609,609,609,609,609,609,609,609,609,609,609,609,609,609,609,609,609,609,609,609,609,609,609,609,609,609,609,609,609,609,609,609,609,609,609,609,609,609,607,542,517,512,508,502,491,487,483,476,444,366,306,242,174,52,3,0,0,0,0,0,0,0,0,0,2,7,10,13,14,20,24,27,28,28,28,28,30,33,36],"timestamp_mouse":[8,32,44,63,84,104,123,144,164,185,203,223,244,263,284,304,323,343,363,383,404,424,444,465,483,503,523,544,564,584,603,623,644,664,683,704,724,744,764,785,803,823,843,864,884,904,923,943,963,983,1003,1024,1044,1063,1083,1104,1124,1143,1163,1184,1204,1224,1244,1263,1283,1305,1323,1343,1363,1385,1404,1424,1444,1464,1484,1504,1523,1544,1564,1583,1603,1625,1643,1664,1683,1703,1723,1744,1763,1784,1803,1824,1843,1863,1883,1903,1923,1943,1963,1985,2004,2024,2044,2064,2084,2104,2123,2144,2164,2184,2204,2224,2243,2263,2284],"xSR":741.5,"ySR":573.95,"xT1":424.9,"yT1":0,"xT2":1058.1,"yT2":0,"toosoon":0,"cond_shown":"Incongruent","ratio_trial":300,"L_num":13,"L_den":26,"R_num":12,"R_den":15,"correct_side":2,"subjID":"Laurasofiacortesdiaz18","gender":"1","school":"6","age":"11"},{"start_time":1551899887473,"click_time":1551899889590,"finger_time":1551899889011,"fix_duration":500.3743946721645,"trial":2,"RT":1538,"MT":579,"sideResp":2,"stimulus":[],"xmouse":[769,769,769,769,769,769,769,769,769,769,769,769,769,769,769,769,769,769,769,769,769,769,769,769,769,769,769,769,769,769,769,769,769,769,769,769,769,769,769,769,769,769,769,769,769,769,769,769,769,769,769,769,769,769,769,769,769,769,769,769,769,769,769,769,769,769,769,769,769,769,769,769,777,793,809,828,859,880,882,883,883,884,892,915,956,1013,1115,1157,1169,1179,1183,1184,1184,1181,1178,1175,1169,1159,1149,1141,1137,1133,1130,1128,1121,1112],"ymouse":[652,652,652,652,652,652,652,652,652,652,652,652,652,652,652,652,652,652,652,652,652,652,652,652,652,652,652,652,652,652,652,652,652,652,652,652,652,652,652,652,652,652,652,652,652,652,652,652,652,652,652,652,652,652,652,652,652,652,652,652,652,652,652,652,652,652,652,652,652,652,652,652,649,643,632,617,586,570,567,566,566,565,559,546,525,491,429,393,375,356,334,289,274,261,252,244,230,212,198,186,175,152,135,119,100,80],"timestamp_mouse":[18,38,57,77,97,118,138,158,178,198,219,237,257,277,299,319,338,359,378,397,418,438,458,479,498,518,537,558,577,597,617,637,657,677,698,718,738,757,777,797,819,838,857,877,897,918,938,958,977,997,1017,1038,1059,1078,1098,1117,1137,1157,1178,1198,1218,1238,1258,1278,1298,1317,1337,1358,1378,1397,1417,1439,1457,1478,1497,1517,1538,1557,1577,1598,1618,1638,1658,1679,1698,1719,1737,1758,1777,1797,1818,1838,1858,1878,1898,1917,1938,1957,1977,1999,2018,2038,2059,2078,2098,2117],"xSR":741.5,"ySR":573.95,"xT1":424.9,"yT1":0,"xT2":1058.1,"yT2":0,"toosoon":0,"cond_shown":"Congruent","ratio_trial":100,"L_num":6,"L_den":12,"R_num":15,"R_den":25,"correct_side":2,"subjID":"Laurasofiacortesdiaz18","gender":"1","school":"6","age":"11"},{"start_time":1551899892509,"click_time":1551899895750,"finger_time":1551899895111,"fix_duration":756.783168497688,"trial":3,"RT":2602,"MT":639,"sideResp":1,"stimulus":[],"xmouse":[797,797,797,797,797,797,797,797,797,797,797,797,797,797,797,797,797,797,797,797,797,797,797,797,797,797,797,797,797,797,797,797,797,797,797,797,797,797,797,797,797,797,797,797,797,797,797,797,797,797,797,797,797,797,797,797,797,797,797,797,797,797,797,797,797,797,797,797,797,797,797,797,797,797,797,797,797,797,797,797,797,797,797,797,797,797,797,797,797,797,797,797,797,797,797,797,797,797,797,797,797,797,797,797,797,797,797,797,797,797,797,797,797,797,796,796,796,796,796,796,796,796,796,796,796,795,794,789,784,774,739,681,609,529,451,349,318,310,305,305,318,326,334,336,337,337,339,344,351,362,373,375,379,383,388,407,414,418,418,419,420,423,427],"ymouse":[628,628,628,628,628,628,628,628,628,628,628,628,628,628,628,628,628,628,628,628,628,628,628,628,628,628,628,628,628,628,628,628,628,628,628,628,628,628,628,628,628,628,628,628,628,628,628,628,628,628,628,628,628,628,628,628,628,628,628,628,628,628,628,628,628,628,628,628,628,628,628,628,628,628,628,628,628,628,628,628,628,628,628,628,628,628,628,628,628,628,628,628,628,628,628,628,628,628,628,628,628,628,628,628,628,628,628,628,628,628,628,628,628,628,628,628,628,628,628,628,628,628,628,628,628,628,628,628,628,623,606,573,529,471,417,344,319,304,288,271,234,220,205,194,186,178,156,146,133,118,98,93,90,85,81,71,66,65,65,64,64,64,62],"timestamp_mouse":[7,29,42,62,82,101,121,141,163,182,202,221,242,262,282,302,322,342,361,381,402,422,442,462,482,501,521,541,561,581,602,621,641,662,682,702,722,742,763,781,801,822,842,861,881,901,922,941,962,981,1002,1021,1041,1063,1082,1101,1122,1141,1161,1181,1201,1221,1241,1262,1281,1301,1321,1342,1361,1381,1401,1422,1442,1462,1481,1501,1521,1541,1562,1583,1601,1623,1641,1661,1681,1702,1722,1742,1762,1782,1801,1822,1842,1862,1881,1901,1921,1942,1962,1981,2001,2021,2041,2062,2081,2103,2122,2141,2163,2182,2202,2221,2241,2261,2281,2302,2322,2341,2361,2383,2403,2422,2442,2462,2482,2502,2523,2542,2562,2582,2602,2621,2642,2662,2683,2701,2722,2741,2762,2782,2802,2821,2842,2862,2881,2901,2921,2941,2962,2982,3002,3023,3041,3061,3081,3101,3122,3142,3163,3183,3202,3223,3241],"xSR":741.5,"ySR":573.95,"xT1":424.9,"yT1":0,"xT2":1058.1,"yT2":0,"toosoon":0,"cond_shown":"Incongruent","ratio_trial":100,"L_num":3,"L_den":6,"R_num":4,"R_den":10,"correct_side":1,"subjID":"Laurasofiacortesdiaz18","gender":"1","school":"6","age":"11"},{"start_time":1551899897903,"click_time":1551899899672,"finger_time":1551899899251,"fix_duration":312.0338700612856,"trial":4,"RT":1348,"MT":421,"sideResp":2,"stimulus":[],"xmouse":[769,769,769,769,769,769,769,769,769,769,769,769,769,769,769,769,769,769,769,769,769,769,769,769,769,769,769,769,769,769,769,769,769,769,769,769,769,769,769,769,769,769,769,769,769,769,769,769,769,769,769,769,769,769,769,769,769,769,769,769,769,769,769,769,769,799,832,881,960,1040,1182,1228,1253,1261,1264,1264,1258,1254,1248,1244,1239,1235,1232,1225,1217,1197,1177,1162,1148],"ymouse":[602,602,602,602,602,602,602,602,602,602,602,602,602,602,602,602,602,602,602,602,602,602,602,602,602,602,602,602,602,602,602,602,602,602,602,602,602,602,602,602,602,602,602,602,602,602,602,602,602,602,602,602,602,602,602,602,602,602,602,602,602,602,602,602,602,592,575,542,486,420,277,218,180,162,152,144,137,131,121,113,106,102,100,95,92,87,84,84,84],"timestamp_mouse":[8,35,48,68,89,108,127,148,168,188,208,227,248,268,288,309,327,349,367,388,407,429,448,468,487,507,528,547,567,587,607,627,647,667,688,707,727,748,767,787,807,828,848,868,888,907,929,948,967,988,1007,1027,1047,1067,1088,1108,1127,1147,1167,1188,1208,1228,1249,1267,1287,1308,1328,1347,1367,1388,1408,1429,1448,1467,1487,1507,1528,1548,1569,1588,1608,1629,1647,1668,1688,1707,1727,1747,1769],"xSR":741.5,"ySR":573.95,"xT1":424.9,"yT1":0,"xT2":1058.1,"yT2":0,"toosoon":0,"cond_shown":"Incongruent","ratio_trial":200,"L_num":14,"L_den":30,"R_num":6,"R_den":9,"correct_side":2,"subjID":"Laurasofiacortesdiaz18","gender":"1","school":"6","age":"11"},{"start_time":1551899902906,"click_time":1551899904770,"finger_time":1551899904230,"fix_duration":1155.0815896772954,"trial":5,"RT":1324,"MT":540,"sideResp":1,"stimulus":[],"xmouse":[816,816,816,816,816,816,816,816,816,816,816,816,816,816,816,816,816,816,816,816,816,816,816,816,816,816,816,816,816,816,816,816,816,816,816,816,816,816,816,816,816,816,816,816,816,816,816,816,816,816,816,816,816,816,816,816,816,816,816,816,816,816,814,810,798,761,715,689,669,653,632,624,621,620,618,609,599,588,575,570,545,536,529,521,514,504,502,500,499,496,489,486,483,481],"ymouse":[634,634,634,634,634,634,634,634,634,634,634,634,634,634,634,634,634,634,634,634,634,634,634,634,634,634,634,634,634,634,634,634,634,634,634,634,634,634,634,634,634,634,634,634,634,634,634,634,634,634,634,634,634,634,634,634,634,634,634,634,634,634,632,628,618,588,554,529,512,496,467,453,447,439,428,383,361,339,322,291,258,247,238,229,220,207,197,188,179,166,128,110,101,97],"timestamp_mouse":[8,32,44,64,84,105,124,145,164,184,204,224,244,264,284,304,324,344,364,385,404,424,444,464,485,504,524,544,564,584,605,624,644,664,684,704,724,744,765,784,805,824,844,865,885,904,924,945,964,984,1004,1024,1044,1064,1084,1104,1124,1144,1164,1184,1205,1224,1244,1264,1284,1304,1324,1344,1365,1384,1404,1424,1444,1464,1484,1504,1524,1544,1565,1584,1604,1624,1644,1664,1685,1704,1724,1744,1764,1784,1805,1824,1844,1864],"xSR":741.5,"ySR":573.95,"xT1":424.9,"yT1":0,"xT2":1058.1,"yT2":0,"toosoon":0,"cond_shown":"Incongruent","ratio_trial":100,"L_num":2,"L_den":4,"R_num":6,"R_den":15,"correct_side":1,"subjID":"Laurasofiacortesdiaz18","gender":"1","school":"6","age":"11"},{"start_time":1551899908381,"click_time":1551899910231,"finger_time":1551899909750,"fix_duration":1470.0806810452448,"trial":6,"RT":1369,"MT":481,"sideResp":1,"stimulus":[],"xmouse":[812,812,812,812,812,812,812,812,812,812,812,812,812,812,812,812,812,812,812,812,812,812,812,812,812,812,812,812,812,812,812,812,812,812,812,812,812,812,812,812,812,812,812,812,812,812,812,812,812,812,812,812,812,812,812,812,812,812,812,812,812,812,812,812,812,808,784,765,739,699,651,574,568,556,553,552,542,533,522,512,498,471,458,455,455,455,454,454,454,454,454,454,455],"ymouse":[624,624,624,624,624,624,624,624,624,624,624,624,624,624,624,624,624,624,624,624,624,624,624,624,624,624,624,624,624,624,624,624,624,624,624,624,624,624,624,624,624,624,624,624,624,624,624,624,624,624,624,624,624,624,624,624,624,624,624,624,624,624,624,624,624,623,605,592,575,552,525,462,452,430,419,412,387,371,352,329,300,236,200,178,158,141,123,121,120,119,115,105,97],"timestamp_mouse":[9,32,49,69,89,109,129,149,169,189,209,229,249,269,289,309,329,349,369,390,409,429,449,469,489,510,529,550,570,589,609,629,649,669,689,709,729,749,769,789,809,829,849,870,889,909,929,949,969,989,1009,1029,1049,1070,1089,1110,1129,1150,1169,1189,1209,1228,1249,1269,1289,1309,1329,1349,1369,1389,1409,1429,1450,1469,1489,1509,1530,1549,1570,1589,1610,1628,1649,1669,1689,1709,1730,1749,1769,1790,1809,1830,1850],"xSR":741.5,"ySR":573.95,"xT1":424.9,"yT1":0,"xT2":1058.1,"yT2":0,"toosoon":0,"cond_shown":"Incongruent","ratio_trial":300,"L_num":1,"L_den":2,"R_num":3,"R_den":15,"correct_side":1,"subjID":"Laurasofiacortesdiaz18","gender":"1","school":"6","age":"11"},{"start_time":1551899913501,"click_time":1551899915710,"finger_time":1551899914930,"fix_duration":250,"trial":7,"RT":1429,"MT":780,"sideResp":2,"stimulus":[],"xmouse":[783,783,783,783,783,783,783,783,783,783,783,783,783,783,783,783,783,783,783,783,783,783,783,783,783,783,783,783,783,783,783,783,783,783,783,783,783,783,783,783,783,783,783,783,783,783,783,783,783,783,783,783,783,783,783,783,783,783,783,783,783,783,783,783,783,783,783,783,783,787,833,861,872,876,879,881,881,881,881,882,897,935,980,1018,1046,1080,1086,1089,1089,1089,1089,1089,1089,1089,1089,1086,1086,1086,1086,1086,1076,1070,1065,1064,1064,1064,1064,1064,1066,1069,1075],"ymouse":[602,602,602,602,602,602,602,602,602,602,602,602,602,602,602,602,602,602,602,602,602,602,602,602,602,602,602,602,603,603,603,603,603,603,603,603,603,603,603,603,603,603,603,603,603,603,603,603,603,603,603,603,603,603,603,603,603,603,603,603,603,603,603,603,603,603,603,603,603,603,577,562,557,556,556,556,556,556,556,556,539,513,490,472,457,431,419,399,382,366,328,308,288,267,249,212,188,174,163,155,139,133,130,129,129,128,125,120,114,107,94],"timestamp_mouse":[10,36,49,69,89,110,130,149,169,189,209,229,249,269,289,309,329,349,369,389,409,429,449,469,489,509,529,549,569,589,610,629,649,669,689,709,729,749,769,789,809,829,849,869,889,909,929,948,969,990,1009,1030,1049,1070,1089,1109,1130,1149,1170,1189,1209,1229,1249,1269,1289,1309,1329,1349,1369,1389,1409,1429,1449,1469,1489,1510,1530,1549,1569,1589,1609,1629,1649,1669,1690,1709,1729,1749,1769,1789,1809,1829,1850,1869,1889,1909,1930,1949,1969,1989,2009,2029,2049,2069,2089,2109,2129,2149,2169,2189,2209],"xSR":741.5,"ySR":573.95,"xT1":424.9,"yT1":0,"xT2":1058.1,"yT2":0,"toosoon":0,"cond_shown":"Incongruent","ratio_trial":200,"L_num":3,"L_den":10,"R_num":1,"R_den":2,"correct_side":2,"subjID":"Laurasofiacortesdiaz18","gender":"1","school":"6","age":"11"},{"start_time":1551899919395,"click_time":1551899921410,"finger_time":1551899920850,"fix_duration":1344.5354480504016,"trial":8,"RT":1455,"MT":560,"sideResp":2,"stimulus":[],"xmouse":[805,805,805,805,805,805,805,805,805,805,805,805,805,805,805,805,805,805,805,805,805,805,805,805,805,805,805,805,805,805,805,805,805,805,805,805,805,805,805,805,805,805,805,805,805,805,805,805,805,805,805,805,805,805,805,805,805,805,805,805,805,805,805,805,805,805,805,805,812,817,830,838,857,874,892,929,947,962,981,1018,1027,1031,1034,1038,1042,1052,1056,1061,1063,1066,1073,1077,1079,1082,1085,1093,1097,1101,1104,1105,1106],"ymouse":[609,609,609,609,609,609,609,609,609,609,609,609,609,609,609,609,609,609,609,609,609,609,609,609,609,609,609,609,609,609,609,609,609,609,609,609,609,609,609,609,609,609,609,609,609,609,609,609,609,609,609,609,609,609,609,609,609,609,609,609,609,609,609,609,609,609,609,609,607,603,592,584,564,547,525,476,447,416,384,329,311,287,273,257,243,214,204,195,186,178,162,155,149,141,136,123,118,112,108,104,99],"timestamp_mouse":[27,35,55,75,96,116,135,155,175,195,215,235,255,275,295,315,335,355,376,396,415,435,455,476,495,515,535,555,575,595,615,635,655,675,695,715,735,755,775,795,815,835,855,876,896,915,935,955,977,995,1015,1035,1055,1075,1095,1115,1135,1155,1175,1195,1215,1235,1255,1275,1295,1315,1335,1355,1375,1395,1415,1435,1455,1474,1495,1515,1535,1555,1575,1596,1615,1635,1655,1675,1695,1715,1735,1755,1775,1795,1815,1835,1855,1875,1895,1915,1936,1955,1975,1996,2015],"xSR":741.5,"ySR":573.95,"xT1":424.9,"yT1":0,"xT2":1058.1,"yT2":0,"toosoon":0,"cond_shown":"Congruent","ratio_trial":200,"L_num":3,"L_den":10,"R_num":11,"R_den":22,"correct_side":2,"subjID":"Laurasofiacortesdiaz18","gender":"1","school":"6","age":"11"},{"start_time":1551899925046,"click_time":1551899927590,"finger_time":1551899926650,"fix_duration":1475.8451354311812,"trial":9,"RT":1604,"MT":940,"sideResp":2,"stimulus":[],"xmouse":[787,787,787,787,787,787,787,787,787,787,787,787,787,787,787,787,787,787,787,787,787,787,787,787,787,787,787,787,787,787,787,787,787,787,787,787,787,787,787,787,787,787,787,787,787,787,787,787,787,787,787,787,787,787,787,787,787,787,787,787,787,787,787,787,787,787,787,787,787,787,787,787,787,787,787,793,799,811,825,830,840,848,858,894,911,920,928,936,973,1006,1018,1053,1080,1177,1228,1266,1288,1300,1308,1293,1276,1264,1256,1252,1252,1252,1252,1250,1248,1246,1244,1243,1242,1239,1236,1229,1219,1185,1166,1135,1128,1116,1110,1108,1108,1106,1106,1106],"ymouse":[613,613,613,613,613,613,613,613,613,613,613,613,613,613,613,613,613,613,613,613,613,613,613,613,613,613,613,613,613,613,613,613,613,613,613,613,613,613,613,613,613,613,613,613,613,613,613,613,613,613,613,613,613,613,613,613,613,613,613,613,613,613,613,613,613,613,613,613,613,613,613,613,613,613,613,618,628,644,663,670,678,684,690,701,704,705,705,705,697,686,681,666,649,576,532,499,470,440,384,335,295,267,242,203,186,167,154,144,135,132,130,128,128,128,128,129,130,130,130,128,125,119,115,111,108,104,100,95],"timestamp_mouse":[8,26,45,64,84,104,124,144,164,184,204,224,244,264,284,304,324,345,364,384,404,424,444,464,484,504,524,544,564,584,604,624,644,664,684,704,724,744,764,784,804,824,844,864,884,904,924,944,964,984,1004,1024,1044,1064,1084,1104,1124,1144,1164,1184,1204,1225,1244,1264,1284,1304,1324,1344,1364,1384,1405,1424,1445,1465,1484,1505,1524,1544,1564,1584,1604,1624,1644,1663,1684,1704,1724,1744,1764,1784,1805,1824,1844,1864,1884,1905,1924,1944,1964,1984,2004,2024,2044,2065,2084,2104,2124,2144,2164,2184,2204,2224,2245,2264,2283,2304,2324,2345,2364,2385,2404,2424,2444,2465,2484,2504,2524,2544],"xSR":741.5,"ySR":573.95,"xT1":424.9,"yT1":0,"xT2":1058.1,"yT2":0,"toosoon":0,"cond_shown":"Incongruent","ratio_trial":100,"L_num":6,"L_den":12,"R_num":3,"R_den":5,"correct_side":2,"subjID":"Laurasofiacortesdiaz18","gender":"1","school":"6","age":"11"},{"start_time":1551899930441,"click_time":1551899932770,"finger_time":1551899931870,"fix_duration":250,"trial":10,"RT":1429,"MT":900,"sideResp":1,"stimulus":[],"xmouse":[787,787,787,787,787,787,787,787,787,787,787,787,787,787,787,787,787,787,787,787,787,787,787,787,787,787,787,787,787,787,787,787,787,787,787,787,787,787,787,787,787,787,787,787,787,787,787,787,787,787,787,787,787,787,787,787,787,787,787,787,787,787,787,787,787,787,787,789,790,790,782,754,745,743,742,739,733,726,713,703,694,672,655,630,621,608,595,583,557,547,534,525,520,509,506,501,495,488,473,469,465,459,452,444,438,431,421,413,408,408,408,408,408,414,418,422,427],"ymouse":[620,620,620,620,620,620,620,620,620,620,620,620,620,620,620,620,620,620,620,620,620,620,620,620,620,620,620,620,620,620,620,620,620,620,620,620,620,620,620,620,620,620,620,620,620,620,620,620,620,620,620,620,620,620,620,620,620,620,620,620,620,620,620,620,620,620,620,620,620,620,610,569,558,556,554,549,540,531,515,511,507,500,496,488,482,473,461,446,402,378,354,325,311,291,285,274,261,244,207,191,177,168,159,149,141,130,117,105,93,91,90,86,81,70,63,57,51],"timestamp_mouse":[10,30,49,69,89,109,138,150,168,190,209,229,249,269,289,309,329,350,369,389,409,429,449,469,489,509,529,549,569,590,609,629,649,669,689,709,730,749,768,789,809,829,849,869,889,909,929,949,969,988,1009,1029,1049,1069,1090,1109,1129,1149,1169,1189,1209,1228,1250,1269,1289,1309,1329,1349,1369,1390,1409,1429,1449,1469,1489,1509,1529,1549,1569,1589,1609,1629,1649,1669,1689,1709,1729,1749,1769,1789,1809,1829,1849,1869,1889,1910,1929,1949,1969,1989,2010,2029,2049,2069,2089,2110,2129,2149,2169,2189,2209,2229,2249,2269,2289,2310,2329],"xSR":741.5,"ySR":573.95,"xT1":424.9,"yT1":0,"xT2":1058.1,"yT2":0,"toosoon":0,"cond_shown":"Congruent","ratio_trial":300,"L_num":11,"L_den":22,"R_num":4,"R_den":20,"correct_side":1,"subjID":"Laurasofiacortesdiaz18","gender":"1","school":"6","age":"11"},{"start_time":1551899937429,"click_time":1551899939270,"finger_time":1551899938970,"fix_duration":1457.8496234322736,"trial":11,"RT":1541,"MT":300,"sideResp":1,"stimulus":[],"xmouse":[791,791,791,791,791,791,791,791,791,791,791,791,791,791,791,791,791,791,791,791,791,791,791,791,791,791,791,791,791,791,791,791,791,791,791,791,791,791,791,791,791,791,791,791,791,791,791,791,791,791,791,791,791,791,791,791,791,791,791,791,791,791,791,791,791,791,791,791,791,791,791,791,791,791,783,766,752,733,681,652,632,621,619,620,628,629,630,630,625,613,591,543,502],"ymouse":[609,609,609,609,609,609,609,609,609,609,609,609,609,609,609,609,609,609,609,609,609,609,609,609,609,609,609,609,609,609,609,609,609,609,609,609,609,609,609,609,609,609,609,609,609,609,609,609,609,609,609,609,609,609,609,609,609,609,609,609,609,609,609,609,609,609,609,609,609,609,609,609,609,609,609,602,593,571,497,449,400,355,298,274,247,237,225,213,176,152,120,74,49],"timestamp_mouse":[7,30,41,61,82,101,121,141,161,181,201,221,241,261,282,302,321,341,361,381,401,421,441,462,481,501,522,541,562,581,601,621,641,661,681,701,721,741,761,781,801,821,841,861,881,901,921,941,962,981,1001,1021,1041,1061,1081,1101,1121,1141,1161,1181,1201,1221,1241,1261,1282,1301,1322,1341,1362,1381,1401,1421,1441,1461,1482,1501,1521,1541,1562,1581,1601,1621,1641,1661,1681,1701,1721,1741,1762,1781,1801,1821,1841],"xSR":741.5,"ySR":573.95,"xT1":424.9,"yT1":0,"xT2":1058.1,"yT2":0,"toosoon":0,"cond_shown":"Congruent","ratio_trial":100,"L_num":11,"L_den":22,"R_num":6,"R_den":15,"correct_side":1,"subjID":"Laurasofiacortesdiaz18","gender":"1","school":"6","age":"11"},{"start_time":1551899941323,"click_time":1551899943210,"finger_time":1551899942810,"fix_duration":572.009758863437,"trial":12,"RT":1487,"MT":400,"sideResp":1,"stimulus":[],"xmouse":[798,798,798,798,798,798,798,798,798,798,798,798,798,798,798,798,798,798,798,798,798,798,798,798,798,798,798,798,798,798,798,798,798,798,798,798,798,798,798,798,798,798,798,798,798,798,798,798,798,798,798,798,798,798,798,798,798,798,798,798,798,798,798,798,798,798,798,798,798,798,798,798,795,774,646,615,596,560,537,519,515,514,512,511,511,510,508,501,496,474,465,459,455,452,451],"ymouse":[640,640,640,640,640,640,640,640,640,640,640,640,640,640,640,640,640,640,640,640,640,640,640,640,640,640,640,640,640,640,640,640,640,640,640,640,640,640,640,640,640,640,640,640,640,640,640,640,640,640,640,640,640,640,640,640,640,640,640,640,640,640,640,640,640,640,640,640,640,640,640,640,635,613,507,472,446,402,371,335,317,301,287,277,257,243,228,205,189,152,134,121,112,104,97],"timestamp_mouse":[8,30,47,67,87,107,127,147,167,187,207,227,247,267,287,307,327,347,367,387,407,427,447,468,487,507,527,547,567,587,607,627,647,667,687,707,727,747,767,787,807,827,847,867,887,908,928,947,968,987,1007,1027,1047,1067,1088,1107,1127,1147,1167,1187,1207,1227,1247,1267,1287,1307,1327,1346,1367,1387,1407,1427,1448,1467,1487,1507,1527,1547,1567,1587,1607,1627,1646,1667,1687,1707,1727,1747,1767,1788,1807,1827,1847,1867,1887],"xSR":741.5,"ySR":573.95,"xT1":424.9,"yT1":0,"xT2":1058.1,"yT2":0,"toosoon":0,"cond_shown":"Congruent","ratio_trial":200,"L_num":11,"L_den":22,"R_num":3,"R_den":10,"correct_side":1,"subjID":"Laurasofiacortesdiaz18","gender":"1","school":"6","age":"11"},{"start_time":1551899946173,"click_time":1551899948371,"finger_time":1551899947711,"fix_duration":482.98212180610244,"trial":13,"RT":1538,"MT":660,"sideResp":1,"stimulus":[],"xmouse":[820,820,820,820,820,820,820,820,820,820,820,820,820,820,820,820,820,820,820,820,820,820,820,820,820,820,820,820,820,820,820,820,820,820,820,820,820,820,820,820,820,820,820,820,820,820,820,820,820,820,820,820,820,820,820,820,820,820,820,820,820,820,820,820,820,820,820,820,820,820,820,820,820,820,818,797,682,676,676,669,613,564,517,469,428,396,377,370,366,361,358,352,344,337,332,330,330,330,335,341,360,366,371,374,380,385,398,408,419,432],"ymouse":[642,642,642,642,642,642,642,642,642,642,642,642,642,642,642,642,642,642,642,642,642,642,642,642,642,642,642,642,642,642,642,642,642,642,642,642,642,642,642,642,642,642,642,642,642,642,642,642,642,642,642,642,642,642,642,642,642,642,642,642,642,642,642,642,642,642,642,642,642,642,642,642,642,642,642,651,702,711,712,710,670,627,573,512,459,412,323,268,210,164,134,91,70,53,41,27,23,20,16,11,2,0,0,0,0,0,1,3,7,12],"timestamp_mouse":[18,37,57,77,98,119,137,157,177,197,217,237,257,277,297,317,337,357,377,397,417,437,457,477,497,517,537,557,577,597,618,637,657,677,697,718,737,757,778,797,817,837,857,878,897,917,938,957,977,997,1017,1038,1057,1077,1097,1116,1138,1157,1177,1197,1217,1238,1257,1278,1297,1317,1337,1357,1377,1397,1417,1437,1457,1477,1497,1517,1538,1557,1577,1597,1617,1637,1657,1676,1697,1717,1738,1757,1777,1797,1817,1836,1857,1878,1897,1917,1937,1958,1978,1997,2018,2037,2058,2078,2099,2117,2138,2157,2177,2197],"xSR":741.5,"ySR":573.95,"xT1":424.9,"yT1":0,"xT2":1058.1,"yT2":0,"toosoon":0,"cond_shown":"Incongruent","ratio_trial":300,"L_num":2,"L_den":4,"R_num":6,"R_den":30,"correct_side":1,"subjID":"Laurasofiacortesdiaz18","gender":"1","school":"6","age":"11"},{"start_time":1551899953255,"click_time":1551899955110,"finger_time":1551899954770,"fix_duration":1122.9742027454693,"trial":14,"RT":1515,"MT":340,"sideResp":1,"stimulus":[],"xmouse":[765,765,765,765,765,765,765,765,765,765,765,765,765,765,765,765,765,765,765,765,765,765,765,765,765,765,765,765,765,765,765,765,765,765,765,765,765,765,765,765,765,765,765,765,765,765,765,765,765,765,765,765,765,765,765,765,765,765,765,765,765,765,765,765,765,765,765,765,765,765,763,760,755,758,756,696,615,555,548,550,562,576,585,585,582,577,571,564,549,534,524,517,512],"ymouse":[648,648,648,648,648,648,648,648,648,648,648,648,648,648,648,648,648,648,648,648,648,648,648,648,648,648,648,648,648,648,648,648,648,648,648,648,648,648,648,648,648,648,648,648,648,648,648,648,648,648,648,648,648,648,648,648,648,648,648,648,648,648,648,648,648,648,648,648,648,648,650,652,655,641,596,522,442,368,346,329,311,292,259,239,223,209,198,169,141,122,111,104,99],"timestamp_mouse":[17,35,56,75,96,116,135,156,175,195,215,235,255,275,296,315,335,355,375,395,415,435,455,475,495,515,535,555,574,596,615,635,655,675,695,716,735,756,775,795,815,836,855,875,895,915,935,955,975,995,1015,1035,1055,1075,1095,1115,1135,1155,1186,1195,1216,1235,1255,1275,1295,1315,1336,1355,1375,1395,1415,1436,1454,1475,1495,1515,1535,1555,1575,1595,1615,1635,1655,1675,1694,1716,1735,1756,1775,1796,1815,1835,1855],"xSR":741.5,"ySR":573.95,"xT1":424.9,"yT1":0,"xT2":1058.1,"yT2":0,"toosoon":0,"cond_shown":"Congruent","ratio_trial":300,"L_num":11,"L_den":22,"R_num":1,"R_den":5,"correct_side":1,"subjID":"Laurasofiacortesdiaz18","gender":"1","school":"6","age":"11"},{"start_time":1551899960834,"click_time":1551899962830,"finger_time":1551899962210,"fix_duration":1323.9634653191574,"trial":15,"RT":1376,"MT":620,"sideResp":1,"stimulus":[],"xmouse":[791,791,791,791,791,791,791,791,791,791,791,791,791,791,791,791,791,791,791,791,791,791,791,791,791,791,791,791,791,791,791,791,791,791,791,791,791,791,791,791,791,791,791,791,791,791,791,791,791,791,791,791,791,791,791,791,791,791,791,791,791,791,791,791,791,791,792,790,740,716,696,685,675,663,662,662,664,667,681,683,674,656,635,596,577,565,556,549,534,529,529,529,528,528,526,524,521,518,510,503],"ymouse":[663,663,663,663,663,663,663,663,663,663,663,663,663,663,663,663,663,663,663,663,663,663,663,663,663,663,663,663,663,663,663,663,663,663,663,663,663,663,663,663,663,663,663,663,663,663,663,663,663,663,663,663,663,663,663,663,663,663,663,663,663,663,663,663,663,663,660,653,577,541,507,488,474,452,442,434,424,411,367,346,308,281,261,227,214,203,194,183,167,159,154,149,147,139,132,127,121,115,106,98],"timestamp_mouse":[16,37,57,76,96,116,137,156,176,196,216,237,256,276,296,316,336,356,376,396,416,436,456,477,496,516,537,557,576,596,616,637,657,676,696,716,736,756,776,796,816,836,857,876,896,917,936,957,977,996,1016,1036,1056,1076,1096,1116,1136,1157,1176,1197,1216,1236,1256,1276,1297,1315,1336,1356,1376,1396,1417,1436,1456,1476,1496,1516,1536,1557,1576,1597,1616,1636,1656,1676,1696,1716,1736,1756,1776,1796,1816,1836,1856,1876,1896,1916,1936,1957,1976,1996],"xSR":741.5,"ySR":573.95,"xT1":424.9,"yT1":0,"xT2":1058.1,"yT2":0,"toosoon":0,"cond_shown":"Congruent","ratio_trial":200,"L_num":11,"L_den":22,"R_num":3,"R_den":10,"correct_side":1,"subjID":"Laurasofiacortesdiaz18","gender":"1","school":"6","age":"11"},{"start_time":1551899965615,"click_time":1551899967371,"finger_time":1551899966711,"fix_duration":1182.384716064881,"trial":16,"RT":1096,"MT":660,"sideResp":1,"stimulus":[],"xmouse":[799,799,799,799,799,799,799,799,799,799,799,799,799,799,799,799,799,799,799,799,799,799,799,799,799,799,799,799,799,799,799,799,799,799,799,799,799,799,799,799,799,799,799,799,799,799,799,799,799,799,798,793,785,773,730,708,670,627,593,566,564,562,561,559,548,541,532,521,514,508,508,512,517,518,514,512,508,504,500,487,480,476,473,472,472,472,472,472],"ymouse":[637,637,637,637,637,637,637,637,637,637,637,637,637,637,637,637,637,637,637,637,637,637,637,637,637,637,637,637,637,637,637,637,637,637,637,637,637,637,637,637,637,637,637,637,637,637,637,637,637,637,636,634,627,616,574,549,508,461,432,409,405,398,393,385,351,326,304,285,273,259,251,233,219,208,192,184,174,164,153,137,129,123,119,114,107,104,101,98],"timestamp_mouse":[25,35,55,75,95,115,136,156,174,195,215,235,255,275,295,316,336,356,374,395,415,435,455,475,495,515,535,554,575,595,615,635,655,675,695,715,734,755,775,795,814,835,854,875,895,915,936,955,975,995,1015,1035,1055,1074,1096,1115,1135,1155,1175,1195,1215,1234,1255,1275,1296,1316,1334,1355,1375,1395,1415,1436,1455,1475,1495,1515,1534,1555,1575,1595,1615,1635,1655,1675,1695,1715,1736,1756],"xSR":741.5,"ySR":573.95,"xT1":424.9,"yT1":0,"xT2":1058.1,"yT2":0,"toosoon":0,"cond_shown":"Congruent","ratio_trial":300,"L_num":24,"L_den":30,"R_num":8,"R_den":16,"correct_side":1,"subjID":"Laurasofiacortesdiaz18","gender":"1","school":"6","age":"11"},{"start_time":1551899970366,"click_time":1551899972310,"finger_time":1551899971610,"fix_duration":315.5320495594033,"trial":17,"RT":1244,"MT":700,"sideResp":2,"stimulus":[],"xmouse":[785,785,785,785,785,785,785,785,785,785,785,785,785,785,785,785,785,785,785,785,785,785,785,785,785,785,785,785,785,785,785,785,785,785,785,785,785,785,785,785,785,785,785,785,785,783,782,782,782,782,783,788,799,810,827,829,829,829,829,829,829,831,843,863,910,942,973,1035,1082,1133,1176,1202,1230,1235,1243,1250,1254,1254,1248,1239,1230,1220,1201,1196,1195,1195,1195,1194,1194,1192,1192,1190,1188,1186,1181,1175,1167,1146],"ymouse":[604,604,604,604,604,604,604,604,604,604,604,604,604,604,604,604,604,604,604,604,604,604,604,604,604,604,604,604,604,604,604,604,604,604,604,604,604,604,604,604,604,604,604,604,606,609,612,612,612,614,615,616,616,615,612,611,611,611,611,611,611,611,602,588,561,541,520,438,375,322,285,260,219,207,193,174,157,122,104,89,76,64,43,38,37,37,37,36,36,37,37,38,38,38,38,38,40,40],"timestamp_mouse":[4,24,44,64,84,103,124,144,164,184,204,224,244,264,284,304,325,344,364,384,404,424,444,464,485,504,524,544,564,584,604,624,644,664,684,705,724,744,764,785,804,824,844,864,884,904,924,945,964,985,1004,1025,1044,1064,1084,1104,1124,1145,1164,1185,1204,1223,1243,1264,1284,1304,1323,1345,1364,1383,1404,1425,1444,1465,1484,1504,1524,1544,1564,1584,1604,1624,1644,1665,1684,1704,1725,1745,1764,1784,1804,1824,1844,1864,1884,1904,1924,1944],"xSR":741.5,"ySR":573.95,"xT1":424.9,"yT1":0,"xT2":1058.1,"yT2":0,"toosoon":0,"cond_shown":"Congruent","ratio_trial":300,"L_num":2,"L_den":20,"R_num":10,"R_den":25,"correct_side":2,"subjID":"Laurasofiacortesdiaz18","gender":"1","school":"6","age":"11"},{"start_time":1551899980086,"click_time":1551899981990,"finger_time":1551899981410,"fix_duration":355.7367544451782,"trial":18,"RT":1324,"MT":580,"sideResp":2,"stimulus":[],"xmouse":[787,787,787,787,787,787,787,787,787,787,787,787,787,787,787,787,787,787,787,787,787,787,787,787,787,787,787,787,787,787,787,787,787,787,787,787,787,787,787,787,787,787,787,787,787,787,787,787,787,787,787,787,787,787,787,787,787,787,787,787,787,787,787,787,795,802,880,959,985,1039,1059,1093,1110,1123,1125,1126,1129,1129,1132,1133,1134,1135,1137,1143,1147,1151,1152,1152,1146,1138,1133,1126,1124,1121,1118,1114],"ymouse":[651,651,651,651,651,651,651,651,651,651,651,651,651,651,651,651,651,651,651,651,651,651,651,651,651,651,651,651,651,651,651,651,651,651,651,651,651,651,651,651,651,651,651,651,651,651,651,651,651,651,651,651,651,651,651,651,651,651,651,651,651,651,651,651,652,652,603,560,549,527,518,499,485,475,470,466,458,455,451,449,447,436,422,405,384,358,292,280,237,210,184,142,128,114,107,97],"timestamp_mouse":[5,24,45,64,84,104,125,144,163,184,204,224,243,264,284,304,323,344,364,384,404,424,445,464,484,503,523,544,564,584,604,625,644,664,684,705,724,744,764,784,804,824,844,865,884,904,925,944,965,984,1004,1025,1043,1065,1084,1104,1124,1144,1164,1184,1205,1224,1244,1263,1284,1304,1324,1345,1365,1383,1404,1424,1444,1464,1484,1504,1523,1544,1563,1584,1603,1625,1644,1665,1684,1703,1724,1744,1763,1784,1803,1825,1844,1864,1884,1904],"xSR":741.5,"ySR":573.95,"xT1":424.9,"yT1":0,"xT2":1058.1,"yT2":0,"toosoon":0,"cond_shown":"Congruent","ratio_trial":300,"L_num":1,"L_den":3,"R_num":19,"R_den":30,"correct_side":2,"subjID":"Laurasofiacortesdiaz18","gender":"1","school":"6","age":"11"},{"start_time":1551899985843,"click_time":1551899987790,"finger_time":1551899987110,"fix_duration":451.58469735576745,"trial":19,"RT":1267,"MT":680,"sideResp":2,"stimulus":[],"xmouse":[811,811,811,811,811,811,811,811,811,811,811,811,811,811,811,811,811,811,811,811,811,811,811,811,811,811,811,811,811,811,811,811,811,811,811,811,811,811,811,811,811,811,811,811,811,811,811,811,811,811,811,811,811,811,811,811,811,811,811,811,811,811,820,875,901,922,929,933,951,957,960,965,972,996,1010,1020,1029,1035,1052,1059,1061,1061,1063,1064,1064,1064,1063,1063,1063,1064,1065,1066,1066,1068,1069,1069,1071,1075],"ymouse":[636,636,636,636,636,636,636,636,636,636,636,636,636,636,636,636,636,636,636,636,636,636,636,636,636,636,636,636,636,636,636,636,636,636,636,636,636,636,636,636,636,636,636,636,636,636,636,636,636,636,636,636,636,636,636,636,636,636,636,636,636,634,627,576,543,499,465,445,413,405,397,385,369,329,309,292,276,261,220,194,184,176,168,156,149,144,141,138,130,126,123,118,117,111,110,108,103,96],"timestamp_mouse":[8,27,47,67,87,107,127,147,167,187,207,227,247,267,287,307,327,347,367,387,407,428,447,467,487,507,527,548,567,587,607,627,648,667,687,707,727,748,767,787,807,827,847,867,887,907,927,946,967,987,1008,1027,1047,1067,1087,1107,1127,1147,1167,1187,1207,1227,1247,1267,1287,1307,1327,1347,1367,1387,1406,1427,1446,1468,1487,1507,1528,1547,1567,1587,1608,1626,1647,1666,1687,1708,1727,1748,1767,1787,1806,1827,1846,1867,1887,1908,1926,1947],"xSR":741.5,"ySR":573.95,"xT1":424.9,"yT1":0,"xT2":1058.1,"yT2":0,"toosoon":0,"cond_shown":"Congruent","ratio_trial":300,"L_num":3,"L_den":12,"R_num":11,"R_den":20,"correct_side":2,"subjID":"Laurasofiacortesdiaz18","gender":"1","school":"6","age":"11"},{"start_time":1551899995737,"click_time":1551899999311,"finger_time":1551899998990,"fix_duration":1086.057282737042,"trial":20,"RT":3253,"MT":321,"sideResp":2,"stimulus":[],"xmouse":[806,806,806,806,806,806,806,806,806,806,806,806,806,806,806,806,806,806,806,806,806,806,806,806,806,806,806,806,806,806,806,806,806,806,806,806,806,806,806,806,806,806,806,806,806,806,806,806,806,806,806,806,806,806,806,806,806,806,806,806,806,806,806,806,806,806,806,806,806,806,806,806,806,806,806,806,806,806,806,806,806,806,806,806,806,806,806,806,806,806,806,806,806,806,806,806,806,806,806,806,806,806,806,806,806,806,806,806,806,806,806,806,806,806,806,806,806,806,806,806,806,806,806,806,806,806,806,806,806,806,806,806,806,806,806,806,806,806,806,806,806,806,806,806,806,806,806,806,806,806,806,806,806,806,806,806,806,805,798,793,795,811,864,927,934,944,965,1000,1012,1024,1036,1048,1064,1070,1076,1079,1080,1082,1091],"ymouse":[625,625,625,625,625,625,625,625,625,625,625,625,625,625,625,625,625,625,625,625,625,625,625,625,625,625,625,625,625,625,625,625,625,625,625,625,625,625,625,625,625,625,625,625,625,625,625,625,625,625,625,625,625,625,625,625,625,625,625,625,625,625,625,625,625,625,625,625,625,625,625,625,625,625,625,625,625,625,625,625,625,625,625,625,625,625,625,625,625,625,625,625,625,625,625,625,625,625,625,625,625,625,625,625,625,625,625,625,625,625,625,625,625,625,625,625,625,625,625,625,625,625,625,625,625,625,625,625,625,625,625,625,625,625,625,625,625,625,625,625,625,625,625,625,625,625,625,625,625,625,625,625,625,625,625,625,625,623,617,612,607,595,550,480,457,432,393,332,311,292,276,259,220,202,184,165,143,127,86],"timestamp_mouse":[13,33,52,73,93,113,133,154,178,193,213,233,253,273,293,313,334,353,373,393,413,433,453,473,493,513,534,553,574,593,613,633,652,673,693,713,732,753,773,793,812,833,853,873,893,913,933,954,973,992,1013,1033,1053,1073,1094,1113,1132,1154,1173,1193,1213,1233,1253,1273,1293,1312,1333,1353,1373,1393,1413,1433,1453,1474,1493,1513,1534,1553,1573,1594,1613,1633,1653,1673,1693,1713,1733,1752,1773,1793,1814,1833,1853,1872,1893,1913,1933,1954,1973,1993,2013,2032,2054,2073,2093,2113,2133,2153,2173,2193,2213,2233,2253,2273,2293,2313,2333,2353,2372,2393,2413,2433,2453,2473,2493,2513,2533,2554,2573,2594,2612,2633,2653,2673,2693,2713,2733,2753,2773,2793,2813,2833,2853,2873,2893,2913,2932,2953,2973,2993,3013,3034,3054,3073,3093,3113,3133,3153,3172,3193,3213,3234,3253,3274,3293,3315,3334,3353,3373,3393,3413,3433,3453,3473,3493,3512,3533,3553,3574],"xSR":741.5,"ySR":573.95,"xT1":424.9,"yT1":0,"xT2":1058.1,"yT2":0,"toosoon":0,"cond_shown":"Congruent","ratio_trial":300,"L_num":1,"L_den":30,"R_num":8,"R_den":24,"correct_side":2,"subjID":"Laurasofiacortesdiaz18","gender":"1","school":"6","age":"11"},{"start_time":1551900001214,"click_time":1551900003131,"finger_time":1551900002610,"fix_duration":343.04523313486754,"trial":21,"RT":1396,"MT":521,"sideResp":1,"stimulus":[],"xmouse":[802,802,802,802,802,802,802,802,802,802,802,802,802,802,802,802,802,802,802,802,802,802,802,802,802,802,802,802,802,802,802,802,802,802,802,802,802,802,802,802,802,802,802,802,802,802,802,802,802,802,802,802,802,802,802,802,802,802,802,802,802,802,802,802,802,801,799,784,759,724,723,721,719,718,714,701,690,676,663,640,622,607,578,540,467,449,440,437,437,434,433,433,433,435,440,441],"ymouse":[640,640,640,640,640,640,640,640,640,640,640,640,640,640,640,640,640,640,640,640,640,640,640,640,640,640,640,640,640,640,640,640,640,640,640,640,640,640,640,640,640,640,640,640,640,640,640,640,640,640,640,640,640,640,640,640,640,640,640,640,640,640,640,640,640,639,639,636,604,502,489,472,453,433,376,339,318,302,289,263,243,232,220,205,181,172,166,162,159,154,147,139,128,119,100,93],"timestamp_mouse":[25,36,56,76,97,115,137,156,176,197,216,236,256,275,296,315,336,356,376,405,417,436,456,476,496,516,536,556,576,596,616,636,657,676,696,716,737,755,776,796,817,836,856,876,895,915,936,956,977,996,1016,1036,1057,1076,1095,1116,1136,1156,1176,1196,1216,1236,1256,1277,1296,1316,1336,1356,1376,1396,1415,1436,1456,1476,1496,1517,1536,1555,1576,1596,1616,1636,1656,1675,1696,1716,1736,1755,1776,1795,1816,1836,1855,1875,1895,1917],"xSR":741.5,"ySR":573.95,"xT1":424.9,"yT1":0,"xT2":1058.1,"yT2":0,"toosoon":0,"cond_shown":"Incongruent","ratio_trial":300,"L_num":1,"L_den":2,"R_num":3,"R_den":15,"correct_side":1,"subjID":"Laurasofiacortesdiaz18","gender":"1","school":"6","age":"11"},{"start_time":1551900009021,"click_time":1551900010929,"finger_time":1551900010311,"fix_duration":789.5130553060845,"trial":22,"RT":1290,"MT":618,"sideResp":1,"stimulus":[],"xmouse":[803,803,803,803,803,803,803,803,803,803,803,803,803,803,803,803,803,803,803,803,803,803,803,803,803,803,803,803,803,803,803,803,803,803,803,803,803,803,803,803,803,803,803,803,803,803,803,803,803,803,803,803,803,803,803,803,803,803,803,803,803,803,803,799,784,775,763,752,742,726,712,696,682,667,637,623,607,597,587,570,562,560,559,556,547,546,543,541,538,534,532,530,529,527,525,524],"ymouse":[623,623,623,623,623,623,623,623,623,623,623,623,623,623,623,623,623,623,623,623,623,623,623,623,623,623,623,623,623,623,623,623,623,623,623,623,623,623,623,623,623,623,623,623,623,623,623,623,623,623,623,623,623,623,623,623,623,623,623,623,623,623,622,607,572,560,546,531,514,478,446,420,392,357,293,270,241,216,193,145,110,88,72,62,49,48,47,47,47,50,51,52,53,53,55,56],"timestamp_mouse":[18,32,49,69,89,109,129,149,168,189,209,229,249,269,290,309,329,349,369,389,410,429,449,468,489,509,530,549,569,589,609,630,649,669,689,709,729,749,769,790,809,829,849,869,890,909,929,949,969,989,1009,1029,1049,1069,1089,1110,1129,1149,1169,1189,1209,1229,1248,1269,1290,1309,1329,1350,1370,1389,1410,1429,1449,1470,1489,1509,1530,1548,1568,1588,1609,1629,1650,1669,1689,1709,1729,1749,1769,1789,1809,1829,1849,1869,1889,1908],"xSR":741.5,"ySR":573.95,"xT1":424.9,"yT1":0,"xT2":1058.1,"yT2":0,"toosoon":0,"cond_shown":"Congruent","ratio_trial":300,"L_num":4,"L_den":5,"R_num":2,"R_den":4,"correct_side":1,"subjID":"Laurasofiacortesdiaz18","gender":"1","school":"6","age":"11"},{"start_time":1551900013836,"click_time":1551900015550,"finger_time":1551900015130,"fix_duration":785.7360054092026,"trial":23,"RT":1294,"MT":420,"sideResp":2,"stimulus":[],"xmouse":[807,807,807,807,807,807,807,807,807,807,807,807,807,807,807,807,807,807,807,807,807,807,807,807,807,807,807,807,807,807,807,807,807,807,807,807,807,807,807,807,807,807,807,807,807,807,807,807,807,807,807,807,807,807,807,807,807,807,807,807,807,807,810,833,860,888,917,945,992,1007,1020,1033,1052,1066,1082,1098,1109,1117,1126,1130,1134,1137,1141,1143,1148,1151],"ymouse":[603,603,603,603,603,603,603,603,603,603,603,603,603,603,603,603,603,603,603,603,603,603,603,603,603,603,603,603,603,603,603,603,603,603,603,603,603,603,603,603,603,603,603,603,603,603,603,603,603,603,603,603,603,603,603,603,603,603,603,603,603,603,601,589,574,559,542,522,488,477,467,457,436,420,400,376,355,336,303,272,248,225,166,138,113,89],"timestamp_mouse":[14,34,54,74,94,114,134,154,175,194,214,234,254,274,293,314,334,354,374,394,414,434,454,475,494,514,534,553,574,594,614,634,653,674,694,714,734,754,774,794,814,834,853,874,894,914,934,954,974,994,1015,1034,1053,1074,1094,1114,1135,1154,1174,1195,1214,1235,1254,1273,1294,1314,1334,1353,1374,1394,1414,1433,1456,1474,1494,1514,1535,1553,1573,1594,1615,1634,1656,1674,1694,1714],"xSR":741.5,"ySR":573.95,"xT1":424.9,"yT1":0,"xT2":1058.1,"yT2":0,"toosoon":0,"cond_shown":"Incongruent","ratio_trial":200,"L_num":3,"L_den":10,"R_num":1,"R_den":2,"correct_side":2,"subjID":"Laurasofiacortesdiaz18","gender":"1","school":"6","age":"11"},{"start_time":1551900022253,"click_time":1551900024390,"finger_time":1551900023830,"fix_duration":841.9701860399058,"trial":24,"RT":1577,"MT":560,"sideResp":1,"stimulus":[],"xmouse":[799,799,799,799,799,799,799,799,799,799,799,799,799,799,799,799,799,799,799,799,799,799,799,799,799,799,799,799,799,799,799,799,799,799,799,799,799,799,799,799,799,799,799,799,799,799,799,799,799,799,799,799,799,799,799,799,799,799,799,799,799,799,799,799,799,799,799,799,799,799,799,799,799,799,799,799,799,769,731,592,533,495,484,470,458,449,443,440,438,434,428,423,420,413,403,393,381,378,377,377,377,382,398,407,416,420,426],"ymouse":[628,628,628,628,628,628,628,628,628,628,628,628,628,628,628,628,628,628,628,628,628,628,628,628,628,628,628,628,628,628,628,628,628,628,628,628,628,628,628,628,628,628,628,628,628,628,628,628,628,628,628,628,628,628,628,628,628,628,628,628,628,628,628,628,628,628,628,628,628,628,628,628,628,628,628,628,628,617,605,576,561,546,540,531,522,511,479,458,439,412,395,379,370,361,348,330,287,263,243,215,199,182,148,134,119,109,98],"timestamp_mouse":[17,38,57,77,97,117,138,158,177,197,217,236,257,277,298,317,337,357,376,397,417,437,457,477,497,516,538,558,577,597,617,637,657,677,697,717,738,756,777,798,817,837,857,877,897,917,937,957,977,997,1017,1037,1056,1077,1098,1117,1137,1157,1177,1197,1216,1237,1257,1277,1297,1317,1337,1356,1377,1397,1417,1437,1457,1477,1497,1517,1536,1558,1577,1598,1618,1638,1657,1677,1697,1717,1738,1756,1776,1797,1817,1838,1856,1877,1898,1917,1938,1956,1977,1998,2018,2037,2057,2077,2098,2117,2137],"xSR":741.5,"ySR":573.95,"xT1":424.9,"yT1":0,"xT2":1058.1,"yT2":0,"toosoon":0,"cond_shown":"Congruent","ratio_trial":200,"L_num":8,"L_den":15,"R_num":7,"R_den":21,"correct_side":1,"subjID":"Laurasofiacortesdiaz18","gender":"1","school":"6","age":"11"},{"start_time":1551900027147,"click_time":1551900028791,"finger_time":1551900028389,"fix_duration":1154.46724882743,"trial":25,"RT":1242,"MT":402,"sideResp":2,"stimulus":[],"xmouse":[777,777,777,777,777,777,777,777,777,777,777,777,777,777,777,777,777,777,777,777,777,777,777,777,777,777,777,777,777,777,777,777,777,777,777,777,777,777,777,777,777,777,777,777,777,777,777,777,777,777,777,777,777,777,777,777,777,778,791,801,812,823,842,893,923,940,955,990,1006,1017,1026,1033,1041,1054,1063,1074,1081,1086,1097,1101,1108,1114,1120],"ymouse":[640,640,640,640,640,640,640,640,640,640,640,640,640,640,640,640,640,640,640,640,640,640,640,640,640,640,640,640,640,640,640,640,640,640,640,640,640,640,640,640,640,640,640,640,640,640,640,640,640,640,640,640,640,640,640,640,640,639,621,606,593,581,563,521,500,482,461,401,374,355,335,318,299,255,237,211,193,175,146,135,122,110,90],"timestamp_mouse":[7,26,43,64,83,102,123,143,163,183,203,223,244,263,283,303,322,344,364,384,404,423,443,464,483,504,523,543,563,583,603,623,643,663,683,703,723,743,763,783,803,823,843,863,884,903,923,942,963,983,1002,1023,1043,1063,1083,1104,1123,1143,1162,1184,1202,1224,1242,1262,1283,1304,1322,1344,1363,1384,1403,1424,1442,1463,1483,1503,1523,1544,1564,1583,1603,1624,1644],"xSR":741.5,"ySR":573.95,"xT1":424.9,"yT1":0,"xT2":1058.1,"yT2":0,"toosoon":0,"cond_shown":"Incongruent","ratio_trial":100,"L_num":10,"L_den":25,"R_num":9,"R_den":18,"correct_side":2,"subjID":"Laurasofiacortesdiaz18","gender":"1","school":"6","age":"11"},{"start_time":1551900032207,"click_time":1551900033690,"finger_time":1551900033131,"fix_duration":1115.5489605184173,"trial":26,"RT":924,"MT":559,"sideResp":1,"stimulus":[],"xmouse":[797,797,797,797,797,797,797,797,797,797,797,797,797,797,797,797,797,797,797,797,797,797,797,797,797,797,797,797,797,797,797,797,797,797,797,797,797,797,797,797,797,797,797,793,773,758,738,714,690,663,602,572,538,492,447,430,417,410,404,398,390,386,385,385,397,408,417,421,423,425,425,425,426,433,438],"ymouse":[626,626,626,626,626,626,626,626,626,626,626,626,626,626,626,626,626,626,626,626,626,626,626,626,626,626,626,626,626,626,626,626,626,626,626,626,626,626,626,626,626,626,625,618,594,584,569,555,542,529,487,469,448,419,386,373,361,350,339,326,294,268,250,231,195,177,160,147,138,134,132,130,126,112,98],"timestamp_mouse":[8,30,43,63,83,103,123,143,163,183,203,223,243,263,282,303,323,343,362,382,403,423,443,464,482,503,523,543,563,583,602,623,643,664,683,703,722,743,763,783,803,822,844,863,884,904,924,942,963,983,1004,1022,1043,1064,1084,1103,1123,1143,1164,1183,1203,1223,1243,1264,1283,1303,1324,1342,1364,1383,1403,1424,1443,1463,1483],"xSR":741.5,"ySR":573.95,"xT1":424.9,"yT1":0,"xT2":1058.1,"yT2":0,"toosoon":0,"cond_shown":"Congruent","ratio_trial":200,"L_num":15,"L_den":25,"R_num":4,"R_den":10,"correct_side":1,"subjID":"Laurasofiacortesdiaz18","gender":"1","school":"6","age":"11"},{"start_time":1551900040061,"click_time":1551900041490,"finger_time":1551900041391,"fix_duration":250,"trial":27,"RT":1330,"MT":99,"sideResp":2,"stimulus":[],"xmouse":[779,779,779,779,779,779,779,779,779,779,779,779,779,779,779,779,779,779,779,779,779,779,779,779,779,779,779,779,779,779,779,779,779,779,779,781,787,795,798,798,798,798,798,798,798,798,798,798,798,798,798,798,798,798,798,798,798,798,798,798,798,798,798,798,798,803,833,861,908,928,1022,1084],"ymouse":[610,610,610,610,610,610,610,610,610,610,610,610,610,610,610,610,610,610,610,610,610,610,610,610,610,610,610,610,610,610,610,610,610,610,610,611,608,602,601,601,601,601,601,601,601,601,601,601,601,601,601,601,601,601,601,601,601,601,601,601,601,601,601,601,601,597,565,521,419,372,179,61],"timestamp_mouse":[10,29,49,68,89,109,129,149,169,189,209,229,249,269,289,310,329,349,369,389,408,429,449,469,489,509,530,549,569,589,610,629,650,668,690,709,729,749,769,789,809,828,849,870,889,909,929,949,969,989,1008,1030,1050,1069,1089,1109,1129,1149,1169,1189,1209,1230,1250,1269,1289,1310,1330,1348,1369,1390,1409,1428],"xSR":741.5,"ySR":573.95,"xT1":424.9,"yT1":0,"xT2":1058.1,"yT2":0,"toosoon":0,"cond_shown":"Congruent","ratio_trial":100,"L_num":4,"L_den":8,"R_num":6,"R_den":10,"correct_side":2,"subjID":"Laurasofiacortesdiaz18","gender":"1","school":"6","age":"11"},{"start_time":1551900044019,"click_time":1551900046511,"finger_time":1551900046030,"fix_duration":1387.5731148037755,"trial":28,"RT":2011,"MT":481,"sideResp":2,"stimulus":[],"xmouse":[812,810,808,806,805,805,805,805,805,805,805,805,805,805,805,805,805,805,805,805,805,805,805,805,805,805,805,805,805,805,805,805,805,805,805,805,805,805,805,805,805,805,805,805,805,805,805,805,805,801,797,795,794,793,793,793,793,793,793,793,793,793,793,793,793,793,793,793,793,793,793,793,793,793,793,793,793,792,792,792,792,792,792,792,792,792,792,792,792,792,792,792,792,792,792,792,792,792,792,798,803,810,818,827,842,848,853,861,870,890,900,907,910,916,934,941,946,951,957,984,998,1016,1034,1049,1068],"ymouse":[627,627,627,628,628,628,628,628,628,628,628,628,628,628,628,628,628,628,628,628,628,628,628,628,628,628,628,628,628,628,628,628,628,628,628,628,628,628,628,628,628,628,628,628,628,628,628,628,628,626,623,621,620,620,620,620,620,620,620,620,620,620,620,620,620,620,620,620,620,620,620,620,620,620,620,620,620,620,620,620,620,620,620,620,620,620,620,620,620,620,620,620,620,620,620,620,620,619,617,594,573,548,520,500,465,450,439,424,407,373,344,322,302,280,245,230,217,203,184,135,118,101,85,75,60],"timestamp_mouse":[13,32,51,71,91,111,130,151,171,192,211,231,251,272,291,311,331,351,372,391,411,431,451,470,491,511,531,551,571,592,610,631,651,671,691,711,731,752,771,791,811,831,851,871,891,911,931,951,971,991,1012,1030,1051,1072,1091,1111,1131,1151,1171,1190,1210,1230,1251,1271,1291,1311,1332,1351,1371,1391,1411,1430,1452,1471,1490,1511,1532,1551,1570,1590,1612,1631,1651,1671,1691,1710,1731,1750,1770,1791,1811,1831,1852,1871,1892,1910,1931,1950,1972,1991,2011,2031,2052,2072,2091,2110,2131,2151,2172,2191,2210,2231,2251,2272,2292,2311,2331,2351,2371,2391,2411,2431,2451,2471,2492],"xSR":741.5,"ySR":573.95,"xT1":424.9,"yT1":0,"xT2":1058.1,"yT2":0,"toosoon":0,"cond_shown":"Congruent","ratio_trial":200,"L_num":8,"L_den":15,"R_num":7,"R_den":21,"correct_side":1,"subjID":"Laurasofiacortesdiaz18","gender":"1","school":"6","age":"11"},{"start_time":1551900049445,"click_time":1551900051510,"finger_time":1551900050870,"fix_duration":1472.1300692660602,"trial":29,"RT":1425,"MT":640,"sideResp":1,"stimulus":[],"xmouse":[803,803,803,803,802,802,802,801,801,801,801,801,801,801,801,801,801,801,801,801,801,801,801,801,801,801,801,801,801,801,801,801,801,801,801,801,801,801,801,801,801,801,801,801,800,799,797,797,797,797,797,797,797,797,797,797,797,797,797,797,797,797,797,797,797,797,797,797,786,771,755,737,711,597,541,494,457,432,418,418,418,420,421,424,426,429,434,439,447,452,456,460,463,463,459,454,451,450,450,450,450,450,450,452],"ymouse":[657,656,656,655,654,653,652,650,649,649,649,649,649,649,649,649,647,646,644,644,644,644,644,644,644,644,644,644,644,644,644,644,644,644,644,644,644,644,644,644,644,644,644,644,645,646,647,647,647,647,647,647,647,647,647,647,647,647,647,647,647,647,647,647,647,647,647,647,645,639,632,624,614,562,530,503,475,453,422,400,387,373,362,344,337,330,319,310,294,278,262,246,234,211,195,179,167,161,160,157,151,141,126,84],"timestamp_mouse":[7,26,45,65,86,105,126,144,165,185,205,225,244,265,285,305,325,346,365,385,405,425,445,465,485,506,525,545,565,585,605,625,645,665,685,705,726,745,765,786,805,825,846,865,884,905,925,945,966,986,1004,1026,1045,1065,1085,1105,1126,1145,1165,1185,1206,1225,1245,1265,1285,1305,1325,1346,1365,1385,1406,1425,1446,1464,1485,1504,1524,1545,1565,1585,1605,1625,1646,1666,1686,1704,1725,1744,1765,1785,1806,1826,1845,1866,1885,1904,1925,1946,1965,1985,2005,2026,2046,2065],"xSR":741.5,"ySR":573.95,"xT1":424.9,"yT1":0,"xT2":1058.1,"yT2":0,"toosoon":0,"cond_shown":"Incongruent","ratio_trial":200,"L_num":1,"L_den":2,"R_num":3,"R_den":10,"correct_side":1,"subjID":"Laurasofiacortesdiaz18","gender":"1","school":"6","age":"11"},{"start_time":1551900053921,"click_time":1551900055951,"finger_time":1551900055371,"fix_duration":1368.95012738745,"trial":30,"RT":1450,"MT":580,"sideResp":1,"stimulus":[],"xmouse":[809,809,809,809,809,809,809,809,809,809,809,809,809,809,809,809,809,809,809,809,809,809,809,809,809,809,809,809,809,809,809,809,809,809,809,809,809,809,809,809,809,809,809,809,809,809,809,809,809,809,809,809,809,809,809,809,809,809,809,809,809,809,809,809,809,809,809,806,781,766,759,750,734,706,629,604,603,603,603,605,608,611,612,608,584,561,544,533,524,507,499,495,491,489,484,482,480,478,473,471,468,467],"ymouse":[628,628,628,628,628,628,628,628,628,628,628,628,628,628,628,628,628,628,628,628,628,628,628,628,628,628,628,628,628,628,628,628,628,628,628,628,628,628,628,628,628,628,628,628,628,628,628,628,628,628,628,628,628,628,628,628,628,628,628,628,628,628,628,628,628,628,628,628,617,610,607,603,590,556,437,365,348,333,322,308,299,286,268,250,227,221,219,215,212,204,200,197,193,188,179,174,168,158,127,113,101,96],"timestamp_mouse":[9,33,50,69,89,109,129,149,170,189,209,229,249,269,290,309,329,349,369,390,409,429,449,469,489,509,528,549,569,589,609,629,649,669,689,709,729,749,769,789,809,829,849,869,889,909,929,949,969,989,1010,1030,1048,1069,1089,1109,1129,1149,1169,1189,1209,1229,1249,1269,1290,1309,1329,1349,1370,1390,1409,1430,1450,1469,1489,1509,1529,1550,1570,1590,1609,1630,1649,1669,1689,1709,1729,1750,1770,1790,1810,1829,1849,1870,1889,1909,1929,1950,1970,1989,2009,2030],"xSR":741.5,"ySR":573.95,"xT1":424.9,"yT1":0,"xT2":1058.1,"yT2":0,"toosoon":0,"cond_shown":"Congruent","ratio_trial":100,"L_num":15,"L_den":25,"R_num":13,"R_den":26,"correct_side":1,"subjID":"Laurasofiacortesdiaz18","gender":"1","school":"6","age":"11"},{"start_time":1551900057996,"click_time":1551900059771,"finger_time":1551900058930,"fix_duration":863.9015270793943,"trial":31,"RT":934,"MT":841,"sideResp":2,"stimulus":[],"xmouse":[801,801,801,801,801,801,801,801,801,801,801,801,801,801,801,801,801,801,801,801,801,801,801,801,801,801,801,801,801,801,801,801,801,801,801,800,800,799,797,795,794,794,794,794,794,804,809,809,809,818,832,849,866,870,871,876,879,884,892,903,913,915,924,926,930,934,940,944,949,957,961,972,980,987,996,1004,1008,1012,1015,1019,1024,1027,1030,1031,1034,1044,1049,1055,1059],"ymouse":[637,637,637,637,637,637,637,637,637,637,637,637,637,637,637,637,637,637,637,637,637,637,637,637,637,637,637,637,637,637,637,637,637,637,637,638,638,638,638,638,638,638,638,638,632,590,560,548,542,517,491,464,438,424,412,377,357,332,308,266,231,222,192,175,153,143,136,131,126,121,117,107,102,97,90,79,72,67,61,56,50,49,48,47,47,52,53,55,55],"timestamp_mouse":[26,35,54,74,94,114,134,154,174,195,213,234,254,274,294,314,334,354,374,393,414,434,454,474,494,514,534,554,574,594,614,634,654,674,694,714,734,755,775,795,814,834,854,874,894,914,934,954,974,995,1013,1034,1055,1073,1094,1115,1134,1154,1175,1195,1214,1235,1254,1275,1295,1314,1334,1354,1375,1395,1414,1434,1454,1475,1494,1514,1534,1554,1575,1594,1615,1634,1655,1675,1694,1713,1734,1754,1775],"xSR":741.5,"ySR":573.95,"xT1":424.9,"yT1":0,"xT2":1058.1,"yT2":0,"toosoon":0,"cond_shown":"Congruent","ratio_trial":300,"L_num":3,"L_den":12,"R_num":11,"R_den":20,"correct_side":2,"subjID":"Laurasofiacortesdiaz18","gender":"1","school":"6","age":"11"},{"start_time":1551900061816,"click_time":1551900063550,"finger_time":1551900062911,"fix_duration":884.5760683626311,"trial":32,"RT":1095,"MT":639,"sideResp":2,"stimulus":[],"xmouse":[808,808,808,808,808,808,808,808,808,808,808,808,808,808,808,808,808,808,808,808,808,808,808,808,808,808,808,808,808,808,808,808,808,808,808,808,808,808,809,822,830,838,840,840,840,840,840,840,840,840,840,840,840,841,851,858,862,864,866,871,878,886,896,910,944,972,1000,1024,1040,1046,1046,1046,1046,1046,1046,1046,1046,1046,1047,1047,1047,1049,1053,1055,1065,1068,1071],"ymouse":[632,632,632,632,632,632,632,632,632,632,632,632,632,632,632,632,632,632,632,632,632,632,632,632,632,632,632,632,632,632,632,632,632,632,632,632,632,631,629,620,615,610,609,609,609,609,609,609,609,609,609,609,609,609,605,599,597,595,593,587,579,570,556,535,459,395,330,271,234,196,177,165,155,139,132,124,118,113,111,110,110,108,106,106,101,100,98],"timestamp_mouse":[18,36,54,74,94,114,134,154,174,195,213,235,255,274,295,314,334,353,374,394,414,434,454,474,494,514,534,554,574,593,614,635,654,675,694,715,735,754,775,794,814,834,854,874,893,914,934,954,974,993,1015,1034,1054,1074,1095,1114,1134,1153,1174,1194,1214,1234,1254,1274,1295,1314,1334,1355,1374,1394,1414,1434,1454,1475,1494,1514,1534,1554,1574,1595,1614,1635,1655,1675,1695,1714,1734],"xSR":741.5,"ySR":573.95,"xT1":424.9,"yT1":0,"xT2":1058.1,"yT2":0,"toosoon":0,"cond_shown":"Congruent","ratio_trial":200,"L_num":3,"L_den":6,"R_num":14,"R_den":20,"correct_side":2,"subjID":"Laurasofiacortesdiaz18","gender":"1","school":"6","age":"11"},{"start_time":1551900065282,"click_time":1551900066770,"finger_time":1551900066210,"fix_duration":250,"trial":33,"RT":928,"MT":560,"sideResp":2,"stimulus":[],"xmouse":[806,806,806,806,806,806,806,806,806,806,805,805,805,805,805,805,805,805,805,804,804,804,804,804,804,804,804,804,804,804,804,804,804,804,804,804,804,804,804,804,804,804,804,804,804,807,828,847,857,863,865,871,873,878,885,892,912,926,945,957,967,987,994,1002,1008,1019,1023,1026,1033,1039,1045,1049,1055,1059,1062],"ymouse":[591,591,591,591,591,591,591,591,591,591,593,594,594,595,596,597,598,598,598,599,599,599,599,599,599,599,599,599,599,599,599,599,599,599,599,599,599,599,599,599,599,599,599,599,599,598,552,512,495,484,478,467,461,451,437,423,389,371,336,312,288,249,232,215,202,175,164,151,132,122,112,108,103,101,99],"timestamp_mouse":[8,29,48,68,87,108,128,148,168,188,207,228,248,267,288,308,328,348,368,387,408,428,448,469,488,507,528,548,568,588,608,628,647,668,688,707,728,748,769,787,808,828,848,868,889,909,928,948,969,988,1008,1028,1048,1068,1087,1109,1128,1149,1169,1188,1208,1228,1248,1268,1288,1309,1328,1349,1369,1388,1409,1428,1448,1467,1488],"xSR":741.5,"ySR":573.95,"xT1":424.9,"yT1":0,"xT2":1058.1,"yT2":0,"toosoon":0,"cond_shown":"Incongruent","ratio_trial":100,"L_num":2,"L_den":4,"R_num":6,"R_den":15,"correct_side":1,"subjID":"Laurasofiacortesdiaz18","gender":"1","school":"6","age":"11"},{"start_time":1551900072295,"click_time":1551900074510,"finger_time":1551900073790,"fix_duration":1283.5581485008106,"trial":34,"RT":1495,"MT":720,"sideResp":1,"stimulus":[],"xmouse":[831,831,831,831,831,831,831,831,831,831,830,830,829,829,829,829,829,829,829,829,829,829,829,829,829,829,829,829,829,829,829,829,829,829,829,829,829,829,829,829,829,829,829,829,829,829,829,829,829,829,829,829,829,829,829,829,829,829,829,829,829,829,829,829,829,829,829,829,829,828,825,816,798,783,773,768,767,762,758,753,736,723,713,702,692,675,664,649,637,610,596,583,571,564,559,556,554,550,549,549,549,550,550,550,550,549,547,539,529,508,436],"ymouse":[653,653,653,653,653,653,653,653,653,653,652,651,651,651,651,651,651,651,651,651,651,651,651,651,651,651,651,651,651,651,651,651,651,651,651,651,651,651,651,651,651,651,651,651,651,651,651,651,651,651,651,651,651,651,651,651,651,651,651,651,651,651,651,651,651,651,651,651,651,651,644,627,603,581,560,485,473,451,437,420,385,364,346,334,322,302,295,285,278,260,249,240,232,226,215,201,197,186,177,171,162,159,157,154,151,147,143,139,136,127,92],"timestamp_mouse":[26,35,55,75,94,115,135,155,176,195,216,235,255,274,295,314,335,355,375,395,414,435,455,475,495,515,535,555,575,595,615,635,655,675,696,715,735,755,775,795,816,835,855,875,896,915,935,955,975,995,1016,1035,1055,1076,1095,1116,1135,1155,1175,1196,1215,1235,1255,1275,1294,1315,1335,1355,1375,1394,1416,1435,1455,1475,1495,1515,1536,1556,1575,1596,1616,1636,1655,1675,1695,1716,1735,1756,1775,1796,1815,1835,1855,1876,1896,1916,1935,1956,1975,1995,2016,2035,2055,2076,2095,2114,2136,2155,2175,2195,2215],"xSR":741.5,"ySR":573.95,"xT1":424.9,"yT1":0,"xT2":1058.1,"yT2":0,"toosoon":0,"cond_shown":"Congruent","ratio_trial":100,"L_num":11,"L_den":22,"R_num":4,"R_den":10,"correct_side":1,"subjID":"Laurasofiacortesdiaz18","gender":"1","school":"6","age":"11"},{"start_time":1551900078787,"click_time":1551900080371,"finger_time":1551900079910,"fix_duration":1215.113141740247,"trial":35,"RT":1123,"MT":461,"sideResp":2,"stimulus":[],"xmouse":[786,786,786,786,786,786,786,786,786,786,786,786,786,786,786,786,786,786,786,786,786,786,786,786,786,786,786,786,786,786,786,786,786,786,786,786,786,786,786,786,786,786,786,786,786,786,786,786,786,786,786,786,786,786,786,822,874,904,926,940,951,968,979,992,1011,1041,1057,1072,1090,1104,1115,1116,1119,1123,1123,1123,1123,1121,1117,1114],"ymouse":[605,606,607,608,609,611,612,613,613,613,613,614,614,614,614,614,614,614,614,614,614,614,614,614,614,614,614,614,614,614,614,614,614,614,614,614,614,614,614,614,614,614,614,614,614,614,614,614,614,614,614,614,614,614,614,602,576,557,539,528,517,495,479,458,423,372,343,317,284,251,220,213,204,182,167,151,127,114,100,90],"timestamp_mouse":[8,34,42,63,84,104,123,143,162,183,204,223,243,264,284,303,323,343,363,383,403,423,443,463,483,503,523,543,563,583,603,623,643,663,683,703,723,743,763,783,803,823,842,863,882,904,923,943,963,983,1003,1023,1043,1063,1083,1104,1123,1143,1163,1184,1203,1223,1243,1263,1283,1304,1323,1343,1363,1383,1404,1423,1443,1464,1483,1504,1523,1543,1563,1584],"xSR":741.5,"ySR":573.95,"xT1":424.9,"yT1":0,"xT2":1058.1,"yT2":0,"toosoon":0,"cond_shown":"Incongruent","ratio_trial":100,"L_num":9,"L_den":15,"R_num":13,"R_den":26,"correct_side":1,"subjID":"Laurasofiacortesdiaz18","gender":"1","school":"6","age":"11"},{"start_time":1551900082061,"click_time":1551900083390,"finger_time":1551900083069,"fix_duration":967.4169468640395,"trial":36,"RT":1008,"MT":321,"sideResp":2,"stimulus":[],"xmouse":[781,781,781,781,781,781,781,781,781,781,781,781,781,781,781,781,781,781,781,781,781,781,781,781,781,781,781,781,781,781,781,781,781,781,781,781,781,781,781,781,781,781,781,781,781,781,781,791,821,830,861,927,970,1006,1029,1035,1038,1037,1035,1034,1034,1034,1034,1036,1042,1049,1063],"ymouse":[625,625,625,625,625,625,625,625,625,625,625,625,625,625,625,625,625,625,625,625,625,625,625,625,625,625,625,625,625,625,625,625,625,625,624,623,623,623,623,623,623,623,623,623,623,623,623,611,585,576,542,455,378,292,235,206,163,143,131,116,106,97,80,70,61,53,40],"timestamp_mouse":[10,30,49,69,88,110,129,149,169,189,209,229,249,269,290,308,329,350,369,389,410,429,449,470,488,509,529,549,569,589,609,630,650,669,689,710,729,749,777,790,809,829,850,869,888,909,928,948,969,990,1008,1029,1049,1069,1089,1109,1129,1149,1169,1190,1210,1230,1250,1269,1289,1310,1329],"xSR":741.5,"ySR":573.95,"xT1":424.9,"yT1":0,"xT2":1058.1,"yT2":0,"toosoon":0,"cond_shown":"Incongruent","ratio_trial":200,"L_num":1,"L_den":3,"R_num":2,"R_den":15,"correct_side":1,"subjID":"Laurasofiacortesdiaz18","gender":"1","school":"6","age":"11"},{"start_time":1551900087520,"click_time":1551900088950,"finger_time":1551900088391,"fix_duration":848.3110033489315,"trial":37,"RT":871,"MT":559,"sideResp":2,"stimulus":[],"xmouse":[794,793,791,787,787,787,787,787,787,787,787,787,787,787,787,787,787,787,787,787,787,787,787,787,787,787,787,787,787,787,787,787,787,787,787,787,787,787,787,787,791,799,831,884,904,914,919,921,922,922,922,924,930,946,955,963,972,987,998,1002,1007,1013,1019,1024,1027,1030,1034,1036,1040,1046,1056,1062],"ymouse":[639,639,640,643,643,643,643,643,643,643,643,643,643,643,643,643,643,643,643,643,643,643,643,643,643,643,643,643,643,643,643,643,643,643,643,643,643,643,643,643,641,633,602,538,506,485,459,447,426,413,395,379,361,322,299,278,258,228,197,184,167,152,139,119,107,96,88,79,71,66,60,57],"timestamp_mouse":[10,34,50,70,90,109,129,150,170,190,209,230,251,270,290,310,330,350,370,389,410,430,450,470,490,510,530,549,570,589,610,630,650,670,689,710,730,750,770,790,810,830,850,871,890,909,930,950,970,989,1009,1030,1050,1070,1090,1110,1130,1150,1170,1189,1209,1230,1250,1270,1290,1311,1331,1350,1370,1390,1411,1430],"xSR":741.5,"ySR":573.95,"xT1":424.9,"yT1":0,"xT2":1058.1,"yT2":0,"toosoon":0,"cond_shown":"Incongruent","ratio_trial":100,"L_num":2,"L_den":4,"R_num":8,"R_den":20,"correct_side":1,"subjID":"Laurasofiacortesdiaz18","gender":"1","school":"6","age":"11"},{"start_time":1551900093359,"click_time":1551900094790,"finger_time":1551900094210,"fix_duration":1367.4673787839695,"trial":38,"RT":851,"MT":580,"sideResp":2,"stimulus":[],"xmouse":[787,787,787,787,787,787,787,787,787,787,787,787,787,787,787,787,787,787,787,787,787,787,787,787,787,787,787,787,787,787,787,787,787,787,787,787,787,787,787,788,792,807,817,826,832,839,851,854,857,861,864,870,875,881,887,898,917,928,940,952,964,994,1011,1023,1035,1046,1049,1051,1053,1054,1055,1061],"ymouse":[619,619,619,619,619,619,619,619,619,619,619,619,619,619,619,619,619,619,619,619,619,619,619,619,619,619,619,619,619,619,619,619,619,619,619,619,619,619,619,614,605,574,560,547,539,528,508,499,489,478,468,448,436,426,410,370,300,276,257,239,222,182,159,140,126,110,107,105,104,102,100,93],"timestamp_mouse":[12,31,51,71,91,111,131,150,171,191,211,231,251,271,290,310,331,351,371,391,412,431,451,470,491,511,531,551,571,591,610,631,651,671,690,711,732,751,771,792,812,831,851,872,892,911,931,951,971,991,1010,1030,1051,1071,1091,1111,1131,1151,1170,1191,1210,1230,1251,1271,1292,1311,1330,1351,1370,1391,1411,1431],"xSR":741.5,"ySR":573.95,"xT1":424.9,"yT1":0,"xT2":1058.1,"yT2":0,"toosoon":0,"cond_shown":"Congruent","ratio_trial":200,"L_num":1,"L_den":2,"R_num":21,"R_den":30,"correct_side":2,"subjID":"Laurasofiacortesdiaz18","gender":"1","school":"6","age":"11"},{"start_time":1551900097157,"click_time":1551900099510,"finger_time":1551900098610,"fix_duration":665.5215082243162,"trial":39,"RT":1453,"MT":900,"sideResp":1,"stimulus":[],"xmouse":[785,785,785,785,785,785,785,785,785,785,785,785,785,785,785,785,785,785,785,785,785,785,785,785,785,785,785,785,785,785,785,785,785,785,785,785,785,785,785,785,785,785,785,785,785,785,785,785,785,785,785,785,785,785,785,785,785,785,785,785,785,785,785,785,785,785,785,784,782,781,780,780,779,779,776,765,739,723,712,704,700,696,692,689,686,675,657,651,644,634,624,597,579,566,561,558,556,556,553,553,553,553,553,553,552,550,545,543,541,536,534,532,531,529,528,527,525,523],"ymouse":[610,610,610,610,610,610,610,610,610,610,610,610,610,610,610,610,610,610,610,610,610,610,610,610,610,610,610,610,610,610,610,610,610,610,610,610,610,610,610,610,610,610,610,610,610,610,610,610,610,610,610,610,610,610,610,610,610,610,610,610,610,610,610,610,610,610,610,602,592,582,577,574,571,571,566,552,502,462,431,409,390,357,336,313,286,248,221,214,207,197,189,176,166,161,158,155,140,123,104,92,85,81,79,75,71,67,61,60,60,60,60,60,60,60,60,60,60,60],"timestamp_mouse":[14,33,53,72,93,113,133,153,173,192,212,232,252,272,293,313,334,353,372,392,413,433,453,472,493,513,533,553,573,592,613,633,653,673,692,712,733,753,773,793,812,832,853,873,893,913,934,952,973,993,1013,1033,1053,1073,1094,1113,1134,1152,1173,1193,1213,1233,1252,1272,1293,1312,1333,1353,1373,1393,1413,1433,1453,1473,1493,1513,1533,1552,1572,1593,1614,1633,1653,1673,1693,1713,1733,1752,1773,1793,1812,1833,1853,1873,1894,1913,1933,1952,1973,1994,2012,2033,2053,2073,2093,2113,2133,2153,2173,2193,2213,2233,2253,2273,2292,2313,2333,2352],"xSR":741.5,"ySR":573.95,"xT1":424.9,"yT1":0,"xT2":1058.1,"yT2":0,"toosoon":0,"cond_shown":"Incongruent","ratio_trial":200,"L_num":7,"L_den":15,"R_num":6,"R_den":9,"correct_side":2,"subjID":"Laurasofiacortesdiaz18","gender":"1","school":"6","age":"11"},{"start_time":1551900101917,"click_time":1551900104990,"finger_time":1551900102630,"fix_duration":685.452804942188,"trial":40,"RT":713,"MT":2360,"sideResp":1,"stimulus":[],"xmouse":[815,815,815,815,815,815,815,815,815,815,815,815,815,815,815,815,815,815,815,815,815,815,815,815,815,815,815,815,815,815,815,815,815,812,802,789,769,747,700,692,686,677,670,659,651,644,638,629,623,621,618,613,609,605,591,591,591,591,588,583,576,570,564,552,550,549,549,549,549,548,547,546,545,545,545,544,543,541,539,539,539,538,537,529,535,550,550,550,550,550,550,550,550,549,549,549,549,546,545,545,545,545,545,545,545,545,578,758,742,728,717,716,716,716,716,716,716,716,716,716,716,716,716,716,716,716,711,710,698,687,682,680,678,673,670,669,667,663,658,629,607,592,581,555,547,544,544,544,544,544,544,541,533,521],"ymouse":[622,622,622,622,622,622,622,622,622,622,622,622,622,622,622,622,622,622,622,622,622,622,622,622,622,622,622,622,622,622,622,622,622,620,592,548,502,467,428,421,416,405,391,359,335,319,305,282,254,248,242,234,224,209,177,177,177,177,177,177,177,177,177,179,179,179,179,179,179,179,179,179,179,179,179,179,179,179,179,179,179,179,182,218,251,269,269,269,269,269,269,269,269,271,271,271,271,274,276,276,276,276,276,276,276,276,276,302,383,450,498,498,498,498,498,498,498,498,498,498,498,498,498,498,498,498,508,510,500,490,483,480,476,463,456,447,439,423,405,346,309,284,266,230,218,210,203,194,176,168,155,137,118,98],"timestamp_mouse":[13,34,52,72,93,113,133,153,173,193,213,233,254,273,293,312,333,352,373,394,412,433,453,474,493,513,534,552,573,592,613,634,653,673,693,713,734,753,772,793,813,832,854,873,893,912,934,953,972,992,1013,1033,1053,1073,1094,1112,1133,1153,1172,1194,1213,1233,1254,1273,1293,1314,1333,1352,1373,1393,1414,1433,1453,1473,1494,1513,1533,1553,1572,1594,1613,1633,1653,1672,1693,1713,1734,1752,1773,1792,1812,1834,1854,1873,1894,1912,1933,1953,1974,1993,2013,2034,2054,2073,2092,2112,2134,2154,2173,2194,2213,2233,2254,2273,2292,2312,2332,2353,2373,2392,2413,2432,2452,2473,2493,2513,2533,2554,2572,2593,2613,2634,2654,2672,2694,2713,2733,2753,2773,2793,2814,2833,2853,2873,2893,2912,2933,2953,2972,2994,3013,3032,3053,3073],"xSR":741.5,"ySR":573.95,"xT1":424.9,"yT1":0,"xT2":1058.1,"yT2":0,"toosoon":0,"cond_shown":"Congruent","ratio_trial":200,"L_num":15,"L_den":25,"R_num":4,"R_den":10,"correct_side":1,"subjID":"Laurasofiacortesdiaz18","gender":"1","school":"6","age":"11"},{"start_time":1551900107325,"click_time":1551900108550,"finger_time":1551900108250,"fix_duration":934.0616944442351,"trial":41,"RT":925,"MT":300,"sideResp":2,"stimulus":[],"xmouse":[799,799,799,799,799,799,799,799,799,799,799,799,799,799,799,799,799,799,799,799,799,799,799,799,799,799,799,799,797,797,797,797,797,797,797,797,797,797,797,797,797,797,797,797,797,800,808,811,835,861,888,918,938,971,987,1001,1017,1037,1089,1108,1119,1128],"ymouse":[613,612,611,610,609,609,608,608,608,608,608,608,608,608,608,608,608,608,608,608,608,608,608,608,608,608,608,607,605,603,603,603,603,603,602,602,602,602,602,602,602,602,602,602,601,598,563,550,452,416,389,367,352,313,291,269,244,216,144,117,101,89],"timestamp_mouse":[7,28,46,65,86,104,125,145,165,186,205,225,245,265,285,305,325,345,365,385,405,425,445,464,484,504,526,545,565,585,606,625,645,665,685,705,725,745,765,785,805,825,845,864,884,905,925,945,965,986,1005,1025,1045,1066,1085,1104,1125,1146,1165,1185,1204,1225],"xSR":741.5,"ySR":573.95,"xT1":424.9,"yT1":0,"xT2":1058.1,"yT2":0,"toosoon":0,"cond_shown":"Congruent","ratio_trial":300,"L_num":1,"L_den":30,"R_num":8,"R_den":24,"correct_side":2,"subjID":"Laurasofiacortesdiaz18","gender":"1","school":"6","age":"11"},{"start_time":1551900111980,"click_time":1551900113950,"finger_time":1551900113590,"fix_duration":250,"trial":42,"RT":1610,"MT":360,"sideResp":1,"stimulus":[],"xmouse":[796,796,796,796,796,796,796,796,796,796,796,796,796,796,796,796,796,796,796,796,796,796,796,796,796,796,796,797,797,797,798,799,800,802,803,803,803,803,803,803,803,803,803,803,803,803,803,803,803,803,803,803,803,803,803,803,803,803,803,803,803,803,803,803,803,803,803,803,803,803,803,803,803,803,803,803,803,803,801,796,780,771,758,743,730,669,621,576,542,526,512,510,508,506,503,499,499,499,499],"ymouse":[599,599,599,599,599,599,599,599,599,599,599,599,599,599,599,599,599,599,599,599,599,599,599,599,599,599,594,590,590,590,589,588,588,588,588,588,588,588,588,588,588,588,588,588,588,588,588,588,588,588,588,588,588,588,588,588,588,588,588,588,588,588,588,588,588,588,588,588,588,588,588,588,588,588,588,588,588,588,585,580,568,565,559,551,539,458,397,344,297,270,235,220,203,186,167,125,111,100,92],"timestamp_mouse":[11,30,50,70,89,110,130,150,170,190,210,231,250,269,289,310,330,350,370,390,409,431,450,470,490,509,531,550,570,590,611,631,650,671,691,710,730,749,769,789,810,830,850,870,889,910,930,950,969,990,1010,1030,1050,1069,1090,1110,1130,1151,1169,1190,1210,1230,1250,1271,1290,1311,1329,1350,1370,1390,1410,1430,1450,1469,1489,1510,1530,1550,1571,1591,1610,1631,1650,1671,1691,1710,1731,1750,1770,1791,1810,1829,1850,1871,1889,1910,1931,1950,1970],"xSR":741.5,"ySR":573.95,"xT1":424.9,"yT1":0,"xT2":1058.1,"yT2":0,"toosoon":0,"cond_shown":"Incongruent","ratio_trial":300,"L_num":13,"L_den":26,"R_num":12,"R_den":15,"correct_side":2,"subjID":"Laurasofiacortesdiaz18","gender":"1","school":"6","age":"11"},{"start_time":1551900115831,"click_time":1551900117071,"finger_time":1551900115890,"fix_duration":479.8636792138104,"trial":43,"RT":59,"MT":1181,"sideResp":2,"stimulus":[],"xmouse":[788,786,786,779,779,779,779,779,779,779,779,779,779,778,778,778,778,779,779,779,779,779,779,779,779,779,779,779,779,778,777,777,776,776,776,776,776,776,776,776,776,776,776,796,817,837,856,878,915,926,936,945,969,1020,1035,1043,1048,1055,1080,1089,1092,1095,1096],"ymouse":[591,582,582,559,558,558,558,558,558,558,558,558,558,567,569,571,572,572,572,572,572,572,572,572,572,575,582,589,601,606,610,611,612,612,612,612,612,612,612,612,612,612,613,599,580,556,533,504,442,424,405,386,342,272,250,222,195,169,130,116,108,102,98],"timestamp_mouse":[1,26,39,59,80,99,118,138,159,180,198,218,239,259,279,299,319,340,359,379,400,420,440,459,479,500,519,539,559,579,600,620,639,660,679,698,719,739,759,779,799,819,838,859,878,900,919,940,959,979,999,1020,1039,1059,1078,1099,1119,1140,1159,1179,1198,1219,1240],"xSR":741.5,"ySR":573.95,"xT1":424.9,"yT1":0,"xT2":1058.1,"yT2":0,"toosoon":0,"cond_shown":"Congruent","ratio_trial":100,"L_num":4,"L_den":8,"R_num":6,"R_den":10,"correct_side":2,"subjID":"Laurasofiacortesdiaz18","gender":"1","school":"6","age":"11"},{"start_time":1551900118642,"click_time":1551900120230,"finger_time":1551900119870,"fix_duration":351.0683339906666,"trial":44,"RT":1228,"MT":360,"sideResp":1,"stimulus":[],"xmouse":[805,805,805,805,805,805,805,805,805,805,805,805,805,805,805,805,805,805,805,805,805,805,805,805,805,805,805,805,805,805,805,805,805,805,805,805,805,805,805,805,805,805,805,805,805,805,805,805,805,805,805,805,804,804,804,800,790,772,766,759,750,739,699,675,656,644,637,628,623,618,614,609,596,589,579,567,555,529,517,505],"ymouse":[627,627,627,627,627,627,627,627,627,627,627,627,627,627,627,627,627,627,627,627,627,627,627,627,627,627,627,627,627,627,627,627,627,627,627,627,627,627,627,627,627,627,627,627,627,627,627,627,627,627,627,627,627,627,627,627,622,615,612,608,603,599,564,539,509,484,462,408,372,336,305,284,238,223,203,183,162,124,110,98],"timestamp_mouse":[7,29,48,68,88,108,128,147,168,188,208,228,248,267,288,308,328,348,368,388,408,429,447,468,488,508,528,547,567,588,608,628,647,668,688,709,728,748,767,788,808,828,848,868,888,908,928,948,967,988,1008,1029,1048,1068,1088,1108,1128,1148,1168,1188,1208,1228,1248,1269,1288,1308,1328,1348,1368,1388,1408,1429,1448,1469,1488,1509,1528,1548,1568,1588],"xSR":741.5,"ySR":573.95,"xT1":424.9,"yT1":0,"xT2":1058.1,"yT2":0,"toosoon":0,"cond_shown":"Congruent","ratio_trial":300,"L_num":3,"L_den":6,"R_num":2,"R_den":10,"correct_side":1,"subjID":"Laurasofiacortesdiaz18","gender":"1","school":"6","age":"11"},{"start_time":1551900122079,"click_time":1551900123270,"finger_time":1551900122810,"fix_duration":688.8585311521375,"trial":45,"RT":731,"MT":460,"sideResp":1,"stimulus":[],"xmouse":[786,786,786,786,786,786,786,786,786,786,786,786,786,786,786,786,786,786,786,786,786,786,786,786,786,786,786,786,786,786,786,786,786,786,787,780,747,707,663,624,565,551,542,533,527,522,520,520,520,529,548,556,561,562,562,561,552,542,528,518],"ymouse":[630,630,630,630,630,630,630,630,630,630,630,630,630,630,630,630,630,630,630,630,630,630,630,630,630,630,630,630,630,630,630,630,630,630,629,602,553,511,480,459,432,420,408,392,376,329,299,266,231,198,154,125,102,82,64,38,25,16,9,5],"timestamp_mouse":[11,30,50,71,91,111,131,151,171,191,211,231,251,271,290,311,331,351,371,391,411,431,450,471,491,511,531,551,571,592,610,631,651,671,691,711,731,751,771,790,811,832,851,871,891,910,932,952,971,990,1010,1031,10