[{"start_time":1551901451961,"click_time":1551901456068,"finger_time":1551901451967,"fix_duration":270.38633439647344,"trial":0,"RT":6,"MT":4101,"sideResp":1,"stimulus":"img/250/randomdotsizeEA/L/14_Ratio_250_L_12_R_3.png","xmouse":[771,771,771,771,771,771,771,771,771,771,771,771,771,771,771,771,771,771,771,771,771,771,771,771,771,771,771,771,771,771,771,771,771,771,771,771,771,771,771,771,771,771,771,771,771,771,771,771,771,771,771,771,771,771,771,771,771,772,772,772,772,772,772,772,772,772,772,773,773,773,773,777,778,779,779,779,779,779,779,779,779,779,779,779,779,779,779,779,779,779,779,779,779,779,779,778,778,778,778,778,778,778,778,778,778,778,778,777,776,774,773,773,773,773,773,773,773,773,773,773,773,773,773,773,773,773,773,773,773,773,773,773,773,773,773,773,773,773,773,773,773,773,773,773,773,773,773,773,773,773,773,773,773,773,773,773,773,773,773,773,773,773,773,773,773,773,773,773,773,773,773,773,773,773,773,773,773,773,773,773,773,773,773,772,762,748,712,693,675,659,652,648,624,615,611,609,608,607,605,601,593,577,555,544,529,518],"ymouse":[551,551,551,551,551,551,551,551,551,551,551,551,551,551,551,551,551,551,551,551,551,551,551,551,551,551,551,551,551,551,551,551,551,551,551,551,551,551,551,551,551,551,551,551,551,551,551,551,551,551,551,551,551,551,551,551,551,552,552,552,552,552,552,552,552,552,552,554,558,564,577,625,632,633,633,633,633,633,633,633,633,633,633,633,633,633,633,633,633,633,633,633,633,633,634,634,634,634,634,634,634,634,634,634,634,634,634,633,626,624,623,623,623,623,623,623,623,623,623,623,623,623,623,623,623,623,623,623,623,623,623,623,623,623,623,623,623,623,623,623,623,623,623,623,623,623,623,623,623,623,623,623,623,623,623,623,623,623,623,623,623,623,623,623,623,623,623,623,623,623,623,623,623,623,623,623,623,623,623,623,623,623,623,623,615,599,541,509,479,446,417,376,315,292,278,265,241,231,220,202,177,144,111,101,94,88],"timestamp_mouse":[6,26,46,66,87,106,127,146,166,186,206,225,245,266,286,306,327,346,366,385,405,427,446,466,487,507,526,546,565,586,606,625,645,665,685,705,726,747,766,786,805,826,845,865,885,906,927,947,966,987,1005,1026,1047,1065,1087,1107,1126,1145,1166,1185,1205,1226,1246,1267,1286,1307,1325,1345,1366,1386,1406,1426,1446,1465,1486,1506,1526,1546,1565,1585,1606,1626,1645,1667,1686,1707,1725,1746,1767,1786,1806,1826,1846,1866,1886,1907,1927,1946,1966,1986,2006,2026,2046,2065,2086,2106,2126,2146,2166,2187,2207,2226,2247,2266,2285,2306,2326,2346,2366,2386,2405,2425,2446,2465,2486,2507,2526,2547,2565,2585,2606,2627,2645,2666,2686,2706,2725,2746,2767,2786,2806,2826,2845,2866,2886,2907,2926,2946,2966,2986,3006,3026,3045,3066,3086,3106,3126,3146,3166,3185,3206,3226,3246,3266,3285,3306,3326,3346,3366,3385,3406,3426,3446,3466,3486,3506,3526,3546,3565,3587,3605,3626,3646,3666,3687,3706,3725,3745,3766,3787,3806,3826,3845,3866,3886,3906,3927,3945,3966,3987,4007,4026,4045,4065,4086,4106],"xSR":741.5,"ySR":494.65000000000003,"xT1":424.9,"yT1":0,"xT2":1058.1,"yT2":0,"toosoon":0,"cond_shown":"randomdotsizeEA","ratio_trial":250,"smaller_num":"3","larger_num":"12","correct_side":1,"subjID":"laurasofiacortesdias18","gender":"1","age":"11","school":"6","test":{"fix_dur":[250,1500],"timestim":300,"targets_dim":[100,100],"targets_relative_coord":[0.3,0.7],"size_stim":[880,420],"start_dim":[100,100],"size_start":[300,300],"size_fix":60,"samplingrate":20,"img_types":["equaldotsize","equaldotanddens","randomdotsizeEA"],"ratios":[250,500,750,900],"rep_conds":9,"nTrials":120,"trials_to_rest":500,"Trials_order":[38,57,46,87,119,72,84,10,82,83,28,45,105,62,91,104,27,116,19,36,99,20,103,75,90,89,118,68,23,80,5,55,12,30,47,4,98,63,6,7,70,79,114,13,92,37,49,106,71,56,58,24,51,73,96,59,67,15,34,85,50,53,39,74,107,52,101,31,76,43,66,94,60,54,117,3,8,44,1,86,0,33,112,102,95,17,109,40,93,32,9,69,111,108,48,113,65,100,11,41,35,78,16,22,18,25,115,42,61,81,21,88,29,97,77,14,2,26,64,110],"cond_shown":["randomdotsizeEA","equaldotsize","equaldotanddens","equaldotsize","randomdotsizeEA","equaldotsize","equaldotsize","equaldotanddens","equaldotanddens","randomdotsizeEA","equaldotanddens","equaldotsize","equaldotsize","randomdotsizeEA","equaldotanddens","randomdotsizeEA","equaldotsize","randomdotsizeEA","equaldotanddens","equaldotsize","equaldotsize","randomdotsizeEA","equaldotanddens","equaldotsize","equaldotsize","randomdotsizeEA","equaldotanddens","randomdotsizeEA","randomdotsizeEA","randomdotsizeEA","randomdotsizeEA","equaldotanddens","equaldotsize","equaldotsize","randomdotsizeEA","equaldotanddens","randomdotsizeEA","equaldotsize","equaldotsize","equaldotanddens","equaldotanddens","equaldotanddens","equaldotsize","equaldotanddens","randomdotsizeEA","equaldotanddens","equaldotanddens","equaldotanddens","randomdotsizeEA","randomdotsizeEA","equaldotanddens","equaldotsize","equaldotsize","equaldotanddens","equaldotsize","randomdotsizeEA","equaldotanddens","equaldotsize","equaldotanddens","equaldotanddens","randomdotsizeEA","randomdotsizeEA","equaldotsize","randomdotsizeEA","randomdotsizeEA","equaldotanddens","randomdotsizeEA","equaldotanddens","equaldotanddens","equaldotanddens","equaldotsize","equaldotanddens","equaldotsize","equaldotsize","equaldotsize","equaldotsize","randomdotsizeEA","randomdotsizeEA","equaldotanddens","randomdotsizeEA","equaldotsize","equaldotsize","equaldotanddens","equaldotsize","randomdotsizeEA","randomdotsizeEA","equaldotanddens","equaldotanddens","equaldotsize","randomdotsizeEA","equaldotsize","equaldotsize","equaldotsize","equaldotsize","equaldotsize","randomdotsizeEA","randomdotsizeEA","equaldotanddens","randomdotsizeEA","randomdotsizeEA","randomdotsizeEA","equaldotsize","equaldotanddens","equaldotanddens","equaldotsize","equaldotanddens","equaldotanddens","equaldotsize","equaldotanddens","equaldotsize","equaldotsize","equaldotanddens","randomdotsizeEA","equaldotanddens","randomdotsizeEA","randomdotsizeEA","randomdotsizeEA","randomdotsizeEA","equaldotanddens","randomdotsizeEA"],"ratio_trial":[250,900,900,500,900,250,250,900,900,900,500,900,900,250,750,750,500,750,750,250,500,750,750,500,750,500,900,750,900,750,500,750,250,750,900,500,250,500,750,750,900,750,750,250,750,250,250,900,900,750,900,250,500,250,250,900,750,500,900,250,250,500,500,250,900,500,500,750,500,750,750,900,250,750,900,500,750,750,250,250,250,900,500,750,900,500,250,500,900,750,900,900,500,250,250,500,500,500,900,500,900,750,500,900,750,250,750,750,250,900,900,500,500,250,500,250,250,250,500,250],"smaller_num":["3","9","9","9","18","6","6","9","18","9","9","18","18","1","15","6","2","12","9","4","9","15","6","6","3","5","9","6","18","3","2","15","3","3","18","2","4","3","3","3","18","3","12","3","6","3","3","18","9","3","18","6","4","6","2","9","6","5","18","6","3","6","4","6","9","6","5","3","2","3","9","9","3","12","9","1","18","3","3","3","1","18","9","18","18","6","2","5","18","6","18","9","1","3","3","2","9","2","18","9","18","18","10","18","18","2","12","6","1","18","9","4","2","2","2","2","2","1","2","2"],"larger_num":["12","10","10","18","20","24","24","10","20","10","18","20","20","4","20","8","4","16","12","16","18","20","8","12","4","10","10","8","20","4","4","20","12","4","20","4","16","6","4","4","20","4","16","12","8","12","12","20","10","4","20","24","8","24","8","10","8","10","20","24","12","12","8","24","10","12","10","4","4","4","12","10","12","16","10","2","24","4","12","12","4","20","18","24","20","12","8","10","20","8","20","10","2","12","12","4","18","4","20","18","20","24","20","20","24","8","16","8","4","20","10","8","4","8","4","8","8","4","4","8"],"correct_side":[1,2,2,1,2,1,1,1,1,2,1,2,1,2,1,1,2,2,2,2,2,2,1,1,1,1,2,1,2,1,1,2,1,2,2,1,1,2,1,2,2,2,2,1,1,2,2,2,2,1,2,1,1,2,1,2,2,2,2,1,1,1,1,1,2,1,2,1,2,1,2,2,2,2,2,2,1,2,2,1,2,2,1,1,1,1,1,1,2,2,1,2,2,2,2,1,2,1,1,1,1,1,2,1,1,2,2,1,2,1,1,1,1,1,2,1,1,2,1,2],"img_shown":["img/250/randomdotsizeEA/L/14_Ratio_250_L_12_R_3.png","img/900/equaldotsize/R/6_Ratio_900_L_9_R_10.png","img/900/equaldotanddens/R/7_Ratio_900_L_9_R_10.png","img/500/equaldotsize/L/4_Ratio_500_L_18_R_9.png","img/900/randomdotsizeEA/R/14_Ratio_900_L_18_R_20.png","img/250/equaldotsize/L/5_Ratio_250_L_24_R_6.png","img/250/equaldotsize/L/5_Ratio_250_L_24_R_6.png","img/900/equaldotanddens/L/1_Ratio_900_L_10_R_9.png","img/900/equaldotanddens/L/10_Ratio_900_L_20_R_18.png","img/900/randomdotsizeEA/R/3_Ratio_900_L_9_R_10.png","img/500/equaldotanddens/L/4_Ratio_500_L_18_R_9.png","img/900/equaldotsize/R/13_Ratio_900_L_18_R_20.png","img/900/equaldotsize/L/2_Ratio_900_L_20_R_18.png","img/250/randomdotsizeEA/R/8_Ratio_250_L_1_R_4.png","img/750/equaldotanddens/L/1_Ratio_750_L_20_R_15.png","img/750/randomdotsizeEA/L/14_Ratio_750_L_8_R_6.png","img/500/equaldotsize/R/9_Ratio_500_L_2_R_4.png","img/750/randomdotsizeEA/R/11_Ratio_750_L_12_R_16.png","img/750/equaldotanddens/R/15_Ratio_750_L_9_R_12.png","img/250/equaldotsize/R/10_Ratio_250_L_4_R_16.png","img/500/equaldotsize/R/6_Ratio_500_L_9_R_18.png","img/750/randomdotsizeEA/R/3_Ratio_750_L_15_R_20.png","img/750/equaldotanddens/L/14_Ratio_750_L_8_R_6.png","img/500/equaldotsize/L/11_Ratio_500_L_12_R_6.png","img/750/equaldotsize/L/8_Ratio_750_L_4_R_3.png","img/500/randomdotsizeEA/L/7_Ratio_500_L_10_R_5.png","img/900/equaldotanddens/R/7_Ratio_900_L_9_R_10.png","img/750/randomdotsizeEA/L/13_Ratio_750_L_8_R_6.png","img/900/randomdotsizeEA/R/12_Ratio_900_L_18_R_20.png","img/750/randomdotsizeEA/L/10_Ratio_750_L_4_R_3.png","img/500/randomdotsizeEA/L/5_Ratio_500_L_4_R_2.png","img/750/equaldotanddens/R/5_Ratio_750_L_15_R_20.png","img/250/equaldotsize/L/14_Ratio_250_L_12_R_3.png","img/750/equaldotsize/R/12_Ratio_750_L_3_R_4.png","img/900/randomdotsizeEA/R/14_Ratio_900_L_18_R_20.png","img/500/equaldotanddens/L/5_Ratio_500_L_4_R_2.png","img/250/randomdotsizeEA/L/2_Ratio_250_L_16_R_4.png","img/500/equaldotsize/R/2_Ratio_500_L_3_R_6.png","img/750/equaldotsize/L/10_Ratio_750_L_4_R_3.png","img/750/equaldotanddens/R/12_Ratio_750_L_3_R_4.png","img/900/equaldotanddens/R/11_Ratio_900_L_18_R_20.png","img/750/equaldotanddens/R/7_Ratio_750_L_3_R_4.png","img/750/equaldotsize/R/11_Ratio_750_L_12_R_16.png","img/250/equaldotanddens/L/15_Ratio_250_L_12_R_3.png","img/750/randomdotsizeEA/L/14_Ratio_750_L_8_R_6.png","img/250/equaldotanddens/R/9_Ratio_250_L_3_R_12.png","img/250/equaldotanddens/R/4_Ratio_250_L_3_R_12.png","img/900/equaldotanddens/R/12_Ratio_900_L_18_R_20.png","img/900/randomdotsizeEA/R/7_Ratio_900_L_9_R_10.png","img/750/randomdotsizeEA/L/10_Ratio_750_L_4_R_3.png","img/900/equaldotanddens/R/14_Ratio_900_L_18_R_20.png","img/250/equaldotsize/L/5_Ratio_250_L_24_R_6.png","img/500/equaldotsize/L/8_Ratio_500_L_8_R_4.png","img/250/equaldotanddens/R/6_Ratio_250_L_6_R_24.png","img/250/equaldotsize/L/7_Ratio_250_L_8_R_2.png","img/900/randomdotsizeEA/R/5_Ratio_900_L_9_R_10.png","img/750/equaldotanddens/R/2_Ratio_750_L_6_R_8.png","img/500/equaldotsize/R/14_Ratio_500_L_5_R_10.png","img/900/equaldotanddens/R/9_Ratio_900_L_18_R_20.png","img/250/equaldotanddens/L/5_Ratio_250_L_24_R_6.png","img/250/randomdotsizeEA/L/14_Ratio_250_L_12_R_3.png","img/500/randomdotsizeEA/L/11_Ratio_500_L_12_R_6.png","img/500/equaldotsize/L/8_Ratio_500_L_8_R_4.png","img/250/randomdotsizeEA/L/5_Ratio_250_L_24_R_6.png","img/900/randomdotsizeEA/R/7_Ratio_900_L_9_R_10.png","img/500/equaldotanddens/L/11_Ratio_500_L_12_R_6.png","img/500/randomdotsizeEA/R/14_Ratio_500_L_5_R_10.png","img/750/equaldotanddens/L/8_Ratio_750_L_4_R_3.png","img/500/equaldotanddens/R/9_Ratio_500_L_2_R_4.png","img/750/equaldotanddens/L/9_Ratio_750_L_4_R_3.png","img/750/equaldotsize/R/15_Ratio_750_L_9_R_12.png","img/900/equaldotanddens/R/3_Ratio_900_L_9_R_10.png","img/250/equaldotsize/R/4_Ratio_250_L_3_R_12.png","img/750/equaldotsize/R/11_Ratio_750_L_12_R_16.png","img/900/equaldotsize/R/15_Ratio_900_L_9_R_10.png","img/500/equaldotsize/R/12_Ratio_500_L_1_R_2.png","img/750/randomdotsizeEA/L/6_Ratio_750_L_24_R_18.png","img/750/randomdotsizeEA/R/7_Ratio_750_L_3_R_4.png","img/250/equaldotanddens/R/4_Ratio_250_L_3_R_12.png","img/250/randomdotsizeEA/L/14_Ratio_250_L_12_R_3.png","img/250/equaldotsize/R/8_Ratio_250_L_1_R_4.png","img/900/equaldotsize/R/9_Ratio_900_L_18_R_20.png","img/500/equaldotanddens/L/4_Ratio_500_L_18_R_9.png","img/750/equaldotsize/L/6_Ratio_750_L_24_R_18.png","img/900/randomdotsizeEA/L/2_Ratio_900_L_20_R_18.png","img/500/randomdotsizeEA/L/11_Ratio_500_L_12_R_6.png","img/250/equaldotanddens/L/1_Ratio_250_L_8_R_2.png","img/500/equaldotanddens/L/7_Ratio_500_L_10_R_5.png","img/900/equaldotsize/R/13_Ratio_900_L_18_R_20.png","img/750/randomdotsizeEA/R/2_Ratio_750_L_6_R_8.png","img/900/equaldotsize/L/8_Ratio_900_L_20_R_18.png","img/900/equaldotsize/R/7_Ratio_900_L_9_R_10.png","img/500/equaldotsize/R/12_Ratio_500_L_1_R_2.png","img/250/equaldotsize/R/4_Ratio_250_L_3_R_12.png","img/250/equaldotsize/R/9_Ratio_250_L_3_R_12.png","img/500/randomdotsizeEA/L/10_Ratio_500_L_4_R_2.png","img/500/randomdotsizeEA/R/6_Ratio_500_L_9_R_18.png","img/500/equaldotanddens/L/10_Ratio_500_L_4_R_2.png","img/900/randomdotsizeEA/L/2_Ratio_900_L_20_R_18.png","img/500/randomdotsizeEA/L/4_Ratio_500_L_18_R_9.png","img/900/randomdotsizeEA/L/4_Ratio_900_L_20_R_18.png","img/750/equaldotsize/L/6_Ratio_750_L_24_R_18.png","img/500/equaldotanddens/R/3_Ratio_500_L_10_R_20.png","img/900/equaldotanddens/L/2_Ratio_900_L_20_R_18.png","img/750/equaldotsize/L/6_Ratio_750_L_24_R_18.png","img/250/equaldotanddens/R/13_Ratio_250_L_2_R_8.png","img/750/equaldotanddens/R/11_Ratio_750_L_12_R_16.png","img/750/equaldotsize/L/13_Ratio_750_L_8_R_6.png","img/250/equaldotanddens/R/8_Ratio_250_L_1_R_4.png","img/900/equaldotsize/L/8_Ratio_900_L_20_R_18.png","img/900/equaldotsize/L/1_Ratio_900_L_10_R_9.png","img/500/equaldotanddens/L/8_Ratio_500_L_8_R_4.png","img/500/randomdotsizeEA/L/10_Ratio_500_L_4_R_2.png","img/250/equaldotanddens/L/1_Ratio_250_L_8_R_2.png","img/500/randomdotsizeEA/R/9_Ratio_500_L_2_R_4.png","img/250/randomdotsizeEA/L/7_Ratio_250_L_8_R_2.png","img/250/randomdotsizeEA/L/1_Ratio_250_L_8_R_2.png","img/250/randomdotsizeEA/R/8_Ratio_250_L_1_R_4.png","img/500/equaldotanddens/L/10_Ratio_500_L_4_R_2.png","img/250/randomdotsizeEA/R/13_Ratio_250_L_2_R_8.png"],"Rat0":[["12_Ratio_0_L_9_R_0.png","13_Ratio_0_L_6_R_0.png","5_Ratio_0_L_2_R_0.png","6_Ratio_0_L_4_R_0.png","8_Ratio_0_L_6_R_0.png"],["1_Ratio_0_L_0_R_17.png","10_Ratio_0_L_0_R_22.png","11_Ratio_0_L_0_R_1.png","14_Ratio_0_L_0_R_24.png","15_Ratio_0_L_0_R_4.png","2_Ratio_0_L_0_R_5.png","3_Ratio_0_L_0_R_17.png","4_Ratio_0_L_0_R_7.png","7_Ratio_0_L_0_R_19.png","9_Ratio_0_L_0_R_15.png"]],"Rat250":[["1_Ratio_250_L_8_R_2.png","14_Ratio_250_L_12_R_3.png","15_Ratio_250_L_12_R_3.png","2_Ratio_250_L_16_R_4.png","3_Ratio_250_L_8_R_2.png","5_Ratio_250_L_24_R_6.png","7_Ratio_250_L_8_R_2.png"],["10_Ratio_250_L_4_R_16.png","11_Ratio_250_L_3_R_12.png","12_Ratio_250_L_5_R_20.png","13_Ratio_250_L_2_R_8.png","4_Ratio_250_L_3_R_12.png","6_Ratio_250_L_6_R_24.png","8_Ratio_250_L_1_R_4.png","9_Ratio_250_L_3_R_12.png"]],"Rat500":[["10_Ratio_500_L_4_R_2.png","11_Ratio_500_L_12_R_6.png","13_Ratio_500_L_12_R_6.png","4_Ratio_500_L_18_R_9.png","5_Ratio_500_L_4_R_2.png","7_Ratio_500_L_10_R_5.png","8_Ratio_500_L_8_R_4.png"],["1_Ratio_500_L_9_R_18.png","12_Ratio_500_L_1_R_2.png","14_Ratio_500_L_5_R_10.png","15_Ratio_500_L_1_R_2.png","2_Ratio_500_L_3_R_6.png","3_Ratio_500_L_10_R_20.png","6_Ratio_500_L_9_R_18.png","9_Ratio_500_L_2_R_4.png"]],"Rat750":[["1_Ratio_750_L_20_R_15.png","10_Ratio_750_L_4_R_3.png","13_Ratio_750_L_8_R_6.png","14_Ratio_750_L_8_R_6.png","6_Ratio_750_L_24_R_18.png","8_Ratio_750_L_4_R_3.png","9_Ratio_750_L_4_R_3.png"],["11_Ratio_750_L_12_R_16.png","12_Ratio_750_L_3_R_4.png","15_Ratio_750_L_9_R_12.png","2_Ratio_750_L_6_R_8.png","3_Ratio_750_L_15_R_20.png","4_Ratio_750_L_15_R_20.png","5_Ratio_750_L_15_R_20.png","7_Ratio_750_L_3_R_4.png"]],"Rat900":[["1_Ratio_900_L_10_R_9.png","10_Ratio_900_L_20_R_18.png","2_Ratio_900_L_20_R_18.png","4_Ratio_900_L_20_R_18.png","8_Ratio_900_L_20_R_18.png"],["11_Ratio_900_L_18_R_20.png","12_Ratio_900_L_18_R_20.png","13_Ratio_900_L_18_R_20.png","14_Ratio_900_L_18_R_20.png","15_Ratio_900_L_9_R_10.png","3_Ratio_900_L_9_R_10.png","5_Ratio_900_L_9_R_10.png","6_Ratio_900_L_9_R_10.png","7_Ratio_900_L_9_R_10.png","9_Ratio_900_L_18_R_20.png"]],"Rat1000":[["10_Ratio_1000_L_16_R_16.png","11_Ratio_1000_L_6_R_6.png","12_Ratio_1000_L_14_R_14.png","13_Ratio_1000_L_20_R_20.png","15_Ratio_1000_L_15_R_15.png","2_Ratio_1000_L_17_R_17.png","4_Ratio_1000_L_9_R_9.png","5_Ratio_1000_L_6_R_6.png","6_Ratio_1000_L_19_R_19.png","8_Ratio_1000_L_14_R_14.png","9_Ratio_1000_L_25_R_25.png"],["1_Ratio_1000_L_1_R_1.png","14_Ratio_1000_L_17_R_17.png","3_Ratio_1000_L_17_R_17.png","7_Ratio_1000_L_6_R_6.png"]]}},{"start_time":1551901457800,"click_time":1551901460707,"finger_time":1551901459127,"fix_duration":812.676571067574,"trial":1,"RT":1327,"MT":1580,"sideResp":1,"stimulus":"img/900/equaldotsize/R/6_Ratio_900_L_9_R_10.png","xmouse":[805,805,805,805,805,805,805,805,805,805,805,805,805,805,805,805,805,805,805,805,805,805,805,805,805,805,805,805,805,805,805,805,805,805,805,805,805,805,805,805,805,805,805,805,805,805,805,805,805,805,805,805,806,807,807,807,807,807,807,807,807,807,807,807,804,770,742,707,671,615,598,590,585,584,583,583,583,583,583,583,583,583,583,583,584,627,691,759,838,912,1053,1097,1129,1145,1157,1169,1171,1174,1178,1181,1181,1181,1181,1181,1181,1181,1180,1178,1177,1175,1175,1175,1174,1172,1169,1160,1150,1140,1123,1104,1058,1035,1010,977,801,692,585,492,413,349,349,355,361,367,372,373,373,373,373,374,387,397,406,412,416,428],"ymouse":[640,640,640,640,640,640,640,640,640,640,640,640,640,640,640,640,640,640,640,640,640,640,640,640,640,640,640,640,640,640,640,640,640,640,640,640,640,640,640,640,640,640,640,640,640,640,640,640,640,640,640,640,641,641,640,640,640,640,640,640,640,640,640,638,632,589,557,512,465,381,345,321,306,297,291,278,273,268,266,262,260,260,260,260,259,259,254,244,233,221,165,142,124,111,102,92,90,87,84,80,78,77,76,76,76,76,76,76,76,76,76,76,76,80,85,110,131,159,197,238,300,309,311,311,272,235,191,143,104,59,53,43,37,28,23,23,23,23,23,23,24,29,33,36,39,43],"timestamp_mouse":[7,31,48,67,87,107,128,147,167,187,207,227,247,267,288,306,327,347,367,386,407,427,447,467,487,507,527,548,567,587,606,628,646,667,687,707,727,747,767,787,807,826,846,867,887,907,927,947,967,987,1007,1026,1047,1067,1088,1107,1127,1148,1166,1187,1207,1227,1247,1267,1287,1307,1327,1348,1368,1387,1406,1427,1447,1467,1488,1507,1527,1547,1567,1587,1607,1628,1647,1667,1686,1707,1727,1747,1767,1787,1808,1827,1846,1868,1887,1907,1928,1948,1967,1987,2007,2027,2047,2067,2086,2107,2127,2147,2167,2187,2206,2227,2246,2266,2286,2307,2327,2347,2367,2387,2407,2427,2448,2467,2488,2506,2527,2548,2567,2587,2607,2627,2647,2668,2688,2707,2727,2747,2767,2787,2807,2826,2847,2868,2887,2907],"xSR":741.5,"ySR":573.95,"xT1":424.9,"yT1":0,"xT2":1058.1,"yT2":0,"toosoon":0,"cond_shown":"equaldotsize","ratio_trial":900,"smaller_num":"9","larger_num":"10","correct_side":2,"subjID":"laurasofiacortesdias18","gender":"1","age":"11","school":"6"},{"start_time":1551901463502,"click_time":1551901465248,"finger_time":1551901464687,"fix_duration":1414.3598084044124,"trial":2,"RT":1185,"MT":561,"sideResp":1,"stimulus":"img/900/equaldotanddens/R/7_Ratio_900_L_9_R_10.png","xmouse":[795,795,795,795,795,795,795,795,795,795,795,795,795,795,795,795,795,795,795,795,795,795,795,795,795,795,795,795,795,795,795,795,795,795,795,795,795,795,795,795,795,795,795,795,795,796,796,796,796,796,796,796,796,796,795,792,781,764,745,716,645,614,589,566,551,527,522,518,515,512,510,510,510,510,510,510,511,511,512,513,514,514,514,514,514,510,506,505],"ymouse":[656,656,656,656,656,656,656,656,656,656,656,656,656,656,656,656,656,656,656,656,656,656,656,656,656,656,656,656,656,656,656,656,656,656,656,656,656,656,656,656,656,656,656,656,656,656,656,656,656,656,656,656,656,655,650,646,635,620,598,559,458,409,362,318,283,223,210,201,192,184,179,177,177,177,172,169,167,166,165,160,157,152,147,143,139,120,109,99],"timestamp_mouse":[7,30,45,65,85,105,126,145,164,184,205,225,245,265,285,305,325,344,366,386,405,425,445,465,485,505,524,546,565,585,605,625,645,665,685,705,726,745,765,784,805,825,845,865,885,905,925,944,965,986,1005,1024,1046,1065,1086,1105,1124,1145,1165,1185,1205,1225,1245,1266,1285,1305,1325,1344,1365,1386,1405,1425,1445,1465,1485,1504,1525,1545,1565,1585,1604,1626,1645,1665,1686,1706,1725,1746],"xSR":741.5,"ySR":573.95,"xT1":424.9,"yT1":0,"xT2":1058.1,"yT2":0,"toosoon":0,"cond_shown":"equaldotanddens","ratio_trial":900,"smaller_num":"9","larger_num":"10","correct_side":2,"subjID":"laurasofiacortesdias18","gender":"1","age":"11","school":"6"},{"start_time":1551901467287,"click_time":1551901468467,"finger_time":1551901468007,"fix_duration":1180.6981617013244,"trial":3,"RT":720,"MT":460,"sideResp":1,"stimulus":"img/500/equaldotsize/L/4_Ratio_500_L_18_R_9.png","xmouse":[785,785,785,785,785,785,785,785,785,785,785,785,785,785,785,785,785,785,785,785,785,785,785,785,785,785,785,785,785,785,785,785,785,783,775,731,722,712,705,700,693,688,681,671,661,641,635,625,616,601,592,581,570,561,555,541,534,528,524],"ymouse":[649,649,649,649,649,649,649,649,649,649,649,649,649,649,649,649,649,649,649,649,649,649,649,649,649,649,649,649,649,649,649,649,649,634,614,520,506,494,487,481,452,417,375,332,308,262,240,217,198,162,141,120,103,91,80,62,53,46,43],"timestamp_mouse":[26,40,60,80,100,120,140,159,181,201,219,240,261,280,300,320,340,360,381,400,420,440,460,480,500,520,539,560,580,600,620,641,660,680,699,720,740,760,779,800,820,840,859,880,900,920,940,961,979,1001,1020,1040,1060,1079,1099,1120,1140,1160,1180],"xSR":741.5,"ySR":573.95,"xT1":424.9,"yT1":0,"xT2":1058.1,"yT2":0,"toosoon":0,"cond_shown":"equaldotsize","ratio_trial":500,"smaller_num":"9","larger_num":"18","correct_side":1,"subjID":"laurasofiacortesdias18","gender":"1","age":"11","school":"6"},{"start_time":1551901469678,"click_time":1551901470867,"finger_time":1551901470407,"fix_duration":250,"trial":4,"RT":729,"MT":460,"sideResp":2,"stimulus":"img/900/randomdotsizeEA/R/14_Ratio_900_L_18_R_20.png","xmouse":[780,780,780,780,780,780,780,780,780,780,780,780,780,780,780,780,780,780,780,780,780,780,780,780,780,780,780,780,780,780,780,780,780,780,783,791,844,879,914,963,1002,1051,1071,1087,1101,1137,1166,1184,1202,1214,1225,1226,1226,1226,1226,1201,1188,1176,1162,1146],"ymouse":[616,616,616,616,616,616,616,616,616,616,616,616,616,616,616,616,616,616,616,616,616,616,616,616,616,616,616,616,616,616,616,616,616,616,614,605,525,473,442,411,383,339,316,296,280,243,219,207,191,171,132,121,116,113,111,109,108,105,100,94],"timestamp_mouse":[9,29,49,69,89,109,129,150,168,189,209,229,249,269,288,309,329,349,369,389,409,429,449,469,489,508,529,550,569,589,609,628,649,668,689,709,729,749,769,789,809,829,850,869,890,909,929,949,969,988,1009,1029,1049,1069,1090,1110,1128,1149,1169,1189],"xSR":741.5,"ySR":573.95,"xT1":424.9,"yT1":0,"xT2":1058.1,"yT2":0,"toosoon":0,"cond_shown":"randomdotsizeEA","ratio_trial":900,"smaller_num":"18","larger_num":"20","correct_side":2,"subjID":"laurasofiacortesdias18","gender":"1","age":"11","school":"6"},{"start_time":1551901473609,"click_time":1551901475187,"finger_time":1551901474766,"fix_duration":540.4075181779293,"trial":5,"RT":1157,"MT":421,"sideResp":1,"stimulus":"img/250/equaldotsize/L/5_Ratio_250_L_24_R_6.png","xmouse":[812,812,812,812,812,812,812,812,812,812,812,812,812,812,812,812,812,812,812,812,812,812,812,812,812,812,812,812,812,812,812,812,812,812,812,812,812,812,812,812,812,812,812,812,812,812,812,812,812,812,812,812,810,809,809,808,795,737,658,645,639,631,620,606,596,588,576,568,561,558,552,543,533,518,516,514,514,513,510],"ymouse":[663,663,663,663,663,663,663,663,663,663,663,663,663,663,663,663,663,663,663,663,663,663,663,663,663,663,663,663,663,663,663,663,663,663,663,663,663,663,663,663,663,663,663,663,663,663,663,663,663,663,663,662,662,664,664,664,654,612,552,534,522,499,457,366,335,311,286,261,216,198,176,154,137,115,112,109,107,103,95],"timestamp_mouse":[28,38,58,78,98,118,138,158,178,198,218,238,258,278,298,319,339,359,378,398,418,439,457,478,497,518,537,559,578,598,618,637,658,677,698,718,738,757,777,798,819,839,857,879,898,918,939,958,978,998,1017,1038,1058,1079,1098,1118,1137,1157,1178,1198,1217,1237,1258,1278,1297,1318,1338,1358,1378,1398,1417,1438,1457,1479,1497,1518,1537,1558,1578],"xSR":741.5,"ySR":573.95,"xT1":424.9,"yT1":0,"xT2":1058.1,"yT2":0,"toosoon":0,"cond_shown":"equaldotsize","ratio_trial":250,"smaller_num":"6","larger_num":"24","correct_side":1,"subjID":"laurasofiacortesdias18","gender":"1","age":"11","school":"6"},{"start_time":1551901476699,"click_time":1551901477827,"finger_time":1551901477327,"fix_duration":750.9348920180777,"trial":6,"RT":628,"MT":500,"sideResp":1,"stimulus":"img/250/equaldotsize/L/5_Ratio_250_L_24_R_6.png","xmouse":[818,818,818,818,818,818,818,818,818,818,818,818,818,818,818,818,818,818,818,818,818,818,818,818,818,818,818,818,818,813,802,790,786,785,779,762,750,741,734,716,703,690,679,666,651,607,591,577,566,549,541,537,530,527,524,523,521],"ymouse":[619,619,619,619,619,619,619,619,619,619,619,619,619,619,619,619,619,619,619,619,619,619,619,619,619,619,619,619,619,612,592,565,545,531,493,448,420,400,383,350,333,318,303,286,269,237,227,218,208,188,176,166,150,139,115,107,97],"timestamp_mouse":[8,27,48,68,88,108,127,148,168,188,208,227,247,268,288,309,328,348,368,387,407,428,448,467,487,508,528,547,567,588,608,628,648,669,687,708,728,748,769,788,807,828,848,869,888,908,928,948,967,987,1008,1028,1049,1068,1088,1108,1128],"xSR":741.5,"ySR":573.95,"xT1":424.9,"yT1":0,"xT2":1058.1,"yT2":0,"toosoon":0,"cond_shown":"equaldotsize","ratio_trial":250,"smaller_num":"6","larger_num":"24","correct_side":1,"subjID":"laurasofiacortesdias18","gender":"1","age":"11","school":"6"},{"start_time":1551901479512,"click_time":1551901480567,"finger_time":1551901480127,"fix_duration":804.9177527202198,"trial":7,"RT":615,"MT":440,"sideResp":2,"stimulus":"img/900/equaldotanddens/L/1_Ratio_900_L_10_R_9.png","xmouse":[780,780,780,780,780,780,780,780,780,780,780,780,780,780,780,780,780,780,780,780,780,780,780,780,780,780,780,780,785,817,847,876,902,936,956,964,967,968,973,977,980,987,999,1020,1035,1051,1071,1084,1110,1121,1128,1132,1133],"ymouse":[613,613,613,613,613,613,613,613,613,613,613,613,613,613,613,613,613,613,613,613,613,613,613,613,613,613,613,613,608,575,543,506,469,417,385,368,353,339,310,299,287,274,259,235,214,196,181,170,146,133,120,106,95],"timestamp_mouse":[17,35,55,74,95,115,135,155,175,195,215,235,255,275,295,314,335,355,374,395,415,434,455,475,494,514,536,555,574,595,615,636,655,675,695,715,735,755,775,795,815,834,854,875,895,915,936,955,974,995,1015,1035,1055],"xSR":741.5,"ySR":573.95,"xT1":424.9,"yT1":0,"xT2":1058.1,"yT2":0,"toosoon":0,"cond_shown":"equaldotanddens","ratio_trial":900,"smaller_num":"9","larger_num":"10","correct_side":1,"subjID":"laurasofiacortesdias18","gender":"1","age":"11","school":"6"},{"start_time":1551901482173,"click_time":1551901483707,"finger_time":1551901483307,"fix_duration":405.55846056845246,"trial":8,"RT":1134,"MT":400,"sideResp":1,"stimulus":"img/900/equaldotanddens/L/10_Ratio_900_L_20_R_18.png","xmouse":[778,778,778,778,778,778,778,778,778,778,778,778,778,778,778,778,778,778,778,778,778,778,778,778,778,778,778,778,778,778,778,778,778,778,778,778,778,778,778,778,778,778,778,778,778,778,778,778,778,778,778,778,778,778,777,771,767,758,751,744,723,715,706,693,682,668,663,658,655,651,637,619,605,593,576,542,522],"ymouse":[602,602,602,602,602,602,602,602,602,602,602,602,602,602,602,602,602,602,602,602,602,602,602,602,602,602,602,602,602,602,602,602,602,602,602,602,602,602,602,602,602,602,602,602,602,602,602,602,602,602,602,602,602,602,592,578,566,554,541,525,465,436,403,359,323,279,260,245,228,213,176,147,132,124,117,101,91],"timestamp_mouse":[24,34,54,74,94,113,134,155,175,194,214,233,254,273,294,314,334,354,373,393,414,434,454,474,494,514,534,554,574,593,614,634,654,674,694,714,733,754,773,793,814,834,854,874,894,913,934,954,974,994,1013,1033,1054,1074,1093,1114,1134,1154,1175,1195,1214,1234,1254,1274,1293,1313,1333,1354,1374,1394,1413,1434,1454,1474,1494,1514,1534],"xSR":741.5,"ySR":573.95,"xT1":424.9,"yT1":0,"xT2":1058.1,"yT2":0,"toosoon":0,"cond_shown":"equaldotanddens","ratio_trial":900,"smaller_num":"18","larger_num":"20","correct_side":1,"subjID":"laurasofiacortesdias18","gender":"1","age":"11","school":"6"},{"start_time":1551901484822,"click_time":1551901485887,"finger_time":1551901485447,"fix_duration":294.48634257911164,"trial":9,"RT":625,"MT":440,"sideResp":2,"stimulus":"img/900/randomdotsizeEA/R/3_Ratio_900_L_9_R_10.png","xmouse":[799,799,799,799,799,799,799,799,799,799,799,799,799,799,799,799,799,799,799,799,799,799,799,799,799,799,799,799,810,823,839,855,872,897,906,912,918,924,934,970,993,1024,1047,1059,1061,1061,1061,1061,1060,1058,1058,1058,1058,1059],"ymouse":[647,647,647,647,647,647,647,647,647,647,647,647,647,647,647,647,647,647,647,647,647,647,647,647,647,647,647,647,641,630,615,598,578,539,525,513,502,490,473,410,379,342,309,261,243,226,210,194,165,144,135,124,113,98],"timestamp_mouse":[12,28,45,65,85,105,125,144,165,185,205,225,245,265,285,306,325,345,365,385,405,425,445,465,485,505,525,545,565,586,605,625,645,665,685,705,725,745,765,785,805,826,845,865,885,905,925,945,965,984,1005,1025,1045,1065],"xSR":741.5,"ySR":573.95,"xT1":424.9,"yT1":0,"xT2":1058.1,"yT2":0,"toosoon":0,"cond_shown":"randomdotsizeEA","ratio_trial":900,"smaller_num":"9","larger_num":"10","correct_side":2,"subjID":"laurasofiacortesdias18","gender":"1","age":"11","school":"6"},{"start_time":1551901493010,"click_time":1551901493927,"finger_time":1551901493587,"fix_duration":680.6117915758721,"trial":10,"RT":577,"MT":340,"sideResp":1,"stimulus":"img/500/equaldotanddens/L/4_Ratio_500_L_18_R_9.png","xmouse":[754,754,754,754,754,754,754,754,754,754,754,754,754,754,754,754,754,754,754,754,754,754,754,754,754,754,754,752,725,690,622,580,551,533,530,528,528,527,526,525,524,523,519,506,501,495],"ymouse":[618,618,618,618,618,618,618,618,618,618,618,618,618,618,618,618,618,618,618,618,618,618,618,618,618,618,618,618,557,491,388,321,272,230,215,201,191,183,173,166,161,155,144,115,103,91],"timestamp_mouse":[24,37,57,77,97,117,136,157,177,197,217,237,257,277,297,317,337,357,377,397,416,437,457,477,497,517,537,557,577,597,616,637,657,677,697,717,737,757,777,797,817,837,857,876,897,917],"xSR":741.5,"ySR":573.95,"xT1":424.9,"yT1":0,"xT2":1058.1,"yT2":0,"toosoon":0,"cond_shown":"equaldotanddens","ratio_trial":500,"smaller_num":"9","larger_num":"18","correct_side":1,"subjID":"laurasofiacortesdias18","gender":"1","age":"11","school":"6"},{"start_time":1551901499120,"click_time":1551901500787,"finger_time":1551901500347,"fix_duration":272.1921187685066,"trial":11,"RT":1227,"MT":440,"sideResp":2,"stimulus":"img/900/equaldotsize/R/13_Ratio_900_L_18_R_20.png","xmouse":[777,777,777,777,777,777,777,777,777,777,777,777,777,777,777,777,777,777,777,777,777,777,777,777,777,777,777,777,777,777,777,777,777,777,777,777,777,777,777,777,777,777,777,777,777,777,777,777,777,777,777,777,777,777,777,777,777,777,777,781,804,838,894,1027,1072,1081,1086,1088,1088,1088,1088,1088,1088,1088,1090,1095,1102,1107,1117,1121,1124,1124,1122,1112],"ymouse":[605,605,605,605,605,605,605,605,605,605,605,605,605,605,605,605,605,605,605,605,605,605,605,605,605,605,605,605,605,605,605,605,605,605,605,605,605,605,605,605,605,605,605,605,605,605,605,605,605,605,605,605,605,605,605,605,605,605,605,604,590,572,549,487,455,443,427,409,370,350,329,309,287,244,228,204,189,176,159,149,141,130,117,89],"timestamp_mouse":[9,27,48,67,87,107,127,147,167,187,208,227,247,267,287,307,327,347,367,387,407,427,447,467,487,507,528,547,568,587,607,628,648,667,687,706,727,747,767,787,807,827,847,867,887,907,927,947,967,987,1007,1027,1046,1067,1087,1107,1127,1147,1167,1187,1207,1227,1247,1267,1287,1306,1327,1347,1367,1387,1408,1427,1447,1467,1487,1506,1527,1547,1567,1587,1606,1627,1647,1667],"xSR":741.5,"ySR":573.95,"xT1":424.9,"yT1":0,"xT2":1058.1,"yT2":0,"toosoon":0,"cond_shown":"equaldotsize","ratio_trial":900,"smaller_num":"18","larger_num":"20","correct_side":2,"subjID":"laurasofiacortesdias18","gender":"1","age":"11","school":"6"},{"start_time":1551901505381,"click_time":1551901506447,"finger_time":1551901506327,"fix_duration":631.1371599712675,"trial":12,"RT":946,"MT":120,"sideResp":1,"stimulus":"img/900/equaldotsize/L/2_Ratio_900_L_20_R_18.png","xmouse":[781,781,782,782,783,783,783,784,784,787,789,790,790,790,790,790,790,790,790,790,790,790,790,790,790,790,790,790,790,790,790,790,790,790,790,790,790,790,790,790,790,790,790,790,787,758,745,735,725,711,655,618,539,489],"ymouse":[642,642,642,643,643,644,644,645,645,645,645,645,645,645,645,645,645,645,645,645,645,645,645,645,645,645,645,645,645,645,645,645,645,645,645,645,645,645,645,645,645,645,645,642,634,597,585,575,562,539,412,316,164,96],"timestamp_mouse":[23,26,46,66,86,106,126,146,166,186,206,226,246,266,286,306,326,346,366,386,406,426,446,467,485,506,526,547,566,586,606,626,646,667,686,706,726,746,766,786,806,826,846,866,885,906,926,946,966,986,1006,1025,1045,1066],"xSR":741.5,"ySR":573.95,"xT1":424.9,"yT1":0,"xT2":1058.1,"yT2":0,"toosoon":0,"cond_shown":"equaldotsize","ratio_trial":900,"smaller_num":"18","larger_num":"20","correct_side":1,"subjID":"laurasofiacortesdias18","gender":"1","age":"11","school":"6"},{"start_time":1551901508614,"click_time":1551901510727,"finger_time":1551901509927,"fix_duration":1085.8285326459093,"trial":13,"RT":1313,"MT":800,"sideResp":2,"stimulus":"img/250/randomdotsizeEA/R/8_Ratio_250_L_1_R_4.png","xmouse":[787,787,787,787,787,787,787,787,787,787,787,787,787,787,787,787,787,787,787,787,787,787,787,787,787,787,787,787,787,787,787,787,787,787,787,787,787,787,787,787,787,787,787,787,787,787,787,787,787,787,787,787,787,787,787,787,787,787,787,787,787,787,786,780,751,724,693,661,592,568,551,541,535,534,534,534,534,534,534,534,534,534,534,539,552,575,611,668,705,783,813,842,864,894,905,914,924,936,956,978,987,997,1010,1022,1057,1073],"ymouse":[646,646,646,646,646,646,646,646,646,646,646,646,646,646,646,646,646,646,646,646,646,646,646,646,646,646,646,646,646,646,646,646,646,646,646,646,646,646,646,646,646,646,646,646,646,646,646,646,646,646,646,646,646,645,643,641,640,640,640,640,640,640,635,628,578,531,473,407,254,210,174,147,130,122,122,122,122,122,122,122,122,122,122,127,137,148,163,180,188,200,202,202,199,183,174,164,149,136,121,106,102,99,96,95,94,94],"timestamp_mouse":[14,34,53,72,93,113,133,153,173,194,213,233,254,273,293,314,333,353,373,393,413,433,453,473,492,513,533,553,573,593,613,633,653,673,693,713,733,754,773,793,813,832,853,873,893,913,933,954,973,993,1013,1033,1053,1073,1093,1113,1133,1153,1173,1193,1213,1234,1252,1273,1293,1313,1333,1354,1373,1393,1413,1433,1453,1473,1492,1512,1533,1553,1573,1593,1612,1633,1653,1673,1693,1713,1733,1753,1774,1793,1813,1833,1853,1873,1893,1913,1933,1954,1973,1993,2013,2033,2053,2073,2093,2113],"xSR":741.5,"ySR":573.95,"xT1":424.9,"yT1":0,"xT2":1058.1,"yT2":0,"toosoon":0,"cond_shown":"randomdotsizeEA","ratio_trial":250,"smaller_num":"1","larger_num":"4","correct_side":2,"subjID":"laurasofiacortesdias18","gender":"1","age":"11","school":"6"},{"start_time":1551901513318,"click_time":1551901514427,"finger_time":1551901514066,"fix_duration":250,"trial":14,"RT":748,"MT":361,"sideResp":1,"stimulus":"img/750/equaldotanddens/L/1_Ratio_750_L_20_R_15.png","xmouse":[768,768,768,768,768,768,768,768,768,768,768,768,768,768,768,768,768,768,768,768,768,768,768,768,768,768,768,768,768,768,768,768,768,768,768,768,760,740,661,621,593,577,559,543,516,505,497,493,493,493,496,498,499,499,500,501],"ymouse":[644,644,644,644,644,644,644,644,644,644,644,644,644,644,644,644,644,644,644,644,644,644,644,644,644,644,644,644,644,644,644,644,644,644,644,644,624,594,501,467,440,418,382,327,274,256,242,227,214,175,156,141,129,121,102,96],"timestamp_mouse":[11,30,48,69,89,110,130,149,169,189,209,229,249,270,289,309,329,349,369,389,409,429,449,469,489,510,530,549,569,589,609,628,649,669,689,709,729,748,769,788,809,829,849,869,890,909,929,948,969,989,1009,1029,1049,1069,1089,1109],"xSR":741.5,"ySR":573.95,"xT1":424.9,"yT1":0,"xT2":1058.1,"yT2":0,"toosoon":0,"cond_shown":"equaldotanddens","ratio_trial":750,"smaller_num":"15","larger_num":"20","correct_side":1,"subjID":"laurasofiacortesdias18","gender":"1","age":"11","school":"6"},{"start_time":1551901515643,"click_time":1551901517227,"finger_time":1551901516847,"fix_duration":255.03928833652,"trial":15,"RT":1204,"MT":380,"sideResp":1,"stimulus":"img/750/randomdotsizeEA/L/14_Ratio_750_L_8_R_6.png","xmouse":[772,772,772,772,772,772,772,772,772,772,772,772,772,772,772,772,772,772,772,772,772,772,772,772,772,772,772,772,772,772,772,772,772,772,772,772,772,772,772,772,772,772,772,772,772,772,772,772,772,772,772,772,772,772,772,772,772,772,769,758,747,735,702,689,676,665,652,632,623,620,613,604,591,570,557,542,526,492,485,481],"ymouse":[619,619,619,619,619,619,619,619,619,619,619,619,619,619,619,619,619,619,619,619,619,619,619,619,619,619,619,619,619,619,619,619,619,619,619,619,619,619,619,619,619,619,619,619,619,619,619,619,619,619,619,619,619,619,619,619,619,619,612,591,571,546,493,475,457,437,401,357,322,301,276,252,229,200,185,167,151,119,108,95],"timestamp_mouse":[7,24,44,64,84,104,124,144,164,184,204,224,244,264,284,303,324,344,364,384,405,424,444,464,484,504,524,543,564,584,604,624,644,664,684,703,725,744,764,784,804,824,845,864,885,905,923,944,965,984,1004,1024,1044,1064,1084,1104,1124,1144,1163,1184,1204,1224,1245,1263,1284,1304,1324,1344,1364,1384,1404,1425,1444,1463,1484,1504,1524,1544,1563,1584],"xSR":741.5,"ySR":573.95,"xT1":424.9,"yT1":0,"xT2":1058.1,"yT2":0,"toosoon":0,"cond_shown":"randomdotsizeEA","ratio_trial":750,"smaller_num":"6","larger_num":"8","correct_side":1,"subjID":"laurasofiacortesdias18","gender":"1","age":"11","school":"6"},{"start_time":1551901519249,"click_time":1551901520207,"finger_time":1551901519907,"fix_duration":1401.7113213083283,"trial":16,"RT":658,"MT":300,"sideResp":2,"stimulus":"img/500/equaldotsize/R/9_Ratio_500_L_2_R_4.png","xmouse":[828,821,820,819,819,819,819,819,819,819,819,819,819,819,819,819,819,819,819,819,819,819,819,819,819,819,819,819,819,819,820,831,880,919,955,991,1033,1057,1078,1097,1115,1143,1149,1150,1150,1144,1115,1098],"ymouse":[643,636,634,632,632,632,632,632,632,632,632,632,632,632,632,632,632,632,632,632,632,632,632,632,632,632,632,632,632,629,624,609,545,495,452,408,360,335,311,288,264,223,202,184,168,149,106,91],"timestamp_mouse":[18,39,58,78,98,118,138,158,179,199,219,238,258,278,298,318,338,358,378,398,418,438,458,478,498,519,538,557,577,597,617,639,657,677,698,717,738,758,778,797,818,839,857,878,898,918,938,957],"xSR":741.5,"ySR":573.95,"xT1":424.9,"yT1":0,"xT2":1058.1,"yT2":0,"toosoon":0,"cond_shown":"equaldotsize","ratio_trial":500,"smaller_num":"2","larger_num":"4","correct_side":2,"subjID":"laurasofiacortesdias18","gender":"1","age":"11","school":"6"},{"start_time":1551901521984,"click_time":1551901524867,"finger_time":1551901524307,"fix_duration":836.0982458508709,"trial":17,"RT":2323,"MT":560,"sideResp":1,"stimulus":"img/750/randomdotsizeEA/R/11_Ratio_750_L_12_R_16.png","xmouse":[760,760,760,760,760,760,760,760,760,760,760,760,760,760,760,760,760,760,760,760,760,760,760,760,760,760,760,760,760,760,760,760,760,760,760,760,760,760,760,760,760,760,760,760,760,760,760,760,760,760,760,760,760,760,760,760,760,760,760,760,760,760,760,760,760,760,760,760,760,760,760,760,760,760,760,760,760,760,760,760,760,760,760,760,760,760,760,760,760,760,760,760,760,760,760,760,760,760,760,760,760,760,760,760,760,760,760,760,760,760,760,760,760,760,760,758,736,711,688,660,629,625,623,620,616,610,598,596,596,596,588,577,564,550,534,501,485,476,470,468,468,468,468,468,468],"ymouse":[620,620,620,620,620,620,620,620,620,620,620,620,620,620,620,620,620,620,620,620,620,620,620,620,620,620,620,620,620,620,620,620,620,620,620,620,620,620,620,620,620,620,620,620,620,620,620,620,620,620,620,620,620,620,620,620,620,620,620,620,620,620,620,620,620,620,620,620,620,620,620,620,620,620,620,620,620,620,620,620,620,620,620,620,620,620,620,620,620,620,620,620,620,620,620,620,620,620,620,620,620,620,620,620,620,620,620,620,620,620,620,620,620,620,601,589,529,474,425,382,341,330,312,285,259,236,213,211,210,210,210,210,210,205,197,168,152,137,126,118,110,108,106,103,98],"timestamp_mouse":[7,30,43,63,83,103,123,143,163,183,204,223,243,263,283,303,323,343,363,383,403,423,443,463,483,503,523,542,564,583,603,623,643,664,683,703,724,743,763,783,803,823,842,863,883,903,923,943,962,983,1003,1023,1043,1063,1084,1103,1123,1143,1163,1183,1203,1223,1243,1263,1283,1303,1322,1343,1363,1383,1403,1422,1443,1462,1483,1503,1523,1543,1563,1583,1603,1623,1644,1663,1682,1703,1723,1743,1763,1783,1804,1823,1843,1863,1883,1903,1923,1943,1964,1983,2003,2023,2043,2063,2083,2103,2123,2143,2163,2183,2203,2223,2243,2263,2283,2303,2323,2343,2363,2383,2403,2423,2443,2464,2483,2502,2523,2542,2563,2582,2603,2623,2642,2663,2683,2703,2723,2743,2763,2784,2803,2823,2843,2863,2882],"xSR":741.5,"ySR":573.95,"xT1":424.9,"yT1":0,"xT2":1058.1,"yT2":0,"toosoon":0,"cond_shown":"randomdotsizeEA","ratio_trial":750,"smaller_num":"12","larger_num":"16","correct_side":2,"subjID":"laurasofiacortesdias18","gender":"1","age":"11","school":"6"},{"start_time":1551901526519,"click_time":1551901527568,"finger_time":1551901527107,"fix_duration":770.7494013531523,"trial":18,"RT":588,"MT":461,"sideResp":2,"stimulus":"img/750/equaldotanddens/R/15_Ratio_750_L_9_R_12.png","xmouse":[823,823,823,823,823,823,823,823,823,823,823,823,823,823,823,823,823,823,823,823,823,823,823,823,823,823,823,823,829,843,861,894,933,1007,1034,1053,1063,1072,1098,1113,1127,1134,1135,1136,1136,1136,1136,1136,1136,1136,1136,1136,1135],"ymouse":[607,607,607,607,607,607,607,607,607,607,607,607,607,607,607,607,607,607,607,607,607,607,607,607,607,607,607,607,597,582,559,517,471,355,308,267,233,198,146,130,118,112,110,108,107,106,105,104,104,103,103,102,99],"timestamp_mouse":[12,38,49,68,88,109,128,147,168,188,208,228,248,269,288,308,328,348,367,388,409,428,448,468,488,507,529,547,568,588,607,628,647,668,688,708,728,748,768,787,807,828,848,868,887,908,928,947,969,989,1008,1028,1049],"xSR":741.5,"ySR":573.95,"xT1":424.9,"yT1":0,"xT2":1058.1,"yT2":0,"toosoon":0,"cond_shown":"equaldotanddens","ratio_trial":750,"smaller_num":"9","larger_num":"12","correct_side":2,"subjID":"laurasofiacortesdias18","gender":"1","age":"11","school":"6"},{"start_time":1551901528886,"click_time":1551901529947,"finger_time":1551901529587,"fix_duration":518.1426463955438,"trial":19,"RT":701,"MT":360,"sideResp":2,"stimulus":"img/250/equaldotsize/R/10_Ratio_250_L_4_R_16.png","xmouse":[803,803,803,803,803,803,803,803,803,803,803,803,803,803,803,803,803,803,803,803,803,803,803,803,803,803,803,803,803,803,803,803,808,818,836,946,1008,1062,1094,1118,1147,1153,1160,1165,1165,1169,1170,1170,1167,1165,1163,1160,1159,1157],"ymouse":[640,640,640,640,640,640,640,640,640,640,640,640,640,640,640,640,640,640,640,640,640,640,640,640,640,640,640,640,640,640,640,640,636,626,612,522,463,399,343,292,220,194,168,143,122,85,63,52,44,39,35,33,33,32],"timestamp_mouse":[6,27,41,61,81,101,121,141,161,181,200,222,241,261,281,302,322,341,362,381,401,421,441,461,481,502,521,541,561,581,600,620,640,660,682,701,721,741,760,781,801,821,840,861,881,901,921,941,960,981,1001,1021,1041,1061],"xSR":741.5,"ySR":573.95,"xT1":424.9,"yT1":0,"xT2":1058.1,"yT2":0,"toosoon":0,"cond_shown":"equaldotsize","ratio_trial":250,"smaller_num":"4","larger_num":"16","correct_side":2,"subjID":"laurasofiacortesdias18","gender":"1","age":"11","school":"6"},{"start_time":1551901531058,"click_time":1551901532267,"finger_time":1551901531767,"fix_duration":250,"trial":20,"RT":709,"MT":500,"sideResp":2,"stimulus":"img/500/equaldotsize/R/6_Ratio_500_L_9_R_18.png","xmouse":[820,820,820,820,820,820,820,820,820,820,820,820,820,820,820,820,820,820,820,820,820,820,820,820,820,820,820,820,820,820,820,820,820,824,831,853,882,958,974,985,998,1012,1012,1012,1013,1017,1031,1036,1040,1046,1050,1066,1070,1072,1074,1075,1078,1079,1080,1083,1085],"ymouse":[585,585,585,585,585,588,590,595,596,596,596,596,596,596,596,596,596,596,596,596,596,596,596,596,596,598,599,601,601,601,601,601,601,594,582,542,498,416,405,396,383,315,265,216,183,161,113,88,60,26,10,0,0,0,0,0,0,0,0,0,4],"timestamp_mouse":[12,29,49,69,89,108,129,149,169,189,209,229,248,269,289,310,329,349,370,388,409,429,449,469,489,509,528,548,569,588,609,629,649,668,688,709,729,748,769,789,809,829,848,869,889,908,929,949,969,989,1009,1029,1049,1070,1089,1110,1130,1149,1169,1189,1208],"xSR":741.5,"ySR":573.95,"xT1":424.9,"yT1":0,"xT2":1058.1,"yT2":0,"toosoon":0,"cond_shown":"equaldotsize","ratio_trial":500,"smaller_num":"9","larger_num":"18","correct_side":2,"subjID":"laurasofiacortesdias18","gender":"1","age":"11","school":"6"},{"start_time":1551901533865,"click_time":1551901535107,"finger_time":1551901534707,"fix_duration":557.0385129190935,"trial":21,"RT":842,"MT":400,"sideResp":2,"stimulus":"img/750/randomdotsizeEA/R/3_Ratio_750_L_15_R_20.png","xmouse":[777,777,777,777,777,777,777,777,777,777,777,777,777,777,777,777,777,777,777,777,777,777,777,777,777,777,777,777,777,777,777,777,777,777,777,777,777,777,777,777,793,831,867,923,985,1041,1113,1115,1115,1115,1115,1115,1115,1115,1115,1115,1114,1112,1108,1102,1095,1092,1092],"ymouse":[627,627,627,627,627,627,627,627,627,627,627,627,627,627,627,627,627,627,627,627,627,627,627,627,627,627,627,627,627,627,627,627,627,627,627,627,627,627,627,627,623,600,574,527,472,407,276,255,240,234,233,232,232,232,232,224,194,175,156,139,124,100,90],"timestamp_mouse":[7,23,42,62,82,102,122,142,162,183,202,222,242,262,282,302,322,342,362,382,402,422,442,462,483,502,522,541,563,581,603,622,642,662,683,702,722,742,762,782,802,823,842,863,882,902,923,942,962,981,1002,1023,1042,1062,1082,1101,1122,1142,1162,1181,1202,1223,1242],"xSR":741.5,"ySR":573.95,"xT1":424.9,"yT1":0,"xT2":1058.1,"yT2":0,"toosoon":0,"cond_shown":"randomdotsizeEA","ratio_trial":750,"smaller_num":"15","larger_num":"20","correct_side":2,"subjID":"laurasofiacortesdias18","gender":"1","age":"11","school":"6"},{"start_time":1551901539021,"click_time":1551901540187,"finger_time":1551901539707,"fix_duration":1453.4069422114003,"trial":22,"RT":686,"MT":480,"sideResp":1,"stimulus":"img/750/equaldotanddens/L/14_Ratio_750_L_8_R_6.png","xmouse":[817,817,817,817,817,817,817,817,817,817,817,817,817,817,817,817,817,817,817,817,817,817,817,817,817,817,817,817,817,817,817,814,811,797,747,724,709,696,692,692,692,692,690,675,668,660,647,635,620,572,556,545,539,535,534,532,529,525,519],"ymouse":[628,628,628,628,628,628,628,628,628,628,628,628,628,628,628,628,628,628,628,628,628,628,628,628,628,628,628,628,628,628,628,621,613,587,483,429,380,333,296,282,270,258,248,223,210,196,181,167,150,109,99,90,85,77,73,70,67,63,61],"timestamp_mouse":[8,27,45,66,86,107,127,146,166,185,206,226,246,266,286,306,326,346,365,386,406,426,446,466,486,506,525,546,566,587,606,625,645,665,686,705,726,746,766,786,806,826,846,866,885,905,926,946,966,987,1006,1025,1046,1066,1085,1107,1126,1146,1166],"xSR":741.5,"ySR":573.95,"xT1":424.9,"yT1":0,"xT2":1058.1,"yT2":0,"toosoon":0,"cond_shown":"equaldotanddens","ratio_trial":750,"smaller_num":"6","larger_num":"8","correct_side":1,"subjID":"laurasofiacortesdias18","gender":"1","age":"11","school":"6"},{"start_time":1551901542228,"click_time":1551901543187,"finger_time":1551901542746,"fix_duration":1099.487783750625,"trial":23,"RT":518,"MT":441,"sideResp":1,"stimulus":"img/500/equaldotsize/L/11_Ratio_500_L_12_R_6.png","xmouse":[778,778,778,778,778,778,778,778,778,778,778,778,778,778,778,778,778,778,778,778,778,778,778,775,765,757,745,702,691,682,673,667,661,661,661,663,663,656,647,637,622,608,580,564,546,535,527,521],"ymouse":[607,607,607,607,607,607,607,607,607,607,607,607,607,607,607,607,607,607,607,607,607,607,607,602,586,567,540,464,444,427,409,390,359,341,324,309,297,266,253,238,223,209,173,152,127,111,99,82],"timestamp_mouse":[23,39,59,79,99,119,138,159,179,199,218,239,259,279,299,318,340,359,379,399,419,439,459,479,498,518,540,560,579,599,619,639,659,678,699,719,739,759,779,799,819,839,859,879,899,919,939,959],"xSR":741.5,"ySR":573.95,"xT1":424.9,"yT1":0,"xT2":1058.1,"yT2":0,"toosoon":0,"cond_shown":"equaldotsize","ratio_trial":500,"smaller_num":"6","larger_num":"12","correct_side":1,"subjID":"laurasofiacortesdias18","gender":"1","age":"11","school":"6"},{"start_time":1551901546119,"click_time":1551901547566,"finger_time":1551901546706,"fix_duration":250,"trial":24,"RT":587,"MT":860,"sideResp":1,"stimulus":"img/750/equaldotsize/L/8_Ratio_750_L_4_R_3.png","xmouse":[781,781,781,781,781,781,781,781,781,781,781,781,781,781,781,781,781,781,781,781,781,781,781,781,781,781,781,780,769,759,743,730,722,720,720,720,720,717,697,680,658,641,629,620,615,603,595,587,576,566,551,534,510,359,310,290,288,288,295,304,314,319,324,330,347,355,362,371,381,396,405,417,426],"ymouse":[603,603,603,604,604,604,604,604,604,604,604,604,604,604,604,604,604,604,604,604,604,604,604,604,604,604,604,604,581,556,525,505,494,483,478,470,462,450,415,396,372,353,331,268,239,215,201,190,176,165,153,140,124,43,21,10,8,7,4,3,3,3,4,6,21,28,36,42,47,53,57,62,65],"timestamp_mouse":[8,27,48,68,87,107,127,148,168,187,207,227,247,268,288,309,327,347,367,387,407,428,447,467,487,507,527,547,568,587,607,627,647,668,688,707,727,748,768,787,808,827,847,867,887,907,928,947,967,987,1007,1027,1047,1067,1087,1107,1128,1147,1167,1187,1207,1227,1247,1267,1287,1308,1328,1348,1368,1387,1408,1427,1447],"xSR":741.5,"ySR":573.95,"xT1":424.9,"yT1":0,"xT2":1058.1,"yT2":0,"toosoon":0,"cond_shown":"equaldotsize","ratio_trial":750,"smaller_num":"3","larger_num":"4","correct_side":1,"subjID":"laurasofiacortesdias18","gender":"1","age":"11","school":"6"},{"start_time":1551901548590,"click_time":1551901549366,"finger_time":1551901549026,"fix_duration":283.8548089020253,"trial":25,"RT":436,"MT":340,"sideResp":1,"stimulus":"img/500/randomdotsizeEA/L/7_Ratio_500_L_10_R_5.png","xmouse":[785,785,785,785,785,785,785,785,785,785,785,785,785,785,785,785,785,785,780,775,772,771,771,771,771,771,767,757,742,682,651,623,600,579,548,539,532,524,514],"ymouse":[627,627,627,627,627,627,627,627,627,627,627,627,627,627,627,627,627,618,606,593,580,572,561,550,527,512,498,481,462,398,361,327,293,259,188,165,142,118,99],"timestamp_mouse":[26,37,57,76,97,116,136,156,176,197,216,236,256,276,297,316,337,356,378,397,418,436,457,476,497,516,538,557,576,597,616,636,658,677,697,716,736,757,776],"xSR":741.5,"ySR":573.95,"xT1":424.9,"yT1":0,"xT2":1058.1,"yT2":0,"toosoon":0,"cond_shown":"randomdotsizeEA","ratio_trial":500,"smaller_num":"5","larger_num":"10","correct_side":1,"subjID":"laurasofiacortesdias18","gender":"1","age":"11","school":"6"},{"start_time":1551901550903,"click_time":1551901551966,"finger_time":1551901551487,"fix_duration":715.6855006041984,"trial":26,"RT":584,"MT":479,"sideResp":1,"stimulus":"img/900/equaldotanddens/R/7_Ratio_900_L_9_R_10.png","xmouse":[826,826,826,826,826,826,826,826,826,826,826,826,826,826,826,826,826,826,826,826,826,826,826,826,826,826,818,799,773,683,637,611,597,590,584,582,578,572,561,535,525,517,512,509,509,503,500,499,498,493,489,485,480,475],"ymouse":[634,634,634,634,634,634,634,634,634,634,634,634,634,634,634,634,634,634,634,634,634,634,634,634,634,634,630,614,592,522,490,472,462,456,448,442,432,421,404,366,346,328,309,281,262,223,204,186,171,142,130,117,105,95],"timestamp_mouse":[7,27,43,63,83,103,123,143,164,184,203,224,244,263,283,303,323,343,364,383,403,424,443,463,483,503,523,544,564,584,603,624,644,663,684,703,723,745,764,784,803,825,843,865,883,903,923,944,964,984,1003,1023,1044,1063],"xSR":741.5,"ySR":573.95,"xT1":424.9,"yT1":0,"xT2":1058.1,"yT2":0,"toosoon":0,"cond_shown":"equaldotanddens","ratio_trial":900,"smaller_num":"9","larger_num":"10","correct_side":2,"subjID":"laurasofiacortesdias18","gender":"1","age":"11","school":"6"},{"start_time":1551901555483,"click_time":1551901557007,"finger_time":1551901556467,"fix_duration":576.7856026437786,"trial":27,"RT":984,"MT":540,"sideResp":1,"stimulus":"img/750/randomdotsizeEA/L/13_Ratio_750_L_8_R_6.png","xmouse":[797,797,797,797,797,797,797,797,797,797,797,797,797,797,797,797,797,797,797,797,797,797,797,797,797,797,797,797,797,797,797,797,797,797,797,797,797,797,797,797,797,797,797,797,797,797,797,797,776,707,643,631,634,635,626,562,551,545,545,545,541,536,535,535,535,547,557,560,557,549,545,531,519,515,515,514,503],"ymouse":[613,613,613,613,613,613,613,613,613,613,613,613,613,613,613,613,613,613,613,613,613,613,613,613,613,613,613,613,613,613,613,613,613,613,613,613,613,613,613,613,613,613,613,613,613,613,613,613,598,571,547,531,522,507,485,433,425,416,392,335,249,238,234,230,214,137,92,52,23,7,4,0,0,0,0,0,2],"timestamp_mouse":[7,30,43,63,84,104,123,143,163,183,205,223,243,263,283,303,323,343,363,383,403,424,444,463,485,504,523,544,565,584,603,623,644,663,683,703,723,743,763,784,804,824,843,863,883,903,923,943,965,984,1004,1023,1044,1063,1083,1103,1123,1143,1164,1184,1204,1223,1244,1264,1283,1303,1323,1343,1365,1384,1404,1423,1444,1464,1484,1504,1524],"xSR":741.5,"ySR":573.95,"xT1":424.9,"yT1":0,"xT2":1058.1,"yT2":0,"toosoon":0,"cond_shown":"randomdotsizeEA","ratio_trial":750,"smaller_num":"6","larger_num":"8","correct_side":1,"subjID":"laurasofiacortesdias18","gender":"1","age":"11","school":"6"},{"start_time":1551901559058,"click_time":1551901560306,"finger_time":1551901559907,"fix_duration":370.7965566235492,"trial":28,"RT":849,"MT":399,"sideResp":2,"stimulus":"img/900/randomdotsizeEA/R/12_Ratio_900_L_18_R_20.png","xmouse":[792,792,792,792,792,792,792,792,792,792,792,792,792,792,792,792,792,792,792,792,792,792,792,792,792,792,792,792,792,792,792,792,792,792,792,792,792,792,792,794,801,821,871,893,921,952,984,1017,1023,1029,1032,1035,1045,1051,1054,1057,1070,1078,1089,1100,1111,1120,1125],"ymouse":[649,649,649,649,649,649,649,649,649,649,649,649,649,649,649,649,649,649,649,649,649,649,649,649,649,649,649,649,649,649,649,649,649,649,649,649,649,649,649,650,645,628,582,559,520,471,415,340,324,310,302,294,265,248,235,225,198,183,168,152,135,116,94],"timestamp_mouse":[8,28,49,68,88,109,129,148,169,188,208,229,248,268,288,308,329,348,369,388,409,428,448,468,488,508,528,549,569,588,609,628,648,668,688,708,729,748,768,788,809,829,849,869,888,908,928,949,968,988,1009,1028,1049,1069,1089,1110,1129,1148,1168,1190,1209,1229,1248],"xSR":741.5,"ySR":573.95,"xT1":424.9,"yT1":0,"xT2":1058.1,"yT2":0,"toosoon":0,"cond_shown":"randomdotsizeEA","ratio_trial":900,"smaller_num":"18","larger_num":"20","correct_side":2,"subjID":"laurasofiacortesdias18","gender":"1","age":"11","school":"6"},{"start_time":1551901565018,"click_time":1551901566106,"finger_time":1551901565826,"fix_duration":250,"trial":29,"RT":808,"MT":280,"sideResp":2,"stimulus":"img/750/randomdotsizeEA/L/10_Ratio_750_L_4_R_3.png","xmouse":[785,786,786,788,788,788,788,788,788,788,788,788,788,788,792,795,799,801,801,801,801,801,801,801,801,801,801,801,801,801,801,801,801,801,801,802,802,803,807,821,833,851,871,921,950,979,999,1013,1062,1080,1094,1107,1124,1148,1156],"ymouse":[608,609,609,609,609,609,609,609,609,609,609,609,609,609,609,609,609,609,609,609,609,609,609,609,609,609,609,609,609,609,609,609,609,609,609,607,604,600,595,580,568,546,519,432,374,326,287,266,219,200,176,153,133,107,93],"timestamp_mouse":[8,28,48,69,89,109,130,148,169,188,208,228,248,269,288,308,329,349,369,388,409,428,448,468,488,508,528,548,568,588,608,629,648,668,688,709,729,748,769,789,808,829,849,868,888,908,928,948,968,988,1008,1028,1048,1068,1088],"xSR":741.5,"ySR":573.95,"xT1":424.9,"yT1":0,"xT2":1058.1,"yT2":0,"toosoon":0,"cond_shown":"randomdotsizeEA","ratio_trial":750,"smaller_num":"3","larger_num":"4","correct_side":1,"subjID":"laurasofiacortesdias18","gender":"1","age":"11","school":"6"},{"start_time":1551901569592,"click_time":1551901570506,"finger_time":1551901570146,"fix_duration":765.864657118714,"trial":30,"RT":554,"MT":360,"sideResp":1,"stimulus":"img/500/randomdotsizeEA/L/5_Ratio_500_L_4_R_2.png","xmouse":[813,813,813,813,813,813,813,813,813,813,813,813,813,813,813,813,813,813,813,813,813,813,813,813,813,793,773,752,709,685,658,648,640,632,617,610,601,591,577,541,531,522,517,512,507,496],"ymouse":[648,648,648,648,648,648,648,648,648,648,648,648,648,648,648,648,648,648,648,648,648,648,648,646,642,611,582,540,464,421,368,348,333,318,293,276,255,234,213,172,156,143,132,121,111,97],"timestamp_mouse":[22,35,55,75,95,116,134,154,174,194,215,235,254,275,294,314,335,355,374,394,414,434,454,474,494,514,535,554,574,594,614,635,655,675,694,714,735,755,774,795,814,834,855,876,895,914],"xSR":741.5,"ySR":573.95,"xT1":424.9,"yT1":0,"xT2":1058.1,"yT2":0,"toosoon":0,"cond_shown":"randomdotsizeEA","ratio_trial":500,"smaller_num":"2","larger_num":"4","correct_side":1,"subjID":"laurasofiacortesdias18","gender":"1","age":"11","school":"6"},{"start_time":1551901580524,"click_time":1551901581408,"finger_time":1551901581168,"fix_duration":1177.2099811055632,"trial":31,"RT":644,"MT":240,"sideResp":2,"stimulus":"img/750/equaldotanddens/R/5_Ratio_750_L_15_R_20.png","xmouse":[801,796,796,790,790,790,790,790,790,790,790,790,790,790,790,790,790,790,790,790,790,790,790,790,790,790,790,790,790,799,815,841,874,926,940,948,957,969,990,995,1001,1009,1020,1051,1082],"ymouse":[621,618,618,614,614,614,614,614,614,614,614,614,614,614,614,614,614,614,614,614,614,614,614,614,614,614,614,614,614,612,609,606,593,513,404,349,326,308,268,250,230,211,189,131,85],"timestamp_mouse":[2,27,44,62,82,102,122,143,163,182,202,222,242,262,282,302,323,342,362,382,403,422,442,462,482,503,523,542,562,582,603,622,644,662,682,702,723,743,762,782,802,823,842,862,883],"xSR":741.5,"ySR":573.95,"xT1":424.9,"yT1":0,"xT2":1058.1,"yT2":0,"toosoon":0,"cond_shown":"equaldotanddens","ratio_trial":750,"smaller_num":"15","larger_num":"20","correct_side":2,"subjID":"laurasofiacortesdias18","gender":"1","age":"11","school":"6"},{"start_time":1551901584708,"click_time":1551901585807,"finger_time":1551901585346,"fix_duration":399.31620496584554,"trial":32,"RT":638,"MT":461,"sideResp":1,"stimulus":"img/250/equaldotsize/L/14_Ratio_250_L_12_R_3.png","xmouse":[762,762,762,762,762,762,762,762,762,762,762,762,763,763,763,763,763,763,763,763,763,763,763,763,763,763,763,763,763,763,756,744,733,719,698,693,693,691,688,676,662,648,637,635,628,608,600,599,599,599,598,596,591,583,555,509],"ymouse":[575,575,575,575,575,575,575,581,585,597,600,602,603,603,603,603,603,603,603,603,603,603,603,603,603,603,603,603,603,603,597,589,582,574,559,553,546,534,517,468,437,407,375,342,231,177,163,162,162,162,160,156,145,130,97,75],"timestamp_mouse":[1,27,38,58,79,98,119,139,159,178,199,219,239,258,278,298,318,338,358,378,399,420,439,459,478,498,518,538,558,579,599,620,638,658,678,698,718,739,759,778,799,818,838,859,878,898,918,938,959,979,998,1018,1038,1059,1078,1098],"xSR":741.5,"ySR":573.95,"xT1":424.9,"yT1":0,"xT2":1058.1,"yT2":0,"toosoon":0,"cond_shown":"equaldotsize","ratio_trial":250,"smaller_num":"3","larger_num":"12","correct_side":1,"subjID":"laurasofiacortesdias18","gender":"1","age":"11","school":"6"},{"start_time":1551901587118,"click_time":1551901588687,"finger_time":1551901588366,"fix_duration":250,"trial":33,"RT":1248,"MT":321,"sideResp":2,"stimulus":"img/750/equaldotsize/R/12_Ratio_750_L_3_R_4.png","xmouse":[818,818,818,818,818,818,818,818,818,818,818,818,818,818,818,818,818,818,818,818,818,818,818,818,818,818,818,818,818,818,818,818,818,818,818,818,818,818,818,815,811,806,805,804,804,804,804,804,804,803,802,798,793,776,768,761,760,759,758,758,760,763,770,778,809,824,843,869,931,965,997,1020,1038,1066,1083,1091,1102,1111,1127],"ymouse":[636,636,636,636,636,636,636,636,636,636,636,636,636,636,636,636,636,636,636,636,636,636,636,636,636,636,636,636,636,636,636,636,636,636,636,636,636,636,635,631,630,627,627,627,627,627,627,627,627,627,627,624,621,612,607,603,602,602,599,597,591,582,569,552,503,481,453,417,331,293,259,236,216,185,164,152,140,125,96],"timestamp_mouse":[8,28,49,70,88,109,128,149,168,188,208,228,248,268,288,308,329,348,369,390,409,429,448,468,488,509,528,549,568,588,609,629,648,670,690,708,728,748,768,788,808,828,849,868,888,908,929,949,968,989,1009,1029,1049,1068,1089,1108,1129,1149,1168,1188,1209,1228,1248,1268,1289,1308,1330,1348,1368,1388,1409,1429,1448,1468,1488,1508,1530,1549,1569],"xSR":741.5,"ySR":573.95,"xT1":424.9,"yT1":0,"xT2":1058.1,"yT2":0,"toosoon":0,"cond_shown":"equaldotsize","ratio_trial":750,"smaller_num":"3","larger_num":"4","correct_side":2,"subjID":"laurasofiacortesdias18","gender":"1","age":"11","school":"6"},{"start_time":1551901589994,"click_time":1551901591048,"finger_time":1551901590726,"fix_duration":385.57024210058586,"trial":34,"RT":732,"MT":322,"sideResp":1,"stimulus":"img/900/randomdotsizeEA/R/14_Ratio_900_L_18_R_20.png","xmouse":[787,787,787,787,787,787,787,787,787,787,787,787,787,787,787,787,787,787,787,787,787,787,787,787,787,787,787,787,787,787,787,787,787,782,765,750,729,701,654,555,501,483,464,453,439,435,428,423,420,420,426,429,432],"ymouse":[633,633,633,633,637,638,640,641,643,644,644,644,644,644,644,644,644,644,644,644,644,644,644,644,644,644,644,644,644,644,644,644,644,642,626,611,587,555,510,437,403,385,356,318,255,232,209,189,171,140,118,106,96],"timestamp_mouse":[12,35,53,73,92,112,133,152,172,193,212,232,252,272,292,312,332,354,373,392,412,433,452,472,492,513,533,552,573,594,612,632,652,672,693,712,732,753,772,792,812,832,853,872,893,913,932,952,973,992,1013,1032,1054],"xSR":741.5,"ySR":573.95,"xT1":424.9,"yT1":0,"xT2":1058.1,"yT2":0,"toosoon":0,"cond_shown":"randomdotsizeEA","ratio_trial":900,"smaller_num":"18","larger_num":"20","correct_side":2,"subjID":"laurasofiacortesdias18","gender":"1","age":"11","school":"6"},{"start_time":1551901593136,"click_time":1551901594347,"finger_time":1551901593887,"fix_duration":1048.3000670370593,"trial":35,"RT":751,"MT":460,"sideResp":1,"stimulus":"img/500/equaldotanddens/L/5_Ratio_500_L_4_R_2.png","xmouse":[817,817,817,817,817,817,817,817,817,817,817,817,817,817,817,817,817,817,817,817,817,817,817,817,817,817,817,817,817,817,817,817,817,817,816,807,794,757,734,710,691,676,662,619,597,589,588,588,589,590,590,590,590,580,567,547,516,458,442,439,436],"ymouse":[634,634,634,634,634,634,634,634,634,634,634,634,634,634,634,634,634,634,634,634,634,634,634,634,634,634,634,634,634,634,634,634,634,634,634,623,605,556,529,496,466,440,411,337,283,255,232,206,199,196,195,195,193,182,174,162,144,113,103,100,98],"timestamp_mouse":[10,30,50,71,90,110,130,150,170,190,210,231,250,270,291,310,330,350,370,390,410,430,450,470,491,510,532,551,570,590,611,630,651,670,690,710,730,750,770,790,810,832,850,870,890,911,930,950,970,991,1012,1030,1050,1070,1090,1111,1130,1151,1170,1190,1211],"xSR":741.5,"ySR":573.95,"xT1":424.9,"yT1":0,"xT2":1058.1,"yT2":0,"toosoon":0,"cond_shown":"equaldotanddens","ratio_trial":500,"smaller_num":"2","larger_num":"4","correct_side":1,"subjID":"laurasofiacortesdias18","gender":"1","age":"11","school":"6"},{"start_time":1551901596535,"click_time":1551901597387,"finger_time":1551901597027,"fix_duration":1447.763803547357,"trial":36,"RT":492,"MT":360,"sideResp":1,"stimulus":"img/250/randomdotsizeEA/L/2_Ratio_250_L_16_R_4.png","xmouse":[792,792,792,792,792,792,792,792,792,792,792,792,792,792,792,792,792,792,792,791,787,782,755,745,740,733,727,717,706,692,671,643,595,576,567,562,560,555,553,551,547,540,523],"ymouse":[644,644,644,644,644,644,644,644,644,644,644,644,644,644,644,644,644,644,644,644,643,641,619,603,582,562,536,465,417,368,312,259,190,159,142,129,122,109,105,102,99,94,82],"timestamp_mouse":[12,31,52,71,91,112,132,151,171,192,211,232,251,271,291,311,331,351,371,392,411,431,451,472,492,512,532,551,571,593,611,633,651,671,691,711,731,751,771,792,812,833,851],"xSR":741.5,"ySR":573.95,"xT1":424.9,"yT1":0,"xT2":1058.1,"yT2":0,"toosoon":0,"cond_shown":"randomdotsizeEA","ratio_trial":250,"smaller_num":"4","larger_num":"16","correct_side":1,"subjID":"laurasofiacortesdias18","gender":"1","age":"11","school":"6"},{"start_time":1551901600099,"click_time":1551901600826,"finger_time":1551901600666,"fix_duration":250,"trial":37,"RT":567,"MT":160,"sideResp":2,"stimulus":"img/500/equaldotsize/R/2_Ratio_500_L_3_R_6.png","xmouse":[796,796,796,796,796,796,796,796,796,796,796,796,796,796,796,796,796,796,796,796,796,796,796,796,796,798,808,822,842,902,925,955,992,1023,1051,1058,1060],"ymouse":[660,660,660,660,660,660,660,660,660,660,660,660,660,660,660,660,660,660,660,660,660,660,660,660,660,656,639,614,575,454,403,338,259,187,92,47,27],"timestamp_mouse":[7,29,47,67,88,107,127,147,167,187,208,229,247,267,287,307,327,348,367,387,407,428,448,468,487,507,527,549,567,587,607,627,648,668,687,708,727],"xSR":741.5,"ySR":573.95,"xT1":424.9,"yT1":0,"xT2":1058.1,"yT2":0,"toosoon":0,"cond_shown":"equaldotsize","ratio_trial":500,"smaller_num":"3","larger_num":"6","correct_side":2,"subjID":"laurasofiacortesdias18","gender":"1","age":"11","school":"6"},{"start_time":1551901602167,"click_time":1551901602826,"finger_time":1551901602607,"fix_duration":280.44506275440773,"trial":38,"RT":440,"MT":219,"sideResp":1,"stimulus":"img/750/equaldotsize/L/10_Ratio_750_L_4_R_3.png","xmouse":[798,798,798,798,798,798,798,798,798,798,798,798,798,798,798,798,798,798,798,799,801,801,801,800,798,795,772,741,702,658,549,521,499],"ymouse":[604,604,604,604,604,604,604,604,604,604,604,604,604,604,604,604,604,604,601,594,580,564,562,560,558,556,533,497,433,353,161,103,64],"timestamp_mouse":[29,40,59,79,99,119,139,161,180,201,220,239,259,279,299,320,340,359,380,399,419,440,459,480,499,519,539,559,579,600,619,639,659],"xSR":741.5,"ySR":573.95,"xT1":424.9,"yT1":0,"xT2":1058.1,"yT2":0,"toosoon":0,"cond_shown":"equaldotsize","ratio_trial":750,"smaller_num":"3","larger_num":"4","correct_side":1,"subjID":"laurasofiacortesdias18","gender":"1","age":"11","school":"6"},{"start_time":1551901604752,"click_time":1551901605806,"finger_time":1551901605407,"fix_duration":864.1876508618267,"trial":39,"RT":655,"MT":399,"sideResp":2,"stimulus":"img/750/equaldotanddens/R/12_Ratio_750_L_3_R_4.png","xmouse":[777,777,777,777,777,777,777,777,777,777,777,777,777,777,777,777,777,777,777,777,777,777,777,777,777,777,777,777,777,780,786,800,862,918,991,1067,1190,1218,1226,1228,1229,1232,1232,1232,1232,1232,1230,1228,1224,1212,1196,1164,1156],"ymouse":[622,622,622,622,622,622,622,622,622,622,622,622,622,622,622,622,622,622,622,622,622,622,622,622,622,622,622,622,622,621,615,604,559,512,442,358,218,177,155,140,133,127,124,119,113,108,105,101,97,90,80,65,62],"timestamp_mouse":[16,35,55,74,94,114,134,155,174,194,214,235,254,274,294,315,335,354,374,394,414,434,454,474,494,514,535,554,574,594,616,634,655,674,694,714,734,754,776,795,814,834,854,874,894,914,935,955,974,994,1014,1034,1054],"xSR":741.5,"ySR":573.95,"xT1":424.9,"yT1":0,"xT2":1058.1,"yT2":0,"toosoon":0,"cond_shown":"equaldotanddens","ratio_trial":750,"smaller_num":"3","larger_num":"4","correct_side":2,"subjID":"laurasofiacortesdias18","gender":"1","age":"11","school":"6"},{"start_time":1551901607801,"click_time":1551901608886,"finger_time":1551901608646,"fix_duration":1073.077448303001,"trial":40,"RT":845,"MT":240,"sideResp":2,"stimulus":"img/900/equaldotanddens/R/11_Ratio_900_L_18_R_20.png","xmouse":[802,802,802,802,802,802,802,802,802,802,802,802,802,802,802,802,802,802,802,802,802,802,802,802,802,802,802,802,802,801,800,800,800,800,800,800,800,800,800,802,818,835,860,892,962,1000,1032,1053,1073,1076,1082,1083,1083,1083,1084],"ymouse":[639,637,637,637,637,637,637,637,637,637,637,637,637,637,637,637,637,637,637,637,637,637,637,637,637,637,637,637,637,634,632,632,632,632,632,632,632,632,631,627,610,591,562,520,417,350,285,229,158,146,114,108,106,102,95],"timestamp_mouse":[7,31,45,65,86,105,127,146,165,185,206,226,245,265,286,305,326,346,365,385,405,425,445,465,485,505,526,545,566,585,606,626,645,665,685,706,725,745,765,785,806,825,845,865,886,905,925,946,965,985,1005,1025,1046,1066,1085],"xSR":741.5,"ySR":573.95,"xT1":424.9,"yT1":0,"xT2":1058.1,"yT2":0,"toosoon":0,"cond_shown":"equaldotanddens","ratio_trial":900,"smaller_num":"18","larger_num":"20","correct_side":2,"subjID":"laurasofiacortesdias18","gender":"1","age":"11","school":"6"},{"start_time":1551901611347,"click_time":1551901612127,"finger_time":1551901611928,"fix_duration":1379.9008390905326,"trial":41,"RT":581,"MT":199,"sideResp":2,"stimulus":"img/750/equaldotanddens/R/7_Ratio_750_L_3_R_4.png","xmouse":[798,798,798,798,798,798,798,798,798,798,798,798,798,798,798,798,798,798,798,798,798,798,798,798,798,798,798,798,801,817,841,868,919,940,965,988,1013,1031,1055,1066],"ymouse":[596,596,596,596,596,596,596,596,596,596,596,596,596,596,596,596,596,596,596,596,596,596,596,596,596,596,596,596,581,552,510,462,377,342,297,250,203,160,110,90],"timestamp_mouse":[1,19,40,59,81,99,120,139,159,179,199,219,239,259,279,300,320,340,359,379,399,419,439,460,479,499,519,539,559,581,599,619,639,660,679,699,719,739,761,779],"xSR":741.5,"ySR":573.95,"xT1":424.9,"yT1":0,"xT2":1058.1,"yT2":0,"toosoon":0,"cond_shown":"equaldotanddens","ratio_trial":750,"smaller_num":"3","larger_num":"4","correct_side":2,"subjID":"laurasofiacortesdias18","gender":"1","age":"11","school":"6"},{"start_time":1551901614037,"click_time":1551901614987,"finger_time":1551901614726,"fix_duration":1149.191307262592,"trial":42,"RT":689,"MT":261,"sideResp":2,"stimulus":"img/750/equaldotsize/R/11_Ratio_750_L_12_R_16.png","xmouse":[795,795,795,795,795,795,795,795,795,795,795,795,795,795,795,795,795,795,795,795,795,795,795,795,795,795,795,795,795,800,811,818,823,831,838,853,871,909,926,944,964,986,1009,1017,1030,1046,1067,1101],"ymouse":[630,630,630,630,630,630,630,630,630,630,630,630,630,630,630,630,630,630,630,630,630,630,630,630,630,630,630,630,630,618,605,597,589,577,568,550,529,473,450,425,391,345,270,243,211,178,143,92],"timestamp_mouse":[10,29,50,69,90,110,130,149,169,189,209,229,250,269,289,309,330,349,370,389,409,429,449,469,490,510,529,550,570,589,609,629,650,669,689,709,730,749,769,789,809,829,850,869,890,909,929,950],"xSR":741.5,"ySR":573.95,"xT1":424.9,"yT1":0,"xT2":1058.1,"yT2":0,"toosoon":0,"cond_shown":"equaldotsize","ratio_trial":750,"smaller_num":"12","larger_num":"16","correct_side":2,"subjID":"laurasofiacortesdias18","gender":"1","age":"11","school":"6"},{"start_time":1551901616915,"click_time":1551901617786,"finger_time":1551901617466,"fix_duration":766.2623543766009,"trial":43,"RT":551,"MT":320,"sideResp":1,"stimulus":"img/250/equaldotanddens/L/15_Ratio_250_L_12_R_3.png","xmouse":[780,780,780,780,780,780,780,780,780,780,780,780,780,780,780,780,780,780,780,780,780,780,780,780,771,762,751,736,695,678,657,643,626,587,573,560,548,537,523,518,514,508,503,496],"ymouse":[640,640,640,640,640,640,640,640,640,640,640,640,640,640,640,640,640,640,640,640,640,640,640,638,619,599,577,549,473,435,401,375,349,292,277,262,246,230,195,172,150,130,113,93],"timestamp_mouse":[11,31,51,72,91,112,132,151,171,191,211,232,252,271,291,312,331,352,371,391,411,431,451,471,493,512,531,551,571,591,611,631,651,671,691,711,732,751,771,791,811,832,851,871],"xSR":741.5,"ySR":573.95,"xT1":424.9,"yT1":0,"xT2":1058.1,"yT2":0,"toosoon":0,"cond_shown":"equaldotanddens","ratio_trial":250,"smaller_num":"3","larger_num":"12","correct_side":1,"subjID":"laurasofiacortesdias18","gender":"1","age":"11","school":"6"},{"start_time":1551901619378,"click_time":1551901620766,"finger_time":1551901620386,"fix_duration":791.961507272696,"trial":44,"RT":1008,"MT":380,"sideResp":1,"stimulus":"img/750/randomdotsizeEA/L/14_Ratio_750_L_8_R_6.png","xmouse":[808,808,808,808,808,808,808,808,808,808,808,808,808,808,808,808,808,808,808,808,808,808,808,808,808,808,808,808,808,808,808,808,808,808,808,808,808,808,808,808,808,808,808,808,808,808,806,804,799,781,736,703,667,640,618,594,590,586,582,579,570,563,558,553,547,542,538,532,525,519],"ymouse":[615,615,615,615,615,615,615,615,615,615,615,615,615,615,615,615,615,615,615,615,615,615,615,615,615,615,615,615,612,611,609,609,609,609,609,609,609,609,609,609,609,609,609,609,609,609,608,608,605,591,537,488,419,362,323,277,266,254,241,228,206,191,181,170,161,148,139,125,109,95],"timestamp_mouse":[8,34,48,69,89,109,128,148,170,188,208,228,248,268,289,308,328,349,369,389,408,428,449,469,488,508,528,548,568,588,609,628,648,668,688,708,728,748,769,788,808,828,849,868,888,908,929,949,968,988,1008,1030,1048,1069,1088,1108,1129,1150,1169,1188,1208,1228,1248,1269,1288,1308,1328,1349,1369,1388],"xSR":741.5,"ySR":573.95,"xT1":424.9,"yT1":0,"xT2":1058.1,"yT2":0,"toosoon":0,"cond_shown":"randomdotsizeEA","ratio_trial":750,"smaller_num":"6","larger_num":"8","correct_side":1,"subjID":"laurasofiacortesdias18","gender":"1","age":"11","school":"6"},{"start_time":1551901622355,"click_time":1551901623226,"finger_time":1551901622886,"fix_duration":768.970464466367,"trial":45,"RT":531,"MT":340,"sideResp":2,"stimulus":"img/250/equaldotanddens/R/9_Ratio_250_L_3_R_12.png","xmouse":[785,785,785,785,785,785,785,785,785,785,785,785,785,785,785,785,785,785,785,785,785,785,785,785,798,810,864,896,941,978,1013,1075,1093,1106,1121,1129,1134,1136,1136,1136,1136,1129,1115,1108],"ymouse":[625,625,625,625,625,625,625,625,625,625,625,625,625,625,625,625,625,625,625,625,625,625,625,625,622,616,577,557,532,511,484,410,381,353,315,286,247,233,219,205,186,143,110,94],"timestamp_mouse":[11,32,51,72,91,111,131,151,171,191,211,231,252,272,291,311,332,351,372,391,411,432,452,471,492,511,531,551,571,592,611,631,651,671,691,711,731,752,771,791,813,831,851,871],"xSR":741.5,"ySR":573.95,"xT1":424.9,"yT1":0,"xT2":1058.1,"yT2":0,"toosoon":0,"cond_shown":"equaldotanddens","ratio_trial":250,"smaller_num":"3","larger_num":"12","correct_side":2,"subjID":"laurasofiacortesdias18","gender":"1","age":"11","school":"6"},{"start_time":1551901624491,"click_time":1551901625566,"finger_time":1551901625086,"fix_duration":544.6855450577182,"trial":46,"RT":595,"MT":480,"sideResp":2,"stimulus":"img/250/equaldotanddens/R/4_Ratio_250_L_3_R_12.png","xmouse":[813,813,813,813,813,813,813,813,813,813,813,813,813,813,813,813,813,813,813,813,813,813,813,813,813,813,813,813,824,878,905,928,956,983,1023,1026,1026,1029,1033,1046,1050,1053,1055,1056,1056,1056,1056,1056,1058,1059,1059,1059,1059,1060],"ymouse":[645,645,645,645,645,645,645,645,645,645,645,645,645,645,645,645,645,645,645,645,645,645,645,645,645,645,644,640,623,538,483,409,325,235,101,77,60,44,32,11,3,0,0,0,0,0,0,0,0,0,0,0,0,4],"timestamp_mouse":[24,35,57,76,95,115,135,155,176,196,215,235,255,275,295,315,336,355,375,395,417,435,455,476,496,517,536,555,575,595,617,635,655,675,695,715,735,756,775,795,816,835,855,875,895,915,935,956,976,995,1015,1035,1056,1075],"xSR":741.5,"ySR":573.95,"xT1":424.9,"yT1":0,"xT2":1058.1,"yT2":0,"toosoon":0,"cond_shown":"equaldotanddens","ratio_trial":250,"smaller_num":"3","larger_num":"12","correct_side":2,"subjID":"laurasofiacortesdias18","gender":"1","age":"11","school":"6"},{"start_time":1551901626957,"click_time":1551901627906,"finger_time":1551901627506,"fix_duration":390.7212522384367,"trial":47,"RT":549,"MT":400,"sideResp":2,"stimulus":"img/900/equaldotanddens/R/12_Ratio_900_L_18_R_20.png","xmouse":[784,784,784,784,784,784,784,784,784,784,784,784,784,784,784,784,784,784,784,784,784,784,784,784,789,796,830,850,873,890,905,946,967,995,1029,1061,1087,1092,1092,1094,1094,1094,1097,1099,1103,1105,1107,1108],"ymouse":[618,618,618,618,618,618,618,618,618,618,618,618,618,618,618,618,618,618,618,618,618,618,618,618,615,610,582,564,544,529,512,458,428,389,333,267,203,190,186,181,181,180,171,165,151,136,101,82],"timestamp_mouse":[11,31,50,69,89,109,130,149,170,190,209,229,249,269,289,309,329,349,369,390,409,430,449,470,489,509,529,549,569,589,610,629,649,670,689,709,730,749,769,790,809,830,849,869,890,909,929,949],"xSR":741.5,"ySR":573.95,"xT1":424.9,"yT1":0,"xT2":1058.1,"yT2":0,"toosoon":0,"cond_shown":"equaldotanddens","ratio_trial":900,"smaller_num":"18","larger_num":"20","correct_side":2,"subjID":"laurasofiacortesdias18","gender":"1","age":"11","school":"6"},{"start_time":1551901629906,"click_time":1551901631086,"finger_time":1551901630487,"fix_duration":1158.9241965448487,"trial":48,"RT":581,"MT":599,"sideResp":1,"stimulus":"img/900/randomdotsizeEA/R/7_Ratio_900_L_9_R_10.png","xmouse":[813,813,813,813,813,813,813,813,813,813,813,813,813,813,813,813,813,813,813,813,813,813,813,813,813,813,819,824,827,831,832,832,832,832,832,832,831,827,820,795,780,759,737,714,678,666,656,647,637,610,595,576,557,532,505,495,487,481,476,469],"ymouse":[625,625,625,625,625,625,625,625,625,625,625,625,625,625,625,625,625,625,625,625,625,625,625,625,625,625,613,603,591,573,571,571,571,571,571,570,570,567,560,526,503,473,446,420,391,382,373,361,344,300,280,258,237,208,178,167,154,140,123,89],"timestamp_mouse":[6,24,40,61,80,100,121,140,160,180,200,220,240,260,282,301,321,341,360,381,400,420,440,460,480,500,521,540,560,581,600,621,640,660,681,701,720,741,760,781,800,821,840,860,880,900,920,940,960,980,1000,1021,1041,1060,1080,1100,1120,1141,1160,1180],"xSR":741.5,"ySR":573.95,"xT1":424.9,"yT1":0,"xT2":1058.1,"yT2":0,"toosoon":0,"cond_shown":"randomdotsizeEA","ratio_trial":900,"smaller_num":"9","larger_num":"10","correct_side":2,"subjID":"laurasofiacortesdias18","gender":"1","age":"11","school":"6"},{"start_time":1551901632333,"click_time":1551901635006,"finger_time":1551901633207,"fix_duration":526.6384844588076,"trial":49,"RT":874,"MT":1799,"sideResp":2,"stimulus":"img/750/randomdotsizeEA/L/10_Ratio_750_L_4_R_3.png","xmouse":[819,819,819,812,812,812,812,812,812,812,812,812,812,812,812,812,812,812,812,812,812,812,811,811,811,811,811,811,811,811,811,811,811,811,811,811,811,811,811,811,811,816,828,841,846,847,849,850,852,853,857,873,894,909,933,958,982,1012,1022,1026,1029,1032,1052,1061,1072,1079,1085,1090,1091,1091,1091,1091,1091,1091,1091,1091,1091,1091,1092,1092,1093,1093,1093,1093,1093,1093,1093,1093,1093,1093,1093,1093,1093,1088,1082,1072,1069,1067,1067,1067,1067,1066,1054,1033,997,954,913,854,832,815,804,797,789,786,785,785,785,786,792,800,811,830,851,932,971,998,1013,1032,1038,1042,1045,1050,1058,1060],"ymouse":[624,624,623,626,626,626,626,626,626,626,626,626,626,626,626,626,626,626,626,621,620,617,613,613,613,613,613,613,613,613,613,613,613,613,613,613,613,613,613,612,610,602,585,561,551,542,537,531,528,524,517,490,449,425,378,319,272,228,218,214,208,200,176,168,160,155,150,144,144,144,144,144,144,144,144,144,144,144,142,142,141,141,141,141,141,141,141,141,141,141,141,141,141,141,143,145,145,146,146,146,146,146,146,144,139,133,127,118,114,113,113,113,118,121,124,126,127,128,129,130,130,130,130,130,130,125,119,105,102,99,97,94,89,88],"timestamp_mouse":[14,33,53,74,94,113,133,153,173,193,214,233,253,273,293,314,333,353,373,394,413,433,453,473,493,514,533,554,575,594,613,633,653,673,694,714,735,754,773,794,813,833,853,874,893,913,933,953,973,993,1013,1033,1053,1073,1093,1113,1133,1153,1173,1193,1214,1233,1253,1273,1293,1313,1333,1354,1373,1394,1413,1434,1454,1473,1493,1513,1535,1555,1573,1593,1613,1633,1653,1673,1694,1714,1734,1753,1774,1795,1813,1833,1853,1873,1893,1913,1933,1953,1973,1993,2013,2033,2053,2074,2093,2114,2133,2154,2173,2193,2213,2233,2253,2273,2293,2314,2333,2354,2373,2394,2413,2433,2453,2473,2493,2513,2533,2553,2573,2593,2613,2634,2653,2673],"xSR":741.5,"ySR":573.95,"xT1":424.9,"yT1":0,"xT2":1058.1,"yT2":0,"toosoon":0,"cond_shown":"randomdotsizeEA","ratio_trial":750,"smaller_num":"3","larger_num":"4","correct_side":1,"subjID":"laurasofiacortesdias18","gender":"1","age":"11","school":"6"},{"start_time":1551901638228,"click_time":1551901639566,"finger_time":1551901638986,"fix_duration":819.0554986582814,"trial":50,"RT":758,"MT":580,"sideResp":2,"stimulus":"img/900/equaldotanddens/R/14_Ratio_900_L_18_R_20.png","xmouse":[817,817,814,810,806,803,801,801,801,800,800,800,800,800,800,800,800,800,800,800,800,800,800,802,802,802,802,802,802,802,802,803,805,808,815,825,837,871,883,892,900,910,924,931,939,952,971,1044,1089,1133,1174,1209,1248,1253,1255,1255,1255,1257,1256,1251,1246,1236,1206,1189,1175,1164,1155],"ymouse":[635,635,635,635,637,638,638,638,638,638,638,638,638,638,638,638,638,638,638,638,638,638,638,638,638,638,638,638,638,638,638,638,637,635,628,611,590,543,528,517,506,494,473,462,451,438,421,358,323,283,236,187,112,90,74,64,57,45,37,31,25,21,20,22,24,26,27],"timestamp_mouse":[23,38,58,79,98,119,139,159,178,199,219,238,258,279,298,319,339,359,378,398,418,438,459,478,499,518,538,558,578,598,618,639,659,678,699,718,738,758,779,798,818,838,858,879,898,918,938,958,978,998,1018,1038,1058,1079,1098,1118,1138,1158,1179,1198,1218,1238,1258,1278,1298,1318,1338],"xSR":741.5,"ySR":573.95,"xT1":424.9,"yT1":0,"xT2":1058.1,"yT2":0,"toosoon":0,"cond_shown":"equaldotanddens","ratio_trial":900,"smaller_num":"18","larger_num":"20","correct_side":2,"subjID":"laurasofiacortesdias18","gender":"1","age":"11","school":"6"},{"start_time":1551901645998,"click_time":1551901647027,"finger_time":1551901646687,"fix_duration":250,"trial":51,"RT":689,"MT":340,"sideResp":1,"stimulus":"img/250/equaldotsize/L/5_Ratio_250_L_24_R_6.png","xmouse":[826,826,826,826,823,818,815,812,811,809,809,809,809,809,809,809,809,809,809,809,809,809,809,809,809,809,809,809,809,809,808,808,803,798,743,701,667,646,635,623,617,615,614,613,610,602,593,579,567,547,535,523],"ymouse":[632,632,632,632,632,632,631,630,630,630,630,630,630,630,630,630,630,630,630,630,630,630,630,630,630,630,630,630,630,630,630,630,621,602,402,323,280,252,232,196,174,161,152,144,139,128,121,114,109,101,99,95],"timestamp_mouse":[8,32,48,69,89,108,128,148,168,188,209,228,248,268,289,308,329,348,368,388,408,428,448,468,488,509,530,548,568,588,608,628,649,668,689,708,728,749,770,788,808,828,848,868,888,908,929,948,970,989,1008,1029],"xSR":741.5,"ySR":573.95,"xT1":424.9,"yT1":0,"xT2":1058.1,"yT2":0,"toosoon":0,"cond_shown":"equaldotsize","ratio_trial":250,"smaller_num":"6","larger_num":"24","correct_side":1,"subjID":"laurasofiacortesdias18","gender":"1","age":"11","school":"6"},{"start_time":1551901649310,"click_time":1551901650286,"finger_time":1551901649886,"fix_duration":1401.211335330955,"trial":52,"RT":576,"MT":400,"sideResp":1,"stimulus":"img/500/equaldotsize/L/8_Ratio_500_L_8_R_4.png","xmouse":[837,837,837,837,837,837,837,837,837,837,837,837,837,837,837,837,837,837,837,837,837,837,837,837,837,837,837,834,809,788,768,748,722,666,635,622,609,598,585,580,573,565,553,507,485,463,445,436,430],"ymouse":[601,601,601,601,601,601,601,601,601,601,601,601,601,601,601,601,601,601,601,601,601,601,601,601,601,601,601,596,571,546,522,498,468,408,373,355,337,323,299,287,275,261,242,188,163,140,119,105,91],"timestamp_mouse":[16,36,56,76,96,116,136,156,177,196,216,236,256,278,296,316,336,356,377,396,417,437,456,476,496,516,537,556,576,596,616,636,658,677,697,716,737,757,776,796,816,836,857,876,896,916,936,956,976],"xSR":741.5,"ySR":573.95,"xT1":424.9,"yT1":0,"xT2":1058.1,"yT2":0,"toosoon":0,"cond_shown":"equaldotsize","ratio_trial":500,"smaller_num":"4","larger_num":"8","correct_side":1,"subjID":"laurasofiacortesdias18","gender":"1","age":"11","school":"6"},{"start_time":1551901652415,"click_time":1551901653286,"finger_time":1551901652886,"fix_duration":1428.7871776836218,"trial":53,"RT":471,"MT":400,"sideResp":2,"stimulus":"img/250/equaldotanddens/R/6_Ratio_250_L_6_R_24.png","xmouse":[809,809,809,809,809,809,809,809,809,809,809,809,809,809,809,809,809,809,809,809,809,817,833,888,927,969,1007,1043,1083,1088,1090,1093,1095,1100,1104,1108,1112,1115,1119,1121,1121,1118,1114,1114],"ymouse":[623,623,623,623,623,623,623,623,623,623,623,623,623,623,623,623,623,623,623,623,621,613,600,554,512,464,416,369,305,297,293,288,284,273,264,254,245,237,221,199,174,139,104,55],"timestamp_mouse":[11,31,51,71,92,112,131,153,172,192,212,231,252,272,291,311,331,353,371,391,412,432,451,471,491,511,532,552,571,591,611,631,652,671,691,711,731,753,771,791,811,831,851,871],"xSR":741.5,"ySR":573.95,"xT1":424.9,"yT1":0,"xT2":1058.1,"yT2":0,"toosoon":0,"cond_shown":"equaldotanddens","ratio_trial":250,"smaller_num":"6","larger_num":"24","correct_side":2,"subjID":"laurasofiacortesdias18","gender":"1","age":"11","school":"6"},{"start_time":1551901654818,"click_time":1551901656286,"finger_time":1551901655427,"fix_duration":570.6389827634816,"trial":54,"RT":609,"MT":859,"sideResp":1,"stimulus":"img/250/equaldotsize/L/7_Ratio_250_L_8_R_2.png","xmouse":[778,778,778,778,778,778,778,778,778,778,778,778,778,778,778,778,778,778,778,778,778,778,778,778,778,778,778,778,775,773,767,761,753,732,720,707,695,683,658,645,631,617,600,568,556,551,549,548,548,546,544,542,541,540,537,534,534,534,532,531,530,530,530,529,529,529,529,528,528,528,528,526,526,523],"ymouse":[616,616,616,616,616,616,616,616,616,616,616,616,616,616,616,616,616,616,616,616,616,616,616,616,616,616,616,616,601,585,564,544,520,481,464,445,428,412,374,357,339,323,304,281,273,267,258,251,237,223,210,195,177,133,110,90,72,56,25,14,12,12,12,12,12,13,14,16,25,30,36,42,48,58],"timestamp_mouse":[12,28,50,68,88,108,128,149,168,189,209,229,249,269,288,309,328,348,368,388,409,429,448,468,488,509,529,548,568,589,609,628,649,668,688,708,728,749,768,788,808,829,848,869,889,908,928,949,968,988,1008,1028,1048,1068,1088,1109,1128,1150,1168,1188,1208,1230,1249,1269,1289,1308,1328,1349,1368,1388,1408,1428,1448,1468],"xSR":741.5,"ySR":573.95,"xT1":424.9,"yT1":0,"xT2":1058.1,"yT2":0,"toosoon":0,"cond_shown":"equaldotsize","ratio_trial":250,"smaller_num":"2","larger_num":"8","correct_side":1,"subjID":"laurasofiacortesdias18","gender":"1","age":"11","school":"6"},{"start_time":1551901658114,"click_time":1551901660406,"finger_time":1551901658568,"fix_duration":727.0592330135959,"trial":55,"RT":454,"MT":1838,"sideResp":1,"stimulus":"img/900/randomdotsizeEA/R/5_Ratio_900_L_9_R_10.png","xmouse":[821,821,821,821,821,821,821,821,821,821,821,820,820,820,818,818,817,816,815,815,818,826,831,834,831,828,825,822,818,814,809,804,797,761,742,722,702,685,658,653,651,649,647,640,631,625,614,603,581,574,572,571,571,570,570,570,570,570,570,570,571,574,576,591,616,639,665,691,737,758,775,788,792,808,838,862,883,899,921,926,930,932,934,943,950,952,954,954,954,954,953,947,926,851,784,743,708,671,605,578,555,538,523,504,496,488,481,476,471,471,471,471,471,471,471],"ymouse":[643,643,643,643,643,643,643,643,643,643,643,642,640,639,637,635,634,633,627,619,603,582,559,518,503,498,495,494,492,491,491,491,491,485,475,464,450,435,411,405,402,398,390,371,352,339,322,306,281,276,275,275,275,275,275,275,275,275,275,275,275,275,275,275,272,269,265,262,259,259,258,255,253,246,242,239,236,233,225,222,221,220,219,216,215,214,214,214,214,214,214,214,214,223,226,226,214,199,163,149,141,137,133,130,127,124,121,118,115,115,115,115,115,110,97],"timestamp_mouse":[22,33,52,72,92,113,133,152,172,192,213,232,253,272,292,313,332,352,372,392,413,433,454,472,493,512,532,552,573,593,612,632,652,672,692,712,734,752,772,793,812,832,853,872,893,912,932,952,972,992,1012,1033,1052,1072,1092,1112,1132,1153,1173,1192,1212,1232,1252,1272,1293,1312,1332,1353,1372,1392,1413,1432,1452,1472,1492,1512,1533,1552,1573,1592,1613,1632,1653,1672,1692,1713,1733,1752,1772,1793,1812,1832,1853,1872,1893,1912,1932,1952,1972,1993,2012,2032,2053,2072,2092,2113,2132,2152,2172,2193,2212,2233,2254,2272,2292],"xSR":741.5,"ySR":573.95,"xT1":424.9,"yT1":0,"xT2":1058.1,"yT2":0,"toosoon":0,"cond_shown":"randomdotsizeEA","ratio_trial":900,"smaller_num":"9","larger_num":"10","correct_side":2,"subjID":"laurasofiacortesdias18","gender":"1","age":"11","school":"6"},{"start_time":1551901664078,"click_time":1551901665167,"finger_time":1551901664466,"fix_duration":1131.0991209457072,"trial":56,"RT":388,"MT":701,"sideResp":2,"stimulus":"img/750/equaldotanddens/R/2_Ratio_750_L_6_R_8.png","xmouse":[816,816,815,815,815,815,815,815,815,815,815,815,815,815,815,815,815,816,819,824,851,870,884,896,908,939,971,986,996,1001,1011,1017,1024,1032,1039,1048,1053,1057,1059,1062,1067,1068,1070,1072,1076,1079,1080,1082,1083,1084,1084,1084,1084,1086,1087],"ymouse":[628,628,626,626,626,626,626,626,626,625,622,621,620,619,617,609,603,597,584,569,525,496,470,445,409,364,344,334,325,315,292,282,271,260,251,238,228,222,216,211,201,192,183,174,163,151,146,139,135,131,121,116,111,100,92],"timestamp_mouse":[8,33,48,68,88,109,128,148,168,188,208,228,249,268,288,308,328,348,369,388,408,429,448,468,488,508,528,548,568,588,609,628,648,668,688,708,728,748,768,788,808,829,848,869,889,908,928,948,968,988,1008,1028,1048,1068,1089],"xSR":741.5,"ySR":573.95,"xT1":424.9,"yT1":0,"xT2":1058.1,"yT2":0,"toosoon":0,"cond_shown":"equaldotanddens","ratio_trial":750,"smaller_num":"6","larger_num":"8","correct_side":2,"subjID":"laurasofiacortesdias18","gender":"1","age":"11","school":"6"},{"start_time":1551901667298,"click_time":1551901668807,"finger_time":1551901668007,"fix_duration":1231.0739343387322,"trial":57,"RT":709,"MT":800,"sideResp":2,"stimulus":"img/500/equaldotsize/R/14_Ratio_500_L_5_R_10.png","xmouse":[819,819,819,819,819,819,819,819,819,819,819,819,819,819,819,819,819,819,819,819,819,819,819,819,819,819,819,819,819,819,820,822,822,823,824,844,896,957,1006,1093,1114,1131,1142,1162,1205,1228,1258,1273,1281,1282,1282,1282,1282,1282,1282,1282,1281,1280,1275,1254,1239,1221,1203,1190,1183,1183,1183,1183,1183,1183,1183,1183,1181,1180,1162,1151],"ymouse":[615,615,615,615,615,615,615,615,615,615,615,615,615,615,615,615,615,615,615,615,615,615,615,615,615,615,615,615,615,615,616,615,614,614,610,580,521,458,412,310,275,242,208,160,60,16,0,0,0,0,0,0,0,0,0,0,0,0,2,8,12,18,23,27,29,29,29,29,29,29,29,29,30,30,36,40],"timestamp_mouse":[8,31,48,68,90,108,129,148,168,188,208,229,248,268,289,308,328,348,368,388,409,429,449,468,490,509,529,549,569,589,609,629,649,669,689,709,729,749,769,789,809,829,849,869,889,909,929,949,969,989,1009,1029,1050,1069,1090,1110,1130,1149,1169,1190,1209,1229,1249,1269,1290,1309,1329,1349,1369,1390,1409,1429,1449,1469,1489,1509],"xSR":741.5,"ySR":573.95,"xT1":424.9,"yT1":0,"xT2":1058.1,"yT2":0,"toosoon":0,"cond_shown":"equaldotsize","ratio_trial":500,"smaller_num":"5","larger_num":"10","correct_side":2,"subjID":"laurasofiacortesdias18","gender":"1","age":"11","school":"6"},{"start_time":1551901672072,"click_time":1551901674127,"finger_time":1551901672947,"fix_duration":964.9159050230762,"trial":58,"RT":875,"MT":1180,"sideResp":1,"stimulus":"img/900/equaldotanddens/R/9_Ratio_900_L_18_R_20.png","xmouse":[769,769,769,769,769,769,769,769,769,769,769,769,769,769,769,769,769,769,769,769,769,769,769,769,769,769,769,769,769,769,769,769,769,769,769,769,769,769,769,768,762,752,744,736,731,729,729,729,725,719,690,667,634,602,561,432,377,324,269,225,163,119,110,107,107,108,111,113,114,114,117,165,222,296,362,480,505,518,522,524,524,525,525,525,525,525,526,529,531,531,531,531,531,531,531,531,531,531,531,531,531,528,521],"ymouse":[635,635,635,635,635,635,635,635,635,635,635,635,635,635,635,635,635,635,635,635,635,635,635,635,635,635,635,635,635,635,635,635,635,635,635,635,635,635,635,635,635,629,623,617,614,612,612,611,608,604,583,568,543,515,475,340,278,214,149,91,11,0,0,0,0,0,0,0,0,0,0,0,0,0,0,0,0,0,0,0,0,0,0,0,0,0,0,0,0,0,0,0,0,0,0,2,2,2,2,2,3,12,28],"timestamp_mouse":[15,35,56,75,95,115,135,155,175,195,216,235,255,275,295,315,335,355,375,395,415,435,455,475,495,515,536,555,575,595,615,635,655,675,697,715,735,755,775,795,815,835,855,875,895,915,935,956,976,995,1015,1036,1055,1075,1095,1115,1135,1155,1175,1195,1215,1235,1255,1275,1295,1315,1335,1356,1375,1395,1415,1435,1455,1476,1495,1515,1535,1555,1575,1596,1616,1635,1655,1675,1695,1716,1735,1755,1775,1795,1816,1835,1856,1875,1895,1915,1935,1955,1976,1996,2015,2035,2055],"xSR":741.5,"ySR":573.95,"xT1":424.9,"yT1":0,"xT2":1058.1,"yT2":0,"toosoon":0,"cond_shown":"equaldotanddens","ratio_trial":900,"smaller_num":"18","larger_num":"20","correct_side":2,"subjID":"laurasofiacortesdias18","gender":"1","age":"11","school":"6"},{"start_time":1551901675419,"click_time":1551901676387,"finger_time":1551901676008,"fix_duration":331.5394862681347,"trial":59,"RT":589,"MT":379,"sideResp":1,"stimulus":"img/250/equaldotanddens/L/5_Ratio_250_L_24_R_6.png","xmouse":[803,803,803,803,803,803,803,803,803,802,802,802,801,801,801,801,801,801,801,801,801,801,801,801,801,801,801,800,776,735,669,612,551,483,468,462,456,450,443,439,438,437,437,437,437,440,440,442,447],"ymouse":[654,654,654,654,654,653,653,653,650,644,642,641,640,640,640,640,640,640,640,640,640,640,640,640,640,640,640,638,608,560,494,431,373,291,266,247,226,204,178,148,140,135,133,124,118,112,108,103,94],"timestamp_mouse":[11,28,48,68,89,108,129,148,168,189,208,228,248,268,288,309,328,349,368,388,408,428,448,468,488,509,528,548,568,589,608,628,648,668,687,708,728,748,768,789,808,828,848,868,887,908,928,948,968],"xSR":741.5,"ySR":573.95,"xT1":424.9,"yT1":0,"xT2":1058.1,"yT2":0,"toosoon":0,"cond_shown":"equaldotanddens","ratio_trial":250,"smaller_num":"6","larger_num":"24","correct_side":1,"subjID":"laurasofiacortesdias18","gender":"1","age":"11","school":"6"},{"start_time":1551901678781,"click_time":1551901679847,"finger_time":1551901679247,"fix_duration":250,"trial":60,"RT":466,"MT":600,"sideResp":1,"stimulus":"img/250/randomdotsizeEA/L/14_Ratio_250_L_12_R_3.png","xmouse":[798,798,798,798,798,798,798,798,798,798,798,798,798,798,798,798,798,798,798,798,798,792,774,741,686,534,457,393,347,289,243,233,230,230,230,230,230,231,232,232,233,233,233,233,233,233,233,233,233,237,275,336,396,458],"ymouse":[632,632,632,632,632,632,632,632,632,632,632,632,632,632,632,632,632,632,632,632,632,628,607,569,516,399,351,316,286,236,170,139,112,89,73,57,51,49,48,48,47,47,47,47,47,47,47,47,47,47,41,32,24,15],"timestamp_mouse":[7,32,46,67,86,106,126,147,166,186,206,226,246,266,286,306,326,346,366,387,406,426,446,466,486,506,527,546,566,586,606,626,647,667,686,706,726,746,766,786,806,827,846,866,886,906,926,946,966,986,1006,1026,1046,1066],"xSR":741.5,"ySR":573.95,"xT1":424.9,"yT1":0,"xT2":1058.1,"yT2":0,"toosoon":0,"cond_shown":"randomdotsizeEA","ratio_trial":250,"smaller_num":"3","larger_num":"12","correct_side":1,"subjID":"laurasofiacortesdias18","gender":"1","age":"11","school":"6"},{"start_time":1551901681459,"click_time":1551901682447,"finger_time":1551901681887,"fix_duration":250,"trial":61,"RT":428,"MT":560,"sideResp":1,"stimulus":"img/500/randomdotsizeEA/L/11_Ratio_500_L_12_R_6.png","xmouse":[781,781,781,781,781,781,781,781,781,781,781,781,781,781,781,781,781,781,781,778,767,729,598,531,476,442,426,419,419,419,419,419,419,419,419,419,419,420,422,424,429,438,443,447,451,458,477,481,484,485],"ymouse":[601,601,601,601,601,601,601,601,601,601,601,601,601,601,601,601,601,601,601,598,591,564,485,447,417,398,389,385,384,384,384,384,384,384,384,382,373,365,358,351,341,313,295,273,246,211,137,121,110,98],"timestamp_mouse":[8,29,48,68,88,108,128,148,168,188,209,228,248,268,288,308,328,348,368,389,408,428,448,469,488,509,528,548,568,589,608,629,648,668,688,708,728,748,769,788,808,828,849,869,888,909,928,948,969,988],"xSR":741.5,"ySR":573.95,"xT1":424.9,"yT1":0,"xT2":1058.1,"yT2":0,"toosoon":0,"cond_shown":"randomdotsizeEA","ratio_trial":500,"smaller_num":"6","larger_num":"12","correct_side":1,"subjID":"laurasofiacortesdias18","gender":"1","age":"11","school":"6"},{"start_time":1551901683399,"click_time":1551901684427,"finger_time":1551901683927,"fix_duration":250,"trial":62,"RT":528,"MT":500,"sideResp":1,"stimulus":"img/500/equaldotsize/L/8_Ratio_500_L_8_R_4.png","xmouse":[789,789,789,789,789,789,789,789,789,789,789,789,789,789,789,789,789,789,789,789,789,786,775,768,752,745,738,729,720,698,689,676,661,645,596,564,522,493,474,463,453,453,453,453,453,453,453,453,453,457,460,465],"ymouse":[635,635,635,635,635,635,635,635,635,635,635,635,635,635,635,635,635,635,635,635,635,632,623,616,594,583,570,556,544,515,501,485,463,440,371,315,258,210,178,158,135,135,135,135,134,134,134,120,117,107,100,91],"timestamp_mouse":[8,31,48,68,88,108,128,148,168,188,208,228,248,268,288,309,329,348,369,390,408,428,448,468,489,508,528,549,569,588,608,628,648,668,688,708,728,748,768,788,808,829,848,868,888,908,929,948,968,988,1008,1028],"xSR":741.5,"ySR":573.95,"xT1":424.9,"yT1":0,"xT2":1058.1,"yT2":0,"toosoon":0,"cond_shown":"equaldotsize","ratio_trial":500,"smaller_num":"4","larger_num":"8","correct_side":1,"subjID":"laurasofiacortesdias18","gender":"1","age":"11","school":"6"},{"start_time":1551901686426,"click_time":1551901687387,"finger_time":1551901686987,"fix_duration":1137.1653918022957,"trial":63,"RT":561,"MT":400,"sideResp":1,"stimulus":"img/250/randomdotsizeEA/L/5_Ratio_250_L_24_R_6.png","xmouse":[772,772,772,772,772,772,772,772,772,772,772,772,772,772,772,772,772,772,772,772,772,772,772,771,769,765,761,748,737,713,704,699,691,666,642,622,607,594,579,559,547,534,525,512,508,505,504,503,502],"ymouse":[640,640,640,640,640,640,640,640,640,640,640,640,640,640,640,640,640,640,640,640,640,640,640,640,627,612,598,574,558,529,518,511,502,460,421,382,347,317,280,238,216,195,174,136,121,109,103,100,98],"timestamp_mouse":[6,23,41,61,81,101,121,141,161,182,201,222,242,261,281,301,322,341,361,381,401,421,441,461,481,501,521,541,561,582,601,621,641,661,681,702,721,741,761,781,801,821,841,861,880,902,921,942,961],"xSR":741.5,"ySR":573.95,"xT1":424.9,"yT1":0,"xT2":1058.1,"yT2":0,"toosoon":0,"cond_shown":"randomdotsizeEA","ratio_trial":250,"smaller_num":"6","larger_num":"24","correct_side":1,"subjID":"laurasofiacortesdias18","gender":"1","age":"11","school":"6"},{"start_time":1551901690326,"click_time":1551901691207,"finger_time":1551901691147,"fix_duration":477.8976553725495,"trial":64,"RT":821,"MT":60,"sideResp":1,"stimulus":"img/900/randomdotsizeEA/R/7_Ratio_900_L_9_R_10.png","xmouse":[801,801,801,801,801,801,801,801,801,801,801,801,801,801,801,801,801,801,801,801,801,801,801,801,801,801,801,801,801,801,801,801,801,801,801,801,801,801,801,792,766,721,669,516,452],"ymouse":[623,623,623,623,623,623,623,623,623,623,623,623,623,623,623,623,623,623,623,623,623,623,623,623,623,623,623,623,623,623,623,623,623,623,623,623,623,623,623,615,592,545,467,187,77],"timestamp_mouse":[8,28,41,61,81,102,121,141,161,182,201,221,241,261,281,302,321,341,361,382,401,421,441,461,481,501,521,541,561,581,602,621,641,662,681,701,722,741,762,781,801,821,841,861,881],"xSR":741.5,"ySR":573.95,"xT1":424.9,"yT1":0,"xT2":1058.1,"yT2":0,"toosoon":0,"cond_shown":"randomdotsizeEA","ratio_trial":900,"smaller_num":"9","larger_num":"10","correct_side":2,"subjID":"laurasofiacortesdias18","gender":"1","age":"11","school":"6"},{"start_time":1551901706431,"click_time":1551901707787,"finger_time":1551901707187,"fix_duration":1203.5446834708791,"trial":65,"RT":756,"MT":600,"sideResp":1,"stimulus":"img/500/equaldotanddens/L/11_Ratio_500_L_12_R_6.png","xmouse":[775,775,775,775,775,775,775,775,775,775,775,775,775,775,775,775,775,775,775,775,775,775,775,775,775,775,775,775,775,775,775,775,775,775,775,775,773,733,698,665,637,616,583,569,554,539,513,487,475,463,454,448,441,438,438,438,438,437,437,437,437,437,437,437,437,437,437,440],"ymouse":[622,622,622,622,622,622,622,622,622,622,622,622,622,622,622,622,622,622,622,622,622,622,622,622,622,622,622,622,622,622,622,622,622,622,622,622,621,567,522,484,459,441,412,398,381,362,331,297,277,257,240,225,190,173,157,141,128,110,106,102,102,102,102,102,101,101,100,95],"timestamp_mouse":[16,36,57,76,96,116,137,157,176,196,216,236,256,277,296,317,336,356,376,396,416,436,456,476,497,516,536,556,576,596,616,636,656,677,697,716,736,756,777,796,816,836,856,877,896,917,936,957,976,996,1016,1036,1056,1075,1096,1117,1137,1157,1176,1197,1216,1236,1256,1276,1296,1316,1336,1356],"xSR":741.5,"ySR":573.95,"xT1":424.9,"yT1":0,"xT2":1058.1,"yT2":0,"toosoon":0,"cond_shown":"equaldotanddens","ratio_trial":500,"smaller_num":"6","larger_num":"12","correct_side":1,"subjID":"laurasofiacortesdias18","gender":"1","age":"11","school":"6"},{"start_time":1551901711826,"click_time":1551901713107,"finger_time":1551901712887,"fix_duration":1257.1452393468012,"trial":66,"RT":1061,"MT":220,"sideResp":2,"stimulus":"img/500/randomdotsizeEA/R/14_Ratio_500_L_5_R_10.png","xmouse":[800,800,800,800,800,800,800,800,800,800,800,800,800,800,800,800,80