[{"start_time":1551881898262,"click_time":1551881899488,"finger_time":1551881898274,"fix_duration":550.7044508116146,"trial":0,"RT":12,"MT":1214,"sideResp":1,"stimulus":[],"xmouse":[797,797,797,797,797,797,797,797,797,797,797,797,797,797,797,797,797,797,797,797,797,797,797,797,797,797,795,795,795,795,795,795,794,792,792,792,792,792,792,792,792,792,792,792,792,792,792,792,792,792,779,688,627,568,505,493,483,478,476,475,471],"ymouse":[536,536,536,536,536,536,536,536,536,536,536,536,536,536,536,536,536,536,536,536,536,536,536,536,536,553,566,576,588,597,603,613,619,626,627,627,627,627,627,627,627,627,627,627,627,627,627,627,627,621,556,386,311,239,167,151,135,126,119,112,97],"timestamp_mouse":[12,47,66,85,106,127,146,166,187,206,226,246,266,287,306,325,347,366,387,407,426,446,466,486,507,526,546,566,587,606,626,646,667,687,706,727,747,767,786,807,827,846,867,886,907,927,947,966,986,1007,1026,1045,1065,1087,1106,1126,1146,1166,1187,1207,1226],"xSR":741.5,"ySR":500.5,"xT1":424.9,"yT1":0,"xT2":1058.1,"yT2":0,"toosoon":0,"cond_shown":"Congruent","ratio_trial":200,"L_num":21,"L_den":30,"R_num":2,"R_den":4,"correct_side":1,"subjID":"LauraSofiaGalvisMora7","gender":"1","age":"10","school":"6","test":{"fix_dur":[250,1500],"timestim":1000,"targets_dim":[100,100],"targets_relative_coord":[0.3,0.7],"size_stim":[880,420],"start_dim":[100,100],"size_start":[300,300],"size_fix":60,"samplingrate":20,"img_types":["Congruent","Incongruent"],"ratios":[100,200,300],"rep_conds":19,"nTrials":120,"trials_to_rest":500,"Trials_order":[80,66,4,12,20,2,13,69,18,50,104,70,37,53,58,85,92,96,94,119,91,117,103,23,78,42,14,73,82,89,61,74,99,33,22,40,1,68,52,81,56,57,86,55,110,59,6,112,54,106,29,28,31,7,38,118,19,35,34,67,63,97,111,83,88,100,62,65,21,72,98,0,71,49,79,51,32,43,47,101,41,93,25,75,11,87,26,77,15,36,113,108,116,27,109,30,84,9,95,76,39,24,3,46,114,44,102,45,64,8,10,115,90,5,17,16,48,60,107,105],"cond_shown":["Congruent","Congruent","Congruent","Congruent","Congruent","Congruent","Incongruent","Incongruent","Congruent","Congruent","Congruent","Congruent","Incongruent","Incongruent","Congruent","Incongruent","Congruent","Congruent","Congruent","Incongruent","Incongruent","Incongruent","Incongruent","Incongruent","Congruent","Congruent","Congruent","Incongruent","Congruent","Incongruent","Incongruent","Congruent","Incongruent","Incongruent","Congruent","Congruent","Incongruent","Congruent","Congruent","Incongruent","Congruent","Incongruent","Congruent","Incongruent","Congruent","Incongruent","Congruent","Congruent","Congruent","Congruent","Incongruent","Congruent","Incongruent","Incongruent","Congruent","Congruent","Incongruent","Incongruent","Congruent","Incongruent","Incongruent","Incongruent","Incongruent","Incongruent","Congruent","Congruent","Congruent","Incongruent","Incongruent","Congruent","Congruent","Congruent","Incongruent","Incongruent","Incongruent","Incongruent","Congruent","Incongruent","Incongruent","Incongruent","Incongruent","Incongruent","Incongruent","Incongruent","Incongruent","Incongruent","Congruent","Incongruent","Incongruent","Congruent","Incongruent","Congruent","Congruent","Incongruent","Incongruent","Congruent","Congruent","Incongruent","Incongruent","Congruent","Incongruent","Congruent","Incongruent","Congruent","Congruent","Congruent","Congruent","Incongruent","Congruent","Congruent","Congruent","Incongruent","Congruent","Incongruent","Incongruent","Congruent","Congruent","Congruent","Incongruent","Incongruent"],"ratio_trial":[200,100,300,100,200,200,100,200,100,200,200,300,100,300,300,100,200,100,300,300,100,200,100,300,100,100,200,100,300,300,100,200,200,200,300,300,100,200,300,200,200,200,200,100,200,300,100,300,100,300,300,300,100,100,200,300,100,300,300,100,200,100,200,300,300,300,200,300,200,100,200,100,300,100,100,200,200,100,300,300,300,200,100,200,300,200,200,300,200,100,300,100,200,200,100,100,100,200,300,300,200,100,200,300,100,200,100,200,300,200,300,100,100,300,300,300,100,100,300,200],"left_num":[21,2,4,11,5,7,4,11,11,12,16,8,13,8,12,3,7,8,4,4,8,4,6,13,6,1,3,10,20,13,2,7,1,14,8,3,9,13,2,4,21,4,9,3,6,13,7,4,12,9,4,11,2,13,8,24,10,4,1,9,1,9,11,3,9,3,3,4,7,9,3,3,13,1,3,7,20,3,8,13,8,7,13,4,4,7,5,8,1,2,2,6,6,1,9,11,3,7,8,1,7,7,1,12,11,5,12,4,4,7,20,2,3,1,8,7,6,3,4,14],"right_num":[2,6,13,6,14,2,8,3,6,6,12,10,12,14,2,7,2,2,1,2,1,1,3,12,5,3,14,9,8,12,8,18,3,12,10,11,20,14,10,6,2,14,13,4,7,12,9,1,13,3,2,2,8,12,2,8,8,8,7,13,2,6,3,4,3,11,14,2,8,8,14,2,12,8,4,6,9,7,14,12,9,12,6,6,2,12,14,14,2,6,6,5,7,2,14,4,4,4,14,3,4,9,3,2,6,14,13,1,13,2,14,8,2,2,9,20,5,2,2,6],"left_den":[30,5,20,22,10,21,8,20,22,15,20,15,26,10,24,9,21,16,10,20,20,30,12,26,20,2,6,25,25,26,4,15,2,30,15,12,10,26,20,5,30,6,30,6,12,26,14,10,30,10,20,22,4,26,15,30,25,5,20,15,3,18,20,6,10,12,6,20,10,15,6,6,26,2,6,15,25,9,10,26,10,10,26,5,20,10,10,10,3,5,4,20,12,3,15,22,20,15,10,5,15,14,2,24,22,10,30,30,20,21,25,4,6,2,10,14,20,6,20,30],"right_den":[4,12,26,15,20,15,20,4,15,10,20,12,20,28,10,30,15,5,10,4,2,3,5,15,25,5,20,18,16,15,20,27,10,18,12,20,25,20,25,10,4,30,26,10,10,15,15,10,26,5,4,10,20,20,6,16,16,16,20,26,15,10,4,20,5,20,20,4,16,16,20,5,15,20,10,9,15,30,28,15,18,24,10,10,4,24,20,28,15,12,30,25,10,15,28,10,16,6,28,6,6,15,10,10,15,20,26,3,26,15,28,20,5,10,18,25,25,5,4,9],"correct_side":[1,2,2,1,2,1,1,2,1,1,1,2,2,1,1,1,1,1,1,2,2,2,2,2,1,2,2,2,1,2,1,2,1,2,2,2,1,2,2,1,1,1,2,1,2,2,2,1,2,1,2,1,1,2,1,1,2,1,2,1,1,2,2,1,1,2,2,2,1,1,2,1,2,1,1,2,1,1,1,2,1,1,2,1,2,1,2,1,1,2,1,1,2,1,1,1,2,2,1,2,2,2,1,1,1,2,2,2,2,1,1,1,1,1,1,2,1,1,2,2],"img_shown":["img2/200/Congruent/L/C_Dist_200_LN_21_LD_30_RN_2_RD_4_0.png","img2/100/Congruent/R/C_Dist_100_LN_2_LD_5_RN_6_RD_12_1.png","img2/300/Congruent/R/C_Dist_300_LN_4_LD_20_RN_13_RD_26_1.png","img2/100/Congruent/L/C_Dist_100_LN_11_LD_22_RN_6_RD_15_0.png","img2/200/Congruent/R/C_Dist_200_LN_5_LD_10_RN_14_RD_20_1.png","img2/200/Congruent/L/C_Dist_200_LN_7_LD_21_RN_2_RD_15_0.png","img2/100/Incongruent/L/I_Dist_100_LN_4_LD_8_RN_8_RD_20_0.png","img2/200/Incongruent/R/I_Dist_200_LN_11_LD_20_RN_3_RD_4_1.png","img2/100/Congruent/L/C_Dist_100_LN_11_LD_22_RN_6_RD_15_0.png","img2/200/Congruent/L/C_Dist_200_LN_12_LD_15_RN_6_RD_10_0.png","img2/200/Congruent/L/C_Dist_200_LN_16_LD_20_RN_12_RD_20_0.png","img2/300/Congruent/R/C_Dist_300_LN_8_LD_15_RN_10_RD_12_1.png","img2/100/Incongruent/R/I_Dist_100_LN_13_LD_26_RN_12_RD_20_1.png","img2/300/Incongruent/L/I_Dist_300_LN_8_LD_10_RN_14_RD_28_0.png","img2/300/Congruent/L/C_Dist_300_LN_12_LD_24_RN_2_RD_10_0.png","img2/100/Incongruent/L/I_Dist_100_LN_3_LD_9_RN_7_RD_30_0.png","img2/200/Congruent/L/C_Dist_200_LN_7_LD_21_RN_2_RD_15_0.png","img2/100/Congruent/L/C_Dist_100_LN_8_LD_16_RN_2_RD_5_0.png","img2/300/Congruent/L/C_Dist_300_LN_4_LD_10_RN_1_RD_10_0.png","img2/300/Incongruent/R/I_Dist_300_LN_4_LD_20_RN_2_RD_4_1.png","img2/100/Incongruent/R/I_Dist_100_LN_8_LD_20_RN_1_RD_2_1.png","img2/200/Incongruent/R/I_Dist_200_LN_4_LD_30_RN_1_RD_3_1.png","img2/100/Incongruent/R/I_Dist_100_LN_6_LD_12_RN_3_RD_5_1.png","img2/300/Incongruent/R/I_Dist_300_LN_13_LD_26_RN_12_RD_15_1.png","img2/100/Congruent/L/C_Dist_100_LN_6_LD_20_RN_5_RD_25_0.png","img2/100/Congruent/R/C_Dist_100_LN_1_LD_2_RN_3_RD_5_1.png","img2/200/Congruent/R/C_Dist_200_LN_3_LD_6_RN_14_RD_20_1.png","img2/100/Incongruent/R/I_Dist_100_LN_10_LD_25_RN_9_RD_18_1.png","img2/300/Congruent/L/C_Dist_300_LN_20_LD_25_RN_8_RD_16_0.png","img2/300/Incongruent/R/I_Dist_300_LN_13_LD_26_RN_12_RD_15_1.png","img2/100/Incongruent/L/I_Dist_100_LN_2_LD_4_RN_8_RD_20_0.png","img2/200/Congruent/R/C_Dist_200_LN_7_LD_15_RN_18_RD_27_1.png","img2/200/Incongruent/L/I_Dist_200_LN_1_LD_2_RN_3_RD_10_0.png","img2/200/Incongruent/R/I_Dist_200_LN_14_LD_30_RN_12_RD_18_1.png","img2/300/Congruent/R/C_Dist_300_LN_8_LD_15_RN_10_RD_12_1.png","img2/300/Congruent/R/C_Dist_300_LN_3_LD_12_RN_11_RD_20_1.png","img2/100/Incongruent/L/I_Dist_100_LN_9_LD_10_RN_20_RD_25_0.png","img2/200/Congruent/R/C_Dist_200_LN_13_LD_26_RN_14_RD_20_1.png","img2/300/Congruent/R/C_Dist_300_LN_2_LD_20_RN_10_RD_25_1.png","img2/200/Incongruent/L/I_Dist_200_LN_4_LD_5_RN_6_RD_10_0.png","img2/200/Congruent/L/C_Dist_200_LN_21_LD_30_RN_2_RD_4_0.png","img2/200/Incongruent/L/I_Dist_200_LN_4_LD_6_RN_14_RD_30_0.png","img2/200/Congruent/R/C_Dist_200_LN_9_LD_30_RN_13_RD_26_1.png","img2/100/Incongruent/L/I_Dist_100_LN_3_LD_6_RN_4_RD_10_0.png","img2/200/Congruent/R/C_Dist_200_LN_6_LD_12_RN_7_RD_10_1.png","img2/300/Incongruent/R/I_Dist_300_LN_13_LD_26_RN_12_RD_15_1.png","img2/100/Congruent/R/C_Dist_100_LN_7_LD_14_RN_9_RD_15_1.png","img2/300/Congruent/L/C_Dist_300_LN_4_LD_10_RN_1_RD_10_0.png","img2/100/Congruent/R/C_Dist_100_LN_12_LD_30_RN_13_RD_26_1.png","img2/300/Congruent/L/C_Dist_300_LN_9_LD_10_RN_3_RD_5_0.png","img2/300/Incongruent/R/I_Dist_300_LN_4_LD_20_RN_2_RD_4_1.png","img2/300/Congruent/L/C_Dist_300_LN_11_LD_22_RN_2_RD_10_0.png","img2/100/Incongruent/L/I_Dist_100_LN_2_LD_4_RN_8_RD_20_0.png","img2/100/Incongruent/R/I_Dist_100_LN_13_LD_26_RN_12_RD_20_1.png","img2/200/Congruent/L/C_Dist_200_LN_8_LD_15_RN_2_RD_6_0.png","img2/300/Congruent/L/C_Dist_300_LN_24_LD_30_RN_8_RD_16_0.png","img2/100/Incongruent/R/I_Dist_100_LN_10_LD_25_RN_8_RD_16_1.png","img2/300/Incongruent/L/I_Dist_300_LN_4_LD_5_RN_8_RD_16_0.png","img2/300/Congruent/R/C_Dist_300_LN_1_LD_20_RN_7_RD_20_1.png","img2/100/Incongruent/L/I_Dist_100_LN_9_LD_15_RN_13_RD_26_0.png","img2/200/Incongruent/L/I_Dist_200_LN_1_LD_3_RN_2_RD_15_0.png","img2/100/Incongruent/R/I_Dist_100_LN_9_LD_18_RN_6_RD_10_1.png","img2/200/Incongruent/R/I_Dist_200_LN_11_LD_20_RN_3_RD_4_1.png","img2/300/Incongruent/L/I_Dist_300_LN_3_LD_6_RN_4_RD_20_0.png","img2/300/Congruent/L/C_Dist_300_LN_9_LD_10_RN_3_RD_5_0.png","img2/300/Congruent/R/C_Dist_300_LN_3_LD_12_RN_11_RD_20_1.png","img2/200/Congruent/R/C_Dist_200_LN_3_LD_6_RN_14_RD_20_1.png","img2/300/Incongruent/R/I_Dist_300_LN_4_LD_20_RN_2_RD_4_1.png","img2/200/Incongruent/L/I_Dist_200_LN_7_LD_10_RN_8_RD_16_0.png","img2/100/Congruent/L/C_Dist_100_LN_9_LD_15_RN_8_RD_16_0.png","img2/200/Congruent/R/C_Dist_200_LN_3_LD_6_RN_14_RD_20_1.png","img2/100/Congruent/L/C_Dist_100_LN_3_LD_6_RN_2_RD_5_0.png","img2/300/Incongruent/R/I_Dist_300_LN_13_LD_26_RN_12_RD_15_1.png","img2/100/Incongruent/L/I_Dist_100_LN_1_LD_2_RN_8_RD_20_0.png","img2/100/Incongruent/L/I_Dist_100_LN_3_LD_6_RN_4_RD_10_0.png","img2/200/Incongruent/R/I_Dist_200_LN_7_LD_15_RN_6_RD_9_1.png","img2/200/Congruent/L/C_Dist_200_LN_20_LD_25_RN_9_RD_15_0.png","img2/100/Incongruent/L/I_Dist_100_LN_3_LD_9_RN_7_RD_30_0.png","img2/300/Incongruent/L/I_Dist_300_LN_8_LD_10_RN_14_RD_28_0.png","img2/300/Incongruent/R/I_Dist_300_LN_13_LD_26_RN_12_RD_15_1.png","img2/300/Incongruent/L/I_Dist_300_LN_8_LD_10_RN_9_RD_18_0.png","img2/200/Incongruent/L/I_Dist_200_LN_7_LD_10_RN_12_RD_24_0.png","img2/100/Incongruent/R/I_Dist_100_LN_13_LD_26_RN_6_RD_10_1.png","img2/200/Incongruent/L/I_Dist_200_LN_4_LD_5_RN_6_RD_10_0.png","img2/300/Incongruent/R/I_Dist_300_LN_4_LD_20_RN_2_RD_4_1.png","img2/200/Incongruent/L/I_Dist_200_LN_7_LD_10_RN_12_RD_24_0.png","img2/200/Congruent/R/C_Dist_200_LN_5_LD_10_RN_14_RD_20_1.png","img2/300/Incongruent/L/I_Dist_300_LN_8_LD_10_RN_14_RD_28_0.png","img2/200/Incongruent/L/I_Dist_200_LN_1_LD_3_RN_2_RD_15_0.png","img2/100/Congruent/R/C_Dist_100_LN_2_LD_5_RN_6_RD_12_1.png","img2/300/Incongruent/L/I_Dist_300_LN_2_LD_4_RN_6_RD_30_0.png","img2/100/Congruent/L/C_Dist_100_LN_6_LD_20_RN_5_RD_25_0.png","img2/200/Congruent/R/C_Dist_200_LN_6_LD_12_RN_7_RD_10_1.png","img2/200/Incongruent/L/I_Dist_200_LN_1_LD_3_RN_2_RD_15_0.png","img2/100/Incongruent/L/I_Dist_100_LN_9_LD_15_RN_14_RD_28_0.png","img2/100/Congruent/L/C_Dist_100_LN_11_LD_22_RN_4_RD_10_0.png","img2/100/Congruent/R/C_Dist_100_LN_3_LD_20_RN_4_RD_16_1.png","img2/200/Incongruent/R/I_Dist_200_LN_7_LD_15_RN_4_RD_6_1.png","img2/300/Incongruent/L/I_Dist_300_LN_8_LD_10_RN_14_RD_28_0.png","img2/300/Congruent/R/C_Dist_300_LN_1_LD_5_RN_3_RD_6_1.png","img2/200/Incongruent/R/I_Dist_200_LN_7_LD_15_RN_4_RD_6_1.png","img2/100/Congruent/R/C_Dist_100_LN_7_LD_14_RN_9_RD_15_1.png","img2/200/Incongruent/L/I_Dist_200_LN_1_LD_2_RN_3_RD_10_0.png","img2/300/Congruent/L/C_Dist_300_LN_12_LD_24_RN_2_RD_10_0.png","img2/100/Congruent/L/C_Dist_100_LN_11_LD_22_RN_6_RD_15_0.png","img2/200/Congruent/R/C_Dist_200_LN_5_LD_10_RN_14_RD_20_1.png","img2/100/Congruent/R/C_Dist_100_LN_12_LD_30_RN_13_RD_26_1.png","img2/200/Incongruent/R/I_Dist_200_LN_4_LD_30_RN_1_RD_3_1.png","img2/300/Congruent/R/C_Dist_300_LN_4_LD_20_RN_13_RD_26_1.png","img2/200/Congruent/L/C_Dist_200_LN_7_LD_21_RN_2_RD_15_0.png","img2/300/Congruent/L/C_Dist_300_LN_20_LD_25_RN_14_RD_28_0.png","img2/100/Incongruent/L/I_Dist_100_LN_2_LD_4_RN_8_RD_20_0.png","img2/100/Congruent/L/C_Dist_100_LN_3_LD_6_RN_2_RD_5_0.png","img2/300/Incongruent/L/I_Dist_300_LN_1_LD_2_RN_2_RD_10_0.png","img2/300/Incongruent/L/I_Dist_300_LN_8_LD_10_RN_9_RD_18_0.png","img2/300/Congruent/R/C_Dist_300_LN_7_LD_14_RN_20_RD_25_1.png","img2/100/Congruent/L/C_Dist_100_LN_6_LD_20_RN_5_RD_25_0.png","img2/100/Congruent/L/C_Dist_100_LN_3_LD_6_RN_2_RD_5_0.png","img2/300/Incongruent/R/I_Dist_300_LN_4_LD_20_RN_2_RD_4_1.png","img2/200/Incongruent/R/I_Dist_200_LN_14_LD_30_RN_6_RD_9_1.png"],"dist100_C":[["C_Dist_100_LN_10_LD_25_RN_3_RD_10_0.png","C_Dist_100_LN_11_LD_22_RN_4_RD_10_0.png","C_Dist_100_LN_11_LD_22_RN_6_RD_15_0.png","C_Dist_100_LN_15_LD_25_RN_13_RD_26_0.png","C_Dist_100_LN_3_LD_6_RN_2_RD_5_0.png","C_Dist_100_LN_6_LD_20_RN_5_RD_25_0.png","C_Dist_100_LN_8_LD_16_RN_2_RD_5_0.png","C_Dist_100_LN_9_LD_15_RN_8_RD_16_0.png"],["C_Dist_100_LN_1_LD_2_RN_18_RD_30_1.png","C_Dist_100_LN_1_LD_2_RN_3_RD_5_1.png","C_Dist_100_LN_12_LD_30_RN_13_RD_26_1.png","C_Dist_100_LN_2_LD_5_RN_11_RD_22_1.png","C_Dist_100_LN_2_LD_5_RN_6_RD_12_1.png","C_Dist_100_LN_3_LD_20_RN_4_RD_16_1.png","C_Dist_100_LN_4_LD_10_RN_15_RD_30_1.png","C_Dist_100_LN_4_LD_8_RN_6_RD_10_1.png","C_Dist_100_LN_6_LD_12_RN_15_RD_25_1.png","C_Dist_100_LN_7_LD_14_RN_15_RD_25_1.png","C_Dist_100_LN_7_LD_14_RN_9_RD_15_1.png"]],"dist100_I":[["I_Dist_100_LN_1_LD_2_RN_8_RD_20_0.png","I_Dist_100_LN_2_LD_4_RN_6_RD_15_0.png","I_Dist_100_LN_2_LD_4_RN_8_RD_20_0.png","I_Dist_100_LN_3_LD_5_RN_11_RD_22_0.png","I_Dist_100_LN_3_LD_5_RN_8_RD_16_0.png","I_Dist_100_LN_3_LD_6_RN_4_RD_10_0.png","I_Dist_100_LN_3_LD_9_RN_7_RD_30_0.png","I_Dist_100_LN_4_LD_8_RN_8_RD_20_0.png","I_Dist_100_LN_6_LD_10_RN_11_RD_22_0.png","I_Dist_100_LN_6_LD_10_RN_13_RD_26_0.png","I_Dist_100_LN_6_LD_10_RN_7_RD_14_0.png","I_Dist_100_LN_9_LD_10_RN_20_RD_25_0.png","I_Dist_100_LN_9_LD_15_RN_13_RD_26_0.png","I_Dist_100_LN_9_LD_15_RN_14_RD_28_0.png"],["I_Dist_100_LN_10_LD_25_RN_8_RD_16_1.png","I_Dist_100_LN_10_LD_25_RN_9_RD_18_1.png","I_Dist_100_LN_11_LD_22_RN_9_RD_15_1.png","I_Dist_100_LN_12_LD_24_RN_9_RD_15_1.png","I_Dist_100_LN_12_LD_30_RN_2_RD_4_1.png","I_Dist_100_LN_13_LD_26_RN_12_RD_20_1.png","I_Dist_100_LN_13_LD_26_RN_6_RD_10_1.png","I_Dist_100_LN_17_LD_30_RN_10_RD_15_1.png","I_Dist_100_LN_6_LD_12_RN_3_RD_5_1.png","I_Dist_100_LN_8_LD_16_RN_6_RD_10_1.png","I_Dist_100_LN_8_LD_20_RN_1_RD_2_1.png","I_Dist_100_LN_9_LD_18_RN_6_RD_10_1.png"]],"dist100_S":[["E_Dist_100_LN_2_LD_12_RN_2_RD_30_0.png","E_Dist_100_LN_6_LD_10_RN_6_RD_12_0.png"],["E_Dist_100_LN_6_LD_12_RN_6_RD_10_1.png"]],"dist200_C":[["C_Dist_200_LN_11_LD_22_RN_3_RD_10_0.png","C_Dist_200_LN_12_LD_15_RN_6_RD_10_0.png","C_Dist_200_LN_12_LD_20_RN_6_RD_15_0.png","C_Dist_200_LN_14_LD_28_RN_6_RD_20_0.png","C_Dist_200_LN_15_LD_25_RN_4_RD_10_0.png","C_Dist_200_LN_16_LD_20_RN_12_RD_20_0.png","C_Dist_200_LN_16_LD_30_RN_9_RD_27_0.png","C_Dist_200_LN_20_LD_25_RN_9_RD_15_0.png","C_Dist_200_LN_21_LD_30_RN_2_RD_4_0.png","C_Dist_200_LN_4_LD_10_RN_3_RD_15_0.png","C_Dist_200_LN_4_LD_8_RN_3_RD_10_0.png","C_Dist_200_LN_6_LD_15_RN_3_RD_15_0.png","C_Dist_200_LN_7_LD_21_RN_2_RD_15_0.png","C_Dist_200_LN_8_LD_15_RN_2_RD_6_0.png","C_Dist_200_LN_8_LD_15_RN_3_RD_9_0.png","C_Dist_200_LN_8_LD_15_RN_7_RD_21_0.png","C_Dist_200_LN_9_LD_20_RN_4_RD_16_0.png"],["C_Dist_200_LN_1_LD_2_RN_21_RD_30_1.png","C_Dist_200_LN_13_LD_26_RN_14_RD_20_1.png","C_Dist_200_LN_3_LD_10_RN_11_RD_22_1.png","C_Dist_200_LN_3_LD_10_RN_14_RD_28_1.png","C_Dist_200_LN_3_LD_10_RN_7_RD_14_1.png","C_Dist_200_LN_3_LD_12_RN_9_RD_20_1.png","C_Dist_200_LN_3_LD_6_RN_14_RD_20_1.png","C_Dist_200_LN_5_LD_10_RN_14_RD_20_1.png","C_Dist_200_LN_6_LD_12_RN_7_RD_10_1.png","C_Dist_200_LN_6_LD_20_RN_11_RD_22_1.png","C_Dist_200_LN_7_LD_15_RN_18_RD_27_1.png","C_Dist_200_LN_9_LD_30_RN_13_RD_26_1.png"]],"dist200_I":[["I_Dist_200_LN_1_LD_2_RN_3_RD_10_0.png","I_Dist_200_LN_1_LD_3_RN_2_RD_15_0.png","I_Dist_200_LN_3_LD_4_RN_11_RD_20_0.png","I_Dist_200_LN_4_LD_5_RN_6_RD_10_0.png","I_Dist_200_LN_4_LD_6_RN_14_RD_30_0.png","I_Dist_200_LN_7_LD_10_RN_12_RD_24_0.png","I_Dist_200_LN_7_LD_10_RN_14_RD_28_0.png","I_Dist_200_LN_7_LD_10_RN_8_RD_16_0.png"],["I_Dist_200_LN_11_LD_20_RN_3_RD_4_1.png","I_Dist_200_LN_14_LD_30_RN_12_RD_18_1.png","I_Dist_200_LN_14_LD_30_RN_6_RD_9_1.png","I_Dist_200_LN_3_LD_10_RN_1_RD_2_1.png","I_Dist_200_LN_4_LD_30_RN_1_RD_3_1.png","I_Dist_200_LN_6_LD_20_RN_3_RD_6_1.png","I_Dist_200_LN_7_LD_15_RN_4_RD_6_1.png","I_Dist_200_LN_7_LD_15_RN_6_RD_9_1.png","I_Dist_200_LN_9_LD_15_RN_8_RD_10_1.png"]],"dist200_S":[["E_Dist_200_LN_3_LD_6_RN_3_RD_10_0.png"],["E_Dist_200_LN_3_LD_10_RN_3_RD_6_1.png"]],"dist300_C":[["C_Dist_300_LN_11_LD_22_RN_1_RD_5_0.png","C_Dist_300_LN_11_LD_22_RN_2_RD_10_0.png","C_Dist_300_LN_11_LD_22_RN_4_RD_20_0.png","C_Dist_300_LN_12_LD_24_RN_2_RD_10_0.png","C_Dist_300_LN_18_LD_20_RN_9_RD_15_0.png","C_Dist_300_LN_20_LD_25_RN_13_RD_26_0.png","C_Dist_300_LN_20_LD_25_RN_14_RD_28_0.png","C_Dist_300_LN_20_LD_25_RN_5_RD_10_0.png","C_Dist_300_LN_20_LD_25_RN_8_RD_16_0.png","C_Dist_300_LN_20_LD_25_RN_9_RD_18_0.png","C_Dist_300_LN_24_LD_30_RN_2_RD_4_0.png","C_Dist_300_LN_24_LD_30_RN_8_RD_16_0.png","C_Dist_300_LN_3_LD_6_RN_2_RD_10_0.png","C_Dist_300_LN_4_LD_10_RN_1_RD_10_0.png","C_Dist_300_LN_4_LD_5_RN_2_RD_4_0.png","C_Dist_300_LN_8_LD_16_RN_1_RD_5_0.png","C_Dist_300_LN_9_LD_10_RN_3_RD_5_0.png"],["C_Dist_300_LN_1_LD_20_RN_7_RD_20_1.png","C_Dist_300_LN_1_LD_3_RN_19_RD_30_1.png","C_Dist_300_LN_1_LD_30_RN_8_RD_24_1.png","C_Dist_300_LN_1_LD_5_RN_11_RD_22_1.png","C_Dist_300_LN_1_LD_5_RN_3_RD_6_1.png","C_Dist_300_LN_1_LD_5_RN_6_RD_12_1.png","C_Dist_300_LN_2_LD_10_RN_12_RD_24_1.png","C_Dist_300_LN_2_LD_20_RN_10_RD_25_1.png","C_Dist_300_LN_3_LD_12_RN_11_RD_20_1.png","C_Dist_300_LN_3_LD_6_RN_4_RD_5_1.png","C_Dist_300_LN_4_LD_20_RN_13_RD_26_1.png","C_Dist_300_LN_5_LD_25_RN_6_RD_12_1.png","C_Dist_300_LN_5_LD_25_RN_7_RD_14_1.png","C_Dist_300_LN_7_LD_14_RN_20_RD_25_1.png","C_Dist_300_LN_8_LD_15_RN_10_RD_12_1.png"]],"dist300_I":[["I_Dist_300_LN_1_LD_2_RN_2_RD_10_0.png","I_Dist_300_LN_1_LD_2_RN_3_RD_15_0.png","I_Dist_300_LN_2_LD_4_RN_6_RD_30_0.png","I_Dist_300_LN_3_LD_6_RN_4_RD_20_0.png","I_Dist_300_LN_4_LD_5_RN_6_RD_12_0.png","I_Dist_300_LN_4_LD_5_RN_8_RD_16_0.png","I_Dist_300_LN_7_LD_10_RN_8_RD_20_0.png","I_Dist_300_LN_8_LD_10_RN_14_RD_28_0.png","I_Dist_300_LN_8_LD_10_RN_9_RD_18_0.png"],["I_Dist_300_LN_13_LD_26_RN_12_RD_15_1.png","I_Dist_300_LN_4_LD_20_RN_2_RD_4_1.png"]],"dist300_S":[["E_Dist_300_LN_9_LD_12_RN_9_RD_20_0.png"],["E_Dist_300_LN_18_LD_30_RN_18_RD_20_1.png","E_Dist_300_LN_3_LD_10_RN_3_RD_5_1.png","E_Dist_300_LN_9_LD_20_RN_9_RD_12_1.png"]],"dist500_C":[["C_Dist_500_LN_10_LD_13_RN_7_RD_26_0.png","C_Dist_500_LN_10_LD_15_RN_4_RD_24_0.png","C_Dist_500_LN_12_LD_16_RN_3_RD_12_0.png","C_Dist_500_LN_12_LD_18_RN_4_RD_24_0.png","C_Dist_500_LN_15_LD_18_RN_5_RD_15_0.png","C_Dist_500_LN_15_LD_20_RN_1_RD_4_0.png","C_Dist_500_LN_18_LD_27_RN_1_RD_6_0.png","C_Dist_500_LN_20_LD_24_RN_1_RD_3_0.png","C_Dist_500_LN_20_LD_24_RN_3_RD_9_0.png","C_Dist_500_LN_20_LD_24_RN_7_RD_21_0.png","C_Dist_500_LN_20_LD_28_RN_3_RD_14_0.png","C_Dist_500_LN_21_LD_28_RN_6_RD_24_0.png","C_Dist_500_LN_22_LD_28_RN_2_RD_7_0.png","C_Dist_500_LN_25_LD_30_RN_9_RD_27_0.png","C_Dist_500_LN_4_LD_6_RN_1_RD_6_0.png","C_Dist_500_LN_5_LD_6_RN_2_RD_6_0.png","C_Dist_500_LN_6_LD_9_RN_1_RD_6_0.png","C_Dist_500_LN_7_LD_10_RN_1_RD_5_0.png","C_Dist_500_LN_8_LD_12_RN_1_RD_6_0.png","C_Dist_500_LN_8_LD_12_RN_4_RD_24_0.png"],["C_Dist_500_LN_1_LD_4_RN_12_RD_16_1.png","C_Dist_500_LN_1_LD_4_RN_9_RD_12_1.png","C_Dist_500_LN_1_LD_9_RN_11_RD_18_1.png","C_Dist_500_LN_10_LD_24_RN_22_RD_24_1.png","C_Dist_500_LN_2_LD_12_RN_10_RD_15_1.png","C_Dist_500_LN_2_LD_12_RN_12_RD_18_1.png","C_Dist_500_LN_2_LD_12_RN_4_RD_6_1.png","C_Dist_500_LN_2_LD_24_RN_7_RD_12_1.png","C_Dist_500_LN_2_LD_5_RN_18_RD_20_1.png","C_Dist_500_LN_2_LD_5_RN_9_RD_10_1.png","C_Dist_500_LN_2_LD_8_RN_12_RD_16_1.png","C_Dist_500_LN_2_LD_8_RN_21_RD_28_1.png","C_Dist_500_LN_3_LD_10_RN_4_RD_5_1.png","C_Dist_500_LN_3_LD_12_RN_15_RD_20_1.png","C_Dist_500_LN_3_LD_30_RN_6_RD_10_1.png","C_Dist_500_LN_3_LD_8_RN_14_RD_16_1.png","C_Dist_500_LN_4_LD_16_RN_15_RD_20_1.png","C_Dist_500_LN_4_LD_24_RN_12_RD_18_1.png","C_Dist_500_LN_5_LD_14_RN_6_RD_7_1.png","C_Dist_500_LN_7_LD_21_RN_20_RD_24_1.png","C_Dist_500_LN_7_LD_28_RN_12_RD_16_1.png","C_Dist_500_LN_7_LD_28_RN_9_RD_12_1.png","C_Dist_500_LN_9_LD_27_RN_20_RD_24_1.png"]],"dist500_I":[["I_Dist_500_LN_2_LD_3_RN_4_RD_24_0.png","I_Dist_500_LN_5_LD_6_RN_6_RD_18_0.png","I_Dist_500_LN_7_LD_8_RN_9_RD_24_0.png"],["I_Dist_500_LN_7_LD_21_RN_5_RD_6_1.png"]],"dist500_S":[["E_Dist_500_LN_6_LD_8_RN_6_RD_24_0.png"],["E_Dist_500_LN_2_LD_12_RN_2_RD_3_1.png","E_Dist_500_LN_6_LD_24_RN_6_RD_8_1.png"]]}},{"start_time":1551881901059,"click_time":1551881903188,"finger_time":1551881902427,"fix_duration":867.269067676645,"trial":1,"RT":1368,"MT":761,"sideResp":2,"stimulus":[],"xmouse":[774,774,774,774,774,774,774,774,774,774,774,774,774,774,774,774,774,774,774,774,774,774,774,774,774,774,774,774,774,774,774,774,774,774,774,774,774,774,774,774,774,774,774,774,774,774,774,774,774,774,774,774,774,774,774,774,774,774,774,774,774,774,774,774,774,774,774,774,775,777,779,785,794,822,920,971,1010,1062,1074,1082,1086,1090,1090,1090,1090,1090,1089,1081,1080,1080,1080,1079,1078,1078,1078,1078,1077,1077,1077,1077,1077,1077,1077,1077,1077,1082,1085],"ymouse":[613,613,613,613,613,613,613,613,613,613,613,613,613,613,613,613,613,613,613,613,613,613,613,613,613,613,613,613,613,613,613,613,613,613,613,613,613,613,613,613,613,613,613,613,613,613,613,613,613,613,613,613,613,613,613,613,613,613,613,613,613,613,613,613,613,613,613,576,542,537,534,527,520,502,446,417,386,336,311,291,274,263,255,255,255,255,255,254,254,254,254,252,228,203,179,149,140,134,134,134,134,133,133,131,126,100,73],"timestamp_mouse":[9,38,50,70,88,110,130,149,169,190,210,229,249,269,289,310,329,349,369,390,409,428,449,469,489,509,530,549,570,589,610,629,650,669,690,708,728,748,768,788,808,828,850,870,890,909,930,948,969,989,1010,1029,1050,1069,1089,1110,1128,1149,1170,1190,1209,1230,1250,1270,1290,1310,1330,1348,1368,1388,1410,1430,1449,1470,1489,1508,1530,1549,1569,1589,1609,1629,1649,1669,1689,1709,1730,1749,1769,1788,1810,1828,1849,1870,1889,1909,1930,1949,1969,1989,2009,2029,2050,2069,2089,2110,2128],"xSR":741.5,"ySR":573.95,"xT1":424.9,"yT1":0,"xT2":1058.1,"yT2":0,"toosoon":0,"cond_shown":"Congruent","ratio_trial":100,"L_num":2,"L_den":5,"R_num":6,"R_den":12,"correct_side":2,"subjID":"LauraSofiaGalvisMora7","gender":"1","school":"6","age":"10"},{"start_time":1551881905746,"click_time":1551881907629,"finger_time":1551881907149,"fix_duration":1395.6910649812687,"trial":2,"RT":1403,"MT":480,"sideResp":2,"stimulus":[],"xmouse":[782,782,780,780,778,777,777,777,777,777,777,777,777,777,777,777,777,777,777,777,777,777,777,777,777,777,777,777,777,777,777,777,777,777,777,777,777,777,777,777,777,777,777,777,777,777,777,777,777,777,777,777,777,777,777,777,777,777,777,777,777,777,777,777,777,777,777,777,782,787,793,804,839,892,912,927,940,952,971,978,989,992,1001,1009,1012,1018,1024,1031,1037,1040,1044,1048,1053,1067,1079],"ymouse":[598,598,599,599,601,601,601,601,601,601,601,601,601,601,601,601,601,601,601,601,601,601,601,601,601,601,601,601,601,601,601,601,601,601,601,601,601,601,601,601,601,601,601,601,601,601,601,601,601,601,601,601,601,601,601,601,601,601,601,601,601,601,601,601,601,601,601,599,588,576,561,543,484,387,341,306,278,257,227,218,206,203,189,176,171,164,158,153,147,144,141,137,128,104,91],"timestamp_mouse":[9,23,42,62,82,103,121,142,163,182,202,222,242,262,282,302,323,343,363,382,403,423,443,463,483,502,523,543,561,582,602,623,642,662,683,702,722,743,762,782,803,822,843,862,883,903,923,941,962,982,1002,1023,1042,1062,1082,1101,1122,1143,1162,1182,1202,1222,1242,1263,1283,1303,1322,1342,1362,1382,1403,1422,1442,1462,1483,1502,1522,1542,1561,1582,1602,1622,1643,1662,1682,1701,1723,1741,1761,1782,1802,1822,1842,1862,1883],"xSR":741.5,"ySR":573.95,"xT1":424.9,"yT1":0,"xT2":1058.1,"yT2":0,"toosoon":0,"cond_shown":"Congruent","ratio_trial":300,"L_num":4,"L_den":20,"R_num":13,"R_den":26,"correct_side":2,"subjID":"LauraSofiaGalvisMora7","gender":"1","school":"6","age":"10"},{"start_time":1551881909279,"click_time":1551881912089,"finger_time":1551881910769,"fix_duration":588.5011765085757,"trial":3,"RT":1490,"MT":1320,"sideResp":1,"stimulus":[],"xmouse":[793,793,793,793,793,793,793,793,793,793,793,793,793,793,793,793,793,793,793,793,793,793,793,793,793,793,793,793,793,793,793,793,793,793,793,793,793,793,793,793,793,793,793,793,793,793,793,793,793,793,793,793,793,793,793,793,793,793,793,793,793,793,793,793,793,793,793,793,793,793,793,793,792,790,782,771,759,753,745,737,730,717,712,707,702,694,683,678,669,661,652,639,629,624,616,604,601,600,600,600,600,600,598,596,594,590,588,585,584,584,583,581,579,576,573,571,570,568,568,566,564,564,564,564,564,564,562,556,550,542,537,533,532,532,532,531,529,528,528,528,522],"ymouse":[620,620,620,620,620,620,620,620,620,620,620,620,620,620,620,620,620,620,620,620,620,620,620,620,620,620,620,620,620,620,620,620,620,620,620,620,620,620,620,620,620,620,620,620,620,620,620,620,620,620,620,620,620,620,620,620,620,620,620,620,620,620,620,620,620,620,620,620,620,620,620,620,604,596,570,534,492,471,456,441,429,407,396,385,373,357,331,314,295,275,254,209,174,164,144,124,119,116,116,116,116,116,116,116,114,111,109,107,107,106,106,105,105,105,105,105,105,105,105,105,105,105,105,105,104,101,88,79,71,61,55,50,50,50,50,49,49,48,48,48,48],"timestamp_mouse":[9,29,49,68,92,109,129,148,169,190,209,230,250,270,290,308,330,350,369,390,410,429,449,470,489,509,529,548,570,590,609,630,649,670,688,710,728,749,769,789,809,830,849,870,890,910,929,949,970,989,1009,1029,1048,1069,1090,1110,1130,1150,1169,1190,1210,1229,1250,1270,1289,1310,1330,1350,1369,1389,1409,1429,1450,1470,1490,1510,1529,1549,1569,1590,1609,1630,1648,1669,1690,1710,1729,1750,1769,1790,1809,1829,1849,1868,1889,1910,1929,1950,1969,1989,2008,2030,2049,2069,2089,2109,2128,2149,2170,2189,2209,2229,2249,2270,2289,2310,2328,2349,2369,2390,2409,2429,2448,2469,2489,2510,2529,2549,2569,2589,2609,2629,2656,2669,2690,2710,2729,2749,2769,2789,2810],"xSR":741.5,"ySR":573.95,"xT1":424.9,"yT1":0,"xT2":1058.1,"yT2":0,"toosoon":0,"cond_shown":"Congruent","ratio_trial":100,"L_num":11,"L_den":22,"R_num":6,"R_den":15,"correct_side":1,"subjID":"LauraSofiaGalvisMora7","gender":"1","school":"6","age":"10"},{"start_time":1551881913401,"click_time":1551881915248,"finger_time":1551881914549,"fix_duration":250,"trial":4,"RT":1148,"MT":699,"sideResp":2,"stimulus":[],"xmouse":[765,765,765,765,765,765,765,765,765,765,765,765,765,765,765,765,765,765,765,765,765,765,765,765,765,765,765,765,765,765,765,765,765,765,765,765,765,766,766,766,766,767,767,767,767,767,767,768,768,769,772,774,778,780,783,787,788,790,790,790,791,791,791,791,792,794,797,803,805,813,830,841,853,865,873,890,900,906,913,923,939,944,950,957,965,988,999,1008,1016,1029,1044,1051,1060],"ymouse":[634,634,634,634,634,634,634,634,634,634,634,634,634,634,634,634,634,634,634,634,634,634,634,634,634,634,634,634,634,634,634,634,634,634,634,634,634,634,633,633,631,631,630,630,630,630,630,629,628,625,618,613,605,599,591,579,576,572,570,569,567,567,566,566,564,556,546,529,523,502,461,437,408,376,350,311,294,282,270,253,232,224,215,205,190,153,130,109,91,69,50,35,21],"timestamp_mouse":[9,38,47,67,88,107,128,148,168,187,207,228,247,267,287,307,327,348,367,388,407,427,446,468,488,508,528,547,568,588,608,628,648,668,687,708,728,747,768,787,807,828,846,868,888,907,928,948,967,988,1007,1028,1048,1068,1088,1107,1128,1148,1167,1188,1207,1227,1247,1267,1286,1307,1326,1347,1367,1387,1407,1427,1447,1467,1487,1508,1527,1548,1568,1588,1606,1627,1647,1667,1687,1707,1727,1747,1767,1788,1807,1827,1847],"xSR":741.5,"ySR":573.95,"xT1":424.9,"yT1":0,"xT2":1058.1,"yT2":0,"toosoon":0,"cond_shown":"Congruent","ratio_trial":200,"L_num":5,"L_den":10,"R_num":14,"R_den":20,"correct_side":2,"subjID":"LauraSofiaGalvisMora7","gender":"1","school":"6","age":"10"},{"start_time":1551881917014,"click_time":1551881918928,"finger_time":1551881918389,"fix_duration":623.6248719241248,"trial":5,"RT":1375,"MT":539,"sideResp":1,"stimulus":[],"xmouse":[796,795,795,795,794,794,794,794,794,794,794,793,793,792,791,791,791,791,791,791,791,791,791,791,791,791,791,791,791,791,790,788,788,787,785,782,777,775,773,771,770,768,767,766,766,766,766,766,766,766,766,766,766,766,766,766,766,766,766,766,766,766,766,766,766,765,761,754,747,732,721,709,696,686,670,660,640,620,595,561,551,545,542,538,533,529,525,521,517,507,500,495,489,483,470,465],"ymouse":[635,635,635,632,632,632,632,632,632,632,632,631,630,629,629,629,629,629,629,629,629,629,629,629,629,629,629,629,629,629,627,626,625,625,624,623,620,619,618,615,613,611,610,609,609,609,609,609,609,609,609,609,609,609,609,609,609,609,609,609,609,609,609,609,609,603,596,583,571,541,522,503,484,471,440,419,390,370,354,328,317,309,302,294,280,273,262,252,237,201,183,170,156,141,108,94],"timestamp_mouse":[21,43,55,74,94,115,135,155,175,195,215,234,255,274,294,315,334,354,375,394,414,435,455,474,494,515,534,554,574,594,613,633,654,673,694,714,734,754,774,793,815,834,854,875,895,915,934,955,975,994,1014,1034,1054,1074,1094,1115,1134,1155,1175,1195,1214,1233,1255,1275,1294,1315,1334,1354,1375,1394,1413,1434,1455,1474,1494,1515,1535,1554,1575,1595,1614,1634,1654,1675,1694,1715,1734,1754,1775,1795,1814,1833,1854,1874,1894,1914],"xSR":741.5,"ySR":573.95,"xT1":424.9,"yT1":0,"xT2":1058.1,"yT2":0,"toosoon":0,"cond_shown":"Congruent","ratio_trial":200,"L_num":7,"L_den":21,"R_num":2,"R_den":15,"correct_side":1,"subjID":"LauraSofiaGalvisMora7","gender":"1","school":"6","age":"10"},{"start_time":1551881920350,"click_time":1551881922409,"finger_time":1551881921828,"fix_duration":461.8056085325515,"trial":6,"RT":1478,"MT":581,"sideResp":2,"stimulus":[],"xmouse":[779,779,779,779,779,779,779,779,779,779,779,779,779,779,779,779,779,779,779,779,779,779,779,779,779,779,779,779,779,779,779,779,779,779,779,779,779,779,779,779,779,779,779,779,779,779,779,779,779,779,779,779,779,779,779,779,779,779,779,779,779,779,779,779,779,779,779,779,779,779,780,783,783,789,793,799,806,820,830,845,866,912,964,979,988,995,1001,1014,1020,1027,1031,1032,1034,1038,1039,1041,1045,1051,1053,1054,1055,1058,1070],"ymouse":[611,611,611,611,611,611,611,611,611,611,611,611,611,611,611,611,611,611,611,611,611,611,611,611,611,611,611,611,611,611,611,611,611,611,611,611,611,611,611,611,611,611,611,611,611,611,611,611,611,611,611,611,611,611,611,611,611,611,611,611,611,611,611,611,611,611,610,607,604,598,592,586,580,558,542,523,505,468,447,421,384,318,250,229,212,198,184,163,154,138,129,124,121,113,112,109,105,98,95,94,93,89,73],"timestamp_mouse":[19,40,58,79,98,119,137,158,178,199,219,238,258,279,298,318,338,358,378,398,418,438,459,478,499,518,538,558,578,599,618,639,658,677,698,718,738,759,778,799,819,838,858,878,898,918,938,958,978,998,1018,1038,1057,1079,1099,1118,1138,1158,1178,1199,1218,1238,1258,1278,1298,1319,1338,1359,1378,1398,1418,1437,1458,1478,1498,1518,1538,1558,1579,1599,1619,1638,1658,1678,1698,1717,1738,1757,1778,1798,1818,1839,1858,1879,1898,1919,1938,1958,1978,1998,2018,2039,2058],"xSR":741.5,"ySR":573.95,"xT1":424.9,"yT1":0,"xT2":1058.1,"yT2":0,"toosoon":0,"cond_shown":"Incongruent","ratio_trial":100,"L_num":4,"L_den":8,"R_num":8,"R_den":20,"correct_side":1,"subjID":"LauraSofiaGalvisMora7","gender":"1","school":"6","age":"10"},{"start_time":1551881926357,"click_time":1551881928288,"finger_time":1551881928189,"fix_duration":1188.6280153358769,"trial":7,"RT":1832,"MT":99,"sideResp":1,"stimulus":[],"xmouse":[780,780,780,780,780,780,780,780,780,780,780,780,780,780,780,780,780,780,780,780,780,780,780,780,780,780,780,780,780,780,780,780,780,780,780,780,780,780,780,780,780,780,780,780,780,780,780,780,780,780,780,780,780,780,780,780,780,780,780,780,780,780,780,780,780,780,780,780,780,780,780,780,780,780,780,780,780,780,780,780,780,780,780,780,780,780,780,780,780,779,772,740,671,630,579,531,489],"ymouse":[627,627,627,627,627,627,627,627,627,627,627,627,627,627,627,627,627,627,627,627,627,627,627,627,627,627,627,627,627,627,627,627,627,627,627,627,627,627,627,627,627,627,627,627,627,627,627,627,627,627,627,627,627,627,627,627,627,627,627,627,627,627,627,627,627,627,627,627,627,627,627,627,627,627,627,627,627,627,627,627,627,627,627,627,627,627,627,627,627,624,583,441,273,205,144,85,25],"timestamp_mouse":[11,43,52,72,92,110,132,152,171,191,211,231,250,272,290,311,330,351,371,392,412,432,452,472,492,511,531,551,571,592,612,632,651,670,692,712,731,752,770,792,811,831,852,871,891,912,931,951,972,991,1011,1032,1051,1071,1092,1112,1131,1152,1171,1192,1211,1232,1251,1272,1291,1312,1331,1352,1372,1391,1412,1432,1452,1472,1491,1512,1532,1551,1572,1592,1611,1631,1651,1671,1692,1712,1731,1751,1771,1791,1810,1832,1851,1871,1891,1912,1931],"xSR":741.5,"ySR":573.95,"xT1":424.9,"yT1":0,"xT2":1058.1,"yT2":0,"toosoon":0,"cond_shown":"Incongruent","ratio_trial":200,"L_num":11,"L_den":20,"R_num":3,"R_den":4,"correct_side":2,"subjID":"LauraSofiaGalvisMora7","gender":"1","school":"6","age":"10"},{"start_time":1551881930871,"click_time":1551881932490,"finger_time":1551881932269,"fix_duration":719.855291969405,"trial":8,"RT":1398,"MT":221,"sideResp":1,"stimulus":[],"xmouse":[794,794,794,794,794,794,794,794,793,793,792,791,791,790,789,788,785,784,782,782,782,782,782,782,782,782,782,782,782,782,782,782,782,782,782,782,782,782,780,779,778,776,776,776,776,776,776,776,776,776,776,776,776,776,776,776,776,776,776,776,776,776,776,776,776,772,769,765,760,752,744,723,710,688,664,639,575,536,500,472,463],"ymouse":[628,628,628,627,627,626,622,619,617,616,616,615,614,612,611,609,605,604,602,602,602,602,602,602,602,602,602,602,602,602,602,602,602,602,602,602,602,602,601,601,601,600,600,600,600,600,600,600,600,600,600,600,600,600,600,600,599,599,599,599,599,599,599,599,597,594,590,586,580,567,555,525,509,475,428,366,247,195,154,118,93],"timestamp_mouse":[17,37,57,77,97,118,137,158,177,198,218,238,257,277,298,317,336,358,377,397,418,437,457,477,498,518,538,557,578,597,618,638,657,678,698,718,738,757,778,798,817,837,858,877,898,917,937,957,977,997,1017,1037,1057,1077,1098,1117,1137,1157,1178,1196,1218,1238,1257,1277,1298,1323,1337,1358,1378,1398,1417,1437,1458,1477,1497,1517,1537,1557,1577,1598,1618],"xSR":741.5,"ySR":573.95,"xT1":424.9,"yT1":0,"xT2":1058.1,"yT2":0,"toosoon":0,"cond_shown":"Congruent","ratio_trial":100,"L_num":11,"L_den":22,"R_num":6,"R_den":15,"correct_side":1,"subjID":"LauraSofiaGalvisMora7","gender":"1","school":"6","age":"10"},{"start_time":1551881934342,"click_time":1551881936029,"finger_time":1551881935549,"fix_duration":1032.4103237615152,"trial":9,"RT":1207,"MT":480,"sideResp":1,"stimulus":[],"xmouse":[813,813,813,813,813,813,813,813,813,813,813,813,813,813,813,813,813,813,813,813,813,813,813,813,813,813,813,813,813,812,812,812,812,812,812,812,812,812,812,812,812,812,812,812,810,809,807,805,804,804,804,804,804,804,804,804,804,804,804,795,788,781,772,747,735,723,710,698,673,663,654,641,631,617,612,608,603,597,591,576,557,553,543,530,519],"ymouse":[593,593,593,593,593,593,593,593,593,593,593,593,593,593,593,593,593,593,593,593,593,593,593,593,593,593,593,593,593,593,593,593,593,593,593,593,593,593,593,593,593,593,593,593,593,592,591,589,589,589,589,589,589,589,589,589,589,589,586,578,573,567,558,525,504,483,462,441,398,377,354,320,296,259,241,225,211,197,183,154,128,122,103,78,60],"timestamp_mouse":[9,38,47,65,86,106,127,146,166,186,207,226,246,266,286,306,326,346,366,386,407,426,446,466,486,507,526,546,566,586,605,626,647,665,687,707,726,747,766,786,807,825,847,865,887,907,926,947,966,986,1006,1026,1046,1067,1087,1105,1127,1146,1165,1186,1206,1226,1246,1266,1286,1306,1326,1347,1366,1387,1406,1426,1446,1466,1487,1506,1526,1547,1567,1587,1606,1626,1645,1666,1687],"xSR":741.5,"ySR":573.95,"xT1":424.9,"yT1":0,"xT2":1058.1,"yT2":0,"toosoon":0,"cond_shown":"Congruent","ratio_trial":200,"L_num":12,"L_den":15,"R_num":6,"R_den":10,"correct_side":1,"subjID":"LauraSofiaGalvisMora7","gender":"1","school":"6","age":"10"},{"start_time":1551881937649,"click_time":1551881939709,"finger_time":1551881939208,"fix_duration":738.1984082137805,"trial":10,"RT":1559,"MT":501,"sideResp":1,"stimulus":[],"xmouse":[774,774,774,774,774,774,774,774,774,774,774,774,774,774,774,774,774,774,774,774,774,774,774,774,774,774,774,774,774,774,774,774,774,774,774,774,774,774,774,774,774,774,774,774,774,774,774,774,774,774,774,774,774,774,774,774,774,774,774,774,774,774,774,774,774,774,774,774,774,774,774,774,774,774,774,769,762,751,738,735,731,725,714,684,663,613,568,522,446,425,411,404,401,401,401,402,402,404,410,413,416,417,420,434],"ymouse":[610,610,610,610,610,610,610,610,610,610,610,610,610,610,610,610,610,610,610,610,610,610,610,610,610,610,610,610,610,610,610,610,610,610,610,610,610,610,610,610,610,610,610,610,610,610,610,610,610,610,610,610,610,610,610,610,610,610,610,610,610,610,610,610,610,610,610,610,610,610,610,610,610,610,609,601,591,580,570,568,565,559,547,513,492,428,365,297,192,162,137,115,98,76,71,70,69,65,57,55,53,52,51,49],"timestamp_mouse":[2,19,42,60,80,99,119,140,160,180,199,219,239,260,279,300,320,340,360,378,399,419,438,460,478,499,519,539,560,579,599,619,639,660,680,700,720,740,758,780,799,820,839,859,879,900,919,940,959,980,999,1019,1040,1059,1080,1100,1119,1140,1160,1179,1199,1219,1239,1259,1280,1299,1320,1339,1358,1379,1399,1419,1439,1459,1478,1499,1519,1539,1559,1580,1599,1621,1638,1659,1679,1699,1720,1740,1759,1779,1799,1820,1840,1859,1879,1899,1920,1939,1959,1979,1999,2019,2040,2060],"xSR":741.5,"ySR":573.95,"xT1":424.9,"yT1":0,"xT2":1058.1,"yT2":0,"toosoon":0,"cond_shown":"Congruent","ratio_trial":200,"L_num":16,"L_den":20,"R_num":12,"R_den":20,"correct_side":1,"subjID":"LauraSofiaGalvisMora7","gender":"1","school":"6","age":"10"},{"start_time":1551881941445,"click_time":1551881943108,"finger_time":1551881942808,"fix_duration":654.0687622710537,"trial":11,"RT":1363,"MT":300,"sideResp":2,"stimulus":[],"xmouse":[803,803,803,803,803,803,803,803,803,803,803,803,803,803,803,803,803,803,803,803,803,803,803,803,803,803,803,803,803,803,803,803,803,803,803,803,803,803,803,803,803,803,803,805,805,805,805,806,806,806,806,806,806,806,806,806,806,806,806,806,806,806,806,806,806,806,807,812,825,834,844,858,871,907,925,954,975,991,1014,1022,1031,1040,1047,1065],"ymouse":[628,628,628,628,628,628,628,628,628,628,628,628,628,628,628,628,628,628,628,628,628,628,628,628,628,628,628,628,628,628,628,628,628,628,628,628,628,628,628,628,628,628,628,626,623,623,623,622,622,622,622,622,622,622,622,622,622,622,622,622,622,622,622,622,622,621,615,603,569,549,524,492,460,379,336,274,233,204,156,137,116,95,78,50],"timestamp_mouse":[8,23,43,63,82,103,123,143,163,183,202,223,243,264,283,303,323,343,362,384,404,423,443,463,484,502,524,543,563,584,603,623,643,663,683,704,723,743,763,783,803,823,843,863,884,903,924,943,964,984,1003,1024,1043,1063,1083,1103,1124,1143,1163,1183,1203,1223,1244,1264,1284,1304,1323,1343,1363,1383,1402,1423,1443,1463,1483,1503,1524,1543,1563,1583,1604,1623,1644,1663],"xSR":741.5,"ySR":573.95,"xT1":424.9,"yT1":0,"xT2":1058.1,"yT2":0,"toosoon":0,"cond_shown":"Congruent","ratio_trial":300,"L_num":8,"L_den":15,"R_num":10,"R_den":12,"correct_side":2,"subjID":"LauraSofiaGalvisMora7","gender":"1","school":"6","age":"10"},{"start_time":1551881944789,"click_time":1551881946649,"finger_time":1551881946288,"fix_duration":978.7573292878637,"trial":12,"RT":1499,"MT":361,"sideResp":2,"stimulus":[],"xmouse":[779,779,779,779,779,779,779,779,779,779,779,779,779,779,779,779,779,779,779,779,779,779,779,779,779,779,779,779,779,779,779,779,779,779,779,779,779,779,779,779,779,779,779,779,779,779,779,779,779,779,779,779,779,779,779,779,779,779,779,779,779,779,779,779,779,779,779,779,779,779,779,779,779,780,783,785,787,787,788,789,791,801,809,818,830,848,895,917,938,972,995,1033,1049,1062],"ymouse":[615,615,615,615,615,615,615,615,615,615,615,615,615,615,615,615,615,615,615,615,615,615,615,615,615,615,615,615,615,615,615,615,615,615,615,615,615,615,615,615,615,615,615,615,615,615,615,615,615,615,615,615,615,615,615,615,615,615,615,615,615,615,615,615,615,615,615,612,611,607,604,595,590,585,579,572,565,563,560,558,552,530,511,490,461,418,324,276,238,178,140,83,60,39],"timestamp_mouse":[2,20,46,60,79,99,119,139,159,179,200,218,239,259,279,300,319,339,359,380,400,419,439,460,481,499,519,540,560,578,599,619,639,659,680,700,719,739,760,779,800,820,839,859,878,900,919,939,960,979,999,1020,1038,1059,1080,1100,1119,1139,1159,1180,1198,1220,1239,1259,1279,1299,1319,1339,1359,1379,1399,1418,1439,1460,1479,1499,1519,1540,1560,1579,1600,1618,1640,1659,1679,1699,1719,1739,1760,1779,1799,1820,1839,1859],"xSR":741.5,"ySR":573.95,"xT1":424.9,"yT1":0,"xT2":1058.1,"yT2":0,"toosoon":0,"cond_shown":"Incongruent","ratio_trial":100,"L_num":13,"L_den":26,"R_num":12,"R_den":20,"correct_side":2,"subjID":"LauraSofiaGalvisMora7","gender":"1","school":"6","age":"10"},{"start_time":1551881954340,"click_time":1551881956070,"finger_time":1551881955768,"fix_duration":1090.2972292281936,"trial":13,"RT":1428,"MT":302,"sideResp":1,"stimulus":[],"xmouse":[788,788,788,788,788,788,788,788,788,788,788,788,788,788,788,788,788,788,788,788,788,788,787,784,783,783,783,783,783,783,783,783,783,783,783,783,783,783,783,783,783,783,783,783,783,783,783,783,783,783,783,783,783,783,783,783,783,783,783,783,783,783,783,783,783,783,783,782,781,777,769,753,740,712,689,669,645,626,598,586,575,562,554,542,536,528,520],"ymouse":[623,623,623,623,623,623,623,623,623,623,623,623,623,623,623,623,623,623,623,623,623,622,621,619,619,619,618,618,618,618,618,618,618,618,618,618,618,618,618,618,618,618,618,618,618,618,618,618,618,618,618,618,618,618,618,618,618,618,618,618,618,618,618,618,618,618,618,618,613,605,594,570,550,498,461,422,379,348,296,271,246,210,191,151,128,105,79],"timestamp_mouse":[9,28,48,68,89,109,129,147,168,189,209,228,248,268,288,308,329,349,368,389,408,428,449,468,488,509,529,548,568,587,609,628,648,668,688,708,728,749,768,788,808,829,847,868,888,908,928,948,968,988,1008,1028,1049,1068,1088,1109,1129,1149,1167,1188,1208,1228,1248,1268,1288,1308,1327,1349,1368,1390,1409,1428,1450,1469,1489,1509,1529,1548,1568,1590,1610,1629,1648,1669,1689,1709,1730],"xSR":741.5,"ySR":573.95,"xT1":424.9,"yT1":0,"xT2":1058.1,"yT2":0,"toosoon":0,"cond_shown":"Incongruent","ratio_trial":300,"L_num":8,"L_den":10,"R_num":14,"R_den":28,"correct_side":1,"subjID":"LauraSofiaGalvisMora7","gender":"1","school":"6","age":"10"},{"start_time":1551881958323,"click_time":1551881960789,"finger_time":1551881959750,"fix_duration":1153.1503940103862,"trial":14,"RT":1427,"MT":1039,"sideResp":1,"stimulus":[],"xmouse":[797,797,797,797,796,796,796,795,795,795,795,795,795,795,795,795,795,795,795,795,795,795,795,795,795,795,795,795,795,795,795,795,795,795,795,795,795,795,795,795,795,795,795,795,795,795,795,795,795,795,795,795,795,795,795,795,795,795,795,795,795,795,795,795,795,795,795,795,794,794,794,794,800,808,823,827,829,830,830,830,830,830,830,830,822,814,806,799,791,773,769,768,768,768,768,768,768,768,768,768,768,768,759,745,715,691,659,618,571,510,493,483,482,482,482,482,482,485,488,495,496,498,499,500],"ymouse":[629,627,625,625,624,624,624,623,623,623,623,623,623,623,623,623,623,623,623,623,623,623,623,623,623,623,623,623,623,623,623,623,623,623,623,623,623,623,623,623,623,623,623,623,623,623,623,623,623,623,623,623,623,623,623,623,623,623,623,623,623,623,623,623,623,623,620,616,610,595,584,571,537,514,462,444,429,422,419,419,419,419,419,418,424,431,443,455,470,507,521,536,547,561,572,574,576,576,576,576,576,576,566,549,505,463,409,354,303,231,205,173,164,140,130,128,128,127,125,117,113,104,102,96],"timestamp_mouse":[9,26,46,68,86,105,126,145,165,186,206,227,245,265,286,305,327,345,365,385,406,426,446,466,485,506,527,546,566,586,606,627,645,667,686,707,726,746,766,786,806,827,845,865,886,905,926,946,966,986,1006,1025,1046,1066,1085,1106,1126,1147,1167,1185,1207,1226,1247,1265,1285,1305,1326,1346,1365,1386,1406,1427,1446,1466,1486,1507,1525,1545,1565,1585,1606,1626,1646,1666,1685,1706,1725,1746,1765,1786,1806,1825,1846,1867,1886,1906,1925,1946,1967,1985,2006,2025,2047,2066,2085,2106,2126,2146,2165,2186,2206,2226,2245,2266,2286,2307,2326,2346,2367,2386,2406,2425,2446,2466],"xSR":741.5,"ySR":573.95,"xT1":424.9,"yT1":0,"xT2":1058.1,"yT2":0,"toosoon":0,"cond_shown":"Congruent","ratio_trial":300,"L_num":12,"L_den":24,"R_num":2,"R_den":10,"correct_side":1,"subjID":"LauraSofiaGalvisMora7","gender":"1","school":"6","age":"10"},{"start_time":1551881962505,"click_time":1551881964948,"finger_time":1551881963909,"fix_duration":795.2204300646288,"trial":15,"RT":1404,"MT":1039,"sideResp":1,"stimulus":[],"xmouse":[790,790,790,790,790,790,790,790,790,790,790,790,790,790,790,790,790,790,790,790,790,790,790,790,790,790,790,790,790,790,790,790,790,790,790,790,790,790,790,790,790,790,790,790,790,790,790,790,790,790,790,790,790,790,790,790,790,790,790,790,790,790,790,790,790,790,790,790,790,785,768,757,742,728,709,683,668,652,630,607,579,576,574,571,568,561,558,557,557,557,557,557,557,557,557,557,557,557,557,557,558,558,559,559,560,561,561,562,562,562,562,562,562,562,562,562,562,562,561,560,544,525,498],"ymouse":[642,642,642,642,642,642,642,642,642,642,642,642,642,642,642,642,642,642,642,642,640,638,637,637,637,636,636,636,636,636,636,636,636,636,636,636,636,636,636,636,636,636,636,636,636,636,636,636,636,636,636,636,636,636,636,636,636,636,636,636,636,636,636,636,636,636,636,629,626,611,564,540,519,499,465,401,359,314,265,223,175,165,159,149,140,124,119,117,117,117,117,117,117,117,117,117,117,117,117,118,119,120,122,123,124,126,126,127,127,127,127,127,127,127,127,127,127,127,126,124,109,99,88],"timestamp_mouse":[9,23,47,63,85,104,125,144,165,183,205,224,243,264,285,304,323,345,365,384,404,424,443,464,484,504,523,545,563,584,604,625,644,664,683,704,724,743,764,785,804,825,843,865,883,905,923,944,964,984,1003,1025,1045,1064,1083,1105,1123,1145,1164,1184,1204,1225,1243,1265,1284,1303,1324,1344,1364,1385,1404,1423,1443,1463,1484,1504,1524,1544,1564,1583,1604,1624,1644,1664,1684,1703,1723,1743,1765,1784,1804,1824,1845,1864,1884,1904,1924,1945,1964,1983,2004,2024,2044,2065,2084,2103,2124,2144,2163,2183,2203,2224,2244,2264,2283,2304,2324,2344,2364,2384,2404,2424,2443],"xSR":741.5,"ySR":573.95,"xT1":424.9,"yT1":0,"xT2":1058.1,"yT2":0,"toosoon":0,"cond_shown":"Incongruent","ratio_trial":100,"L_num":3,"L_den":9,"R_num":7,"R_den":30,"correct_side":1,"subjID":"LauraSofiaGalvisMora7","gender":"1","school":"6","age":"10"},{"start_time":1551881966146,"click_time":1551881968109,"finger_time":1551881967808,"fix_duration":277.9647270491492,"trial":16,"RT":1662,"MT":301,"sideResp":1,"stimulus":[],"xmouse":[825,825,825,825,825,825,825,825,825,825,825,825,825,825,825,825,825,825,825,825,824,824,823,823,822,822,822,822,822,822,822,822,822,822,821,821,821,821,821,821,821,821,821,821,821,821,821,821,821,821,821,821,821,821,821,821,821,821,821,821,821,821,821,821,821,821,821,821,821,821,821,821,821,821,821,821,821,821,821,815,809,796,778,754,738,712,677,647,607,590,573,557,538,519,515,510,506,503,494],"ymouse":[633,633,633,633,633,633,633,633,633,633,634,634,635,637,638,638,638,638,638,638,638,639,640,640,641,641,641,641,641,641,641,641,641,641,641,641,641,641,642,642,642,642,642,642,642,642,642,642,642,642,642,642,642,642,642,642,642,642,642,642,642,642,642,642,642,642,642,642,642,642,642,642,642,642,642,642,642,642,642,637,630,616,589,543,505,446,382,327,249,225,202,184,161,135,127,119,113,105,88],"timestamp_mouse":[10,34,43,62,82,104,122,144,163,183,203,223,242,263,283,303,324,343,364,383,404,423,443,464,483,503,523,542,562,583,602,624,643,664,683,704,723,743,764,782,802,823,842,863,883,903,923,942,962,982,1002,1024,1043,1063,1083,1103,1122,1144,1164,1183,1202,1222,1243,1263,1284,1302,1323,1343,1364,1383,1402,1424,1444,1463,1483,1504,1522,1544,1562,1584,1603,1623,1643,1662,1683,1703,1724,1743,1763,1783,1803,1822,1843,1863,1883,1902,1924,1944,1963],"xSR":741.5,"ySR":573.95,"xT1":424.9,"yT1":0,"xT2":1058.1,"yT2":0,"toosoon":0,"cond_shown":"Congruent","ratio_trial":200,"L_num":7,"L_den":21,"R_num":2,"R_den":15,"correct_side":1,"subjID":"LauraSofiaGalvisMora7","gender":"1","school":"6","age":"10"},{"start_time":1551881969367,"click_time":1551881971109,"finger_time":1551881970829,"fix_duration":336.42063779707286,"trial":17,"RT":1462,"MT":280,"sideResp":1,"stimulus":[],"xmouse":[780,780,780,780,780,780,780,780,780,780,780,780,780,780,780,780,780,780,780,780,780,780,780,780,780,780,780,780,780,780,780,780,780,780,780,780,780,780,780,780,780,780,780,780,780,780,780,780,780,780,780,780,780,780,780,780,780,780,780,780,780,780,780,780,780,780,780,780,778,774,773,771,762,757,751,738,723,678,658,639,620,594,565,553,542,530,517,498],"ymouse":[616,616,616,616,616,616,616,616,616,616,616,616,616,616,616,616,616,616,616,616,616,616,616,616,616,616,616,616,616,616,616,616,616,616,616,616,616,616,616,616,616,616,616,616,616,616,616,616,616,616,616,616,616,616,616,616,616,616,616,616,616,616,616,616,616,616,616,616,615,607,604,599,575,559,538,511,481,404,374,348,327,294,247,222,196,169,134,88],"timestamp_mouse":[8,21,41,61,81,103,123,142,163,181,201,222,243,263,283,302,321,343,363,382,402,421,441,462,482,502,522,542,562,583,601,623,641,661,682,702,722,742,762,782,802,821,843,862,882,902,921,942,962,982,1001,1021,1043,1062,1081,1103,1121,1142,1162,1181,1202,1222,1242,1263,1282,1302,1322,1342,1363,1382,1403,1423,1441,1462,1483,1502,1522,1542,1562,1582,1601,1622,1641,1663,1682,1702,1723,1742],"xSR":741.5,"ySR":573.95,"xT1":424.9,"yT1":0,"xT2":1058.1,"yT2":0,"toosoon":0,"cond_shown":"Congruent","ratio_trial":100,"L_num":8,"L_den":16,"R_num":2,"R_den":5,"correct_side":1,"subjID":"LauraSofiaGalvisMora7","gender":"1","school":"6","age":"10"},{"start_time":1551881972534,"click_time":1551881974209,"finger_time":1551881973989,"fix_duration":705.6728180906063,"trial":18,"RT":1455,"MT":220,"sideResp":1,"stimulus":[],"xmouse":[773,773,773,773,773,773,773,773,773,773,772,772,772,772,772,772,772,772,772,772,772,772,772,772,772,772,772,772,772,772,772,772,772,772,772,772,772,772,772,772,772,772,772,772,772,772,772,772,772,772,772,772,772,772,772,772,772,772,772,772,772,772,772,772,772,772,772,772,772,772,772,768,759,738,719,690,653,570,533,506,497,497,497,497],"ymouse":[612,612,612,612,612,612,612,612,612,612,611,611,611,611,611,611,611,611,611,611,611,611,611,611,611,611,611,611,611,611,611,611,611,611,611,611,611,611,611,611,611,611,611,611,611,611,611,611,611,611,611,611,611,611,611,611,611,611,611,611,611,611,611,611,611,611,611,611,611,609,606,594,573,527,486,438,374,254,193,143,120,105,102,84],"timestamp_mouse":[15,40,55,75,95,114,135,154,174,194,215,234,254,275,295,315,335,354,376,396,415,435,455,474,496,516,535,555,576,595,616,636,654,675,695,716,736,756,774,796,815,835,855,876,895,915,935,955,976,995,1015,1035,1056,1076,1094,1115,1135,1155,1176,1196,1216,1235,1255,1275,1295,1316,1335,1356,1375,1394,1415,1435,1455,1474,1494,1515,1535,1556,1575,1595,1615,1635,1655,1675],"xSR":741.5,"ySR":573.95,"xT1":424.9,"yT1":0,"xT2":1058.1,"yT2":0,"toosoon":0,"cond_shown":"Congruent","ratio_trial":300,"L_num":4,"L_den":10,"R_num":1,"R_den":10,"correct_side":1,"subjID":"LauraSofiaGalvisMora7","gender":"1","school":"6","age":"10"},{"start_time":1551881977505,"click_time":1551881980529,"finger_time":1551881980008,"fix_duration":953.5877868812902,"trial":19,"RT":2503,"MT":521,"sideResp":2,"stimulus":[],"xmouse":[784,784,784,784,784,784,784,784,784,784,784,784,784,784,784,784,784,784,784,784,784,784,784,784,784,784,784,784,784,784,784,784,784,784,784,784,784,784,784,784,784,784,784,784,784,784,784,784,784,784,784,784,784,784,784,784,784,784,784,784,784,784,784,784,784,784,784,784,784,784,784,784,784,784,784,784,784,784,784,784,784,784,784,784,784,784,784,784,784,784,784,784,784,784,784,784,784,784,784,784,784,784,784,784,784,784,784,784,784,784,784,784,784,784,784,784,784,784,784,784,784,784,789,804,836,879,894,914,938,968,1022,1045,1058,1065,1071,1073,1074,1074,1074,1074,1069,1069,1069,1069,1069,1071,1071,1071,1072,1074,1083,1084],"ymouse":[627,627,627,627,627,627,627,627,627,627,627,627,627,627,627,627,627,627,627,627,627,627,627,627,627,627,627,627,627,627,627,627,627,627,627,627,627,627,627,627,627,627,627,627,627,627,627,627,627,627,627,627,627,627,627,627,627,627,627,627,627,627,627,627,627,627,627,627,627,627,627,627,627,627,627,627,627,627,627,627,627,627,627,627,627,627,627,627,627,627,627,627,627,627,627,627,627,627,627,627,627,627,627,627,627,627,627,627,627,627,627,627,627,627,627,627,627,627,627,627,627,626,621,606,582,545,522,495,465,433,371,342,322,304,286,268,253,235,216,195,164,157,151,144,137,126,124,123,122,120,107,93],"timestamp_mouse":[9,33,43,64,84,103,124,145,163,184,205,225,244,264,284,305,324,345,363,385,403,424,444,464,485,503,524,543,564,585,603,625,645,663,684,704,725,745,764,785,804,824,843,864,885,904,924,944,963,985,1003,1023,1044,1064,1085,1103,1125,1143,1164,1185,1203,1223,1244,1264,1285,1304,1324,1345,1365,1383,1404,1424,1445,1464,1485,1504,1525,1544,1564,1585,1604,1625,1643,1663,1685,1705,1725,1743,1764,1785,1804,1825,1844,1864,1885,1904,1924,1944,1964,1983,2003,2025,2044,2064,2083,2105,2125,2143,2163,2184,2205,2225,2244,2265,2284,2305,2324,2344,2363,2385,2405,2424,2443,2464,2483,2503,2524,2545,2564,2584,2604,2623,2643,2665,2684,2704,2724,2743,2765,2784,2804,2825,2844,2864,2884,2905,2924,2943,2963,2983,3004,3024],"xSR":741.5,"ySR":573.95,"xT1":424.9,"yT1":0,"xT2":1058.1,"yT2":0,"toosoon":0,"cond_shown":"Incongruent","ratio_trial":300,"L_num":4,"L_den":20,"R_num":2,"R_den":4,"correct_side":2,"subjID":"LauraSofiaGalvisMora7","gender":"1","school":"6","age":"10"},{"start_time":1551881981796,"click_time":1551881983669,"finger_time":1551881983169,"fix_duration":505.3211574691889,"trial":20,"RT":1373,"MT":500,"sideResp":2,"stimulus":[],"xmouse":[814,814,814,814,814,814,814,814,814,814,814,814,814,814,814,814,814,814,814,814,813,812,812,812,812,812,812,812,812,812,812,812,812,812,812,812,812,812,812,812,812,812,812,812,812,812,812,812,812,812,812,812,812,812,812,812,812,812,812,812,812,812,812,812,812,812,813,816,820,831,853,864,874,887,902,927,937,943,953,963,987,997,1006,1014,1029,1038,1046,1051,1052,1052,1059,1066,1073,1080],"ymouse":[626,626,626,625,624,623,623,623,623,623,623,623,623,623,623,623,623,623,623,623,620,618,618,618,618,617,617,617,617,617,617,617,617,617,617,617,617,617,617,617,617,617,617,617,617,617,617,617,617,617,615,614,613,613,613,613,613,613,613,613,612,611,610,609,607,598,592,582,568,532,459,421,385,356,325,286,273,263,243,226,192,178,167,158,142,135,128,126,125,125,119,113,105,98],"timestamp_mouse":[22,45,52,72,93,114,133,153,174,192,213,234,252,274,293,312,333,353,372,393,413,433,452,473,493,514,533,553,572,592,612,634,653,673,693,712,734,753,774,793,814,834,854,874,893,913,933,953,974,992,1013,1033,1053,1073,1092,1112,1134,1152,1173,1194,1214,1233,1253,1273,1294,1312,1334,1352,1373,1392,1413,1433,1453,1474,1493,1513,1533,1554,1574,1593,1612,1634,1654,1673,1694,1712,1732,1753,1774,1793,1813,1834,1854,1872],"xSR":741.5,"ySR":573.95,"xT1":424.9,"yT1":0,"xT2":1058.1,"yT2":0,"toosoon":0,"cond_shown":"Incongruent","ratio_trial":100,"L_num":8,"L_den":20,"R_num":1,"R_den":2,"correct_side":2,"subjID":"LauraSofiaGalvisMora7","gender":"1","school":"6","age":"10"},{"start_time":1551881984921,"click_time":1551881987009,"finger_time":1551881986548,"fix_duration":250,"trial":21,"RT":1627,"MT":461,"sideResp":2,"stimulus":[],"xmouse":[796,796,796,796,796,796,796,796,796,796,796,796,796,796,796,796,796,796,796,796,796,796,796,796,796,796,796,796,796,796,796,796,796,796,796,796,796,796,796,796,796,796,796,796,796,796,796,796,796,796,796,796,796,796,796,796,796,796,796,796,796,796,796,796,796,796,796,796,796,796,796,797,799,800,801,801,801,802,805,811,817,824,836,854,894,921,950,977,1054,1096,1128,1146,1154,1155,1155,1155,1155,1155,1155,1155,1155,1155,1155,1155,1155],"ymouse":[619,619,619,619,619,619,619,619,619,618,618,618,618,618,618,618,618,618,618,618,618,618,618,618,618,618,618,618,618,618,618,618,618,618,618,618,618,618,618,618,618,618,618,618,618,618,618,618,618,618,618,618,618,618,618,618,618,618,618,618,618,618,618,618,618,618,618,618,618,618,617,617,614,612,610,609,608,606,601,588,579,566,547,517,446,399,348,300,198,158,130,115,109,108,108,108,108,108,108,108,108,108,108,104,99],"timestamp_mouse":[9,27,48,67,88,127,127,148,169,188,209,229,248,268,288,307,327,348,368,388,408,428,448,468,488,508,528,547,568,588,608,627,648,668,687,708,728,749,767,787,807,829,847,868,888,907,928,947,967,987,1008,1029,1047,1068,1087,1109,1127,1147,1168,1188,1208,1227,1247,1268,1287,1308,1328,1348,1369,1387,1408,1428,1447,1468,1488,1508,1529,1548,1568,1588,1608,1627,1649,1668,1689,1708,1729,1749,1768,1787,1808,1828,1849,1868,1888,1907,1927,1949,1968,1988,2008,2027,2048,2069,2087],"xSR":741.5,"ySR":573.95,"xT1":424.9,"yT1":0,"xT2":1058.1,"yT2":0,"toosoon":0,"cond_shown":"Incongruent","ratio_trial":200,"L_num":4,"L_den":30,"R_num":1,"R_den":3,"correct_side":2,"subjID":"LauraSofiaGalvisMora7","gender":"1","school":"6","age":"10"},{"start_time":1551881989430,"click_time":1551881992049,"finger_time":1551881991589,"fix_duration":1279.6464560309914,"trial":22,"RT":2159,"MT":460,"sideResp":2,"stimulus":[],"xmouse":[764,764,764,764,764,764,764,764,764,764,764,764,764,764,764,764,764,764,764,764,764,764,764,764,764,764,764,764,764,764,764,764,764,764,764,764,764,764,764,764,764,764,764,764,764,764,764,764,764,764,764,764,764,764,764,764,764,764,764,764,764,764,764,764,764,764,764,764,764,764,764,764,764,764,764,764,764,764,764,764,764,764,764,764,764,764,764,764,764,764,764,764,764,764,764,764,764,764,764,764,764,764,764,764,766,768,771,775,812,844,880,913,938,982,1013,1046,1074,1101,1122,1124,1125,1127,1131,1143,1145,1145,1145,1145,1145,1145,1145],"ymouse":[609,609,609,609,609,609,609,609,609,609,609,609,609,609,609,609,609,609,609,609,609,609,609,609,609,609,609,609,609,609,608,608,608,608,608,608,608,608,608,608,608,608,608,608,608,608,608,608,608,608,608,608,608,608,608,608,608,608,608,608,608,608,608,608,608,608,608,608,608,608,608,608,608,608,608,608,608,608,608,608,608,608,608,608,608,608,608,608,608,608,608,608,608,608,608,608,608,608,608,608,608,608,608,603,595,586,577,566,497,441,377,312,255,153,92,41,0,0,0,0,0,0,0,0,0,0,0,0,0,0,3],"timestamp_mouse":[20,42,59,79,98,120,139,160,180,199,219,239,260,278,298,318,340,359,379,399,419,438,460,479,499,519,539,560,579,600,619,639,659,678,700,720,738,759,779,798,819,839,858,879,899,919,940,958,979,999,1020,1039,1058,1080,1100,1119,1139,1158,1179,1199,1219,1239,1258,1279,1300,1320,1338,1359,1379,1398,1419,1439,1460,1480,1499,1520,1539,1559,1580,1598,1619,1639,1659,1679,1699,1718,1740,1759,1779,1799,1819,1839,1859,1879,1899,1919,1938,1960,1978,1999,2018,2039,2058,2079,2100,2119,2138,2159,2180,2199,2220,2240,2258,2279,2299,2319,2339,2359,2378,2398,2418,2438,2460,2479,2499,2520,2539,2559,2579,2598,2619],"xSR":741.5,"ySR":573.95,"xT1":424.9,"yT1":0,"xT2":1058.1,"yT2":0,"toosoon":0,"cond_shown":"Incongruent","ratio_trial":100,"L_num":6,"L_den":12,"R_num":3,"R_den":5,"correct_side":2,"subjID":"LauraSofiaGalvisMora7","gender":"1","school":"6","age":"10"},{"start_time":1551881996226,"click_time":1551881997708,"finger_time":1551881997609,"fix_duration":994.129532132737,"trial":23,"RT":1383,"MT":99,"sideResp":2,"stimulus":[],"xmouse":[777,777,777,777,777,777,777,777,777,777,777,777,777,777,777,777,777,777,777,777,777,777,777,777,777,777,777,777,777,777,777,777,777,777,777,777,777,777,777,777,777,777,777,777,777,777,777,777,777,777,777,777,777,777,777,777,777,777,777,777,777,777,777,777,777,777,780,785,794,834,875,921,974,1034,1146],"ymouse":[624,624,624,624,624,624,624,624,624,624,624,624,624,624,624,624,624,624,624,624,624,624,624,624,624,624,624,624,624,624,624,624,624,624,624,624,624,624,624,624,624,624,624,624,624,624,624,624,624,624,624,624,624,624,624,624,624,624,624,624,624,624,624,624,624,624,619,609,590,522,459,389,315,233,85],"timestamp_mouse":[9,33,42,62,83,103,123,142,163,182,203,224,244,263,283,304,324,343,363,384,402,422,443,463,482,502,523,543,563,582,603,622,643,662,682,703,723,742,763,783,803,823,842,863,882,904,923,943,962,983,1004,1024,1043,1063,1082,1103,1123,1144,1162,1182,1204,1223,1243,1264,1283,1302,1323,1344,1364,1383,1403,1423,1444,1463,1482],"xSR":741.5,"ySR":573.95,"xT1":424.9,"yT1":0,"xT2":1058.1,"yT2":0,"toosoon":0,"cond_shown":"Incongruent","ratio_trial":300,"L_num":13,"L_den":26,"R_num":12,"R_den":15,"correct_side":2,"subjID":"LauraSofiaGalvisMora7","gender":"1","school":"6","age":"10"},{"start_time":1551882001021,"click_time":1551882003409,"finger_time":1551882003129,"fix_duration":1171.4965079199617,"trial":24,"RT":2108,"MT":280,"sideResp":2,"stimulus":[],"xmouse":[774,774,774,774,774,774,774,774,774,774,774,774,774,774,774,774,774,774,774,774,774,774,774,774,774,774,774,774,774,774,774,774,774,774,774,774,774,774,774,774,774,774,774,774,774,774,774,774,774,774,774,774,774,774,774,774,774,774,774,774,774,774,774,774,774,774,774,774,774,774,774,774,774,774,774,774,774,774,774,774,774,774,774,774,774,774,774,774,774,774,774,774,774,774,774,774,774,774,774,773,774,774,776,779,789,798,813,848,882,959,996,1033,1062,1085,1117,1128,1132,1136,1144,1154],"ymouse":[614,614,614,614,614,614,614,614,614,614,614,614,614,614,614,614,614,614,614,614,614,614,614,614,614,614,614,614,614,614,614,614,614,614,614,614,614,614,614,614,614,614,614,614,614,614,614,614,614,614,614,614,614,614,614,614,614,614,614,614,614,614,614,614,614,614,614,614,614,614,614,614,614,614,614,614,614,614,614,614,614,614,614,614,614,614,614,614,614,614,614,614,614,614,614,614,614,614,614,612,611,609,604,598,579,566,544,495,445,338,286,234,193,159,123,117,114,110,102,87],"timestamp_mouse":[9,28,49,68,88,109,128,149,168,187,207,228,248,267,289,308,329,347,369,387,408,428,447,468,488,508,527,549,567,588,607,629,647,667,688,709,728,748,769,787,807,828,847,867,889,909,927,947,969,987,1007,1028,1048,1068,1087,1107,1127,1148,1168,1189,1208,1227,1249,1267,1287,1308,1327,1348,1368,1389,1408,1427,1448,1468,1489,1509,1528,1549,1568,1587,1609,1628,1648,1668,1688,1708,1727,1748,1767,1787,1807,1827,1849,1868,1888,1907,1927,1949,1967,1987,2008,2028,2047,2068,2088,2108,2128,2147,2168,2188,2208,2227,2247,2269,2288,2307,2327,2348,2368,2388],"xSR":741.5,"ySR":573.95,"xT1":424.9,"yT1":0,"xT2":1058.1,"yT2":0,"toosoon":0,"cond_shown":"Congruent","ratio_trial":100,"L_num":6,"L_den":20,"R_num":5,"R_den":25,"correct_side":1,"subjID":"LauraSofiaGalvisMora7","gender":"1","school":"6","age":"10"},{"start_time":1551882007740,"click_time":1551882009470,"finger_time":1551882009289,"fix_duration":969.15702003437,"trial":25,"RT":1549,"MT":181,"sideResp":1,"stimulus":[],"xmouse":[796,792,791,783,780,780,779,778,772,770,770,770,770,770,770,770,770,770,770,770,770,770,770,770,770,770,770,770,770,770,770,770,770,770,770,770,770,770,770,770,770,770,770,770,770,770,770,770,770,770,770,770,770,770,770,770,770,770,770,770,770,770,770,770,770,770,770,770,770,770,770,770,770,770,770,770,770,766,759,754,749,742,718,632,584,530,481],"ymouse":[612,611,611,609,608,608,608,607,603,603,602,602,602,602,602,602,602,602,602,602,602,602,602,602,602,602,602,602,602,602,602,602,602,602,602,602,602,602,602,602,602,602,602,602,602,602,602,602,602,602,602,602,602,602,602,602,602,602,602,602,602,602,602,602,602,602,602,602,602,602,602,602,602,602,602,596,591,572,534,516,504,490,447,324,241,145,53],"timestamp_mouse":[12,29,48,70,88,108,129,149,169,189,209,228,249,270,288,308,328,350,369,389,410,428,448,469,489,510,528,548,569,589,609,629,649,670,689,710,730,749,768,789,808,830,849,869,889,909,928,949,969,990,1009,1028,1049,1070,1088,1108,1129,1149,1169,1189,1208,1230,1248,1269,1290,1308,1328,1349,1369,1389,1409,1430,1448,1468,1490,1510,1529,1549,1569,1589,1608,1628,1649,1669,1689,1709,1730],"xSR":741.5,"ySR":573.95,"xT1":424.9,"yT1":0,"xT2":1058.1,"yT2":0,"toosoon":0,"cond_shown":"Congruent","ratio_trial":100,"L_num":1,"L_den":2,"R_num":3,"R_den":5,"correct_side":2,"subjID":"LauraSofiaGalvisMora7","gender":"1","school":"6","age":"10"},{"start_time":1551882011316,"click_time":1551882012929,"finger_time":1551882012708,"fix_duration":686.6857981376345,"trial":26,"RT":1392,"MT":221,"sideResp":2,"stimulus":[],"xmouse":[811,811,811,811,811,811,811,811,811,811,811,811,811,811,811,811,811,811,811,811,811,810,809,809,808,807,806,806,806,806,806,806,806,806,806,806,806,806,806,806,806,806,806,806,806,806,806,806,806,806,806,806,806,806,806,806,806,806,806,806,806,806,806,806,806,806,805,805,805,815,827,839,869,896,957,984,1006,1028,1047,1080,1088],"ymouse":[618,621,623,623,623,623,623,623,623,623,623,623,623,623,623,623,623,623,623,623,625,626,626,627,628,629,630,630,630,630,630,630,630,630,630,630,630,630,630,630,630,630,630,630,630,630,630,630,630,630,630,630,630,630,630,630,630,630,630,630,630,630,630,630,630,630,628,620,608,554,520,484,422,375,287,253,217,178,144,100,87],"timestamp_mouse":[13,33,58,73,92,113,134,153,173,193,212,234,253,272,293,312,333,353,373,393,412,434,453,473,494,513,533,552,572,594,614,633,654,672,693,713,732,754,773,792,813,833,853,873,894,913,933,953,973,993,1012,1034,1053,1073,1092,1112,1133,1152,1172,1193,1214,1232,1253,1274,1293,1313,1333,1354,1373,1392,1413,1432,1452,1474,1493,1513,1532,1554,1573,1593,1613],"xSR":741.5,"ySR":573.95,"xT1":424.9,"yT1":0,"xT2":1058.1,"yT2":0,"toosoon":0,"cond_shown":"Congruent","ratio_trial":200,"L_num":3,"L_den":6,"R_num":14,"R_den":20,"correct_side":2,"subjID":"LauraSofiaGalvisMora7","gender":"1","school":"6","age":"10"},{"start_time":1551882014640,"click_time":1551882017109,"finger_time":1551882016809,"fix_duration":750.9354319147328,"trial":27,"RT":2169,"MT":300,"sideResp":2,"stimulus":[],"xmouse":[797,797,797,797,797,797,797,797,797,797,797,797,797,797,797,797,797,797,797,797,797,797,797,797,797,797,797,797,797,797,797,797,797,797,797,797,797,797,797,797,797,797,797,797,797,797,797,797,797,797,797,797,797,797,797,797,797,797,797,797,797,797,797,797,797,797,797,797,797,797,797,797,797,797,797,797,797,797,797,797,797,797,797,797,797,797,797,797,797,797,797,797,797,797,797,797,797,797,797,797,797,797,797,797,798,803,809,816,831,842,857,882,909,957,973,991,1000,1007,1019,1022,1024,1029,1039,1070],"ymouse":[653,653,653,653,653,653,653,653,653,653,653,653,653,653,653,653,653,653,653,653,653,653,653,653,653,653,653,653,653,653,653,653,653,653,653,653,653,653,653,653,653,653,653,653,653,653,653,653,653,653,653,653,653,653,653,653,653,653,653,653,653,653,653,653,653,653,653,653,653,653,653,653,653,653,653,653,653,653,653,653,653,653,653,653,653,653,653,653,653,653,653,653,653,653,653,653,653,653,653,653,653,653,653,653,646,632,619,603,567,542,512,470,422,328,288,232,195,165,130,123,119,111,98,48],"timestamp_mouse":[12,29,50,70,89,109,130,149,168,188,209,230,248,269,288,310,329,349,370,390,409,429,448,469,489,508,530,550,568,589,610,628,649,670,689,709,729,750,769,789,808,828,848,870,889,908,929,950,968,990,1010,1028,1048,1069,1089,1109,1129,1148,1170,1188,1208,1230,1248,1269,1288,1309,1329,1348,1368,1388,1410,1430,1448,1469,1490,1509,1528,1550,1568,1590,1609,1629,1649,1669,1690,1709,1728,1750,1770,1788,1808,1830,1850,1869,1889,1909,1928,1949,1970,1989,2009,2028,2049,2069,2089,2108,2130,2150,2169,2189,2209,2229,2248,2268,2288,2308,2330,2350,2368,2388,2409,2429,2450,2469],"xSR":741.5,"ySR":573.95,"xT1":424.9,"yT1":0,"xT2":1058.1,"yT2":0,"toosoon":0,"cond_shown":"Incongruent","ratio_trial":100,"L_num":10,"L_den":25,"R_num":9,"R_den":18,"correct_side":2,"subjID":"LauraSofiaGalvisMora7","gender":"1","school":"6","age":"10"},{"start_time":1551882018682,"click_time":1551882020408,"finger_time":1551882020069,"fix_duration":352.8540347207413,"trial":28,"RT":1387,"MT":339,"sideResp":1,"stimulus":[],"xmouse":[818,817,816,816,816,816,816,816,816,816,816,816,816,816,816,816,816,816,816,816,816,816,816,816,816,816,816,816,816,816,816,816,816,816,816,816,816,816,816,816,816,816,816,816,816,816,816,816,816,816,816,816,816,816,816,816,816,816,816,816,816,816,816,816,816,816,804,785,764,742,723,698,688,671,665,647,623,613,602,591,582,571,563,551,535,527,522],"ymouse":[608,608,608,608,607,607,607,607,607,607,607,607,607,607,607,607,607,607,607,607,607,607,607,607,607,607,607,607,607,607,607,607,607,607,607,607,607,607,607,607,607,607,607,607,607,607,607,607,607,607,607,607,607,607,607,607,607,607,607,607,607,607,607,607,607,607,599,587,574,560,544,512,495,467,456,422,380,360,339,315,287,219,179,146,109,91,67],"timestamp_mouse":[8,27,59,67,88,106,127,147,167,187,207,226,248,268,288,307,326,347,366,387,406,427,447,466,486,506,527,547,568,587,607,628,646,666,686,707,727,748,768,787,806,826,847,866,888,908,927,947,968,987,1007,1027,1047,1068,1086,1108,1128,1147,1167,1186,1207,1228,1248,1266,1287,1307,1326,1347,1366,1387,1408,1427,1447,1466,1486,1508,1527,1547,1567,1587,1607,1627,1647,1667,1687,1706,1726],"xSR":741.5,"ySR":573.95,"xT1":424.9,"yT1":0,"xT2":1058.1,"yT2":0,"toosoon":0,"cond_shown":"Congruent","ratio_trial":300,"L_num":20,"L_den":25,"R_num":8,"R_den":16,"correct_side":1,"subjID":"LauraSofiaGalvisMora7","gender":"1","school":"6","age":"10"},{"start_time":1551882021841,"click_time":1551882023388,"finger_time":1551882023289,"fix_duration":250,"trial":29,"RT":1448,"MT":99,"sideResp":2,"stimulus":[],"xmouse":[789,789,789,789,789,789,789,789,789,789,789,789,789,789,789,789,789,789,789,789,789,789,789,789,789,789,789,789,789,789,789,789,789,789,789,789,789,789,789,789,789,789,789,789,789,789,789,789,789,789,789,789,789,789,789,789,789,789,789,789,789,789,789,789,789,789,789,789,789,789,789,794,808,892,962,983,1047,1083],"ymouse":[599,599,599,599,599,599,599,599,599,599,599,599,599,599,599,599,599,599,599,599,599,599,599,599,599,599,599,599,599,599,599,599,599,599,599,599,599,599,599,599,599,599,599,599,599,599,599,599,599,599,599,599,599,599,599,599,599,599,599,599,599,599,599,599,599,599,599,599,599,599,595,584,556,431,314,274,142,59],"timestamp_mouse":[10,39,48,67,89,108,128,148,167,187,209,228,249,268,288,308,328,348,368,388,408,429,448,467,488,508,529,547,567,589,609,627,647,668,688,708,728,749,769,787,808,827,847,867,888,909,927,948,967,988,1007,1027,1048,1068,1087,1107,1128,1148,1167,1188,1208,1228,1247,1269,1287,1307,1329,1348,1368,1388,1409,1428,1448,1467,1487,1508,1528,1547],"xSR":741.5,"ySR":573.95,"xT1":424.9,"yT1":0,"xT2":1058.1,"yT2":0,"toosoon":0,"cond_shown":"Incongruent","ratio_trial":300,"L_num":13,"L_den":26,"R_num":12,"R_den":15,"correct_side":2,"subjID":"LauraSofiaGalvisMora7","gender":"1","school":"6","age":"10"},{"start_time":1551882025130,"click_time":1551882026908,"finger_time":1551882026508,"fix_duration":919.0600817399878,"trial":30,"RT":1378,"MT":400,"sideResp":1,"stimulus":[],"xmouse":[791,791,791,791,791,791,791,791,791,791,791,791,791,791,791,791,791,791,791,791,791,791,793,793,794,794,794,794,794,794,794,794,794,794,794,794,794,794,794,794,794,794,794,794,794,794,794,794,794,794,794,794,794,794,794,794,794,794,794,794,794,794,794,794,794,794,794,794,791,776,759,716,682,639,576,558,550,544,543,543,539,539,539,539,539,538,535,529,526,521],"ymouse":[599,599,599,599,599,599,599,599,599,599,599,599,599,599,599,599,599,599,599,599,599,599,599,599,600,600,601,601,601,601,601,601,601,601,601,601,601,601,601,601,601,601,601,601,601,601,601,601,601,601,601,601,601,601,601,601,601,601,601,601,601,601,601,601,601,601,596,589,576,543,505,402,316,229,84,29,6,0,0,0,0,0,0,0,0,0,8,23,35,45],"timestamp_mouse":[1,20,39,61,79,98,120,138,159,178,199,219,239,259,280,299,319,338,360,379,398,419,439,459,479,499,520,538,560,578,599,619,640,658,680,698,719,738,759,780,799,818,840,859,879,899,918,940,959,979,999,1019,1039,1060,1079,1098,1120,1139,1159,1178,1200,1219,1240,1259,1279,1299,1318,1339,1360,1378,1399,1419,1440,1460,1479,1498,1519,1539,1560,1580,1599,1620,1639,1660,1680,1698,1719,1740,1760,1778],"xSR":741.5,"ySR":573.95,"xT1":424.9,"yT1":0,"xT2":1058.1,"yT2":0,"toosoon":0,"cond_shown":"Incongruent","ratio_trial":100,"L_num":2,"L_den":4,"R_num":8,"R_den":20,"correct_side":1,"subjID":"LauraSofiaGalvisMora7","gender":"1","school":"6","age":"10"},{"start_time":1551882029199,"click_time":1551882030870,"finger_time":1551882030570,"fix_duration":1189.1844504103804,"trial":31,"RT":1371,"MT":300,"sideResp":2,"stimulus":[],"xmouse":[806,806,806,806,806,806,806,806,806,806,806,806,806,806,806,806,806,806,806,806,806,806,806,806,806,806,806,806,806,806,806,806,806,806,806,806,806,806,806,806,806,806,806,806,806,806,806,806,806,806,806,806,806,806,806,806,806,806,806,806,806,806,806,806,806,806,806,806,811,818,837,850,863,877,891,921,950,959,978,988,1006,1023,1049,1075],"ymouse":[626,626,626,626,626,626,626,626,626,626,626,626,626,626,626,626,626,626,626,626,626,626,626,626,626,626,626,626,626,626,626,626,626,626,626,626,626,626,626,626,626,626,626,626,626,626,626,626,626,626,626,626,626,626,626,626,626,626,626,626,626,626,626,625,623,615,608,597,573,551,500,470,441,408,376,310,260,244,211,196,161,133,93,57],"timestamp_mouse":[11,39,51,71,90,110,129,151,169,189,210,230,250,269,290,310,329,349,370,390,409,429,449,470,490,510,529,549,569,590,611,629,650,670,690,710,729,751,769,790,810,830,850,870,890,909,930,949,970,991,1009,1030,1049,1070,1091,1109,1131,1150,1171,1191,1210,1230,1249,1270,1291,1310,1329,1349,1371,1390,1409,1430,1450,1470,1490,1509,1529,1550,1570,1589,1609,1630,1651,1671],"xSR":741.5,"ySR":573.95,"xT1":424.9,"yT1":0,"xT2":1058.1,"yT2":0,"toosoon":0,"cond_shown":"Congruent","ratio_trial":200,"L_num":7,"L_den":15,"R_num":18,"R_den":27,"correct_side":2,"subjID":"LauraSofiaGalvisMora7","gender":"1","school":"6","age":"10"},{"start_time":1551882032825,"click_time":1551882034570,"finger_time":1551882034229,"fix_duration":815.1560182610081,"trial":32,"RT":1404,"MT":341,"sideResp":1,"stimulus":[],"xmouse":[782,782,782,782,782,782,782,782,782,782,782,782,782,782,782,782,782,782,782,782,782,782,782,782,782,782,782,782,782,782,782,782,782,782,782,782,782,782,782,782,782,782,782,782,782,782,782,782,782,782,782,782,782,782,782,782,783,783,783,783,783,783,783,783,783,783,783,782,782,771,760,746,735,719,681,649,637,612,600,585,578,572,564,557,546,536,531,518],"ymouse":[618,618,618,618,618,618,618,618,618,618,618,618,618,618,618,618,618,618,618,618,618,618,618,618,618,618,618,618,618,618,618,618,618,618,618,618,618,618,618,618,618,618,618,618,618,618,618,618,618,618,618,618,618,618,618,618,616,615,613,613,613,613,613,613,613,613,613,609,607,585,566,541,515,477,389,309,284,228,201,153,130,109,94,78,55,39,34,20],"timestamp_mouse":[8,37,44,65,85,104,124,144,164,185,204,223,244,264,285,303,323,345,364,384,404,424,444,464,484,503,524,544,564,583,603,624,645,663,685,704,725,743,764,785,803,823,844,863,884,903,924,943,964,985,1004,1023,1045,1063,1084,1104,1123,1145,1164,1183,1204,1224,1245,1263,1284,1304,1323,1344,1365,1383,1404,1423,1445,1464,1484,1503,1523,1544,1564,1583,1604,1624,1645,1664,1684,1703,1725,1745],"xSR":741.5,"ySR":573.95,"xT1":424.9,"yT1":0,"xT2":1058.1,"yT2":0,"toosoon":0,"cond_shown":"Incongruent","ratio_trial":200,"L_num":1,"L_den":2,"R_num":3,"R_den":10,"correct_side":1,"subjID":"LauraSofiaGalvisMora7","gender":"1","school":"6","age":"10"},{"start_time":1551882035860,"click_time":1551882037369,"finger_time":1551882037170,"fix_duration":250,"trial":33,"RT":1310,"MT":199,"sideResp":2,"stimulus":[],"xmouse":[796,796,796,796,796,796,796,796,796,796,796,796,796,796,796,796,796,796,796,796,796,796,796,796,796,796,796,796,796,796,796,796,796,796,796,796,796,796,796,796,796,796,796,796,796,796,796,796,796,796,796,796,796,796,796,796,796,796,797,798,800,801,804,805,807,810,814,833,850,883,927,968,1017,1042,1052,1084],"ymouse":[611,611,611,611,611,611,611,611,611,611,611,611,611,611,611,611,611,611,611,611,611,611,611,611,611,611,611,611,611,611,611,611,611,611,611,611,611,611,611,611,611,611,611,611,611,611,611,611,611,611,611,611,611,611,611,611,611,611,609,603,598,593,586,585,579,573,562,531,500,451,395,347,283,232,204,96],"timestamp_mouse":[12,42,49,68,88,110,129,149,169,189,210,230,248,268,289,308,329,348,368,389,409,430,448,469,488,510,528,548,569,589,609,628,650,669,689,709,728,750,768,789,808,830,850,869,889,909,928,948,970,989,1009,1030,1048,1070,1088,1109,1130,1148,1169,1189,1210,1228,1249,1269,1289,1310,1330,1349,1369,1389,1408,1430,1448,1469,1490,1509],"xSR":741.5,"ySR":573.95,"xT1":424.9,"yT1":0,"xT2":1058.1,"yT2":0,"toosoon":0,"cond_shown":"Incongruent","ratio_trial":200,"L_num":14,"L_den":30,"R_num":12,"R_den":18,"correct_side":2,"subjID":"LauraSofiaGalvisMora7","gender":"1","school":"6","age":"10"},{"start_time":1551882039900,"click_time":1551882041670,"finger_time":1551882041289,"fix_duration":250,"trial":34,"RT":1389,"MT":381,"sideResp":2,"stimulus":[],"xmouse":[774,774,774,774,774,774,774,774,774,774,774,774,774,774,774,774,774,774,774,774,774,774,774,774,774,774,774,774,774,774,774,774,774,774,774,774,774,774,774,774,774,774,774,774,774,774,774,774,774,774,774,774,774,774,774,774,774,774,774,774,774,774,774,774,774,774,774,774,799,825,864,867,869,875,881,893,899,905,918,945,1007,1029,1046,1054,1063,1071,1075,1086,1099],"ymouse":[640,640,640,640,640,640,640,640,640,640,640,640,640,640,640,640,640,640,640,640,640,640,640,640,640,640,640,640,640,640,640,640,640,640,640,640,640,640,640,640,640,640,640,640,640,640,640,640,640,640,640,640,640,640,640,640,640,640,640,640,640,640,640,640,640,640,640,640,608,558,478,463,445,421,406,374,351,315,253,184,41,0,0,0,0,0,0,0,2],"timestamp_mouse":[11,41,49,69,88,108,129,149,168,188,208,229,249,269,289,310,328,349,369,389,409,429,449,468,489,509,528,549,569,588,609,629,648,668,690,709,730,748,768,789,809,829,850,869,889,909,928,949,969,988,1008,1029,1049,1068,1088,1109,1129,1148,1169,1188,1210,1230,1248,1270,1289,1308,1328,1350,1369,1389,1409,1430,1449,1469,1489,1509,1529,1549,1570,1588,1609,1629,1649,1669,1689,1709,1728,1748,1769],"xSR":741.5,"ySR":573.95,"xT1":424.9,"yT1":0,"xT2":1058.1,"yT2":0,"toosoon":0,"cond_shown":"Congruent","ratio_trial":300,"L_num":8,"L_den":15,"R_num":10,"R_den":12,"correct_side":2,"subjID":"LauraSofiaGalvisMora7","gender":"1","school":"6","age":"10"},{"start_time":1551882043934,"click_time":1551882045708,"finger_time":1551882045269,"fix_duration":1083.1803534743183,"trial":35,"RT":1335,"MT":439,"sideResp":2,"stimulus":[],"xmouse":[789,788,788,788,788,788,788,788,788,788,788,788,788,788,788,788,788,788,788,788,788,788,788,788,788,788,788,788,788,788,788,788,788,788,788,788,788,788,788,788,788,788,788,788,788,788,788,788,788,788,788,788,788,788,788,788,788,788,788,788,788,788,788,789,797,808,828,856,942,996,1075,1130,1186,1245,1256,1264,1270,1271,1272,1272,1272,1268,1266,1253,1243,1229,1208,1179,1135],"ymouse":[616,611,610,610,610,610,610,610,610,610,610,610,610,610,610,610,610,610,610,610,610,610,610,610,610,610,610,610,610,610,610,610,610,610,610,610,610,610,610,610,610,610,610,610,610,610,610,610,610,610,610,610,610,610,610,610,610,610,610,610,610,610,610,607,598,586,566,533,424,365,279,224,178,121,100,83,66,52,36,33,30,25,24,22,22,22,23,28,33],"timestamp_mouse":[16,35,54,75,95,115,136,155,176,194,216,234,254,274,295,316,334,354,374,395,415,434,454,475,495,515,536,555,575,595,616,635,655,675,695,715,735,755,776,795,815,835,856,876,895,915,936,956,974,995,1015,1035,1055,1075,1096,1115,1134,1156,1174,1195,1216,1235,1255,1275,1295,1315,1335,1356,1375,1395,1415,1434,1455,1474,1495,1514,1536,1556,1575,1595,1615,1634,1655,1675,1694,1715,1735,1754,1774],"xSR":741.5,"ySR":573.95,"xT1":424.9,"yT1":0,"xT2":1058.1,"yT2":0,"toosoon":0,"cond_shown":"Congruent","ratio_trial":300,"L_num":3,"L_den":12,"R_num":11,"R_den":20,"correct_side":2,"subjID":"LauraSofiaGalvisMora7","gender":"1","school":"6","age":"10"},{"start_time":1551882047061,"click_time":1551882048890,"finger_time":1551882048570,"fix_duration":250,"trial":36,"RT":1509,"MT":320,"sideResp":1,"stimulus":[],"xmouse":[789,789,789,789,789,789,789,789,789,789,789,789,789,789,789,789,789,789,789,789,789,789,789,789,789,789,789,789,789,789,789,789,789,789,789,789,789,789,789,789,789,789,789,789,789,789,789,789,789,789,789,789,789,789,789,789,789,789,789,789,789,789,789,789,789,789,789,789,789,789,787,787,786,785,784,776,758,679,634,611,595,579,558,550,545,535,525,505,495,491,487,483],"ymouse":[607,607,607,607,607,607,607,607,607,607,607,607,607,607,607,607,607,607,607,607,607,607,607,607,607,607,607,607,607,607,607,607,607,607,607,607,607,607,607,607,607,607,607,607,607,607,607,607,607,607,607,607,607,607,607,607,607,607,607,607,607,607,607,607,607,607,607,607,607,607,604,602,598,592,586,550,507,386,323,292,271,252,227,218,212,201,188,153,136,125,112,99],"timestamp_mouse":[8,29,51,69,87,108,128,149,168,189,207,227,248,267,287,308,328,348,369,387,407,427,447,469,488,508,528,548,567,588,607,627,649,668,688,708,729,747,768,787,809,827,848,869,887,908,929,948,969,988,1008,1028,1048,1068,1087,1107,1127,1147,1168,1189,1209,1229,1248,1267,1287,1308,1328,1348,1368,1388,1407,1427,1447,1467,1487,1509,1528,1549,1568,1588,1607,1628,1647,1667,1688,1709,1728,1747,1768,1788,1808,1828],"xSR":741.5,"ySR":573.95,"xT1":424.9,"yT1":0,"xT2":1058.1,"yT2":0,"toosoon":0,"cond_shown":"Incongruent","ratio_trial":100,"L_num":9,"L_den":10,"R_num":20,"R_den":25,"correct_side":1,"subjID":"LauraSofiaGalvisMora7","gender":"1","school":"6","age":"10"},{"start_time":1551882050344,"click_time":1551882051708,"finger_time":1551882051468,"fix_duration":494.53674285396886,"trial":37,"RT":1124,"MT":240,"sideResp":2,"stimulus":[],"xmouse":[803,803,803,803,803,803,803,803,803,803,803,803,803,803,803,803,803,803,803,803,803,803,803,803,803,803,803,803,803,803,803,803,803,803,803,803,803,803,803,803,803,803,803,803,803,803,803,803,803,803,803,805,806,811,816,821,829,838,861,874,886,907,925,978,1009,1036,1057,1071,1094],"ymouse":[612,612,612,612,612,612,612,612,612,612,612,612,612,612,612,612,612,612,612,612,612,612,612,612,612,612,612,612,612,612,612,612,612,612,612,612,612,612,612,612,612,612,612,612,612,612,612,612,612,612,612,612,611,599,587,575,562,546,505,480,457,421,388,291,228,180,145,115,72],"timestamp_mouse":[6,24,44,64,84,106,125,144,165,184,204,224,246,265,286,305,325,346,365,385,406,424,444,464,484,506,524,544,565,586,606,625,646,665,684,705,726,744,764,786,804,826,845,864,886,904,926,946,964,984,1005,1025,1045,1066,1085,1104,1124,1145,1165,1185,1205,1226,1245,1264,1284,1306,1325,1344,1364],"xSR":741.5,"ySR":573.95,"xT1":424.9,"yT1":0,"xT2":1058.1,"yT2":0,"toosoon":0,"cond_shown":"Congruent","ratio_trial":200,"L_num":13,"L_den":26,"R_num":14,"R_den":20,"correct_side":2,"subjID":"LauraSofiaGalvisMora7","gender":"1","school":"6","age":"10"},{"start_time":1551882053671,"click_time":1551882055649,"finger_time":1551882055028,"fix_duration":981.7201413201891,"trial":38,"RT":1357,"MT":621,"sideResp":2,"stimulus":[],"xmouse":[791,790,790,790,790,790,790,790,790,790,790,790,790,790,790,790,790,790,790,790,790,790,790,790,790,790,790,790,790,790,790,790,790,790,789,789,789,789,789,789,789,789,789,789,789,789,789,789,789,789,789,789,789,789,789,789,789,789,789,789,789,789,789,789,789,789,789,792,797,803,809,826,831,833,833,833,833,833,833,833,833,833,833,833,833,833,834,840,848,856,868,886,971,1001,1024,1037,1055,1058,1060],"ymouse":[615,615,615,615,615,615,615,615,615,615,615,615,615,615,615,615,615,615,615,615,615,615,615,615,615,615,615,615,615,615,615,615,615,615,614,613,612,611,611,611,611,611,611,611,611,611,611,611,611,611,611,611,611,611,611,611,611,611,611,611,611,611,611,609,603,597,581,569,556,542,528,499,488,485,484,484,484,484,484,484,484,484,484,484,484,484,481,471,456,442,424,399,281,232,181,140,62,42,27],"timestamp_mouse":[17,45,59,78,98,119,139,158,178,199,217,239,258,278,298,317,338,358,377,397,417,438,459,477,498,517,537,558,578,599,619,638,658,678,699,717,738,758,779,797,817,838,859,878,898,917,937,959,977,999,1018,1039,1059,1079,1098,1119,1137,1159,1179,1197,1218,1238,1257,1277,1297,1317,1338,1357,1377,1399,1419,1438,1457,1478,1497,1517,1538,1558,1579,1598,1619,1638,1658,1678,1698,1718,1738,1757,1778,1798,1817,1837,1858,1879,1897,1917,1938,1957,1977],"xSR":741.5,"ySR":573.95,"xT1":424.9,"yT1":0,"xT2":1058.1,"yT2":0,"toosoon":0,"cond_shown":"Congruent","ratio_trial":300,"L_num":2,"L_den":20,"R_num":10,"R_den":25,"correct_side":2,"subjID":"LauraSofiaGalvisMora7","gender":"1","school":"6","age":"10"},{"start_time":1551882056580,"click_time":1551882058329,"finger_time":1551882058009,"fix_duration":250,"trial":39,"RT":1429,"MT":320,"sideResp":1,"stimulus":[],"xmouse":[762,762,762,762,762,762,762,762,762,762,762,762,762,762,762,762,762,762,762,762,762,762,762,762,762,762,762,762,762,762,762,762,762,762,762,762,762,762,762,762,762,762,762,762,762,762,762,762,762,762,762,762,762,762,762,762,762,762,762,762,762,762,762,762,762,762,762,762,762,756,750,719,704,689,675,665,645,632,599,573,549,506,490,480,471,461,440,433],"ymouse":[609,609,609,609,609,609,609,609,609,609,609,609,609,609,609,609,609,609,609,609,609,609,609,609,609,609,609,609,609,609,609,609,609,609,609,609,609,609,609,609,609,609,609,609,609,609,609,609,609,609,609,609,609,609,609,609,609,609,609,609,609,609,609,609,609,609,609,609,609,609,607,593,586,578,565,553,517,490,428,376,326,243,214,194,174,151,106,84],"timestamp_mouse":[9,29,51,68,88,110,128,149,168,188,209,230,249,269,290,309,328,350,370,389,409,429,448,468,489,510,529,550,569,588,608,629,648,668,689,709,730,748,770,789,809,829,849,869,890,909,929,950,968,989,1008,1028,1049,1069,1090,1108,1128,1149,1170,1190,1208,1228,1248,1270,1289,1309,1328,1349,1370,1389,1409,1429,1449,1469,1490,1510,1529,1548,1568,1588,1609,1629,1648,1668,1688,1709,1728,1748],"xSR":741.5,"ySR":573.95,"xT1":424.9,"yT1":0,"xT2":1058.1,"yT2":0,"toosoon":0,"cond_shown":"Incongruent","ratio_trial":200,"L_num":4,"L_den":5,"R_num":6,"R_den":10,"correct_side":1,"subjID":"LauraSofiaGalvisMora7","gender":"1","school":"6","age":"10"},{"start_time":1551882060461,"click_time":1551882062009,"finger_time":1551882061629,"fix_duration":1131.742980131691,"trial":40,"RT":1168,"MT":380,"sideResp":1,"stimulus":[],"xmouse":[803,803,803,803,803,803,803,803,803,803,803,803,803,803,803,803,803,803,803,803,803,803,803,803,803,803,803,803,803,803,803,803,803,803,803,803,803,803,803,803,803,803,803,803,803,803,803,803,803,803,803,803,803,802,801,798,794,783,777,770,763,757,746,739,731,722,703,679,665,651,634,624,600,580,574,553,541,520],"ymouse":[607,607,607,607,607,607,607,607,607,607,607,607,607,607,607,607,607,607,607,607,607,607,607,607,607,607,607,607,607,607,607,607,607,607,607,607,607,607,607,607,607,607,607,607,607,607,607,607,607,607,607,607,607,607,605,600,594,578,569,559,549,541,523,514,502,489,460,418,392,360,324,298,246,208,197,160,137,94],"timestamp_mouse":[7,30,48,68,88,108,129,148,168,187,207,227,249,267,288,308,329,348,369,388,407,427,448,467,488,508,529,548,569,587,609,629,649,669,688,708,727,748,768,787,807,827,847,867,889,908,928,948,968,987,1008,1027,1048,1068,1088,1108,1129,1147,1168,1187,1207,1229,1248,1268,1289,1308,1327,1347,1367,1388,1409,1427,1447,1467,1488,1507,1529,1548],"xSR":741.5,"ySR":573.95,"xT1":424.9,"yT1":0,"xT2":1058.1,"yT2":0,"toosoon":0,"cond_shown":"Congruent","ratio_trial":200,"L_num":21,"L_den":30,"R_num":2,"R_den":4,"correct_side":1,"subjID":"LauraSofiaGalvisMora7","gender":"1","school":"6","age":"10"},{"start_time":1551882063993,"click_time":1551882065769,"finger_time":1551882065429,"fix_duration":1002.2917028203402,"trial":41,"RT":1436,"MT":340,"sideResp":1,"stimulus":[],"xmouse":[792,792,792,792,792,792,792,792,792,792,792,792,792,792,792,792,792,792,792,792,792,792,792,792,792,792,792,792,792,792,792,792,792,792,792,792,792,792,792,792,792,792,792,792,792,792,792,792,792,792,792,792,792,792,792,792,792,792,792,792,792,792,792,792,792,792,792,792,792,790,782,778,770,761,750,729,707,683,649,609,519,488,477,474,474,474,473,473,473],"ymouse":[587,587,587,587,587,587,587,587,587,587,587,587,587,587,587,587,587,587,587,587,587,587,587,587,587,587,587,587,587,587,587,587,587,587,587,587,587,587,587,587,587,587,587,587,587,587,587,587,587,587,587,587,587,587,587,587,587,587,587,587,587,587,587,587,587,587,587,587,586,584,575,569,559,549,534,501,460,410,349,282,175,146,130,122,117,108,104,101,98],"timestamp_mouse":[16,36,56,75,96,116,135,157,177,195,215,236,255,275,295,317,335,357,376,395,415,435,457,477,496,515,536,555,575,596,615,636,657,676,697,716,735,756,775,795,815,836,856,877,896,916,935,956,977,996,1016,1036,1055,1077,1097,1116,1136,1156,1175,1196,1216,1236,1255,1277,1295,1316,1337,1357,1376,1395,1416,1436,1456,1476,1495,1516,1535,1556,1576,1595,1615,1635,1655,1676,1696,1716,1735,1755,1776],"xSR":741.5,"ySR":573.95,"xT1":424.9,"yT1":0,"xT2":1058.1,"yT2":0,"toosoon":0,"cond_shown":"Incongruent","ratio_trial":200,"L_num":4,"L_den":6,"R_num":14,"R_den":30,"correct_side":1,"subjID":"LauraSofiaGalvisMora7","gender":"1","school":"6","age":"10"},{"start_time":1551882067853,"click_time":1551882069689,"finger_time":1551882069290,"fix_duration":903.1517990237967,"trial":42,"RT":1437,"MT":399,"sideResp":2,"stimulus":[],"xmouse":[786,785,784,784,784,783,783,783,783,783,783,783,783,783,783,783,783,783,783,783,783,783,783,783,783,783,783,783,783,783,783,783,783,783,783,783,783,783,783,783,783,783,783,783,783,783,783,783,783,783,783,783,783,783,783,783,783,783,783,783,783,783,783,783,783,783,783,783,783,783,784,790,803,812,823,850,877,942,961,973,980,983,999,1010,1023,1040,1050,1062,1066,1070,1076,1082],"ymouse":[591,591,591,591,591,591,591,591,591,591,591,591,591,591,591,591,591,591,591,591,591,591,591,591,591,591,591,591,591,591,591,591,591,591,591,591,591,591,591,591,591,591,591,591,591,591,591,591,591,591,591,591,591,591,591,591,591,591,591,591,591,591,591,591,591,591,591,591,590,581,574,561,535,519,500,451,403,305,276,260,251,244,221,205,188,163,149,131,124,117,105,92],"timestamp_mouse":[16,37,55,76,96,116,137,155,175,197,215,236,257,276,297,315,336,356,377,397,416,437,456,475,497,515,535,556,576,596,615,637,656,675,697,715,735,756,776,797,815,835,856,875,896,916,936,955,975,997,1015,1036,1055,1076,1096,1115,1136,1155,1176,1195,1217,1236,1256,1275,1295,1315,1337,1356,1375,1397,1417,1437,1456,1476,1496,1516,1536,1555,1575,1596,1616,1636,1655,1676,1696,1716,1735,1755,1775,1796,1817,1836],"xSR":741.5,"ySR":573.95,"xT1":424.9,"yT1":0,"xT2":1058.1,"yT2":0,"toosoon":0,"cond_shown":"Congruent","ratio_trial":200,"L_num":9,"L_den":30,"R_num":13,"R_den":26,"correct_side":2,"subjID":"LauraSofiaGalvisMora7","gender":"1","school":"6","age":"10"},{"start_time":1551882071171,"click_time":1551882073349,"finger_time":1551882071369,"fix_duration":562.7006859140852,"trial":43,"RT":198,"MT":1980,"sideResp":1,"stimulus":[],"xmouse":[781,780,780,779,779,779,779,779,779,779,779,779,779,779,779,779,779,779,779,779,779,779,779,779,778,778,778,778,778,778,778,778,778,778,778,778,778,778,778,778,778,778,778,778,778,778,778,778,778,778,778,778,778,778,778,778,778,777,776,774,771,759,749,741,733,724,712,711,709,707,707,707,707,707,707,707,707,707,707,708,708,708,708,708,708,708,703,693,688,668,637,585,580,578,578,578,578,578,578,578,578,578,578,578,578,577,563,541,516],"ymouse":[586,582,582,579,579,579,579,578,577,572,568,565,565,564,564,564,564,564,564,564,564,570,576,584,593,602,616,621,626,628,629,629,629,629,629,629,629,629,629,629,629,629,629,629,629,629,629,629,629,629,629,627,624,620,618,617,616,615,612,609,604,590,581,573,569,562,550,546,542,541,541,541,541,541,541,541,541,541,541,541,541,541,540,528,510,489,448,414,399,328,250,127,103,90,85,84,84,84,84,84,84,84,84,84,84,82,74,67,59],"timestamp_mouse":[17,50,58,77,99,118,137,159,178,198,218,237,258,278,299,318,337,358,378,397,418,438,458,478,498,518,538,558,577,597,619,638,658,677,698,719,738,759,778,798,817,839,857,877,899,918,938,957,978,998,1018,1038,1058,1079,1098,1118,1137,1158,1177,1198,1218,1237,1257,1279,1298,1317,1337,1358,1378,1397,1418,1438,1458,1478,1497,1519,1538,1559,1578,1597,1618,1638,1658,1677,1697,1719,1738,1758,1777,1797,1819,1839,1858,1877,1897,1918,1938,1958,1978,1997,2019,2038,2058,2078,2098,2118,2137,2157,2177],"xSR":741.5,"ySR":573.95,"xT1":424.9,"yT1":0,"xT2":1058.1,"yT2":0,"toosoon":0,"cond_shown":"Incongruent","ratio_trial":100,"L_num":3,"L_den":6,"R_num":4,"R_den":10,"correct_side":1,"subjID":"LauraSofiaGalvisMora7","gender":"1","school":"6","age":"10"},{"start_time":1551882075251,"click_time":1551882077010,"finger_time":1551882076670,"fix_duration":840.0146589607754,"trial":44,"RT":1419,"MT":340,"sideResp":2,"stimulus":[],"xmouse":[785,785,785,785,785,785,785,785,785,785,785,785,785,785,785,785,785,785,785,785,785,785,785,785,785,785,785,785,785,785,785,785,785,785,785,785,785,785,785,785,785,785,785,785,785,785,785,785,785,785,785,785,785,785,785,785,785,785,785,785,785,785,785,785,785,785,785,788,790,793,799,809,844,868,894,930,948,977,994,1010,1025,1041,1065,1071,1080,1091,1104,1116],"ymouse":[614,614,614,614,614,614,614,614,614,614,614,614,614,614,614,614,614,614,614,614,614,614,614,614,614,614,614,614,614,614,614,614,614,614,614,614,614,614,614,614,614,614,614,614,614,614,614,614,614,614,614,614,614,614,614,614,614,614,614,614,614,614,614,614,614,611,605,589,581,576,568,555,520,496,464,414,391,352,328,303,278,254,221,210,194,176,148,78],"timestamp_mouse":[17,40,58,77,98,119,137,158,178,197,218,238,258,279,297,318,337,358,377,397,418,438,459,477,498,518,539,559,577,598,619,638,659,677,697,719,738,759,779,797,819,839,858,879,897,919,937,958,978,998,1017,1038,1057,1077,1098,1118,1137,1157,1178,1199,1217,1239,1257,1277,1298,1318,1337,1358,1378,1398,1419,1437,1457,1478,1498,1518,1539,1557,1577,1598,1618,1638,1657,1678,1697,1719,1738,1759],"xSR":741.5,"ySR":573.95,"xT1":424.9,"yT1":0,"xT2":1058.1,"yT2":0,"toosoon":0,"cond_shown":"Congruent","ratio_trial":200,"L_num":6,"L_den":12,"R_num":7,"R_den":10,"correct_side":2,"subjID":"LauraSofiaGalvisMora7","gender":"1","school":"6","age":"10"},{"start_time":1551882078305,"click_time":1551882080009,"finger_time":1551882079570,"fix_duration":313.9791824547704,"trial":45,"RT":1265,"MT":439,"sideResp":2,"stimulus":[],"xmouse":[805,805,805,805,805,805,805,805,805,805,803,801,801,800,800,800,800,800,800,800,800,800,800,800,800,800,800,800,800,800,800,800,800,800,800,800,800,800,800,800,800,800,800,800,800,800,800,800,800,800,800,800,800,800,800,800,800,800,800,800,800,800,800,800,800,804,809,817,831,855,919,951,993,1008,1020,1035,1039,1042,1043,1044,1050,1055,1065,1069,1073,1083],"ymouse":[581,581,581,581,581,581,581,581,581,582,585,588,589,589,589,589,589,589,589,589,589,589,589,589,589,590,590,591,593,594,594,595,595,595,595,595,595,595,595,595,595,595,595,594,587,576,575,575,575,575,575,575,575,575,575,575,575,575,575,575,575,575,575,572,566,546,531,511,484,449,365,321,256,231,214,196,190,184,182,178,165,153,129,115,102,70],"timestamp_mouse":[10,35,43,63,83,103,124,144,163,184,204,224,244,264,284,303,325,345,363,384,404,423,445,463,483,504,523,543,564,584,604,624,645,664,684,704,723,744,764,783,803,825,844,864,885,904,924,943,964,985,1005,1024,1044,1065,1083,1104,1125,1144,1165,1185,1205,1223,1244,1265,1284,1303,1323,1344,1364,1384,1403,1423,1443,1463,1483,1503,1523,1543,1563,1583,1603,1624,1644,1663,1684,1704],"xSR":741.5,"ySR":573.95,"xT1":424.9,"yT1":0,"xT2":1058.1,"yT2":0,"toosoon":0,"cond_shown":"Incongruent","ratio_trial":300,"L_num":13,"L_den":26,"R_num":12,"R_den":15,"correct_side":2,"subjID":"LauraSofiaGalvisMora7","gender":"1","school":"6","age":"10"},{"start_time":1551882081258,"click_time":1551882082748,"finger_time":1551882082448,"fix_duration":406.10271659399666,"trial":46,"RT":1190,"MT":300,"sideResp":2,"stimulus":[],"xmouse":[799,798,798,795,794,793,793,793,792,792,791,791,791,791,791,791,791,791,791,791,791,791,791,791,791,791,791,790,788,788,788,788,788,788,788,788,788,788,788,788,788,788,788,788,788,788,788,788,788,788,788,788,788,788,788,792,795,801,803,805,807,810,814,817,824,833,847,891,924,949,972,989,1027,1045,1071],"ymouse":[637,636,633,625,621,620,619,618,616,615,615,615,615,615,614,614,614,614,614,614,614,614,614,614,614,614,614,613,612,611,611,611,611,611,611,611,611,611,611,611,611,611,611,611,611,611,611,611,611,611,611,610,605,600,598,593,587,579,575,571,568,565,559,556,546,534,518,447,388,338,290,253,188,149,89],"timestamp_mouse":[10,32,50,70,90,112,130,150,171,191,210,232,251,270,291,310,331,352,370,392,411,431,450,471,490,511,531,551,570,591,612,631,651,670,692,710,731,752,770,792,812,832,851,871,891,910,931,950,970,991,1010,1032,1051,1071,1091,1110,1132,1150,1170,1190,1210,1231,1251,1271,1290,1311,1332,1351,1371,1390,1411,1432,1451,1471,1490],"xSR":741.5,"ySR":573.95,"xT1":424.9,"yT1":0,"xT2":1058.1,"yT2":0,"toosoon":0,"cond_shown":"Congruent","ratio_trial":100,"L_num":7,"L_den":14,"R_num":9,"R_den":15,"correct_side":2,"subjID":"LauraSofiaGalvisMora7","gender":"1","school":"6","age":"10"},{"start_time":1551882083761,"click_time":1551882085949,"finger_time":1551882085109,"fix_duration":250,"trial":47,"RT":1348,"MT":840,"sideResp":1,"stimulus":[],"xmouse":[785,785,785,785,785,785,785,785,785,785,785,785,785,785,785,785,785,785,785,785,785,786,786,786,787,787,787,787,787,787,787,787,787,787,787,787,787,787,787,787,787,787,787,787,787,787,787,787,787,787,787,787,787,787,787,787,787,787,787,787,787,787,787,787,787,787,787,787,787,787,788,790,800,805,811,820,829,845,849,849,849,849,849,841,827,815,804,792,791,790,787,783,778,776,776,776,776,767,749,718,668,653,644,637,629,615,600,556,536,522],"ymouse":[609,609,609,609,609,609,609,609,609,609,609,609,609,609,607,605,604,601,598,596,593,591,589,587,587,587,587,587,587,587,587,587,587,587,587,587,587,587,587,587,587,587,587,587,585,583,582,579,579,579,579,579,579,579,579,579,579,579,579,579,579,579,579,579,579,578,576,572,569,565,556,547,517,499,478,456,435,401,392,389,389,389,388,394,405,416,425,434,435,435,438,441,446,447,447,447,447,438,420,394,350,328,285,262,240,215,189,136,113,97],"timestamp_mouse":[9,27,47,68,89,107,127,147,167,188,207,228,249,267,289,307,329,348,368,387,408,427,447,467,488,509,529,547,567,588,608,627,648,668,687,707,728,747,769,788,808,828,849,868,887,908,928,947,967,988,1008,1027,1049,1067,1089,1109,1128,1147,1169,1187,1207,1229,1249,1267,1289,1307,1328,1348,1368,1388,1407,1428,1447,1468,1487,1507,1528,1548,1568,1588,1609,1627,1647,1668,1688,1709,1728,1747,1769,1788,1808,1828,1847,1867,1889,1908,1929,1948,1967,1987,2008,2028,2048,2068,2087,2108,2129,2147,2167,2187],"xSR":741.5,"ySR":573.95,"xT1":424.9,"yT1":0,"xT2":1058.1,"yT2":0,"toosoon":0,"cond_shown":"Congruent","ratio_trial":300,"L_num":4,"L_den":10,"R_num":1,"R_den":10,"correct_side":1,"subjID":"LauraSofiaGalvisMora7","gender":"1","school":"6","age":"10"},{"start_time":1551882087417,"click_time":1551882089129,"finger_time":1551882088909,"fix_duration":586.5737217700093,"trial":48,"RT":1492,"MT":220,"sideResp":2,"stimulus":[],"xmouse":[811,811,811,811,811,811,811,811,811,811,811,811,811,811,811,811,811,811,811,811,811,811,811,811,811,811,811,811,811,811,811,811,811,811,811,811,811,811,811,811,811,811,811,811,811,811,811,811,811,811,811,810,810,810,810,810,810,810,809,809,809,809,809,809,809,809,809,809,809,809,810,811,815,821,840,848,855,865,872,897,917,944,966,988,1055,1087],"ymouse":[625,625,625,625,625,625,625,625,625,625,625,625,625,625,625,625,625,625,625,625,625,625,625,625,625,625,625,625,625,625,625,625,625,625,625,625,625,625,625,625,625,625,625,625,625,625,625,625,625,625,625,622,621,621,621,621,621,620,620,620,620,619,619,619,618,617,613,610,608,607,605,603,597,590,562,549,536,