[{"start_time":1551794991847,"click_time":1551794994298,"finger_time":1551794993378,"fix_duration":725.2890578495287,"trial":0,"RT":1531,"MT":920,"sideResp":2,"stimulus":"img/250/equaldotanddens/R/8_Ratio_250_L_1_R_4.png","xmouse":[675,675,675,675,675,675,675,675,675,675,675,675,675,675,675,675,675,675,675,675,675,675,675,675,675,675,675,675,675,675,675,675,675,675,675,675,675,675,675,675,675,675,675,675,675,675,675,675,675,675,675,675,675,675,675,675,675,675,675,675,675,675,675,675,675,675,675,675,675,675,675,675,675,677,695,724,731,734,734,747,752,757,758,758,758,758,770,774,778,787,790,795,797,797,797,797,800,802,804,810,817,823,835,843,853,859,864,864,867,867,870,872,873,875,878,883,890,891,891,891,893,894,897],"ymouse":[444,444,444,444,444,444,444,444,444,444,444,444,444,444,444,444,444,444,444,444,444,444,444,444,444,444,444,444,444,444,444,444,444,444,444,444,444,444,444,444,444,444,444,444,444,444,444,444,444,444,444,444,444,444,444,444,444,444,444,444,444,444,444,444,444,444,444,444,444,444,444,444,444,445,436,424,421,420,420,408,398,386,385,385,385,381,354,344,327,297,286,268,255,248,238,218,208,205,196,179,163,154,142,134,123,114,107,105,101,100,96,96,94,94,92,91,89,89,88,88,87,86,83],"timestamp_mouse":[11,39,52,72,91,112,132,151,171,192,211,230,251,272,291,312,330,351,371,391,411,431,451,472,492,512,531,551,571,592,611,632,650,670,691,711,731,752,771,792,812,831,851,871,891,911,932,951,970,990,1012,1031,1051,1071,1091,1111,1131,1151,1172,1191,1211,1231,1252,1272,1291,1311,1331,1351,1372,1391,1412,1432,1451,1472,1491,1511,1531,1551,1571,1591,1611,1631,1651,1671,1691,1712,1732,1751,1771,1791,1811,1832,1852,1871,1891,1911,1931,1950,1971,1991,2010,2031,2051,2071,2091,2112,2131,2151,2171,2192,2211,2232,2251,2271,2291,2311,2331,2350,2371,2391,2411,2432,2451],"xSR":624.5,"ySR":395.2,"xT1":354.7,"yT1":0,"xT2":894.3,"yT2":0,"toosoon":0,"cond_shown":"equaldotanddens","ratio_trial":250,"smaller_num":"1","larger_num":"4","correct_side":2,"subjID":"analopez","gender":"1","age":"11","school":"6","test":{"fix_dur":[250,1500],"timestim":300,"targets_dim":[100,100],"targets_relative_coord":[0.3,0.7],"size_stim":[880,420],"start_dim":[100,100],"size_start":[300,300],"size_fix":60,"samplingrate":20,"img_types":["equaldotsize","equaldotanddens","randomdotsizeEA"],"ratios":[250,500,750,900],"rep_conds":9,"nTrials":120,"trials_to_rest":500,"Trials_order":[13,52,26,119,116,62,74,59,54,104,113,115,1,25,69,68,9,63,80,82,16,33,56,51,34,64,41,85,39,55,47,65,112,67,117,109,110,79,70,14,111,24,118,11,95,44,90,37,12,99,7,20,35,45,29,46,58,88,72,50,0,8,31,49,43,38,77,92,53,28,57,107,94,83,101,27,86,60,103,42,84,87,32,97,19,71,78,48,21,75,98,6,18,93,108,96,15,3,40,22,89,91,30,66,76,102,114,4,73,106,36,17,5,23,10,100,2,105,61,81],"cond_shown":["equaldotanddens","equaldotanddens","randomdotsizeEA","randomdotsizeEA","randomdotsizeEA","randomdotsizeEA","randomdotsizeEA","randomdotsizeEA","equaldotsize","randomdotsizeEA","randomdotsizeEA","equaldotanddens","equaldotanddens","equaldotanddens","equaldotsize","randomdotsizeEA","equaldotsize","equaldotsize","randomdotsizeEA","equaldotanddens","equaldotanddens","equaldotsize","randomdotsizeEA","equaldotsize","equaldotanddens","equaldotanddens","randomdotsizeEA","equaldotanddens","equaldotsize","equaldotanddens","randomdotsizeEA","randomdotsizeEA","equaldotanddens","equaldotanddens","equaldotsize","equaldotanddens","randomdotsizeEA","equaldotanddens","equaldotanddens","randomdotsizeEA","equaldotsize","equaldotsize","equaldotanddens","randomdotsizeEA","randomdotsizeEA","randomdotsizeEA","equaldotsize","equaldotanddens","equaldotsize","equaldotsize","equaldotanddens","randomdotsizeEA","randomdotsizeEA","equaldotsize","randomdotsizeEA","equaldotanddens","equaldotanddens","equaldotanddens","equaldotsize","randomdotsizeEA","equaldotsize","randomdotsizeEA","equaldotanddens","equaldotanddens","equaldotanddens","randomdotsizeEA","randomdotsizeEA","randomdotsizeEA","randomdotsizeEA","equaldotanddens","equaldotsize","randomdotsizeEA","equaldotanddens","randomdotsizeEA","randomdotsizeEA","equaldotsize","randomdotsizeEA","equaldotsize","equaldotanddens","equaldotsize","equaldotsize","equaldotsize","randomdotsizeEA","equaldotanddens","equaldotanddens","randomdotsizeEA","equaldotsize","equaldotsize","equaldotsize","equaldotsize","randomdotsizeEA","equaldotsize","equaldotsize","equaldotsize","equaldotsize","equaldotsize","equaldotsize","equaldotsize","equaldotanddens","equaldotanddens","randomdotsizeEA","equaldotanddens","equaldotsize","equaldotsize","equaldotanddens","equaldotsize","equaldotsize","equaldotanddens","equaldotanddens","equaldotanddens","equaldotsize","randomdotsizeEA","randomdotsizeEA","randomdotsizeEA","equaldotanddens","equaldotanddens","randomdotsizeEA","equaldotsize","equaldotanddens","equaldotsize"],"ratio_trial":[250,500,250,900,750,250,250,900,750,750,500,750,250,250,900,750,900,500,750,900,500,900,750,500,900,500,500,250,500,750,900,500,500,750,900,250,250,750,900,250,500,250,900,900,900,750,750,250,250,500,750,750,900,900,500,900,900,500,250,250,250,750,750,250,750,250,500,750,500,500,900,900,900,900,500,500,250,250,750,750,250,500,750,250,750,900,750,250,900,500,250,750,750,900,250,250,500,500,500,900,500,750,750,750,500,750,750,500,250,900,250,500,500,900,900,500,250,900,250,900],"smaller_num":["1","3","5","9","15","2","4","9","15","3","5","18","3","3","18","6","18","2","6","18","6","18","3","5","18","2","5","6","4","12","18","9","2","3","18","2","3","3","18","2","6","4","9","18","9","12","3","5","1","5","9","15","18","9","4","18","9","5","4","3","3","18","3","6","6","4","1","12","10","4","9","18","18","18","6","5","2","3","6","9","6","2","6","3","15","18","3","4","18","5","2","15","6","9","2","5","9","9","3","18","10","15","9","15","10","6","3","5","3","18","3","6","2","9","18","2","3","18","3","9"],"larger_num":["4","6","20","10","20","8","16","10","20","4","10","24","12","12","20","8","20","4","8","20","12","20","4","10","20","4","10","24","8","16","20","18","4","4","20","8","12","4","20","8","12","16","10","20","10","16","4","20","4","10","12","20","20","10","8","20","10","10","16","12","12","24","4","24","8","16","2","16","20","8","10","20","20","20","12","10","8","12","8","12","24","4","8","12","20","20","4","16","20","10","8","20","8","10","8","20","18","18","6","20","20","20","12","20","20","8","4","10","12","20","12","12","4","10","20","4","12","20","12","10"],"correct_side":[2,2,2,2,2,2,1,1,1,2,2,1,2,2,1,1,2,2,1,2,1,2,1,1,1,2,2,1,1,2,1,2,2,1,2,1,1,2,2,1,1,1,2,2,1,2,2,2,2,2,2,2,1,2,1,2,2,1,2,2,1,1,1,1,1,2,2,2,2,1,2,2,1,2,1,1,1,1,1,2,1,2,2,2,2,2,1,2,2,1,2,2,1,2,1,2,2,2,2,1,2,2,2,2,2,1,2,2,2,2,1,1,1,2,1,1,1,1,2,2],"img_shown":["img/250/equaldotanddens/R/8_Ratio_250_L_1_R_4.png","img/500/equaldotanddens/R/2_Ratio_500_L_3_R_6.png","img/250/randomdotsizeEA/R/12_Ratio_250_L_5_R_20.png","img/900/randomdotsizeEA/R/3_Ratio_900_L_9_R_10.png","img/750/randomdotsizeEA/R/4_Ratio_750_L_15_R_20.png","img/250/randomdotsizeEA/R/13_Ratio_250_L_2_R_8.png","img/250/randomdotsizeEA/L/2_Ratio_250_L_16_R_4.png","img/900/randomdotsizeEA/L/1_Ratio_900_L_10_R_9.png","img/750/equaldotsize/L/1_Ratio_750_L_20_R_15.png","img/750/randomdotsizeEA/R/7_Ratio_750_L_3_R_4.png","img/500/randomdotsizeEA/R/14_Ratio_500_L_5_R_10.png","img/750/equaldotanddens/L/6_Ratio_750_L_24_R_18.png","img/250/equaldotanddens/R/9_Ratio_250_L_3_R_12.png","img/250/equaldotanddens/R/9_Ratio_250_L_3_R_12.png","img/900/equaldotsize/L/4_Ratio_900_L_20_R_18.png","img/750/randomdotsizeEA/L/14_Ratio_750_L_8_R_6.png","img/900/equaldotsize/R/11_Ratio_900_L_18_R_20.png","img/500/equaldotsize/R/9_Ratio_500_L_2_R_4.png","img/750/randomdotsizeEA/L/14_Ratio_750_L_8_R_6.png","img/900/equaldotanddens/R/12_Ratio_900_L_18_R_20.png","img/500/equaldotanddens/L/11_Ratio_500_L_12_R_6.png","img/900/equaldotsize/R/11_Ratio_900_L_18_R_20.png","img/750/randomdotsizeEA/L/8_Ratio_750_L_4_R_3.png","img/500/equaldotsize/L/7_Ratio_500_L_10_R_5.png","img/900/equaldotanddens/L/8_Ratio_900_L_20_R_18.png","img/500/equaldotanddens/R/9_Ratio_500_L_2_R_4.png","img/500/randomdotsizeEA/R/14_Ratio_500_L_5_R_10.png","img/250/equaldotanddens/L/5_Ratio_250_L_24_R_6.png","img/500/equaldotsize/L/8_Ratio_500_L_8_R_4.png","img/750/equaldotanddens/R/11_Ratio_750_L_12_R_16.png","img/900/randomdotsizeEA/L/8_Ratio_900_L_20_R_18.png","img/500/randomdotsizeEA/R/6_Ratio_500_L_9_R_18.png","img/500/equaldotanddens/R/9_Ratio_500_L_2_R_4.png","img/750/equaldotanddens/L/8_Ratio_750_L_4_R_3.png","img/900/equaldotsize/R/14_Ratio_900_L_18_R_20.png","img/250/equaldotanddens/L/3_Ratio_250_L_8_R_2.png","img/250/randomdotsizeEA/L/15_Ratio_250_L_12_R_3.png","img/750/equaldotanddens/R/12_Ratio_750_L_3_R_4.png","img/900/equaldotanddens/R/13_Ratio_900_L_18_R_20.png","img/250/randomdotsizeEA/L/7_Ratio_250_L_8_R_2.png","img/500/equaldotsize/L/11_Ratio_500_L_12_R_6.png","img/250/equaldotsize/L/2_Ratio_250_L_16_R_4.png","img/900/equaldotanddens/R/5_Ratio_900_L_9_R_10.png","img/900/randomdotsizeEA/R/14_Ratio_900_L_18_R_20.png","img/900/randomdotsizeEA/L/1_Ratio_900_L_10_R_9.png","img/750/randomdotsizeEA/R/11_Ratio_750_L_12_R_16.png","img/750/equaldotsize/R/12_Ratio_750_L_3_R_4.png","img/250/equaldotanddens/R/12_Ratio_250_L_5_R_20.png","img/250/equaldotsize/R/8_Ratio_250_L_1_R_4.png","img/500/equaldotsize/R/14_Ratio_500_L_5_R_10.png","img/750/equaldotanddens/R/15_Ratio_750_L_9_R_12.png","img/750/randomdotsizeEA/R/4_Ratio_750_L_15_R_20.png","img/900/randomdotsizeEA/L/8_Ratio_900_L_20_R_18.png","img/900/equaldotsize/R/7_Ratio_900_L_9_R_10.png","img/500/randomdotsizeEA/L/8_Ratio_500_L_8_R_4.png","img/900/equaldotanddens/R/14_Ratio_900_L_18_R_20.png","img/900/equaldotanddens/R/5_Ratio_900_L_9_R_10.png","img/500/equaldotanddens/L/7_Ratio_500_L_10_R_5.png","img/250/equaldotsize/R/10_Ratio_250_L_4_R_16.png","img/250/randomdotsizeEA/R/9_Ratio_250_L_3_R_12.png","img/250/equaldotsize/L/14_Ratio_250_L_12_R_3.png","img/750/randomdotsizeEA/L/6_Ratio_750_L_24_R_18.png","img/750/equaldotanddens/L/9_Ratio_750_L_4_R_3.png","img/250/equaldotanddens/L/5_Ratio_250_L_24_R_6.png","img/750/equaldotanddens/L/13_Ratio_750_L_8_R_6.png","img/250/randomdotsizeEA/R/10_Ratio_250_L_4_R_16.png","img/500/randomdotsizeEA/R/12_Ratio_500_L_1_R_2.png","img/750/randomdotsizeEA/R/11_Ratio_750_L_12_R_16.png","img/500/randomdotsizeEA/R/3_Ratio_500_L_10_R_20.png","img/500/equaldotanddens/L/8_Ratio_500_L_8_R_4.png","img/900/equaldotsize/R/3_Ratio_900_L_9_R_10.png","img/900/randomdotsizeEA/R/13_Ratio_900_L_18_R_20.png","img/900/equaldotanddens/L/2_Ratio_900_L_20_R_18.png","img/900/randomdotsizeEA/R/11_Ratio_900_L_18_R_20.png","img/500/randomdotsizeEA/L/11_Ratio_500_L_12_R_6.png","img/500/equaldotsize/L/7_Ratio_500_L_10_R_5.png","img/250/randomdotsizeEA/L/3_Ratio_250_L_8_R_2.png","img/250/equaldotsize/L/14_Ratio_250_L_12_R_3.png","img/750/equaldotanddens/L/14_Ratio_750_L_8_R_6.png","img/750/equaldotsize/R/15_Ratio_750_L_9_R_12.png","img/250/equaldotsize/L/5_Ratio_250_L_24_R_6.png","img/500/equaldotsize/R/9_Ratio_500_L_2_R_4.png","img/750/randomdotsizeEA/R/2_Ratio_750_L_6_R_8.png","img/250/equaldotanddens/R/11_Ratio_250_L_3_R_12.png","img/750/equaldotanddens/R/4_Ratio_750_L_15_R_20.png","img/900/randomdotsizeEA/R/11_Ratio_900_L_18_R_20.png","img/750/equaldotsize/L/9_Ratio_750_L_4_R_3.png","img/250/equaldotsize/R/10_Ratio_250_L_4_R_16.png","img/900/equaldotsize/R/11_Ratio_900_L_18_R_20.png","img/500/equaldotsize/L/7_Ratio_500_L_10_R_5.png","img/250/randomdotsizeEA/R/13_Ratio_250_L_2_R_8.png","img/750/equaldotsize/R/4_Ratio_750_L_15_R_20.png","img/750/equaldotsize/L/13_Ratio_750_L_8_R_6.png","img/900/equaldotsize/R/5_Ratio_900_L_9_R_10.png","img/250/equaldotsize/L/1_Ratio_250_L_8_R_2.png","img/250/equaldotsize/R/12_Ratio_250_L_5_R_20.png","img/500/equaldotsize/R/6_Ratio_500_L_9_R_18.png","img/500/equaldotsize/R/6_Ratio_500_L_9_R_18.png","img/500/equaldotanddens/R/2_Ratio_500_L_3_R_6.png","img/900/equaldotanddens/L/8_Ratio_900_L_20_R_18.png","img/500/randomdotsizeEA/R/3_Ratio_500_L_10_R_20.png","img/750/equaldotanddens/R/3_Ratio_750_L_15_R_20.png","img/750/equaldotsize/R/15_Ratio_750_L_9_R_12.png","img/750/equaldotsize/R/4_Ratio_750_L_15_R_20.png","img/500/equaldotanddens/R/3_Ratio_500_L_10_R_20.png","img/750/equaldotsize/L/14_Ratio_750_L_8_R_6.png","img/750/equaldotsize/R/12_Ratio_750_L_3_R_4.png","img/500/equaldotanddens/R/14_Ratio_500_L_5_R_10.png","img/250/equaldotanddens/R/4_Ratio_250_L_3_R_12.png","img/900/equaldotanddens/R/13_Ratio_900_L_18_R_20.png","img/250/equaldotsize/L/15_Ratio_250_L_12_R_3.png","img/500/randomdotsizeEA/L/11_Ratio_500_L_12_R_6.png","img/500/randomdotsizeEA/L/10_Ratio_500_L_4_R_2.png","img/900/randomdotsizeEA/R/7_Ratio_900_L_9_R_10.png","img/900/equaldotanddens/L/2_Ratio_900_L_20_R_18.png","img/500/equaldotanddens/L/10_Ratio_500_L_4_R_2.png","img/250/randomdotsizeEA/L/15_Ratio_250_L_12_R_3.png","img/900/equaldotsize/L/2_Ratio_900_L_20_R_18.png","img/250/equaldotanddens/R/9_Ratio_250_L_3_R_12.png","img/900/equaldotsize/R/5_Ratio_900_L_9_R_10.png"],"Rat0":[["12_Ratio_0_L_9_R_0.png","13_Ratio_0_L_6_R_0.png","5_Ratio_0_L_2_R_0.png","6_Ratio_0_L_4_R_0.png","8_Ratio_0_L_6_R_0.png"],["1_Ratio_0_L_0_R_17.png","10_Ratio_0_L_0_R_22.png","11_Ratio_0_L_0_R_1.png","14_Ratio_0_L_0_R_24.png","15_Ratio_0_L_0_R_4.png","2_Ratio_0_L_0_R_5.png","3_Ratio_0_L_0_R_17.png","4_Ratio_0_L_0_R_7.png","7_Ratio_0_L_0_R_19.png","9_Ratio_0_L_0_R_15.png"]],"Rat250":[["1_Ratio_250_L_8_R_2.png","14_Ratio_250_L_12_R_3.png","15_Ratio_250_L_12_R_3.png","2_Ratio_250_L_16_R_4.png","3_Ratio_250_L_8_R_2.png","5_Ratio_250_L_24_R_6.png","7_Ratio_250_L_8_R_2.png"],["10_Ratio_250_L_4_R_16.png","11_Ratio_250_L_3_R_12.png","12_Ratio_250_L_5_R_20.png","13_Ratio_250_L_2_R_8.png","4_Ratio_250_L_3_R_12.png","6_Ratio_250_L_6_R_24.png","8_Ratio_250_L_1_R_4.png","9_Ratio_250_L_3_R_12.png"]],"Rat500":[["10_Ratio_500_L_4_R_2.png","11_Ratio_500_L_12_R_6.png","13_Ratio_500_L_12_R_6.png","4_Ratio_500_L_18_R_9.png","5_Ratio_500_L_4_R_2.png","7_Ratio_500_L_10_R_5.png","8_Ratio_500_L_8_R_4.png"],["1_Ratio_500_L_9_R_18.png","12_Ratio_500_L_1_R_2.png","14_Ratio_500_L_5_R_10.png","15_Ratio_500_L_1_R_2.png","2_Ratio_500_L_3_R_6.png","3_Ratio_500_L_10_R_20.png","6_Ratio_500_L_9_R_18.png","9_Ratio_500_L_2_R_4.png"]],"Rat750":[["1_Ratio_750_L_20_R_15.png","10_Ratio_750_L_4_R_3.png","13_Ratio_750_L_8_R_6.png","14_Ratio_750_L_8_R_6.png","6_Ratio_750_L_24_R_18.png","8_Ratio_750_L_4_R_3.png","9_Ratio_750_L_4_R_3.png"],["11_Ratio_750_L_12_R_16.png","12_Ratio_750_L_3_R_4.png","15_Ratio_750_L_9_R_12.png","2_Ratio_750_L_6_R_8.png","3_Ratio_750_L_15_R_20.png","4_Ratio_750_L_15_R_20.png","5_Ratio_750_L_15_R_20.png","7_Ratio_750_L_3_R_4.png"]],"Rat900":[["1_Ratio_900_L_10_R_9.png","10_Ratio_900_L_20_R_18.png","2_Ratio_900_L_20_R_18.png","4_Ratio_900_L_20_R_18.png","8_Ratio_900_L_20_R_18.png"],["11_Ratio_900_L_18_R_20.png","12_Ratio_900_L_18_R_20.png","13_Ratio_900_L_18_R_20.png","14_Ratio_900_L_18_R_20.png","15_Ratio_900_L_9_R_10.png","3_Ratio_900_L_9_R_10.png","5_Ratio_900_L_9_R_10.png","6_Ratio_900_L_9_R_10.png","7_Ratio_900_L_9_R_10.png","9_Ratio_900_L_18_R_20.png"]],"Rat1000":[["10_Ratio_1000_L_16_R_16.png","11_Ratio_1000_L_6_R_6.png","12_Ratio_1000_L_14_R_14.png","13_Ratio_1000_L_20_R_20.png","15_Ratio_1000_L_15_R_15.png","2_Ratio_1000_L_17_R_17.png","4_Ratio_1000_L_9_R_9.png","5_Ratio_1000_L_6_R_6.png","6_Ratio_1000_L_19_R_19.png","8_Ratio_1000_L_14_R_14.png","9_Ratio_1000_L_25_R_25.png"],["1_Ratio_1000_L_1_R_1.png","14_Ratio_1000_L_17_R_17.png","3_Ratio_1000_L_17_R_17.png","7_Ratio_1000_L_6_R_6.png"]]}},{"start_time":1551794996626,"click_time":1551794998620,"finger_time":1551794997678,"fix_duration":1004.9581458434027,"trial":1,"RT":1052,"MT":942,"sideResp":2,"stimulus":"img/500/equaldotanddens/R/2_Ratio_500_L_3_R_6.png","xmouse":[665,665,665,665,665,665,665,665,665,665,665,665,665,665,665,665,665,665,665,665,665,665,665,665,665,665,665,665,665,665,665,665,665,665,665,665,665,665,665,665,665,665,665,665,665,665,666,667,667,669,671,670,669,665,665,665,665,668,670,675,679,683,687,699,702,720,724,737,745,760,775,785,791,804,810,828,833,838,841,844,850,852,853,856,858,863,865,869,871,875,878,880,881,883,884,888,890,892,894,896],"ymouse":[405,405,405,405,405,405,405,405,405,405,405,405,405,405,405,405,405,405,405,405,405,405,405,405,405,405,405,405,405,405,405,405,405,405,405,405,405,405,405,405,405,405,405,405,405,405,405,405,405,398,376,365,360,353,350,342,339,332,330,323,317,311,306,292,288,267,263,251,244,232,219,210,204,193,186,167,162,156,154,149,142,140,137,135,132,125,122,116,114,108,103,100,99,97,95,89,88,85,83,82],"timestamp_mouse":[12,33,52,73,92,112,132,153,172,192,212,232,252,273,293,313,331,352,372,392,412,432,452,472,492,512,532,553,572,592,612,632,653,672,692,713,732,752,772,792,812,832,852,872,893,912,932,953,972,991,1012,1032,1052,1072,1093,1113,1132,1152,1172,1193,1212,1232,1252,1272,1292,1312,1332,1351,1372,1392,1412,1432,1452,1472,1492,1512,1533,1552,1573,1592,1612,1633,1652,1673,1693,1712,1732,1752,1773,1792,1812,1832,1852,1872,1893,1912,1933,1952,1973,1993],"xSR":624.5,"ySR":363.35,"xT1":354.7,"yT1":0,"xT2":894.3,"yT2":0,"toosoon":0,"cond_shown":"equaldotanddens","ratio_trial":500,"smaller_num":"3","larger_num":"6","correct_side":2,"subjID":"analopez","gender":"1","age":"11","school":"6"},{"start_time":1551795000090,"click_time":1551795002538,"finger_time":1551795002338,"fix_duration":250,"trial":2,"RT":2248,"MT":200,"sideResp":2,"stimulus":"img/250/randomdotsizeEA/R/12_Ratio_250_L_5_R_20.png","xmouse":[688,688,688,688,688,688,688,688,688,688,688,688,688,688,688,688,688,688,688,688,688,688,688,688,688,688,688,688,688,688,688,688,688,688,688,688,688,688,688,688,688,688,688,688,688,688,688,688,688,688,688,688,688,688,688,688,688,688,688,688,688,688,688,688,688,688,688,688,688,688,688,688,688,688,688,688,688,688,688,688,688,688,688,688,688,688,688,688,688,688,688,688,688,688,688,688,688,689,690,690,690,690,690,690,690,690,690,690,690,692,693,701,737,751,786,802,836,842,858,865,878,892,915],"ymouse":[391,391,391,391,391,391,391,391,391,391,391,391,391,391,391,391,391,391,391,391,391,391,391,391,391,391,391,391,391,391,391,391,391,391,391,391,391,391,391,391,391,391,391,391,391,391,391,391,391,391,391,391,391,391,391,391,391,391,391,391,391,391,391,391,391,391,391,391,391,391,391,391,391,391,391,391,391,391,391,391,391,391,391,391,391,391,391,391,391,391,391,391,391,391,391,391,391,391,391,391,391,391,391,391,391,391,391,391,391,390,390,376,319,297,246,224,175,167,151,142,127,109,86],"timestamp_mouse":[10,34,47,68,88,108,128,147,168,188,208,227,248,269,288,308,328,349,368,388,408,428,449,469,488,508,529,548,569,589,608,628,648,668,688,708,728,748,768,788,808,828,848,869,889,908,928,948,968,989,1008,1028,1049,1068,1088,1108,1128,1147,1168,1188,1208,1227,1248,1268,1288,1307,1328,1348,1368,1388,1408,1429,1448,1468,1489,1508,1528,1548,1568,1588,1608,1628,1648,1669,1688,1708,1727,1748,1769,1788,1809,1829,1847,1869,1888,1908,1928,1948,1969,1988,2008,2028,2048,2069,2089,2109,2129,2148,2168,2189,2208,2228,2248,2268,2288,2309,2328,2347,2368,2388,2408,2428,2448],"xSR":624.5,"ySR":363.35,"xT1":354.7,"yT1":0,"xT2":894.3,"yT2":0,"toosoon":0,"cond_shown":"randomdotsizeEA","ratio_trial":250,"smaller_num":"5","larger_num":"20","correct_side":2,"subjID":"analopez","gender":"1","age":"11","school":"6"},{"start_time":1551795004119,"click_time":1551795005698,"finger_time":1551795005299,"fix_duration":280.97903329577554,"trial":3,"RT":1180,"MT":399,"sideResp":2,"stimulus":"img/900/randomdotsizeEA/R/3_Ratio_900_L_9_R_10.png","xmouse":[690,690,690,690,690,690,690,690,690,690,690,690,690,690,690,690,690,690,690,690,690,690,690,690,690,690,690,690,690,690,690,690,690,690,690,690,690,690,690,690,690,690,690,690,690,690,690,690,690,690,690,690,690,690,690,690,690,693,706,715,733,744,772,787,802,809,821,828,838,844,854,858,866,876,881,882,887,889,896],"ymouse":[378,378,378,378,378,378,378,378,378,378,378,378,378,378,378,378,378,378,378,378,378,378,378,378,378,378,378,378,378,378,378,378,378,378,378,378,378,378,378,378,378,378,378,378,378,378,378,378,378,378,378,378,378,378,378,378,378,375,357,348,331,322,298,280,257,246,223,212,188,173,159,151,138,122,113,112,106,104,96],"timestamp_mouse":[18,39,60,79,99,119,139,159,179,199,220,240,259,279,299,319,339,359,379,399,419,440,459,479,499,519,539,559,579,599,619,639,659,679,699,719,739,759,779,799,819,839,859,880,899,919,940,959,979,1000,1020,1038,1060,1078,1100,1119,1140,1160,1180,1199,1219,1240,1260,1279,1300,1319,1340,1359,1379,1400,1419,1439,1459,1479,1499,1520,1540,1559,1579],"xSR":624.5,"ySR":363.35,"xT1":354.7,"yT1":0,"xT2":894.3,"yT2":0,"toosoon":0,"cond_shown":"randomdotsizeEA","ratio_trial":900,"smaller_num":"9","larger_num":"10","correct_side":2,"subjID":"analopez","gender":"1","age":"11","school":"6"},{"start_time":1551795007190,"click_time":1551795008639,"finger_time":1551795008078,"fix_duration":250,"trial":4,"RT":888,"MT":561,"sideResp":1,"stimulus":"img/750/randomdotsizeEA/R/4_Ratio_750_L_15_R_20.png","xmouse":[693,693,693,693,693,693,693,693,693,693,693,693,693,693,693,693,693,693,693,693,693,693,693,693,693,693,693,693,693,693,693,693,693,693,693,693,693,693,693,693,693,693,683,670,645,627,600,580,561,553,538,526,513,509,500,495,493,490,489,488,487,487,485,484,482,481,481,481,481,479,472,458,450],"ymouse":[399,399,399,399,399,399,399,399,399,399,399,399,399,399,399,399,399,399,399,399,399,399,399,399,399,399,399,399,399,399,399,399,399,399,399,399,399,399,399,399,399,399,388,376,356,350,339,320,299,289,270,257,237,229,209,192,183,161,153,151,143,137,127,124,118,116,115,115,115,114,108,98,94],"timestamp_mouse":[11,29,47,68,88,108,127,148,169,188,208,228,248,268,288,308,328,349,368,389,408,428,448,467,489,508,529,549,568,587,608,628,648,668,688,708,729,748,767,788,808,829,848,868,887,908,929,949,968,989,1008,1028,1049,1068,1088,1109,1128,1149,1167,1189,1209,1228,1249,1268,1288,1309,1328,1348,1369,1388,1408,1427,1449],"xSR":624.5,"ySR":363.35,"xT1":354.7,"yT1":0,"xT2":894.3,"yT2":0,"toosoon":0,"cond_shown":"randomdotsizeEA","ratio_trial":750,"smaller_num":"15","larger_num":"20","correct_side":2,"subjID":"analopez","gender":"1","age":"11","school":"6"},{"start_time":1551795011440,"click_time":1551795013124,"finger_time":1551795012278,"fix_duration":780.456431056124,"trial":5,"RT":838,"MT":846,"sideResp":2,"stimulus":"img/250/randomdotsizeEA/R/13_Ratio_250_L_2_R_8.png","xmouse":[678,678,680,681,681,681,681,681,681,681,681,681,681,681,681,681,681,681,681,681,681,681,681,681,681,681,681,681,681,681,681,681,681,681,681,681,681,681,684,705,724,729,730,730,730,730,730,730,730,730,730,730,730,730,730,730,730,730,730,730,741,766,805,820,824,828,833,835,844,855,870,872,874,879,887,889,894,895,897,897,899,899,899,899],"ymouse":[409,409,409,409,409,409,409,409,409,409,409,409,409,409,409,409,409,409,409,409,409,409,409,409,409,409,409,409,409,409,409,409,409,409,409,409,409,409,409,403,398,396,396,396,396,396,396,396,396,396,396,396,396,396,396,396,396,396,396,396,388,372,344,326,318,299,284,277,259,240,213,207,201,191,169,162,144,139,128,119,109,105,101,98],"timestamp_mouse":[18,37,59,79,99,118,138,159,178,198,218,239,258,279,299,318,337,358,378,398,418,438,459,478,498,518,539,558,578,598,618,638,658,678,698,718,738,758,777,798,819,838,858,878,898,918,938,958,978,998,1018,1038,1059,1079,1098,1119,1139,1159,1177,1204,1224,1246,1264,1284,1305,1324,1344,1364,1384,1404,1425,1444,1464,1485,1505,1524,1544,1564,1586,1604,1625,1645,1665,1684],"xSR":624.5,"ySR":363.35,"xT1":354.7,"yT1":0,"xT2":894.3,"yT2":0,"toosoon":0,"cond_shown":"randomdotsizeEA","ratio_trial":250,"smaller_num":"2","larger_num":"8","correct_side":2,"subjID":"analopez","gender":"1","age":"11","school":"6"},{"start_time":1551795014573,"click_time":1551795016344,"finger_time":1551795015686,"fix_duration":527.5831377736636,"trial":6,"RT":1113,"MT":658,"sideResp":1,"stimulus":"img/250/randomdotsizeEA/L/2_Ratio_250_L_16_R_4.png","xmouse":[658,658,658,658,658,658,658,658,658,658,658,658,658,658,658,658,658,658,658,658,658,658,658,658,658,658,658,658,658,658,658,658,658,658,658,658,658,658,658,658,658,658,658,658,658,658,658,658,658,658,658,658,656,650,625,609,585,583,581,578,568,562,530,525,516,513,509,497,493,491,485,484,470,466,461,460,455,449,446,443,439,437,425,420,416,414,413,413,412],"ymouse":[415,415,415,415,415,415,415,415,415,415,415,415,415,415,415,415,415,415,415,415,415,415,415,415,415,415,415,415,415,415,415,415,415,415,415,415,415,415,415,415,415,415,415,415,415,415,415,415,415,415,415,415,415,413,387,370,351,350,346,340,324,316,287,282,272,268,260,237,233,231,223,221,202,197,190,188,180,171,165,160,152,149,130,122,113,107,103,101,99],"timestamp_mouse":[11,32,51,71,91,111,131,151,171,191,213,231,252,271,291,313,331,351,372,391,411,431,451,473,492,511,531,551,571,591,611,631,652,672,691,711,731,751,772,791,811,831,852,871,891,912,933,952,971,993,1012,1032,1051,1072,1092,1113,1132,1151,1171,1191,1211,1231,1252,1272,1291,1312,1332,1353,1372,1392,1411,1431,1452,1472,1492,1512,1532,1551,1573,1592,1611,1633,1651,1672,1693,1711,1732,1751,1771],"xSR":624.5,"ySR":363.35,"xT1":354.7,"yT1":0,"xT2":894.3,"yT2":0,"toosoon":0,"cond_shown":"randomdotsizeEA","ratio_trial":250,"smaller_num":"4","larger_num":"16","correct_side":1,"subjID":"analopez","gender":"1","age":"11","school":"6"},{"start_time":1551795018599,"click_time":1551795024305,"finger_time":1551795023886,"fix_duration":1252.0448043381916,"trial":7,"RT":5287,"MT":419,"sideResp":1,"stimulus":"img/900/randomdotsizeEA/L/1_Ratio_900_L_10_R_9.png","xmouse":[684,684,684,684,684,684,684,684,684,684,684,684,684,684,684,684,684,684,684,684,684,684,684,684,684,684,684,684,684,684,684,684,684,684,684,684,684,684,684,684,684,684,684,684,684,684,684,684,684,684,684,684,684,684,684,684,684,684,684,684,684,684,684,684,684,684,684,684,684,684,684,684,684,684,684,684,684,684,684,684,684,684,684,684,684,684,684,684,684,684,684,684,684,684,684,684,684,684,684,684,684,684,684,684,684,684,684,684,684,684,684,684,684,684,684,684,684,684,684,684,684,684,684,684,684,684,684,684,684,684,684,684,684,684,684,684,684,684,684,684,684,684,684,684,684,684,684,684,684,684,684,684,684,684,684,684,684,684,684,684,684,684,684,684,684,684,684,684,684,684,684,684,684,684,684,684,684,684,684,684,684,684,684,684,684,684,684,684,684,684,684,684,684,684,684,684,684,684,684,684,684,684,684,684,684,684,684,684,684,684,684,684,684,684,684,684,684,684,684,684,684,684,684,684,684,684,684,684,684,684,684,684,684,684,684,684,684,684,684,684,684,684,684,684,684,684,684,684,684,684,684,684,684,684,684,684,684,684,684,684,684,684,685,686,670,655,631,617,609,598,577,550,541,533,529,527,525,518,517,506,504,495,492,476,450,391],"ymouse":[404,404,404,404,404,404,404,404,404,404,404,404,404,404,404,404,404,404,404,404,404,404,404,404,404,404,404,404,404,404,404,404,404,404,404,404,404,404,404,404,404,404,404,404,404,404,404,404,404,404,404,404,404,404,404,404,404,404,404,404,404,404,404,404,404,404,404,404,404,404,404,404,404,404,404,404,404,404,404,404,404,404,404,404,404,404,404,404,404,404,404,404,404,404,404,404,404,404,404,404,404,404,404,404,404,404,404,404,404,404,404,404,404,404,404,404,404,404,404,404,404,404,404,404,404,404,404,404,404,404,404,404,404,404,404,404,404,404,404,404,404,404,404,404,404,404,404,404,404,404,404,404,404,404,404,404,404,404,404,404,404,404,404,404,404,404,404,404,404,404,404,404,404,404,404,404,404,404,404,404,404,404,404,404,404,404,404,404,404,404,404,404,404,404,404,404,404,404,404,404,404,404,404,404,404,404,404,404,404,404,404,404,404,404,404,404,404,404,404,404,404,404,404,404,404,404,404,404,404,404,404,404,404,404,404,404,404,404,404,404,404,404,404,404,404,404,404,404,404,404,404,404,404,404,404,404,404,404,404,404,404,405,405,405,356,329,293,278,270,260,236,205,199,191,188,178,172,162,159,145,141,134,132,122,108,78],"timestamp_mouse":[14,31,45,66,87,106,126,145,167,186,205,226,246,265,285,305,326,345,365,385,407,425,445,465,486,505,525,545,565,585,606,625,645,665,685,706,726,745,766,785,805,825,845,865,885,905,925,945,965,987,1006,1025,1046,1065,1085,1105,1125,1146,1166,1185,1206,1225,1245,1265,1285,1305,1326,1346,1366,1386,1406,1425,1447,1465,1486,1505,1525,1545,1566,1585,1606,1626,1646,1667,1685,1706,1725,1747,1766,1785,1805,1825,1846,1866,1885,1907,1926,1946,1965,1986,2005,2025,2046,2066,2085,2105,2125,2145,2165,2185,2205,2226,2245,2265,2285,2305,2325,2345,2365,2385,2406,2426,2445,2466,2485,2505,2525,2546,2566,2586,2605,2625,2646,2665,2686,2706,2725,2745,2765,2786,2806,2825,2845,2865,2885,2905,2925,2945,2966,2985,3005,3025,3045,3066,3085,3106,3126,3145,3166,3185,3205,3226,3246,3266,3285,3305,3326,3346,3366,3385,3406,3425,3445,3465,3486,3507,3526,3545,3565,3587,3606,3626,3646,3666,3687,3707,3726,3746,3766,3786,3806,3826,3846,3867,3887,3906,3926,3947,3966,3986,4007,4026,4046,4066,4086,4106,4126,4146,4166,4186,4206,4226,4246,4267,4286,4306,4326,4346,4367,4386,4406,4427,4446,4466,4487,4506,4526,4545,4567,4587,4606,4626,4647,4665,4685,4706,4726,4746,4765,4786,4806,4826,4846,4865,4885,4905,4926,4946,4965,4985,5006,5026,5045,5066,5086,5105,5125,5145,5166,5185,5205,5226,5245,5266,5287,5305,5325,5346,5365,5385,5406,5426,5447,5466,5485,5506,5525,5546,5565,5585,5605,5625,5646,5665,5685,5706],"xSR":624.5,"ySR":363.35,"xT1":354.7,"yT1":0,"xT2":894.3,"yT2":0,"toosoon":0,"cond_shown":"randomdotsizeEA","ratio_trial":900,"smaller_num":"9","larger_num":"10","correct_side":1,"subjID":"analopez","gender":"1","age":"11","school":"6"},{"start_time":1551795026008,"click_time":1551795027504,"finger_time":1551795026925,"fix_duration":723.0876009908612,"trial":8,"RT":917,"MT":579,"sideResp":2,"stimulus":"img/750/equaldotsize/L/1_Ratio_750_L_20_R_15.png","xmouse":[665,665,665,665,665,665,665,665,665,665,665,665,665,665,665,665,665,665,665,665,665,665,665,665,665,665,665,665,665,665,665,665,665,665,665,665,665,665,675,679,685,697,701,711,722,727,737,743,750,755,768,775,797,802,810,814,819,826,833,835,842,846,859,867,879,885,899,914,917,918,919,920,922,923,924],"ymouse":[424,424,424,424,424,424,424,424,424,424,424,424,424,424,424,424,424,424,424,424,424,424,424,424,424,424,424,424,424,424,424,424,424,424,424,424,424,424,422,421,420,414,408,391,371,359,338,325,309,299,283,274,252,248,239,235,228,216,207,202,190,184,167,156,143,138,127,115,111,109,109,108,103,102,98],"timestamp_mouse":[16,36,56,76,97,116,136,156,177,196,216,237,256,276,296,316,338,357,376,397,417,437,456,477,496,516,536,557,576,596,616,636,657,676,697,717,736,756,776,797,816,837,856,876,896,917,936,956,976,996,1017,1037,1057,1076,1096,1116,1137,1157,1176,1197,1216,1236,1256,1276,1297,1316,1336,1358,1376,1396,1417,1436,1456,1476,1496],"xSR":624.5,"ySR":363.35,"xT1":354.7,"yT1":0,"xT2":894.3,"yT2":0,"toosoon":0,"cond_shown":"equaldotsize","ratio_trial":750,"smaller_num":"15","larger_num":"20","correct_side":1,"subjID":"analopez","gender":"1","age":"11","school":"6"},{"start_time":1551795029334,"click_time":1551795030645,"finger_time":1551795030305,"fix_duration":606.0933687575528,"trial":9,"RT":971,"MT":340,"sideResp":2,"stimulus":"img/750/randomdotsizeEA/R/7_Ratio_750_L_3_R_4.png","xmouse":[660,660,660,660,660,660,660,660,660,660,660,660,660,660,660,660,660,660,660,660,660,660,660,660,660,660,660,660,660,660,660,660,660,660,661,661,661,661,661,661,664,665,667,668,673,676,689,697,716,737,750,757,772,780,807,825,837,844,854,866,873,878,887,892,902,906],"ymouse":[412,412,412,412,412,412,412,412,412,412,412,412,412,412,412,412,412,412,412,412,412,412,412,412,412,412,412,412,412,412,412,412,412,412,412,412,412,412,412,412,409,407,404,402,396,391,380,374,356,326,310,300,278,266,236,221,207,199,186,169,158,150,134,126,106,99],"timestamp_mouse":[10,30,50,70,90,110,131,150,170,190,210,231,251,272,292,312,331,350,371,391,411,431,450,470,490,510,531,550,571,590,611,631,650,670,690,711,730,750,770,790,811,830,850,871,892,910,931,950,971,990,1010,1031,1050,1071,1091,1110,1131,1150,1172,1191,1210,1230,1251,1271,1290,1311],"xSR":624.5,"ySR":363.35,"xT1":354.7,"yT1":0,"xT2":894.3,"yT2":0,"toosoon":0,"cond_shown":"randomdotsizeEA","ratio_trial":750,"smaller_num":"3","larger_num":"4","correct_side":2,"subjID":"analopez","gender":"1","age":"11","school":"6"},{"start_time":1551795032433,"click_time":1551795033564,"finger_time":1551795033264,"fix_duration":705.8557377457357,"trial":10,"RT":831,"MT":300,"sideResp":2,"stimulus":"img/500/randomdotsizeEA/R/14_Ratio_500_L_5_R_10.png","xmouse":[661,661,661,661,661,661,661,661,661,661,661,661,661,661,661,661,661,661,661,661,661,661,661,661,661,661,661,661,661,661,661,661,661,661,661,661,661,661,662,672,685,719,742,747,756,760,777,827,856,864,879,888,894,896,897,897,899],"ymouse":[414,414,414,414,414,414,414,414,414,414,414,414,414,414,414,414,414,414,414,414,414,414,414,414,414,414,414,414,414,414,414,414,414,414,414,414,414,414,415,414,404,350,291,274,246,235,212,168,146,139,126,117,108,105,103,102,99],"timestamp_mouse":[11,33,51,71,91,112,131,151,172,191,212,231,252,271,291,311,332,351,372,391,412,433,451,471,491,511,533,552,571,591,612,631,651,672,691,711,731,751,772,791,811,831,851,872,891,911,932,951,972,991,1011,1032,1051,1072,1091,1112,1131],"xSR":624.5,"ySR":363.35,"xT1":354.7,"yT1":0,"xT2":894.3,"yT2":0,"toosoon":0,"cond_shown":"randomdotsizeEA","ratio_trial":500,"smaller_num":"5","larger_num":"10","correct_side":2,"subjID":"analopez","gender":"1","age":"11","school":"6"},{"start_time":1551795035311,"click_time":1551795036485,"finger_time":1551795036044,"fix_duration":764.3391993778291,"trial":11,"RT":733,"MT":441,"sideResp":2,"stimulus":"img/750/equaldotanddens/L/6_Ratio_750_L_24_R_18.png","xmouse":[688,688,688,688,688,688,688,688,688,688,688,688,688,688,688,688,688,688,688,688,688,688,688,688,688,688,688,688,688,688,688,688,688,688,688,692,725,737,758,768,783,814,836,844,855,859,886,892,901,904,909,912,915,916,918,918,921,921,921],"ymouse":[427,427,427,427,427,427,427,427,427,427,427,427,427,427,427,427,427,427,427,427,427,427,427,427,427,427,427,427,427,427,427,427,427,427,427,421,378,364,334,321,299,247,223,215,205,200,175,168,159,155,150,142,136,132,125,121,102,101,97],"timestamp_mouse":[14,34,53,74,93,113,133,154,173,194,213,233,253,273,294,314,335,353,373,394,414,433,453,475,493,514,534,553,573,593,613,634,653,673,693,713,733,753,773,793,814,833,854,873,894,913,933,954,973,993,1014,1033,1053,1074,1093,1113,1133,1153,1174],"xSR":624.5,"ySR":363.35,"xT1":354.7,"yT1":0,"xT2":894.3,"yT2":0,"toosoon":0,"cond_shown":"equaldotanddens","ratio_trial":750,"smaller_num":"18","larger_num":"24","correct_side":1,"subjID":"analopez","gender":"1","age":"11","school":"6"},{"start_time":1551795039949,"click_time":1551795041404,"finger_time":1551795040964,"fix_duration":443.336810062427,"trial":12,"RT":1015,"MT":440,"sideResp":2,"stimulus":"img/250/equaldotanddens/R/9_Ratio_250_L_3_R_12.png","xmouse":[676,676,676,676,676,676,676,676,676,676,676,676,676,676,676,676,676,676,676,676,676,676,676,676,676,676,676,676,676,676,676,676,676,676,676,676,676,676,676,676,676,678,681,685,686,686,687,697,706,723,725,728,730,737,751,758,761,771,779,809,816,834,845,867,885,894,898,906,910,917,924,927,928],"ymouse":[406,406,406,406,406,406,406,406,406,406,406,406,406,406,406,406,406,406,406,406,406,406,406,406,406,406,406,406,406,406,406,406,406,406,406,406,406,406,406,406,406,406,406,405,405,405,403,395,388,372,369,361,356,342,320,308,302,289,279,241,234,215,206,186,164,154,148,138,132,121,108,102,99],"timestamp_mouse":[15,37,56,75,95,115,136,155,175,195,216,236,256,276,296,315,336,357,375,395,417,436,455,475,495,515,535,555,576,596,616,636,655,675,695,715,735,756,775,795,815,836,855,875,895,915,935,955,976,995,1015,1036,1055,1075,1095,1116,1135,1155,1175,1195,1215,1235,1255,1275,1295,1315,1336,1356,1375,1396,1415,1436,1455],"xSR":624.5,"ySR":363.35,"xT1":354.7,"yT1":0,"xT2":894.3,"yT2":0,"toosoon":0,"cond_shown":"equaldotanddens","ratio_trial":250,"smaller_num":"3","larger_num":"12","correct_side":2,"subjID":"analopez","gender":"1","age":"11","school":"6"},{"start_time":1551795043133,"click_time":1551795044665,"finger_time":1551795044104,"fix_duration":826.5114729598977,"trial":13,"RT":971,"MT":561,"sideResp":2,"stimulus":"img/250/equaldotanddens/R/9_Ratio_250_L_3_R_12.png","xmouse":[680,680,680,680,680,680,680,680,680,680,680,680,680,680,680,680,680,680,680,680,680,680,680,680,680,680,680,680,680,680,680,680,680,680,680,680,680,680,680,680,680,680,680,680,680,680,680,692,727,773,776,778,778,787,793,802,807,816,835,843,848,857,866,870,886,896,903,906,910,917,919,922,925,926,929,931,931],"ymouse":[407,407,407,407,407,407,407,407,407,407,407,407,407,407,407,407,407,407,407,407,407,407,407,407,407,407,407,407,407,407,407,407,407,407,407,407,407,407,407,407,407,407,407,407,407,407,408,408,371,309,303,296,292,268,258,244,237,224,200,188,182,174,166,161,144,136,128,127,124,118,116,114,111,109,105,101,99],"timestamp_mouse":[12,31,52,71,92,112,131,151,172,191,212,231,251,272,291,312,331,351,371,392,413,431,451,471,492,511,532,551,571,592,611,631,651,672,692,712,731,752,772,792,813,832,852,872,892,913,932,952,971,991,1011,1031,1052,1072,1091,1111,1133,1151,1172,1191,1212,1232,1251,1271,1291,1311,1332,1351,1372,1392,1411,1431,1452,1472,1491,1512,1532],"xSR":624.5,"ySR":363.35,"xT1":354.7,"yT1":0,"xT2":894.3,"yT2":0,"toosoon":0,"cond_shown":"equaldotanddens","ratio_trial":250,"smaller_num":"3","larger_num":"12","correct_side":2,"subjID":"analopez","gender":"1","age":"11","school":"6"},{"start_time":1551795045776,"click_time":1551795047206,"finger_time":1551795046804,"fix_duration":250,"trial":14,"RT":1028,"MT":402,"sideResp":2,"stimulus":"img/900/equaldotsize/L/4_Ratio_900_L_20_R_18.png","xmouse":[655,655,655,655,655,655,655,655,655,655,655,655,655,655,655,655,655,655,655,655,655,655,655,655,655,655,655,655,655,655,655,655,655,655,655,655,655,655,655,655,655,655,655,655,655,655,655,655,655,656,688,717,731,762,789,806,815,827,834,855,865,875,879,889,893,905,907,911,913,919,921,923],"ymouse":[411,411,411,411,411,411,411,411,411,411,411,411,411,411,411,411,411,411,411,411,411,411,411,411,411,411,411,411,411,411,411,411,411,411,411,411,411,411,411,411,411,411,411,411,411,411,411,411,411,411,376,342,324,295,270,252,242,226,217,199,188,175,169,156,147,126,124,116,114,101,100,95],"timestamp_mouse":[10,30,48,69,90,110,130,150,168,188,208,229,249,268,288,308,328,348,368,388,408,428,448,469,489,509,529,548,568,588,608,629,648,668,688,709,728,748,769,788,808,828,848,868,888,910,928,950,968,988,1009,1028,1048,1069,1088,1108,1129,1148,1168,1188,1208,1229,1248,1268,1288,1309,1329,1348,1369,1389,1408,1429],"xSR":624.5,"ySR":363.35,"xT1":354.7,"yT1":0,"xT2":894.3,"yT2":0,"toosoon":0,"cond_shown":"equaldotsize","ratio_trial":900,"smaller_num":"18","larger_num":"20","correct_side":1,"subjID":"analopez","gender":"1","age":"11","school":"6"},{"start_time":1551795048828,"click_time":1551795050804,"finger_time":1551795049805,"fix_duration":442.3108848680838,"trial":15,"RT":977,"MT":999,"sideResp":1,"stimulus":"img/750/randomdotsizeEA/L/14_Ratio_750_L_8_R_6.png","xmouse":[642,642,642,642,642,642,642,642,642,642,642,642,642,642,642,642,642,642,642,642,642,642,642,642,642,642,642,642,642,642,642,642,642,642,642,642,642,642,643,648,648,648,648,648,648,648,649,633,620,612,595,593,585,578,558,543,532,531,531,530,530,530,529,529,526,519,519,519,518,517,516,514,511,507,501,492,486,484,480,479,472,469,465,463,459,458,458,458,457,457,457,457,457,457,457,455,455,455,454],"ymouse":[411,411,411,411,411,411,411,411,411,411,411,411,411,411,411,411,411,411,411,411,411,411,411,411,411,411,411,411,411,411,411,411,411,411,411,411,411,411,412,412,412,412,412,412,412,412,411,383,364,354,330,327,311,298,266,243,225,223,220,211,205,202,200,197,191,178,178,178,178,178,178,178,177,176,175,169,166,163,160,160,152,149,143,140,134,129,127,125,123,122,112,109,102,100,96,90,86,84,79],"timestamp_mouse":[16,40,56,76,96,117,137,156,176,196,216,236,256,277,297,316,336,357,376,396,417,437,456,476,497,517,537,558,576,598,617,636,657,676,697,716,736,756,777,797,816,836,857,876,896,916,937,956,977,997,1016,1037,1056,1077,1097,1116,1137,1156,1177,1197,1216,1236,1256,1276,1297,1316,1336,1357,1376,1396,1416,1436,1456,1477,1497,1516,1536,1557,1576,1598,1616,1637,1656,1677,1697,1716,1736,1758,1777,1796,1816,1836,1856,1876,1896,1917,1936,1957,1976],"xSR":624.5,"ySR":363.35,"xT1":354.7,"yT1":0,"xT2":894.3,"yT2":0,"toosoon":0,"cond_shown":"randomdotsizeEA","ratio_trial":750,"smaller_num":"6","larger_num":"8","correct_side":1,"subjID":"analopez","gender":"1","age":"11","school":"6"},{"start_time":1551795053323,"click_time":1551795054825,"finger_time":1551795054285,"fix_duration":1456.845172062818,"trial":16,"RT":962,"MT":540,"sideResp":2,"stimulus":"img/900/equaldotsize/R/11_Ratio_900_L_18_R_20.png","xmouse":[680,680,680,680,680,680,680,680,680,680,680,680,680,680,680,680,680,680,680,680,680,680,680,680,680,680,680,680,680,680,680,680,680,680,680,680,680,680,680,680,680,680,680,680,684,696,710,723,743,749,760,765,773,776,785,801,805,813,824,827,832,839,846,849,859,871,875,877,881,884,887,895,899,900,902,903],"ymouse":[426,426,426,426,426,426,426,426,426,426,426,426,426,426,426,426,426,426,426,426,426,426,426,426,426,426,426,426,426,426,426,426,426,426,426,426,426,426,426,426,426,426,426,426,427,424,420,413,395,389,370,358,341,331,309,272,261,244,225,221,211,198,186,182,167,149,143,140,133,128,124,112,107,104,100,97],"timestamp_mouse":[10,28,42,61,81,102,121,141,161,182,201,221,241,261,283,301,321,342,361,381,401,422,441,463,482,502,522,543,562,581,601,621,642,662,682,702,721,741,762,781,801,821,841,862,881,901,922,941,962,981,1001,1021,1042,1062,1081,1101,1121,1142,1161,1181,1202,1222,1241,1261,1281,1302,1321,1342,1362,1381,1401,1422,1441,1461,1481,1502],"xSR":624.5,"ySR":363.35,"xT1":354.7,"yT1":0,"xT2":894.3,"yT2":0,"toosoon":0,"cond_shown":"equaldotsize","ratio_trial":900,"smaller_num":"18","larger_num":"20","correct_side":2,"subjID":"analopez","gender":"1","age":"11","school":"6"},{"start_time":1551795057349,"click_time":1551795058804,"finger_time":1551795058164,"fix_duration":1484.8745418998237,"trial":17,"RT":815,"MT":640,"sideResp":2,"stimulus":"img/500/equaldotsize/R/9_Ratio_500_L_2_R_4.png","xmouse":[694,694,694,694,694,694,694,694,694,694,694,694,694,694,694,694,694,694,694,694,694,694,694,694,694,694,694,694,694,694,694,694,694,694,694,694,694,697,718,721,729,734,744,760,765,777,783,790,793,803,809,815,820,830,833,844,853,856,863,869,874,875,879,883,886,887,888,890,892,892,893,895,901],"ymouse":[390,390,390,390,390,390,390,390,390,390,390,390,390,390,390,390,390,390,390,390,390,390,390,390,390,390,390,390,390,390,390,390,390,390,390,390,390,390,385,384,382,380,372,347,339,322,313,297,291,273,263,250,237,217,208,190,175,169,157,146,138,135,127,119,113,112,108,107,104,104,102,101,95],"timestamp_mouse":[15,35,55,76,95,115,135,155,175,195,215,237,256,275,296,316,335,355,375,396,416,436,456,476,495,517,535,556,575,595,615,635,655,675,695,715,735,755,775,795,815,835,856,877,896,915,935,955,975,995,1015,1036,1055,1075,1096,1116,1136,1156,1177,1195,1215,1235,1255,1276,1295,1316,1335,1356,1376,1395,1416,1435,1455],"xSR":624.5,"ySR":363.35,"xT1":354.7,"yT1":0,"xT2":894.3,"yT2":0,"toosoon":0,"cond_shown":"equaldotsize","ratio_trial":500,"smaller_num":"2","larger_num":"4","correct_side":2,"subjID":"analopez","gender":"1","age":"11","school":"6"},{"start_time":1551795060527,"click_time":1551795061744,"finger_time":1551795061426,"fix_duration":760.8903972934669,"trial":18,"RT":899,"MT":318,"sideResp":2,"stimulus":"img/750/randomdotsizeEA/L/14_Ratio_750_L_8_R_6.png","xmouse":[645,645,645,645,645,645,645,645,645,645,645,645,645,645,645,645,645,645,645,645,645,645,645,645,645,645,645,645,645,645,645,645,645,645,645,645,645,645,645,645,645,653,689,698,718,729,741,752,768,776,798,814,830,834,844,851,861,875,886,888,895],"ymouse":[418,418,418,418,418,418,418,418,418,418,418,418,418,418,418,418,418,418,418,418,418,418,418,418,418,418,418,418,418,418,418,418,418,418,418,418,418,418,418,418,418,418,393,383,349,328,303,274,244,231,198,177,153,147,134,125,112,92,80,77,67],"timestamp_mouse":[17,37,57,77,98,119,138,157,178,197,217,237,258,277,299,317,337,358,379,397,417,438,457,477,498,519,537,558,577,599,617,638,659,678,697,718,737,757,777,798,818,837,857,877,899,917,938,957,977,997,1017,1038,1057,1078,1097,1117,1137,1157,1177,1197,1217],"xSR":624.5,"ySR":363.35,"xT1":354.7,"yT1":0,"xT2":894.3,"yT2":0,"toosoon":0,"cond_shown":"randomdotsizeEA","ratio_trial":750,"smaller_num":"6","larger_num":"8","correct_side":1,"subjID":"analopez","gender":"1","age":"11","school":"6"},{"start_time":1551795063075,"click_time":1551795064264,"finger_time":1551795063884,"fix_duration":250,"trial":19,"RT":809,"MT":380,"sideResp":2,"stimulus":"img/900/equaldotanddens/R/12_Ratio_900_L_18_R_20.png","xmouse":[682,682,682,682,682,682,682,682,682,682,682,682,682,682,682,682,682,682,682,682,682,682,682,682,682,682,682,682,682,682,682,682,682,682,682,682,682,686,709,723,730,745,752,774,794,806,814,830,840,855,860,872,884,891,896,902,905,913,928,939],"ymouse":[425,425,425,425,425,425,425,425,425,425,425,425,425,425,425,425,425,425,425,425,425,425,425,425,425,425,425,425,425,425,425,425,425,425,425,425,425,426,413,393,381,354,343,301,271,249,239,217,204,189,183,169,157,148,141,133,129,119,101,85],"timestamp_mouse":[9,31,50,69,90,110,129,149,169,189,210,229,249,269,289,309,330,350,371,391,409,429,449,469,490,510,530,550,571,590,609,629,649,669,690,709,730,750,770,789,809,829,849,869,889,909,930,950,970,989,1009,1029,1050,1069,1090,1109,1130,1150,1169,1189],"xSR":624.5,"ySR":363.35,"xT1":354.7,"yT1":0,"xT2":894.3,"yT2":0,"toosoon":0,"cond_shown":"equaldotanddens","ratio_trial":900,"smaller_num":"18","larger_num":"20","correct_side":2,"subjID":"analopez","gender":"1","age":"11","school":"6"},{"start_time":1551795065727,"click_time":1551795067604,"finger_time":1551795066665,"fix_duration":360.014261805371,"trial":20,"RT":938,"MT":939,"sideResp":1,"stimulus":"img/500/equaldotanddens/L/11_Ratio_500_L_12_R_6.png","xmouse":[698,698,698,698,698,698,698,698,698,698,698,698,698,698,698,698,698,698,698,698,698,698,698,698,698,698,698,698,698,698,698,698,698,698,698,698,698,698,698,698,698,698,698,698,698,693,678,653,592,572,568,564,547,533,524,512,510,505,504,502,500,497,494,492,491,489,485,483,474,467,459,458,454,448,446,443,438,435,431,429,427,426,426,425,424,424,424,424,424,424,424,424,424,424],"ymouse":[383,383,383,383,383,383,383,383,383,383,383,383,383,383,383,383,383,383,383,383,383,383,383,383,383,383,383,383,383,383,383,383,383,383,383,383,383,383,383,383,383,383,383,383,383,380,363,332,285,275,271,265,239,223,214,204,201,194,190,182,178,170,163,158,155,149,143,141,134,130,125,124,123,119,118,116,113,111,108,107,105,105,104,102,101,101,101,101,101,101,101,101,101,94],"timestamp_mouse":[17,37,57,78,97,117,137,157,179,198,218,237,257,278,297,317,337,357,378,398,417,437,457,477,497,517,537,557,577,598,618,637,657,677,697,717,738,757,778,798,817,837,857,877,897,917,938,958,977,997,1018,1037,1057,1077,1097,1117,1138,1157,1177,1198,1217,1237,1258,1277,1297,1318,1337,1357,1377,1398,1417,1437,1457,1477,1497,1517,1538,1557,1577,1597,1617,1637,1657,1678,1697,1717,1737,1757,1777,1797,1817,1837,1857,1877],"xSR":624.5,"ySR":363.35,"xT1":354.7,"yT1":0,"xT2":894.3,"yT2":0,"toosoon":0,"cond_shown":"equaldotanddens","ratio_trial":500,"smaller_num":"6","larger_num":"12","correct_side":1,"subjID":"analopez","gender":"1","age":"11","school":"6"},{"start_time":1551795068882,"click_time":1551795069924,"finger_time":1551795069524,"fix_duration":356.71485639963583,"trial":21,"RT":642,"MT":400,"sideResp":2,"stimulus":"img/900/equaldotsize/R/11_Ratio_900_L_18_R_20.png","xmouse":[676,676,676,676,676,676,676,676,676,676,676,676,676,676,676,676,676,676,676,676,676,676,676,676,676,676,676,676,676,678,690,705,727,761,770,774,780,785,796,806,814,819,828,838,842,846,850,854,862,877,888,893,898],"ymouse":[428,428,428,428,428,428,428,428,428,428,428,428,428,428,428,428,428,428,428,428,428,428,428,428,428,428,428,429,429,429,410,383,341,281,265,257,240,230,207,191,179,172,159,143,135,129,124,119,107,91,80,77,73],"timestamp_mouse":[10,23,43,62,83,103,123,142,162,182,203,222,242,262,283,302,322,342,362,382,403,422,443,463,483,502,522,542,562,583,603,622,642,662,682,702,722,742,762,782,802,822,842,863,882,903,924,942,963,982,1003,1023,1042],"xSR":624.5,"ySR":363.35,"xT1":354.7,"yT1":0,"xT2":894.3,"yT2":0,"toosoon":0,"cond_shown":"equaldotsize","ratio_trial":900,"smaller_num":"18","larger_num":"20","correct_side":2,"subjID":"analopez","gender":"1","age":"11","school":"6"},{"start_time":1551795072416,"click_time":1551795074403,"finger_time":1551795073682,"fix_duration":1369.4026623098036,"trial":22,"RT":1266,"MT":721,"sideResp":1,"stimulus":"img/750/randomdotsizeEA/L/8_Ratio_750_L_4_R_3.png","xmouse":[677,677,677,677,677,677,677,677,677,677,677,677,677,677,677,677,677,677,677,677,677,677,677,677,677,677,677,677,677,677,677,677,677,677,677,677,677,677,677,677,677,677,677,677,677,677,677,677,677,677,677,676,674,674,674,674,674,674,674,674,673,673,659,641,622,598,581,572,564,549,539,521,521,521,521,519,517,516,515,511,505,495,491,487,483,470,430,414,409,408,408,408,408,407,406,406,406,409,410,416],"ymouse":[387,387,387,387,387,387,387,387,387,387,387,387,387,387,387,387,387,387,387,387,387,387,387,387,387,387,387,387,387,387,387,387,387,387,387,387,387,387,387,387,387,387,387,387,387,387,387,387,387,387,387,387,387,387,387,387,387,387,387,387,387,387,373,360,347,330,318,309,301,282,271,244,244,239,235,228,221,218,216,208,202,194,191,188,187,178,153,143,139,138,133,128,126,118,112,112,111,108,106,97],"timestamp_mouse":[10,33,48,68,88,108,129,148,170,189,208,226,247,268,286,306,327,348,367,387,406,427,447,468,487,507,527,547,567,586,606,628,647,667,688,707,728,747,767,787,807,827,847,868,888,907,927,947,967,986,1006,1027,1046,1067,1086,1106,1127,1148,1167,1186,1207,1227,1246,1266,1287,1307,1328,1348,1368,1387,1407,1427,1448,1467,1487,1507,1526,1546,1566,1586,1607,1626,1647,1667,1687,1707,1726,1748,1767,1786,1808,1832,1847,1867,1887,1907,1926,1948,1967,1987],"xSR":624.5,"ySR":363.35,"xT1":354.7,"yT1":0,"xT2":894.3,"yT2":0,"toosoon":0,"cond_shown":"randomdotsizeEA","ratio_trial":750,"smaller_num":"3","larger_num":"4","correct_side":1,"subjID":"analopez","gender":"1","age":"11","school":"6"},{"start_time":1551795076063,"click_time":1551795077783,"finger_time":1551795076803,"fix_duration":598.4409055847112,"trial":23,"RT":740,"MT":980,"sideResp":1,"stimulus":"img/500/equaldotsize/L/7_Ratio_500_L_10_R_5.png","xmouse":[678,678,678,678,678,678,678,678,678,678,678,678,678,678,678,678,678,678,678,678,678,678,678,678,678,678,678,678,678,678,678,678,679,684,691,703,710,727,737,745,751,758,770,774,776,777,779,782,785,791,796,803,814,819,821,822,822,822,822,822,821,818,811,764,739,696,678,655,635,621,610,557,529,499,499,499,499,499,497,494,491,487,479,464,456,436,413],"ymouse":[412,412,412,412,412,412,412,412,412,412,412,412,412,412,412,412,412,412,412,412,412,412,412,412,412,412,412,412,412,412,412,412,413,413,410,393,381,349,326,303,290,273,252,244,241,237,234,226,220,205,196,179,157,148,145,142,141,140,140,140,140,140,145,184,200,226,236,247,253,253,253,249,244,241,241,237,234,226,211,201,196,183,169,145,137,114,91],"timestamp_mouse":[8,32,40,59,81,100,120,140,160,179,200,220,240,260,281,300,321,340,361,380,399,419,440,459,480,501,520,541,559,581,599,619,640,660,680,701,719,740,759,780,801,821,839,859,880,900,921,940,960,981,999,1019,1039,1060,1081,1099,1119,1140,1160,1179,1199,1219,1239,1260,1279,1299,1319,1339,1360,1379,1399,1420,1439,1460,1481,1500,1520,1540,1559,1580,1601,1619,1640,1659,1680,1699,1720],"xSR":624.5,"ySR":363.35,"xT1":354.7,"yT1":0,"xT2":894.3,"yT2":0,"toosoon":0,"cond_shown":"equaldotsize","ratio_trial":500,"smaller_num":"5","larger_num":"10","correct_side":1,"subjID":"analopez","gender":"1","age":"11","school":"6"},{"start_time":1551795080206,"click_time":1551795081363,"finger_time":1551795080903,"fix_duration":1379.2836775148837,"trial":24,"RT":697,"MT":460,"sideResp":2,"stimulus":"img/900/equaldotanddens/L/8_Ratio_900_L_20_R_18.png","xmouse":[670,670,670,670,670,670,670,670,670,670,670,670,670,670,670,670,670,670,670,670,670,670,670,670,670,670,670,670,670,670,671,675,685,721,736,743,746,756,773,782,806,831,836,860,869,879,882,886,888,890,891,892,892,893,896,897,898,901],"ymouse":[409,409,409,409,409,409,409,409,409,409,409,409,409,409,409,409,409,409,409,409,409,409,409,409,409,409,409,409,409,409,409,409,406,375,353,335,329,308,277,267,246,231,226,208,198,187,181,167,161,148,146,135,130,122,113,107,103,97],"timestamp_mouse":[17,36,58,78,97,117,136,157,178,196,216,236,257,276,296,316,337,356,376,397,417,437,458,477,498,518,537,558,577,597,617,636,656,676,697,717,737,756,777,797,816,836,857,877,897,916,937,958,977,997,1018,1038,1057,1076,1097,1117,1138,1157],"xSR":624.5,"ySR":363.35,"xT1":354.7,"yT1":0,"xT2":894.3,"yT2":0,"toosoon":0,"cond_shown":"equaldotanddens","ratio_trial":900,"smaller_num":"18","larger_num":"20","correct_side":1,"subjID":"analopez","gender":"1","age":"11","school":"6"},{"start_time":1551795083660,"click_time":1551795084702,"finger_time":1551795084344,"fix_duration":1336.5823766396907,"trial":25,"RT":684,"MT":358,"sideResp":2,"stimulus":"img/500/equaldotanddens/R/9_Ratio_500_L_2_R_4.png","xmouse":[671,671,671,671,671,671,671,671,671,671,671,671,671,671,671,671,671,671,671,671,671,671,671,671,671,671,671,671,671,671,671,675,686,702,740,782,794,801,817,833,854,859,867,872,876,888,895,898,902,904,909,910,914],"ymouse":[393,393,393,393,393,393,393,393,393,393,393,393,393,393,393,393,393,393,393,393,393,393,393,393,393,393,393,393,393,393,393,393,387,371,340,308,297,290,274,257,231,223,206,199,188,163,149,143,130,124,105,100,86],"timestamp_mouse":[11,29,43,64,83,103,122,143,162,182,202,223,243,263,282,302,323,343,362,383,404,424,443,464,483,502,522,542,563,583,603,623,644,663,684,702,723,743,764,782,802,822,842,864,884,903,923,943,963,983,1003,1024,1042],"xSR":624.5,"ySR":363.35,"xT1":354.7,"yT1":0,"xT2":894.3,"yT2":0,"toosoon":0,"cond_shown":"equaldotanddens","ratio_trial":500,"smaller_num":"2","larger_num":"4","correct_side":2,"subjID":"analopez","gender":"1","age":"11","school":"6"},{"start_time":1551795088430,"click_time":1551795090003,"finger_time":1551795089402,"fix_duration":1245.0810412617218,"trial":26,"RT":972,"MT":601,"sideResp":2,"stimulus":"img/500/randomdotsizeEA/R/14_Ratio_500_L_5_R_10.png","xmouse":[693,693,693,693,693,693,693,693,693,693,693,693,693,693,693,693,693,693,693,693,693,693,693,693,693,693,693,693,693,693,693,693,693,693,693,693,693,693,693,693,693,693,693,693,693,693,693,700,731,748,771,779,811,819,837,850,892,900,913,918,928,939,945,947,950,953,955,956,958,958,958,958,958,958,958,958,958,958,958],"ymouse":[410,410,410,410,410,410,410,410,410,410,410,410,410,410,410,410,410,410,410,410,410,410,410,410,410,410,410,410,410,410,410,410,410,410,410,410,410,410,410,410,410,410,410,410,410,410,410,402,353,333,316,310,289,284,271,261,228,221,207,201,189,176,165,163,154,149,144,133,125,121,115,114,109,106,104,103,101,100,99],"timestamp_mouse":[14,40,52,73,93,113,132,153,174,193,214,232,253,273,293,312,332,352,372,393,412,432,452,472,492,514,533,553,573,593,614,632,652,673,693,713,733,754,773,793,813,833,853,873,893,913,934,953,972,992,1012,1033,1052,1073,1092,1112,1133,1154,1173,1192,1212,1233,1254,1273,1293,1312,1332,1352,1374,1393,1413,1433,1453,1472,1492,1512,1532,1552,1572],"xSR":624.5,"ySR":363.35,"xT1":354.7,"yT1":0,"xT2":894.3,"yT2":0,"toosoon":0,"cond_shown":"randomdotsizeEA","ratio_trial":500,"smaller_num":"5","larger_num":"10","correct_side":2,"subjID":"analopez","gender":"1","age":"11","school":"6"},{"start_time":1551795091567,"click_time":1551795092803,"finger_time":1551795092223,"fix_duration":583.2803835484386,"trial":27,"RT":656,"MT":580,"sideResp":1,"stimulus":"img/250/equaldotanddens/L/5_Ratio_250_L_24_R_6.png","xmouse":[675,675,675,675,675,675,675,675,675,675,675,675,675,675,675,675,675,675,675,675,675,675,675,675,675,675,675,675,675,675,674,666,589,566,545,536,535,528,522,519,514,512,510,504,499,491,486,476,471,465,458,441,412,409,409,409,409,411,413,414,414,414],"ymouse":[405,405,405,405,405,405,405,405,405,405,405,405,405,405,405,405,405,405,405,405,405,405,405,405,405,405,405,405,405,405,405,403,361,350,341,337,335,325,312,308,297,287,283,270,262,251,243,231,226,218,205,177,134,125,125,125,124,122,114,105,101,90],"timestamp_mouse":[16,36,57,76,95,116,135,157,175,196,216,235,257,276,296,316,336,356,376,396,417,436,457,476,496,515,535,557,576,596,617,636,656,676,695,716,737,756,776,796,816,837,855,876,896,916,935,956,975,996,1016,1037,1056,1075,1097,1116,1137,1155,1175,1197,1216,1236],"xSR":624.5,"ySR":363.35,"xT1":354.7,"yT1":0,"xT2":894.3,"yT2":0,"toosoon":0,"cond_shown":"equaldotanddens","ratio_trial":250,"smaller_num":"6","larger_num":"24","correct_side":1,"subjID":"analopez","gender":"1","age":"11","school":"6"},{"start_time":1551795095266,"click_time":1551795096483,"finger_time":1551795096023,"fix_duration":1182.2487997293795,"trial":28,"RT":757,"MT":460,"sideResp":1,"stimulus":"img/500/equaldotsize/L/8_Ratio_500_L_8_R_4.png","xmouse":[674,674,674,674,674,674,674,674,674,674,674,674,674,674,674,674,674,674,674,674,674,674,674,674,674,674,674,674,674,674,674,674,674,674,674,674,674,658,649,625,610,589,567,540,532,526,521,511,503,491,487,486,476,470,469,465,459,456,453,446,441],"ymouse":[399,399,399,399,399,399,399,399,399,399,399,399,399,399,399,399,399,399,399,399,399,399,399,399,399,399,399,399,399,399,399,399,399,399,399,399,386,359,348,322,307,282,256,230,224,217,208,193,185,174,170,166,151,143,141,136,127,122,118,106,99],"timestamp_mouse":[27,38,57,77,96,117,138,157,176,196,218,236,257,276,296,316,337,356,377,397,418,438,457,477,498,517,537,557,577,596,618,637,657,676,698,716,737,757,777,798,817,837,857,877,898,916,937,957,977,997,1018,1038,1057,1077,1096,1116,1138,1156,1177,1197,1217],"xSR":624.5,"ySR":363.35,"xT1":354.7,"yT1":0,"xT2":894.3,"yT2":0,"toosoon":0,"cond_shown":"equaldotsize","ratio_trial":500,"smaller_num":"4","larger_num":"8","correct_side":1,"subjID":"analopez","gender":"1","age":"11","school":"6"},{"start_time":1551795098991,"click_time":1551795100403,"finger_time":1551795099703,"fix_duration":1446.273451160294,"trial":29,"RT":712,"MT":700,"sideResp":2,"stimulus":"img/750/equaldotanddens/R/11_Ratio_750_L_12_R_16.png","xmouse":[665,665,665,665,665,665,665,665,665,665,665,665,665,665,665,665,665,665,665,665,665,665,665,665,665,665,665,665,665,665,665,665,667,673,720,728,730,739,744,760,769,774,775,779,785,792,795,805,808,820,827,832,834,840,843,851,854,859,860,864,870,873,875,878,883,884,886,889,891,893,898],"ymouse":[407,407,407,407,407,407,407,407,407,407,407,407,407,407,407,407,407,407,407,407,407,407,407,407,407,407,407,407,407,407,407,407,407,407,385,381,380,371,366,352,337,320,310,287,257,234,224,203,195,169,156,146,142,129,126,111,106,99,97,90,84,80,79,76,73,71,70,67,67,66,65],"timestamp_mouse":[12,34,52,72,92,111,131,151,173,193,212,232,251,272,293,311,331,351,371,391,411,431,451,472,491,513,532,552,572,593,612,633,652,671,691,712,733,753,772,791,812,833,852,872,892,912,932,953,973,992,1011,1032,1053,1073,1092,1112,1132,1153,1172,1193,1212,1232,1252,1272,1292,1312,1332,1352,1372,1392,1412],"xSR":624.5,"ySR":363.35,"xT1":354.7,"yT1":0,"xT2":894.3,"yT2":0,"toosoon":0,"cond_shown":"equaldotanddens","ratio_trial":750,"smaller_num":"12","larger_num":"16","correct_side":2,"subjID":"analopez","gender":"1","age":"11","school":"6"},{"start_time":1551795101663,"click_time":1551795102803,"finger_time":1551795102362,"fix_duration":497.20420021913503,"trial":30,"RT":699,"MT":441,"sideResp":2,"stimulus":"img/900/randomdotsizeEA/L/8_Ratio_900_L_20_R_18.png","xmouse":[668,668,668,668,668,668,668,668,668,668,668,668,668,668,668,668,668,668,668,668,668,668,668,668,668,668,668,668,668,668,669,675,696,705,724,734,740,749,765,788,798,811,817,831,850,855,859,865,871,879,882,887,892,894,897,899,901,903],"ymouse":[426,426,426,426,426,426,426,426,426,426,426,426,426,426,426,426,426,426,426,426,426,426,426,426,426,426,426,426,426,426,426,426,411,402,376,361,353,335,309,272,260,242,233,218,198,191,185,178,168,153,147,138,129,124,113,107,102,93],"timestamp_mouse":[6,23,40,59,80,100,120,139,159,180,200,220,241,260,280,299,321,341,361,382,401,419,441,460,480,500,520,541,560,581,600,619,640,660,679,699,719,740,760,779,799,820,841,860,881,900,921,940,961,979,1000,1020,1040,1060,1080,1101,1119,1140],"xSR":624.5,"ySR":363.35,"xT1":354.7,"yT1":0,"xT2":894.3,"yT2":0,"toosoon":0,"cond_shown":"randomdotsizeEA","ratio_trial":900,"smaller_num":"18","larger_num":"20","correct_side":1,"subjID":"analopez","gender":"1","age":"11","school":"6"},{"start_time":1551795104076,"click_time":1551795105203,"finger_time":1551795104843,"fix_duration":250,"trial":31,"RT":767,"MT":360,"sideResp":2,"stimulus":"img/500/randomdotsizeEA/R/6_Ratio_500_L_9_R_18.png","xmouse":[678,678,678,678,678,678,678,678,678,678,678,678,678,678,678,678,678,678,678,678,678,678,678,678,678,678,678,678,678,678,678,678,678,678,678,678,705,716,735,741,757,762,774,784,806,821,859,866,880,885,897,914,926,930,937,941,944],"ymouse":[418,418,418,418,418,418,418,418,418,418,418,418,418,418,418,418,418,418,418,418,418,418,418,418,418,418,418,418,418,418,418,418,418,418,418,418,412,405,386,370,331,322,299,286,257,237,199,195,182,176,165,147,132,127,115,107,94],"timestamp_mouse":[11,35,46,67,87,108,126,147,168,186,207,226,246,267,287,307,327,347,368,387,407,427,448,467,487,506,528,547,567,587,606,627,646,666,687,706,727,747,767,787,808,828,847,866,887,907,928,948,967,988,1007,1027,1047,1067,1086,1107,1127],"xSR":624.5,"ySR":363.35,"xT1":354.7,"yT1":0,"xT2":894.3,"yT2":0,"toosoon":0,"cond_shown":"randomdotsizeEA","ratio_trial":500,"smaller_num":"9","larger_num":"18","correct_side":2,"subjID":"analopez","gender":"1","age":"11","school":"6"},{"start_time":1551795107555,"click_time":1551795108683,"finger_time":1551795108243,"fix_duration":1290.3121626892964,"trial":32,"RT":688,"MT":440,"sideResp":2,"stimulus":"img/500/equaldotanddens/R/9_Ratio_500_L_2_R_4.png","xmouse":[674,674,674,674,674,674,674,674,674,674,674,674,674,674,674,674,674,674,674,674,674,674,674,674,674,674,674,674,674,674,674,674,685,696,728,800,828,831,834,835,838,842,848,852,862,872,878,882,890,893,902,911,916,919,925,933,938],"ymouse":[419,419,419,419,419,419,419,419,419,419,419,419,419,419,419,419,419,419,419,419,419,419,419,419,419,419,419,419,419,419,419,419,419,414,402,349,321,313,299,290,269,251,236,228,213,195,184,176,163,157,143,130,120,117,110,101,95],"timestamp_mouse":[12,33,48,68,88,108,128,148,167,188,207,229,249,269,288,308,328,348,368,388,409,429,448,468,489,509,528,549,568,588,608,628,648,668,688,707,728,748,768,787,807,828,847,869,887,907,928,948,967,988,1007,1028,1049,1068,1088,1108,1128],"xSR":624.5,"ySR":363.35,"xT1":354.7,"yT1":0,"xT2":894.3,"yT2":0,"toosoon":0,"cond_shown":"equaldotanddens","ratio_trial":500,"smaller_num":"2","larger_num":"4","correct_side":2,"subjID":"analopez","gender":"1","age":"11","school":"6"},{"start_time":1551795110276,"click_time":1551795111523,"finger_time":1551795111022,"fix_duration":411.4398743193537,"trial":33,"RT":746,"MT":501,"sideResp":1,"stimulus":"img/750/equaldotanddens/L/8_Ratio_750_L_4_R_3.png","xmouse":[684,684,684,684,684,684,684,684,684,684,684,684,684,684,684,684,684,684,684,684,684,684,684,684,684,684,684,684,684,684,684,684,684,684,684,673,657,597,589,574,571,558,520,501,499,493,489,483,479,476,474,472,464,461,457,454,453,452,451,446,437,433,427],"ymouse":[408,408,408,408,408,408,408,408,408,408,408,408,408,408,408,408,408,408,408,408,408,408,408,408,408,408,408,408,408,408,408,408,408,408,408,399,386,352,350,344,343,335,314,304,302,299,295,289,286,283,280,279,271,269,266,261,253,234,224,198,163,145,96],"timestamp_mouse":[6,26,47,67,87,108,127,147,168,187,207,227,248,267,287,307,327,347,367,387,407,428,447,467,487,508,527,547,567,587,607,627,648,668,687,707,728,746,767,787,807,828,847,867,887,907,928,946,967,988,1006,1027,1046,1067,1088,1107,1128,1147,1167,1188,1206,1227,1247],"xSR":624.5,"ySR":363.35,"xT1":354.7,"yT1":0,"xT2":894.3,"yT2":0,"toosoon":0,"cond_shown":"equaldotanddens","ratio_trial":750,"smaller_num":"3","larger_num":"4","correct_side":1,"subjID":"analopez","gender":"1","age":"11","school":"6"},{"start_time":1551795113966,"click_time":1551795115043,"finger_time":1551795114642,"fix_duration":1422.722412801099,"trial":34,"RT":676,"MT":401,"sideResp":2,"stimulus":"img/900/equaldotsize/R/14_Ratio_900_L_18_R_20.png","xmouse":[683,683,683,683,683,683,683,683,683,683,683,683,683,683,683,683,683,683,683,683,683,683,683,683,683,683,683,683,683,683,683,683,692,756,785,814,832,833,836,841,847,868,872,877,879,885,891,895,897,900,902,907,908,909],"ymouse":[413,413,413,413,413,413,413,413,413,413,413,413,413,413,413,413,413,413,413,413,413,413,413,413,413,413,413,413,413,413,413,413,411,360,328,301,282,280,275,266,258,224,217,206,202,185,164,150,145,133,127,110,103,98],"timestamp_mouse":[16,37,57,76,96,116,137,157,176,196,217,237,257,276,297,317,336,356,378,397,417,437,456,477,496,517,538,556,577,596,616,636,656,676,696,716,737,757,777,797,817,837,857,876,896,917,936,957,976,996,1016,1036,1056,1077],"xSR":624.5,"ySR":363.35,"xT1":354.7,"yT1":0,"xT2":894.3,"yT2":0,"toosoon":0,"cond_shown":"equaldotsize","ratio_trial":900,"smaller_num":"18","larger_num":"20","correct_side":2,"subjID":"analopez","gender":"1","age":"11","school":"6"},{"start_time":1551795116878,"click_time":1551795118302,"finger_time":1551795117683,"fix_duration":594.111231323632,"trial":35,"RT":805,"MT":619,"sideResp":1,"stimulus":"img/250/equaldotanddens/L/3_Ratio_250_L_8_R_2.png","xmouse":[689,689,689,689,689,689,689,689,689,689,689,689,689,689,689,689,689,689,689,689,689,689,689,689,689,689,689,689,689,689,689,689,689,689,689,689,689,689,689,670,627,529,497,496,495,492,488,481,481,474,468,459,453,451,446,442,440,428,405,370,352,338,335,335,335,333,332,331,331,331,336,361],"ymouse":[381,381,381,381,381,381,381,381,381,381,381,381,381,381,381,381,381,381,381,381,381,381,381,381,381,381,381,381,381,381,381,381,381,381,381,381,381,381,381,369,342,292,277,277,277,274,270,265,265,261,257,251,245,242,235,230,225,214,200,188,180,172,170,168,166,162,159,156,149,144,116,73],"timestamp_mouse":[10,27,44,65,85,106,126,145,166,185,206,225,245,265,286,305,325,345,366,385,405,425,445,464,484,504,524,546,564,586,604,624,644,664,685,704,725,745,766,784,805,825,845,864,885,905,925,945,966,985,1004,1025,1044,1066,1085,1105,1125,1144,1166,1185,1204,1225,1244,1264,1285,1305,1326,1344,1364,1385,1406,1424],"xSR":624.5,"ySR":363.35,"xT1":354.7,"yT1":0,"xT2":894.3,"yT2":0,"toosoon":0,"cond_shown":"equaldotanddens","ratio_trial":250,"smaller_num":"2","larger_num":"8","correct_side":1,"subjID":"analopez","gender":"1","age":"11","school":"6"},{"start_time":1551795119455,"click_time":1551795120884,"finger_time":1551795120363,"fix_duration":250,"trial":36,"RT":908,"MT":521,"sideResp":1,"stimulus":"img/250/randomdotsizeEA/L/15_Ratio_250_L_12_R_3.png","xmouse":[691,691,691,691,691,691,691,691,691,691,691,691,691,691,691,691,691,691,691,691,691,691,691,691,691,691,691,691,691,691,691,691,691,695,705,707,714,716,717,717,717,717,716,695,641,603,520,481,385,377,369,369,367,367,367,368,370,371,372,372,374,375,380,389,395,398,400,400,402,403,404,404],"ymouse":[422,422,422,422,422,422,422,422,422,422,422,422,422,422,422,422,422,422,422,422,422,422,422,422,422,422,422,422,422,422,422,422,422,422,421,420,415,412,408,408,408,407,406,400,385,374,352,339,298,292,283,279,264,241,231,229,221,218,205,202,192,186,170,145,130,123,117,114,111,104,100,98],"timestamp_mouse":[10,28,48,67,89,107,128,149,168,188,209,228,249,267,289,308,328,349,369,389,408,428,449,469,489,508,529,547,569,588,609,629,649,668,688,708,729,748,768,789,808,828,848,868,888,908,929,947,968,987,1008,1029,1048,1068,1089,1107,1128,1147,1168,1188,1207,1229,1249,1268,1288,1307,1327,1348,1368,1387,1408,1429],"xSR":624.5,"ySR":363.35,"xT1":354.7,"yT1":0,"xT2":894.3,"yT2":0,"toosoon":0,"cond_shown":"randomdotsizeEA","ratio_trial":250,"smaller_num":"3","larger_num":"12","correct_side":1,"subjID":"analopez","gender":"1","age":"11","school":"6"},{"start_time":1551795123445,"click_time":1551795124923,"finger_time":1551795124322,"fix_duration":1499.5729465547158,"trial":37,"RT":877,"MT":601,"sideResp":2,"stimulus":"img/750/equaldotanddens/R/12_Ratio_750_L_3_R_4.png","xmouse":[659,659,659,659,659,659,659,659,659,659,659,659,659,659,659,659,659,659,659,659,659,659,659,659,659,659,659,659,659,659,659,659,659,659,659,659,660,674,691,693,697,700,710,716,722,725,733,741,748,750,756,760,767,782,793,799,810,829,842,849,854,856,862,870,873,874,877,880,882,884,887,888,891,896],"ymouse":[404,404,404,404,404,404,404,404,404,404,404,404,404,404,404,404,404,404,404,404,404,404,404,404,404,404,404,404,404,404,404,404,404,404,404,404,404,404,400,398,394,388,369,355,340,332,315,296,279,273,260,252,235,207,188,180,165,143,129,123,113,111,102,91,87,86,83,78,75,73,69,68,64,60],"timestamp_mouse":[18,38,58,77,97,117,137,157,178,197,218,238,258,278,297,318,338,358,378,398,418,439,458,478,498,518,538,557,577,599,619,637,657,677,699,718,737,758,778,797,817,837,858,877,898,918,938,958,978,998,1019,1038,1057,1078,1097,1118,1139,1158,1179,1197,1218,1238,1257,1277,1298,1318,1339,1359,1379,1398,1419,1438,1457,1478],"xSR":624.5,"ySR":363.35,"xT1":354.7,"yT1":0,"xT2":894.3,"yT2":0,"toosoon":0,"cond_shown":"equaldotanddens","ratio_trial":750,"smaller_num":"3","larger_num":"4","correct_side":2,"subjID":"analopez","gender":"1","age":"11","school":"6"},{"start_time":1551795126541,"click_time":1551795127783,"finger_time":1551795127402,"fix_duration":537.9137104506739,"trial":38,"RT":861,"MT":381,"sideResp":2,"stimulus":"img/900/equaldotanddens/R/13_Ratio_900_L_18_R_20.png","xmouse":[671,671,671,671,671,671,671,671,671,671,671,671,671,671,671,671,671,671,671,671,671,671,671,671,671,671,671,671,671,671,671,671,671,671,671,671,671,671,671,671,681,698,706,718,729,733,752,771,786,792,801,816,821,832,841,848,857,869,877,880,888,891,901],"ymouse":[397,397,397,397,397,397,397,397,397,397,397,397,397,397,397,397,397,397,397,397,397,397,397,397,397,397,397,397,397,397,397,397,397,397,397,397,397,397,397,397,395,383,376,363,348,342,314,292,275,266,255,235,227,211,195,186,169,146,129,124,112,107,91],"timestamp_mouse":[9,31,42,61,81,101,121,142,162,182,202,222,241,262,282,301,322,341,362,382,402,422,441,462,482,502,521,542,562,582,602,621,643,662,682,702,722,742,762,782,801,821,842,861,882,901,922,941,962,982,1003,1022,1041,1062,1082,1102,1122,1142,1162,1182,1202,1223,1242],"xSR":624.5,"ySR":363.35,"xT1":354.7,"yT1":0,"xT2":894.3,"yT2":0,"toosoon":0,"cond_shown":"equaldotanddens","ratio_trial":900,"smaller_num":"18","larger_num":"20","correct_side":2,"subjID":"analopez","gender":"1","age":"11","school":"6"},{"start_time":1551795130384,"click_time":1551795131622,"finger_time":1551795131103,"fix_duration":1459.4981725423759,"trial":39,"RT":719,"MT":519,"sideResp":1,"stimulus":"img/250/randomdotsizeEA/L/7_Ratio_250_L_8_R_2.png","xmouse":[668,668,668,668,668,668,668,668,668,668,668,668,668,668,668,668,668,668,668,668,668,668,668,668,668,668,668,668,668,668,668,668,668,662,645,597,572,528,514,509,503,493,483,480,478,476,475,473,466,465,463,458,453,448,442,439,437,433,428,425,422,422],"ymouse":[422,422,422,422,422,422,422,422,422,422,422,422,422,422,422,422,422,422,422,422,422,422,422,422,422,422,422,422,422,422,422,422,422,421,410,382,361,326,315,311,296,275,246,238,223,215,201,188,170,168,164,157,152,149,144,142,141,136,129,123,109,97],"timestamp_mouse":[18,40,59,79,99,119,138,158,178,199,220,239,258,278,298,320,339,359,379,399,419,438,458,479,499,519,539,559,578,599,619,639,659,679,698,719,739,759,778,800,820,839,859,879,898,918,939,960,979,999,1018,1038,1059,1078,1099,1119,1139,1160,1179,1200,1220,1238],"xSR":624.5,"ySR":363.35,"xT1":354.7,"yT1":0,"xT2":894.3,"yT2":0,"toosoon":0,"cond_shown":"randomdotsizeEA","ratio_trial":250,"smaller_num":"2","larger_num":"8","correct_side":1,"subjID":"analopez","gender":"1","age":"11","school":"6"},{"start_time":1551795133795,"click_time":1551795134846,"finger_time":1551795134586,"fix_duration":1167.3128124473365,"trial":40,"RT":791,"MT":260,"sideResp":1,"stimulus":"img/500/equaldotsize/L/11_Ratio_500_L_12_R_6.png","xmouse":[685,685,685,685,685,685,685,685,685,685,685,685,685,685,685,685,685,685,685,685,685,685,685,685,685,685,685,685,685,685,685,685,685,685,685,685,685,685,646,617,580,491,482,481,476,472,456,452,449,449,447,442,438],"ymouse":[426,426,426,426,426,426,426,426,426,426,426,426,426,426,426,426,426,426,426,426,426,426,426,426,426,426,426,426,426,426,426,426,426,426,426,426,426,426,368,332,295,210,201,200,188,179,154,148,138,133,120,103,96],"timestamp_mouse":[17,34,51,72,92,110,130,151,171,190,211,231,251,272,290,310,332,351,371,391,411,431,451,471,491,511,532,551,571,591,611,631,651,671,690,710,731,751,770,791,812,831,851,871,890,912,931,950,970,992,1011,1031,1051],"xSR":624.5,"ySR":363.35,"xT1":354.7,"yT1":0,"xT2":894.3,"yT2":0,"toosoon":0,"cond_shown":"equaldotsize","ratio_trial":500,"smaller_num":"6","larger_num":"12","correct_side":1,"subjID":"analopez","gender":"1","age":"11","school":"6"},{"start_time":1551795137163,"click_time":1551795138106,"finger_time":1551795137865,"fix_duration":1176.0572725410518,"trial":41,"RT":702,"MT":241,"sideResp":1,"stimulus":"img/250/equaldotsize/L/2_Ratio_250_L_16_R_4.png","xmouse":[670,670,670,670,670,670,670,670,670,670,670,670,670,670,670,670,670,670,670,670,670,670,670,670,670,670,670,670,670,670,670,670,670,670,657,616,535,494,488,488,481,468,464,459,451,449,445,445],"ymouse":[419,419,419,419,419,419,419,419,419,419,419,419,419,419,419,419,419,419,419,419,419,419,419,419,419,419,419,419,419,419,419,419,419,419,403,358,267,231,224,223,204,172,163,149,125,118,102,93],"timestamp_mouse":[10,34,42,63,83,103,123,143,163,183,203,223,243,263,283,303,323,342,363,383,403,423,443,463,482,503,524,543,563,583,603,622,643,663,683,702,724,743,762,783,803,823,842,863,884,903,924,943],"xSR":624.5,"ySR":363.35,"xT1":354.7,"yT1":0,"xT2":894.3,"yT2":0,"toosoon":0,"cond_shown":"equaldotsize","ratio_trial":250,"smaller_num":"4","larger_num":"16","correct_side":1,"subjID":"analopez","gender":"1","age":"11","school":"6"},{"start_time":1551795140376,"click_time":1551795141786,"finger_time":1551795141166,"fix_duration":1207.8961294642522,"trial":42,"RT":790,"MT":620,"sideResp":2,"stimulus":"img/900/equaldotanddens/R/5_Ratio_900_L_9_R_10.png","xmouse":[663,663,663,663,663,663,663,663,663,663,663,663,663,663,663,663,663,663,663,663,663,663,663,663,663,663,663,663,663,663,663,663,663,663,666,686,698,716,723,739,747,752,769,785,813,820,831,839,843,853,858,861,867,872,877,878,879,882,882,883,885,886,886,889,892,893,896,900,901,906,911],"ymouse":[423,423,423,423,423,423,423,423,423,423,423,423,423,423,423,423,423,423,423,423,423,423,423,423,423,423,423,423,423,423,423,423,423,423,422,407,396,381,373,351,339,333,316,300,277,271,260,249,244,229,219,212,202,189,173,167,164,156,153,149,141,139,137,131,125,122,118,111,110,102,97],"timestamp_mouse":[9,30,50,70,90,111,130,150,170,190,210,230,250,271,290,310,329,350,370,390,410,430,450,470,489,509,531,550,570,590,610,630,651,670,690,710,730,750,770,790,811,831,850,871,890,910,930,950,970,989,1010,1030,1050,1071,1090,1110,1130,1150,1170,1190,1211,1229,1251,1270,1290,1311,1329,1350,1370,1391,1410],"xSR":624.5,"ySR":363.35,"xT1":354.7,"yT1":0,"xT2":894.3,"yT2":0,"toosoon":0,"cond_shown":"equaldotanddens","ratio_trial":900,"smaller_num":"9","larger_num":"10","correct_side":2,"subjID":"analopez","gender":"1","age":"11","school":"6"},{"start_time":1551795143656,"click_time":1551795145166,"finger_time":1551795144426,"fix_duration":627.741055813542,"trial":43,"RT":770,"MT":740,"sideResp":2,"stimulus":"img/900/randomdotsizeEA/R/14_Ratio_900_L_18_R_20.png","xmouse":[675,675,675,675,675,675,675,675,675,675,675,675,675,675,675,675,675,675,675,675,675,675,675,675,675,675,675,675,675,675,675,675,675,676,677,687,695,702,729,735,745,747,754,770,780,784,790,794,796,803,807,812,818,824,830,834,839,849,853,863,866,868,871,876,879,880,882,883,883,884,884,886,888,891,893,896],"ymouse":[402,402,402,402,402,402,402,402,402,402,402,402,402,402,402,402,402,402,402,402,402,402,402,402,402,402,402,402,402,402,402,402,402,403,403,401,396,386,353,347,339,335,323,301,290,286,281,276,273,262,251,244,231,215,204,196,183,167,160,142,134,130,123,114,107,106,102,100,100,99,97,94,91,88,85,82],"timestamp_mouse":[10,30,49,70,90,110,130,150,170,191,209,231,250,270,290,310,330,351,370,389,410,430,450,469,489,510,530,550,570,590,610,631,651,671,689,711,730,751,770,790,810,830,850,870,889,910,930,950,970,990,1010,1029,1050,1071,1090,1109,1130,1150,1170,1189,1210,1230,1250,1270,1290,1310,1330,1351,1370,1390,1410,1430,1450,1470,1489,1510],"xSR":624.5,"ySR":363.35,"xT1":354.7,"yT1":0,"xT2":894.3,"yT2":0,"toosoon":0,"cond_shown":"randomdotsizeEA","ratio_trial":900,"smaller_num":"18","larger_num":"20","correct_side":2,"subjID":"analopez","gender":"1","age":"11","school":"6"},{"start_time":1551795147641,"click_time":1551795148766,"finger_time":1551795148406,"fix_duration":1354.7185525771247,"trial":44,"RT":765,"MT":360,"sideResp":2,"stimulus":"img/900/randomdotsizeEA/L/1_Ratio_900_L_10_R_9.png","xmouse":[683,683,683,683,683,683,683,683,683,683,683,683,683,683,683,683,683,683,683,683,683,683,683,683,683,683,683,683,683,683,683,683,683,683,684,691,710,718,730,744,748,759,781,807,813,822,826,830,838,844,851,854,863,875,879,888,898],"ymouse":[400,400,400,400,400,400,400,400,400,400,400,400,400,400,400,400,400,400,400,400,400,400,400,400,400,400,400,400,400,400,400,400,400,400,399,397,390,382,367,340,332,312,279,247,236,218,211,195,168,151,138,133,119,99,93,82,71],"timestamp_mouse":[10,25,45,65,85,104,125,145,165,185,205,225,245,265,285,306,326,345,365,385,405,425,446,466,484,505,526,545,565,585,605,625,645,666,685,704,726,745,765,785,805,825,845,866,886,905,924,944,966,984,1005,1024,1045,1066,1085,1106,1125],"xSR":624.5,"ySR":363.35,"xT1":354.7,"yT1":0,"xT2":894.3,"yT2":0,"toosoon":0,"cond_shown":"randomdotsizeEA","ratio_trial":900,"smaller_num":"9","larger_num":"10","correct_side":1,"subjID":"analopez","gender":"1","age":"11","school":"6"},{"start_time":1551795151012,"click_time":1551795152486,"finger_time":1551795151967,"fix_duration":965.6245993821979,"trial":45,"RT":955,"MT":519,"sideResp":2,"stimulus":"img/750/randomdotsizeEA/R/11_Ratio_750_L_12_R_16.png","xmouse":[649,649,649,649,649,649,649,649,649,649,649,649,649,649,649,649,649,649,649,649,649,649,649,649,649,649,649,649,649,649,649,649,649,649,649,649,649,649,649,649,649,649,649,649,649,649,674,692,760,787,827,837,855,862,898,904,911,914,916,916,916,916,917,918,920,922,923,923,925,928,930,930,932,932],"ymouse":[409,409,409,409,409,409,409,409,409,409,409,409,409,409,409,409,409,409,409,409,409,409,409,409,409,409,409,409,409,409,409,409,409,409,409,409,409,409,409,409,409,409,409,409,409,409,367,343,266,237,203,196,182,176,145,138,127,124,123,123,123,123,122,122,120,118,117,116,113,108,105,104,101,99],"timestamp_mouse":[13,35,54,75,95,115,134,154,174,194,214,234,254,274,294,314,335,355,374,394,414,433,454,474,494,514,535,554,573,593,613,633,655,674,695,715,735,754,775,794,814,833,855,873,893,915,934,955,974,993,1015,1034,1054,1073,1094,1114,1134,1153,1174,1194,1215,1234,1254,1275,1294,1314,1334,1353,1374,1394,1414,1434,1455,1474],"xSR":624.5,"ySR":363.35,"xT1":354.7,"yT1":0,"xT2":894.3,"yT2":0,"toosoon":0,"cond_shown":"randomdotsizeEA","ratio_trial":750,"smaller_num":"12","larger_num":"16","correct_side":2,"subjID":"analopez","gender":"1","age":"11","school":"6"},{"start_time":1551795154983,"click_time":1551795156186,"finger_time":1551795155727,"fix_duration":1315.404946584425,"trial":46,"RT":744,"MT":459,"sideResp":2,"stimulus":"img/750/equaldotsize/R/12_Ratio_750_L_3_R_4.png","xmouse":[696,696,696,696,696,696,696,696,696,696,696,696,696,696,696,696,696,696,696,696,696,696,696,696,696,696,696,696,696,696,696,696,696,696,704,711,724,732,748,766,782,788,807,815,839,845,859,864,870,879,882,887,894,902,905,910,912,913,916,919,919],"ymouse":[405,405,405,405,405,405,405,405,405,405,405,405,405,405,405,405,405,405,405,405,405,405,405,405,405,405,405,405,405,405,405,405,405,405,403,396,375,367,353,334,313,301,274,263,233,227,216,210,200,189,181,173,161,151,146,136,130,127,116,103,98],"timestamp_mouse":[12,26,43,63,83,103,124,143,162,184,203,224,243,262,284,303,322,343,363,383,403,423,443,463,484,504,522,543,563,582,603,623,644,662,682,703,722,744,763,782,802,823,844,863,883,902,924,944,963,983,1002,1023,1043,1063,1082,1103,1122,1143,1163,1184,1203],"xSR":624.5,"ySR":363.35,"xT1":354.7,"yT1":0,"xT2":894.3,"yT2":0,"toosoon":0,"cond_shown":"equaldotsize","ratio_trial":750,"smaller_num":"3","larger_num":"4","correct_side":2,"subjID":"analopez","gender":"1","age":"11","school":"6"},{"start_time":1551795157629,"click_time":1551795158886,"finger_time":1551795158406,"fix_duration":762.8604368179698,"trial":47,"RT":777,"MT":480,"sideResp":2,"stimulus":"img/250/equaldotanddens/R/12_Ratio_250_L_5_R_20.png","xmouse":[683,683,683,683,683,683,683,683,683,683,683,683,683,683,683,683,683,683,683,683,683,683,683,683,683,683,683,683,683,683,683,683,683,683,683,683,686,712,737,779,790,795,796,797,800,826,840,852,855,863,873,878,881,888,896,903,905,910,912,921,922,925,927],"ymouse":[419,419,419,419,419,419,419,419,419,419,419,419,419,419,419,419,419,419,419,419,419,419,419,419,419,419,419,419,419,419,419,419,419,419,419,419,419,409,388,339,318,305,301,297,293,261,244,225,217,203,191,180,176,164,148,137,132,125,122,109,107,102,99],"timestamp_mouse":[17,39,56,76,96,117,137,157,176,197,216,237,257,277,297,317,337,357,377,396,417,437,457,477,498,517,537,557,577,597,618,637,657,676,696,718,736,756,777,797,818,837,857,877,897,918,938,958,977,997,1018,1037,1058,1078,1097,1116,1136,1158,1177,1198,1217,1236,1257],"xSR":624.5,"ySR":363.35,"xT1":354.7,"yT1":0,"xT2":894.3,"yT2":0,"toosoon":0,"cond_shown":"equaldotanddens","ratio_trial":250,"smaller_num":"5","larger_num":"20","correct_side":2,"subjID":"analopez","gender":"1","age":"11","school":"6"},{"start_time":1551795160380,"click_time":1551795161746,"finger_time":1551795161346,"fix_duration":572.8762174541491,"trial":48,"RT":966,"MT":400,"sideResp":2,"stimulus":"img/250/equaldotsize/R/8_Ratio_250_L_1_R_4.png","xmouse":[679,679,679,679,679,679,679,679,679,679,679,679,679,679,679,679,679,679,679,679,679,679,679,679,679,679,679,679,679,679,679,679,679,679,679,679,679,679,679,679,679,679,679,679,679,679,683,698,728,741,761,779,785,801,820,841,848,857,866,871,886,897,905,908,914,919,919,922,923],"ymouse":[424,424,424,424,424,424,424,424,424,424,424,424,424,424,424,424,424,424,424,424,424,424,424,424,424,424,424,424,424,424,424,424,424,424,424,424,424,424,424,424,424,424,424,424,424,424,416,391,351,338,317,301,295,275,251,225,217,204,192,184,161,143,129,124,114,105,104,100,96],"timestamp_mouse":[9,29,46,65,86,106,127,146,167,186,206,227,246,266,286,306,326,346,367,387,406,427,447,466,486,506,526,546,566,585,607,626,645,666,685,706,726,745,765,785,805,825,846,865,886,906,927,947,966,987,1006,1026,1047,1067,1086,1106,1126,1146,1166,1186,1206,1226,1246,1265,1287,1306,1326,1345,1366],"xSR":624.5,"ySR":363.35,"xT1":354.7,"yT1":0,"xT2":894.3,"yT2":0,"toosoon":0,"cond_shown":"equaldotsize","ratio_trial":250,"smaller_num":"1","larger_num":"4","correct_side":2,"subjID":"analopez","gender":"1","age":"11","school":"6"},{"start_time":1551795164341,"click_time":1551795165606,"finger_time":1551795165146,"fix_duration":1213.5653213454937,"trial":49,"RT":805,"MT":460,"sideResp":2,"stimulus":"img/500/equaldotsize/R/14_Ratio_500_L_5_R_10.png","xmouse":[682,682,682,682,682,682,682,682,682,682,682,682,682,682,682,682,682,682,682,682,682,682,682,682,682,682,682,682,682,682,682,682,682,682,682,682,682,685,701,707,719,726,728,733,734,742,760,772,785,831,854,860,863,863,864,865,868,872,873,880,886,892,894,896],"ymouse":[413,413,413,413,413,413,413,413,413,413,413,413,413,413,413,413,413,413,413,413,413,413,413,413,413,413,413,413,413,413,413,413,413,413,413,413,413,413,392,378,347,329,322,307,304,287,257,239,225,184,165,160,157,156,155,152,144,137,132,119,106,92,87,81],"timestamp_mouse":[10,34,45,65,85,104,125,145,165,185,206,225,244,266,285,305,326,345,365,385,405,426,446,465,486,505,525,545,565,585,605,626,645,665,685,706,725,745,765,785,805,825,845,865,886,906,925,946,965,985,1005,1025,1045,1065,1086,1106,1126,1145,1165,1185,1204,1225,1244,1265],"xSR":624.5,"ySR":363.35,"xT1":354.7,"yT1":0,"xT2":894.3,"yT2":0,"toosoon":0,"cond_shown":"equaldotsize","ratio_trial":500,"smaller_num":"5","larger_num":"10","correct_side":2,"subjID":"analopez","gender":"1","age":"11","school":"6"},{"start_time":1551795167224,"click_time":1551795168446,"finger_time":1551795167966,"fix_duration":477.41425012008034,"trial":50,"RT":742,"MT":480,"sideResp":2,"stimulus":"img/750/equaldotanddens/R/15_Ratio_750_L_9_R_12.png","xmouse":[688,688,688,688,688,688,688,688,688,688,688,688,688,688,688,688,688,688,688,688,688,688,688,688,688,688,688,688,688,688,688,688,688,688,690,706,718,732,738,745,747,754,761,795,813,840,847,859,869,889,895,897,898,905,906,907,908,910,912,916,921,924],"ymouse":[389,389,389,389,389,389,389,389,389,389,389,389,389,389,389,389,389,389,389,389,389,389,389,389,389,389,389,389,389,389,389,389,389,389,389,386,377,359,349,332,327,309,294,238,213,189,186,173,164,146,141,138,137,128,125,123,122,120,118,111,103,99],"timestamp_mouse":[9,25,43,62,82,102,122,142,162,182,202,222,243,262,282,301,322,342,362,382,402,422,442,462,482,502,522,542,562,582,601,621,642,662,683,702,722,742,762,783,802,822,842,863,882,902,921,942,963,982,1002,1023,1042,1063,1082,1102,1123,1142,1162,1182,1203,1221],"xSR":624.5,"ySR":363.35,"xT1":354.7,"yT1":0,"xT2":894.3,"yT2":0,"toosoon":0,"cond_shown":"equaldotanddens","ratio_trial":750,"smaller_num":"9","larger_num":"12","correct_side":2,"subjID":"analopez","gender":"1","age":"11","school":"6"},{"start_time":1551795169658,"click_time":1551795170826,"finger_time":1551795170345,"fix_duration":250,"trial":51,"RT":687,"MT":481,"sideResp":2,"stimulus":"img/750/randomdotsizeEA/R/4_Ratio_750_L_15_R_20.png","xmouse":[691,691,691,691,691,691,691,691,691,691,691,691,691,691,691,691,691,691,691,691,691,691,691,691,691,691,691,691,691,691,691,691,691,707,728,755,777,783,794,807,815,831,837,840,846,853,861,863,868,873,876,886,890,892,895,899,904,904,908],"ymouse":[416,416,416,416,416,416,416,416,416,416,416,416,416,416,416,416,416,416,416,416,416,416,416,416,416,416,416,416,416,416,416,416,416,414,401,377,347,337,319,296,285,261,253,248,237,224,206,201,192,178,172,148,138,131,123,117,107,105,99],"timestamp_mouse":[10,35,48,68,88,108,128,148,168,188,208,229,247,267,289,307,328,348,368,388,408,429,448,468,489,508,529,548,568,589,609,628,649,668,687,707,729,748,768,787,808,828,849,867,887,908,928,947,968,988,1007,1028,1049,1068,1088,1108,1127,1148,1167],"xSR":624.5,"ySR":363.35,"xT1":354.7,"yT1":0,"xT2":894.3,"yT2":0,"toosoon":0,"cond_shown":"randomdotsizeEA","ratio_trial":750,"smaller_num":"15","larger_num":"20","correct_side":2,"subjID":"analopez","gender":"1","age":"11","school":"6"},{"start_time":1551795172078,"click_time":1551795173346,"finger_time":1551795172867,"fix_duration":250,"trial":52,"RT":789,"MT":479,"sideResp":2,"stimulus":"img/900/randomdotsizeEA/L/8_Ratio_900_L_20_R_18.png","xmouse":[682,682,682,682,682,682,682,682,682,682,682,682,682,682,682,682,682,682,682,682,682,682,682,682,682,682,682,682,682,682,682,682,682,682,682,682,682,685,709,742,756,781,797,805,810,818,823,835,843,848,851,857,858,871,874,877,880,889,892,898,899,903,904,907],"ymouse":[419,419,419,419,419,419,419,419,419,419,419,419,419,419,419,419,419,419,419,419,419,419,419,419,419,419,419,419,419,419,419,419,419,419,419,419,419,419,404,369,351,324,302,283,272,252,243,215,202,191,187,177,174,153,148,142,137,125,118,110,108,102,100,95],"timestamp_mouse":[11,29,48,68,89,108,127,147,169,188,209,228,248,268,288,308,328,348,369,387,407,428,448,468,488,509,528,548,569,588,609,627,647,669,688,707,727,748,767,789,807,828,848,868,888,908,928,948,968,989,1009,1027,1047,1068,1087,1107,1128,1149,1167,1188,1208,1228,1248,1268],"xSR":624.5,"ySR":363.35,"xT1":354.7,"yT1":0,"xT2":894.3,"yT2":0,"toosoon":0,"cond_shown":"randomdotsizeEA","ratio_trial":900,"smaller_num":"18","larger_num":"20","correct_side":1,"subjID":"analopez","gender":"1","age":"11","school":"6"},{"start_time":1551795174927,"click_time":1551795176426,"finger_time":1551795175765,"fix_duration":619.4360183033896,"trial":53,"RT":838,"MT":661,"sideResp":1,"stimulus":"img/900/equaldotsize/R/7_Ratio_900_L_9_R_10.png","xmouse":[685,685,685,685,685,685,685,685,685,685,685,685,685,685,685,685,685,685,685,685,685,685,685,685,685,685,685,685,685,685,685,685,685,685,685,685,685,685,685,685,684,662,650,623,607,601,586,572,569,556,546,536,532,519,511,507,506,501,497,492,487,483,482,480,475,471,469,466,465,465,465,462,458,455,455,449],"ymouse":[413,413,413,413,413,413,413,413,413,413,413,413,413,413,413,413,413,413,413,413,413,413,413,413,413,413,413,413,413,413,413,413,413,413,413,413,413,413,413,412,403,371,354,319,292,281,255,233,226,202,187,171,165,148,140,132,130,122,118,113,109,107,106,104,101,98,97,96,95,95,95,95,92,91,91,91],"timestamp_mouse":[5,33,40,59,79,99,119,140,159,179,199,218,238,259,278,300,319,339,359,379,399,419,440,459,479,499,518,539,559,579,599,619,639,659,680,699,719,739,758,779,800,819,838,859,879,899,920,939,959,979,999,1019,1040,1060,1079,1099,1120,1139,1159,1180,1198,1219,1239,1260,1278,1300,1318,1340,1359,1379,1399,1419,1439,1460,1479,1499],"xSR":624.5,"ySR":363.35,"xT1":354.7,"yT1":0,"xT2":894.3,"yT2":0,"toosoon":0,"cond_shown":"equaldotsize","ratio_trial":900,"smaller_num":"9","larger_num":"10","correct_side":2,"subjID":"analopez","gender":"1","age":"11","school":"6"},{"start_time":1551795177637,"click_time":1551795179286,"finger_time":1551795178445,"fix_duration":250,"trial":54,"RT":808,"MT":841,"sideResp":1,"stimulus":"img/500/randomdotsizeEA/L/8_Ratio_500_L_8_R_4.png","xmouse":[679,679,679,679,679,679,679,679,679,679,679,679,679,679,679,679,679,679,679,679,681,683,691,698,707,709,709,709,713,714,715,716,717,717,717,717,717,717,720,724,731,758,777,783,791,797,797,797,797,797,793,787,777,774,767,761,746,738,719,686,677,659,654,649,606,532,455,455,455,450,447,445,434,417,414,408,408,408,408,408,408,408,407],"ymouse":[437,437,437,437,437,437,437,437,437,437,437,437,437,437,437,437,437,438,438,438,438,438,433,426,415,411,411,411,403,401,397,394,393,393,393,393,393,393,388,381,370,323,296,286,270,257,254,254,254,254,253,254,257,258,259,261,262,262,258,248,243,234,232,229,208,171,129,129,128,125,123,121,115,106,105,103,103,103,103,103,103,102,97],"timestamp_mouse":[15,28,49,68,89,109,129,149,169,189,209,229,248,269,289,309,328,349,369,389,409,428,449,469,489,509,530,549,569,590,609,629,649,669,689,709,729,749,770,790,808,829,849,869,889,908,929,948,969,990,1010,1029,1049,1069,1089,1109,1130,1149,1169,1190,1209,1229,1249,1269,1289,1309,1329,1350,1369,1389,1409,1428,1448,1469,1489,1509,1529,1549,1569,1589,1609,1629,1648],"xSR":624.5,"ySR":363.35,"xT1":354.7,"yT1":0,"xT2":894.3,"yT2":0,"toosoon":0,"cond_shown":"randomdotsizeEA","ratio_trial":500,"smaller_num":"4","larger_num":"8","correct_side":1,"subjID":"analopez","gender":"1","age":"11","school":"6"},{"start_time":1551795181207,"click_time":1551795182447,"finger_time":1551795181946,"fix_duration":1038.22281517188,"trial":55,"RT":739,"MT":501,"sideResp":2,"stimulus":"img/900/equaldotanddens/R/14_Ratio_900_L_18_R_20.png","xmouse":[669,669,669,669,669,669,669,669,669,669,669,669,669,669,669,669,669,669,669,669,669,669,669,669,669,669,669,669,669,669,669,669,680,685,694,705,716,719,722,724,731,742,748,752,760,763,776,781,790,794,802,816,826,831,837,847,862,866,873,878,880,894,905],"ymouse":[429,429,429,429,429,429,429,429,429,429,429,429,429,429,429,429,429,429,429,429,429,429,429,429,429,429,429,429,429,429,429,429,429,424,409,389,365,358,352,347,331,305,291,281,265,258,237,228,213,207,193,171,158,150,141,129,114,110,104,98,95,81,71],"timestamp_mouse":[1,28,39,59,79,99,119,139,160,180,199,219,240,259,279,299,320,339,358,380,399,419,439,459,478,498,519,539,559,579,599,619,639,658,678,699,719,739,758,778,799,819,839,859,879,899,919,939,959,979,999,1019,1039,1060,1078,1100,1119,1138,1158,1179,1199,1219,1239],"xSR":624.5,"ySR":363.35,"xT1":354.7,"yT1":0,"xT2":894.3,"yT2":0,"toosoon":0,"cond_shown":"equaldotanddens","ratio_trial":900,"smaller_num":"18","larger_num":"20","correct_side":2,"subjID":"analopez","gender":"1","age":"11","school":"6"},{"start_time":1551795184431,"click_time":1551795185686,"finger_time":1551795185126,"fix_duration":1043.3271075820746,"trial":56,"RT":695,"MT":560,"sideResp":2,"stimulus":"img/900/equaldotanddens/R/5_Ratio_900_L_9_R_10.png","xmouse":[670,670,670,670,670,670,670,670,670,670,670,670,670,670,670,670,670,670,670,670,670,670,670,670,670,670,670,670,670,670,670,671,680,721,767,785,813,838,848,853,860,865,872,883,890,892,902,908,925,929,937,938,943,948,950,951,952,952,952,952,952,952,952],"ymouse":[410,410,410,410,410,410,410,410,410,410,410,410,410,410,410,410,410,410,410,410,410,410,410,410,410,410,410,410,410,410,410,410,408,368,327,309,286,266,255,249,243,238,231,220,210,207,195,187,169,164,154,150,142,130,125,121,115,113,106,104,103,102,99],"timestamp_mouse":[15,36,55,75,96,116,134,155,176,195,214,235,255,276,295,315,334,355,375,395,416,434,455,475,494,515,534,555,574,594,614,634,655,676,695,715,735,755,775,795,815,835,856,876,896,916,935,954,975,996,1015,1035,1055,1075,1096,1115,1136,1155,1174,1195,1216,1235,1255],"xSR":624.5,"ySR":363.35,"xT1":354.7,"yT1":0,"xT2":894.3,"yT2":0,"toosoon":0,"cond_shown":"equaldotanddens","ratio_trial":900,"smaller_num":"9","larger_num":"10","correct_side":2,"subjID":"analopez","gender":"1","age":"11","school":"6"},{"start_time":1551795187426,"click_time":1551795188426,"finger_time":1551795188147,"fix_duration":599.5601528015028,"trial":57,"RT":721,"MT":279,"sideResp":1,"stimulus":"img/500/equaldotanddens/L/7_Ratio_500_L_10_R_5.png","xmouse":[662,662,662,662,662,662,662,662,662,662,662,662,662,662,662,662,662,662,662,662,662,662,662,662,662,662,662,662,662,662,662,662,660,655,651,643,609,562,537,498,486,471,466,462,457,456,456,452,451,450,449],"ymouse":[396,396,396,396,396,396,396,396,396,396,396,396,396,396,396,396,396,396,396,396,396,396,396,396,396,396,396,396,396,396,396,396,396,396,396,396,371,324,296,246,229,197,178,161,152,137,132,110,107,100,96],"timestamp_mouse":[6,30,40,60,80,101,120,140,160,180,200,220,241,261,280,300,320,341,361,379,400,420,439,459,481,500,520,539,560,580,600,620,641,660,680,700,721,739,760,780,800,821,840,861,880,900,920,940,960,979,1000],"xSR":624.5,"ySR":363.35,"xT1":354.7,"yT1":0,"xT2":894.3,"yT2":0,"toosoon":0,"cond_shown":"equaldotanddens","ratio_trial":500,"smaller_num":"5","larger_num":"10","correct_side":1,"subjID":"analopez","gender":"1","age":"11","school":"6"},{"start_time":1551795190480,"click_time":1551795191725,"finger_time":1551795191086,"fix_duration":971.6623026410878,"trial":58,"RT":606,"MT":639,"sideResp":2,"stimulus":"img/250/equaldotsize/R/10_Ratio_250_L_4_R_16.png","xmouse":[674,674,674,674,674,674,674,674,674,674,674,674,674,674,674,674,674,674,674,674,674,674,674,674,678,684,687,700,704,713,728,736,759,782,796,820,857,877,886,903,919,928,952,961,966,973,976,980,980,980,980,980,979,977,975,974,971,968,968,968,966,965,965],"ymouse":[397,397,397,397,397,397,397,397,397,397,397,397,397,397,397,397,397,397,397,397,397,397,397,397,398,397,395,386,382,373,360,354,334,319,309,295,274,260,253,242,228,221,200,192,187,178,172,159,154,146,135,132,125,121,119,116,111,107,106,104,103,101,99],"timestamp_mouse":[9,31,47,65,86,106,126,146,166,186,206,225,247,266,286,306,326,346,366,386,406,426,446,465,486,506,526,547,566,587,606,626,646,666,687,706,727,746,765,785,806,826,846,867,886,906,927,946,967,987,1006,1026,1046,1066,1086,1106,1126,1146,1166,1187,1206,1226,1245],"xSR":624.5,"ySR":363.35,"xT1":354.7,"yT1":0,"xT2":894.3,"yT2":0,"toosoon":0,"cond_shown":"equaldotsize","ratio_trial":250,"smaller_num":"4","larger_num":"16","correct_side":2,"subjID":"analopez","gender":"1","age":"11","school":"6"},{"start_time":1551795193058,"click_time":1551795194045,"finger_time":1551795193727,"fix_duration":250,"trial":59,"RT":669,"MT":318,"sideResp":2,"stimulus":"img/250/randomdotsizeEA/R/9_Ratio_250_L_3_R_12.png","xmouse":[670,670,670,670,670,670,670,670,670,670,670,670,670,670,670,670,670,670,670,670,670,670,670,670,670,670,670,670,670,670,670,685,708,719,737,748,780,792,812,820,841,855,868,876,890,903,913,915,916,917],"ymouse":[418,418,418,418,418,418,418,418,418,418,418,418,418,418,418,418,418,418,418,418,418,418,418,418,418,418,418,418,418,418,418,402,365,348,323,311,270,256,229,219,199,187,175,168,152,131,111,107,100,98],"timestamp_mouse":[9,34,48,68,89,108,129,148,168,188,208,228,248,268,288,308,329,347,368,388,408,429,448,468,489,508,529,548,567,588,608,628,649,669,688,707,727,747,767,787,808,827,847,868,887,907,927,947,967,987],"xSR":624.5,"ySR":363.35,"xT1":354.7,"yT1":0,"xT2":894.3,"yT2":0,"toosoon":0,"cond_shown":"randomdotsizeEA","ratio_trial":250,"smaller_num":"3","larger_num":"12","correct_side":2,"subjID":"analopez","gender":"1","age":"11","school":"6"},{"start_time":1551795195913,"click_time":1551795197266,"finger_time":1551795196645,"fix_duration":706.6703046281273,"trial":60,"RT":732,"MT":621,"sideResp":1,"stimulus":"img/250/equaldotsize/L/14_Ratio_250_L_12_R_3.png","xmouse":[700,700,700,700,700,700,700,700,700,700,700,700,700,700,700,700,700,700,700,700,700,700,700,700,700,700,700,700,700,700,700,700,700,699,695,663,627,617,599,585,555,541,516,506,503,502,497,493,491,489,488,485,483,480,478,475,472,471,471,470,469,465,465,465,465,465,445,432],"ymouse":[415,415,415,415,415,415,415,415,415,415,415,415,415,415,415,415,415,415,415,415,415,415,415,415,415,415,415,415,415,415,415,415,415,415,415,378,345,336,320,307,274,252,214,194,188,183,175,169,167,161,159,151,147,142,140,137,135,133,132,129,128,126,126,126,126,126,106,93],"timestamp_mouse":[12,38,52,73,93,112,133,152,172,192,213,233,252,272,293,312,332,352,372,394,412,432,452,473,492,513,533,552,572,592,612,632,653,672,692,713,732,753,772,792,812,832,852,873,892,912,933,952,972,994,1013,1032,1052,1073,1092,1112,1134,1152,1173,1193,1212,1232,1253,1272,1292,1313,1332,1353],"xSR":624.5,"ySR":363.35,"xT1":354.7,"yT1":0,"xT2":894.3,"yT2":0,"toosoon":0,"cond_shown":"equaldotsize","ratio_trial":250,"smaller_num":"3","larger_num":"12","correct_side":1,"subjID":"analopez","gender":"1","age":"11","school":"6"},{"start_time":1551795199440,"click_time":1551795200586,"finger_time":1551795199966,"fix_duration":1393.6290553062015,"trial":61,"RT":526,"MT":620,"sideResp":2,"stimulus":"img/750/randomdotsizeEA/L/6_Ratio_750_L_24_R_18.png","xmouse":[673,673,673,673,673,673,673,673,673,673,673,673,673,673,673,673,673,673,673,673,685,692,697,710,718,721,726,728,742,745,750,754,762,777,788,793,800,804,815,832,841,846,857,866,874,878,886,892,894,895,898,903,904,910,915,917,920,926],"ymouse":[411,411,411,411,411,411,411,411,411,411,411,411,411,411,411,411,411,411,411,411,412,412,412,410,407,406,404,402,393,391,386,380,372,355,341,335,326,320,306,285,273,268,255,245,237,229,219,209,202,198,189,177,170,153,139,130,107,89],"timestamp_mouse":[12,25,46,65,85,106,125,146,165,186,205,226,245,265,285,305,325,345,365,386,405,425,445,465,485,505,526,545,566,585,605,625,645,665,685,705,725,745,765,785,805,825,845,865,885,906,926,945,965,986,1005,1026,1045,1066,1085,1105,1125,1146],"xSR":624.5,"ySR":363.35,"xT1":354.7,"yT1":0,"xT2":894.3,"yT2":0,"toosoon":0,"cond_shown":"randomdotsizeEA","ratio_trial":750,"smaller_num":"18","larger_num":"24","correct_side":1,"subjID":"analopez","gender":"1","age":"11","school":"6"},{"start_time":1551795201799,"click_time":155179