[{"start_time":1551794156553,"click_time":1551794162550,"finger_time":1551794158630,"fix_duration":1241.7673538532672,"trial":0,"RT":2077,"MT":3920,"sideResp":2,"stimulus":[],"xmouse":[701,701,701,701,701,701,701,701,701,701,701,701,701,701,701,701,701,701,701,701,701,701,701,701,701,701,701,701,701,701,701,701,701,701,701,701,701,701,701,701,701,701,701,701,701,701,701,701,701,701,701,701,701,701,701,701,701,701,701,701,701,701,701,701,701,701,701,701,701,701,701,701,701,701,701,701,701,701,701,701,701,701,701,701,701,701,701,701,701,701,701,701,701,701,701,700,695,695,695,695,690,677,633,585,566,536,527,522,519,518,518,518,516,516,516,535,574,599,644,679,696,698,698,698,698,698,698,698,693,690,688,688,688,688,688,688,688,688,688,688,688,688,688,688,688,688,688,688,688,688,688,688,688,688,688,688,688,688,688,688,688,688,688,688,688,688,688,688,688,688,688,688,688,688,688,688,688,688,688,688,688,688,688,688,688,688,688,688,688,688,688,688,688,688,688,688,688,688,688,688,688,688,688,688,688,688,688,688,688,688,688,688,688,688,688,688,688,688,688,688,688,688,688,688,688,688,688,688,688,688,688,688,688,688,688,688,688,688,688,688,688,688,688,688,688,688,688,688,688,688,688,688,688,688,688,688,688,688,688,688,688,692,696,704,707,710,711,713,717,717,717,717,717,719,719,719,721,723,731,733,735,737,749,763,774,776,798,800,804,804,804,807,820,835,857,869,899,910,926,949],"ymouse":[467,467,467,467,467,467,467,467,467,467,467,467,467,467,467,467,467,467,467,467,467,467,467,467,467,467,467,467,467,467,467,467,467,467,467,467,467,467,467,467,467,467,467,467,467,467,467,467,467,467,467,467,467,467,467,467,467,467,467,467,467,467,467,467,467,467,467,467,467,467,467,467,467,467,467,467,467,467,467,467,467,467,467,467,467,467,467,467,467,467,467,467,467,467,467,467,469,469,469,469,469,462,442,421,416,409,408,408,408,408,408,408,408,410,414,438,457,467,477,480,480,480,480,480,480,480,480,480,478,477,476,476,476,476,476,476,476,476,476,476,476,476,476,476,476,476,476,476,476,476,476,476,476,476,476,476,476,476,476,476,476,476,476,476,476,476,476,476,476,476,476,476,476,476,476,476,476,476,476,476,476,476,476,476,476,476,476,476,476,476,476,476,476,476,476,476,476,476,476,476,476,476,476,476,476,476,476,476,476,476,476,476,476,476,476,476,476,476,476,476,476,476,476,476,476,476,476,476,476,476,476,476,476,476,476,476,476,476,476,476,476,476,476,476,476,476,476,476,476,476,476,476,476,476,476,476,476,476,476,476,476,461,449,426,420,409,402,395,367,363,351,347,341,323,310,302,287,280,260,257,252,249,245,245,245,243,235,234,233,233,233,231,219,209,183,170,143,133,115,85],"timestamp_mouse":[19,38,57,77,97,117,138,157,178,197,217,237,258,277,297,317,338,358,377,398,417,438,457,478,498,517,538,558,577,598,617,638,658,677,698,718,737,757,777,797,817,837,858,877,897,917,937,957,977,997,1017,1037,1057,1077,1097,1118,1138,1157,1177,1197,1218,1237,1258,1277,1297,1317,1338,1357,1378,1397,1417,1437,1457,1478,1498,1517,1537,1557,1577,1598,1617,1637,1657,1677,1697,1717,1737,1757,1777,1797,1817,1837,1857,1877,1897,1917,1937,1957,1977,1998,2017,2038,2058,2077,2097,2117,2137,2157,2177,2198,2217,2237,2257,2278,2297,2317,2337,2357,2377,2397,2417,2437,2457,2477,2497,2517,2538,2557,2578,2597,2618,2637,2657,2677,2697,2717,2737,2757,2777,2797,2817,2837,2857,2877,2897,2917,2937,2957,2977,2998,3017,3038,3058,3077,3097,3117,3138,3157,3177,3197,3218,3237,3257,3277,3297,3317,3338,3357,3377,3397,3417,3438,3457,3477,3498,3518,3538,3557,3577,3597,3617,3637,3657,3677,3697,3718,3737,3757,3777,3798,3817,3837,3857,3877,3898,3918,3938,3957,3977,3997,4017,4037,4057,4078,4097,4117,4137,4157,4178,4198,4217,4237,4257,4277,4297,4318,4337,4357,4377,4398,4417,4438,4457,4477,4497,4517,4538,4557,4578,4597,4617,4638,4657,4677,4697,4717,4738,4757,4777,4797,4818,4837,4858,4877,4898,4918,4937,4958,4977,4997,5018,5037,5058,5078,5097,5117,5137,5157,5177,5198,5217,5237,5258,5278,5297,5317,5337,5357,5377,5397,5418,5438,5458,5478,5498,5517,5537,5557,5578,5597,5618,5637,5657,5677,5698,5717,5737,5757,5778,5797,5817,5837,5857,5877,5897,5917,5938,5957,5977,5997],"xSR":624.5,"ySR":395.2,"xT1":354.7,"yT1":0,"xT2":894.3,"yT2":0,"toosoon":0,"cond_shown":"Congruent","ratio_trial":300,"L_num":3,"L_den":12,"R_num":11,"R_den":20,"correct_side":2,"subjID":"analopez","gender":"1","age":"11","school":"6","test":{"fix_dur":[250,1500],"timestim":1000,"targets_dim":[100,100],"targets_relative_coord":[0.3,0.7],"size_stim":[880,420],"start_dim":[100,100],"size_start":[300,300],"size_fix":60,"samplingrate":20,"img_types":["Congruent","Incongruent"],"ratios":[100,200,300],"rep_conds":19,"nTrials":120,"trials_to_rest":500,"Trials_order":[118,69,9,1,114,66,90,77,44,40,67,79,23,93,27,35,85,41,109,68,0,3,12,60,31,113,63,50,62,110,108,111,21,43,101,48,65,96,119,91,17,34,54,4,47,32,89,102,84,59,46,82,104,19,107,58,116,11,33,36,14,100,10,39,42,57,38,30,103,15,81,22,49,78,61,6,98,5,55,92,24,75,13,52,7,18,53,106,73,112,97,74,76,94,37,88,20,56,70,2,72,105,86,95,29,99,16,25,45,71,115,83,117,26,87,28,51,64,8,80],"cond_shown":["Congruent","Incongruent","Incongruent","Incongruent","Congruent","Congruent","Congruent","Incongruent","Congruent","Congruent","Incongruent","Incongruent","Incongruent","Incongruent","Incongruent","Incongruent","Incongruent","Incongruent","Incongruent","Congruent","Congruent","Incongruent","Congruent","Congruent","Incongruent","Incongruent","Incongruent","Congruent","Congruent","Congruent","Congruent","Incongruent","Incongruent","Incongruent","Incongruent","Congruent","Incongruent","Congruent","Incongruent","Incongruent","Incongruent","Congruent","Congruent","Congruent","Incongruent","Congruent","Incongruent","Congruent","Congruent","Incongruent","Congruent","Congruent","Congruent","Incongruent","Incongruent","Congruent","Congruent","Incongruent","Incongruent","Congruent","Congruent","Congruent","Congruent","Incongruent","Congruent","Incongruent","Congruent","Congruent","Incongruent","Incongruent","Incongruent","Congruent","Incongruent","Congruent","Incongruent","Congruent","Congruent","Incongruent","Incongruent","Congruent","Congruent","Incongruent","Incongruent","Congruent","Incongruent","Congruent","Incongruent","Congruent","Incongruent","Congruent","Incongruent","Congruent","Congruent","Congruent","Incongruent","Congruent","Congruent","Congruent","Congruent","Congruent","Congruent","Incongruent","Congruent","Incongruent","Incongruent","Incongruent","Congruent","Incongruent","Incongruent","Incongruent","Incongruent","Incongruent","Incongruent","Congruent","Incongruent","Congruent","Incongruent","Congruent","Congruent","Congruent"],"ratio_trial":[300,200,200,100,100,100,100,300,200,300,100,100,300,200,200,300,100,300,100,200,100,200,100,100,100,300,200,200,200,200,100,200,200,100,300,100,300,100,300,100,300,300,100,300,300,200,300,100,100,300,300,300,200,100,300,300,200,300,200,100,200,300,300,200,100,200,200,100,100,200,200,300,100,100,100,100,200,300,100,200,100,200,100,300,100,100,300,300,100,300,100,200,300,300,100,300,200,200,300,200,100,200,200,300,300,200,300,100,200,300,100,300,200,200,200,300,200,300,200,200],"left_num":[3,3,14,6,7,6,4,4,15,1,6,4,4,4,7,8,12,1,6,5,3,7,7,11,8,4,6,16,12,14,6,7,14,4,4,7,1,6,13,6,3,5,10,3,4,3,4,9,15,1,20,11,13,6,4,9,3,13,9,6,3,9,1,4,1,7,15,6,9,6,4,20,13,7,17,1,6,13,10,9,15,7,10,4,9,15,13,12,10,20,6,6,5,20,11,3,20,8,5,12,9,6,13,2,4,4,18,10,3,13,6,1,7,6,1,4,1,1,16,4],"right_num":[11,1,6,13,15,5,6,6,4,19,3,8,8,14,6,9,2,3,3,14,2,12,15,6,1,2,3,9,6,6,15,14,12,8,2,9,2,5,12,7,4,7,3,2,6,14,2,8,13,3,14,1,14,7,2,3,7,12,8,5,14,3,7,6,3,14,4,15,20,3,6,5,12,15,10,3,3,12,9,13,13,6,8,2,20,13,12,2,9,8,11,11,6,5,9,11,9,3,6,6,8,3,14,6,6,1,9,8,1,12,13,2,12,7,3,1,3,19,9,3],"left_den":[12,10,30,10,14,20,8,5,25,3,12,8,5,6,15,10,30,2,12,10,6,10,14,22,20,20,20,30,15,28,12,10,30,8,20,14,2,20,26,10,6,25,25,6,5,10,20,15,25,2,25,22,26,10,20,10,10,26,15,20,6,10,20,5,2,10,25,12,10,20,5,25,26,14,30,2,15,26,25,30,25,15,25,5,10,25,26,24,25,25,10,20,25,25,22,12,25,15,25,20,15,20,26,4,5,30,20,25,10,26,10,2,10,12,2,10,2,3,30,10],"right_den":[20,2,9,26,25,25,10,12,10,30,5,20,16,30,9,18,4,15,5,20,5,24,25,15,2,4,6,27,10,20,25,28,18,20,4,15,10,25,15,14,20,14,10,10,12,28,4,16,26,15,28,5,20,14,4,5,14,15,10,25,20,5,20,10,5,28,10,25,25,6,10,10,20,25,15,5,15,15,18,26,26,9,16,4,25,26,15,10,18,16,22,22,12,10,15,20,15,9,12,15,16,6,20,30,12,3,15,16,2,15,26,10,24,10,10,10,10,30,27,15],"correct_side":[2,2,2,1,2,1,2,1,1,2,2,1,1,1,2,1,2,1,2,2,1,1,2,1,2,2,2,1,1,1,2,1,2,1,2,2,1,1,2,1,1,2,1,1,1,2,2,1,1,1,1,1,2,1,2,1,2,2,2,1,2,1,2,1,2,1,1,2,1,2,1,1,2,2,2,2,1,2,2,2,1,2,2,1,1,1,2,1,2,1,1,2,2,1,2,2,1,1,2,1,1,2,2,1,1,2,1,2,2,2,1,1,1,2,1,1,1,2,1,1],"img_shown":["img2/300/Congruent/R/C_Dist_300_LN_3_LD_12_RN_11_RD_20_1.png","img2/200/Incongruent/R/I_Dist_200_LN_3_LD_10_RN_1_RD_2_1.png","img2/200/Incongruent/R/I_Dist_200_LN_14_LD_30_RN_6_RD_9_1.png","img2/100/Incongruent/L/I_Dist_100_LN_6_LD_10_RN_13_RD_26_0.png","img2/100/Congruent/R/C_Dist_100_LN_7_LD_14_RN_15_RD_25_1.png","img2/100/Congruent/L/C_Dist_100_LN_6_LD_20_RN_5_RD_25_0.png","img2/100/Congruent/R/C_Dist_100_LN_4_LD_8_RN_6_RD_10_1.png","img2/300/Incongruent/L/I_Dist_300_LN_4_LD_5_RN_6_RD_12_0.png","img2/200/Congruent/L/C_Dist_200_LN_15_LD_25_RN_4_RD_10_0.png","img2/300/Congruent/R/C_Dist_300_LN_1_LD_3_RN_19_RD_30_1.png","img2/100/Incongruent/R/I_Dist_100_LN_6_LD_12_RN_3_RD_5_1.png","img2/100/Incongruent/L/I_Dist_100_LN_4_LD_8_RN_8_RD_20_0.png","img2/300/Incongruent/L/I_Dist_300_LN_4_LD_5_RN_8_RD_16_0.png","img2/200/Incongruent/L/I_Dist_200_LN_4_LD_6_RN_14_RD_30_0.png","img2/200/Incongruent/R/I_Dist_200_LN_7_LD_15_RN_6_RD_9_1.png","img2/300/Incongruent/L/I_Dist_300_LN_8_LD_10_RN_9_RD_18_0.png","img2/100/Incongruent/R/I_Dist_100_LN_12_LD_30_RN_2_RD_4_1.png","img2/300/Incongruent/L/I_Dist_300_LN_1_LD_2_RN_3_RD_15_0.png","img2/100/Incongruent/R/I_Dist_100_LN_6_LD_12_RN_3_RD_5_1.png","img2/200/Congruent/R/C_Dist_200_LN_5_LD_10_RN_14_RD_20_1.png","img2/100/Congruent/L/C_Dist_100_LN_3_LD_6_RN_2_RD_5_0.png","img2/200/Incongruent/L/I_Dist_200_LN_7_LD_10_RN_12_RD_24_0.png","img2/100/Congruent/R/C_Dist_100_LN_7_LD_14_RN_15_RD_25_1.png","img2/100/Congruent/L/C_Dist_100_LN_11_LD_22_RN_6_RD_15_0.png","img2/100/Incongruent/R/I_Dist_100_LN_8_LD_20_RN_1_RD_2_1.png","img2/300/Incongruent/R/I_Dist_300_LN_4_LD_20_RN_2_RD_4_1.png","img2/200/Incongruent/R/I_Dist_200_LN_6_LD_20_RN_3_RD_6_1.png","img2/200/Congruent/L/C_Dist_200_LN_16_LD_30_RN_9_RD_27_0.png","img2/200/Congruent/L/C_Dist_200_LN_12_LD_15_RN_6_RD_10_0.png","img2/200/Congruent/L/C_Dist_200_LN_14_LD_28_RN_6_RD_20_0.png","img2/100/Congruent/R/C_Dist_100_LN_6_LD_12_RN_15_RD_25_1.png","img2/200/Incongruent/L/I_Dist_200_LN_7_LD_10_RN_14_RD_28_0.png","img2/200/Incongruent/R/I_Dist_200_LN_14_LD_30_RN_12_RD_18_1.png","img2/100/Incongruent/L/I_Dist_100_LN_4_LD_8_RN_8_RD_20_0.png","img2/300/Incongruent/R/I_Dist_300_LN_4_LD_20_RN_2_RD_4_1.png","img2/100/Congruent/R/C_Dist_100_LN_7_LD_14_RN_9_RD_15_1.png","img2/300/Incongruent/L/I_Dist_300_LN_1_LD_2_RN_2_RD_10_0.png","img2/100/Congruent/L/C_Dist_100_LN_6_LD_20_RN_5_RD_25_0.png","img2/300/Incongruent/R/I_Dist_300_LN_13_LD_26_RN_12_RD_15_1.png","img2/100/Incongruent/L/I_Dist_100_LN_6_LD_10_RN_7_RD_14_0.png","img2/300/Incongruent/L/I_Dist_300_LN_3_LD_6_RN_4_RD_20_0.png","img2/300/Congruent/R/C_Dist_300_LN_5_LD_25_RN_7_RD_14_1.png","img2/100/Congruent/L/C_Dist_100_LN_10_LD_25_RN_3_RD_10_0.png","img2/300/Congruent/L/C_Dist_300_LN_3_LD_6_RN_2_RD_10_0.png","img2/300/Incongruent/L/I_Dist_300_LN_4_LD_5_RN_6_RD_12_0.png","img2/200/Congruent/R/C_Dist_200_LN_3_LD_10_RN_14_RD_28_1.png","img2/300/Incongruent/R/I_Dist_300_LN_4_LD_20_RN_2_RD_4_1.png","img2/100/Congruent/L/C_Dist_100_LN_9_LD_15_RN_8_RD_16_0.png","img2/100/Congruent/L/C_Dist_100_LN_15_LD_25_RN_13_RD_26_0.png","img2/300/Incongruent/L/I_Dist_300_LN_1_LD_2_RN_3_RD_15_0.png","img2/300/Congruent/L/C_Dist_300_LN_20_LD_25_RN_14_RD_28_0.png","img2/300/Congruent/L/C_Dist_300_LN_11_LD_22_RN_1_RD_5_0.png","img2/200/Congruent/R/C_Dist_200_LN_13_LD_26_RN_14_RD_20_1.png","img2/100/Incongruent/L/I_Dist_100_LN_6_LD_10_RN_7_RD_14_0.png","img2/300/Incongruent/R/I_Dist_300_LN_4_LD_20_RN_2_RD_4_1.png","img2/300/Congruent/L/C_Dist_300_LN_9_LD_10_RN_3_RD_5_0.png","img2/200/Congruent/R/C_Dist_200_LN_3_LD_10_RN_7_RD_14_1.png","img2/300/Incongruent/R/I_Dist_300_LN_13_LD_26_RN_12_RD_15_1.png","img2/200/Incongruent/R/I_Dist_200_LN_9_LD_15_RN_8_RD_10_1.png","img2/100/Congruent/L/C_Dist_100_LN_6_LD_20_RN_5_RD_25_0.png","img2/200/Congruent/R/C_Dist_200_LN_3_LD_6_RN_14_RD_20_1.png","img2/300/Congruent/L/C_Dist_300_LN_9_LD_10_RN_3_RD_5_0.png","img2/300/Congruent/R/C_Dist_300_LN_1_LD_20_RN_7_RD_20_1.png","img2/200/Incongruent/L/I_Dist_200_LN_4_LD_5_RN_6_RD_10_0.png","img2/100/Congruent/R/C_Dist_100_LN_1_LD_2_RN_3_RD_5_1.png","img2/200/Incongruent/L/I_Dist_200_LN_7_LD_10_RN_14_RD_28_0.png","img2/200/Congruent/L/C_Dist_200_LN_15_LD_25_RN_4_RD_10_0.png","img2/100/Congruent/R/C_Dist_100_LN_6_LD_12_RN_15_RD_25_1.png","img2/100/Incongruent/L/I_Dist_100_LN_9_LD_10_RN_20_RD_25_0.png","img2/200/Incongruent/R/I_Dist_200_LN_6_LD_20_RN_3_RD_6_1.png","img2/200/Incongruent/L/I_Dist_200_LN_4_LD_5_RN_6_RD_10_0.png","img2/300/Congruent/L/C_Dist_300_LN_20_LD_25_RN_5_RD_10_0.png","img2/100/Incongruent/R/I_Dist_100_LN_13_LD_26_RN_12_RD_20_1.png","img2/100/Congruent/R/C_Dist_100_LN_7_LD_14_RN_15_RD_25_1.png","img2/100/Incongruent/R/I_Dist_100_LN_17_LD_30_RN_10_RD_15_1.png","img2/100/Congruent/R/C_Dist_100_LN_1_LD_2_RN_3_RD_5_1.png","img2/200/Congruent/L/C_Dist_200_LN_6_LD_15_RN_3_RD_15_0.png","img2/300/Incongruent/R/I_Dist_300_LN_13_LD_26_RN_12_RD_15_1.png","img2/100/Incongruent/R/I_Dist_100_LN_10_LD_25_RN_9_RD_18_1.png","img2/200/Congruent/R/C_Dist_200_LN_9_LD_30_RN_13_RD_26_1.png","img2/100/Congruent/L/C_Dist_100_LN_15_LD_25_RN_13_RD_26_0.png","img2/200/Incongruent/R/I_Dist_200_LN_7_LD_15_RN_6_RD_9_1.png","img2/100/Incongruent/R/I_Dist_100_LN_10_LD_25_RN_8_RD_16_1.png","img2/300/Congruent/L/C_Dist_300_LN_4_LD_5_RN_2_RD_4_0.png","img2/100/Incongruent/L/I_Dist_100_LN_9_LD_10_RN_20_RD_25_0.png","img2/100/Congruent/L/C_Dist_100_LN_15_LD_25_RN_13_RD_26_0.png","img2/300/Incongruent/R/I_Dist_300_LN_13_LD_26_RN_12_RD_15_1.png","img2/300/Congruent/L/C_Dist_300_LN_12_LD_24_RN_2_RD_10_0.png","img2/100/Incongruent/R/I_Dist_100_LN_10_LD_25_RN_9_RD_18_1.png","img2/300/Congruent/L/C_Dist_300_LN_20_LD_25_RN_8_RD_16_0.png","img2/100/Incongruent/L/I_Dist_100_LN_6_LD_10_RN_11_RD_22_0.png","img2/200/Congruent/R/C_Dist_200_LN_6_LD_20_RN_11_RD_22_1.png","img2/300/Congruent/R/C_Dist_300_LN_5_LD_25_RN_6_RD_12_1.png","img2/300/Congruent/L/C_Dist_300_LN_20_LD_25_RN_5_RD_10_0.png","img2/100/Incongruent/R/I_Dist_100_LN_11_LD_22_RN_9_RD_15_1.png","img2/300/Congruent/R/C_Dist_300_LN_3_LD_12_RN_11_RD_20_1.png","img2/200/Congruent/L/C_Dist_200_LN_20_LD_25_RN_9_RD_15_0.png","img2/200/Congruent/L/C_Dist_200_LN_8_LD_15_RN_3_RD_9_0.png","img2/300/Congruent/R/C_Dist_300_LN_5_LD_25_RN_6_RD_12_1.png","img2/200/Congruent/L/C_Dist_200_LN_12_LD_20_RN_6_RD_15_0.png","img2/100/Congruent/L/C_Dist_100_LN_9_LD_15_RN_8_RD_16_0.png","img2/200/Incongruent/R/I_Dist_200_LN_6_LD_20_RN_3_RD_6_1.png","img2/200/Congruent/R/C_Dist_200_LN_13_LD_26_RN_14_RD_20_1.png","img2/300/Incongruent/L/I_Dist_300_LN_2_LD_4_RN_6_RD_30_0.png","img2/300/Incongruent/L/I_Dist_300_LN_4_LD_5_RN_6_RD_12_0.png","img2/200/Incongruent/R/I_Dist_200_LN_4_LD_30_RN_1_RD_3_1.png","img2/300/Congruent/L/C_Dist_300_LN_18_LD_20_RN_9_RD_15_0.png","img2/100/Incongruent/R/I_Dist_100_LN_10_LD_25_RN_8_RD_16_1.png","img2/200/Incongruent/R/I_Dist_200_LN_3_LD_10_RN_1_RD_2_1.png","img2/300/Incongruent/R/I_Dist_300_LN_13_LD_26_RN_12_RD_15_1.png","img2/100/Incongruent/L/I_Dist_100_LN_6_LD_10_RN_13_RD_26_0.png","img2/300/Incongruent/L/I_Dist_300_LN_1_LD_2_RN_2_RD_10_0.png","img2/200/Incongruent/L/I_Dist_200_LN_7_LD_10_RN_12_RD_24_0.png","img2/200/Congruent/R/C_Dist_200_LN_6_LD_12_RN_7_RD_10_1.png","img2/200/Incongruent/L/I_Dist_200_LN_1_LD_2_RN_3_RD_10_0.png","img2/300/Congruent/L/C_Dist_300_LN_4_LD_10_RN_1_RD_10_0.png","img2/200/Incongruent/L/I_Dist_200_LN_1_LD_2_RN_3_RD_10_0.png","img2/300/Congruent/R/C_Dist_300_LN_1_LD_3_RN_19_RD_30_1.png","img2/200/Congruent/L/C_Dist_200_LN_16_LD_30_RN_9_RD_27_0.png","img2/200/Congruent/L/C_Dist_200_LN_4_LD_10_RN_3_RD_15_0.png"],"dist100_C":[["C_Dist_100_LN_10_LD_25_RN_3_RD_10_0.png","C_Dist_100_LN_11_LD_22_RN_4_RD_10_0.png","C_Dist_100_LN_11_LD_22_RN_6_RD_15_0.png","C_Dist_100_LN_15_LD_25_RN_13_RD_26_0.png","C_Dist_100_LN_3_LD_6_RN_2_RD_5_0.png","C_Dist_100_LN_6_LD_20_RN_5_RD_25_0.png","C_Dist_100_LN_8_LD_16_RN_2_RD_5_0.png","C_Dist_100_LN_9_LD_15_RN_8_RD_16_0.png"],["C_Dist_100_LN_1_LD_2_RN_18_RD_30_1.png","C_Dist_100_LN_1_LD_2_RN_3_RD_5_1.png","C_Dist_100_LN_12_LD_30_RN_13_RD_26_1.png","C_Dist_100_LN_2_LD_5_RN_11_RD_22_1.png","C_Dist_100_LN_2_LD_5_RN_6_RD_12_1.png","C_Dist_100_LN_3_LD_20_RN_4_RD_16_1.png","C_Dist_100_LN_4_LD_10_RN_15_RD_30_1.png","C_Dist_100_LN_4_LD_8_RN_6_RD_10_1.png","C_Dist_100_LN_6_LD_12_RN_15_RD_25_1.png","C_Dist_100_LN_7_LD_14_RN_15_RD_25_1.png","C_Dist_100_LN_7_LD_14_RN_9_RD_15_1.png"]],"dist100_I":[["I_Dist_100_LN_1_LD_2_RN_8_RD_20_0.png","I_Dist_100_LN_2_LD_4_RN_6_RD_15_0.png","I_Dist_100_LN_2_LD_4_RN_8_RD_20_0.png","I_Dist_100_LN_3_LD_5_RN_11_RD_22_0.png","I_Dist_100_LN_3_LD_5_RN_8_RD_16_0.png","I_Dist_100_LN_3_LD_6_RN_4_RD_10_0.png","I_Dist_100_LN_3_LD_9_RN_7_RD_30_0.png","I_Dist_100_LN_4_LD_8_RN_8_RD_20_0.png","I_Dist_100_LN_6_LD_10_RN_11_RD_22_0.png","I_Dist_100_LN_6_LD_10_RN_13_RD_26_0.png","I_Dist_100_LN_6_LD_10_RN_7_RD_14_0.png","I_Dist_100_LN_9_LD_10_RN_20_RD_25_0.png","I_Dist_100_LN_9_LD_15_RN_13_RD_26_0.png","I_Dist_100_LN_9_LD_15_RN_14_RD_28_0.png"],["I_Dist_100_LN_10_LD_25_RN_8_RD_16_1.png","I_Dist_100_LN_10_LD_25_RN_9_RD_18_1.png","I_Dist_100_LN_11_LD_22_RN_9_RD_15_1.png","I_Dist_100_LN_12_LD_24_RN_9_RD_15_1.png","I_Dist_100_LN_12_LD_30_RN_2_RD_4_1.png","I_Dist_100_LN_13_LD_26_RN_12_RD_20_1.png","I_Dist_100_LN_13_LD_26_RN_6_RD_10_1.png","I_Dist_100_LN_17_LD_30_RN_10_RD_15_1.png","I_Dist_100_LN_6_LD_12_RN_3_RD_5_1.png","I_Dist_100_LN_8_LD_16_RN_6_RD_10_1.png","I_Dist_100_LN_8_LD_20_RN_1_RD_2_1.png","I_Dist_100_LN_9_LD_18_RN_6_RD_10_1.png"]],"dist100_S":[["E_Dist_100_LN_2_LD_12_RN_2_RD_30_0.png","E_Dist_100_LN_6_LD_10_RN_6_RD_12_0.png"],["E_Dist_100_LN_6_LD_12_RN_6_RD_10_1.png"]],"dist200_C":[["C_Dist_200_LN_11_LD_22_RN_3_RD_10_0.png","C_Dist_200_LN_12_LD_15_RN_6_RD_10_0.png","C_Dist_200_LN_12_LD_20_RN_6_RD_15_0.png","C_Dist_200_LN_14_LD_28_RN_6_RD_20_0.png","C_Dist_200_LN_15_LD_25_RN_4_RD_10_0.png","C_Dist_200_LN_16_LD_20_RN_12_RD_20_0.png","C_Dist_200_LN_16_LD_30_RN_9_RD_27_0.png","C_Dist_200_LN_20_LD_25_RN_9_RD_15_0.png","C_Dist_200_LN_21_LD_30_RN_2_RD_4_0.png","C_Dist_200_LN_4_LD_10_RN_3_RD_15_0.png","C_Dist_200_LN_4_LD_8_RN_3_RD_10_0.png","C_Dist_200_LN_6_LD_15_RN_3_RD_15_0.png","C_Dist_200_LN_7_LD_21_RN_2_RD_15_0.png","C_Dist_200_LN_8_LD_15_RN_2_RD_6_0.png","C_Dist_200_LN_8_LD_15_RN_3_RD_9_0.png","C_Dist_200_LN_8_LD_15_RN_7_RD_21_0.png","C_Dist_200_LN_9_LD_20_RN_4_RD_16_0.png"],["C_Dist_200_LN_1_LD_2_RN_21_RD_30_1.png","C_Dist_200_LN_13_LD_26_RN_14_RD_20_1.png","C_Dist_200_LN_3_LD_10_RN_11_RD_22_1.png","C_Dist_200_LN_3_LD_10_RN_14_RD_28_1.png","C_Dist_200_LN_3_LD_10_RN_7_RD_14_1.png","C_Dist_200_LN_3_LD_12_RN_9_RD_20_1.png","C_Dist_200_LN_3_LD_6_RN_14_RD_20_1.png","C_Dist_200_LN_5_LD_10_RN_14_RD_20_1.png","C_Dist_200_LN_6_LD_12_RN_7_RD_10_1.png","C_Dist_200_LN_6_LD_20_RN_11_RD_22_1.png","C_Dist_200_LN_7_LD_15_RN_18_RD_27_1.png","C_Dist_200_LN_9_LD_30_RN_13_RD_26_1.png"]],"dist200_I":[["I_Dist_200_LN_1_LD_2_RN_3_RD_10_0.png","I_Dist_200_LN_1_LD_3_RN_2_RD_15_0.png","I_Dist_200_LN_3_LD_4_RN_11_RD_20_0.png","I_Dist_200_LN_4_LD_5_RN_6_RD_10_0.png","I_Dist_200_LN_4_LD_6_RN_14_RD_30_0.png","I_Dist_200_LN_7_LD_10_RN_12_RD_24_0.png","I_Dist_200_LN_7_LD_10_RN_14_RD_28_0.png","I_Dist_200_LN_7_LD_10_RN_8_RD_16_0.png"],["I_Dist_200_LN_11_LD_20_RN_3_RD_4_1.png","I_Dist_200_LN_14_LD_30_RN_12_RD_18_1.png","I_Dist_200_LN_14_LD_30_RN_6_RD_9_1.png","I_Dist_200_LN_3_LD_10_RN_1_RD_2_1.png","I_Dist_200_LN_4_LD_30_RN_1_RD_3_1.png","I_Dist_200_LN_6_LD_20_RN_3_RD_6_1.png","I_Dist_200_LN_7_LD_15_RN_4_RD_6_1.png","I_Dist_200_LN_7_LD_15_RN_6_RD_9_1.png","I_Dist_200_LN_9_LD_15_RN_8_RD_10_1.png"]],"dist200_S":[["E_Dist_200_LN_3_LD_6_RN_3_RD_10_0.png"],["E_Dist_200_LN_3_LD_10_RN_3_RD_6_1.png"]],"dist300_C":[["C_Dist_300_LN_11_LD_22_RN_1_RD_5_0.png","C_Dist_300_LN_11_LD_22_RN_2_RD_10_0.png","C_Dist_300_LN_11_LD_22_RN_4_RD_20_0.png","C_Dist_300_LN_12_LD_24_RN_2_RD_10_0.png","C_Dist_300_LN_18_LD_20_RN_9_RD_15_0.png","C_Dist_300_LN_20_LD_25_RN_13_RD_26_0.png","C_Dist_300_LN_20_LD_25_RN_14_RD_28_0.png","C_Dist_300_LN_20_LD_25_RN_5_RD_10_0.png","C_Dist_300_LN_20_LD_25_RN_8_RD_16_0.png","C_Dist_300_LN_20_LD_25_RN_9_RD_18_0.png","C_Dist_300_LN_24_LD_30_RN_2_RD_4_0.png","C_Dist_300_LN_24_LD_30_RN_8_RD_16_0.png","C_Dist_300_LN_3_LD_6_RN_2_RD_10_0.png","C_Dist_300_LN_4_LD_10_RN_1_RD_10_0.png","C_Dist_300_LN_4_LD_5_RN_2_RD_4_0.png","C_Dist_300_LN_8_LD_16_RN_1_RD_5_0.png","C_Dist_300_LN_9_LD_10_RN_3_RD_5_0.png"],["C_Dist_300_LN_1_LD_20_RN_7_RD_20_1.png","C_Dist_300_LN_1_LD_3_RN_19_RD_30_1.png","C_Dist_300_LN_1_LD_30_RN_8_RD_24_1.png","C_Dist_300_LN_1_LD_5_RN_11_RD_22_1.png","C_Dist_300_LN_1_LD_5_RN_3_RD_6_1.png","C_Dist_300_LN_1_LD_5_RN_6_RD_12_1.png","C_Dist_300_LN_2_LD_10_RN_12_RD_24_1.png","C_Dist_300_LN_2_LD_20_RN_10_RD_25_1.png","C_Dist_300_LN_3_LD_12_RN_11_RD_20_1.png","C_Dist_300_LN_3_LD_6_RN_4_RD_5_1.png","C_Dist_300_LN_4_LD_20_RN_13_RD_26_1.png","C_Dist_300_LN_5_LD_25_RN_6_RD_12_1.png","C_Dist_300_LN_5_LD_25_RN_7_RD_14_1.png","C_Dist_300_LN_7_LD_14_RN_20_RD_25_1.png","C_Dist_300_LN_8_LD_15_RN_10_RD_12_1.png"]],"dist300_I":[["I_Dist_300_LN_1_LD_2_RN_2_RD_10_0.png","I_Dist_300_LN_1_LD_2_RN_3_RD_15_0.png","I_Dist_300_LN_2_LD_4_RN_6_RD_30_0.png","I_Dist_300_LN_3_LD_6_RN_4_RD_20_0.png","I_Dist_300_LN_4_LD_5_RN_6_RD_12_0.png","I_Dist_300_LN_4_LD_5_RN_8_RD_16_0.png","I_Dist_300_LN_7_LD_10_RN_8_RD_20_0.png","I_Dist_300_LN_8_LD_10_RN_14_RD_28_0.png","I_Dist_300_LN_8_LD_10_RN_9_RD_18_0.png"],["I_Dist_300_LN_13_LD_26_RN_12_RD_15_1.png","I_Dist_300_LN_4_LD_20_RN_2_RD_4_1.png"]],"dist300_S":[["E_Dist_300_LN_9_LD_12_RN_9_RD_20_0.png"],["E_Dist_300_LN_18_LD_30_RN_18_RD_20_1.png","E_Dist_300_LN_3_LD_10_RN_3_RD_5_1.png","E_Dist_300_LN_9_LD_20_RN_9_RD_12_1.png"]],"dist500_C":[["C_Dist_500_LN_10_LD_13_RN_7_RD_26_0.png","C_Dist_500_LN_10_LD_15_RN_4_RD_24_0.png","C_Dist_500_LN_12_LD_16_RN_3_RD_12_0.png","C_Dist_500_LN_12_LD_18_RN_4_RD_24_0.png","C_Dist_500_LN_15_LD_18_RN_5_RD_15_0.png","C_Dist_500_LN_15_LD_20_RN_1_RD_4_0.png","C_Dist_500_LN_18_LD_27_RN_1_RD_6_0.png","C_Dist_500_LN_20_LD_24_RN_1_RD_3_0.png","C_Dist_500_LN_20_LD_24_RN_3_RD_9_0.png","C_Dist_500_LN_20_LD_24_RN_7_RD_21_0.png","C_Dist_500_LN_20_LD_28_RN_3_RD_14_0.png","C_Dist_500_LN_21_LD_28_RN_6_RD_24_0.png","C_Dist_500_LN_22_LD_28_RN_2_RD_7_0.png","C_Dist_500_LN_25_LD_30_RN_9_RD_27_0.png","C_Dist_500_LN_4_LD_6_RN_1_RD_6_0.png","C_Dist_500_LN_5_LD_6_RN_2_RD_6_0.png","C_Dist_500_LN_6_LD_9_RN_1_RD_6_0.png","C_Dist_500_LN_7_LD_10_RN_1_RD_5_0.png","C_Dist_500_LN_8_LD_12_RN_1_RD_6_0.png","C_Dist_500_LN_8_LD_12_RN_4_RD_24_0.png"],["C_Dist_500_LN_1_LD_4_RN_12_RD_16_1.png","C_Dist_500_LN_1_LD_4_RN_9_RD_12_1.png","C_Dist_500_LN_1_LD_9_RN_11_RD_18_1.png","C_Dist_500_LN_10_LD_24_RN_22_RD_24_1.png","C_Dist_500_LN_2_LD_12_RN_10_RD_15_1.png","C_Dist_500_LN_2_LD_12_RN_12_RD_18_1.png","C_Dist_500_LN_2_LD_12_RN_4_RD_6_1.png","C_Dist_500_LN_2_LD_24_RN_7_RD_12_1.png","C_Dist_500_LN_2_LD_5_RN_18_RD_20_1.png","C_Dist_500_LN_2_LD_5_RN_9_RD_10_1.png","C_Dist_500_LN_2_LD_8_RN_12_RD_16_1.png","C_Dist_500_LN_2_LD_8_RN_21_RD_28_1.png","C_Dist_500_LN_3_LD_10_RN_4_RD_5_1.png","C_Dist_500_LN_3_LD_12_RN_15_RD_20_1.png","C_Dist_500_LN_3_LD_30_RN_6_RD_10_1.png","C_Dist_500_LN_3_LD_8_RN_14_RD_16_1.png","C_Dist_500_LN_4_LD_16_RN_15_RD_20_1.png","C_Dist_500_LN_4_LD_24_RN_12_RD_18_1.png","C_Dist_500_LN_5_LD_14_RN_6_RD_7_1.png","C_Dist_500_LN_7_LD_21_RN_20_RD_24_1.png","C_Dist_500_LN_7_LD_28_RN_12_RD_16_1.png","C_Dist_500_LN_7_LD_28_RN_9_RD_12_1.png","C_Dist_500_LN_9_LD_27_RN_20_RD_24_1.png"]],"dist500_I":[["I_Dist_500_LN_2_LD_3_RN_4_RD_24_0.png","I_Dist_500_LN_5_LD_6_RN_6_RD_18_0.png","I_Dist_500_LN_7_LD_8_RN_9_RD_24_0.png"],["I_Dist_500_LN_7_LD_21_RN_5_RD_6_1.png"]],"dist500_S":[["E_Dist_500_LN_6_LD_8_RN_6_RD_24_0.png"],["E_Dist_500_LN_2_LD_12_RN_2_RD_3_1.png","E_Dist_500_LN_6_LD_24_RN_6_RD_8_1.png"]]}},{"start_time":1551794165007,"click_time":1551794166690,"finger_time":1551794166210,"fix_duration":1375.9913068557892,"trial":1,"RT":1203,"MT":480,"sideResp":1,"stimulus":[],"xmouse":[675,675,675,675,675,675,675,675,675,675,675,675,675,675,675,675,675,675,675,675,675,675,675,675,675,675,675,675,675,675,675,675,675,675,675,675,675,675,675,675,675,675,675,675,675,675,675,675,675,675,675,675,675,675,675,675,675,675,673,661,629,609,608,608,608,611,609,607,602,599,596,584,569,560,541,530,497,491,484,480,471,462,445,431,403],"ymouse":[445,445,445,445,445,445,445,445,445,445,445,445,445,445,445,445,445,445,445,445,445,445,445,445,445,445,445,445,445,445,445,445,445,445,445,445,445,445,445,445,445,445,445,445,445,445,445,445,445,445,445,445,445,445,445,445,445,443,432,404,348,317,315,315,313,311,294,288,276,272,263,237,215,205,186,177,151,147,142,139,133,126,113,102,76],"timestamp_mouse":[11,31,43,64,83,103,123,144,163,183,204,223,244,263,283,303,323,343,363,384,403,423,443,463,484,504,524,543,564,583,604,625,644,663,683,703,723,744,763,783,803,823,843,863,883,904,923,943,963,983,1003,1023,1043,1063,1083,1103,1123,1143,1163,1184,1203,1224,1243,1263,1283,1304,1324,1343,1363,1384,1403,1424,1444,1463,1483,1503,1523,1543,1564,1584,1603,1624,1643,1664,1683],"xSR":624.5,"ySR":395.2,"xT1":354.7,"yT1":0,"xT2":894.3,"yT2":0,"toosoon":0,"cond_shown":"Incongruent","ratio_trial":200,"L_num":3,"L_den":10,"R_num":1,"R_den":2,"correct_side":2,"subjID":"analopez","gender":"1","school":"6","age":"11"},{"start_time":1551794171415,"click_time":1551794174019,"finger_time":1551794173038,"fix_duration":494.10277175465336,"trial":2,"RT":1623,"MT":981,"sideResp":1,"stimulus":[],"xmouse":[667,667,666,664,664,663,662,662,662,662,662,662,662,662,662,662,662,662,662,662,662,662,662,662,662,662,662,662,662,662,662,662,662,662,662,662,662,662,662,662,662,662,662,662,662,662,662,662,662,662,662,662,662,662,662,662,662,662,662,662,662,662,662,662,662,662,662,662,662,662,662,662,662,662,662,662,662,662,661,647,627,602,496,488,485,485,485,486,486,486,486,486,478,475,470,470,470,470,470,470,463,450,347,316,312,312,312,312,312,312,312,312,312,312,312,313,322,337,340,340,340,340,340,341,342,345,346,347,353,354,357],"ymouse":[484,484,478,475,474,473,471,471,471,470,466,465,465,465,465,465,465,465,465,465,465,465,465,465,465,465,465,465,465,465,465,465,465,465,465,465,465,465,465,465,465,465,465,465,465,465,465,465,465,465,465,465,465,465,465,465,465,465,465,465,465,465,465,465,465,465,465,465,465,465,465,465,465,465,465,465,465,465,464,434,397,357,200,186,182,182,179,174,172,169,164,156,135,130,122,122,122,122,122,122,116,107,52,38,33,32,32,32,31,31,31,31,31,31,31,31,39,52,55,55,55,55,55,55,55,55,55,55,52,52,51],"timestamp_mouse":[10,33,43,65,84,103,123,143,164,183,204,223,244,263,283,303,324,343,363,384,403,423,444,463,483,503,523,543,563,584,604,623,644,663,684,704,725,745,765,784,804,823,845,863,883,905,923,943,963,983,1004,1024,1044,1063,1084,1104,1123,1145,1164,1183,1203,1223,1243,1263,1283,1303,1323,1343,1363,1383,1403,1423,1443,1463,1483,1504,1523,1543,1564,1583,1604,1623,1643,1664,1683,1703,1724,1744,1764,1784,1803,1824,1843,1864,1883,1904,1923,1944,1963,1985,2003,2023,2044,2063,2083,2103,2124,2144,2163,2184,2204,2224,2244,2263,2283,2304,2325,2345,2363,2384,2403,2424,2443,2463,2484,2504,2524,2544,2565,2583,2603],"xSR":624.5,"ySR":395.2,"xT1":354.7,"yT1":0,"xT2":894.3,"yT2":0,"toosoon":0,"cond_shown":"Incongruent","ratio_trial":200,"L_num":14,"L_den":30,"R_num":6,"R_den":9,"correct_side":2,"subjID":"analopez","gender":"1","school":"6","age":"11"},{"start_time":1551794176799,"click_time":1551794184999,"finger_time":1551794177659,"fix_duration":858.5346053855175,"trial":3,"RT":860,"MT":7340,"sideResp":2,"stimulus":[],"xmouse":[698,698,698,698,698,698,698,698,698,698,698,698,698,699,699,699,699,699,699,699,699,699,699,699,699,699,699,699,699,699,699,699,699,699,699,699,699,699,699,699,696,693,687,685,688,692,704,715,758,781,793,797,805,818,819,821,823,823,823,823,823,823,823,823,823,823,823,822,822,822,822,822,822,823,823,823,823,824,827,833,833,833,833,833,833,834,834,834,834,834,834,835,835,835,835,835,836,836,836,836,840,842,844,844,844,844,844,844,844,844,844,844,844,844,844,844,844,844,844,844,844,844,844,844,844,843,838,838,838,838,838,838,838,838,838,838,837,834,832,832,832,832,832,832,832,829,828,828,828,828,822,822,822,822,822,821,819,814,814,814,814,814,814,814,813,813,813,813,813,813,816,819,822,830,836,843,846,847,848,848,848,848,848,848,848,848,848,848,848,848,846,836,826,804,800,789,774,774,774,774,774,774,774,774,774,774,774,774,774,774,774,774,774,774,774,774,774,774,774,774,774,774,774,774,774,774,774,774,774,774,774,774,774,774,1335,1320,1301,1247,1209,1185,1135,1108,1056,1035,979,962,948,947,947,947,947,947,939,930,911,904,890,877,870,864,845,828,797,767,761,759,755,753,751,750,746,744,735,725,725,725,725,725,727,742,779,803,809,813,813,814,820,828,819,814,810,810,810,809,807,801,801,801,826,854,888,888,885,881,879,877,871,855,844,844,844,853,862,887,890,891,891,891,891,891,891,891,891,891,891,891,892,895,895,895,894,888,879,821,750,715,698,679,671,658,656,651,651,653,661,669,675,684,687,687,687,685,685,683,683,683,683,684,699,712,778,819,825,826,823,694,587,288,0,0,0,3,85,85,85,85,85,85,85,85,85,85,85,85,85,85,85,85,85,85,85,85,85,85,85,85,85,85,85,85,85,85,85,85,85,85,85,85,85,85,950],"ymouse":[457,457,457,457,457,457,457,457,457,457,457,457,457,457,457,457,457,457,457,457,457,457,457,457,457,457,457,457,457,457,457,457,457,457,457,457,457,457,457,455,452,446,416,374,361,356,348,344,322,306,294,288,273,244,219,207,189,178,132,121,94,87,69,60,28,21,15,13,9,9,7,4,2,2,3,4,6,9,14,28,30,31,35,35,37,40,43,44,44,44,44,45,45,45,45,45,45,45,45,44,41,38,36,36,36,36,36,36,36,36,36,36,36,36,36,36,36,36,36,36,36,36,36,36,36,36,36,36,36,36,36,36,36,36,36,36,36,36,36,36,36,36,36,36,36,36,36,36,36,36,36,36,36,36,39,133,174,230,240,243,243,243,243,243,243,243,243,243,243,242,223,200,183,144,119,80,48,35,28,26,26,25,25,25,25,25,27,28,30,40,57,108,143,248,389,471,551,551,551,551,551,551,551,551,551,551,551,551,551,551,551,551,551,551,551,551,551,551,551,551,551,551,551,551,551,551,551,551,551,551,551,551,551,551,589,589,583,567,557,550,541,537,537,538,543,544,544,544,544,544,544,544,514,484,419,395,343,292,284,283,278,273,263,249,246,245,245,244,243,243,241,241,238,235,235,235,235,235,241,257,312,361,376,387,387,388,348,273,270,268,268,268,268,272,337,383,387,387,364,295,220,220,220,219,219,219,233,344,431,431,431,430,416,279,247,244,244,244,243,243,243,243,243,243,243,243,243,243,243,243,243,243,245,274,314,328,334,334,333,302,280,234,212,172,132,113,104,89,84,84,83,81,81,80,80,80,80,80,92,107,198,251,258,259,261,250,232,182,127,106,70,64,6,6,6,6,6,6,6,6,6,6,6,6,6,6,6,6,6,6,6,6,6,6,6,6,6,6,6,6,6,6,6,6,6,6,6,6,6,6,7],"timestamp_mouse":[1,19,39,60,81,100,121,139,160,181,201,219,241,259,280,299,319,340,360,379,399,419,439,459,479,499,519,540,559,579,599,621,639,659,679,700,720,740,760,780,800,819,840,860,881,899,919,940,960,979,1000,1019,1039,1059,1079,1100,1119,1139,1159,1179,1199,1219,1240,1259,1279,1299,1320,1339,1361,1381,1399,1420,1439,1460,1479,1500,1520,1540,1560,1580,1599,1619,1641,1660,1681,1700,1720,1739,1759,1779,1800,1819,1839,1859,1879,1901,1920,1939,1959,1979,2001,2020,2039,2060,2079,2099,2119,2140,2160,2179,2199,2219,2239,2260,2280,2300,2320,2339,2360,2380,2400,2421,2440,2460,2479,2500,2519,2540,2559,2579,2599,2620,2639,2659,2679,2699,2719,2739,2761,2779,2799,2820,2840,2860,2879,2899,2920,2939,2959,2980,2999,3019,3041,3059,3081,3100,3119,3140,3159,3179,3200,3219,3240,3259,3279,3299,3319,3339,3359,3379,3400,3419,3439,3461,3479,3499,3519,3540,3559,3579,3599,3619,3639,3659,3679,3699,3720,3741,3760,3779,3801,3819,3839,3861,3880,3899,3919,3940,3959,3980,4000,4020,4039,4059,4080,4099,4121,4139,4160,4180,4200,4220,4239,4259,4279,4300,4320,4340,4359,4380,4399,4419,4439,4459,4479,4499,4521,4540,4560,4579,4600,4619,4639,4659,4680,4699,4719,4739,4760,4779,4799,4819,4839,4860,4879,4899,4920,4940,4960,4981,5000,5020,5040,5059,5080,5099,5119,5140,5160,5179,5200,5219,5239,5259,5279,5300,5319,5342,5361,5380,5399,5419,5441,5460,5480,5499,5519,5540,5559,5580,5600,5620,5639,5659,5680,5699,5720,5740,5759,5779,5800,5819,5839,5859,5879,5901,5920,5940,5959,5979,6000,6020,6040,6060,6079,6099,6119,6140,6160,6179,6199,6221,6240,6260,6281,6300,6320,6339,6359,6380,6400,6419,6439,6459,6479,6500,6520,6540,6560,6580,6599,6619,6640,6660,6679,6699,6720,6739,6760,6780,6799,6819,6840,6859,6879,6900,6919,6939,6959,6980,6999,7020,7040,7060,7080,7099,7119,7139,7160,7179,7199,7219,7240,7261,7281,7300,7320,7340,7359,7379,7399,7420,7439,7459,7480,7499,7519,7539,7560,7580,7600,7620,7640,7660,7680,7699,7720,7739,7760,7779,7800,7820,7840,7860,7880,7900,7920,7940,7960,7981,8000,8020,8041,8059,8080,8099,8121,8141,8160,8179,8200],"xSR":624.5,"ySR":395.2,"xT1":354.7,"yT1":0,"xT2":894.3,"yT2":0,"toosoon":0,"cond_shown":"Incongruent","ratio_trial":100,"L_num":6,"L_den":10,"R_num":13,"R_den":26,"correct_side":1,"subjID":"analopez","gender":"1","school":"6","age":"11"},{"start_time":1551794189149,"click_time":1551794191219,"finger_time":1551794190199,"fix_duration":1449.49099913819,"trial":4,"RT":1050,"MT":1020,"sideResp":2,"stimulus":[],"xmouse":[698,698,698,698,698,698,698,698,698,698,698,698,698,698,698,698,698,698,698,698,698,698,698,698,698,698,698,698,698,698,698,698,698,698,698,698,698,698,698,698,698,698,698,698,698,698,698,698,698,698,694,684,678,660,658,654,652,636,616,587,581,578,576,575,573,568,566,566,566,566,566,565,566,573,597,619,631,654,685,699,702,707,709,711,717,722,723,730,741,770,782,808,830,843,867,871,873,875,877,884,886,890,895,897],"ymouse":[424,424,424,424,424,424,424,424,424,424,424,424,424,424,424,424,424,424,424,424,424,424,424,424,424,424,424,424,424,424,424,424,424,424,424,424,424,424,424,424,424,424,424,424,424,424,424,424,424,420,413,399,392,365,358,331,315,273,241,210,205,201,200,199,197,194,193,193,193,193,193,194,203,216,241,246,246,244,225,205,198,183,178,174,165,156,154,147,141,136,135,135,135,135,131,129,128,127,124,115,113,108,100,98],"timestamp_mouse":[12,32,50,69,89,111,130,149,169,189,210,230,250,269,289,310,330,350,369,389,410,431,450,469,489,509,529,550,569,589,609,629,649,669,689,710,730,750,770,790,809,829,850,871,891,909,929,949,969,989,1009,1030,1050,1069,1089,1109,1129,1150,1169,1189,1209,1229,1250,1269,1289,1310,1329,1350,1370,1390,1409,1429,1449,1470,1490,1510,1529,1551,1570,1589,1609,1629,1650,1670,1689,1710,1729,1749,1769,1790,1809,1830,1849,1869,1890,1910,1930,1950,1969,1989,2009,2030,2051,2070],"xSR":624.5,"ySR":395.2,"xT1":354.7,"yT1":0,"xT2":894.3,"yT2":0,"toosoon":0,"cond_shown":"Congruent","ratio_trial":100,"L_num":7,"L_den":14,"R_num":15,"R_den":25,"correct_side":2,"subjID":"analopez","gender":"1","school":"6","age":"11"},{"start_time":1551794193651,"click_time":1551794195319,"finger_time":1551794194899,"fix_duration":1211.1827139640955,"trial":5,"RT":1248,"MT":420,"sideResp":1,"stimulus":[],"xmouse":[688,688,688,688,688,688,688,688,688,688,688,688,688,688,688,688,688,688,688,688,688,688,688,688,688,688,688,688,688,688,688,688,688,688,688,688,688,688,688,688,688,688,688,688,688,688,688,688,688,688,688,688,688,688,683,681,681,680,679,676,675,669,665,654,648,636,626,601,574,570,564,554,549,535,529,517,513,502,501,497,492,473,464,434],"ymouse":[442,442,442,442,442,442,442,442,442,442,442,442,442,442,442,442,442,442,442,442,442,442,442,442,442,442,442,442,442,442,442,442,442,442,442,442,442,442,442,442,442,442,442,442,442,442,442,442,442,442,442,442,442,436,426,423,422,422,418,413,409,400,393,374,368,345,327,289,243,232,223,201,193,173,165,150,145,133,131,126,121,105,98,79],"timestamp_mouse":[10,27,47,67,89,109,127,149,167,187,208,227,247,267,287,307,327,347,368,387,407,427,447,467,488,508,527,547,568,589,609,627,647,668,688,708,728,748,767,787,808,829,848,868,888,909,927,948,968,987,1008,1027,1049,1068,1088,1107,1127,1148,1167,1189,1208,1229,1248,1268,1288,1307,1328,1348,1367,1387,1408,1427,1448,1467,1488,1507,1527,1549,1568,1588,1608,1629,1648,1668],"xSR":624.5,"ySR":395.2,"xT1":354.7,"yT1":0,"xT2":894.3,"yT2":0,"toosoon":0,"cond_shown":"Congruent","ratio_trial":100,"L_num":6,"L_den":20,"R_num":5,"R_den":25,"correct_side":1,"subjID":"analopez","gender":"1","school":"6","age":"11"},{"start_time":1551794197468,"click_time":1551794199299,"finger_time":1551794198858,"fix_duration":1127.3816184155914,"trial":6,"RT":1390,"MT":441,"sideResp":2,"stimulus":[],"xmouse":[677,677,677,677,677,677,677,677,677,677,677,677,677,677,677,677,677,677,677,677,677,677,677,677,677,677,677,677,677,677,677,677,677,677,677,677,677,677,677,677,677,677,677,677,677,677,677,677,677,677,677,677,677,677,677,677,677,677,677,677,677,677,677,677,677,679,685,698,706,722,746,784,791,802,812,816,832,847,852,862,866,870,873,874,877,884,898,905,907,910,912,916],"ymouse":[427,427,427,427,427,427,427,427,427,427,427,427,427,427,427,427,427,427,427,427,427,427,427,427,427,427,427,427,427,427,427,427,427,427,427,427,427,427,427,427,427,427,427,427,427,427,427,427,427,427,427,427,427,427,427,427,427,427,427,427,427,427,427,427,427,426,422,413,406,387,347,274,254,222,203,196,174,160,155,144,139,135,131,130,128,124,117,110,109,106,103,97],"timestamp_mouse":[11,37,50,70,92,110,130,151,172,191,210,230,250,270,290,310,330,350,370,390,410,430,450,470,490,512,531,551,570,592,611,630,651,670,690,710,730,751,771,791,810,830,851,870,890,910,931,950,970,992,1012,1032,1052,1071,1091,1110,1131,1151,1170,1190,1210,1230,1250,1270,1290,1310,1331,1351,1370,1390,1410,1430,1451,1470,1491,1510,1530,1550,1571,1590,1610,1630,1650,1670,1691,1711,1731,1750,1771,1792,1810,1831],"xSR":624.5,"ySR":395.2,"xT1":354.7,"yT1":0,"xT2":894.3,"yT2":0,"toosoon":0,"cond_shown":"Congruent","ratio_trial":100,"L_num":4,"L_den":8,"R_num":6,"R_den":10,"correct_side":2,"subjID":"analopez","gender":"1","school":"6","age":"11"},{"start_time":1551794200672,"click_time":1551794202259,"finger_time":1551794201598,"fix_duration":292.8547108197623,"trial":7,"RT":926,"MT":661,"sideResp":1,"stimulus":[],"xmouse":[668,669,669,669,669,669,669,669,669,669,669,669,669,669,669,669,669,669,669,669,669,669,669,669,669,669,669,669,669,669,669,669,669,669,669,669,669,669,669,667,660,648,647,640,629,626,624,620,616,610,602,596,595,592,582,575,571,565,562,532,522,509,503,495,487,478,476,468,464,455,450,450,450,450,450,448,446,440,435,424],"ymouse":[472,471,471,471,471,471,471,471,471,471,471,471,471,471,471,471,471,471,471,471,471,471,471,471,471,471,471,471,471,471,471,471,471,471,471,471,471,471,471,471,470,462,460,455,446,443,442,437,432,422,412,403,401,397,383,372,366,354,347,284,266,243,233,217,195,175,169,154,146,132,124,124,124,124,124,118,115,107,101,88],"timestamp_mouse":[8,32,46,67,86,106,127,146,166,186,206,226,246,266,286,306,326,348,366,387,406,426,447,466,486,507,527,546,566,588,608,627,646,667,688,707,726,746,766,786,807,827,846,868,887,906,926,946,968,986,1006,1027,1046,1068,1086,1106,1126,1147,1167,1187,1206,1226,1246,1267,1286,1306,1326,1347,1367,1386,1406,1426,1447,1468,1487,1508,1527,1547,1567,1587],"xSR":624.5,"ySR":395.2,"xT1":354.7,"yT1":0,"xT2":894.3,"yT2":0,"toosoon":0,"cond_shown":"Incongruent","ratio_trial":300,"L_num":4,"L_den":5,"R_num":6,"R_den":12,"correct_side":1,"subjID":"analopez","gender":"1","school":"6","age":"11"},{"start_time":1551794204870,"click_time":1551794207139,"finger_time":1551794206659,"fix_duration":250,"trial":8,"RT":1789,"MT":480,"sideResp":1,"stimulus":[],"xmouse":[672,672,672,672,672,672,672,672,672,672,672,672,672,672,672,672,672,672,672,672,672,672,672,672,672,672,672,672,672,672,672,672,672,672,672,672,672,672,672,672,672,672,672,672,672,672,672,672,672,672,672,672,672,672,672,672,672,672,672,672,672,672,672,672,672,672,672,672,672,672,672,672,672,672,672,672,672,672,672,672,672,672,672,672,672,672,672,672,671,645,637,629,624,621,608,602,590,579,574,561,550,543,533,519,511,489,479,472,471,470,467,461,455,443],"ymouse":[476,476,476,476,476,476,476,476,476,476,476,476,476,476,476,476,476,476,476,476,476,476,476,476,476,476,476,476,476,476,476,476,476,476,476,476,476,476,476,476,476,476,476,476,476,476,476,476,476,476,476,476,476,476,476,476,476,476,476,476,476,476,476,476,476,476,476,476,476,476,476,476,476,476,476,476,476,476,476,476,476,476,476,476,476,476,476,469,440,370,352,333,324,312,284,275,256,239,231,209,193,183,168,149,141,122,116,110,109,108,105,98,92,84],"timestamp_mouse":[11,29,50,70,89,109,128,148,169,188,209,228,248,268,288,308,329,348,368,389,409,430,449,469,489,509,528,548,568,588,608,628,648,669,688,709,729,749,769,788,809,828,849,868,889,909,929,949,969,989,1008,1029,1049,1069,1088,1108,1128,1148,1169,1188,1208,1229,1249,1268,1289,1310,1329,1349,1368,1388,1408,1428,1449,1468,1488,1508,1528,1548,1568,1588,1609,1629,1650,1670,1688,1708,1728,1749,1769,1789,1809,1828,1848,1868,1889,1908,1929,1948,1969,1989,2008,2029,2049,2068,2088,2108,2128,2149,2169,2188,2210,2229,2250,2269],"xSR":624.5,"ySR":395.2,"xT1":354.7,"yT1":0,"xT2":894.3,"yT2":0,"toosoon":0,"cond_shown":"Congruent","ratio_trial":200,"L_num":15,"L_den":25,"R_num":4,"R_den":10,"correct_side":1,"subjID":"analopez","gender":"1","school":"6","age":"11"},{"start_time":1551794208349,"click_time":1551794210220,"finger_time":1551794209638,"fix_duration":250,"trial":9,"RT":1289,"MT":582,"sideResp":2,"stimulus":[],"xmouse":[696,696,696,696,696,696,696,696,696,696,696,696,696,696,696,696,696,696,696,696,696,696,696,696,696,696,696,696,696,696,696,696,696,696,696,696,696,696,696,696,696,696,696,696,696,696,696,696,696,696,696,696,696,696,696,696,696,696,696,696,696,701,704,706,728,731,738,741,742,746,748,750,754,758,765,769,776,778,783,796,807,812,819,825,832,834,840,845,849,859,869,876,894,912],"ymouse":[431,431,431,431,431,431,431,431,431,431,431,431,431,431,431,431,431,431,431,431,431,431,431,431,431,431,431,431,431,431,431,431,431,431,431,431,431,431,431,431,431,431,431,431,431,431,431,431,431,431,431,431,431,431,431,431,431,431,431,431,431,431,430,430,423,421,414,408,393,370,355,350,342,332,316,309,295,291,278,246,224,213,196,182,166,162,153,145,139,126,118,115,106,99],"timestamp_mouse":[11,29,49,69,89,109,129,149,169,189,209,230,249,269,290,310,330,349,370,390,409,429,449,470,490,510,531,549,571,589,609,629,650,670,689,709,729,749,769,789,809,830,849,870,889,910,929,951,970,990,1010,1030,1049,1069,1089,1110,1129,1150,1170,1189,1210,1229,1249,1269,1289,1309,1329,1349,1370,1389,1410,1430,1449,1470,1489,1511,1531,1549,1570,1589,1610,1629,1651,1669,1689,1710,1730,1750,1770,1789,1810,1829,1850,1871],"xSR":624.5,"ySR":395.2,"xT1":354.7,"yT1":0,"xT2":894.3,"yT2":0,"toosoon":0,"cond_shown":"Congruent","ratio_trial":300,"L_num":1,"L_den":3,"R_num":19,"R_den":30,"correct_side":2,"subjID":"analopez","gender":"1","school":"6","age":"11"},{"start_time":1551794212681,"click_time":1551794214639,"finger_time":1551794213678,"fix_duration":1420.3131412755874,"trial":10,"RT":997,"MT":961,"sideResp":2,"stimulus":[],"xmouse":[672,672,672,672,672,672,672,672,672,672,672,672,672,673,673,673,673,673,673,673,673,673,673,673,673,673,673,673,673,673,673,673,673,673,673,673,673,673,673,673,673,673,673,673,673,674,674,674,675,684,694,705,707,715,725,730,738,742,742,742,742,742,742,742,742,744,746,754,785,809,837,925,961,1028,1063,1073,1078,1079,1079,1079,1079,1079,1079,1079,1074,1070,1044,1029,1021,1018,1017,1012,1010,1008,1006,1002,996,979],"ymouse":[442,442,442,442,442,442,442,442,442,442,442,442,442,442,442,442,442,442,442,442,442,442,442,442,442,442,442,442,442,442,442,442,442,442,442,442,442,442,442,442,442,442,442,442,442,442,440,429,419,393,374,352,350,337,325,316,300,291,286,285,285,285,285,285,285,282,278,270,247,232,215,151,121,69,37,29,20,18,18,17,16,14,14,14,14,14,22,26,28,29,30,33,34,34,36,38,41,51],"timestamp_mouse":[28,37,57,77,98,117,138,158,177,198,218,238,257,277,299,318,338,358,377,399,418,439,457,479,498,519,538,557,578,597,617,639,658,678,697,717,737,757,778,798,818,837,857,878,899,917,937,958,977,997,1017,1037,1058,1077,1097,1117,1137,1157,1178,1198,1217,1238,1257,1279,1298,1317,1338,1358,1379,1398,1417,1438,1458,1478,1497,1518,1538,1558,1578,1597,1618,1638,1657,1677,1697,1718,1738,1757,1777,1797,1817,1838,1857,1878,1898,1917,1938,1958],"xSR":624.5,"ySR":395.2,"xT1":354.7,"yT1":0,"xT2":894.3,"yT2":0,"toosoon":0,"cond_shown":"Incongruent","ratio_trial":100,"L_num":6,"L_den":12,"R_num":3,"R_den":5,"correct_side":2,"subjID":"analopez","gender":"1","school":"6","age":"11"},{"start_time":1551794219984,"click_time":1551794221779,"finger_time":1551794221338,"fix_duration":663.6145714225871,"trial":11,"RT":1354,"MT":441,"sideResp":1,"stimulus":[],"xmouse":[674,675,675,675,675,675,675,675,675,675,675,675,675,675,675,675,675,675,675,675,675,675,675,675,675,675,675,675,675,675,675,675,675,675,675,675,675,675,675,675,675,675,675,675,675,675,675,675,675,675,675,675,675,675,675,675,675,675,675,675,675,675,675,675,667,651,643,618,605,559,547,526,518,509,494,485,481,474,473,470,470,469,468,467,466,466,466,465,459,451],"ymouse":[469,469,469,469,469,469,469,469,469,469,469,469,469,469,469,469,469,469,469,469,469,469,469,469,469,469,469,469,469,469,469,469,469,469,469,469,469,469,469,469,469,469,469,469,469,469,469,469,469,469,469,469,469,469,469,469,469,469,469,469,469,469,469,469,461,447,437,402,382,303,282,245,227,205,169,148,140,126,122,110,108,101,98,98,95,95,95,94,87,79],"timestamp_mouse":[16,35,56,74,94,116,134,156,176,194,214,235,256,274,295,315,335,354,374,394,414,435,454,475,494,514,535,555,574,595,614,634,656,674,694,714,735,756,774,794,814,834,854,874,894,914,935,954,975,994,1014,1035,1055,1076,1094,1114,1134,1155,1176,1195,1214,1236,1255,1274,1295,1315,1334,1354,1376,1395,1415,1434,1456,1475,1495,1516,1535,1555,1576,1595,1614,1634,1654,1674,1694,1714,1735,1754,1775,1795],"xSR":624.5,"ySR":395.2,"xT1":354.7,"yT1":0,"xT2":894.3,"yT2":0,"toosoon":0,"cond_shown":"Incongruent","ratio_trial":100,"L_num":4,"L_den":8,"R_num":8,"R_den":20,"correct_side":1,"subjID":"analopez","gender":"1","school":"6","age":"11"},{"start_time":1551794223553,"click_time":1551794225379,"finger_time":1551794225018,"fix_duration":733.1455337492516,"trial":12,"RT":1465,"MT":361,"sideResp":1,"stimulus":[],"xmouse":[712,712,712,712,712,712,712,712,712,712,712,712,712,712,712,712,712,712,712,712,712,712,712,712,712,712,712,712,712,712,712,712,712,712,712,712,712,712,712,712,712,712,712,712,712,712,712,712,712,712,712,712,712,712,710,709,708,707,706,706,706,706,706,705,705,705,705,705,703,700,685,676,668,654,645,598,587,576,574,569,563,559,557,546,539,501,490,469,460,448,439,432],"ymouse":[465,465,465,465,465,465,465,465,465,465,465,465,465,465,465,465,465,465,465,465,465,465,465,465,465,465,465,465,465,465,465,465,465,465,465,465,465,465,465,465,465,465,465,465,465,465,465,465,465,465,465,465,465,465,465,465,465,465,465,465,465,465,465,466,466,466,466,466,465,455,426,410,397,364,344,253,237,218,212,203,192,187,185,177,172,145,139,124,118,110,103,96],"timestamp_mouse":[8,27,46,65,86,105,126,146,167,186,206,226,246,265,285,305,325,346,365,385,405,425,445,465,486,506,526,545,565,585,605,625,645,665,686,705,725,745,765,785,806,825,845,865,885,907,926,945,965,986,1006,1025,1045,1065,1086,1106,1127,1146,1166,1186,1205,1225,1247,1266,1286,1305,1325,1347,1366,1385,1405,1426,1445,1465,1486,1505,1527,1545,1565,1586,1605,1625,1646,1666,1686,1705,1725,1745,1766,1786,1806,1826],"xSR":624.5,"ySR":395.2,"xT1":354.7,"yT1":0,"xT2":894.3,"yT2":0,"toosoon":0,"cond_shown":"Incongruent","ratio_trial":300,"L_num":4,"L_den":5,"R_num":8,"R_den":16,"correct_side":1,"subjID":"analopez","gender":"1","school":"6","age":"11"},{"start_time":1551794227126,"click_time":1551794228438,"finger_time":1551794228219,"fix_duration":846.2640542081164,"trial":13,"RT":1093,"MT":219,"sideResp":1,"stimulus":[],"xmouse":[687,687,687,687,687,687,687,687,687,687,687,687,687,687,687,687,687,687,687,687,687,687,687,687,687,687,687,687,687,687,687,687,687,687,687,687,687,687,687,687,687,687,687,687,687,687,688,688,691,696,701,701,704,704,704,704,704,704,701,672,658,632,595,575,469,386],"ymouse":[456,456,456,456,456,456,456,456,456,456,456,456,456,456,456,456,456,456,456,456,456,456,456,456,456,456,456,456,456,456,456,456,456,456,456,456,456,456,456,456,456,456,456,456,456,456,456,451,437,425,414,411,400,396,390,390,389,388,377,321,300,261,216,193,106,52],"timestamp_mouse":[12,32,52,72,94,113,134,153,172,193,212,232,253,273,293,313,332,354,373,393,412,433,454,473,492,512,532,552,572,592,612,633,652,672,692,712,732,752,773,793,813,832,852,873,893,914,932,954,974,992,1013,1032,1053,1073,1093,1113,1132,1153,1172,1192,1213,1233,1253,1272,1293,1312],"xSR":624.5,"ySR":395.2,"xT1":354.7,"yT1":0,"xT2":894.3,"yT2":0,"toosoon":0,"cond_shown":"Incongruent","ratio_trial":200,"L_num":4,"L_den":6,"R_num":14,"R_den":30,"correct_side":1,"subjID":"analopez","gender":"1","school":"6","age":"11"},{"start_time":1551794229852,"click_time":1551794231199,"finger_time":1551794230840,"fix_duration":250,"trial":14,"RT":988,"MT":359,"sideResp":2,"stimulus":[],"xmouse":[675,675,675,675,675,675,675,675,675,675,675,675,675,675,675,675,675,675,675,675,675,675,675,675,675,675,675,675,675,675,675,675,675,675,675,675,675,675,675,675,675,675,675,675,675,675,677,693,707,744,763,802,807,815,817,828,840,856,861,867,875,884,885,887,888,891,895,898],"ymouse":[473,473,473,473,473,473,473,473,473,473,473,473,473,473,473,473,473,473,473,473,473,473,473,473,473,473,473,473,473,473,473,473,473,473,473,473,473,473,473,473,473,473,473,473,473,473,473,438,407,343,315,265,254,227,218,199,182,162,156,147,135,118,116,111,110,106,103,99],"timestamp_mouse":[12,31,46,67,87,106,128,146,167,187,207,227,247,266,287,307,326,347,367,387,408,426,448,468,488,508,527,548,567,586,606,627,646,667,687,707,727,747,767,786,807,826,847,867,886,907,927,947,967,988,1006,1026,1046,1067,1087,1108,1126,1147,1168,1188,1207,1226,1246,1267,1286,1306,1327,1346],"xSR":624.5,"ySR":395.2,"xT1":354.7,"yT1":0,"xT2":894.3,"yT2":0,"toosoon":0,"cond_shown":"Incongruent","ratio_trial":200,"L_num":7,"L_den":15,"R_num":6,"R_den":9,"correct_side":2,"subjID":"analopez","gender":"1","school":"6","age":"11"},{"start_time":1551794232478,"click_time":1551794233800,"finger_time":1551794233340,"fix_duration":278.6167226710419,"trial":15,"RT":862,"MT":460,"sideResp":1,"stimulus":[],"xmouse":[674,674,674,674,674,674,674,674,674,674,674,674,674,674,674,674,674,674,674,674,674,674,674,674,674,674,674,674,674,674,674,674,674,674,674,674,674,674,674,674,674,673,668,605,569,556,547,546,546,546,544,541,538,531,529,527,525,524,520,517,512,508,498,483,465,458,442],"ymouse":[435,435,435,435,435,435,435,435,435,435,435,435,435,435,435,435,435,435,435,435,435,435,435,435,435,435,435,435,435,435,435,435,435,435,435,435,435,435,435,435,435,435,426,348,313,300,290,289,272,257,241,232,222,201,187,181,170,163,144,134,123,116,103,85,70,64,53],"timestamp_mouse":[14,21,40,62,81,101,121,142,160,181,202,221,240,260,280,301,321,340,360,380,402,420,441,461,480,500,521,541,561,580,600,620,642,661,682,702,721,741,762,781,800,822,840,862,881,900,920,940,961,981,1000,1021,1040,1060,1081,1101,1122,1142,1161,1180,1201,1221,1240,1260,1282,1302,1321],"xSR":624.5,"ySR":395.2,"xT1":354.7,"yT1":0,"xT2":894.3,"yT2":0,"toosoon":0,"cond_shown":"Incongruent","ratio_trial":300,"L_num":8,"L_den":10,"R_num":9,"R_den":18,"correct_side":1,"subjID":"analopez","gender":"1","school":"6","age":"11"},{"start_time":1551794236071,"click_time":1551794237538,"finger_time":1551794237040,"fix_duration":1411.4809822282807,"trial":16,"RT":969,"MT":498,"sideResp":2,"stimulus":[],"xmouse":[663,663,663,663,663,663,663,663,663,663,663,663,663,663,663,663,663,663,663,663,663,663,672,679,683,686,686,686,686,686,686,686,686,686,686,686,686,686,686,686,686,686,686,686,686,686,686,687,704,719,756,790,796,811,833,845,860,875,881,883,884,885,885,885,885,885,885,885,885,885,886,886,892,911],"ymouse":[441,441,441,441,441,441,441,441,441,441,441,441,441,441,441,441,441,441,441,441,441,441,437,429,424,420,420,420,420,420,420,420,420,420,420,420,420,420,420,420,420,420,420,420,420,420,420,419,390,359,283,184,160,122,87,75,57,36,29,27,25,24,23,23,23,23,23,23,23,23,22,22,23,30],"timestamp_mouse":[12,37,48,67,88,108,128,148,169,188,209,228,247,268,287,308,327,347,367,388,408,427,447,468,488,508,528,547,567,587,608,629,647,669,688,707,727,748,768,788,807,829,849,869,888,909,927,948,969,987,1007,1028,1047,1068,1088,1108,1127,1149,1167,1188,1207,1227,1249,1268,1288,1308,1328,1348,1367,1387,1407,1428,1448,1467],"xSR":624.5,"ySR":395.2,"xT1":354.7,"yT1":0,"xT2":894.3,"yT2":0,"toosoon":0,"cond_shown":"Incongruent","ratio_trial":100,"L_num":12,"L_den":30,"R_num":2,"R_den":4,"correct_side":2,"subjID":"analopez","gender":"1","school":"6","age":"11"},{"start_time":1551794238797,"click_time":1551794240080,"finger_time":1551794239818,"fix_duration":376.5584746179276,"trial":17,"RT":1021,"MT":262,"sideResp":2,"stimulus":[],"xmouse":[673,673,673,673,673,673,673,673,673,673,673,673,673,673,673,673,673,673,673,673,673,673,673,673,673,673,673,673,673,673,673,673,673,673,673,673,673,673,673,673,673,673,673,673,673,673,673,673,675,700,715,760,793,846,875,884,887,894,897,911,914,918,921,922,923],"ymouse":[464,464,464,464,464,464,464,464,464,464,464,464,464,464,464,464,464,464,464,464,464,464,464,464,464,464,464,464,464,464,464,464,464,464,464,464,464,464,464,464,464,464,464,464,464,464,464,464,461,420,402,346,310,257,221,201,191,176,169,136,129,117,111,107,97],"timestamp_mouse":[9,21,42,61,81,102,122,143,162,182,202,223,241,263,282,303,322,341,361,383,403,422,442,461,483,503,522,542,561,581,603,622,641,661,682,703,722,742,762,781,803,821,842,862,883,902,921,941,963,982,1002,1021,1041,1061,1082,1102,1122,1142,1161,1181,1203,1222,1241,1261,1282],"xSR":624.5,"ySR":395.2,"xT1":354.7,"yT1":0,"xT2":894.3,"yT2":0,"toosoon":0,"cond_shown":"Incongruent","ratio_trial":300,"L_num":1,"L_den":2,"R_num":3,"R_den":15,"correct_side":1,"subjID":"analopez","gender":"1","school":"6","age":"11"},{"start_time":1551794242508,"click_time":1551794243539,"finger_time":1551794243438,"fix_duration":1387.2861315422285,"trial":18,"RT":930,"MT":101,"sideResp":1,"stimulus":[],"xmouse":[675,675,675,675,675,675,675,675,675,675,675,675,675,675,675,675,675,675,675,675,675,675,675,675,675,675,675,675,675,675,675,675,675,675,675,675,675,675,675,675,675,675,671,663,654,631,601,542,511,446,391,366],"ymouse":[451,451,451,451,451,451,451,451,451,451,451,451,451,451,451,451,451,451,451,451,451,451,451,451,451,451,451,451,451,451,451,451,451,451,451,451,451,451,451,451,451,451,448,439,429,401,368,297,258,176,109,78],"timestamp_mouse":[10,32,51,72,91,111,131,150,172,191,211,231,251,271,291,311,330,351,372,392,411,430,450,472,491,511,530,550,572,592,610,630,651,672,690,711,731,751,770,790,811,831,850,871,892,912,930,951,972,992,1010,1031],"xSR":624.5,"ySR":395.2,"xT1":354.7,"yT1":0,"xT2":894.3,"yT2":0,"toosoon":0,"cond_shown":"Incongruent","ratio_trial":100,"L_num":6,"L_den":12,"R_num":3,"R_den":5,"correct_side":2,"subjID":"analopez","gender":"1","school":"6","age":"11"},{"start_time":1551794245424,"click_time":1551794247179,"finger_time":1551794245598,"fix_duration":684.4436651279849,"trial":19,"RT":174,"MT":1581,"sideResp":2,"stimulus":[],"xmouse":[692,693,697,700,706,713,718,723,725,725,726,726,727,727,727,727,727,727,727,727,727,727,727,727,727,727,727,727,727,727,725,722,720,708,696,689,689,689,689,689,689,689,689,689,689,689,689,689,689,689,689,689,689,689,689,689,690,698,740,776,786,801,812,813,813,813,813,813,815,818,820,828,833,845,869,878,879,882,883,884,885,886,887,887,887,889,890,895],"ymouse":[442,442,442,442,442,447,449,452,453,453,453,453,453,453,453,453,453,453,453,453,453,453,453,453,453,453,453,453,453,453,453,451,451,445,442,441,441,441,441,441,441,441,441,441,441,441,441,441,441,441,441,441,441,441,441,441,432,420,364,296,270,233,207,205,198,196,194,190,183,169,163,146,139,124,103,92,89,85,83,81,80,79,77,77,77,76,76,73],"timestamp_mouse":[16,35,54,75,95,115,135,155,174,194,214,234,255,274,295,314,335,356,375,395,414,436,455,476,494,515,536,555,575,594,615,635,655,675,695,716,735,754,775,795,815,834,854,875,895,914,934,954,974,996,1015,1035,1054,1075,1095,1116,1135,1155,1176,1195,1215,1236,1255,1275,1295,1315,1335,1354,1374,1395,1414,1435,1454,1475,1494,1514,1534,1555,1575,1594,1615,1635,1656,1674,1695,1715,1736,1755],"xSR":624.5,"ySR":395.2,"xT1":354.7,"yT1":0,"xT2":894.3,"yT2":0,"toosoon":0,"cond_shown":"Congruent","ratio_trial":200,"L_num":5,"L_den":10,"R_num":14,"R_den":20,"correct_side":2,"subjID":"analopez","gender":"1","school":"6","age":"11"},{"start_time":1551794248818,"click_time":1551794250739,"finger_time":1551794250318,"fix_duration":858.7573831653997,"trial":20,"RT":1500,"MT":421,"sideResp":1,"stimulus":[],"xmouse":[684,684,684,684,684,684,684,684,684,684,684,684,684,684,684,684,684,684,684,684,684,684,684,684,684,684,684,684,684,684,684,684,684,684,684,684,684,684,684,684,684,684,684,684,684,684,684,684,684,684,684,684,684,684,684,684,684,684,684,684,684,684,684,684,684,684,684,684,684,684,684,684,684,684,682,672,639,624,601,557,539,533,526,515,509,496,478,474,470,468,466,465,463,463,461,458,451],"ymouse":[448,448,448,448,448,448,448,448,448,448,448,448,448,448,448,448,448,448,448,448,448,448,448,448,448,448,448,448,448,448,448,448,448,448,448,448,448,448,448,448,448,448,448,448,448,448,448,448,448,448,448,448,448,448,448,448,448,448,448,448,448,448,448,448,448,448,448,448,448,448,448,448,448,448,424,394,333,313,278,220,197,187,176,155,146,125,106,101,97,93,89,86,83,82,81,77,72],"timestamp_mouse":[3,21,40,60,82,100,120,142,160,181,200,220,242,260,281,300,320,341,360,381,400,422,441,462,482,501,520,541,561,581,602,620,641,662,681,700,720,742,760,780,802,822,842,861,880,901,922,941,962,981,1000,1020,1041,1060,1081,1101,1121,1141,1161,1182,1202,1221,1241,1261,1281,1300,1320,1340,1361,1381,1400,1420,1440,1461,1481,1500,1520,1540,1560,1580,1600,1620,1641,1661,1680,1700,1721,1741,1762,1781,1801,1821,1841,1862,1881,1901,1921],"xSR":624.5,"ySR":395.2,"xT1":354.7,"yT1":0,"xT2":894.3,"yT2":0,"toosoon":0,"cond_shown":"Congruent","ratio_trial":100,"L_num":3,"L_den":6,"R_num":2,"R_den":5,"correct_side":1,"subjID":"analopez","gender":"1","school":"6","age":"11"},{"start_time":1551794252971,"click_time":1551794254819,"finger_time":1551794253738,"fix_duration":1211.216061118042,"trial":21,"RT":767,"MT":1081,"sideResp":1,"stimulus":[],"xmouse":[660,660,660,660,660,660,660,660,660,660,660,660,660,660,660,660,660,660,660,660,660,660,660,660,660,660,660,660,660,660,660,660,660,661,662,671,681,712,727,755,758,765,769,777,788,796,800,806,810,824,825,828,830,833,836,843,846,853,856,863,871,873,874,874,874,874,874,874,874,874,874,874,874,874,874,874,874,874,874,874,874,870,849,826,771,672,638,589,545,523,480,460,445],"ymouse":[452,452,452,452,452,452,452,452,452,452,452,452,452,452,452,452,452,452,452,452,452,452,452,452,452,452,452,452,452,452,452,452,452,453,453,446,433,401,388,350,343,324,316,299,277,264,257,244,235,209,203,195,190,180,170,151,145,130,122,107,88,83,81,80,80,80,80,80,80,80,80,80,80,80,80,80,80,80,80,79,79,81,85,86,86,72,67,61,60,60,60,60,60],"timestamp_mouse":[17,35,48,67,88,109,128,148,168,188,208,228,249,268,288,309,328,348,369,389,407,428,447,467,487,507,528,548,568,587,607,629,649,668,688,709,729,748,767,788,808,828,847,868,888,908,929,947,967,988,1007,1028,1048,1069,1087,1109,1129,1149,1168,1189,1208,1228,1249,1268,1288,1308,1327,1347,1368,1387,1407,1429,1449,1468,1487,1509,1528,1549,1569,1588,1608,1628,1649,1667,1688,1708,1728,1749,1768,1788,1807,1827,1848],"xSR":624.5,"ySR":395.2,"xT1":354.7,"yT1":0,"xT2":894.3,"yT2":0,"toosoon":0,"cond_shown":"Incongruent","ratio_trial":200,"L_num":7,"L_den":10,"R_num":12,"R_den":24,"correct_side":1,"subjID":"analopez","gender":"1","school":"6","age":"11"},{"start_time":1551794256539,"click_time":1551794258379,"finger_time":1551794257518,"fix_duration":659.2060043852321,"trial":22,"RT":979,"MT":861,"sideResp":2,"stimulus":[],"xmouse":[642,642,642,642,642,642,642,642,642,642,642,642,642,642,642,642,642,642,642,642,642,642,642,642,642,642,642,642,642,642,642,642,642,642,642,642,642,642,642,642,645,652,658,670,684,699,701,704,704,704,701,699,699,702,715,753,758,766,772,781,795,807,812,816,818,819,819,820,824,825,829,831,832,833,836,836,841,844,846,848,850,854,855,856,859,861,867,873,879,881,885,890,895],"ymouse":[467,467,467,467,467,467,467,467,467,467,467,467,467,467,467,467,467,467,467,467,467,467,467,467,467,467,467,467,467,467,467,467,467,467,467,467,467,467,467,467,467,462,457,448,435,415,410,399,396,392,361,343,335,314,295,262,255,237,227,211,190,176,171,164,160,156,156,153,147,145,137,132,131,128,125,125,117,111,107,104,99,94,92,89,85,83,79,76,72,71,68,66,64],"timestamp_mouse":[1,28,41,59,80,99,119,139,160,180,199,221,239,260,280,299,320,339,361,381,400,420,439,460,481,500,520,540,561,580,599,619,639,660,680,700,721,739,759,781,799,820,841,861,880,899,920,941,960,979,999,1020,1039,1059,1080,1099,1119,1140,1161,1180,1200,1220,1240,1260,1279,1300,1319,1339,1360,1380,1400,1421,1440,1459,1479,1499,1519,1540,1560,1580,1600,1619,1640,1661,1680,1699,1720,1740,1761,1781,1800,1820,1840],"xSR":624.5,"ySR":395.2,"xT1":354.7,"yT1":0,"xT2":894.3,"yT2":0,"toosoon":0,"cond_shown":"Congruent","ratio_trial":100,"L_num":7,"L_den":14,"R_num":15,"R_den":25,"correct_side":2,"subjID":"analopez","gender":"1","school":"6","age":"11"},{"start_time":1551794260150,"click_time":1551794261498,"finger_time":1551794260959,"fix_duration":650.9112984378546,"trial":23,"RT":809,"MT":539,"sideResp":1,"stimulus":[],"xmouse":[676,676,676,676,676,676,676,676,676,676,676,676,676,676,676,676,676,676,676,676,676,676,676,676,676,676,676,676,676,676,673,669,663,657,652,649,647,646,642,637,615,602,592,578,569,568,567,566,565,563,562,559,557,553,549,546,541,533,525,523,519,514,508,494,482,477,460,448],"ymouse":[453,453,453,453,453,453,453,453,453,453,453,453,453,453,453,453,453,453,453,453,453,453,453,453,453,453,453,453,453,453,453,452,449,446,443,441,439,439,429,418,377,355,338,318,306,303,301,297,294,289,282,274,267,255,245,238,226,211,196,192,181,170,161,138,122,117,99,87],"timestamp_mouse":[8,28,48,68,90,108,129,150,169,188,208,230,249,269,289,309,329,349,370,389,409,428,449,469,488,509,529,548,570,589,610,628,648,668,688,710,728,748,769,790,809,828,848,869,889,909,929,952,970,989,1008,1029,1049,1069,1090,1109,1130,1149,1170,1189,1209,1228,1250,1269,1289,1308,1330,1348],"xSR":624.5,"ySR":395.2,"xT1":354.7,"yT1":0,"xT2":894.3,"yT2":0,"toosoon":0,"cond_shown":"Congruent","ratio_trial":100,"L_num":11,"L_den":22,"R_num":6,"R_den":15,"correct_side":1,"subjID":"analopez","gender":"1","school":"6","age":"11"},{"start_time":1551794263163,"click_time":1551794264419,"finger_time":1551794264099,"fix_duration":822.3934609927394,"trial":24,"RT":936,"MT":320,"sideResp":1,"stimulus":[],"xmouse":[667,667,667,667,667,667,667,667,667,667,667,667,667,667,667,667,675,684,689,698,701,701,702,702,702,702,702,702,702,702,702,702,702,702,702,702,702,702,702,702,701,701,699,691,686,654,641,624,618,604,586,574,565,549,543,491,474,448,443,436,432,429,428],"ymouse":[452,452,452,452,452,452,452,452,452,452,452,452,452,452,452,452,453,452,451,447,445,445,445,445,445,445,445,445,445,445,445,445,445,445,445,445,445,445,445,445,444,444,442,432,427,403,392,377,369,350,327,310,300,280,270,199,179,149,141,128,112,104,98],"timestamp_mouse":[28,36,57,77,96,115,135,157,176,195,216,235,256,275,296,315,336,355,377,395,415,436,455,476,496,515,535,556,576,595,615,636,656,676,696,715,737,756,776,796,817,836,856,875,895,916,936,956,977,995,1017,1037,1055,1076,1096,1116,1136,1156,1176,1195,1215,1235,1256],"xSR":624.5,"ySR":395.2,"xT1":354.7,"yT1":0,"xT2":894.3,"yT2":0,"toosoon":0,"cond_shown":"Incongruent","ratio_trial":100,"L_num":8,"L_den":20,"R_num":1,"R_den":2,"correct_side":2,"subjID":"analopez","gender":"1","school":"6","age":"11"},{"start_time":1551794267331,"click_time":1551794269899,"finger_time":1551794268859,"fix_duration":250,"trial":25,"RT":1528,"MT":1040,"sideResp":2,"stimulus":[],"xmouse":[710,708,707,703,701,696,689,685,682,667,660,646,646,646,646,646,646,646,646,646,646,646,646,646,646,646,646,646,645,645,645,647,648,650,650,652,653,655,655,657,657,657,657,657,657,657,657,657,656,654,654,653,651,650,647,646,644,642,642,641,641,641,641,641,641,641,641,641,641,641,639,638,634,633,631,630,628,625,599,591,571,564,549,543,538,538,537,535,531,527,520,518,502,499,488,480,466,458,453,450,446,445,445,445,445,445,445,454,479,505,580,620,708,781,791,792,792,792,802,810,825,844,852,880,907,914,923,928,932],"ymouse":[478,478,478,479,480,481,484,484,485,489,490,495,495,495,495,495,495,495,495,495,495,495,495,495,495,495,495,495,493,489,483,474,473,469,468,464,461,459,457,455,453,450,448,447,447,447,446,444,443,440,440,440,436,434,430,428,426,424,424,423,423,423,423,423,423,423,423,423,423,423,418,415,409,407,402,400,395,389,352,342,321,313,295,287,281,280,278,273,264,254,240,235,203,194,175,163,144,131,125,121,116,114,114,113,113,113,113,120,134,147,181,199,236,265,268,268,268,268,260,255,246,233,225,185,146,135,118,104,93],"timestamp_mouse":[11,37,48,68,88,108,128,147,167,188,208,227,247,268,288,308,327,347,367,387,408,428,447,467,488,509,528,549,567,588,608,627,648,667,688,709,728,748,768,789,808,828,848,868,888,907,929,948,969,989,1009,1028,1047,1068,1088,1107,1127,1148,1168,1187,1207,1227,1247,1268,1289,1308,1328,1347,1368,1389,1408,1428,1447,1467,1488,1509,1528,1547,1568,1588,1608,1628,1647,1667,1687,1707,1729,1747,1767,1788,1808,1828,1848,1867,1888,1908,1928,1947,1968,1988,2007,2028,2048,2069,2089,2107,2127,2149,2167,2188,2208,2228,2248,2268,2289,2308,2328,2347,2367,2388,2408,2428,2448,2467,2487,2507,2528,2549,2567],"xSR":624.5,"ySR":395.2,"xT1":354.7,"yT1":0,"xT2":894.3,"yT2":0,"toosoon":0,"cond_shown":"Incongruent","ratio_trial":300,"L_num":4,"L_den":20,"R_num":2,"R_den":4,"correct_side":2,"subjID":"analopez","gender":"1","school":"6","age":"11"},{"start_time":1551794271581,"click_time":1551794273099,"finger_time":1551794272559,"fix_duration":559.6386836158556,"trial":26,"RT":978,"MT":540,"sideResp":1,"stimulus":[],"xmouse":[677,677,677,677,677,677,677,677,677,677,677,677,677,677,677,677,677,677,677,677,677,677,677,677,677,677,677,677,677,677,677,677,677,677,677,676,676,676,676,676,676,676,675,675,670,664,651,645,626,592,565,551,535,531,526,526,526,526,526,524,521,520,517,516,511,511,508,504,499,482,474,471,466,462,456,453,445],"ymouse":[461,461,461,461,461,461,461,461,461,461,461,461,461,461,461,461,461,461,461,461,461,461,461,461,461,461,461,461,461,461,461,461,461,461,461,461,461,461,461,461,461,461,461,461,460,455,445,441,424,381,345,326,298,289,250,241,223,216,201,185,175,171,166,164,155,153,150,146,141,124,118,116,112,108,103,101,96],"timestamp_mouse":[1,18,38,58,78,98,117,139,158,177,198,218,239,257,278,297,317,337,358,378,397,417,437,457,479,499,518,539,559,578,598,618,639,659,679,697,717,737,758,778,798,818,839,859,879,898,918,937,958,978,998,1018,1038,1059,1078,1098,1118,1138,1159,1177,1198,1218,1239,1257,1278,1298,1318,1339,1358,1378,1397,1419,1437,1458,1478,1498,1517],"xSR":624.5,"ySR":395.2,"xT1":354.7,"yT1":0,"xT2":894.3,"yT2":0,"toosoon":0,"cond_shown":"Incongruent","ratio_trial":200,"L_num":6,"L_den":20,"R_num":3,"R_den":6,"correct_side":2,"subjID":"analopez","gender":"1","school":"6","age":"11"},{"start_time":1551794274252,"click_time":1551794275898,"finger_time":1551794275639,"fix_duration":250,"trial":27,"RT":1387,"MT":259,"sideResp":1,"stimulus":[],"xmouse":[685,685,685,685,685,685,685,685,685,685,685,685,685,685,685,685,685,685,685,685,685,685,685,685,685,685,685,685,685,685,685,685,685,685,685,685,685,685,685,685,685,685,685,685,685,685,685,685,685,685,685,685,685,685,685,685,685,685,685,685,685,685,685,685,685,685,685,682,672,608,565,547,521,491,479,476,470,467,460,446,439,437,434],"ymouse":[492,492,492,492,492,492,492,492,492,492,492,492,492,492,492,492,492,492,492,492,492,492,492,492,492,492,492,492,492,492,492,492,492,492,492,492,492,492,492,492,492,492,492,492,492,492,492,492,492,492,492,492,492,492,492,492,492,492,492,492,492,492,492,492,492,492,492,490,475,385,332,307,264,198,170,163,150,145,133,117,109,106,99],"timestamp_mouse":[9,29,47,67,87,106,127,146,168,188,207,227,246,267,287,307,328,347,367,388,406,426,446,466,486,507,528,548,567,586,607,626,648,667,687,707,726,746,768,787,807,826,848,867,887,907,927,948,968,987,1008,1028,1046,1068,1087,1107,1128,1146,1167,1188,1206,1226,1246,1266,1286,1307,1326,1347,1366,1387,1407,1426,1448,1467,1487,1507,1528,1546,1567,1587,1607,1627,1646],"xSR":624.5,"ySR":395.2,"xT1":354.7,"yT1":0,"xT2":894.3,"yT2":0,"toosoon":0,"cond_shown":"Congruent","ratio_trial":200,"L_num":16,"L_den":30,"R_num":9,"R_den":27,"correct_side":1,"subjID":"analopez","gender":"1","school":"6","age":"11"},{"start_time":1551794277091,"click_time":1551794278299,"finger_time":1551794278019,"fix_duration":250,"trial":28,"RT":928,"MT":280,"sideResp":1,"stimulus":[],"xmouse":[653,653,653,653,653,653,653,653,653,653,653,653,653,653,653,653,653,653,653,653,653,653,653,653,653,653,653,653,653,653,653,653,653,653,653,653,653,653,653,653,653,653,653,653,653,653,628,612,581,566,561,553,528,516,491,478,472,463,452,445,442],"ymouse":[432,432,432,432,432,432,432,432,432,432,432,432,432,432,432,432,432,432,432,432,432,432,432,432,432,432,432,432,432,432,432,432,432,432,432,432,432,432,432,432,432,432,432,432,432,432,391,369,327,307,298,281,239,220,182,160,152,136,119,104,98],"timestamp_mouse":[9,28,48,68,88,108,128,148,168,187,209,228,247,267,289,307,329,348,367,387,408,427,448,468,487,508,527,549,568,587,609,628,648,669,689,708,729,748,768,788,807,828,848,869,887,907,928,949,969,987,1007,1028,1048,1068,1087,1108,1128,1148,1168,1187,1208],"xSR":624.5,"ySR":395.2,"xT1":354.7,"yT1":0,"xT2":894.3,"yT2":0,"toosoon":0,"cond_shown":"Congruent","ratio_trial":200,"L_num":12,"L_den":15,"R_num":6,"R_den":10,"correct_side":1,"subjID":"analopez","gender":"1","school":"6","age":"11"},{"start_time":1551794280194,"click_time":1551794281539,"finger_time":1551794281226,"fix_duration":1034.3561219226315,"trial":29,"RT":1032,"MT":313,"sideResp":1,"stimulus":[],"xmouse":[673,673,673,673,673,673,673,673,673,673,673,673,673,673,673,673,673,673,673,673,673,673,673,673,673,673,673,673,673,673,673,673,673,673,673,673,673,673,673,673,673,673,668,666,662,657,656,651,644,639,633,625,610,607,599,591,586,575,556,542,524,504,478,473,466,455,447,422],"ymouse":[470,470,470,470,470,470,470,470,470,470,470,470,470,470,470,470,470,470,470,470,470,470,470,470,470,470,470,470,470,470,470,470,470,470,470,470,470,470,470,470,470,469,460,457,452,446,444,434,422,415,404,391,363,356,339,319,310,284,250,231,199,169,139,132,122,107,100,78],"timestamp_mouse":[8,36,46,66,86,105,126,145,165,184,205,226,245,266,284,305,324,344,364,384,404,424,446,464,484,504,524,544,564,584,604,624,645,664,684,704,725,745,764,784,805,825,844,865,885,904,924,944,965,985,1006,1032,1045,1065,1085,1105,1126,1144,1165,1184,1205,1224,1246,1265,1285,1304,1325,1345],"xSR":624.5,"ySR":395.2,"xT1":354.7,"yT1":0,"xT2":894.3,"yT2":0,"toosoon":0,"cond_shown":"Congruent","ratio_trial":200,"L_num":14,"L_den":28,"R_num":6,"R_den":20,"correct_side":1,"subjID":"analopez","gender":"1","school":"6","age":"11"},{"start_time":1551794282592,"click_time":1551794284479,"finger_time":1551794283479,"fix_duration":250,"trial":30,"RT":887,"MT":1000,"sideResp":2,"stimulus":[],"xmouse":[677,677,677,677,677,677,677,677,677,677,677,677,677,677,677,677,677,677,677,677,677,677,677,677,677,677,677,677,677,677,677,677,677,677,677,677,677,677,677,677,677,677,678,672,629,574,562,562,562,562,562,562,562,561,558,557,557,557,557,557,557,557,557,557,557,557,557,557,559,559,693,751,866,913,972,1017,1027,1029,1032,1032,1032,1032,1032,1032,1032,1032,1029,1027,1022,1019,1011,997,985,982,975],"ymouse":[461,461,461,461,461,461,461,461,461,461,461,461,461,461,461,461,461,461,461,461,461,461,461,461,461,461,461,461,461,461,461,461,461,461,461,461,461,461,461,461,461,461,457,435,368,293,279,279,279,279,276,271,266,263,259,258,258,258,258,258,258,258,258,258,258,258,258,258,261,261,361,388,429,435,430,402,371,356,328,313,268,262,248,244,238,232,223,219,206,199,183,144,117,110,97],"timestamp_mouse":[10,30,47,67,87,107,126,147,166,187,206,226,247,266,286,307,326,347,367,387,406,426,446,466,487,507,526,546,566,587,607,626,646,666,686,707,727,747,766,788,807,827,846,868,887,907,927,946,968,986,1007,1027,1046,1068,1086,1106,1127,1146,1166,1186,1207,1227,1247,1268,1287,1307,1327,1347,1368,1387,1407,1427,1446,1468,1488,1507,1527,1547,1566,1588,1606,1627,1647,1667,1686,1706,1726,1747,1767,1788,1806,1827,1846,1867,1886],"xSR":624.5,"ySR":395.2,"xT1":354.7,"yT1":0,"xT2":894.3,"yT2":0,"toosoon":0,"cond_shown":"Congruent","ratio_trial":100,"L_num":6,"L_den":12,"R_num":15,"R_den":25,"correct_side":2,"subjID":"analopez","gender":"1","school":"6","age":"11"},{"start_time":1551794286243,"click_time":1551794287839,"finger_time":1551794287198,"fix_duration":601.0830399809406,"trial":31,"RT":955,"MT":641,"sideResp":1,"stimulus":[],"xmouse":[690,690,690,690,690,690,690,690,690,690,690,690,690,690,690,690,690,690,690,690,690,690,690,690,690,690,690,690,690,690,690,690,690,690,690,690,690,690,690,690,690,690,690,690,690,677,639,619,613,605,601,598,589,582,578,567,557,546,541,534,528,518,507,499,494,488,488,488,489,490,490,490,490,490,488,483,475,466,464,452],"ymouse":[462,462,462,462,462,462,462,462,462,462,462,462,462,462,462,462,462,462,462,462,462,462,462,462,462,462,462,462,462,462,462,462,462,462,462,462,462,462,462,462,462,462,462,462,462,455,422,403,397,390,378,369,350,332,325,302,281,254,244,226,216,194,174,158,151,141,129,120,115,108,107,104,101,95,89,77,63,50,48,34],"timestamp_mouse":[27,37,56,75,95,117,136,155,176,197,217,237,257,276,296,316,336,357,376,396,416,437,456,476,495,515,535,555,575,595,617,635,655,675,695,716,735,755,775,796,817,835,856,875,895,916,935,955,975,996,1016,1035,1056,1075,1095,1117,1135,1155,1177,1196,1215,1235,1255,1275,1295,1315,1335,1357,1376,1397,1416,1435,1456,1475,1497,1517,1536,1555,1576,1596],"xSR":624.5,"ySR":395.2,"xT1":354.7,"yT1":0,"xT2":894.3,"yT2":0,"toosoon":0,"cond_shown":"Incongruent","ratio_trial":200,"L_num":7,"L_den":10,"R_num":14,"R_den":28,"correct_side":1,"subjID":"analopez","gender":"1","school":"6","age":"11"},{"start_time":1551794290007,"click_time":1551794291560,"finger_time":1551794291100,"fix_duration":1085.4147007422266,"trial":32,"RT":1093,"MT":460,"sideResp":2,"stimulus":[],"xmouse":[669,669,669,669,669,669,669,669,669,669,669,669,669,669,669,669,669,669,669,669,669,669,669,669,669,669,669,669,669,669,669,669,669,669,669,669,669,669,669,669,669,669,669,669,669,669,669,669,669,669,669,669,673,693,762,790,841,886,890,892,893,896,899,901,906,907,909,910,910,910,910,910,910,910,910,909,908,905],"ymouse":[456,456,456,456,456,456,456,456,456,456,456,456,456,456,456,456,456,456,456,456,456,456,456,456,456,456,456,456,456,456,456,456,456,456,456,456,456,456,456,456,456,456,456,456,456,456,456,456,456,456,456,456,456,452,423,404,349,256,219,211,201,189,179,175,165,160,152,146,146,146,146,146,146,142,132,116,107,86],"timestamp_mouse":[12,33,52,72,93,112,132,152,173,192,212,233,252,273,293,313,334,352,373,393,412,433,453,473,492,512,532,553,572,592,612,632,653,672,692,712,732,752,774,793,813,833,852,872,893,913,934,952,973,992,1012,1032,1053,1073,1093,1112,1133,1152,1173,1194,1212,1233,1252,1272,1292,1312,1332,1352,1373,1392,1413,1433,1453,1473,1492,1512,1533,1553],"xSR":624.5,"ySR":395.2,"xT1":354.7,"yT1":0,"xT2":894.3,"yT2":0,"toosoon":0,"cond_shown":"Incongruent","ratio_trial":200,"L_num":14,"L_den":30,"R_num":12,"R_den":18,"correct_side":2,"subjID":"analopez","gender":"1","school":"6","age":"11"},{"start_time":1551794299209,"click_time":1551794300659,"finger_time":1551794299239,"fix_duration":469.4963330235038,"trial":33,"RT":30,"MT":1420,"sideResp":2,"stimulus":[],"xmouse":[661,657,657,657,656,656,656,656,656,654,654,653,651,649,643,642,642,640,640,640,640,640,640,643,655,676,679,680,680,680,673,665,662,660,658,658,658,658,658,658,658,658,658,658,658,658,658,659,659,659,661,666,681,692,722,775,797,804,816,823,838,848,851,852,855,855,860,861,864,866,878,905],"ymouse":[321,296,292,286,283,282,281,280,280,276,275,274,273,271,267,266,266,266,266,266,266,266,266,271,289,319,324,330,332,333,357,378,385,392,395,397,398,398,398,398,400,401,401,405,407,413,414,415,415,415,415,414,398,379,328,242,200,183,155,142,113,94,88,85,77,76,69,67,65,64,61,58],"timestamp_mouse":[30,50,70,90,111,130,150,171,190,210,230,251,272,290,310,330,350,370,390,411,431,450,470,490,512,530,550,571,590,610,631,651,670,690,711,731,750,771,790,810,832,852,870,890,911,931,950,970,990,1010,1030,1050,1071,1092,1110,1131,1150,1170,1190,1211,1230,1250,1270,1290,1311,1331,1352,1370,1391,1411,1430,1450],"xSR":624.5,"ySR":395.2,"xT1":354.7,"yT1":0,"xT2":894.3,"yT2":0,"toosoon":0,"cond_shown":"Incongruent","ratio_trial":100,"L_num":4,"L_den":8,"R_num":8,"R_den":20,"correct_side":1,"subjID":"analopez","gender":"1","school":"6","age":"11"},{"start_time":1551794301939,"click_time":1551794303360,"finger_time":1551794302799,"fix_duration":258.95214753320374,"trial":34,"RT":860,"MT":561,"sideResp":2,"stimulus":[],"xmouse":[664,664,664,664,664,664,664,664,664,664,664,664,664,664,664,664,664,664,664,664,664,664,664,664,664,664,664,662,658,657,657,657,657,657,657,657,657,657,655,655,654,654,653,653,653,654,663,670,704,713,728,735,749,767,781,788,796,801,811,831,846,850,866,885,892,895,898,901,903,904,907,909],"ymouse":[431,431,431,431,431,431,431,431,431,431,431,431,431,431,431,431,431,431,431,431,431,431,431,431,431,431,430,428,424,423,423,423,423,423,423,423,423,423,416,413,407,404,397,388,382,378,363,354,313,303,285,277,256,230,215,209,200,196,185,168,157,152,140,125,119,116,114,110,107,106,100,98],"timestamp_mouse":[8,20,41,60,81,100,120,140,160,180,200,222,240,260,281,301,321,340,360,380,402,421,441,461,480,501,521,541,561,581,601,620,640,660,680,700,720,740,761,780,800,820,841,860,880,901,921,940,960,980,1000,1021,1040,1061,1080,1101,1120,1140,1160,1180,1200,1220,1240,1260,1280,1300,1320,1340,1361,1380,1400,1420],"xSR":624.5,"ySR":395.2,"xT1":354.7,"yT1":0,"xT2":894.3,"yT2":0,"toosoon":0,"cond_shown":"Incongruent","ratio_trial":300,"L_num":4,"L_den":20,"R_num":2,"R_den":4,"correct_side":2,"subjID":"analopez","gender":"1","school":"6","age":"11"},{"start_time":1551794306462,"click_time":1551794307959,"finger_time":1551794307460,"fix_duration":641.6492773135799,"trial":35,"RT":998,"MT":499,"sideResp":2,"stimulus":[],"xmouse":[671,671,671,671,671,671,671,671,671,671,671,671,671,671,671,671,671,671,671,671,671,671,671,671,671,671,671,671,671,671,671,671,671,671,671,671,671,671,671,671,671,671,671,671,671,671,671,680,693,731,771,812,819,830,839,843,854,861,864,869,872,873,877,878,880,880,883,884,885,886,888,890,891,893,895],"ymouse":[440,440,440,440,440,440,440,440,440,440,440,440,440,440,440,440,440,440,440,440,440,440,440,440,440,440,440,440,440,440,440,440,440,440,440,440,440,440,440,440,440,440,440,440,440,440,440,436,421,373,325,262,249,225,198,188,161,145,138,129,121,119,112,110,107,106,100,95,90,87,82,77,75,73,71],"timestamp_mouse":[26,37,58,77,98,118,137,158,178,197,217,237,258,278,297,317,338,357,377,397,418,438,459,477,497,517,538,558,578,598,617,637,657,677,697,718,738,758,778,799,817,837,857,877,897,917,937,958,977,998,1018,1037,1058,1078,1097,1117,1137,1157,1177,1199,1218,1237,1257,1277,1297,1318,1338,1357,1378,1398,1417,1437,1457,1479,1497],"xSR":624.5,"ySR":395.2,"xT1":354.7,"yT1":0,"xT2":894.3,"yT2":0,"toosoon":0,"cond_shown":"Congruent","ratio_trial":100,"L_num":7,"L_den":14,"R_num":9,"R_den":15,"correct_side":2,"subjID":"analopez","gender":"1","school":"6","age":"11"},{"start_time":1551794310087,"click_time":1551794311399,"finger_time":1551794311160,"fix_duration":1365.8552296260752,"trial":36,"RT":1073,"MT":239,"sideResp":2,"stimulus":[],"xmouse":[684,684,684,684,683,683,683,683,683,683,683,683,683,683,683,683,683,683,683,683,683,683,683,683,683,683,683,683,683,683,683,683,683,683,683,683,683,683,683,683,683,683,683,683,683,683,683,683,683,683,683,683,692,714,764,791,797,811,818,837,848,861,868,880,896,901],"ymouse":[437,437,437,437,438,438,438,438,438,438,438,438,438,438,438,438,438,438,438,438,438,438,438,438,438,438,438,438,438,438,438,438,438,438,438,438,438,438,438,438,438,438,438,438,438,438,438,438,438,438,438,438,424,384,294,246,231,207,196,165,151,136,131,121,104,98],"timestamp_mouse":[12,33,52,72,92,112,132,153,173,193,212,232,252,272,292,313,332,352,373,393,412,433,452,472,493,513,532,552,573,592,612,632,652,672,692,712,732,752,772,792,813,832,852,872,893,912,932,953,973,992,1012,1033,1053,1073,1092,1112,1132,1152,1172,1192,1213,1232,1252,1272,1293,1312],"xSR":624.5,"ySR":395.2,"xT1":354.7,"yT1":0,"xT2":894.3,"yT2":0,"toosoon":0,"cond_shown":"Incongruent","ratio_trial":300,"L_num":1,"L_den":2,"R_num":2,"R_den":10,"correct_side":1,"subjID":"analopez","gender":"1","school":"6","age":"11"},{"start_time":1551794313555,"click_time":1551794315320,"finger_time":1551794314620,"fix_duration":1235.805154618859,"trial":37,"RT":1065,"MT":700,"sideResp":1,"stimulus":[],"xmouse":[657,657,657,657,657,657,657,657,657,657,657,657,657,657,657,657,657,657,657,657,657,657,656,656,656,656,656,656,656,656,656,656,656,656,656,656,656,656,656,656,656,656,656,656,656,656,656,656,656,656,655,640,628,606,599,590,586,566,549,507,458,439,436,437,442,450,452,454,458,461,466,468,469,469,469,469,469,469,468,468,463,459,458,458,458,457,457,455,451],"ymouse":[470,470,470,470,470,470,470,470,470,470,470,470,470,470,470,470,470,470,470,470,470,470,470,470,470,470,470,470,470,470,470,470,470,470,470,470,470,470,470,470,470,470,470,470,470,470,470,470,470,470,470,451,434,408,401,388,378,339,315,264,208,185,177,163,150,130,125,114,105,98,80,74,70,70,69,69,69,69,69,69,69,69,69,69,69,69,69,70,71],"timestamp_mouse":[11,26,44,64,84,104,124,144,164,184,204,224,245,265,284,305,324,344,364,384,404,424,444,465,485,504,524,546,564,584,604,624,644,664,684,704,724,744,764,784,804,826,845,864,884,905,924,945,966,986,1004,1024,1045,1065,1085,1104,1125,1144,1164,1185,1204,1225,1244,1265,1286,1304,1325,1345,1365,1384,1404,1425,1446,1465,1484,1505,1525,1544,1564,1584,1604,1624,1644,1664,1684,1705,1725,1745,1765],"xSR":624.5,"ySR":395.2,"xT1":354.7,"yT1":0,"xT2":894.3,"yT2":0,"toosoon":0,"cond_shown":"Congruent","ratio_trial":100,"L_num":6,"L_den":20,"R_num":5,"R_den":25,"correct_side":1,"subjID":"analopez","gender":"1","school":"6","age":"11"},{"start_time":1551794316490,"click_time":1551794317499,"finger_time":1551794317239,"fix_duration":250,"trial":38,"RT":749,"MT":260,"sideResp":2,"stimulus":[],"xmouse":[669,669,669,669,669,669,669,669,669,669,669,669,669,669,669,669,669,669,669,669,669,669,669,669,669,669,669,669,669,669,669,669,669,679,685,702,708,726,757,769,809,822,844,852,868,880,890,893,898,900,902],"ymouse":[441,441,441,441,441,441,441,441,441,441,441,441,441,441,441,441,441,441,441,441,441,441,441,441,441,441,441,441,441,441,441,441,441,436,430,415,408,382,343,322,268,249,216,201,174,145,124,116,104,101,95],"timestamp_mouse":[21,33,50,70,89,109,129,149,169,189,210,230,249,270,290,310,329,349,370,389,409,429,449,470,489,511,530,551,570,589,609,629,649,669,689,710,730,749,769,790,809,829,849,869,889,909,929,950,969,990,1009],"xSR":624.5,"ySR":395.2,"xT1":354.7,"yT1":0,"xT2":894.3,"yT2":0,"toosoon":0,"cond_shown":"Incongruent","ratio_trial":300,"L_num":13,"L_den":26,"R_num":12,"R_den":15,"correct_side":2,"subjID":"analopez","gender":"1","school":"6","age":"11"},{"start_time":1551794319882,"click_time":1551794321141,"finger_time":1551794320500,"fix_duration":1481.7948161306929,"trial":39,"RT":618,"MT":641,"sideResp":2,"stimulus":[],"xmouse":[664,664,664,664,664,664,664,664,664,664,664,664,664,664,664,664,664,664,664,664,664,664,664,664,664,664,664,664,664,636,583,557,526,523,523,523,523,528,565,605,626,672,726,751,800,820,832,840,856,885,899,904,905,905,906,907,909,910,912,914,915,915,916],"ymouse":[482,482,482,482,482,482,482,482,482,482,482,482,482,482,482,482,482,482,482,482,482,482,482,482,482,482,482,482,482,471,448,436,422,420,420,420,419,413,386,364,350,324,286,268,230,216,205,196,180,152,139,134,131,131,128,126,122,118,113,105,102,101,98],"timestamp_mouse":[19,39,59,79,99,119,138,158,177,198,217,237,259,277,297,317,337,357,377,397,417,437,457,477,497,517,537,557,577,597,618,638,657,678,697,717,738,758,778,797,817,837,857,878,897,917,937,958,978,999,1018,1038,1058,1078,1097,1118,1138,1159,1177,1198,1217,1237,1259],"xSR":624.5,"ySR":395.2,"xT1":354.7,"yT1":0,"xT2":894.3,"yT2":0,"toosoon":0,"cond_shown":"Incongruent","ratio_trial":100,"L_num":6,"L_den":10,"R_num":7,"R_den":14,"correct_side":1,"subjID":"analopez","gender":"1","school":"6","age":"11"},{"start_time":1551794323204,"click_time":1551794404784,"finger_time":1551794323239,"fix_duration":1302.9721169027523,"trial":40,"RT":35,"MT":81545,"sideResp":1,"stimulus":[],"xmouse":[624,619,614,612,610,606,595,590,581,575,575,575,575,575,575,575,575,575,572,564,499,470,426,418,414,414,421,427,449,468,515,531,555,568,570,572,572,572,572,574,599,609,620,625,626,626,628,629,630,643,669,677,678,678,678,678,678,678,678,678,678,678,678,678,678,678,678,678,678,678,678,678,678,678,678,678,678,678,678,678,678,678,678,678,678,678,678,678,678,678,678,678,678,678,678,678,678,678,678,678,678,678,678,678,678,678,678,678,678,678,678,678,678,678,678,678,678,678,678,678,678,678,678,678,678,678,678,678,678,678,678,678,678,678,678,678,678,678,678,678,678,678,678,678,678,678,678,678,678,678,678,678,678,678,678,678,678,678,678,678,678,678,678,678,678,678,678,678,678,678,678,678,678,678,678,678,678,678,678,678,678,678,678,678,678,678,678,678,678,678,678,678,678,678,678,678,678,678,678,678,678,678,678,678,678,678,678,678,678,678,678,678,678,678,678,678,678,678,678,678,678,678,678,678,678,678,678,678,678,678,678,678,678,678,678,678,678,678,678,678,678,678,678,678,678,678,678,678,678,678,678,678,678,678,678,678,678,678,678,678,678,678,678,678,678,678,678,678,678,678,678,678,678,678,678,678,678,678,678,678,678,678,678,678,678,678,678,678,678,678,678,678,678,678,678,678,678,678,678,678,678,678,678,678,678,678,678,678,678,678,678,678,678,678,678,678,678,678,678,678,678,678,678,678,678,678,678,678,678,678,678,678,678,678,678,678,678,678,678,678,678,678,678,678,678,678,678,678,678,678,678,678,678,678,678,678,678,678,678,678,678,678,678,678,678,678,678,678,678,678,678,678,678,678,678,678,678,678,678,678,678,678,678,678,678,678,678,678,678,678,678,678,678,678,678,678,678,678,678,678,678,678,678,678,678,678,678,678,678,678,678,678,678,678,678,678,678,678,678,678,678,678,678,678,678,678,678,678,678,678,678,678,678,678,678,678,678,678,678,678,678,678,678,678,678,678,678,678,678,678,678,678,678,678,678,678,678,678,678,678,678,678,678,678,678,678,678,678,678,678,678,678,678,678,678,678,678,678,678,678,678,678,678,678,678,678,678,678,678,678,678,678,678,678,678,678,678,678,678,678,678,678,678,678,678,678,678,678,678,678,678,678,678,678,678,678,678,678,678,678,678,678,678,678,678,678,678,678,678,678,678,678,678,678,678,678,678,678,678,678,678,678,678,678,678,678,678,678,678,678,678,678,678,678,678,678,678,678,678,678,678,678,678,678,678,678,678,678,678,678,678,678,678,678,678,678,678,678,678,678,678,678,678,678,678,678,678,678,678,678,678,678,678,678,678,678,678,678,678,678,678,678,678,678,678,678,678,678,678,678,678,678,678,678,678,678,678,678,678,678,678,678,678,678,678,678,678,678,678,678,678,678,678,678,678,678,678,678,678,678,678,678,678,678,678,678,678,678,678,678,678,678,678,678,678,678,678,678,678,678,678,678,678,678,678,678,678,678,678,678,678,678,678,678,678,678,678,678,678,678,678,678,678,678,678,678,678,678,678,678,678,678,678,678,678,678,678,678,678,678,678,678,678,678,678,678,678,678,678,678,678,678,678,678,678,678,678,678,678,678,678,678,678,678,678,678,678,678,678,678,678,678,678,678,678,678,678,678,678,678,678,678,678,678,678,678,678,678,678,678,678,678,678,678,678,678,678,678,678,678,678,678,678,678,678,678,678,678,678,678,678,678,678,678,678,678,678,678,678,678,678,678,678,678,678,678,678,678,678,678,678,678,678,678,678,678,678,678,678,678,678,678,678,678,678,678,678,678,678,678,678,678,678,678,678,678,678,678,678,678,678,678,678,678,678,678,678,678,678,678,678,678,678,678,678,678,678,678,678,678,678,678,678,678,678,678,678,678,678,678,678,678,678,678,678,678,678,678,678,678,678,678,678,678,678,678,678,678,678,678,678,678,678,678,678,678,678,678,678,678,678,678,678,678,678,678,678,678,678,678,678,678,678,678,678,678,678,678,678,678,678,678,678,678,678,678,678,678,678,678,678,678,678,678,678,678,678,678,678,678,678,678,678,678,678,678,678,678,678,678,678,678,678,678,678,678,678,678,678,678,678,678,678,678,678,678,678,678,678,678,678,678,678,678,678,678,678,678,678,678,678,678,678,678,678,678,678,678,678,678,678,678,678,678,678,678,678,678,678,678,678,678,678,678,678,678,678,678,678,678,678,678,678,678,678,678,678,678,678,678,678,678,678,678,678,678,678,678,678,678,678,678,678,678,678,678,678,678,678,678,678,678,678,678,678,678,678,678,678,678,678,678,678,678,678,678,678,678,678,678,678,678,678,678,678,678,678,678,678,678,678,678,678,678,678,678,678,678,678,678,678,678,678,678,678,678,678,678,678,678,678,678,678,678,678,678,678,678,678,678,678,678,678,678,678,678,678,678,678,678,678,678,678,678,678,678,678,678,678,678,678,678,678,678,678,678,678,678,678,678,678,678,678,678,678,678,678,678,678,678,678,678,678,678,678,678,678,678,678,678,678,678,678,678,678,678,678,678,678,678,678,678,678,678,678,678,678,678,678,678,678,678,678,678,678,678,678,678,678,678,678,678,678,678,678,678,678,678,678,678,678,678,678,678,678,678,678,678,678,678,678,678,678,678,678,678,678,678,678,678,678,678,678,678,678,678,678,678,678,678,678,678,678,678,678,678,678,678,678,678,678,678,678,678,678,678,678,678,678,678,678,678,678,678,678,678,678,678,678,678,678,678,678,678,678,678,678,678,678,678,678,678,678,678,678,678,678,678,678,678,678,678,678,678,678,678,678,678,678,678,678,678,678,678,678,678,678,678,678,678,678,678,678,678,678,678,678,678,678,678,678,678,678,678,678,678,678,678,678,678,678,678,678,678,678,678,678,678,678,678,678,678,678,678,678,678,678,678,678,678,678,678,678,678,678,678,678,678,678,678,678,678,678,678,678,678,678,678,678,678,678,678,678,678,678,678,678,678,678,678,678,678,678,678,678,678,678,678,678,678,678,678,678,678,678,678,678,678,678,678,678,678,678,678,678,678,678,678,678,678,678,678,678,678,678,678,678,678,678,678,678,678,678,678,678,678,678,678,678,678,678,678,678,678,678,678,678,678,678,678,678,678,678,678,678,678,678,678,678,678,678,678,678,678,678,678,678,678,678,678,678,678,678,678,678,678,678,678,678,678,678,678,678,678,678,678,678,678,678,678,678,678,678,678,678,678,678,678,678,678,678,678,678,678,678,678,678,678,678,678,678,678,678,678,678,678,678,678,678,678,678,678,678,678,678,678,678,678,678,678,678,678,678,678,678,678,678,678,678,678,678,678,678,678,678,678,678,678,678,678,678,678,678,678,678,678,678,678,678,678,678,678,678,678,678,678,678,678,678,678,678,678,678,678,678,678,678,678,678,678,678,678,678,678,678,678,678,678,678,678,678,678,678,678,678,678,678,678,678,678,678,678,678,678,678,678,678,678,678,678,678,678,678,678,678,678,678,678,678,678,678,678,678,678,678,678,678,678,678,678,678,678,678,678,678,678,678,678,678,678,678,678,678,678,678,678,678,678,678,678,678,678,678,678,678,678,678,678,678,678,678,678,678,678,678,678,678,678,678,678,678,678,678,678,678,678,678,678,678,678,678,678,678,678,678,678,678,678,678,678,678,678,678,678,678,678,678,678,678,678,678,678,678,678,678,678,678,678,678,678,678,678,678,678,678,678,678,678,678,678,678,678,678,678,678,678,678,678,678,678,678,678,678,678,678,678,678,678,678,678,678,678,678,678,678,678,678,678,678,678,678,678,678,678,678,678,678,678,678,678,678,678,678,678,678,678,678,678,678,678,678,678,678,678,678,678,678,678,678,678,678,678,678,678,678,678,678,678,678,678,678,678,678,678,678,678,678,678,678,678,678,678,678,678,678,678,678,678,678,678,678,678,678,678,678,678,678,678,678,678,678,678,678,678,678,678,678,678,678,678,678,678,678,678,678,678,678,678,678,678,678,678,678,678,678,678,678,678,678,678,678,678,678,678,678,678,678,678,678,678,678,678,678,678,678,678,678,678,678,678,678,678,678,678,678,678,678,678,678,678,678,678,678,678,678,678,678,678,678,678,678,678,678,678,678,678,678,678,678,678,678,678,678,678,678,678,678,678,678,678,678,678,678,678,678,678,678,678,678,678,678,678,678,678,678,678,678,678,678,678,678,678,678,678,678,678,678,678,678,678,678,678,678,678,678,678,678,678,678,678,678,678,678,678,678,678,678,678,678,678,678,678,678,678,678,678,678,678,678,678,678,678,678,678,678,678,678,678,678,678,678,678,678,678,678,678,678,678,678,678,678,678,678,678,678,678,678,678,678,678,678,678,678,678,678,678,678,678,678,678,678,678,678,678,678,678,678,678,678,678,678,678,678,678,678,678,678,678,678,678,678,678,678,678,678,678,678,678,678,678,678,678,678,678,678,678,678,678,678,678,678,678,678,678,678,678,678,678,678,678,678,678,678,678,678,678,678,678,678,678,678,678,678,678,678,678,678,678,678,678,678,678,678,678,678,678,678,678,678,678,678,678,678,678,678,678,678,678,678,678,678,678,678,678,678,678,678,678,678,678,678,678,678,678,678,678,678,678,678,678,678,678,678,678,678,678,678,678,678,678,678,678,678,678,678,678,678,678,678,678,678,678,678,678,678,678,678,678,678,678,678,678,678,678,678,678,678,678,678,678,678,678,678,678,678,678,678,678,678,678,678,678,678,678,678,678,678,678,678,678,678,678,678,678,678,678,678,678,678,678,678,678,678,678,678,678,678,678,678,678,678,678,678,678,678,678,678,678,678,678,678,678,678,678,678,678,678,678,678,678,678,678,678,678,678,678,678,678,678,678,678,678,678,678,678,678,678,678,678,678,678,678,678,678,678,678,678,678,678,678,678,678,678,678,678,678,678,678,678,678,678,678,678,678,678,678,678,678,678,678,678,678,678,678,678,678,678,678,678,678,678,678,678,678,678,678,678,678,678,678,678,678,678,678,678,678,678,678,678,678,678,678,678,678,678,678,678,678,678,678,678,678,678,678,678,678,678,678,678,678,678,678,678,678,678,678,678,678,678,678,678,678,678,678,678,678,678,678,678,678,678,678,678,678,678,678,678,678,678,678,678,678,678,678,678,678,678,678,678,678,678,678,678,678,678,678,678,678,678,678,678,678,678,678,678,678,678,678,678,678,678,678,678,678,678,678,678,678,678,678,678,678,678,678,678,678,678,678,678,678,678,678,678,678,678,678,678,678,678,678,678,678,678,678,678,678,678,678,678,678,678,678,678,678,678,678,678,678,678,678,678,678,678,678,678,678,678,678,678,678,678,678,678,678,678,678,678,678,678,678,678,678,678,678,678,678,678,678,678,678,678,678,678,678,678,678,678,678,678,678,678,678,678,678,678,678,678,678,678,678,678,678,678,678,678,678,678,678,678,678,678,678,678,678,678,678,678,678,678,678,678,678,678,678,678,678,678,678,678,678,678,678,678,678,678,678,678,678,678,678,678,678,678,678,678,678,678,678,678,678,678,678,678,678,678,678,678,678,678,678,678,678,678,678,678,678,678,678,678,678,678,678,678,678,678,678,678,678,678,678,678,678,678,678,678,678,678,678,678,678,678,678,678,678,678,678,678,678,678,678,678,678,678,678,678,678,678,678,678,678,678,678,678,678,678,678,678,678,678,678,678,678,678,678,678,678,678,678,678,678,678,678,678,678,678,678,678,678,678,678,678,678,678,678,678,678,678,678,678,678,678,678,678,678,678,678,678,678,678,678,678,678,678,678,678,678,678,678,678,678,678,678,678,678,678,678,678,678,678,678,678,678,678,678,678,678,678,678,678,678,678,678,678,678,678,678,678,678,678,678,678,678,678,678,678,678,678,678,678,678,678,678,678,678,678,678,678,678,678,678,678,678,678,678,678,678,678,678,678,678,678,678,678,678,678,678,678,678,678,678,678,678,678,678,678,678,678,678,678,678,678,678,678,678,678,678,678,678,678,678,678,678,678,678,678,678,678,678,678,678,678,678,678,678,678,678,678,678,678,678,678,678,678,678,678,678,678,678,678,678,678,678,678,678,678,678,678,678,678,678,678,678,678,678,678,678,678,678,678,678,678,678,678,678,678,678,678,678,678,678,678,678,678,678,678,678,678,678,678,678,678,678,678,678,678,678,678,678,678,678,678,678,678,678,678,678,678,678,678,678,678,678,678,678,678,678,678,678,678,678,678,678,678,678,678,678,678,678,678,678,678,678,678,678,678,678,678,678,678,678,678,678,678,678,678,678,678,678,678,678,678,678,678,678,678,678,678,678,678,678,678,678,678,678,678,678,678,678,678,678,678,678,678,678,678,678,678,678,678,678,678,678,678,678,678,678,678,678,678,678,678,678,678,678,678,678,678,678,678,678,678,678,678,678,678,678,678,678,678,678,678,678,678,678,678,678,678,678,678,678,678,678,678,678,678,678,678,678,678,678,678,678,678,678,678,678,678,678,678,678,678,678,678,678,678,678,678,678,678,678,678,678,678,678,678,678,678,678,678,678,678,678,678,678,678,678,678,678,678,678,678,678,678,678,678,678,678,678,678,678,678,678,678,678,678,678,678,678,678,678,678,678,678,678,678,678,678,678,678,678,678,678,678,678,678,678,678,678,678,678,678,678,678,678,678,678,678,678,678,678,678,678,678,678,678,678,678,678,678,678,678,678,678,678,678,678,678,678,678,678,678,678,678,678,678,678,678,678,678,678,678,678,678,678,678,678,678,678,678,678,678,678,678,678,678,678,678,678,678,678,678,678,678,678,678,678,678,678,678,678,678,678,678,678,678,678,678,678,678,678,678,678,678,678,678,678,678,678,678,678,678,678,678,678,678,678,678,678,678,678,678,678,678,678,678,678,678,678,678,678,678,678,678,678,678,678,678,678,678,678,678,678,678,678,678,678,678,678,678,678,678,678,678,678,678,678,678,678,678,678,678,678,678,678,678,678,678,678,678,678,678,678,678,678,678,678,678,678,678,678,678,678,678,678,678,678,678,678,678,678,678,678,678,678,678,678,678,678,678,678,678,678,678,678,678,678,678,678,678,678,678,678,678,678,678,678,678,678,678,678,678,678,678,678,678,678,678,678,678,678,678,678,678,678,678,678,678,678,678,678,678,678,678,678,678,678,678,678,678,678,678,678,678,678,678,678,678,678,678,678,678,678,678,678,678,678,678,678,678,678,678,678,678,678,678,678,678,678,678,678,678,678,678,678,678,678,678,678,678,678,678,678,678,678,678,678,678,678,678,678,678,678,678,678,678,678,678,678,678,678,678,678,678,678,678,678,678,678,678,678,678,678,678,678,678,678,678,678,678,678,678,678,678,678,678,678,678,678,678,678,678,678,678,678,678,678,678,678,678,678,678,678,678,678,678,678,678,678,678,678,678,678,678,678,678,678,678,678,678,678,678,678,678,678,678,678,678,678,678,678,678,678,678,678,678,678,678,678,678,678,678,678,678,678,678,678,678,678,678,678,678,678,678,678,678,678,678,678,678,678,678,678,678,678,678,678,678,678,678,678,678,678,678,678,678,678,678,678,678,678,678,678,678,678,678,678,678,678,678,678,678,678,678,678,678,678,678,678,678,678,678,678,678,678,678,678,678,678,678,678,678,678,678,678,678,678,678,678,678,678,678,678,678,678,678,678,678,678,678,678,678,678,678,678,678,678,678,678,678,678,678,678,678,678,678,678,678,678,678,678,678,678,678,678,678,678,678,678,678,678,678,678,678,678,678,678,678,678,678,678,678,678,678,678,678,678,678,678,678,678,678,678,678,678,678,678,678,678,678,678,678,678,678,678,678,678,678,678,678,678,678,678,678,678,678,678,678,678,678,678,678,678,678,678,678,678,678,678,678,678,678,678,678,678,678,678,678,678,678,678,678,678,678,678,678,678,678,678,678,678,678,678,678,678,678,678,678,678,678,678,678,678,678,678,678,678,678,678,678,678,678,678,678,678,678,678,678,678,678,678,678,678,678,678,678,678,678,678,678,678,678,678,678,678,678,678,678,678,678,678,678,678,678,678,678,678,678,678,678,678,678,678,678,678,678,678,678,678,678,678,678,678,678,678,678,678,678,678,678,678,678,678,678,678,678,678,678,678,678,678,678,678,678,678,678,678,678,678,678,678,678,678,678,678,678,678,678,678,678,678,678,678,678,678,678,678,678,678,678,678,678,