[{"start_time":1551794701170,"click_time":1551794703178,"finger_time":1551794702780,"fix_duration":327.8502498070336,"trial":0,"RT":1610,"MT":398,"sideResp":2,"stimulus":"img/750/randomdotsizeEA/R/15_Ratio_750_L_9_R_12.png","xmouse":[792,792,792,792,792,792,792,792,792,792,792,792,792,792,792,792,792,792,792,792,792,792,792,792,792,792,792,792,792,792,792,792,792,792,792,792,792,792,792,792,792,792,792,792,792,792,792,792,792,792,792,792,792,792,792,792,792,792,792,792,792,792,792,792,792,792,792,792,792,792,792,792,792,792,792,792,793,797,827,848,873,895,912,931,937,947,960,978,1001,1046,1057,1064,1068,1070,1077,1082,1086,1092,1098,1102],"ymouse":[543,543,543,543,543,543,543,543,543,543,543,543,543,543,543,543,543,543,543,543,543,543,543,543,543,543,543,543,543,543,543,543,543,543,543,543,543,543,543,543,543,543,543,543,543,543,543,543,543,543,543,543,543,543,543,543,543,543,543,543,543,543,543,543,543,543,543,543,543,543,543,543,543,543,543,543,543,539,515,497,475,453,430,389,371,349,325,298,273,227,211,195,182,171,152,139,131,120,108,99],"timestamp_mouse":[9,48,69,89,108,129,149,169,190,209,230,249,268,288,309,328,348,369,388,410,429,449,470,488,509,528,549,568,588,610,628,648,670,688,708,728,749,768,788,810,828,848,868,888,909,929,948,968,988,1009,1028,1048,1068,1089,1110,1128,1149,1169,1188,1209,1228,1248,1269,1289,1308,1328,1349,1370,1389,1409,1428,1448,1470,1489,1509,1529,1548,1568,1589,1610,1629,1650,1669,1690,1708,1728,1748,1768,1788,1808,1828,1849,1868,1889,1909,1929,1948,1969,1988,2008],"xSR":741.5,"ySR":501.8,"xT1":424.9,"yT1":0,"xT2":1058.1,"yT2":0,"toosoon":0,"cond_shown":"randomdotsizeEA","ratio_trial":750,"smaller_num":"9","larger_num":"12","correct_side":2,"subjID":"LauraSofiaRinconAriza11","gender":"1","age":"11","school":"6","test":{"fix_dur":[250,1500],"timestim":300,"targets_dim":[100,100],"targets_relative_coord":[0.3,0.7],"size_stim":[880,420],"start_dim":[100,100],"size_start":[300,300],"size_fix":60,"samplingrate":20,"img_types":["equaldotsize","equaldotanddens","randomdotsizeEA"],"ratios":[250,500,750,900],"rep_conds":9,"nTrials":120,"trials_to_rest":500,"Trials_order":[92,95,99,69,8,0,37,28,85,106,53,65,87,82,56,43,83,102,47,54,103,36,100,9,55,74,111,33,2,86,20,62,19,4,11,22,76,63,24,1,40,59,30,90,50,17,48,109,118,78,113,101,110,61,15,112,27,5,29,79,89,10,98,49,94,7,88,60,32,21,105,31,46,66,93,42,64,80,107,18,116,44,13,117,16,71,114,3,72,67,26,57,70,75,14,84,52,81,68,119,108,45,91,41,35,96,77,115,97,58,38,12,51,23,25,34,73,6,39,104],"cond_shown":["randomdotsizeEA","randomdotsizeEA","equaldotsize","equaldotsize","randomdotsizeEA","equaldotsize","equaldotanddens","equaldotanddens","equaldotanddens","equaldotanddens","randomdotsizeEA","randomdotsizeEA","equaldotsize","equaldotanddens","randomdotsizeEA","equaldotanddens","randomdotsizeEA","equaldotsize","randomdotsizeEA","equaldotsize","equaldotanddens","equaldotsize","equaldotanddens","equaldotsize","equaldotanddens","randomdotsizeEA","equaldotsize","equaldotsize","randomdotsizeEA","randomdotsizeEA","randomdotsizeEA","randomdotsizeEA","equaldotanddens","equaldotanddens","randomdotsizeEA","equaldotanddens","equaldotanddens","equaldotsize","equaldotsize","equaldotanddens","equaldotanddens","randomdotsizeEA","equaldotsize","equaldotsize","randomdotsizeEA","randomdotsizeEA","equaldotsize","equaldotanddens","equaldotanddens","equaldotsize","randomdotsizeEA","randomdotsizeEA","randomdotsizeEA","equaldotanddens","equaldotsize","equaldotanddens","equaldotsize","randomdotsizeEA","randomdotsizeEA","equaldotanddens","randomdotsizeEA","equaldotanddens","randomdotsizeEA","equaldotanddens","equaldotanddens","equaldotanddens","equaldotanddens","equaldotsize","randomdotsizeEA","equaldotsize","equaldotsize","equaldotanddens","equaldotanddens","equaldotsize","equaldotsize","equaldotsize","equaldotanddens","randomdotsizeEA","randomdotsizeEA","equaldotsize","randomdotsizeEA","randomdotsizeEA","equaldotanddens","equaldotsize","equaldotanddens","randomdotsizeEA","equaldotsize","equaldotsize","equaldotsize","equaldotanddens","randomdotsizeEA","equaldotsize","equaldotanddens","equaldotsize","randomdotsizeEA","equaldotsize","equaldotanddens","equaldotsize","randomdotsizeEA","randomdotsizeEA","equaldotsize","equaldotsize","equaldotanddens","randomdotsizeEA","randomdotsizeEA","equaldotsize","randomdotsizeEA","equaldotanddens","equaldotanddens","equaldotanddens","randomdotsizeEA","equaldotsize","equaldotsize","randomdotsizeEA","equaldotanddens","equaldotanddens","equaldotanddens","equaldotsize","equaldotsize","randomdotsizeEA"],"ratio_trial":[750,900,500,900,750,250,250,500,250,900,500,500,500,900,750,750,900,750,900,750,750,250,500,900,750,250,500,900,250,250,750,250,750,500,900,900,500,500,250,250,500,900,750,750,250,500,250,250,900,750,500,500,250,250,500,500,500,500,500,750,500,900,250,250,900,750,500,250,750,900,900,750,900,750,900,750,500,750,900,750,750,750,250,900,500,900,750,500,250,750,250,900,900,500,250,250,500,900,750,900,250,900,750,500,900,250,500,750,250,900,250,250,500,900,250,900,250,750,500,750],"smaller_num":["9","18","6","18","6","2","3","9","2","18","2","6","5","18","3","3","9","15","9","3","15","2","10","9","3","3","5","18","4","4","18","5","12","6","9","18","2","6","4","3","10","18","12","15","3","6","3","4","18","15","9","1","3","2","9","5","5","2","6","3","9","18","2","6","18","3","2","6","15","9","18","15","18","12","9","6","2","18","18","3","15","6","5","9","5","9","15","2","3","3","5","18","18","5","3","6","3","18","3","9","5","9","15","4","18","2","3","3","3","18","5","2","2","18","2","9","2","6","2","15"],"larger_num":["12","20","12","20","8","8","12","18","8","20","4","12","10","20","4","4","10","20","10","4","20","8","20","10","4","12","10","20","16","16","24","20","16","12","10","20","4","12","16","12","20","20","16","20","12","12","12","16","20","20","18","2","12","8","18","10","10","4","12","4","18","20","8","24","20","4","4","24","20","10","20","20","20","16","10","8","4","24","20","4","20","8","20","10","10","10","20","4","12","4","20","20","20","10","12","24","6","20","4","10","20","10","20","8","20","8","6","4","12","20","20","8","4","20","8","10","8","8","4","20"],"correct_side":[2,1,1,1,1,1,2,2,2,1,1,1,2,1,2,1,2,2,2,1,2,1,2,2,1,2,1,1,1,1,1,2,2,1,1,2,1,1,1,2,2,2,2,2,2,1,1,1,2,1,2,2,1,1,2,2,2,2,1,2,1,1,1,1,1,1,2,1,2,2,2,1,1,2,1,1,1,1,2,1,1,2,2,2,2,2,2,2,2,1,2,2,2,1,1,2,2,1,2,2,2,2,2,1,1,1,2,2,2,2,2,1,1,1,2,1,1,1,2,2],"img_shown":["img/750/randomdotsizeEA/R/15_Ratio_750_L_9_R_12.png","img/900/randomdotsizeEA/L/2_Ratio_900_L_20_R_18.png","img/500/equaldotsize/L/11_Ratio_500_L_12_R_6.png","img/900/equaldotsize/L/2_Ratio_900_L_20_R_18.png","img/750/randomdotsizeEA/L/14_Ratio_750_L_8_R_6.png","img/250/equaldotsize/L/1_Ratio_250_L_8_R_2.png","img/250/equaldotanddens/R/4_Ratio_250_L_3_R_12.png","img/500/equaldotanddens/R/1_Ratio_500_L_9_R_18.png","img/250/equaldotanddens/R/13_Ratio_250_L_2_R_8.png","img/900/equaldotanddens/L/4_Ratio_900_L_20_R_18.png","img/500/randomdotsizeEA/L/10_Ratio_500_L_4_R_2.png","img/500/randomdotsizeEA/L/11_Ratio_500_L_12_R_6.png","img/500/equaldotsize/R/14_Ratio_500_L_5_R_10.png","img/900/equaldotanddens/L/4_Ratio_900_L_20_R_18.png","img/750/randomdotsizeEA/R/12_Ratio_750_L_3_R_4.png","img/750/equaldotanddens/L/8_Ratio_750_L_4_R_3.png","img/900/randomdotsizeEA/R/6_Ratio_900_L_9_R_10.png","img/750/equaldotsize/R/3_Ratio_750_L_15_R_20.png","img/900/randomdotsizeEA/R/3_Ratio_900_L_9_R_10.png","img/750/equaldotsize/L/9_Ratio_750_L_4_R_3.png","img/750/equaldotanddens/R/4_Ratio_750_L_15_R_20.png","img/250/equaldotsize/L/3_Ratio_250_L_8_R_2.png","img/500/equaldotanddens/R/3_Ratio_500_L_10_R_20.png","img/900/equaldotsize/R/3_Ratio_900_L_9_R_10.png","img/750/equaldotanddens/L/9_Ratio_750_L_4_R_3.png","img/250/randomdotsizeEA/R/9_Ratio_250_L_3_R_12.png","img/500/equaldotsize/L/7_Ratio_500_L_10_R_5.png","img/900/equaldotsize/L/4_Ratio_900_L_20_R_18.png","img/250/randomdotsizeEA/L/2_Ratio_250_L_16_R_4.png","img/250/randomdotsizeEA/L/2_Ratio_250_L_16_R_4.png","img/750/randomdotsizeEA/L/6_Ratio_750_L_24_R_18.png","img/250/randomdotsizeEA/R/12_Ratio_250_L_5_R_20.png","img/750/equaldotanddens/R/11_Ratio_750_L_12_R_16.png","img/500/equaldotanddens/L/13_Ratio_500_L_12_R_6.png","img/900/randomdotsizeEA/L/1_Ratio_900_L_10_R_9.png","img/900/equaldotanddens/R/9_Ratio_900_L_18_R_20.png","img/500/equaldotanddens/L/5_Ratio_500_L_4_R_2.png","img/500/equaldotsize/L/13_Ratio_500_L_12_R_6.png","img/250/equaldotsize/L/2_Ratio_250_L_16_R_4.png","img/250/equaldotanddens/R/4_Ratio_250_L_3_R_12.png","img/500/equaldotanddens/R/3_Ratio_500_L_10_R_20.png","img/900/randomdotsizeEA/R/12_Ratio_900_L_18_R_20.png","img/750/equaldotsize/R/11_Ratio_750_L_12_R_16.png","img/750/equaldotsize/R/5_Ratio_750_L_15_R_20.png","img/250/randomdotsizeEA/R/9_Ratio_250_L_3_R_12.png","img/500/randomdotsizeEA/L/13_Ratio_500_L_12_R_6.png","img/250/equaldotsize/L/14_Ratio_250_L_12_R_3.png","img/250/equaldotanddens/L/2_Ratio_250_L_16_R_4.png","img/900/equaldotanddens/R/11_Ratio_900_L_18_R_20.png","img/750/equaldotsize/L/1_Ratio_750_L_20_R_15.png","img/500/randomdotsizeEA/R/6_Ratio_500_L_9_R_18.png","img/500/randomdotsizeEA/R/12_Ratio_500_L_1_R_2.png","img/250/randomdotsizeEA/L/14_Ratio_250_L_12_R_3.png","img/250/equaldotanddens/L/3_Ratio_250_L_8_R_2.png","img/500/equaldotsize/R/1_Ratio_500_L_9_R_18.png","img/500/equaldotanddens/R/14_Ratio_500_L_5_R_10.png","img/500/equaldotsize/R/14_Ratio_500_L_5_R_10.png","img/500/randomdotsizeEA/R/9_Ratio_500_L_2_R_4.png","img/500/randomdotsizeEA/L/11_Ratio_500_L_12_R_6.png","img/750/equaldotanddens/R/12_Ratio_750_L_3_R_4.png","img/500/randomdotsizeEA/L/4_Ratio_500_L_18_R_9.png","img/900/equaldotanddens/L/4_Ratio_900_L_20_R_18.png","img/250/randomdotsizeEA/L/1_Ratio_250_L_8_R_2.png","img/250/equaldotanddens/L/5_Ratio_250_L_24_R_6.png","img/900/equaldotanddens/L/10_Ratio_900_L_20_R_18.png","img/750/equaldotanddens/L/10_Ratio_750_L_4_R_3.png","img/500/equaldotanddens/R/9_Ratio_500_L_2_R_4.png","img/250/equaldotsize/L/5_Ratio_250_L_24_R_6.png","img/750/randomdotsizeEA/R/5_Ratio_750_L_15_R_20.png","img/900/equaldotsize/R/6_Ratio_900_L_9_R_10.png","img/900/equaldotsize/R/13_Ratio_900_L_18_R_20.png","img/750/equaldotanddens/L/1_Ratio_750_L_20_R_15.png","img/900/equaldotanddens/L/8_Ratio_900_L_20_R_18.png","img/750/equaldotsize/R/11_Ratio_750_L_12_R_16.png","img/900/equaldotsize/L/1_Ratio_900_L_10_R_9.png","img/750/equaldotsize/L/13_Ratio_750_L_8_R_6.png","img/500/equaldotanddens/L/10_Ratio_500_L_4_R_2.png","img/750/randomdotsizeEA/L/6_Ratio_750_L_24_R_18.png","img/900/randomdotsizeEA/R/14_Ratio_900_L_18_R_20.png","img/750/equaldotsize/L/9_Ratio_750_L_4_R_3.png","img/750/randomdotsizeEA/L/1_Ratio_750_L_20_R_15.png","img/750/randomdotsizeEA/R/2_Ratio_750_L_6_R_8.png","img/250/equaldotanddens/R/12_Ratio_250_L_5_R_20.png","img/900/equaldotsize/R/15_Ratio_900_L_9_R_10.png","img/500/equaldotanddens/R/14_Ratio_500_L_5_R_10.png","img/900/randomdotsizeEA/R/6_Ratio_900_L_9_R_10.png","img/750/equaldotsize/R/5_Ratio_750_L_15_R_20.png","img/500/equaldotsize/R/9_Ratio_500_L_2_R_4.png","img/250/equaldotsize/R/9_Ratio_250_L_3_R_12.png","img/750/equaldotanddens/L/10_Ratio_750_L_4_R_3.png","img/250/randomdotsizeEA/R/12_Ratio_250_L_5_R_20.png","img/900/equaldotsize/R/14_Ratio_900_L_18_R_20.png","img/900/equaldotanddens/R/13_Ratio_900_L_18_R_20.png","img/500/equaldotsize/L/7_Ratio_500_L_10_R_5.png","img/250/randomdotsizeEA/L/14_Ratio_250_L_12_R_3.png","img/250/equaldotsize/R/6_Ratio_250_L_6_R_24.png","img/500/equaldotanddens/R/2_Ratio_500_L_3_R_6.png","img/900/equaldotsize/L/2_Ratio_900_L_20_R_18.png","img/750/randomdotsizeEA/R/7_Ratio_750_L_3_R_4.png","img/900/randomdotsizeEA/R/15_Ratio_900_L_9_R_10.png","img/250/equaldotsize/R/12_Ratio_250_L_5_R_20.png","img/900/equaldotsize/R/7_Ratio_900_L_9_R_10.png","img/750/equaldotanddens/R/3_Ratio_750_L_15_R_20.png","img/500/randomdotsizeEA/L/8_Ratio_500_L_8_R_4.png","img/900/randomdotsizeEA/L/10_Ratio_900_L_20_R_18.png","img/250/equaldotsize/L/7_Ratio_250_L_8_R_2.png","img/500/randomdotsizeEA/R/2_Ratio_500_L_3_R_6.png","img/750/equaldotanddens/R/12_Ratio_750_L_3_R_4.png","img/250/equaldotanddens/R/9_Ratio_250_L_3_R_12.png","img/900/equaldotanddens/R/13_Ratio_900_L_18_R_20.png","img/250/randomdotsizeEA/R/12_Ratio_250_L_5_R_20.png","img/250/equaldotsize/L/3_Ratio_250_L_8_R_2.png","img/500/equaldotsize/L/5_Ratio_500_L_4_R_2.png","img/900/randomdotsizeEA/L/10_Ratio_900_L_20_R_18.png","img/250/equaldotanddens/R/13_Ratio_250_L_2_R_8.png","img/900/equaldotanddens/L/1_Ratio_900_L_10_R_9.png","img/250/equaldotanddens/L/3_Ratio_250_L_8_R_2.png","img/750/equaldotsize/L/14_Ratio_750_L_8_R_6.png","img/500/equaldotsize/R/9_Ratio_500_L_2_R_4.png","img/750/randomdotsizeEA/R/3_Ratio_750_L_15_R_20.png"],"Rat0":[["12_Ratio_0_L_9_R_0.png","13_Ratio_0_L_6_R_0.png","5_Ratio_0_L_2_R_0.png","6_Ratio_0_L_4_R_0.png","8_Ratio_0_L_6_R_0.png"],["1_Ratio_0_L_0_R_17.png","10_Ratio_0_L_0_R_22.png","11_Ratio_0_L_0_R_1.png","14_Ratio_0_L_0_R_24.png","15_Ratio_0_L_0_R_4.png","2_Ratio_0_L_0_R_5.png","3_Ratio_0_L_0_R_17.png","4_Ratio_0_L_0_R_7.png","7_Ratio_0_L_0_R_19.png","9_Ratio_0_L_0_R_15.png"]],"Rat250":[["1_Ratio_250_L_8_R_2.png","14_Ratio_250_L_12_R_3.png","15_Ratio_250_L_12_R_3.png","2_Ratio_250_L_16_R_4.png","3_Ratio_250_L_8_R_2.png","5_Ratio_250_L_24_R_6.png","7_Ratio_250_L_8_R_2.png"],["10_Ratio_250_L_4_R_16.png","11_Ratio_250_L_3_R_12.png","12_Ratio_250_L_5_R_20.png","13_Ratio_250_L_2_R_8.png","4_Ratio_250_L_3_R_12.png","6_Ratio_250_L_6_R_24.png","8_Ratio_250_L_1_R_4.png","9_Ratio_250_L_3_R_12.png"]],"Rat500":[["10_Ratio_500_L_4_R_2.png","11_Ratio_500_L_12_R_6.png","13_Ratio_500_L_12_R_6.png","4_Ratio_500_L_18_R_9.png","5_Ratio_500_L_4_R_2.png","7_Ratio_500_L_10_R_5.png","8_Ratio_500_L_8_R_4.png"],["1_Ratio_500_L_9_R_18.png","12_Ratio_500_L_1_R_2.png","14_Ratio_500_L_5_R_10.png","15_Ratio_500_L_1_R_2.png","2_Ratio_500_L_3_R_6.png","3_Ratio_500_L_10_R_20.png","6_Ratio_500_L_9_R_18.png","9_Ratio_500_L_2_R_4.png"]],"Rat750":[["1_Ratio_750_L_20_R_15.png","10_Ratio_750_L_4_R_3.png","13_Ratio_750_L_8_R_6.png","14_Ratio_750_L_8_R_6.png","6_Ratio_750_L_24_R_18.png","8_Ratio_750_L_4_R_3.png","9_Ratio_750_L_4_R_3.png"],["11_Ratio_750_L_12_R_16.png","12_Ratio_750_L_3_R_4.png","15_Ratio_750_L_9_R_12.png","2_Ratio_750_L_6_R_8.png","3_Ratio_750_L_15_R_20.png","4_Ratio_750_L_15_R_20.png","5_Ratio_750_L_15_R_20.png","7_Ratio_750_L_3_R_4.png"]],"Rat900":[["1_Ratio_900_L_10_R_9.png","10_Ratio_900_L_20_R_18.png","2_Ratio_900_L_20_R_18.png","4_Ratio_900_L_20_R_18.png","8_Ratio_900_L_20_R_18.png"],["11_Ratio_900_L_18_R_20.png","12_Ratio_900_L_18_R_20.png","13_Ratio_900_L_18_R_20.png","14_Ratio_900_L_18_R_20.png","15_Ratio_900_L_9_R_10.png","3_Ratio_900_L_9_R_10.png","5_Ratio_900_L_9_R_10.png","6_Ratio_900_L_9_R_10.png","7_Ratio_900_L_9_R_10.png","9_Ratio_900_L_18_R_20.png"]],"Rat1000":[["10_Ratio_1000_L_16_R_16.png","11_Ratio_1000_L_6_R_6.png","12_Ratio_1000_L_14_R_14.png","13_Ratio_1000_L_20_R_20.png","15_Ratio_1000_L_15_R_15.png","2_Ratio_1000_L_17_R_17.png","4_Ratio_1000_L_9_R_9.png","5_Ratio_1000_L_6_R_6.png","6_Ratio_1000_L_19_R_19.png","8_Ratio_1000_L_14_R_14.png","9_Ratio_1000_L_25_R_25.png"],["1_Ratio_1000_L_1_R_1.png","14_Ratio_1000_L_17_R_17.png","3_Ratio_1000_L_17_R_17.png","7_Ratio_1000_L_6_R_6.png"]]}},{"start_time":1551794708612,"click_time":1551794709839,"finger_time":1551794709398,"fix_duration":1431.5705005166674,"trial":1,"RT":786,"MT":441,"sideResp":2,"stimulus":"img/900/randomdotsizeEA/L/2_Ratio_900_L_20_R_18.png","xmouse":[797,797,797,797,797,797,797,797,797,797,797,797,797,797,797,797,797,797,797,797,797,797,797,797,797,797,797,797,797,797,797,797,797,797,797,797,797,803,821,836,857,894,940,1036,1064,1079,1086,1087,1087,1087,1087,1087,1087,1087,1087,1087,1087,1089,1090,1093,1096,1099],"ymouse":[525,525,525,525,525,525,525,525,525,525,525,525,525,525,525,525,525,525,525,525,525,525,525,525,525,525,525,525,525,525,525,525,525,525,521,520,519,508,485,467,440,397,357,287,261,239,220,194,189,184,176,169,156,151,147,143,139,126,119,111,101,90],"timestamp_mouse":[9,32,47,67,86,106,126,148,166,187,208,227,248,266,287,306,327,347,367,388,407,427,447,466,486,508,527,547,568,588,607,628,647,667,687,706,727,746,766,786,807,827,847,866,886,906,926,948,966,986,1007,1026,1047,1066,1088,1107,1126,1147,1166,1186,1207,1227],"xSR":741.5,"ySR":469.95,"xT1":424.9,"yT1":0,"xT2":1058.1,"yT2":0,"toosoon":0,"cond_shown":"randomdotsizeEA","ratio_trial":900,"smaller_num":"18","larger_num":"20","correct_side":1,"subjID":"LauraSofiaRinconAriza11","gender":"1","age":"11","school":"6"},{"start_time":1551794713646,"click_time":1551794714878,"finger_time":1551794714738,"fix_duration":865.7446760139233,"trial":2,"RT":1092,"MT":140,"sideResp":1,"stimulus":"img/500/equaldotsize/L/11_Ratio_500_L_12_R_6.png","xmouse":[795,795,795,795,795,795,795,795,795,795,796,797,797,797,797,797,797,797,797,797,797,797,797,797,797,797,797,797,797,797,797,797,797,797,797,797,797,797,797,797,797,797,797,797,797,797,797,797,797,797,797,797,798,798,795,784,747,718,686,645,601,521],"ymouse":[490,490,490,490,490,490,490,490,491,491,492,493,494,494,494,494,494,494,494,494,494,494,494,494,494,494,494,494,494,494,494,494,494,494,494,494,494,494,494,494,494,494,494,494,494,494,494,494,494,494,494,494,490,481,466,433,364,322,269,209,151,66],"timestamp_mouse":[13,35,53,73,93,112,133,154,173,192,213,232,252,273,292,313,333,352,374,392,413,432,453,472,493,512,534,552,574,592,613,632,653,672,694,713,733,753,773,792,812,832,852,872,893,914,932,952,972,994,1012,1032,1052,1072,1092,1112,1134,1152,1173,1193,1212,1232],"xSR":741.5,"ySR":469.95,"xT1":424.9,"yT1":0,"xT2":1058.1,"yT2":0,"toosoon":0,"cond_shown":"equaldotsize","ratio_trial":500,"smaller_num":"6","larger_num":"12","correct_side":1,"subjID":"LauraSofiaRinconAriza11","gender":"1","age":"11","school":"6"},{"start_time":1551794716595,"click_time":1551794717518,"finger_time":1551794717278,"fix_duration":453.12580474238763,"trial":3,"RT":683,"MT":240,"sideResp":2,"stimulus":"img/900/equaldotsize/L/2_Ratio_900_L_20_R_18.png","xmouse":[799,799,799,799,799,799,799,799,799,799,800,800,800,800,800,800,800,800,800,801,801,802,802,803,804,804,804,805,805,805,806,808,810,816,842,854,870,888,915,1020,1036,1049,1057,1060,1064,1066,1072],"ymouse":[520,520,520,520,520,520,520,520,520,520,520,520,519,519,519,518,518,517,517,515,514,513,513,511,511,510,510,510,510,509,507,506,505,500,478,458,426,378,323,171,147,129,118,112,107,104,98],"timestamp_mouse":[9,32,43,64,85,104,123,145,163,185,203,223,244,263,284,303,324,343,363,384,403,425,444,464,483,504,524,543,564,585,603,624,643,664,683,704,723,743,765,784,803,824,844,865,883,903,923],"xSR":741.5,"ySR":469.95,"xT1":424.9,"yT1":0,"xT2":1058.1,"yT2":0,"toosoon":0,"cond_shown":"equaldotsize","ratio_trial":900,"smaller_num":"18","larger_num":"20","correct_side":1,"subjID":"LauraSofiaRinconAriza11","gender":"1","age":"11","school":"6"},{"start_time":1551794719673,"click_time":1551794720798,"finger_time":1551794720559,"fix_duration":1312.035084814304,"trial":4,"RT":886,"MT":239,"sideResp":2,"stimulus":"img/750/randomdotsizeEA/L/14_Ratio_750_L_8_R_6.png","xmouse":[788,788,788,788,788,788,788,788,788,788,788,788,788,788,788,788,788,788,788,788,788,788,788,788,788,788,788,788,788,789,789,790,790,791,791,792,792,792,792,795,797,802,807,820,843,878,908,945,973,1015,1027,1038,1048,1057,1081,1090,1095],"ymouse":[510,512,512,513,513,513,513,513,513,513,513,513,513,513,513,513,513,513,513,513,513,513,513,512,512,512,512,512,512,511,511,510,509,508,507,507,507,506,506,504,504,502,500,494,480,436,396,344,301,236,216,197,179,163,124,107,92],"timestamp_mouse":[13,36,45,65,85,105,127,145,165,187,205,225,245,267,285,305,326,346,365,385,406,425,446,465,486,507,525,547,565,586,606,625,645,665,685,707,725,745,766,786,805,826,846,866,885,906,925,945,966,986,1005,1026,1046,1065,1086,1105,1125],"xSR":741.5,"ySR":469.95,"xT1":424.9,"yT1":0,"xT2":1058.1,"yT2":0,"toosoon":0,"cond_shown":"randomdotsizeEA","ratio_trial":750,"smaller_num":"6","larger_num":"8","correct_side":1,"subjID":"LauraSofiaRinconAriza11","gender":"1","age":"11","school":"6"},{"start_time":1551794721828,"click_time":1551794723198,"finger_time":1551794722798,"fix_duration":268.408968652639,"trial":5,"RT":970,"MT":400,"sideResp":1,"stimulus":"img/250/equaldotsize/L/1_Ratio_250_L_8_R_2.png","xmouse":[753,754,754,756,756,756,757,757,757,758,758,758,758,758,758,758,758,758,758,758,758,758,758,758,758,758,758,758,758,758,758,758,758,758,758,758,758,758,758,758,758,758,758,758,758,758,758,758,754,744,730,712,669,642,603,591,555,551,547,543,539,531,528,527,527,527,527,525,524],"ymouse":[496,496,496,496,496,496,496,496,496,496,496,496,495,495,495,495,495,495,495,495,495,495,495,495,495,495,495,495,495,495,495,495,495,495,495,495,495,495,495,495,495,495,495,495,495,494,484,473,456,423,369,309,200,156,113,102,77,73,71,66,61,51,49,49,49,49,49,49,49],"timestamp_mouse":[10,32,51,72,90,112,131,151,170,192,212,232,251,270,290,311,332,351,370,390,410,430,450,472,491,510,531,550,570,590,610,631,651,672,690,710,731,751,770,791,811,830,851,871,890,911,931,950,970,990,1010,1031,1050,1071,1091,1110,1131,1150,1170,1191,1211,1231,1250,1271,1291,1311,1332,1351,1370],"xSR":741.5,"ySR":469.95,"xT1":424.9,"yT1":0,"xT2":1058.1,"yT2":0,"toosoon":0,"cond_shown":"equaldotsize","ratio_trial":250,"smaller_num":"2","larger_num":"8","correct_side":1,"subjID":"LauraSofiaRinconAriza11","gender":"1","age":"11","school":"6"},{"start_time":1551794725671,"click_time":1551794726859,"finger_time":1551794726478,"fix_duration":811.068440055698,"trial":6,"RT":807,"MT":381,"sideResp":2,"stimulus":"img/250/equaldotanddens/R/4_Ratio_250_L_3_R_12.png","xmouse":[802,802,802,802,802,802,802,802,802,802,802,802,802,802,802,802,802,802,802,802,802,802,802,802,802,802,802,802,802,802,802,802,802,802,802,804,805,807,813,824,874,910,944,973,1003,1019,1020,1020,1021,1029,1036,1041,1043,1043,1043,1044,1046,1050,1053,1064],"ymouse":[509,509,509,509,509,509,509,509,509,509,509,509,509,509,509,509,509,509,509,509,509,509,508,508,508,508,508,508,508,508,508,508,508,508,508,507,504,500,492,480,428,390,350,313,256,201,183,169,161,143,131,119,110,103,96,94,92,90,87,76],"timestamp_mouse":[14,38,47,67,89,108,128,148,168,187,208,227,248,269,287,308,328,348,367,387,408,427,448,467,489,507,527,547,567,588,609,627,648,668,687,708,727,748,767,787,807,827,847,867,889,908,927,947,967,988,1008,1027,1047,1067,1088,1107,1127,1147,1168,1188],"xSR":741.5,"ySR":469.95,"xT1":424.9,"yT1":0,"xT2":1058.1,"yT2":0,"toosoon":0,"cond_shown":"equaldotanddens","ratio_trial":250,"smaller_num":"3","larger_num":"12","correct_side":2,"subjID":"LauraSofiaRinconAriza11","gender":"1","age":"11","school":"6"},{"start_time":1551794729201,"click_time":1551794730378,"finger_time":1551794729979,"fix_duration":1000.644752796934,"trial":7,"RT":778,"MT":399,"sideResp":2,"stimulus":"img/500/equaldotanddens/R/1_Ratio_500_L_9_R_18.png","xmouse":[779,779,779,779,779,779,779,779,779,779,779,779,779,779,779,779,779,779,779,779,779,779,779,779,779,779,779,779,779,779,779,779,779,779,779,783,792,806,841,861,883,928,1019,1043,1058,1068,1074,1089,1096,1103,1112,1117,1120,1120,1120,1120,1119,1119,1125],"ymouse":[519,519,519,519,519,519,519,519,519,519,519,519,519,519,519,519,519,519,519,519,519,519,519,519,519,519,519,519,519,519,519,519,519,519,519,519,512,501,464,437,410,371,305,286,273,261,250,228,215,203,187,173,150,143,138,131,123,105,81],"timestamp_mouse":[17,38,58,78,98,118,139,157,178,198,219,238,257,277,297,318,337,358,378,397,419,437,457,477,497,517,537,557,578,598,617,638,659,678,697,717,738,757,778,797,817,837,858,877,898,918,939,959,977,997,1017,1037,1058,1077,1098,1117,1137,1157,1177],"xSR":741.5,"ySR":469.95,"xT1":424.9,"yT1":0,"xT2":1058.1,"yT2":0,"toosoon":0,"cond_shown":"equaldotanddens","ratio_trial":500,"smaller_num":"9","larger_num":"18","correct_side":2,"subjID":"LauraSofiaRinconAriza11","gender":"1","age":"11","school":"6"},{"start_time":1551794732436,"click_time":1551794733478,"finger_time":1551794733160,"fix_duration":1137.598136358157,"trial":8,"RT":724,"MT":318,"sideResp":2,"stimulus":"img/250/equaldotanddens/R/13_Ratio_250_L_2_R_8.png","xmouse":[794,794,794,794,794,794,794,794,794,794,794,794,794,794,794,794,794,794,794,794,794,794,794,794,794,794,794,794,794,794,794,794,794,796,799,804,833,853,882,921,958,990,1042,1057,1070,1086,1128,1139,1145,1148,1150,1145,1142],"ymouse":[511,511,511,511,511,511,511,511,511,511,511,511,511,511,511,511,511,511,511,511,511,511,511,511,511,511,511,511,511,511,511,511,511,508,504,496,462,444,423,392,358,309,236,216,201,184,152,142,134,126,119,102,95],"timestamp_mouse":[9,22,42,63,83,102,122,142,163,182,202,224,242,262,282,302,324,343,363,382,402,424,442,463,484,502,522,543,562,582,602,623,642,662,682,703,723,742,762,783,803,824,842,862,882,902,923,942,962,982,1003,1023,1042],"xSR":741.5,"ySR":469.95,"xT1":424.9,"yT1":0,"xT2":1058.1,"yT2":0,"toosoon":0,"cond_shown":"equaldotanddens","ratio_trial":250,"smaller_num":"2","larger_num":"8","correct_side":2,"subjID":"LauraSofiaRinconAriza11","gender":"1","age":"11","school":"6"},{"start_time":1551794735643,"click_time":1551794736719,"finger_time":1551794736459,"fix_duration":581.9832168300558,"trial":9,"RT":816,"MT":260,"sideResp":1,"stimulus":"img/900/equaldotanddens/L/4_Ratio_900_L_20_R_18.png","xmouse":[803,803,803,803,803,803,803,803,804,804,804,804,804,804,804,804,804,804,804,804,804,804,804,804,804,804,804,804,804,804,804,804,805,805,805,806,806,806,806,806,792,777,754,730,706,674,647,633,616,600,573,557,540,521],"ymouse":[490,490,490,490,490,490,490,490,491,491,491,491,491,491,491,491,491,491,491,491,491,491,491,491,491,491,491,491,491,491,491,491,491,491,491,491,491,491,489,488,469,451,421,379,323,244,184,164,146,133,115,103,94,83],"timestamp_mouse":[16,36,57,75,95,116,135,157,175,195,215,236,257,275,296,316,336,356,377,397,416,436,457,476,495,516,536,555,575,597,616,635,655,677,695,716,737,755,776,795,816,835,855,875,896,915,936,955,975,995,1016,1035,1056,1076],"xSR":741.5,"ySR":469.95,"xT1":424.9,"yT1":0,"xT2":1058.1,"yT2":0,"toosoon":0,"cond_shown":"equaldotanddens","ratio_trial":900,"smaller_num":"18","larger_num":"20","correct_side":1,"subjID":"LauraSofiaRinconAriza11","gender":"1","age":"11","school":"6"},{"start_time":1551794738557,"click_time":1551794740179,"finger_time":1551794739359,"fix_duration":1038.8140195850324,"trial":10,"RT":802,"MT":820,"sideResp":1,"stimulus":"img/500/randomdotsizeEA/L/10_Ratio_500_L_4_R_2.png","xmouse":[769,769,769,769,769,769,769,769,769,769,769,769,769,772,775,776,778,779,780,780,780,780,780,780,780,780,780,780,780,780,780,780,780,780,781,785,790,796,804,812,842,857,883,905,929,949,980,991,999,1006,1014,1019,1020,1020,1020,1020,1020,1015,992,978,833,733,633,539,487,451,442,437,429,424,417,414,414,414,417,434,439,444,448,450,450,450],"ymouse":[553,553,553,553,553,553,553,553,553,553,553,553,553,551,548,547,543,541,540,539,538,538,537,536,536,536,535,535,535,535,535,535,535,534,533,525,518,509,498,486,444,421,387,359,329,307,270,254,240,227,213,203,202,201,201,201,201,201,205,208,212,212,212,205,198,188,186,183,177,173,166,162,158,153,146,126,119,112,107,103,101,96],"timestamp_mouse":[10,34,41,61,82,101,123,143,162,183,201,221,241,261,281,301,321,341,361,381,402,422,443,461,481,501,522,543,561,583,602,622,643,662,682,702,721,741,761,782,802,821,841,862,881,903,921,942,961,983,1002,1021,1041,1062,1082,1102,1121,1141,1161,1182,1202,1221,1241,1261,1281,1302,1321,1342,1362,1382,1401,1422,1442,1463,1481,1502,1521,1541,1562,1582,1602,1622],"xSR":741.5,"ySR":469.95,"xT1":424.9,"yT1":0,"xT2":1058.1,"yT2":0,"toosoon":0,"cond_shown":"randomdotsizeEA","ratio_trial":500,"smaller_num":"2","larger_num":"4","correct_side":1,"subjID":"LauraSofiaRinconAriza11","gender":"1","age":"11","school":"6"},{"start_time":1551794741936,"click_time":1551794743278,"finger_time":1551794742659,"fix_duration":635.517372586972,"trial":11,"RT":723,"MT":619,"sideResp":2,"stimulus":"img/500/randomdotsizeEA/L/11_Ratio_500_L_12_R_6.png","xmouse":[783,782,782,782,782,782,782,782,782,782,782,781,777,775,774,771,767,767,767,767,767,767,767,767,767,767,767,768,771,773,776,786,791,798,806,814,830,840,848,855,858,861,862,863,866,871,885,897,914,940,963,998,1031,1037,1039,1040,1040,1040,1040,1040,1040,1043,1046,1048,1051,1055,1058,1068],"ymouse":[530,530,530,530,530,530,530,530,530,530,530,530,530,530,530,530,532,533,533,533,533,533,533,533,533,533,533,533,533,533,531,520,512,501,488,474,447,432,421,412,406,399,394,391,389,382,364,350,333,311,293,259,219,205,193,186,180,174,171,166,157,140,111,99,88,77,69,49],"timestamp_mouse":[9,23,53,63,83,102,123,143,162,182,204,222,243,262,282,303,324,343,363,383,403,423,443,462,484,502,522,542,563,582,602,624,644,662,682,703,723,742,762,783,804,823,842,862,883,902,923,942,963,982,1003,1022,1043,1062,1083,1102,1122,1143,1163,1183,1202,1222,1243,1262,1282,1302,1322,1342],"xSR":741.5,"ySR":469.95,"xT1":424.9,"yT1":0,"xT2":1058.1,"yT2":0,"toosoon":0,"cond_shown":"randomdotsizeEA","ratio_trial":500,"smaller_num":"6","larger_num":"12","correct_side":1,"subjID":"LauraSofiaRinconAriza11","gender":"1","age":"11","school":"6"},{"start_time":1551794746033,"click_time":1551794747278,"finger_time":1551794746998,"fix_duration":394.2542154319221,"trial":12,"RT":965,"MT":280,"sideResp":2,"stimulus":"img/500/equaldotsize/R/14_Ratio_500_L_5_R_10.png","xmouse":[770,772,776,780,780,780,780,780,780,780,780,780,780,780,780,780,780,780,780,780,780,780,780,780,780,780,780,780,780,780,780,780,780,780,780,780,780,780,780,781,781,782,783,783,784,785,791,797,808,838,875,917,992,1009,1019,1023,1027,1034,1039,1043,1049,1057,1060],"ymouse":[508,508,508,509,509,509,509,509,509,509,509,509,509,509,509,509,509,509,509,509,509,509,509,509,509,509,509,509,509,509,509,509,509,509,509,509,509,509,509,509,509,505,504,502,501,499,491,483,468,436,393,345,252,225,207,193,178,158,147,138,124,97,87],"timestamp_mouse":[6,25,45,66,87,106,126,147,165,185,205,226,246,265,285,305,326,345,365,385,405,427,445,465,487,506,525,546,567,585,605,625,646,665,685,705,726,745,765,787,806,826,845,865,885,906,926,946,965,987,1005,1025,1045,1065,1086,1106,1127,1145,1165,1186,1206,1227,1245],"xSR":741.5,"ySR":469.95,"xT1":424.9,"yT1":0,"xT2":1058.1,"yT2":0,"toosoon":0,"cond_shown":"equaldotsize","ratio_trial":500,"smaller_num":"5","larger_num":"10","correct_side":2,"subjID":"LauraSofiaRinconAriza11","gender":"1","age":"11","school":"6"},{"start_time":1551794749882,"click_time":1551794751118,"finger_time":1551794750638,"fix_duration":261.35893940449984,"trial":13,"RT":756,"MT":480,"sideResp":1,"stimulus":"img/900/equaldotanddens/L/4_Ratio_900_L_20_R_18.png","xmouse":[789,789,790,790,790,790,791,791,791,791,791,791,791,791,793,793,793,794,794,794,796,796,796,796,796,796,796,796,796,796,796,796,796,797,797,797,793,785,777,738,704,682,663,649,624,612,601,593,583,580,576,572,567,560,558,558,555,554,540,532,525,519],"ymouse":[498,498,497,497,497,497,496,496,496,496,496,496,496,496,495,495,495,494,494,494,493,493,493,493,493,493,493,493,493,493,493,493,493,492,487,480,470,452,432,363,314,272,236,203,144,125,106,94,80,76,70,64,58,53,52,52,52,52,52,53,53,54],"timestamp_mouse":[20,42,57,77,97,116,138,156,176,196,217,236,256,276,296,317,336,358,378,396,417,437,456,476,498,516,537,557,577,596,616,636,656,676,696,716,737,756,776,796,816,836,857,877,896,917,938,957,977,996,1016,1036,1057,1076,1096,1116,1136,1156,1177,1196,1216,1236],"xSR":741.5,"ySR":469.95,"xT1":424.9,"yT1":0,"xT2":1058.1,"yT2":0,"toosoon":0,"cond_shown":"equaldotanddens","ratio_trial":900,"smaller_num":"18","larger_num":"20","correct_side":1,"subjID":"LauraSofiaRinconAriza11","gender":"1","age":"11","school":"6"},{"start_time":1551794753565,"click_time":1551794754978,"finger_time":1551794754578,"fix_duration":1184.124585545229,"trial":14,"RT":1013,"MT":400,"sideResp":2,"stimulus":"img/750/randomdotsizeEA/R/12_Ratio_750_L_3_R_4.png","xmouse":[807,807,807,807,807,807,807,807,807,807,807,807,807,807,807,807,807,807,807,807,806,806,806,806,806,806,806,806,806,806,806,806,806,806,806,806,806,806,806,806,806,806,806,806,807,807,807,810,812,828,842,857,870,885,912,926,942,962,985,1047,1065,1074,1080,1081,1081,1082,1083,1085,1086,1086,1086],"ymouse":[508,508,508,508,508,508,508,508,508,508,508,508,508,508,508,508,508,508,508,508,507,507,506,505,504,504,504,504,503,503,503,503,503,503,502,502,501,500,499,499,499,499,498,498,497,496,495,492,490,476,465,452,434,417,387,372,356,337,317,257,232,212,195,183,173,156,146,134,120,101,87],"timestamp_mouse":[13,43,54,73,93,113,134,155,175,193,213,235,253,273,293,313,333,353,374,393,414,433,454,473,495,514,533,554,574,594,615,633,654,673,693,713,734,753,774,793,815,834,854,874,894,913,933,953,973,994,1013,1033,1053,1073,1095,1113,1134,1153,1173,1194,1213,1233,1253,1273,1293,1313,1334,1354,1373,1394,1413],"xSR":741.5,"ySR":469.95,"xT1":424.9,"yT1":0,"xT2":1058.1,"yT2":0,"toosoon":0,"cond_shown":"randomdotsizeEA","ratio_trial":750,"smaller_num":"3","larger_num":"4","correct_side":2,"subjID":"LauraSofiaRinconAriza11","gender":"1","age":"11","school":"6"},{"start_time":1551794757133,"click_time":1551794759079,"finger_time":1551794758818,"fix_duration":1311.0577268306688,"trial":15,"RT":1685,"MT":261,"sideResp":1,"stimulus":"img/750/equaldotanddens/L/8_Ratio_750_L_4_R_3.png","xmouse":[768,768,768,768,768,768,769,769,769,771,772,772,772,772,772,772,772,772,772,772,772,772,772,772,772,772,772,772,772,772,772,772,772,772,772,772,772,772,772,772,772,772,772,772,772,772,772,772,772,772,772,772,772,772,772,772,772,772,772,772,772,772,772,772,772,772,772,772,772,772,772,772,773,774,775,776,776,776,777,777,778,778,778,772,757,737,683,659,633,599,565,530,514,511,509,508,502,498],"ymouse":[524,524,524,524,524,524,523,523,523,522,521,521,521,521,521,521,521,521,521,521,521,521,521,521,521,521,521,521,521,521,521,521,521,521,521,521,521,521,521,521,521,521,521,521,521,521,521,521,521,521,521,521,521,521,521,521,521,521,521,521,521,521,521,521,521,521,521,521,521,521,521,521,520,519,518,517,517,517,517,516,515,510,502,483,459,427,341,298,256,209,168,132,115,111,110,108,102,98],"timestamp_mouse":[8,39,46,65,86,105,126,146,165,186,207,226,246,265,286,305,326,347,365,385,406,425,446,466,486,505,526,545,565,586,606,626,645,665,686,705,725,746,766,785,805,826,845,871,885,905,926,946,966,986,1005,1025,1047,1065,1085,1106,1125,1145,1165,1186,1205,1226,1246,1265,1285,1305,1325,1346,1365,1387,1406,1425,1446,1465,1486,1506,1526,1545,1566,1585,1607,1626,1646,1665,1685,1705,1726,1745,1766,1786,1806,1825,1845,1865,1886,1906,1926,1945],"xSR":741.5,"ySR":469.95,"xT1":424.9,"yT1":0,"xT2":1058.1,"yT2":0,"toosoon":0,"cond_shown":"equaldotanddens","ratio_trial":750,"smaller_num":"3","larger_num":"4","correct_side":1,"subjID":"LauraSofiaRinconAriza11","gender":"1","age":"11","school":"6"},{"start_time":1551794761081,"click_time":1551794761798,"finger_time":1551794761699,"fix_duration":860.9536042578679,"trial":16,"RT":618,"MT":99,"sideResp":1,"stimulus":"img/900/randomdotsizeEA/R/6_Ratio_900_L_9_R_10.png","xmouse":[802,802,802,802,802,802,802,802,802,802,802,802,802,802,802,802,802,802,802,802,802,802,802,802,802,802,802,802,801,793,783,764,733,656,528,468],"ymouse":[497,497,497,497,497,497,497,497,497,497,497,497,497,497,497,497,497,497,497,497,497,497,497,497,497,497,497,496,494,478,463,438,398,292,110,33],"timestamp_mouse":[34,38,58,78,98,118,137,159,178,197,218,237,259,278,297,318,338,358,378,399,418,439,457,477,499,518,537,557,578,597,618,638,657,677,697,717],"xSR":741.5,"ySR":469.95,"xT1":424.9,"yT1":0,"xT2":1058.1,"yT2":0,"toosoon":0,"cond_shown":"randomdotsizeEA","ratio_trial":900,"smaller_num":"9","larger_num":"10","correct_side":2,"subjID":"LauraSofiaRinconAriza11","gender":"1","age":"11","school":"6"},{"start_time":1551794764410,"click_time":1551794765958,"finger_time":1551794765639,"fix_duration":250,"trial":17,"RT":1229,"MT":319,"sideResp":2,"stimulus":"img/750/equaldotsize/R/3_Ratio_750_L_15_R_20.png","xmouse":[765,765,765,765,765,765,765,765,765,765,765,765,765,765,765,765,765,765,765,765,765,765,765,765,765,765,765,765,765,765,765,765,765,765,765,765,765,765,765,765,765,765,765,765,765,765,765,765,765,765,765,765,765,765,765,765,765,766,769,777,790,810,864,886,897,907,916,928,948,961,972,985,1011,1024,1036,1046,1055,1061],"ymouse":[497,497,497,497,497,497,497,497,497,497,497,497,497,497,497,497,497,497,497,497,497,497,497,497,497,497,497,497,497,497,497,497,497,497,497,497,497,497,497,497,497,497,497,497,497,497,497,497,497,497,497,497,497,497,497,497,497,497,494,489,479,464,408,375,355,331,310,280,236,212,193,175,143,128,115,105,98,92],"timestamp_mouse":[9,33,50,69,89,109,128,148,170,189,210,229,249,270,288,308,329,348,369,388,410,429,448,470,488,509,530,550,570,589,608,628,648,669,689,710,728,749,768,790,808,828,848,868,889,910,929,949,970,988,1008,1030,1049,1068,1088,1110,1128,1148,1168,1188,1210,1229,1249,1269,1289,1309,1328,1348,1369,1388,1409,1428,1449,1469,1489,1509,1529,1548],"xSR":741.5,"ySR":469.95,"xT1":424.9,"yT1":0,"xT2":1058.1,"yT2":0,"toosoon":0,"cond_shown":"equaldotsize","ratio_trial":750,"smaller_num":"15","larger_num":"20","correct_side":2,"subjID":"LauraSofiaRinconAriza11","gender":"1","age":"11","school":"6"},{"start_time":1551794768103,"click_time":1551794769678,"finger_time":1551794769219,"fix_duration":823.2865407308764,"trial":18,"RT":1116,"MT":459,"sideResp":1,"stimulus":"img/900/randomdotsizeEA/R/3_Ratio_900_L_9_R_10.png","xmouse":[787,787,787,787,786,786,786,786,786,786,786,786,785,785,785,785,785,785,785,785,785,785,785,785,785,785,785,785,785,785,785,785,785,785,785,786,786,786,786,786,786,786,785,782,782,782,782,782,782,782,782,782,782,774,768,762,757,753,741,736,726,715,699,683,675,665,655,642,616,604,591,580,571,565,563,556,547,527,522],"ymouse":[523,523,523,523,522,522,522,522,522,522,521,521,520,519,517,517,515,515,515,515,515,515,515,515,515,515,515,515,515,515,515,515,515,512,510,509,508,508,508,506,504,503,497,491,489,488,487,486,486,486,486,486,485,477,470,461,451,433,362,319,281,250,215,178,162,146,133,120,105,100,97,93,91,90,89,89,88,84,84],"timestamp_mouse":[15,38,56,76,95,116,137,155,176,196,215,236,255,275,295,316,335,356,375,395,416,435,456,475,495,515,536,556,577,595,615,637,655,676,695,716,737,757,775,795,815,835,855,876,895,916,935,955,975,995,1015,1036,1055,1075,1095,1116,1136,1156,1175,1196,1216,1236,1255,1276,1295,1315,1336,1355,1375,1395,1415,1435,1455,1475,1495,1516,1535,1557,1575],"xSR":741.5,"ySR":469.95,"xT1":424.9,"yT1":0,"xT2":1058.1,"yT2":0,"toosoon":0,"cond_shown":"randomdotsizeEA","ratio_trial":900,"smaller_num":"9","larger_num":"10","correct_side":2,"subjID":"LauraSofiaRinconAriza11","gender":"1","age":"11","school":"6"},{"start_time":1551794773620,"click_time":1551794775300,"finger_time":1551794774819,"fix_duration":880.8360199026878,"trial":19,"RT":1199,"MT":481,"sideResp":2,"stimulus":"img/750/equaldotsize/L/9_Ratio_750_L_4_R_3.png","xmouse":[799,799,799,799,799,799,799,799,799,799,799,799,799,799,799,799,799,799,799,800,800,800,800,800,800,800,800,800,800,801,801,801,801,801,801,801,801,801,801,801,801,801,801,801,801,801,801,802,802,802,802,802,802,802,802,802,802,802,802,802,802,804,805,808,813,824,857,947,1002,1038,1055,1076,1080,1081,1081,1081,1082,1083,1083,1083,1083,1083,1084,1085],"ymouse":[483,483,483,483,483,483,483,483,483,483,483,483,483,483,483,483,483,483,483,483,483,483,481,481,481,480,480,478,478,477,477,476,476,476,476,476,476,476,475,474,474,473,472,472,471,471,471,470,470,470,470,470,470,470,470,470,470,470,470,468,468,467,465,462,455,445,421,357,318,294,278,253,240,226,214,203,181,169,153,140,129,120,102,94],"timestamp_mouse":[20,39,58,79,99,118,140,160,179,199,219,240,259,278,300,318,339,359,379,400,418,439,459,479,498,519,538,559,578,598,618,640,660,678,699,720,738,759,779,799,820,839,859,878,898,919,938,959,978,999,1019,1039,1059,1079,1099,1118,1140,1159,1178,1199,1218,1239,1258,1279,1299,1320,1339,1358,1378,1398,1419,1440,1458,1480,1499,1519,1539,1558,1578,1599,1619,1639,1658,1680],"xSR":741.5,"ySR":469.95,"xT1":424.9,"yT1":0,"xT2":1058.1,"yT2":0,"toosoon":0,"cond_shown":"equaldotsize","ratio_trial":750,"smaller_num":"3","larger_num":"4","correct_side":1,"subjID":"LauraSofiaRinconAriza11","gender":"1","age":"11","school":"6"},{"start_time":1551794777165,"click_time":1551794779039,"finger_time":1551794778459,"fix_duration":744.673740417705,"trial":20,"RT":1294,"MT":580,"sideResp":2,"stimulus":"img/750/equaldotanddens/R/4_Ratio_750_L_15_R_20.png","xmouse":[801,801,801,801,801,801,801,801,801,801,801,801,801,801,801,801,801,801,801,801,801,801,801,801,801,801,801,801,801,799,798,797,796,796,796,796,796,796,796,796,792,790,787,784,783,783,783,781,779,772,770,768,768,768,768,768,768,768,768,770,792,803,808,808,809,809,809,809,809,811,817,821,827,832,846,854,866,879,887,894,908,913,917,921,926,947,964,985,1013,1073,1088,1101,1108,1113],"ymouse":[507,506,506,506,506,506,506,506,506,506,506,506,506,506,506,506,506,506,506,506,506,506,506,506,506,506,505,505,505,506,508,508,509,509,509,509,509,509,509,509,509,509,509,509,509,509,509,509,509,504,503,502,502,502,502,502,502,502,502,501,495,488,484,479,466,459,450,444,439,435,424,419,415,412,404,400,395,389,387,385,384,384,384,384,383,372,359,338,306,195,158,123,100,81],"timestamp_mouse":[14,45,54,74,95,113,135,154,173,195,213,235,255,274,294,313,333,355,373,395,413,434,453,473,493,513,535,553,573,595,614,634,654,673,693,714,734,754,774,794,813,833,853,873,895,914,934,953,974,995,1014,1033,1054,1073,1095,1113,1135,1155,1174,1195,1213,1233,1253,1275,1294,1313,1334,1354,1373,1393,1413,1433,1453,1474,1494,1513,1534,1553,1574,1594,1613,1634,1655,1674,1694,1713,1734,1754,1774,1795,1813,1833,1855,1874],"xSR":741.5,"ySR":469.95,"xT1":424.9,"yT1":0,"xT2":1058.1,"yT2":0,"toosoon":0,"cond_shown":"equaldotanddens","ratio_trial":750,"smaller_num":"15","larger_num":"20","correct_side":2,"subjID":"LauraSofiaRinconAriza11","gender":"1","age":"11","school":"6"},{"start_time":1551794780835,"click_time":1551794782560,"finger_time":1551794782039,"fix_duration":694.1790530674157,"trial":21,"RT":1204,"MT":521,"sideResp":1,"stimulus":"img/250/equaldotsize/L/3_Ratio_250_L_8_R_2.png","xmouse":[780,780,780,780,780,780,780,780,780,780,780,780,780,780,780,780,780,780,780,780,780,780,780,780,780,780,780,780,780,780,780,780,780,780,780,780,780,780,780,780,780,780,780,780,780,780,780,780,780,781,781,782,782,782,782,782,782,782,782,780,767,729,711,701,696,691,688,673,661,646,632,613,580,566,550,539,528,523,521,521,521,520,504,497,488,481,470],"ymouse":[493,493,493,493,493,493,493,493,493,493,493,493,493,493,493,493,493,493,493,493,493,493,493,493,493,493,493,493,493,493,493,492,492,492,492,492,492,492,492,490,490,490,490,490,490,490,490,490,490,489,488,488,488,487,487,487,487,487,486,480,463,426,411,402,397,393,389,365,351,336,322,306,272,257,243,232,217,206,201,198,190,177,145,131,119,110,84],"timestamp_mouse":[8,38,44,64,85,104,125,143,164,184,204,224,244,264,283,304,325,343,364,383,404,424,444,464,484,504,524,544,564,583,604,625,644,664,685,703,724,743,763,784,803,824,844,864,883,904,923,943,963,984,1003,1024,1043,1064,1083,1103,1123,1143,1163,1184,1204,1224,1243,1264,1284,1303,1323,1343,1364,1384,1404,1424,1443,1464,1484,1505,1524,1543,1563,1585,1604,1624,1643,1663,1683,1704,1725],"xSR":741.5,"ySR":469.95,"xT1":424.9,"yT1":0,"xT2":1058.1,"yT2":0,"toosoon":0,"cond_shown":"equaldotsize","ratio_trial":250,"smaller_num":"2","larger_num":"8","correct_side":1,"subjID":"LauraSofiaRinconAriza11","gender":"1","age":"11","school":"6"},{"start_time":1551794783792,"click_time":1551794784680,"finger_time":1551794784419,"fix_duration":291.2772844418494,"trial":22,"RT":627,"MT":261,"sideResp":2,"stimulus":"img/500/equaldotanddens/R/3_Ratio_500_L_10_R_20.png","xmouse":[778,778,778,778,779,779,780,780,781,781,781,781,781,781,781,781,781,781,782,782,782,782,782,782,782,782,783,783,785,792,798,805,815,826,876,916,950,998,1012,1037,1045,1050,1055,1061,1071],"ymouse":[512,512,512,512,512,512,511,511,510,510,509,509,509,509,509,509,508,508,507,507,507,507,507,507,507,507,506,504,501,491,479,467,451,433,369,321,277,219,199,166,153,142,129,116,94],"timestamp_mouse":[8,36,48,67,87,106,127,148,166,186,207,227,246,268,288,306,327,348,367,387,406,427,448,467,486,508,528,547,566,587,606,627,647,667,686,706,727,748,767,788,806,826,846,867,888],"xSR":741.5,"ySR":469.95,"xT1":424.9,"yT1":0,"xT2":1058.1,"yT2":0,"toosoon":0,"cond_shown":"equaldotanddens","ratio_trial":500,"smaller_num":"10","larger_num":"20","correct_side":2,"subjID":"LauraSofiaRinconAriza11","gender":"1","age":"11","school":"6"},{"start_time":1551794787119,"click_time":1551794788858,"finger_time":1551794788439,"fix_duration":1418.8547212952453,"trial":23,"RT":1320,"MT":419,"sideResp":1,"stimulus":"img/900/equaldotsize/R/3_Ratio_900_L_9_R_10.png","xmouse":[801,801,801,801,801,801,801,801,801,801,801,801,801,801,801,801,801,801,801,801,801,801,801,801,801,801,801,801,801,801,801,801,801,801,801,801,801,801,801,801,801,801,801,801,801,801,801,801,801,801,801,801,801,801,801,801,801,801,801,802,802,802,802,802,802,802,798,752,719,690,660,633,594,584,578,577,577,577,577,574,571,570,568,564,558,544,526,510],"ymouse":[489,489,489,489,489,489,489,489,489,489,489,489,489,489,489,489,489,489,489,489,489,489,489,489,489,489,489,489,489,489,489,489,489,489,489,489,489,489,489,489,489,489,489,489,489,489,489,489,489,489,489,489,489,489,489,487,486,486,485,485,485,485,485,485,482,477,468,421,385,342,298,260,202,186,176,171,166,155,149,142,138,136,134,130,124,116,105,95],"timestamp_mouse":[8,21,41,59,80,99,119,141,160,179,200,220,240,261,280,299,320,339,361,379,401,419,439,459,479,500,519,540,560,580,599,620,639,659,679,701,721,740,761,779,799,820,840,860,880,899,920,940,960,981,999,1021,1039,1061,1079,1100,1120,1140,1161,1180,1199,1221,1241,1260,1279,1300,1320,1340,1359,1380,1400,1419,1440,1459,1479,1500,1520,1541,1559,1580,1600,1621,1640,1659,1679,1701,1720,1739],"xSR":741.5,"ySR":469.95,"xT1":424.9,"yT1":0,"xT2":1058.1,"yT2":0,"toosoon":0,"cond_shown":"equaldotsize","ratio_trial":900,"smaller_num":"9","larger_num":"10","correct_side":2,"subjID":"LauraSofiaRinconAriza11","gender":"1","age":"11","school":"6"},{"start_time":1551794795232,"click_time":1551794796239,"finger_time":1551794795938,"fix_duration":1232.7532433452325,"trial":24,"RT":706,"MT":301,"sideResp":1,"stimulus":"img/750/equaldotanddens/L/9_Ratio_750_L_4_R_3.png","xmouse":[780,780,780,780,780,780,780,780,780,780,780,780,780,780,780,780,780,780,780,780,780,780,780,780,780,778,775,771,770,768,765,763,755,750,745,741,732,728,722,714,700,677,666,649,626,605,575,543,534,529,524],"ymouse":[501,501,501,501,501,501,501,501,501,501,501,501,501,501,501,501,501,501,501,501,501,501,501,501,501,502,502,502,502,502,502,502,501,501,501,499,485,470,447,415,381,327,305,278,247,222,179,124,102,85,71],"timestamp_mouse":[9,26,46,68,87,107,127,146,167,186,207,228,246,266,287,306,328,348,367,386,408,428,446,468,487,507,527,546,566,587,606,627,646,667,687,706,727,747,766,786,807,827,846,867,887,907,928,947,966,987,1006],"xSR":741.5,"ySR":469.95,"xT1":424.9,"yT1":0,"xT2":1058.1,"yT2":0,"toosoon":0,"cond_shown":"equaldotanddens","ratio_trial":750,"smaller_num":"3","larger_num":"4","correct_side":1,"subjID":"LauraSofiaRinconAriza11","gender":"1","age":"11","school":"6"},{"start_time":1551794798734,"click_time":1551794800278,"finger_time":1551794799999,"fix_duration":1054.3982808716285,"trial":25,"RT":1265,"MT":279,"sideResp":2,"stimulus":"img/250/randomdotsizeEA/R/9_Ratio_250_L_3_R_12.png","xmouse":[792,792,792,792,792,792,792,792,792,792,792,792,792,792,792,792,792,792,792,792,792,792,792,792,792,792,792,792,792,792,792,792,792,792,792,792,792,792,792,792,792,792,792,792,792,792,792,792,792,792,792,792,792,792,792,792,792,792,792,792,792,804,816,830,846,862,881,926,939,951,969,992,1023,1033,1043,1049,1058,1060],"ymouse":[505,505,505,505,505,505,505,505,505,505,505,505,505,505,505,505,505,505,505,505,505,505,505,505,505,505,505,505,505,505,505,505,505,505,505,505,505,505,505,505,505,505,505,505,505,505,505,505,505,505,505,505,505,505,505,505,505,505,505,505,504,485,471,457,443,426,409,364,348,326,284,212,134,111,89,68,26,9],"timestamp_mouse":[9,26,46,64,85,105,124,145,166,186,204,224,246,265,284,306,326,344,365,386,404,425,446,464,485,505,525,544,564,584,604,624,646,664,684,706,725,746,764,784,806,824,844,865,884,906,926,945,965,984,1004,1025,1046,1064,1086,1106,1124,1144,1165,1184,1204,1226,1245,1265,1285,1304,1326,1344,1365,1385,1405,1425,1446,1464,1484,1504,1525,1544],"xSR":741.5,"ySR":469.95,"xT1":424.9,"yT1":0,"xT2":1058.1,"yT2":0,"toosoon":0,"cond_shown":"randomdotsizeEA","ratio_trial":250,"smaller_num":"3","larger_num":"12","correct_side":2,"subjID":"LauraSofiaRinconAriza11","gender":"1","age":"11","school":"6"},{"start_time":1551794801800,"click_time":1551794803018,"finger_time":1551794802660,"fix_duration":479.5568326604709,"trial":26,"RT":860,"MT":358,"sideResp":1,"stimulus":"img/500/equaldotsize/L/7_Ratio_500_L_10_R_5.png","xmouse":[810,810,810,810,810,810,810,810,810,810,810,810,810,810,810,810,810,810,810,810,810,810,810,810,810,810,810,810,810,810,810,810,810,810,810,810,810,810,810,810,802,795,742,715,697,685,672,661,639,634,632,632,630,621,605,583,561,530,510,501,495],"ymouse":[505,505,505,505,505,505,505,505,505,505,505,505,505,505,505,505,505,505,505,505,505,505,505,505,505,505,505,505,505,505,505,505,505,505,505,505,505,505,505,505,501,495,446,407,362,316,272,243,199,192,188,188,186,176,166,153,141,126,113,105,97],"timestamp_mouse":[19,42,60,78,100,118,138,160,179,198,220,239,259,278,299,320,338,359,380,398,419,440,458,480,498,519,538,559,579,599,618,640,658,678,699,718,739,759,779,799,819,839,860,878,898,919,939,959,978,998,1018,1039,1059,1079,1099,1119,1138,1158,1178,1199,1218],"xSR":741.5,"ySR":469.95,"xT1":424.9,"yT1":0,"xT2":1058.1,"yT2":0,"toosoon":0,"cond_shown":"equaldotsize","ratio_trial":500,"smaller_num":"5","larger_num":"10","correct_side":1,"subjID":"LauraSofiaRinconAriza11","gender":"1","age":"11","school":"6"},{"start_time":1551794807015,"click_time":1551794809138,"finger_time":1551794808818,"fix_duration":1474.560558395568,"trial":27,"RT":1803,"MT":320,"sideResp":1,"stimulus":"img/900/equaldotsize/L/4_Ratio_900_L_20_R_18.png","xmouse":[795,795,795,795,795,795,795,795,795,795,795,795,795,795,795,795,795,795,795,795,795,795,795,795,795,795,795,795,795,795,795,795,795,795,795,795,795,795,795,795,795,795,795,795,795,795,795,795,795,795,795,795,795,795,795,795,795,795,795,794,794,794,794,794,794,794,794,794,794,794,794,794,794,794,794,794,794,794,794,794,794,794,794,794,793,793,792,790,786,782,778,774,766,745,727,706,676,642,604,593,581,576,567,538,522,510,506],"ymouse":[509,509,509,509,509,509,509,509,509,509,509,509,509,509,509,509,509,509,509,509,509,509,509,509,509,509,509,509,509,509,509,509,509,509,509,509,509,509,509,509,509,509,509,509,509,509,509,509,509,509,509,509,509,509,509,509,509,509,509,508,507,507,507,507,507,507,507,507,507,507,507,507,507,505,505,505,505,505,505,505,505,505,505,505,504,503,501,497,487,478,465,452,430,379,340,299,255,212,176,166,154,148,139,116,107,100,98],"timestamp_mouse":[12,24,44,64,84,104,125,143,163,185,203,224,244,264,284,304,323,344,364,384,403,424,443,464,483,503,524,543,564,584,604,624,644,665,684,703,723,743,764,783,803,823,844,863,883,905,923,944,964,983,1005,1023,1043,1064,1084,1104,1124,1143,1163,1183,1204,1223,1243,1265,1283,1303,1325,1343,1364,1389,1404,1423,1443,1463,1483,1503,1525,1544,1563,1584,1604,1623,1644,1663,1684,1704,1724,1743,1764,1783,1803,1824,1845,1863,1883,1903,1924,1944,1964,1983,2003,2024,2043,2063,2083,2103,2123],"xSR":741.5,"ySR":469.95,"xT1":424.9,"yT1":0,"xT2":1058.1,"yT2":0,"toosoon":0,"cond_shown":"equaldotsize","ratio_trial":900,"smaller_num":"18","larger_num":"20","correct_side":1,"subjID":"LauraSofiaRinconAriza11","gender":"1","age":"11","school":"6"},{"start_time":1551794811023,"click_time":1551794812518,"finger_time":1551794812159,"fix_duration":722.1921968919124,"trial":28,"RT":1136,"MT":359,"sideResp":1,"stimulus":"img/250/randomdotsizeEA/L/2_Ratio_250_L_16_R_4.png","xmouse":[810,810,810,810,810,810,810,810,810,810,810,810,810,810,810,810,810,810,810,810,810,810,810,810,810,810,810,810,810,810,810,810,810,810,810,810,810,810,810,810,810,810,810,810,810,810,810,810,810,810,810,810,810,809,807,801,774,686,646,618,602,593,575,568,560,549,545,536,535,535,534,533,530,525,519],"ymouse":[508,508,508,508,508,508,508,508,508,508,508,508,508,508,508,508,508,508,508,508,508,508,508,508,508,508,508,508,508,508,508,508,508,508,508,508,508,508,508,508,508,508,508,508,508,508,508,508,508,508,508,508,508,505,497,479,411,276,213,170,137,115,83,75,68,63,62,58,57,57,57,55,54,52,50],"timestamp_mouse":[15,37,56,77,95,116,136,157,176,195,215,236,257,275,296,317,335,356,376,395,415,435,455,477,497,517,537,555,576,595,615,636,656,676,695,715,735,757,775,796,817,835,857,875,896,916,935,956,976,995,1015,1037,1055,1076,1096,1116,1136,1156,1175,1195,1216,1235,1255,1276,1296,1317,1336,1355,1376,1397,1417,1437,1455,1475,1495],"xSR":741.5,"ySR":469.95,"xT1":424.9,"yT1":0,"xT2":1058.1,"yT2":0,"toosoon":0,"cond_shown":"randomdotsizeEA","ratio_trial":250,"smaller_num":"4","larger_num":"16","correct_side":1,"subjID":"LauraSofiaRinconAriza11","gender":"1","age":"11","school":"6"},{"start_time":1551794814128,"click_time":1551794815078,"finger_time":1551794814860,"fix_duration":387.2762491999749,"trial":29,"RT":732,"MT":218,"sideResp":1,"stimulus":"img/250/randomdotsizeEA/L/2_Ratio_250_L_16_R_4.png","xmouse":[783,783,783,783,782,782,782,782,782,782,782,782,782,782,782,782,782,782,782,782,782,782,782,782,782,782,782,782,782,782,782,782,782,781,780,775,763,743,721,700,679,661,621,607,590,563,535,501],"ymouse":[502,502,502,502,502,502,502,502,501,501,501,501,501,500,500,500,500,500,500,500,500,500,500,500,500,500,500,500,500,500,500,499,497,494,490,483,446,400,345,307,277,257,213,193,169,132,104,70],"timestamp_mouse":[11,32,50,71,91,111,131,151,170,190,211,231,250,270,291,311,331,350,371,390,411,430,450,472,490,510,531,550,572,590,611,632,651,670,690,710,731,751,772,791,811,831,851,871,892,911,930,950],"xSR":741.5,"ySR":469.95,"xT1":424.9,"yT1":0,"xT2":1058.1,"yT2":0,"toosoon":0,"cond_shown":"randomdotsizeEA","ratio_trial":250,"smaller_num":"4","larger_num":"16","correct_side":1,"subjID":"LauraSofiaRinconAriza11","gender":"1","age":"11","school":"6"},{"start_time":1551794816608,"click_time":1551794817818,"finger_time":1551794817460,"fix_duration":748.5870616084463,"trial":30,"RT":852,"MT":358,"sideResp":1,"stimulus":"img/750/randomdotsizeEA/L/6_Ratio_750_L_24_R_18.png","xmouse":[800,800,800,800,800,800,800,800,800,800,800,800,800,800,800,800,800,800,800,800,800,800,800,800,800,800,800,800,800,800,800,800,800,800,800,800,800,800,800,800,792,781,754,727,693,652,620,576,570,569,569,569,569,561,548,537,526,514,511,503,491],"ymouse":[507,507,507,507,507,507,507,507,507,507,507,507,507,507,507,507,507,507,507,507,507,507,507,507,507,507,507,507,507,507,507,507,507,507,507,507,507,507,507,504,496,488,465,434,387,325,269,192,184,182,182,182,182,173,163,153,144,129,121,108,95],"timestamp_mouse":[11,33,51,72,91,111,131,151,171,190,211,231,251,270,290,311,330,350,371,392,410,431,450,472,491,510,531,550,572,592,610,632,650,672,691,711,731,752,770,790,811,831,852,870,891,911,930,952,970,990,1011,1032,1051,1070,1091,1111,1131,1151,1170,1190,1210],"xSR":741.5,"ySR":469.95,"xT1":424.9,"yT1":0,"xT2":1058.1,"yT2":0,"toosoon":0,"cond_shown":"randomdotsizeEA","ratio_trial":750,"smaller_num":"18","larger_num":"24","correct_side":1,"subjID":"LauraSofiaRinconAriza11","gender":"1","age":"11","school":"6"},{"start_time":1551794819706,"click_time":1551794820578,"finger_time":1551794820277,"fix_duration":1065.7459852913744,"trial":31,"RT":571,"MT":301,"sideResp":2,"stimulus":"img/250/randomdotsizeEA/R/12_Ratio_250_L_5_R_20.png","xmouse":[796,796,796,796,796,796,796,796,796,796,796,796,796,796,796,796,796,796,796,796,796,796,796,796,796,796,795,800,811,825,844,864,900,967,985,999,1009,1028,1037,1044,1050,1054,1057,1060],"ymouse":[495,495,495,495,495,495,495,495,495,495,495,495,495,495,495,495,495,495,495,495,495,495,495,495,495,495,493,479,462,441,411,384,337,254,229,208,190,157,138,118,97,82,72,64],"timestamp_mouse":[13,36,53,72,92,112,133,153,172,192,213,233,253,272,292,313,333,353,372,392,412,432,452,472,492,513,532,553,571,592,613,633,653,672,692,712,733,753,772,792,812,833,852,872],"xSR":741.5,"ySR":469.95,"xT1":424.9,"yT1":0,"xT2":1058.1,"yT2":0,"toosoon":0,"cond_shown":"randomdotsizeEA","ratio_trial":250,"smaller_num":"5","larger_num":"20","correct_side":2,"subjID":"LauraSofiaRinconAriza11","gender":"1","age":"11","school":"6"},{"start_time":1551794821765,"click_time":1551794822518,"finger_time":1551794822218,"fix_duration":266.86779945153995,"trial":32,"RT":453,"MT":300,"sideResp":2,"stimulus":"img/750/equaldotanddens/R/11_Ratio_750_L_12_R_16.png","xmouse":[818,818,818,818,818,818,818,818,818,818,818,818,818,818,818,818,818,818,818,818,825,835,848,864,896,910,921,945,966,993,1018,1029,1037,1045,1064,1074,1082,1089],"ymouse":[486,486,486,486,486,486,486,486,486,486,486,486,486,486,486,486,486,486,486,486,484,479,469,454,409,383,358,323,291,250,214,198,183,169,136,120,104,91],"timestamp_mouse":[21,41,53,73,94,114,133,153,173,194,213,233,254,274,293,313,334,354,374,393,413,433,453,473,495,513,533,553,574,594,613,633,653,674,694,713,733,753],"xSR":741.5,"ySR":469.95,"xT1":424.9,"yT1":0,"xT2":1058.1,"yT2":0,"toosoon":0,"cond_shown":"equaldotanddens","ratio_trial":750,"smaller_num":"12","larger_num":"16","correct_side":2,"subjID":"LauraSofiaRinconAriza11","gender":"1","age":"11","school":"6"},{"start_time":1551794823493,"click_time":1551794824459,"finger_time":1551794824218,"fix_duration":294.43997109197915,"trial":33,"RT":725,"MT":241,"sideResp":1,"stimulus":"img/500/equaldotanddens/L/13_Ratio_500_L_12_R_6.png","xmouse":[762,762,762,762,762,762,762,762,762,762,762,762,762,762,762,762,762,762,762,763,763,763,764,764,764,764,764,765,765,765,765,765,765,765,757,749,737,720,698,660,643,622,599,569,544,538,534,528,517],"ymouse":[533,533,533,533,533,533,533,533,533,533,533,533,533,533,533,533,533,533,533,532,532,531,531,531,530,530,530,529,529,529,528,527,523,519,497,476,451,413,362,273,235,191,153,113,88,83,78,71,60],"timestamp_mouse":[5,33,46,65,85,106,125,147,166,185,205,225,245,265,285,305,325,345,365,385,405,425,446,466,486,505,525,545,565,586,606,625,645,666,685,705,725,745,765,785,805,825,845,865,885,905,926,945,966],"xSR":741.5,"ySR":469.95,"xT1":424.9,"yT1":0,"xT2":1058.1,"yT2":0,"toosoon":0,"cond_shown":"equaldotanddens","ratio_trial":500,"smaller_num":"6","larger_num":"12","correct_side":1,"subjID":"LauraSofiaRinconAriza11","gender":"1","age":"11","school":"6"},{"start_time":1551794826860,"click_time":1551794828878,"finger_time":1551794828398,"fix_duration":1420.4542508727939,"trial":34,"RT":1538,"MT":480,"sideResp":2,"stimulus":"img/900/randomdotsizeEA/L/1_Ratio_900_L_10_R_9.png","xmouse":[761,761,761,761,761,761,761,761,761,761,761,761,761,761,761,761,761,761,761,761,761,761,761,761,761,761,761,761,761,761,761,761,761,761,761,760,760,759,759,759,759,759,759,759,759,759,759,759,759,759,759,759,759,759,759,759,759,759,759,759,759,759,759,759,759,759,759,759,759,759,759,759,759,760,771,777,782,784,786,791,801,818,857,894,933,952,956,959,964,984,999,1013,1027,1034,1048,1059,1064,1069,1073,1076,1081],"ymouse":[498,498,498,498,498,498,498,498,498,498,498,498,498,498,498,498,498,498,498,498,498,498,498,498,498,498,498,498,498,498,498,498,498,496,493,492,492,491,491,491,491,491,491,491,491,491,491,491,491,491,491,491,491,491,491,491,491,491,491,491,491,491,491,491,491,491,491,491,491,491,491,491,491,488,480,475,468,464,456,447,425,410,390,368,346,331,325,318,306,271,251,231,214,203,181,146,131,121,113,105,93],"timestamp_mouse":[18,38,58,78,98,119,138,158,178,199,218,238,259,279,298,318,338,358,378,398,418,439,458,479,498,518,538,559,578,598,619,638,658,678,698,718,738,758,779,798,818,838,858,878,899,918,938,959,979,998,1018,1038,1058,1079,1098,1118,1138,1159,1178,1198,1218,1238,1258,1278,1298,1318,1339,1359,1378,1398,1419,1438,1458,1478,1499,1518,1538,1559,1578,1598,1618,1638,1658,1679,1698,1719,1738,1759,1778,1799,1818,1838,1859,1879,1898,1919,1938,1958,1978,2000,2018],"xSR":741.5,"ySR":469.95,"xT1":424.9,"yT1":0,"xT2":1058.1,"yT2":0,"toosoon":0,"cond_shown":"randomdotsizeEA","ratio_trial":900,"smaller_num":"9","larger_num":"10","correct_side":1,"subjID":"LauraSofiaRinconAriza11","gender":"1","age":"11","school":"6"},{"start_time":1551794831199,"click_time":1551794832238,"finger_time":1551794832078,"fix_duration":1279.082555139985,"trial":35,"RT":879,"MT":160,"sideResp":1,"stimulus":"img/900/equaldotanddens/R/9_Ratio_900_L_18_R_20.png","xmouse":[777,777,777,777,777,777,777,777,777,777,777,777,777,777,777,777,777,777,777,777,777,777,777,777,777,777,778,780,781,784,784,784,784,784,784,784,784,784,784,784,784,784,777,770,719,674,588,565,505,473,469,469,472],"ymouse":[516,516,516,516,516,516,516,516,516,516,516,516,516,516,516,516,516,516,516,516,516,516,516,516,516,516,516,514,512,508,508,508,508,508,508,508,508,508,508,508,508,507,506,505,492,473,421,400,320,210,160,124,98],"timestamp_mouse":[1,19,44,59,79,99,119,140,160,179,199,219,239,259,281,299,319,340,359,380,399,419,439,460,480,499,519,540,559,579,599,619,640,660,679,699,719,739,759,780,799,819,839,859,879,899,919,940,960,979,999,1019,1039],"xSR":741.5,"ySR":469.95,"xT1":424.9,"yT1":0,"xT2":1058.1,"yT2":0,"toosoon":0,"cond_shown":"equaldotanddens","ratio_trial":900,"smaller_num":"18","larger_num":"20","correct_side":2,"subjID":"LauraSofiaRinconAriza11","gender":"1","age":"11","school":"6"},{"start_time":1551794833231,"click_time":1551794835138,"finger_time":1551794834819,"fix_duration":250,"trial":36,"RT":1588,"MT":319,"sideResp":1,"stimulus":"img/500/equaldotanddens/L/5_Ratio_500_L_4_R_2.png","xmouse":[812,812,812,812,812,812,812,812,812,812,812,812,813,813,813,813,813,813,813,813,813,815,816,817,817,817,817,817,817,811,808,800,792,791,791,790,789,787,786,786,785,785,784,784,784,784,784,784,784,784,784,784,784,783,783,783,783,783,783,783,783,783,783,782,781,780,779,778,778,777,777,777,777,776,776,776,776,767,754,729,699,635,618,609,603,598,587,561,549,541,536,525,520,514,506,489],"ymouse":[500,500,500,500,500,500,500,500,500,500,500,500,500,500,500,500,500,500,499,495,490,487,480,479,478,478,478,478,478,478,478,479,484,485,486,489,491,494,495,496,496,497,498,498,499,499,499,499,499,499,499,499,499,500,500,500,501,501,502,502,502,502,503,504,505,506,506,507,508,509,509,510,510,510,510,510,510,509,500,482,457,388,360,341,325,314,294,262,245,230,218,184,166,144,121,88],"timestamp_mouse":[7,31,47,67,88,107,128,148,167,187,208,227,247,267,288,308,328,348,367,387,407,427,447,468,487,508,527,547,567,588,608,627,647,667,687,707,727,747,768,788,807,828,847,868,888,907,927,947,967,987,1007,1028,1047,1068,1088,1108,1127,1147,1168,1187,1207,1227,1247,1267,1287,1307,1327,1348,1367,1388,1407,1428,1447,1467,1488,1508,1527,1548,1567,1588,1608,1628,1647,1667,1687,1708,1727,1748,1767,1787,1807,1829,1847,1868,1887,1907],"xSR":741.5,"ySR":469.95,"xT1":424.9,"yT1":0,"xT2":1058.1,"yT2":0,"toosoon":0,"cond_shown":"equaldotanddens","ratio_trial":500,"smaller_num":"2","larger_num":"4","correct_side":1,"subjID":"LauraSofiaRinconAriza11","gender":"1","age":"11","school":"6"},{"start_time":1551794836289,"click_time":1551794837299,"finger_time":1551794836958,"fix_duration":250,"trial":37,"RT":669,"MT":341,"sideResp":1,"stimulus":"img/500/equaldotsize/L/13_Ratio_500_L_12_R_6.png","xmouse":[762,762,762,762,762,762,762,763,764,769,769,769,769,769,769,769,769,769,769,769,769,769,769,769,769,769,769,769,767,760,755,749,744,736,713,684,659,638,619,594,581,572,561,544,533,531,529,524,506,494,486],"ymouse":[517,517,517,517,517,517,517,517,517,516,516,516,516,516,516,516,516,516,516,516,516,516,516,516,516,516,515,514,512,507,502,494,484,466,418,379,350,326,305,272,253,239,223,201,183,178,171,157,123,103,90],"timestamp_mouse":[23,41,49,69,90,109,129,150,170,189,209,230,250,269,290,309,329,350,369,390,410,429,450,470,489,509,530,550,571,589,609,629,650,669,691,709,730,749,769,789,810,829,849,869,890,909,929,949,970,989,1010],"xSR":741.5,"ySR":469.95,"xT1":424.9,"yT1":0,"xT2":1058.1,"yT2":0,"toosoon":0,"cond_shown":"equaldotsize","ratio_trial":500,"smaller_num":"6","larger_num":"12","correct_side":1,"subjID":"LauraSofiaRinconAriza11","gender":"1","age":"11","school":"6"},{"start_time":1551794838840,"click_time":1551794839978,"finger_time":1551794839659,"fix_duration":760.7464721261551,"trial":38,"RT":819,"MT":319,"sideResp":1,"stimulus":"img/250/equaldotsize/L/2_Ratio_250_L_16_R_4.png","xmouse":[778,778,778,778,778,778,778,778,778,778,778,778,778,778,778,778,778,778,778,778,778,778,778,778,778,778,778,778,778,778,778,778,778,778,777,777,774,771,765,756,739,679,648,619,594,575,566,564,561,557,550,513,494,477,464,460,457],"ymouse":[537,537,537,537,537,537,537,537,537,537,537,537,537,537,537,536,536,536,536,536,536,536,536,536,536,536,536,536,536,536,536,536,536,534,533,532,525,518,503,485,457,367,323,275,239,208,190,185,181,174,163,132,121,113,105,100,95],"timestamp_mouse":[18,39,58,78,98,118,138,158,179,198,218,238,258,279,298,319,338,358,378,398,418,439,458,478,498,518,538,558,579,598,618,638,657,678,698,718,738,758,779,799,819,839,858,878,899,918,938,959,978,999,1018,1038,1058,1078,1098,1119,1138],"xSR":741.5,"ySR":469.95,"xT1":424.9,"yT1":0,"xT2":1058.1,"yT2":0,"toosoon":0,"cond_shown":"equaldotsize","ratio_trial":250,"smaller_num":"4","larger_num":"16","correct_side":1,"subjID":"LauraSofiaRinconAriza11","gender":"1","age":"11","school":"6"},{"start_time":1551794841890,"click_time":1551794842898,"finger_time":1551794842638,"fix_duration":1011.387892710804,"trial":39,"RT":748,"MT":260,"sideResp":2,"stimulus":"img/250/equaldotanddens/R/4_Ratio_250_L_3_R_12.png","xmouse":[767,767,767,767,767,767,767,767,767,767,767,767,767,767,767,767,767,767,767,767,767,767,767,767,767,767,767,767,767,767,767,767,767,767,773,779,789,802,875,936,1007,1073,1126,1168,1175,1175,1173,1171,1169,1162,1155],"ymouse":[499,499,499,499,499,499,499,499,499,499,499,499,499,499,499,499,499,499,499,499,499,499,499,499,499,499,499,499,499,499,499,499,499,499,494,486,474,457,399,353,302,253,206,158,131,120,111,104,90,56,37],"timestamp_mouse":[10,35,48,68,89,108,129,148,168,189,209,228,248,270,289,308,329,348,368,388,409,428,448,469,489,508,529,548,569,588,608,628,649,668,689,708,728,748,770,788,808,828,849,868,889,908,928,949,968,988,1008],"xSR":741.5,"ySR":469.95,"xT1":424.9,"yT1":0,"xT2":1058.1,"yT2":0,"toosoon":0,"cond_shown":"equaldotanddens","ratio_trial":250,"smaller_num":"3","larger_num":"12","correct_side":2,"subjID":"LauraSofiaRinconAriza11","gender":"1","age":"11","school":"6"},{"start_time":1551794844335,"click_time":1551794845418,"finger_time":1551794845058,"fix_duration":356.62938392335485,"trial":40,"RT":723,"MT":360,"sideResp":2,"stimulus":"img/500/equaldotanddens/R/3_Ratio_500_L_10_R_20.png","xmouse":[811,811,812,813,814,816,818,823,823,823,823,823,823,823,823,823,823,823,823,823,823,823,823,823,821,819,816,811,811,811,811,811,810,814,823,830,835,848,860,881,892,928,959,970,979,987,997,1014,1022,1028,1033,1041,1051,1058,1062],"ymouse":[498,498,498,498,498,498,498,498,498,498,498,498,498,498,498,498,498,498,498,498,498,498,498,498,498,499,501,503,503,503,503,503,503,499,492,481,468,434,412,375,361,311,262,245,227,213,198,173,161,153,143,125,100,88,82],"timestamp_mouse":[3,29,43,63,83,103,124,143,163,184,203,224,243,264,284,303,324,344,363,383,404,424,443,463,484,503,523,545,563,584,603,623,644,663,683,704,723,743,763,783,804,824,843,863,883,904,922,943,964,983,1005,1023,1043,1063,1083],"xSR":741.5,"ySR":469.95,"xT1":424.9,"yT1":0,"xT2":1058.1,"yT2":0,"toosoon":0,"cond_shown":"equaldotanddens","ratio_trial":500,"smaller_num":"10","larger_num":"20","correct_side":2,"subjID":"LauraSofiaRinconAriza11","gender":"1","age":"11","school":"6"},{"start_time":1551794846848,"click_time":1551794848518,"finger_time":1551794847878,"fix_duration":888.2222826380548,"trial":41,"RT":1030,"MT":640,"sideResp":2,"stimulus":"img/900/randomdotsizeEA/R/12_Ratio_900_L_18_R_20.png","xmouse":[794,794,794,794,794,794,794,794,794,794,794,794,794,794,794,794,794,794,794,794,795,795,795,795,795,795,795,795,795,795,795,795,795,795,795,795,795,795,795,795,795,795,795,795,795,796,798,801,805,812,824,851,868,887,905,938,967,975,981,989,996,1008,1014,1020,1029,1038,1044,1045,1045,1045,1045,1045,1045,1045,1045,1045,1045,1045,1045,1047,1047,1050,1054,1064],"ymouse":[521,521,521,521,521,521,521,521,521,521,521,521,521,521,521,521,521,521,521,521,519,519,519,519,519,519,519,519,519,519,519,519,519,519,519,519,519,519,519,519,519,518,518,518,517,515,512,509,504,496,483,453,433,406,377,319,258,236,219,202,186,153,135,114,95,78,69,69,69,69,69,69,69,69,69,69,69,69,69,67,67,65,63,63],"timestamp_mouse":[11,45,51,71,91,111,131,150,170,190,211,231,250,271,290,310,331,350,370,390,411,430,451,470,490,510,531,551,570,591,610,630,652,671,690,711,731,750,771,791,811,831,849,870,890,910,930,950,971,991,1011,1030,1050,1070,1091,1111,1130,1150,1171,1191,1210,1230,1251,1271,1291,1310,1330,1350,1370,1392,1410,1430,1450,1470,1491,1511,1530,1550,1570,1590,1610,1630,1650,1670],"xSR":741.5,"ySR":469.95,"xT1":424.9,"yT1":0,"xT2":1058.1,"yT2":0,"toosoon":0,"cond_shown":"randomdotsizeEA","ratio_trial":900,"smaller_num":"18","larger_num":"20","correct_side":2,"subjID":"LauraSofiaRinconAriza11","gender":"1","age":"11","school":"6"},{"start_time":1551794850034,"click_time":1551794850859,"finger_time":1551794850619,"fix_duration":595.0846924249709,"trial":42,"RT":585,"MT":240,"sideResp":2,"stimulus":"img/750/equaldotsize/R/11_Ratio_750_L_12_R_16.png","xmouse":[806,806,806,806,806,806,806,806,806,806,806,806,806,806,806,806,806,806,806,806,806,806,806,806,806,810,814,829,838,847,858,890,909,931,945,970,980,1019,1042,1061,1071,1084],"ymouse":[521,521,521,521,521,521,521,521,521,521,521,521,521,521,521,521,521,521,521,521,521,521,521,520,518,514,507,487,472,456,437,382,352,319,297,260,247,192,159,132,118,96],"timestamp_mouse":[24,25,45,64,85,104,125,146,164,184,204,224,245,265,285,304,325,344,364,384,404,425,444,464,484,505,525,544,564,585,604,626,644,665,684,704,724,744,764,784,805,825],"xSR":741.5,"ySR":469.95,"xT1":424.9,"yT1":0,"xT2":1058.1,"yT2":0,"toosoon":0,"cond_shown":"equaldotsize","ratio_trial":750,"smaller_num":"12","larger_num":"16","correct_side":2,"subjID":"LauraSofiaRinconAriza11","gender":"1","age":"11","school":"6"},{"start_time":1551794852011,"click_time":1551794852918,"finger_time":1551794852678,"fix_duration":250,"trial":43,"RT":667,"MT":240,"sideResp":2,"stimulus":"img/750/equaldotsize/R/5_Ratio_750_L_15_R_20.png","xmouse":[786,787,787,787,787,787,787,787,787,787,787,787,787,787,787,787,787,787,787,787,787,787,787,787,787,787,787,787,790,792,798,805,812,831,848,866,896,947,996,1015,1039,1050,1054,1061,1064,1071],"ymouse":[502,502,502,502,502,502,502,502,502,502,502,502,502,502,502,502,502,502,502,502,502,502,502,502,502,502,502,502,501,500,497,493,487,461,439,407,363,280,213,183,150,133,122,106,102,94],"timestamp_mouse":[7,28,48,67,87,107,127,148,169,187,208,228,248,267,288,307,328,348,368,387,407,427,447,469,488,507,527,547,567,587,608,627,648,667,687,707,727,747,767,787,807,828,847,867,888,907],"xSR":741.5,"ySR":469.95,"xT1":424.9,"yT1":0,"xT2":1058.1,"yT2":0,"toosoon":0,"cond_shown":"equaldotsize","ratio_trial":750,"smaller_num":"15","larger_num":"20","correct_side":2,"subjID":"LauraSofiaRinconAriza11","gender":"1","age":"11","school":"6"},{"start_time":1551794854771,"click_time":1551794855760,"finger_time":1551794855438,"fix_duration":892.3408777962279,"trial":44,"RT":667,"MT":322,"sideResp":2,"stimulus":"img/250/randomdotsizeEA/R/9_Ratio_250_L_3_R_12.png","xmouse":[794,794,794,794,794,794,794,794,794,794,794,794,794,794,794,794,794,794,794,794,794,794,794,794,794,794,794,794,794,794,794,794,804,819,833,868,883,897,910,932,960,973,986,1000,1014,1034,1044,1053,1069,1090],"ymouse":[487,487,487,487,487,487,487,487,487,487,487,487,487,487,487,487,487,487,487,487,487,487,487,487,487,487,487,487,487,487,487,487,475,457,440,397,376,355,332,293,246,226,207,187,165,136,125,116,104,89],"timestamp_mouse":[9,35,48,67,87,107,127,147,167,189,207,227,247,267,287,308,327,347,368,387,407,428,447,467,487,507,527,547,567,588,607,627,648,667,687,707,727,747,767,788,807,827,848,868,887,907,927,947,968,989],"xSR":741.5,"ySR":469.95,"xT1":424.9,"yT1":0,"xT2":1058.1,"yT2":0,"toosoon":0,"cond_shown":"randomdotsizeEA","ratio_trial":250,"smaller_num":"3","larger_num":"12","correct_side":2,"subjID":"LauraSofiaRinconAriza11","gender":"1","age":"11","school":"6"},{"start_time":1551794857042,"click_time":1551794858558,"finger_time":1551794857938,"fix_duration":542.6884633107929,"trial":45,"RT":896,"MT":620,"sideResp":2,"stimulus":"img/500/randomdotsizeEA/L/13_Ratio_500_L_12_R_6.png","xmouse":[807,807,807,807,807,807,807,807,807,807,807,807,807,807,807,807,807,807,807,807,807,807,807,807,807,807,807,807,807,807,807,807,806,805,805,805,804,804,804,804,804,804,805,810,822,863,878,889,900,910,921,945,955,965,974,986,1000,1009,1021,1041,1079,1160,1181,1191,1191,1182,1176,1169,1166,1163,1162,1160,1160,1159,1159,1158],"ymouse":[496,496,496,496,496,496,496,496,496,496,496,496,496,496,496,496,496,496,496,496,496,496,496,496,496,496,496,496,496,496,496,496,496,496,495,495,493,493,491,490,489,484,480,473,458,417,399,382,360,335,309,254,235,218,203,186,167,157,147,136,121,101,94,92,92,90,90,90,90,90,90,90,90,90,90,88],"timestamp_mouse":[16,47,56,77,97,117,136,156,177,196,216,236,256,276,296,317,336,356,377,397,416,436,457,476,496,516,537,556,578,597,616,637,657,676,697,716,736,756,777,796,818,836,857,876,896,918,936,956,978,997,1016,1036,1056,1077,1096,1116,1136,1156,1177,1196,1216,1236,1256,1277,1296,1317,1336,1356,1376,1396,1416,1437,1456,1476,1496,1516],"xSR":741.5,"ySR":469.95,"xT1":424.9,"yT1":0,"xT2":1058.1,"yT2":0,"toosoon":0,"cond_shown":"randomdotsizeEA","ratio_trial":500,"smaller_num":"6","larger_num":"12","correct_side":1,"subjID":"LauraSofiaRinconAriza11","gender":"1","age":"11","school":"6"},{"start_time":1551794860712,"click_time":1551794861719,"finger_time":1551794861478,"fix_duration":1331.8290987021824,"trial":46,"RT":766,"MT":241,"sideResp":1,"stimulus":"img/250/equaldotsize/L/14_Ratio_250_L_12_R_3.png","xmouse":[785,785,785,785,785,785,785,785,784,782,779,778,776,775,775,775,775,775,775,775,775,775,775,775,775,774,773,760,756,752,750,749,748,748,748,748,748,747,742,734,723,702,652,561,520,497,486,480,479,478,475],"ymouse":[497,497,497,497,497,497,497,497,496,496,496,496,496,496,496,496,496,496,496,496,496,496,496,496,496,496,495,486,485,484,484,484,484,484,484,484,484,483,463,443,409,368,292,203,174,158,146,130,122,110,99],"timestamp_mouse":[8,38,47,66,87,106,126,146,166,186,206,227,246,266,286,306,327,346,366,386,406,426,447,467,486,507,527,547,566,587,606,627,647,667,687,706,726,747,766,786,806,826,847,867,886,907,926,948,966,987,1007],"xSR":741.5,"ySR":469.95,"xT1":424.9,"yT1":0,"xT2":1058.1,"yT2":0,"toosoon":0,"cond_shown":"equaldotsize","ratio_trial":250,"smaller_num":"3","larger_num":"12","correct_side":1,"subjID":"LauraSofiaRinconAriza11","gender":"1","age":"11","school":"6"},{"start_time":1551794863838,"click_time":1551794864738,"finger_time":1551794864418,"fix_duration":1079.2191680451936,"trial":47,"RT":580,"MT":320,"sideResp":1,"stimulus":"img/250/equaldotanddens/L/2_Ratio_250_L_16_R_4.png","xmouse":[811,811,811,811,811,811,811,810,810,810,810,809,806,804,803,803,803,803,803,803,802,801,801,801,800,800,794,780,771,764,756,716,683,653,637,624,617,611,606,597,586,577,558,548,535,524],"ymouse":[508,508,508,508,508,508,508,508,508,508,508,508,507,506,506,506,506,506,506,505,505,504,503,502,501,500,495,483,475,465,444,350,286,233,204,183,161,148,136,121,107,92,69,59,52,45],"timestamp_mouse":[2,21,40,60,80,100,121,141,160,180,200,221,240,260,280,300,321,341,360,381,400,420,440,460,480,502,520,541,560,580,601,621,640,661,680,700,722,739,760,781,801,820,840,861,880,900],"xSR":741.5,"ySR":469.95,"xT1":424.9,"yT1":0,"xT2":1058.1,"yT2":0,"toosoon":0,"cond_shown":"equaldotanddens","ratio_trial":250,"smaller_num":"4","larger_num":"16","correct_side":1,"subjID":"LauraSofiaRinconAriza11","gender":"1","age":"11","school":"6"},{"start_time":1551794866186,"click_time":1551794867319,"finger_time":1551794866938,"fix_duration":807.9794923713713,"trial":48,"RT":752,"MT":381,"sideResp":2,"stimulus":"img/900/equaldotanddens/R/11_Ratio_900_L_18_R_20.png","xmouse":[809,809,809,809,808,805,804,801,798,797,797,797,797,797,797,797,797,797,797,797,797,797,797,797,797,797,797,797,797,797,797,797,797,806,816,826,838,849,859,884,898,912,928,948,957,965,975,987,1005,1027,1034,1040,1046,1051,1062,1068,1072],"ymouse":[548,548,548,548,548,548,548,548,548,548,548,548,548,548,548,548,548,548,548,548,548,548,548,548,548,548,548,548,548,548,548,547,546,535,526,517,507,498,485,450,430,409,387,353,337,320,302,281,248,207,188,170,153,136,115,106,98],"timestamp_mouse":[12,38,53,72,92,112,132,153,172,193,213,232,253,272,292,312,332,352,373,393,413,433,453,472,492,512,532,552,573,593,612,632,653,673,692,712,732,752,772,792,812,832,852,873,892,913,932,953,972,992,1012,1032,1052,1074,1092,1113,1132],"xSR":741.5,"ySR":469.95,"xT1":424.9,"yT1":0,"xT2":1058.1,"yT2":0,"toosoon":0,"cond_shown":"equaldotanddens","ratio_trial":900,"smaller_num":"18","larger_num":"20","correct_side":2,"subjID":"LauraSofiaRinconAriza11","gender":"1","age":"11","school":"6"},{"start_time":1551794868930,"click_time":1551794870119,"finger_time":1551794869578,"fix_duration":830.050123195783,"trial":49,"RT":648,"MT":541,"sideResp":1,"stimulus":"img/750/equaldotsize/L/1_Ratio_750_L_20_R_15.png","xmouse":[796,796,796,796,796,796,796,796,796,796,796,796,796,796,796,796,796,796,796,796,796,796,796,796,796,796,796,796,796,796,796,792,762,733,709,697,692,688,683,676,663,627,614,605,598,594,589,586,583,581,575,556,520,503,488,477,471,459,451,447],"ymouse":[502,502,502,502,502,502,502,502,502,502,502,502,502,502,502,502,502,502,502,502,502,502,502,502,502,502,502,502,502,502,502,500,467,440,419,403,390,359,345,328,311,273,261,249,237,225,206,197,191,185,177,168,152,144,137,128,122,109,100,96],"timestamp_mouse":[9,38,49,68,89,108,128,148,168,188,208,229,248,270,289,308,328,349,368,389,408,429,448,468,488,509,529,548,568,589,608,628,648,668,688,708,728,748,768,788,808,829,848,868,888,908,929,948,968,989,1009,1029,1048,1068,1088,1109,1128,1148,1168,1188],"xSR":741.5,"ySR":469.95,"xT1":424.9,"yT1":0,"xT2":1058.1,"yT2":0,"toosoon":0,"cond_shown":"equaldotsize","ratio_trial":750,"smaller_num":"15","larger_num":"20","correct_side":1,"subjID":"LauraSofiaRinconAriza11","gender":"1","age":"11","school":"6"},{"start_time":1551794871444,"click_time":1551794872558,"finger_time":1551794872078,"fix_duration":525.6220162644536,"trial":50,"RT":634,"MT":480,"sideResp":2,"stimulus":"img/500/randomdotsizeEA/R/6_Ratio_500_L_9_R_18.png","xmouse":[800,800,800,800,800,800,800,800,800,800,800,800,800,800,800,800,800,800,798,797,796,796,796,796,796,796,797,803,812,820,832,860,873,892,907,933,959,974,986,996,1009,1039,1043,1043,1044,1045,1048,1049,1049,1050,1052,1053,1055,1056,1058,1059],"ymouse":[537,537,537,537,537,537,537,537,537,537,537,537,537,537,537,537,537,537,537,537,537,537,537,537,537,537,530,519,507,495,479,438,415,388,362,316,262,236,215,192,163,101,94,92,91,90,86,84,83,80,77,74,73,71,68,66],"timestamp_mouse":[13,34,55,75,94,114,134,155,174,194,214,234,254,274,295,315,334,354,375,395,414,435,454,474,495,514,534,554,574,594,614,634,654,675,694,714,734,754,774,795,814,834,854,875,894,914,935,954,974,994,1015,1034,1054,1074,1094,1114],"xSR":741.5,"ySR":469.95,"xT1":424.9,"yT1":0,"xT2":1058.1,"yT2":0,"toosoon":0,"cond_shown":"randomdotsizeEA","ratio_trial":500,"smaller_num":"9","larger_num":"18","correct_side":2,"subjID":"LauraSofiaRinconAriza11","gender":"1","age":"11","school":"6"},{"start_time":1551794875371,"click_time":1551794877258,"finger_time":1551794876318,"fix_duration":529.9501615713093,"trial":51,"RT":947,"MT":940,"sideResp":2,"stimulus":"img/500/randomdotsizeEA/R/12_Ratio_500_L_1_R_2.png","xmouse":[791,791,791,791,791,791,791,791,791,791,791,791,791,791,791,791,791,791,791,791,791,791,791,791,791,791,791,791,791,791,791,791,791,791,791,791,791,791,791,791,791,791,791,791,789,780,770,758,744,721,693,681,671,666,663,663,663,663,663,663,663,663,663,664,665,682,699,718,736,759,778,785,796,810,855,882,905,926,944,967,1017,1029,1036,1041,1049,1083,1094,1107,1108,1110,1111,1113,1115,1118,1120],"ymouse":[539,539,539,539,539,539,539,539,539,539,539,539,539,539,539,539,539,539,539,539,539,539,539,539,537,536,536,536,536,536,536,536,536,536,536,536,536,536,536,536,536,536,536,533,528,502,481,458,433,394,343,320,303,291,281,274,272,270,269,268,268,268,268,268,268,275,286,298,311,326,329,329,327,320,299,287,274,262,249,229,194,182,175,170,162,143,137,130,128,125,120,115,111,105,99],"timestamp_mouse":[8,27,47,70,88,108,127,148,167,187,207,228,247,267,287,307,328,347,367,387,407,428,447,467,489,508,527,547,567,587,607,628,648,667,688,707,727,747,767,787,808,827,847,867,886,907,927,947,967,987,1007,1027,1048,1067,1087,1107,1127,1147,1168,1187,1209,1228,1247,1267,1288,1307,1328,1347,1368,1387,1407,1427,1447,1468,1488,1507,1527,1548,1567,1588,1608,1627,1648,1667,1687,1708,1727,1747,1767,1787,1808,1827,1847,1867,1887],"xSR":741.5,"ySR":469.95,"xT1":424.9,"yT1":0,"xT2":1058.1,"yT2":0,"toosoon":0,"cond_shown":"randomdotsizeEA","ratio_trial":500,"smaller_num":"1","larger_num":"2","correct_side":2,"subjID":"LauraSofiaRinconAriza11","gender":"1","age":"11","school":"6"},{"start_time":1551794879411,"click_time":1551794880378,"finger_time":1551794880099,"fix_duration":1311.014700338009,"trial":52,"RT":688,"MT":279,"sideResp":1,"stimulus":"img/250/randomdotsizeEA/L/14_Ratio_250_L_12_R_3.png","xmouse":[798,798,798,798,798,798,798,798,798,798,798,798,798,798,798,798,798,798,798,798,798,798,798,798,798,798,798,798,798,798,796,791,781,755,747,738,730,711,660,631,608,586,566,526,507,491,477,453,442],"ymouse":[527,527,527,527,527,527,527,527,527,527,527,527,527,527,527,527,527,527,527,527,527,527,527,527,527,527,527,527,527,527,527,522,511,477,463,446,425,381,302,265,240,222,204,174,161,150,139,100,81],"timestamp_mouse":[9,33,46,66,88,107,127,148,167,187,208,228,246,266,288,307,328,348,367,386,407,427,448,466,488,508,527,548,567,587,607,627,646,666,688,707,727,746,766,787,806,828,848,866,886,907,928,948,967],"xSR":741.5,"ySR":469.95,"xT1":424.9,"yT1":0,"xT2":1058.1,"yT2":0,"toosoon":0,"cond_shown":"randomdotsizeEA","ratio_trial":250,"smaller_num":"3","larger_num":"12","correct_side":1,"subjID":"LauraSofiaRinconAriza11","gender":"1","age":"11","school":"6"},{"start_time":1551794881870,"click_time":1551794882617,"finger_time":1551794882518,"fix_duration":670.2734769770323,"trial":53,"RT":648,"MT":99,"sideResp":1,"stimulus":"img/250/equaldotanddens/L/3_Ratio_250_L_8_R_2.png","xmouse":[756,756,756,756,756,757,757,757,757,757,757,758,758,759,760,762,762,762,762,762,762,762,762,762,762,762,762,762,762,762,762,759,741,710,638,519,462,426],"ymouse":[533,533,533,533,533,533,534,534,534,534,534,534,534,535,536,537,537,537,537,537,537,537,537,537,537,537,537,537,537,537,534,507,449,386,285,158,100,55],"timestamp_mouse":[8,37,48,67,88,108,129,147,169,189,209,228,248,268,288,307,328,348,368,388,407,427,448,468,488,507,528,548,567,589,608,628,648,667,688,708,728,747],"xSR":741.5,"ySR":469.95,"xT1":424.9,"yT1":0,"xT2":1058.1,"yT2":0,"toosoon":0,"cond_shown":"equaldotanddens","ratio_trial":250,"smaller_num":"2","larger_num":"8","correct_side":1,"subjID":"LauraSofiaRinconAriza11","gender":"1","age":"11","school":"6"},{"start_time":1551794885142,"click_time":1551794886198,"finger_time":1551794885877,"fix_duration":1224.4792858591838,"trial":54,"RT":735,"MT":321,"sideResp":2,"stimulus":"img/500/equaldotsize/R/1_Ratio_500_L_9_R_18.png","xmouse":[774,774,774,774,774,774,774,774,774,774,774,774,774,774,774,774,774,774,774,774,774,774,774,774,774,774,774,774,774,774,774,774,774,777,779,788,797,810,822,835,883,896,910,925,948,976,1004,1015,1027,1038,1065,1123,1149],"ymouse":[499,499,499,499,499,499,499,499,499,499,499,499,499,499,499,499,499,499,499,499,499,499,499,499,499,499,499,499,499,499,499,499,499,497,494,477,464,446,433,417,371,356,336,315,282,250,217,205,190,177,150,105,87],"timestamp_mouse":[24,39,57,76,97,116,137,157,175,196,217,235,256,276,295,317,336,355,376,396,417,436,456,476,496,516,536,556,576,595,617,637,656,675,696,717,735,756,776,796,816,835,856,875,896,916,936,956,976,996,1016,1036,1055],"xSR":741.5,"ySR":469.95,"xT1":424.9,"yT1":0,"xT2":1058.1,"yT2":0,"toosoon":0,"cond_shown":"equaldotsize","ratio_trial":500,"smaller_num":"9","larger_num":"18","correct_side":2,"subjID":"LauraSofiaRinconAriza11","gender":"1","age":"11","school":"6"},{"start_time":1551794887270,"click_time":1551794888978,"finger_time":1551794888318,"fix_duration":250,"trial":55,"RT":1048,"MT":660,"sideResp":2,"stimulus":"img/500/equaldotanddens/R/14_Ratio_500_L_5_R_10.png","xmouse":[811,811,811,811,811,811,811,811,811,811,811,809,808,807,807,807,807,807,807,807,807,807,807,807,807,807,807,807,807,807,807,807,807,807,807,807,807,807,807,807,807,807,807,807,807,807,807,806,807,809,812,821,831,844,864,878,880,883,888,904,912,918,923,935,942,963,973,981,987,995,997,999,1002,1006,1007,1008,1009,1010,1011,1011,1012,1012,1014,1031,1048,1064],"ymouse":[514,514,514,514,514,514,514,514,514,514,514,514,514,514,514,514,514,514,514,514,514,514,514,514,514,514,514,514,514,514,514,514,514,514,514,514,514,514,514,514,514,514,514,514,514,514,514,514,513,507,500,485,466,446,418,400,397,392,383,360,348,339,328,302,278,201,170,149,135,123,117,112,106,101,97,93,92,91,90,90,90,89,89,86,83,80],"timestamp_mouse":[9,38,47,69,88,107,129,148,168,187,208,228,247,269,287,308,329,349,368,389,407,428,449,468,488,507,529,549,567,588,609,627,647,668,689,707,727,747,767,787,809,827,848,868,889,907,929,947,968,989,1008,1028,1048,1068,1088,1107,1128,1147,1169,1189,1208,1229,1248,1269,1288,1307,1328,1347,1368,1389,1407,1428,1447,1468,1488,1507,1528,1547,1568,1589,1607,1627,1648,1668,1688,1708],"xSR":741.5,"ySR":469.95,"xT1":424.9,"yT1":0,"xT2":1058.1,"yT2":0,"toosoon":0,"cond_shown":"equaldotanddens","ratio_trial":500,"smaller_num":"5","larger_num":"10","correct_side":2,"subjID":"LauraSofiaRinconAriza11","gender":"1","age":"11","school":"6"},{"start_time":1551794891509,"click_time":1551794893578,"finger_time":1551794893038,"fix_duration":1349.5069878229979,"trial":56,"RT":1529,"MT":540,"sideResp":2,"stimulus":"img/500/equaldotsize/R/14_Ratio_500_L_5_R_10.png","xmouse":[754,756,756,757,757,758,758,758,758,758,758,758,758,758,758,758,758,758,758,758,758,758,758,758,758,758,758,758,758,758,758,758,758,758,758,758,758,758,759,760,760,760,762,764,764,764,764,765,765,765,766,767,767,768,768,769,769,771,771,772,772,772,772,772,772,772,772,772,772,772,772,772,772,772,772,774,775,777,790,815,874,960,1085,1241,1264,1270,1276,1278,1278,1278,1276,1276,1276,1276,1276,1276,1276,1276,1276,1276,1276,1276,1276,1147],"ymouse":[493,493,493,493,493,494,494,494,495,496,496,496,496,494,493,492,492,492,492,492,492,492,492,492,492,492,492,492,492,492,492,492,492,492,492,492,492,492,491,491,490,490,486,484,484,484,482,482,482,481,481,480,479,478,478,477,477,475,474,474,474,474,473,473,473,473,473,473,473,473,473,473,473,473,473,471,469,467,454,437,404,364,299,184,156,138,115,72,42,32,5,5,5,5,5,5,5,5,5,5,5,5,5,11],"timestamp_mouse":[9,37,49,70,89,109,130,149,169,190,209,229,248,268,289,309,329,348,370,390,408,430,450,468,489,510,529,550,570,589,608,629,650,669,689,709,729,750,770,789,809,828,848,869,889,909,929,950,970,990,1009,1030,1049,1069,1088,1108,1128,1150,1169,1188,1208,1229,1250,1268,1290,1309,1329,1349,1370,1389,1409,1428,1450,1469,1489,1510,1529,1549,1568,1589,1609,1629,1648,1669,1689,1708,1730,1750,1770,1789,1809,1829,1849,1869,1889,1910,1929,1949,1968,1989,2008,2029,2049,2069],"xSR":741.5,"ySR":469.95,"xT1":424.9,"yT1":0,"xT2":1058.1,"yT2":0,"toosoon":0,"cond_shown":"equaldotsize","ratio_trial":500,"smaller_num":"5","larger_num":"10","correct_side":2,"subjID":"LauraSofiaRinconAriza11","gender":"1","age":"11","school":"6"},{"start_time":1551794896849,"click_time":1551794897898,"finger_time":1551794897579,"fix_duration":250,"trial":57,"RT":730,"MT":319,"sideResp":2,"stimulus":"img/500/randomdotsizeEA/R/9_Ratio_500_L_2_R_4.png","xmouse":[791,791,791,791,791,790,787,787,786,786,786,786,786,786,786,786,786,786,786,786,786,786,786,786,786,786,786,786,786,786,786,786,786,786,792,796,829,849,870,887,933,954,983,996,1007,1025,1032,1034,1036,1037,1040,1056,1075],"ymouse":[487,487,487,487,487,490,495,496,498,498,498,498,498,498,498,498,498,498,498,498,498,498,498,498,498,498,498,498,498,498,498,498,498,498,488,483,445,422,395,373,286,240,194,177,159,129,120,118,114,113,110,98,89],"timestamp_mouse":[8,43,50,68,89,109,130,149,170,190,209,229,250,268,288,310,330,349,368,388,410,428,450,469,489,509,528,549,570,590,610,628,648,669,689,709,730,749,769,789,810,828,849,870,889,909,928,949,969,989,1010,1028,1048],"xSR":741.5,"ySR":469.95,"xT1":424.9,"yT1":0,"xT2":1058.1,"yT2":0,"toosoon":0,"cond_shown":"randomdotsizeEA","ratio_trial":500,"smaller_num":"2","larger_num":"4","correct_side":2,"subjID":"LauraSofiaRinconAriza11","gender":"1","age":"11","school":"6"},{"start_time":1551794902058,"click_time":1551794903578,"finger_time":1551794902977,"fix_duration":737.2856293978215,"trial":58,"RT":919,"MT":601,"sideResp":1,"stimulus":"img/500/randomdotsizeEA/L/11_Ratio_500_L_12_R_6.png","xmouse":[797,797,797,797,797,797,797,797,797,797,797,797,797,797,797,797,797,797,797,797,797,797,797,797,797,797,797,797,797,797,797,797,797,797,797,797,797,797,797,797,797,797,797,797,797,795,785,779,775,771,760,752,744,737,730,723,716,714,710,703,665,639,620,606,597,584,581,576,570,565,558,555,553,550,543,532,502],"ymouse":[488,488,488,488,488,488,488,488,488,488,488,488,488,488,488,488,488,488,488,488,488,488,488,488,488,488,488,488,488,488,488,488,488,488,488,488,488,488,488,488,488,488,486,484,483,476,439,415,389,368,323,303,288,272,259,243,227,221,214,202,162,139,124,114,108,96,93,91,89,88,85,85,84,83,82,81,76],"timestamp_mouse":[9,31,40,61,81,100,120,140,161,180,200,221,241,260,280,301,320,341,359,379,401,419,440,460,480,501,519,539,560,580,600,621,640,659,681,701,720,740,760,781,800,820,840,859,880,900,919,939,959,980,1001,1019,1040,1060,1081,1100,1119,1140,1160,1180,1201,1219,1239,1261,1280,1301,1319,1340,1360,1380,1401,1419,1440,1460,1481,1500,1520],"xSR":741.5,"ySR":469.95,"xT1":424.9,"yT1":0,"xT2":1058.1,"yT2":0,"toosoon":0,"cond_shown":"randomdotsizeEA","ratio_trial":500,"smaller_num":"6","larger_num":"12","correct_side":1,"subjID":"LauraSofiaRinconAriza11","gender":"1","age":"11","school":"6"},{"start_time":1551794904470,"click_time":1551794906078,"finger_time":1551794905277,"fix_duration":250,"trial":59,"RT":807,"MT":801,"sideResp":2,"stimulus":"img/750/equaldotanddens/R/12_Ratio_750_L_3_R_4.png","xmouse":[805,805,805,805,805,804,804,804,804,804,804,804,804,804,804,804,804,804,804,804,804,804,804,804,804,804,804,804,804,804,804,807,809,811,818,827,830,833,837,841,854,862,873,890,915,938,943,952,961,973,976,980,984,985,993,1009,1018,1025,1032,1038,1041,1042,1042,1042,1042,1042,1042,1042,1042,1042,1042,1042,1042,1043,1044,1044,1045,1045,1046,1053,1062],"ymouse":[551,551,551,551,551,549,549,549,549,549,549,549,549,549,549,549,549,549,549,549,548,548,548,548,548,548,548,548,548,548,548,545,544,543,538,532,530,527,524,520,507,496,477,446,391,330,310,287,267,237,230,221,213,210,192,158,138,123,107,94,83,82,82,82,82,82,82,82,82,82,82,82,82,82,81,81,80,80,79,77,75],"timestamp_mouse":[9,42,48,67,88,107,129,149,168,187,208,228,249,268,289,308,329,347,368,389,408,427,449,469,488,508,529,549,568,589,608,628,648,669,687,707,728,748,767,787,807,829,848,868,887,908,927,948,968,988,1008,1028,1047,1068,1088,1108,1128,1147,1169,1187,1207,1229,1248,1268,1288,1309,1327,1347,1369,1389,1408,1428,1448,1469,1489,1508,1527,1548,1567,1589,1608],"xSR":741.5,"ySR":469.95,"xT1":424.9,"yT1":0,"xT2":1058.1,"yT2":0,"toosoon":0,"cond_shown":"equaldotanddens","ratio_trial":750,"smaller_num":"3","larger_num":"4","correct_side":2,"subjID":"LauraSofiaRinconAriza11","gender":"1","age":"11","school":"6"},{"start_time":1551794907672,"click_time":1551794909459,"finger_time":1551794908977,"fix_duration":611.0027636774079,"trial":60,"RT":1305,"MT":482,"sideResp":1,"stimulus":"img/500/randomdotsizeEA/L/4_Ratio_500_L_18_R_9.png","xmouse":[812,812,812,812,812,812,812,812,812,812,812,812,812,812,812,812,812,812,812,812,812,812,812,812,812,812,812,812,813,813,813,814,814,814,814,814,814,814,814,814,814,815,815,815,815,815,815,815,815,815,815,815,815,815,815,815,815,815,815,815,816,816,816,816,810,792,778,759,740,721,698,686,670,649,611,568,554,547,541,540,540,540,540,540,540,538,535,530,522,508],"ymouse":[554,554,554,554,554,554,554,554,554,554,554,554,554,554,554,554,554,554,554,554,554,554,554,554,554,554,554,554,552,551,550,549,549,549,549,549,549,548,548,547,546,545,545,545,545,545,545,545,545,545,545,545,545,545,545,545,545,545,542,541,536,532,526,515,491,435,395,349,302,258,217,200,184,171,156,140,135,131,127,127,127,127,127,127,127,121,117,110,101,87],"timestamp_mouse":[8,39,45,66,87,106,125,147,166,185,207,226,247,266,287,306,326,346,367,386,405,426,447,467,487,506,526,545,566,586,605,626,645,667,685,707,725,747,767,786,805,826,847,867,885,905,926,946,967,985,1007,1026,1045,1066,1087,1105,1127,1146,1166,1186,1206,1226,1246,1267,1286,1305,1325,1345,1365,1386,1405,1425,1447,1466,1486,1506,1526,1547,1567,1587,1605,1626,1647,1666,1686,1706,1726,1747,1766,1787],"xSR":741.5,"ySR":469.95,"xT1":424.9,"yT1":0,"xT2":1058.1,"yT2":0,"toosoon":0,"cond_shown":"randomdotsizeEA","ratio_trial":500,"smaller_num":"9","larger_num":"18","correct_side":1,"subjID":"LauraSofiaRinconAriza11","gender":"1","age":"11","school":"6"},{"start_time":1551794911202,"click_time":1551794913018,"finger_time":1551794912358,"fix_duration":603.0451700766482,"trial":61,"RT":1156,"MT":660,"sideResp":1,"stimulus":"img/900/equaldotanddens/L/4_Ratio_900_L_20_R_18.png","xmouse":[791,791,791,791,791,791,791,791,791,791,791,791,791,791,791,791,791,791,791,791,791,791,791,791,791,791,791,791,791,791,791,791,791,791,791,791,791,791,791,791,791,791,791,791,791,791,791,791,791,791,791,791,791,791,791,785,760,708,670,664,662,662,662,662,662,659,658,654,648,644,640,633,619,610,602,593,584,577,567,562,557,551,541,539,537,535,533,532,527,525,522],"ymouse":[528,528,528,528,528,528,528,528,528,528,528,528,528,528,528,528,528,528,528,528,528,528,528,528,528,528,528,528,528,528,528,528,528,528,528,528,528,528,528,528,528,528,528,528,528,528,527,526,526,526,526,526,526,526,520,510,479,436,406,399,395,391,382,378,373,368,361,351,328,312,293,271,225,206,187,174,159,150,135,129,120,113,101,97,92,90,87,87,87,87,87],"timestamp_mouse":[21,39,56,77,95,115,137,157,175,196,216,235,257,277,295,317,336,355,377,396,416,437,457,477,496,516,536,557,575,596,616,636,655,677,695,716,737,756,777,797,815,836,856,877,897,915,936,957,976,995,1017,1036,1057,1075,1097,1116,1135,1156,1176,1196,1216,1236,1257,1276,1296,1316,1336,1356,1377,1396,1415,1435,1456,1475,1496,1517,1536,1556,1575,1595,1616,1636,1657,1676,1696,1717,1736,1756,1776,1796,1816],"xSR":741.5,"ySR":469.95,"xT1":424.9,"yT1":0,"xT2":1058.1,"yT2":0,"toosoon":0,"cond_shown":"equaldotanddens","ratio_trial":900,"smaller_num":"18","larger_num":"20","correct_side":1,"subjID":"LauraSofiaRinconAriza11","gender":"1","age":"11","school":"6"},{"start_time":1551794917281,"click_time":1551794918478,"finger_time":1551794917979,"fix_duration":1242.3509098606273,"trial":62,"RT":698,"MT":499,"sideResp":1,"stimulus":"img/250/randomdotsizeEA/L/1_Ratio_250_L_8_R_2.png","xmouse":[767,766,766,766,765,765,765,765,765,763,761,760,759,758,758,758,758,758,758,758,758,758,758,758,758,758,758,758,758,758,758,756,755,753,744,737,732,724,713,682,664,647,634,615,609,605,599,595,591,582,581,579,579,579,576,573,565,551,529,491],"ymouse":[491,489,488,488,488,488,488,488,488,486,486,485,484,484,484,483,483,483,483,483,483,483,483,483,483,483,483,483,483,483,483,482,479,475,454,438,417,389,346,271,237,206,182,145,135,127,118,111,103,93,92,91,91,91,88,84,78,71,62,48],"timestamp_mouse":[17,42,58,77,97,118,138,157,176,196,217,237,257,276,298,318,337,357,377,398,417,438,458,476,496,517,537,556,576,597,617,636,657,677,698,717,737,757,778,796,816,838,857,878,897,917,936,957,977,997,1017,1037,1057,1078,1097,1116,1138,1157,1177,1197],"xSR":741.5,"ySR":469.95,"xT1":424.9,"yT1":0,"xT2":1058.1,"yT2":0,"toosoon":0,"cond_shown":"randomdotsizeEA","ratio_trial":250,"smaller_num":"2","larger_num":"8","correct_side":1,"subjID":"LauraSofiaRinconAriza11","gender":"1","age":"11","school":"6"},{"start_time":1551794920533,"click_time":1551794921598,"finger_time":1551794921198,"fix_duration":893.9550815779426,"trial":63,"RT":665,"MT":400,"sideResp":1,"stimulus":"img/250/equaldotanddens/L/5_Ratio_250_L_24_R_6.png","xmouse":[806,806,806,806,806,806,806,806,806,806,806,806,806,806,806,806,806,806,806,806,806,806,806,806,806,806,806,806,806,806,802,800,794,784,772,753,726,694,681,668,656,638,613,602,594,590,584,579,579,579,578,573,544,524],"ymouse":[534,534,534,534,534,534,534,534,534,534,534,534,534,534,534,534,534,534,534,534,534,534,534,534,534,534,534,534,534,533,526,522,493,468,436,395,349,285,258,229,204,169,135,120,112,107,102,99,99,99,98,98,86,77],"timestamp_mouse":[8,26,45,65,86,106,125,144,165,184,205,224,244,265,285,305,324,345,365,386,404,426,444,466,486,506,525,544,565,585,604,625,644,665,685,704,725,744,765,785,805,824,845,865,885,905,924,945,965,985,1004,1024,1044,1064],"xSR":741.5,"ySR":469.95,"xT1":424.9,"yT1":0,"xT2":1058.1,"yT2":0,"toosoon":0,"cond_shown":"equaldotanddens","ratio_trial":250,"smaller_num":"6","larger_num":"24","correct_side":1,"subjID":"LauraSofiaRinconAriza11","gender":"1","age":"11","school":"6"},{"start_time":1551794923712,"click_time":1551794925858,"finger_time":1551794925338,"fix_duration":1173.5065911085183,"trial":64,"RT":1626,"MT":520,"sideResp":1,"stimulus":"img/900/equaldotanddens/L/10_Ratio_900_L_20_R_18.png","xmouse":[789,789,789,789,789,789,789,789,789,789,789,789,789,789,789,789,789,789,789,789,789,789,789,789,789,789,789,789,789,789,789,789,789,789,789,789,789,789,789,789,789,789,789,789,789,789,789,789,789,789,789,789,789,789,789,789,789,789,789,789,789,789,789,789,789,789,789,789,789,789,789,789,789,789,789,789,789,789,789,783,770,711,675,625,621,621,621,621,621,621,621,621,619,609,600,589,578,568,553,545,540,534,530,528,528,527,527,524],"ymouse":[505,505,505,505,505,505,505,505,505,505,505,505,505,505,505,505,505,505,505,505,505,505,505,505,505,505,505,505,505,505,505,505,505,505,505,505,505,505,505,505,505,505,505,505,505,505,505,505,505,505,505,505,505,505,505,505,505,505,505,505,505,505,505,505,505,505,505,505,505,505,505,505,505,505,505,505,505,505,505,490,477,421,374,275,249,235,230,228,228,228,228,227,221,199,183,168,154,138,108,92,80,69,63,61,61,60,60,59],"timestamp_mouse":[9,32,47,66,85,106,125,146,167,186,205,226,245,265,286,306,326,346,366,385,405,426,446,465,487,506,526,547,565,587,606,626,646,666,686,707,727,746,766,785,807,825,845,866,886,905,927,947,965,986,1006,1025,1047,1065,1086,1106,1127,1146,1166,1185,1206,1227,1246,1267,1287,1306,1326,1346,1366,1386,1406,1426,1446,1467,1486,1506,1526,1546,1566,1587,1606,1626,1646,1666,1687,1707,1726,1747,1766,1786,1805,1825,1845,1866,1886,1906,1926,1945,1965,1986,2006,2025,2047,2066,2086,2106,2126,2146],"xSR":741.5,"ySR":469.95,"xT1":424.9,"yT1":0,"xT2":1058.1,"yT2":0,"toosoon":0,"cond_shown":"equaldotanddens","ratio_trial":900,"smaller_num":"18","larger_num":"20","correct_side":1,"subjID":"LauraSofiaRinconAriza11","gender":"1","age":"11","school":"6"},{"start_time":1551794931312,"click_time":15517949349