[{"start_time":1551793953114,"click_time":1551793954635,"finger_time":1551793954135,"fix_duration":1156.6699615539383,"trial":0,"RT":1021,"MT":500,"sideResp":2,"stimulus":[],"xmouse":[770,770,770,770,770,770,770,770,770,770,770,770,770,770,770,770,770,770,770,770,770,770,770,770,770,770,770,770,770,770,770,770,770,770,770,770,770,770,770,770,770,770,770,770,771,773,776,781,795,803,815,822,833,849,861,875,891,907,932,940,944,948,956,979,991,999,1004,1006,1009,1013,1020,1035,1053,1085,1094,1102],"ymouse":[553,553,553,553,553,553,553,553,553,553,553,553,553,553,553,553,553,553,553,553,553,553,553,553,553,553,553,553,553,553,553,553,553,553,553,553,553,553,553,553,553,553,553,553,553,549,540,527,491,473,449,431,406,368,348,329,312,298,278,270,262,252,235,214,207,200,194,188,176,170,162,151,140,117,106,96],"timestamp_mouse":[9,39,59,81,99,120,140,160,179,200,221,239,260,279,299,319,340,359,380,400,421,439,459,480,500,521,540,560,579,599,621,639,659,681,700,719,740,760,781,799,821,840,859,880,900,921,940,959,979,1001,1021,1039,1060,1079,1100,1119,1139,1160,1179,1199,1220,1241,1260,1280,1299,1319,1340,1361,1380,1400,1421,1439,1459,1479,1499,1520],"xSR":741.5,"ySR":501.8,"xT1":424.9,"yT1":0,"xT2":1058.1,"yT2":0,"toosoon":0,"cond_shown":"Congruent","ratio_trial":100,"L_num":1,"L_den":2,"R_num":18,"R_den":30,"correct_side":2,"subjID":"LauraSofiaRinconAriza11","gender":"1","age":"11","school":"6","test":{"fix_dur":[250,1500],"timestim":1000,"targets_dim":[100,100],"targets_relative_coord":[0.3,0.7],"size_stim":[880,420],"start_dim":[100,100],"size_start":[300,300],"size_fix":60,"samplingrate":20,"img_types":["Congruent","Incongruent"],"ratios":[100,200,300],"rep_conds":19,"nTrials":120,"trials_to_rest":500,"Trials_order":[6,38,94,17,35,46,78,0,93,104,65,56,82,116,71,66,81,70,96,90,24,117,115,86,18,23,8,13,68,119,58,101,80,110,97,52,29,47,109,105,76,107,99,43,102,11,16,74,67,30,2,113,100,39,32,28,92,118,84,59,98,40,63,87,26,21,15,54,22,48,33,34,69,114,19,72,89,75,106,57,85,111,73,7,62,61,45,14,9,25,44,103,88,3,4,79,10,37,49,77,36,60,64,50,1,112,55,51,91,12,27,5,20,83,41,31,53,42,95,108],"cond_shown":["Congruent","Congruent","Congruent","Incongruent","Incongruent","Congruent","Congruent","Congruent","Incongruent","Congruent","Incongruent","Congruent","Congruent","Congruent","Incongruent","Congruent","Incongruent","Congruent","Congruent","Congruent","Congruent","Incongruent","Incongruent","Congruent","Congruent","Incongruent","Congruent","Incongruent","Congruent","Incongruent","Congruent","Incongruent","Congruent","Congruent","Incongruent","Congruent","Incongruent","Incongruent","Incongruent","Incongruent","Congruent","Incongruent","Incongruent","Incongruent","Congruent","Incongruent","Congruent","Congruent","Incongruent","Congruent","Congruent","Incongruent","Congruent","Incongruent","Congruent","Congruent","Congruent","Congruent","Congruent","Incongruent","Congruent","Congruent","Incongruent","Incongruent","Congruent","Incongruent","Incongruent","Congruent","Congruent","Congruent","Incongruent","Congruent","Incongruent","Congruent","Incongruent","Congruent","Incongruent","Incongruent","Congruent","Incongruent","Incongruent","Incongruent","Incongruent","Incongruent","Congruent","Incongruent","Incongruent","Congruent","Incongruent","Incongruent","Congruent","Incongruent","Congruent","Incongruent","Congruent","Incongruent","Congruent","Incongruent","Incongruent","Incongruent","Congruent","Congruent","Congruent","Congruent","Incongruent","Congruent","Incongruent","Incongruent","Incongruent","Congruent","Incongruent","Incongruent","Congruent","Incongruent","Incongruent","Incongruent","Incongruent","Congruent","Incongruent","Congruent"],"ratio_trial":[100,200,300,300,300,300,100,100,200,200,300,200,300,200,300,100,200,300,100,100,100,200,100,200,100,300,200,100,200,300,300,300,200,200,100,300,300,300,100,200,300,300,200,100,100,300,300,200,100,100,200,300,300,200,200,300,200,300,100,300,200,300,200,200,200,200,200,100,300,100,200,300,200,100,100,100,300,200,300,200,100,200,100,100,200,100,200,200,200,100,200,100,300,200,300,100,300,100,100,300,100,100,300,200,100,300,100,200,100,100,200,300,200,300,300,100,300,100,300,100],"left_num":[1,7,20,2,4,4,9,10,7,13,13,4,18,16,4,11,9,11,12,12,7,7,9,5,12,4,13,2,9,4,20,4,16,9,3,4,13,2,6,4,8,1,1,9,6,13,5,13,6,9,12,4,1,11,13,8,9,5,11,1,8,1,3,11,1,7,7,8,5,1,14,18,14,4,6,15,7,4,5,1,4,4,6,3,14,6,4,21,3,2,3,6,20,7,1,9,20,10,9,1,7,9,24,14,1,8,2,3,2,1,7,1,7,3,13,3,4,1,8,15],"right_num":[18,2,8,6,2,13,8,3,6,14,12,3,9,12,8,4,8,2,13,13,9,12,20,14,13,2,14,8,4,8,14,2,12,4,7,2,12,6,7,14,1,3,2,6,15,12,6,14,7,8,6,2,6,3,14,1,13,7,6,2,3,8,11,3,21,14,8,2,6,3,6,9,6,6,3,13,8,6,7,2,8,1,7,11,6,3,1,2,1,8,9,11,9,12,6,6,8,8,6,2,9,8,2,6,8,10,8,11,6,3,4,3,2,4,12,4,6,18,14,13],"left_den":[2,21,25,4,20,20,15,25,15,26,26,8,20,20,5,22,15,22,30,30,14,10,10,10,30,20,26,4,20,5,25,20,20,20,9,5,26,4,10,6,16,2,3,18,12,26,25,26,10,15,15,20,5,20,26,16,30,25,22,2,15,30,4,20,2,10,10,16,25,2,30,20,30,8,12,25,10,5,25,3,8,30,10,5,28,12,30,30,10,4,12,10,25,10,5,18,25,25,18,2,14,15,30,28,2,15,4,4,4,2,15,2,21,6,26,6,5,2,10,25],"right_den":[30,15,16,30,4,26,16,10,9,20,15,10,15,20,16,10,10,10,26,26,15,24,25,20,26,4,20,20,16,16,28,4,20,16,30,4,15,30,14,30,5,15,15,10,25,15,12,20,14,16,10,4,12,4,20,5,26,14,15,10,9,24,20,4,30,28,16,5,12,5,9,15,9,10,5,26,20,10,14,15,20,3,14,22,20,5,3,4,2,20,20,22,18,24,12,10,16,16,10,10,15,16,4,20,20,12,20,20,15,5,6,15,15,20,15,10,12,30,28,26],"correct_side":[2,1,1,1,2,2,1,1,2,2,2,1,1,1,1,1,2,1,2,2,2,1,1,2,2,2,2,1,1,1,1,2,1,1,1,1,2,1,1,1,1,1,1,2,2,2,2,2,1,1,1,2,2,2,2,1,2,2,1,1,1,2,1,2,2,1,1,1,2,2,2,1,2,2,2,1,1,1,2,1,1,2,1,1,1,2,2,1,2,1,2,1,1,1,2,2,1,2,2,1,2,1,1,1,1,2,1,1,1,2,2,1,1,1,2,1,1,2,1,1],"img_shown":["img2/100/Congruent/R/C_Dist_100_LN_1_LD_2_RN_18_RD_30_1.png","img2/200/Congruent/L/C_Dist_200_LN_7_LD_21_RN_2_RD_15_0.png","img2/300/Congruent/L/C_Dist_300_LN_20_LD_25_RN_8_RD_16_0.png","img2/300/Incongruent/L/I_Dist_300_LN_2_LD_4_RN_6_RD_30_0.png","img2/300/Incongruent/R/I_Dist_300_LN_4_LD_20_RN_2_RD_4_1.png","img2/300/Congruent/R/C_Dist_300_LN_4_LD_20_RN_13_RD_26_1.png","img2/100/Congruent/L/C_Dist_100_LN_9_LD_15_RN_8_RD_16_0.png","img2/100/Congruent/L/C_Dist_100_LN_10_LD_25_RN_3_RD_10_0.png","img2/200/Incongruent/R/I_Dist_200_LN_7_LD_15_RN_6_RD_9_1.png","img2/200/Congruent/R/C_Dist_200_LN_13_LD_26_RN_14_RD_20_1.png","img2/300/Incongruent/R/I_Dist_300_LN_13_LD_26_RN_12_RD_15_1.png","img2/200/Congruent/L/C_Dist_200_LN_4_LD_8_RN_3_RD_10_0.png","img2/300/Congruent/L/C_Dist_300_LN_18_LD_20_RN_9_RD_15_0.png","img2/200/Congruent/L/C_Dist_200_LN_16_LD_20_RN_12_RD_20_0.png","img2/300/Incongruent/L/I_Dist_300_LN_4_LD_5_RN_8_RD_16_0.png","img2/100/Congruent/L/C_Dist_100_LN_11_LD_22_RN_4_RD_10_0.png","img2/200/Incongruent/R/I_Dist_200_LN_9_LD_15_RN_8_RD_10_1.png","img2/300/Congruent/L/C_Dist_300_LN_11_LD_22_RN_2_RD_10_0.png","img2/100/Congruent/R/C_Dist_100_LN_12_LD_30_RN_13_RD_26_1.png","img2/100/Congruent/R/C_Dist_100_LN_12_LD_30_RN_13_RD_26_1.png","img2/100/Congruent/R/C_Dist_100_LN_7_LD_14_RN_9_RD_15_1.png","img2/200/Incongruent/L/I_Dist_200_LN_7_LD_10_RN_12_RD_24_0.png","img2/100/Incongruent/L/I_Dist_100_LN_9_LD_10_RN_20_RD_25_0.png","img2/200/Congruent/R/C_Dist_200_LN_5_LD_10_RN_14_RD_20_1.png","img2/100/Congruent/R/C_Dist_100_LN_12_LD_30_RN_13_RD_26_1.png","img2/300/Incongruent/R/I_Dist_300_LN_4_LD_20_RN_2_RD_4_1.png","img2/200/Congruent/R/C_Dist_200_LN_13_LD_26_RN_14_RD_20_1.png","img2/100/Incongruent/L/I_Dist_100_LN_2_LD_4_RN_8_RD_20_0.png","img2/200/Congruent/L/C_Dist_200_LN_9_LD_20_RN_4_RD_16_0.png","img2/300/Incongruent/L/I_Dist_300_LN_4_LD_5_RN_8_RD_16_0.png","img2/300/Congruent/L/C_Dist_300_LN_20_LD_25_RN_14_RD_28_0.png","img2/300/Incongruent/R/I_Dist_300_LN_4_LD_20_RN_2_RD_4_1.png","img2/200/Congruent/L/C_Dist_200_LN_16_LD_20_RN_12_RD_20_0.png","img2/200/Congruent/L/C_Dist_200_LN_9_LD_20_RN_4_RD_16_0.png","img2/100/Incongruent/L/I_Dist_100_LN_3_LD_9_RN_7_RD_30_0.png","img2/300/Congruent/L/C_Dist_300_LN_4_LD_5_RN_2_RD_4_0.png","img2/300/Incongruent/R/I_Dist_300_LN_13_LD_26_RN_12_RD_15_1.png","img2/300/Incongruent/L/I_Dist_300_LN_2_LD_4_RN_6_RD_30_0.png","img2/100/Incongruent/L/I_Dist_100_LN_6_LD_10_RN_7_RD_14_0.png","img2/200/Incongruent/L/I_Dist_200_LN_4_LD_6_RN_14_RD_30_0.png","img2/300/Congruent/L/C_Dist_300_LN_8_LD_16_RN_1_RD_5_0.png","img2/300/Incongruent/L/I_Dist_300_LN_1_LD_2_RN_3_RD_15_0.png","img2/200/Incongruent/L/I_Dist_200_LN_1_LD_3_RN_2_RD_15_0.png","img2/100/Incongruent/R/I_Dist_100_LN_9_LD_18_RN_6_RD_10_1.png","img2/100/Congruent/R/C_Dist_100_LN_6_LD_12_RN_15_RD_25_1.png","img2/300/Incongruent/R/I_Dist_300_LN_13_LD_26_RN_12_RD_15_1.png","img2/300/Congruent/R/C_Dist_300_LN_5_LD_25_RN_6_RD_12_1.png","img2/200/Congruent/R/C_Dist_200_LN_13_LD_26_RN_14_RD_20_1.png","img2/100/Incongruent/L/I_Dist_100_LN_6_LD_10_RN_7_RD_14_0.png","img2/100/Congruent/L/C_Dist_100_LN_9_LD_15_RN_8_RD_16_0.png","img2/200/Congruent/L/C_Dist_200_LN_12_LD_15_RN_6_RD_10_0.png","img2/300/Incongruent/R/I_Dist_300_LN_4_LD_20_RN_2_RD_4_1.png","img2/300/Congruent/R/C_Dist_300_LN_1_LD_5_RN_6_RD_12_1.png","img2/200/Incongruent/R/I_Dist_200_LN_11_LD_20_RN_3_RD_4_1.png","img2/200/Congruent/R/C_Dist_200_LN_13_LD_26_RN_14_RD_20_1.png","img2/300/Congruent/L/C_Dist_300_LN_8_LD_16_RN_1_RD_5_0.png","img2/200/Congruent/R/C_Dist_200_LN_9_LD_30_RN_13_RD_26_1.png","img2/300/Congruent/R/C_Dist_300_LN_5_LD_25_RN_7_RD_14_1.png","img2/100/Congruent/L/C_Dist_100_LN_11_LD_22_RN_6_RD_15_0.png","img2/300/Incongruent/L/I_Dist_300_LN_1_LD_2_RN_2_RD_10_0.png","img2/200/Congruent/L/C_Dist_200_LN_8_LD_15_RN_3_RD_9_0.png","img2/300/Congruent/R/C_Dist_300_LN_1_LD_30_RN_8_RD_24_1.png","img2/200/Incongruent/L/I_Dist_200_LN_3_LD_4_RN_11_RD_20_0.png","img2/200/Incongruent/R/I_Dist_200_LN_11_LD_20_RN_3_RD_4_1.png","img2/200/Congruent/R/C_Dist_200_LN_1_LD_2_RN_21_RD_30_1.png","img2/200/Incongruent/L/I_Dist_200_LN_7_LD_10_RN_14_RD_28_0.png","img2/200/Incongruent/L/I_Dist_200_LN_7_LD_10_RN_8_RD_16_0.png","img2/100/Congruent/L/C_Dist_100_LN_8_LD_16_RN_2_RD_5_0.png","img2/300/Congruent/R/C_Dist_300_LN_5_LD_25_RN_6_RD_12_1.png","img2/100/Congruent/R/C_Dist_100_LN_1_LD_2_RN_3_RD_5_1.png","img2/200/Incongruent/R/I_Dist_200_LN_14_LD_30_RN_6_RD_9_1.png","img2/300/Congruent/L/C_Dist_300_LN_18_LD_20_RN_9_RD_15_0.png","img2/200/Incongruent/R/I_Dist_200_LN_14_LD_30_RN_6_RD_9_1.png","img2/100/Congruent/R/C_Dist_100_LN_4_LD_8_RN_6_RD_10_1.png","img2/100/Incongruent/R/I_Dist_100_LN_6_LD_12_RN_3_RD_5_1.png","img2/100/Congruent/L/C_Dist_100_LN_15_LD_25_RN_13_RD_26_0.png","img2/300/Incongruent/L/I_Dist_300_LN_7_LD_10_RN_8_RD_20_0.png","img2/200/Incongruent/L/I_Dist_200_LN_4_LD_5_RN_6_RD_10_0.png","img2/300/Congruent/R/C_Dist_300_LN_5_LD_25_RN_7_RD_14_1.png","img2/200/Incongruent/L/I_Dist_200_LN_1_LD_3_RN_2_RD_15_0.png","img2/100/Incongruent/L/I_Dist_100_LN_4_LD_8_RN_8_RD_20_0.png","img2/200/Incongruent/R/I_Dist_200_LN_4_LD_30_RN_1_RD_3_1.png","img2/100/Incongruent/L/I_Dist_100_LN_6_LD_10_RN_7_RD_14_0.png","img2/100/Incongruent/L/I_Dist_100_LN_3_LD_5_RN_11_RD_22_0.png","img2/200/Congruent/L/C_Dist_200_LN_14_LD_28_RN_6_RD_20_0.png","img2/100/Incongruent/R/I_Dist_100_LN_6_LD_12_RN_3_RD_5_1.png","img2/200/Incongruent/R/I_Dist_200_LN_4_LD_30_RN_1_RD_3_1.png","img2/200/Congruent/L/C_Dist_200_LN_21_LD_30_RN_2_RD_4_0.png","img2/200/Incongruent/R/I_Dist_200_LN_3_LD_10_RN_1_RD_2_1.png","img2/100/Incongruent/L/I_Dist_100_LN_2_LD_4_RN_8_RD_20_0.png","img2/200/Congruent/R/C_Dist_200_LN_3_LD_12_RN_9_RD_20_1.png","img2/100/Incongruent/L/I_Dist_100_LN_6_LD_10_RN_11_RD_22_0.png","img2/300/Congruent/L/C_Dist_300_LN_20_LD_25_RN_9_RD_18_0.png","img2/200/Incongruent/L/I_Dist_200_LN_7_LD_10_RN_12_RD_24_0.png","img2/300/Congruent/R/C_Dist_300_LN_1_LD_5_RN_6_RD_12_1.png","img2/100/Incongruent/R/I_Dist_100_LN_9_LD_18_RN_6_RD_10_1.png","img2/300/Congruent/L/C_Dist_300_LN_20_LD_25_RN_8_RD_16_0.png","img2/100/Incongruent/R/I_Dist_100_LN_10_LD_25_RN_8_RD_16_1.png","img2/100/Incongruent/R/I_Dist_100_LN_9_LD_18_RN_6_RD_10_1.png","img2/300/Incongruent/L/I_Dist_300_LN_1_LD_2_RN_2_RD_10_0.png","img2/100/Congruent/R/C_Dist_100_LN_7_LD_14_RN_9_RD_15_1.png","img2/100/Congruent/L/C_Dist_100_LN_9_LD_15_RN_8_RD_16_0.png","img2/300/Congruent/L/C_Dist_300_LN_24_LD_30_RN_2_RD_4_0.png","img2/200/Congruent/L/C_Dist_200_LN_14_LD_28_RN_6_RD_20_0.png","img2/100/Incongruent/L/I_Dist_100_LN_1_LD_2_RN_8_RD_20_0.png","img2/300/Congruent/R/C_Dist_300_LN_8_LD_15_RN_10_RD_12_1.png","img2/100/Incongruent/L/I_Dist_100_LN_2_LD_4_RN_8_RD_20_0.png","img2/200/Incongruent/L/I_Dist_200_LN_3_LD_4_RN_11_RD_20_0.png","img2/100/Incongruent/L/I_Dist_100_LN_2_LD_4_RN_6_RD_15_0.png","img2/100/Congruent/R/C_Dist_100_LN_1_LD_2_RN_3_RD_5_1.png","img2/200/Incongruent/R/I_Dist_200_LN_7_LD_15_RN_4_RD_6_1.png","img2/300/Incongruent/L/I_Dist_300_LN_1_LD_2_RN_3_RD_15_0.png","img2/200/Congruent/L/C_Dist_200_LN_7_LD_21_RN_2_RD_15_0.png","img2/300/Incongruent/L/I_Dist_300_LN_3_LD_6_RN_4_RD_20_0.png","img2/300/Incongruent/R/I_Dist_300_LN_13_LD_26_RN_12_RD_15_1.png","img2/100/Incongruent/L/I_Dist_100_LN_3_LD_6_RN_4_RD_10_0.png","img2/300/Incongruent/L/I_Dist_300_LN_4_LD_5_RN_6_RD_12_0.png","img2/100/Congruent/R/C_Dist_100_LN_1_LD_2_RN_18_RD_30_1.png","img2/300/Incongruent/L/I_Dist_300_LN_8_LD_10_RN_14_RD_28_0.png","img2/100/Congruent/L/C_Dist_100_LN_15_LD_25_RN_13_RD_26_0.png"],"dist100_C":[["C_Dist_100_LN_10_LD_25_RN_3_RD_10_0.png","C_Dist_100_LN_11_LD_22_RN_4_RD_10_0.png","C_Dist_100_LN_11_LD_22_RN_6_RD_15_0.png","C_Dist_100_LN_15_LD_25_RN_13_RD_26_0.png","C_Dist_100_LN_3_LD_6_RN_2_RD_5_0.png","C_Dist_100_LN_6_LD_20_RN_5_RD_25_0.png","C_Dist_100_LN_8_LD_16_RN_2_RD_5_0.png","C_Dist_100_LN_9_LD_15_RN_8_RD_16_0.png"],["C_Dist_100_LN_1_LD_2_RN_18_RD_30_1.png","C_Dist_100_LN_1_LD_2_RN_3_RD_5_1.png","C_Dist_100_LN_12_LD_30_RN_13_RD_26_1.png","C_Dist_100_LN_2_LD_5_RN_11_RD_22_1.png","C_Dist_100_LN_2_LD_5_RN_6_RD_12_1.png","C_Dist_100_LN_3_LD_20_RN_4_RD_16_1.png","C_Dist_100_LN_4_LD_10_RN_15_RD_30_1.png","C_Dist_100_LN_4_LD_8_RN_6_RD_10_1.png","C_Dist_100_LN_6_LD_12_RN_15_RD_25_1.png","C_Dist_100_LN_7_LD_14_RN_15_RD_25_1.png","C_Dist_100_LN_7_LD_14_RN_9_RD_15_1.png"]],"dist100_I":[["I_Dist_100_LN_1_LD_2_RN_8_RD_20_0.png","I_Dist_100_LN_2_LD_4_RN_6_RD_15_0.png","I_Dist_100_LN_2_LD_4_RN_8_RD_20_0.png","I_Dist_100_LN_3_LD_5_RN_11_RD_22_0.png","I_Dist_100_LN_3_LD_5_RN_8_RD_16_0.png","I_Dist_100_LN_3_LD_6_RN_4_RD_10_0.png","I_Dist_100_LN_3_LD_9_RN_7_RD_30_0.png","I_Dist_100_LN_4_LD_8_RN_8_RD_20_0.png","I_Dist_100_LN_6_LD_10_RN_11_RD_22_0.png","I_Dist_100_LN_6_LD_10_RN_13_RD_26_0.png","I_Dist_100_LN_6_LD_10_RN_7_RD_14_0.png","I_Dist_100_LN_9_LD_10_RN_20_RD_25_0.png","I_Dist_100_LN_9_LD_15_RN_13_RD_26_0.png","I_Dist_100_LN_9_LD_15_RN_14_RD_28_0.png"],["I_Dist_100_LN_10_LD_25_RN_8_RD_16_1.png","I_Dist_100_LN_10_LD_25_RN_9_RD_18_1.png","I_Dist_100_LN_11_LD_22_RN_9_RD_15_1.png","I_Dist_100_LN_12_LD_24_RN_9_RD_15_1.png","I_Dist_100_LN_12_LD_30_RN_2_RD_4_1.png","I_Dist_100_LN_13_LD_26_RN_12_RD_20_1.png","I_Dist_100_LN_13_LD_26_RN_6_RD_10_1.png","I_Dist_100_LN_17_LD_30_RN_10_RD_15_1.png","I_Dist_100_LN_6_LD_12_RN_3_RD_5_1.png","I_Dist_100_LN_8_LD_16_RN_6_RD_10_1.png","I_Dist_100_LN_8_LD_20_RN_1_RD_2_1.png","I_Dist_100_LN_9_LD_18_RN_6_RD_10_1.png"]],"dist100_S":[["E_Dist_100_LN_2_LD_12_RN_2_RD_30_0.png","E_Dist_100_LN_6_LD_10_RN_6_RD_12_0.png"],["E_Dist_100_LN_6_LD_12_RN_6_RD_10_1.png"]],"dist200_C":[["C_Dist_200_LN_11_LD_22_RN_3_RD_10_0.png","C_Dist_200_LN_12_LD_15_RN_6_RD_10_0.png","C_Dist_200_LN_12_LD_20_RN_6_RD_15_0.png","C_Dist_200_LN_14_LD_28_RN_6_RD_20_0.png","C_Dist_200_LN_15_LD_25_RN_4_RD_10_0.png","C_Dist_200_LN_16_LD_20_RN_12_RD_20_0.png","C_Dist_200_LN_16_LD_30_RN_9_RD_27_0.png","C_Dist_200_LN_20_LD_25_RN_9_RD_15_0.png","C_Dist_200_LN_21_LD_30_RN_2_RD_4_0.png","C_Dist_200_LN_4_LD_10_RN_3_RD_15_0.png","C_Dist_200_LN_4_LD_8_RN_3_RD_10_0.png","C_Dist_200_LN_6_LD_15_RN_3_RD_15_0.png","C_Dist_200_LN_7_LD_21_RN_2_RD_15_0.png","C_Dist_200_LN_8_LD_15_RN_2_RD_6_0.png","C_Dist_200_LN_8_LD_15_RN_3_RD_9_0.png","C_Dist_200_LN_8_LD_15_RN_7_RD_21_0.png","C_Dist_200_LN_9_LD_20_RN_4_RD_16_0.png"],["C_Dist_200_LN_1_LD_2_RN_21_RD_30_1.png","C_Dist_200_LN_13_LD_26_RN_14_RD_20_1.png","C_Dist_200_LN_3_LD_10_RN_11_RD_22_1.png","C_Dist_200_LN_3_LD_10_RN_14_RD_28_1.png","C_Dist_200_LN_3_LD_10_RN_7_RD_14_1.png","C_Dist_200_LN_3_LD_12_RN_9_RD_20_1.png","C_Dist_200_LN_3_LD_6_RN_14_RD_20_1.png","C_Dist_200_LN_5_LD_10_RN_14_RD_20_1.png","C_Dist_200_LN_6_LD_12_RN_7_RD_10_1.png","C_Dist_200_LN_6_LD_20_RN_11_RD_22_1.png","C_Dist_200_LN_7_LD_15_RN_18_RD_27_1.png","C_Dist_200_LN_9_LD_30_RN_13_RD_26_1.png"]],"dist200_I":[["I_Dist_200_LN_1_LD_2_RN_3_RD_10_0.png","I_Dist_200_LN_1_LD_3_RN_2_RD_15_0.png","I_Dist_200_LN_3_LD_4_RN_11_RD_20_0.png","I_Dist_200_LN_4_LD_5_RN_6_RD_10_0.png","I_Dist_200_LN_4_LD_6_RN_14_RD_30_0.png","I_Dist_200_LN_7_LD_10_RN_12_RD_24_0.png","I_Dist_200_LN_7_LD_10_RN_14_RD_28_0.png","I_Dist_200_LN_7_LD_10_RN_8_RD_16_0.png"],["I_Dist_200_LN_11_LD_20_RN_3_RD_4_1.png","I_Dist_200_LN_14_LD_30_RN_12_RD_18_1.png","I_Dist_200_LN_14_LD_30_RN_6_RD_9_1.png","I_Dist_200_LN_3_LD_10_RN_1_RD_2_1.png","I_Dist_200_LN_4_LD_30_RN_1_RD_3_1.png","I_Dist_200_LN_6_LD_20_RN_3_RD_6_1.png","I_Dist_200_LN_7_LD_15_RN_4_RD_6_1.png","I_Dist_200_LN_7_LD_15_RN_6_RD_9_1.png","I_Dist_200_LN_9_LD_15_RN_8_RD_10_1.png"]],"dist200_S":[["E_Dist_200_LN_3_LD_6_RN_3_RD_10_0.png"],["E_Dist_200_LN_3_LD_10_RN_3_RD_6_1.png"]],"dist300_C":[["C_Dist_300_LN_11_LD_22_RN_1_RD_5_0.png","C_Dist_300_LN_11_LD_22_RN_2_RD_10_0.png","C_Dist_300_LN_11_LD_22_RN_4_RD_20_0.png","C_Dist_300_LN_12_LD_24_RN_2_RD_10_0.png","C_Dist_300_LN_18_LD_20_RN_9_RD_15_0.png","C_Dist_300_LN_20_LD_25_RN_13_RD_26_0.png","C_Dist_300_LN_20_LD_25_RN_14_RD_28_0.png","C_Dist_300_LN_20_LD_25_RN_5_RD_10_0.png","C_Dist_300_LN_20_LD_25_RN_8_RD_16_0.png","C_Dist_300_LN_20_LD_25_RN_9_RD_18_0.png","C_Dist_300_LN_24_LD_30_RN_2_RD_4_0.png","C_Dist_300_LN_24_LD_30_RN_8_RD_16_0.png","C_Dist_300_LN_3_LD_6_RN_2_RD_10_0.png","C_Dist_300_LN_4_LD_10_RN_1_RD_10_0.png","C_Dist_300_LN_4_LD_5_RN_2_RD_4_0.png","C_Dist_300_LN_8_LD_16_RN_1_RD_5_0.png","C_Dist_300_LN_9_LD_10_RN_3_RD_5_0.png"],["C_Dist_300_LN_1_LD_20_RN_7_RD_20_1.png","C_Dist_300_LN_1_LD_3_RN_19_RD_30_1.png","C_Dist_300_LN_1_LD_30_RN_8_RD_24_1.png","C_Dist_300_LN_1_LD_5_RN_11_RD_22_1.png","C_Dist_300_LN_1_LD_5_RN_3_RD_6_1.png","C_Dist_300_LN_1_LD_5_RN_6_RD_12_1.png","C_Dist_300_LN_2_LD_10_RN_12_RD_24_1.png","C_Dist_300_LN_2_LD_20_RN_10_RD_25_1.png","C_Dist_300_LN_3_LD_12_RN_11_RD_20_1.png","C_Dist_300_LN_3_LD_6_RN_4_RD_5_1.png","C_Dist_300_LN_4_LD_20_RN_13_RD_26_1.png","C_Dist_300_LN_5_LD_25_RN_6_RD_12_1.png","C_Dist_300_LN_5_LD_25_RN_7_RD_14_1.png","C_Dist_300_LN_7_LD_14_RN_20_RD_25_1.png","C_Dist_300_LN_8_LD_15_RN_10_RD_12_1.png"]],"dist300_I":[["I_Dist_300_LN_1_LD_2_RN_2_RD_10_0.png","I_Dist_300_LN_1_LD_2_RN_3_RD_15_0.png","I_Dist_300_LN_2_LD_4_RN_6_RD_30_0.png","I_Dist_300_LN_3_LD_6_RN_4_RD_20_0.png","I_Dist_300_LN_4_LD_5_RN_6_RD_12_0.png","I_Dist_300_LN_4_LD_5_RN_8_RD_16_0.png","I_Dist_300_LN_7_LD_10_RN_8_RD_20_0.png","I_Dist_300_LN_8_LD_10_RN_14_RD_28_0.png","I_Dist_300_LN_8_LD_10_RN_9_RD_18_0.png"],["I_Dist_300_LN_13_LD_26_RN_12_RD_15_1.png","I_Dist_300_LN_4_LD_20_RN_2_RD_4_1.png"]],"dist300_S":[["E_Dist_300_LN_9_LD_12_RN_9_RD_20_0.png"],["E_Dist_300_LN_18_LD_30_RN_18_RD_20_1.png","E_Dist_300_LN_3_LD_10_RN_3_RD_5_1.png","E_Dist_300_LN_9_LD_20_RN_9_RD_12_1.png"]],"dist500_C":[["C_Dist_500_LN_10_LD_13_RN_7_RD_26_0.png","C_Dist_500_LN_10_LD_15_RN_4_RD_24_0.png","C_Dist_500_LN_12_LD_16_RN_3_RD_12_0.png","C_Dist_500_LN_12_LD_18_RN_4_RD_24_0.png","C_Dist_500_LN_15_LD_18_RN_5_RD_15_0.png","C_Dist_500_LN_15_LD_20_RN_1_RD_4_0.png","C_Dist_500_LN_18_LD_27_RN_1_RD_6_0.png","C_Dist_500_LN_20_LD_24_RN_1_RD_3_0.png","C_Dist_500_LN_20_LD_24_RN_3_RD_9_0.png","C_Dist_500_LN_20_LD_24_RN_7_RD_21_0.png","C_Dist_500_LN_20_LD_28_RN_3_RD_14_0.png","C_Dist_500_LN_21_LD_28_RN_6_RD_24_0.png","C_Dist_500_LN_22_LD_28_RN_2_RD_7_0.png","C_Dist_500_LN_25_LD_30_RN_9_RD_27_0.png","C_Dist_500_LN_4_LD_6_RN_1_RD_6_0.png","C_Dist_500_LN_5_LD_6_RN_2_RD_6_0.png","C_Dist_500_LN_6_LD_9_RN_1_RD_6_0.png","C_Dist_500_LN_7_LD_10_RN_1_RD_5_0.png","C_Dist_500_LN_8_LD_12_RN_1_RD_6_0.png","C_Dist_500_LN_8_LD_12_RN_4_RD_24_0.png"],["C_Dist_500_LN_1_LD_4_RN_12_RD_16_1.png","C_Dist_500_LN_1_LD_4_RN_9_RD_12_1.png","C_Dist_500_LN_1_LD_9_RN_11_RD_18_1.png","C_Dist_500_LN_10_LD_24_RN_22_RD_24_1.png","C_Dist_500_LN_2_LD_12_RN_10_RD_15_1.png","C_Dist_500_LN_2_LD_12_RN_12_RD_18_1.png","C_Dist_500_LN_2_LD_12_RN_4_RD_6_1.png","C_Dist_500_LN_2_LD_24_RN_7_RD_12_1.png","C_Dist_500_LN_2_LD_5_RN_18_RD_20_1.png","C_Dist_500_LN_2_LD_5_RN_9_RD_10_1.png","C_Dist_500_LN_2_LD_8_RN_12_RD_16_1.png","C_Dist_500_LN_2_LD_8_RN_21_RD_28_1.png","C_Dist_500_LN_3_LD_10_RN_4_RD_5_1.png","C_Dist_500_LN_3_LD_12_RN_15_RD_20_1.png","C_Dist_500_LN_3_LD_30_RN_6_RD_10_1.png","C_Dist_500_LN_3_LD_8_RN_14_RD_16_1.png","C_Dist_500_LN_4_LD_16_RN_15_RD_20_1.png","C_Dist_500_LN_4_LD_24_RN_12_RD_18_1.png","C_Dist_500_LN_5_LD_14_RN_6_RD_7_1.png","C_Dist_500_LN_7_LD_21_RN_20_RD_24_1.png","C_Dist_500_LN_7_LD_28_RN_12_RD_16_1.png","C_Dist_500_LN_7_LD_28_RN_9_RD_12_1.png","C_Dist_500_LN_9_LD_27_RN_20_RD_24_1.png"]],"dist500_I":[["I_Dist_500_LN_2_LD_3_RN_4_RD_24_0.png","I_Dist_500_LN_5_LD_6_RN_6_RD_18_0.png","I_Dist_500_LN_7_LD_8_RN_9_RD_24_0.png"],["I_Dist_500_LN_7_LD_21_RN_5_RD_6_1.png"]],"dist500_S":[["E_Dist_500_LN_6_LD_8_RN_6_RD_24_0.png"],["E_Dist_500_LN_2_LD_12_RN_2_RD_3_1.png","E_Dist_500_LN_6_LD_24_RN_6_RD_8_1.png"]]}},{"start_time":1551793957250,"click_time":1551793959234,"finger_time":1551793958834,"fix_duration":1154.2306702687272,"trial":1,"RT":1584,"MT":400,"sideResp":1,"stimulus":[],"xmouse":[773,773,773,773,773,773,773,773,773,773,773,773,773,773,773,773,773,773,773,773,773,773,773,773,773,773,773,773,773,771,765,758,749,747,746,746,746,746,746,746,746,746,746,746,746,746,746,746,746,746,746,747,748,750,751,752,754,755,756,756,756,756,756,756,756,756,756,756,756,756,756,756,756,756,756,756,756,756,756,744,713,645,404,281,230,230,230,230,230,230,230,230,230,230,230,230,230,230,424,427],"ymouse":[503,503,503,503,503,503,503,503,503,503,503,503,503,503,503,503,503,503,503,503,503,503,503,503,503,503,503,503,501,498,493,488,481,479,478,478,478,478,478,478,478,478,478,478,478,478,478,478,478,478,478,478,478,480,480,481,482,483,484,484,484,484,484,484,484,484,484,484,484,484,484,484,484,484,484,484,484,484,480,463,426,359,173,74,34,34,34,34,34,34,34,34,34,34,34,34,34,34,0,1],"timestamp_mouse":[9,24,45,64,85,103,125,143,163,185,205,225,243,265,283,303,324,344,365,383,403,424,443,463,485,504,523,543,564,583,605,625,643,663,684,703,724,743,763,785,803,823,845,863,884,903,923,944,963,985,1003,1023,1043,1064,1085,1105,1123,1143,1165,1183,1205,1223,1243,1265,1284,1303,1324,1344,1364,1384,1404,1425,1444,1464,1483,1504,1525,1543,1563,1584,1605,1624,1644,1665,1683,1703,1723,1743,1764,1783,1804,1823,1844,1864,1884,1905,1925,1944,1964,1984],"xSR":741.5,"ySR":469.95,"xT1":424.9,"yT1":0,"xT2":1058.1,"yT2":0,"toosoon":0,"cond_shown":"Congruent","ratio_trial":200,"L_num":7,"L_den":21,"R_num":2,"R_den":15,"correct_side":1,"subjID":"LauraSofiaRinconAriza11","gender":"1","school":"6","age":"11"},{"start_time":1551793963366,"click_time":1551793965015,"finger_time":1551793964555,"fix_duration":1430.0986188988356,"trial":2,"RT":1189,"MT":460,"sideResp":1,"stimulus":[],"xmouse":[780,780,780,780,780,780,780,780,780,780,780,780,780,780,780,780,780,780,780,780,780,780,780,780,780,780,780,780,780,780,780,780,780,780,780,780,780,780,780,780,780,780,780,780,780,780,780,780,780,780,780,780,780,780,780,780,780,768,747,735,706,678,665,655,626,600,569,564,564,564,565,554,538,521,509,502,492,481,467,463,462,461,461],"ymouse":[515,515,515,515,515,515,515,515,515,515,515,515,515,515,515,515,515,515,515,515,515,515,515,515,515,515,515,515,515,515,515,515,515,515,515,515,515,515,515,515,515,515,515,515,515,515,515,515,515,515,515,515,515,515,515,515,515,503,485,470,432,378,346,296,241,205,174,169,168,166,161,138,129,125,124,123,121,118,111,108,107,100,97],"timestamp_mouse":[12,43,47,68,88,107,128,147,168,187,208,227,248,268,288,307,328,348,368,389,407,427,448,468,487,507,527,548,568,588,608,628,647,667,688,707,727,749,769,788,808,828,848,868,888,907,927,947,968,987,1007,1027,1047,1067,1088,1109,1128,1148,1167,1189,1209,1227,1248,1267,1287,1308,1328,1348,1369,1388,1407,1427,1448,1467,1487,1508,1527,1548,1567,1588,1607,1628,1648],"xSR":741.5,"ySR":469.95,"xT1":424.9,"yT1":0,"xT2":1058.1,"yT2":0,"toosoon":0,"cond_shown":"Congruent","ratio_trial":300,"L_num":20,"L_den":25,"R_num":8,"R_den":16,"correct_side":1,"subjID":"LauraSofiaRinconAriza11","gender":"1","school":"6","age":"11"},{"start_time":1551793967258,"click_time":1551793968875,"finger_time":1551793968514,"fix_duration":703.5986056989282,"trial":3,"RT":1256,"MT":361,"sideResp":1,"stimulus":[],"xmouse":[780,780,780,780,780,780,780,780,780,780,780,780,780,780,780,780,781,782,783,783,785,785,786,787,787,787,788,788,788,788,788,788,788,789,789,794,800,805,807,807,807,807,807,807,807,807,807,807,807,807,807,807,807,807,807,807,802,798,794,789,783,745,710,663,594,577,536,535,535,536,538,544,546,547,548,548,544,537,522,499,474],"ymouse":[524,524,524,524,524,524,524,524,524,524,524,524,524,524,524,524,524,524,523,523,523,522,522,521,521,521,521,521,521,521,521,521,521,520,519,514,506,500,497,497,497,497,497,497,497,497,497,497,497,497,497,497,497,497,497,498,505,509,513,515,516,512,497,470,424,408,352,340,331,323,308,266,243,226,212,199,168,155,134,103,76],"timestamp_mouse":[15,35,56,77,95,115,135,156,177,196,215,235,257,276,296,317,335,357,377,396,416,436,456,475,495,516,536,555,575,595,616,636,655,676,696,716,735,757,775,795,815,837,856,876,896,917,936,956,975,996,1016,1035,1055,1076,1097,1116,1135,1156,1176,1196,1216,1235,1256,1277,1296,1316,1335,1356,1376,1396,1416,1436,1455,1477,1495,1516,1536,1555,1575,1597,1617],"xSR":741.5,"ySR":469.95,"xT1":424.9,"yT1":0,"xT2":1058.1,"yT2":0,"toosoon":0,"cond_shown":"Incongruent","ratio_trial":300,"L_num":2,"L_den":4,"R_num":6,"R_den":30,"correct_side":1,"subjID":"LauraSofiaRinconAriza11","gender":"1","school":"6","age":"11"},{"start_time":1551793971137,"click_time":1551793973054,"finger_time":1551793972693,"fix_duration":1462.0968924218423,"trial":4,"RT":1556,"MT":361,"sideResp":1,"stimulus":[],"xmouse":[782,782,783,783,783,783,783,783,783,783,783,783,783,783,783,783,783,783,783,783,783,783,783,783,783,783,783,783,783,783,783,783,783,783,783,783,783,784,785,785,785,785,785,785,785,785,785,785,785,785,785,785,785,785,785,785,785,785,785,785,785,785,785,785,785,785,785,785,785,785,785,785,785,785,785,785,785,765,727,632,602,538,365,316,293,288,287,287,287,287,287,289,325,358,397,430],"ymouse":[501,501,501,501,501,501,501,501,501,501,501,501,501,501,501,501,501,501,501,501,501,501,501,501,501,501,501,501,501,501,501,501,501,501,501,501,501,501,501,501,501,500,500,500,500,500,500,500,500,500,500,500,500,500,500,500,500,500,500,500,500,500,500,500,500,500,500,500,500,500,500,500,500,500,500,500,495,463,430,339,302,225,52,20,6,2,2,2,2,2,2,2,16,32,54,74],"timestamp_mouse":[17,38,56,77,97,117,137,156,176,197,218,236,256,277,297,316,338,357,376,398,416,436,457,477,498,516,537,556,578,596,617,637,656,676,698,717,738,758,777,796,816,836,858,876,896,916,936,956,977,996,1017,1038,1056,1076,1098,1117,1137,1156,1177,1197,1216,1238,1256,1276,1297,1317,1337,1357,1376,1398,1417,1437,1456,1476,1498,1517,1538,1556,1576,1596,1618,1638,1657,1676,1696,1717,1736,1757,1778,1797,1818,1837,1856,1878,1897,1916],"xSR":741.5,"ySR":469.95,"xT1":424.9,"yT1":0,"xT2":1058.1,"yT2":0,"toosoon":0,"cond_shown":"Incongruent","ratio_trial":300,"L_num":4,"L_den":20,"R_num":2,"R_den":4,"correct_side":2,"subjID":"LauraSofiaRinconAriza11","gender":"1","school":"6","age":"11"},{"start_time":1551793974680,"click_time":1551793978394,"finger_time":1551793975535,"fix_duration":286.77940837932016,"trial":5,"RT":855,"MT":2859,"sideResp":2,"stimulus":[],"xmouse":[795,795,795,795,795,795,795,795,795,795,795,795,795,795,795,795,795,795,795,795,795,795,795,795,795,795,795,795,795,795,795,795,795,795,795,795,795,795,795,797,810,833,869,911,956,973,973,973,973,973,973,973,973,973,973,973,973,973,973,973,973,973,973,973,973,973,973,973,973,973,973,973,973,973,973,973,973,973,973,973,973,973,973,973,973,973,973,973,973,973,973,973,973,973,973,973,973,973,973,973,973,973,973,973,973,973,973,973,973,973,973,973,973,973,973,973,973,973,973,973,973,973,973,973,973,973,973,973,973,973,973,973,973,973,973,973,973,973,973,973,973,973,973,973,971,976,988,1007,1033,1069,1173,1228,1279,1322,1347,1347,1347,1347,1347,1347,1347,1347,1347,1347,1347,1347,1347,1347,1347,1347,1259,1247,1236,1232,1223,1210,1201,1189,1180,1173,1169,1169,1169,1169,1169,1158],"ymouse":[500,502,502,502,502,502,502,502,502,502,502,502,502,502,502,502,502,502,502,502,502,502,502,502,502,502,502,502,502,502,502,502,502,502,502,502,502,502,502,502,495,480,462,441,415,404,404,404,404,404,404,404,404,404,404,404,404,404,404,404,404,404,404,404,404,404,404,404,404,404,404,404,404,404,404,404,404,404,404,404,404,404,404,404,404,404,404,404,404,404,404,404,404,404,404,404,404,404,404,404,404,404,404,404,404,404,404,404,404,404,404,404,404,404,404,404,404,404,404,404,404,404,404,404,404,404,404,404,404,404,404,404,404,404,404,404,404,404,404,404,404,404,404,403,397,369,351,329,297,257,158,104,60,25,3,3,3,3,3,3,3,3,3,3,3,3,3,3,3,3,5,13,20,21,25,32,37,43,50,54,55,55,55,55,55,55],"timestamp_mouse":[14,44,54,74,93,113,133,154,174,194,213,233,255,275,293,313,334,353,375,393,413,435,454,473,493,515,534,554,575,594,613,635,653,674,694,713,733,755,774,795,814,834,855,874,893,913,933,954,973,995,1014,1035,1053,1073,1094,1114,1133,1154,1174,1195,1214,1233,1254,1274,1294,1314,1334,1355,1374,1394,1414,1433,1454,1473,1495,1514,1533,1554,1575,1593,1613,1634,1653,1675,1694,1715,1734,1754,1773,1793,1813,1833,1853,1875,1893,1914,1933,1955,1974,1995,2014,2033,2053,2075,2095,2114,2133,2154,2173,2195,2215,2233,2255,2274,2294,2314,2335,2355,2374,2393,2414,2434,2454,2475,2493,2514,2533,2553,2574,2593,2614,2633,2654,2675,2694,2714,2733,2754,2774,2795,2814,2833,2853,2873,2893,2913,2933,2954,2975,2995,3014,3035,3055,3073,3093,3113,3134,3154,3175,3195,3215,3233,3254,3273,3294,3314,3333,3353,3374,3393,3413,3433,3453,3474,3493,3513,3534,3554,3575,3594,3615,3634,3653,3674,3693,3714],"xSR":741.5,"ySR":469.95,"xT1":424.9,"yT1":0,"xT2":1058.1,"yT2":0,"toosoon":0,"cond_shown":"Congruent","ratio_trial":300,"L_num":4,"L_den":20,"R_num":13,"R_den":26,"correct_side":2,"subjID":"LauraSofiaRinconAriza11","gender":"1","school":"6","age":"11"},{"start_time":1551793980304,"click_time":1551793981893,"finger_time":1551793981375,"fix_duration":369.4916300992561,"trial":6,"RT":1071,"MT":518,"sideResp":1,"stimulus":[],"xmouse":[800,800,800,800,800,800,800,800,800,800,800,800,800,800,800,800,800,800,800,800,800,800,800,800,800,800,800,800,800,800,800,800,800,800,800,800,800,800,800,800,800,800,800,800,800,800,800,800,800,800,800,794,784,766,752,734,729,725,722,717,713,709,704,697,682,667,650,635,623,598,582,562,545,532,526,526,526,525,515,496],"ymouse":[530,530,530,530,530,530,530,530,530,530,530,530,530,530,530,530,530,530,530,530,530,530,530,530,530,530,530,530,530,530,530,530,530,530,530,530,530,530,530,530,530,530,530,530,530,530,530,530,529,524,518,506,489,448,415,363,343,322,303,269,251,239,226,214,203,194,186,176,167,156,148,141,134,128,126,126,125,124,113,93],"timestamp_mouse":[16,33,50,69,90,111,129,150,169,189,209,229,250,270,290,309,330,349,370,389,409,430,450,470,490,509,531,551,569,591,609,630,650,670,691,710,730,750,769,789,809,830,850,869,889,910,930,949,970,990,1010,1030,1050,1071,1089,1110,1130,1151,1171,1191,1209,1229,1249,1270,1289,1310,1330,1350,1371,1389,1410,1430,1450,1470,1490,1509,1529,1550,1569,1589],"xSR":741.5,"ySR":469.95,"xT1":424.9,"yT1":0,"xT2":1058.1,"yT2":0,"toosoon":0,"cond_shown":"Congruent","ratio_trial":100,"L_num":9,"L_den":15,"R_num":8,"R_den":16,"correct_side":1,"subjID":"LauraSofiaRinconAriza11","gender":"1","school":"6","age":"11"},{"start_time":1551793983707,"click_time":1551793984975,"finger_time":1551793984715,"fix_duration":672.4708358955259,"trial":7,"RT":1008,"MT":260,"sideResp":1,"stimulus":[],"xmouse":[807,807,807,807,807,807,807,807,807,807,807,807,807,807,807,807,807,807,807,807,807,807,807,807,807,807,807,807,807,807,807,807,807,807,807,807,807,807,807,807,807,807,807,807,806,804,804,802,800,788,776,757,695,647,590,575,569,566,565,565,562,551,534,502],"ymouse":[508,508,508,508,508,508,508,508,508,508,508,508,508,508,508,508,508,508,508,508,508,508,508,508,508,508,508,508,508,508,508,508,508,508,508,508,508,508,508,508,508,508,508,508,508,507,505,502,498,478,458,424,320,242,112,80,64,55,53,53,50,43,35,22],"timestamp_mouse":[9,33,47,66,88,106,126,148,167,186,207,227,246,268,286,307,328,346,367,388,406,426,447,468,486,506,526,547,568,586,606,626,648,668,687,706,726,747,767,786,806,827,847,866,886,907,927,946,968,988,1008,1027,1046,1067,1087,1107,1127,1147,1167,1187,1208,1226,1246,1267],"xSR":741.5,"ySR":469.95,"xT1":424.9,"yT1":0,"xT2":1058.1,"yT2":0,"toosoon":0,"cond_shown":"Congruent","ratio_trial":100,"L_num":10,"L_den":25,"R_num":3,"R_den":10,"correct_side":1,"subjID":"LauraSofiaRinconAriza11","gender":"1","school":"6","age":"11"},{"start_time":1551793987364,"click_time":1551793989373,"finger_time":1551793988874,"fix_duration":1148.4948167014966,"trial":8,"RT":1510,"MT":499,"sideResp":1,"stimulus":[],"xmouse":[791,791,791,791,791,791,792,792,792,792,792,792,792,792,792,792,792,792,792,792,792,792,792,792,792,792,792,792,792,792,792,792,792,792,792,792,792,792,792,792,792,792,792,792,792,792,792,792,792,792,792,792,792,792,792,792,792,792,792,792,792,792,792,792,792,792,792,792,792,792,792,792,792,792,787,778,766,717,697,683,665,658,658,658,658,658,657,656,643,626,599,573,567,564,562,560,558,554,548,537,522],"ymouse":[497,497,497,497,497,497,497,497,497,497,497,497,497,497,497,497,497,496,496,496,496,496,496,496,496,496,496,496,496,496,496,495,495,495,495,495,495,494,494,494,494,494,494,494,494,494,494,494,494,494,494,494,494,494,493,492,491,490,489,489,489,489,489,489,489,489,489,489,488,488,488,488,486,482,471,455,434,360,327,305,270,258,258,258,258,258,258,256,250,239,217,187,176,167,160,154,146,139,126,108,89],"timestamp_mouse":[10,38,50,69,89,109,130,149,169,190,210,229,250,270,289,309,330,351,369,390,409,430,450,469,489,511,529,550,569,591,611,629,650,670,690,709,730,751,771,789,811,829,850,870,891,909,930,950,969,989,1009,1030,1049,1074,1089,1110,1131,1149,1169,1190,1210,1230,1249,1271,1291,1309,1330,1351,1369,1389,1410,1429,1450,1470,1489,1510,1529,1549,1570,1590,1610,1630,1651,1669,1689,1709,1729,1750,1771,1790,1811,1831,1851,1869,1890,1909,1929,1950,1971,1990,2009],"xSR":741.5,"ySR":469.95,"xT1":424.9,"yT1":0,"xT2":1058.1,"yT2":0,"toosoon":0,"cond_shown":"Incongruent","ratio_trial":200,"L_num":7,"L_den":15,"R_num":6,"R_den":9,"correct_side":2,"subjID":"LauraSofiaRinconAriza11","gender":"1","school":"6","age":"11"},{"start_time":1551793990668,"click_time":1551793992274,"finger_time":1551793992154,"fix_duration":352.10923116086326,"trial":9,"RT":1486,"MT":120,"sideResp":2,"stimulus":[],"xmouse":[809,809,809,809,809,809,809,809,809,809,808,807,806,805,805,804,804,804,804,804,804,804,804,804,804,804,804,804,804,804,804,804,804,804,804,804,804,804,804,804,804,804,804,804,804,804,804,804,804,804,804,804,804,804,804,804,804,804,804,804,804,804,804,804,804,804,804,804,804,804,804,805,814,836,863,924,1004,1051,1093,1127,1150],"ymouse":[563,564,564,564,564,562,560,558,555,551,548,538,534,525,521,518,517,517,517,517,517,517,517,517,517,517,517,517,517,517,517,517,517,517,517,517,517,517,517,517,517,517,517,517,516,516,516,516,516,516,516,516,516,516,516,516,516,516,516,516,516,516,516,516,516,516,516,516,516,516,516,516,514,507,489,436,300,237,179,130,85],"timestamp_mouse":[8,39,46,66,85,107,126,146,166,186,205,225,245,266,286,306,325,345,365,386,405,426,447,466,487,506,526,546,566,587,605,625,645,667,687,705,725,746,766,785,807,826,845,866,886,907,926,946,966,986,1006,1025,1045,1065,1086,1105,1125,1145,1165,1185,1205,1225,1245,1265,1286,1305,1325,1346,1365,1385,1405,1425,1445,1467,1486,1507,1526,1545,1565,1585,1606],"xSR":741.5,"ySR":469.95,"xT1":424.9,"yT1":0,"xT2":1058.1,"yT2":0,"toosoon":0,"cond_shown":"Congruent","ratio_trial":200,"L_num":13,"L_den":26,"R_num":14,"R_den":20,"correct_side":2,"subjID":"LauraSofiaRinconAriza11","gender":"1","school":"6","age":"11"},{"start_time":1551793993966,"click_time":1551793995675,"finger_time":1551793995273,"fix_duration":250,"trial":10,"RT":1307,"MT":402,"sideResp":2,"stimulus":[],"xmouse":[792,792,793,793,793,793,793,793,793,793,793,793,793,793,793,793,793,793,793,793,793,793,793,793,793,793,793,793,793,793,793,793,793,793,793,793,793,793,793,793,793,793,793,793,793,793,793,793,793,793,793,793,793,793,793,793,793,793,793,794,798,806,810,815,820,826,842,869,902,933,967,996,1002,1005,1009,1014,1033,1043,1049,1052,1052,1052,1052,1054,1056,1059],"ymouse":[489,490,491,491,491,491,491,491,491,491,491,491,491,491,491,491,491,491,491,491,491,491,491,491,491,491,491,491,491,491,491,491,491,491,491,491,491,491,491,491,491,491,491,491,491,491,491,491,491,491,491,491,491,491,491,491,491,491,491,491,491,487,484,480,476,468,439,387,311,241,161,100,86,77,68,58,31,19,13,10,9,9,9,9,9,14],"timestamp_mouse":[7,36,48,68,88,107,127,148,168,188,209,228,247,269,287,309,327,347,369,387,408,428,448,468,489,508,527,549,567,588,609,627,648,667,687,709,728,747,768,788,807,827,849,868,888,909,927,948,968,989,1008,1028,1048,1068,1087,1107,1128,1148,1167,1188,1207,1227,1248,1268,1287,1307,1327,1348,1368,1388,1408,1427,1447,1467,1488,1509,1528,1547,1568,1587,1607,1629,1647,1667,1689,1709],"xSR":741.5,"ySR":469.95,"xT1":424.9,"yT1":0,"xT2":1058.1,"yT2":0,"toosoon":0,"cond_shown":"Incongruent","ratio_trial":300,"L_num":13,"L_den":26,"R_num":12,"R_den":15,"correct_side":2,"subjID":"LauraSofiaRinconAriza11","gender":"1","school":"6","age":"11"},{"start_time":1551793998525,"click_time":1551794000194,"finger_time":1551793999213,"fix_duration":1170.7402336670514,"trial":11,"RT":688,"MT":981,"sideResp":1,"stimulus":[],"xmouse":[822,822,822,817,816,816,816,813,812,810,810,810,810,810,810,810,810,810,810,810,810,810,810,810,810,810,809,809,810,810,810,812,814,826,835,844,847,848,849,849,849,849,849,849,849,849,849,849,849,849,849,847,844,839,838,837,835,834,833,831,829,828,820,788,768,747,721,700,671,661,654,650,648,641,632,619,601,589,577,572,563,551,533,522],"ymouse":[483,483,483,486,486,487,487,488,489,489,489,489,490,490,490,490,490,490,490,490,490,490,490,490,490,490,490,490,489,489,489,487,486,476,469,461,458,455,454,454,454,454,454,454,454,454,454,454,454,454,454,455,458,464,466,467,469,471,472,474,475,475,475,453,433,396,331,268,167,134,109,93,76,57,46,35,22,16,13,13,13,18,28,38],"timestamp_mouse":[10,35,48,68,90,109,128,149,170,188,209,229,248,269,288,308,328,349,369,388,410,429,449,470,489,509,529,550,568,589,608,628,650,668,688,710,729,748,768,789,808,828,849,887,889,908,929,949,968,988,1008,1030,1050,1069,1089,1109,1128,1149,1169,1190,1208,1229,1250,1268,1288,1309,1329,1348,1368,1388,1408,1428,1449,1468,1490,1508,1528,1549,1568,1589,1610,1630,1650,1669],"xSR":741.5,"ySR":469.95,"xT1":424.9,"yT1":0,"xT2":1058.1,"yT2":0,"toosoon":0,"cond_shown":"Congruent","ratio_trial":200,"L_num":4,"L_den":8,"R_num":3,"R_den":10,"correct_side":1,"subjID":"LauraSofiaRinconAriza11","gender":"1","school":"6","age":"11"},{"start_time":1551794002542,"click_time":1551794004575,"finger_time":1551794004154,"fix_duration":907.1285063241226,"trial":12,"RT":1612,"MT":421,"sideResp":1,"stimulus":[],"xmouse":[776,776,776,776,776,776,776,776,776,776,776,776,776,776,776,776,776,776,776,776,776,776,776,776,776,776,776,776,776,776,776,776,776,776,776,776,776,776,776,776,776,776,776,776,776,776,776,776,776,776,776,776,776,776,776,776,776,776,776,776,776,776,776,776,776,776,776,776,776,776,776,776,776,776,776,776,777,771,765,756,744,721,693,685,679,674,667,643,629,617,601,580,560,546,541,532,528,518,514,509,504,502],"ymouse":[534,534,534,534,534,534,534,534,534,534,534,534,534,534,534,534,534,534,534,534,534,534,534,534,534,534,534,534,534,534,534,534,534,534,534,534,534,534,534,534,534,534,534,534,534,534,534,534,534,534,534,534,534,534,534,534,534,534,534,534,534,534,534,534,534,534,534,534,534,534,534,534,534,534,534,534,531,520,506,484,458,402,342,324,310,297,280,247,230,218,205,189,175,168,166,162,159,151,142,126,107,78],"timestamp_mouse":[11,41,51,71,91,113,132,151,171,191,211,231,251,271,293,311,332,351,371,392,411,432,451,471,492,511,531,553,571,593,612,631,652,671,693,711,731,752,772,791,812,831,852,871,891,912,932,951,973,992,1011,1031,1052,1071,1091,1113,1132,1151,1172,1191,1212,1232,1252,1271,1292,1312,1331,1351,1371,1392,1411,1432,1451,1473,1491,1511,1533,1552,1571,1591,1612,1632,1652,1671,1692,1711,1732,1752,1771,1791,1812,1832,1852,1878,1892,1913,1933,1951,1972,1992,2013,2033],"xSR":741.5,"ySR":469.95,"xT1":424.9,"yT1":0,"xT2":1058.1,"yT2":0,"toosoon":0,"cond_shown":"Congruent","ratio_trial":300,"L_num":18,"L_den":20,"R_num":9,"R_den":15,"correct_side":1,"subjID":"LauraSofiaRinconAriza11","gender":"1","school":"6","age":"11"},{"start_time":1551794006547,"click_time":1551794007814,"finger_time":1551794007636,"fix_duration":1271.1127143862793,"trial":13,"RT":1089,"MT":178,"sideResp":2,"stimulus":[],"xmouse":[798,798,798,798,798,798,798,798,798,798,798,798,798,798,798,798,798,798,798,798,798,798,798,798,798,798,798,798,798,798,798,798,798,798,798,798,798,798,798,798,798,798,798,798,798,798,798,798,798,798,800,802,815,826,847,873,894,922,931,948,958,1011,1103,1137],"ymouse":[542,542,542,542,542,542,542,542,542,542,542,542,542,542,542,542,542,542,542,542,542,542,542,542,542,542,542,542,542,542,542,542,542,542,542,542,542,542,542,542,542,542,542,542,542,542,541,541,540,539,537,533,515,498,468,429,399,360,344,318,305,248,138,82],"timestamp_mouse":[8,32,48,68,88,107,127,148,168,187,207,228,247,267,288,308,328,348,368,388,407,427,447,468,488,508,527,547,568,588,607,627,647,668,688,707,727,747,768,789,807,827,847,868,888,907,927,948,969,988,1008,1028,1047,1068,1089,1108,1128,1147,1167,1188,1208,1228,1248,1267],"xSR":741.5,"ySR":469.95,"xT1":424.9,"yT1":0,"xT2":1058.1,"yT2":0,"toosoon":0,"cond_shown":"Congruent","ratio_trial":200,"L_num":16,"L_den":20,"R_num":12,"R_den":20,"correct_side":1,"subjID":"LauraSofiaRinconAriza11","gender":"1","school":"6","age":"11"},{"start_time":1551794010336,"click_time":1551794011496,"finger_time":1551794011016,"fix_duration":1398.418606671547,"trial":14,"RT":680,"MT":480,"sideResp":2,"stimulus":[],"xmouse":[816,816,816,816,816,816,816,816,816,816,816,816,816,816,816,816,816,816,816,816,816,816,816,816,816,816,816,816,816,816,816,816,816,829,847,875,916,961,1025,1036,1041,1044,1045,1045,1045,1045,1046,1046,1046,1046,1046,1046,1046,1046,1046,1049,1055,1062,1086],"ymouse":[514,514,514,514,514,514,514,514,514,514,514,514,514,514,514,514,514,514,514,514,514,514,514,514,514,514,514,514,514,514,512,510,506,483,453,407,345,280,180,147,126,117,114,114,114,114,113,113,113,113,113,113,113,113,113,109,106,100,80],"timestamp_mouse":[1,20,42,59,80,100,119,139,159,178,199,220,239,258,279,300,319,339,359,380,400,420,439,459,480,498,520,538,560,578,598,620,640,659,680,700,720,739,759,779,798,820,839,859,878,898,920,939,959,978,998,1020,1039,1059,1080,1099,1120,1139,1160],"xSR":741.5,"ySR":469.95,"xT1":424.9,"yT1":0,"xT2":1058.1,"yT2":0,"toosoon":0,"cond_shown":"Incongruent","ratio_trial":300,"L_num":4,"L_den":5,"R_num":8,"R_den":16,"correct_side":1,"subjID":"LauraSofiaRinconAriza11","gender":"1","school":"6","age":"11"},{"start_time":1551794017407,"click_time":1551794018815,"finger_time":1551794018195,"fix_duration":250,"trial":15,"RT":788,"MT":620,"sideResp":1,"stimulus":[],"xmouse":[813,813,813,813,813,813,813,813,813,813,813,813,813,813,813,813,813,813,813,813,813,813,813,813,813,813,813,813,813,813,813,813,813,813,814,812,802,792,781,763,761,760,758,756,741,727,709,690,657,639,639,639,639,639,639,638,633,623,593,545,534,528,525,523,518,516,514,512,509,503,499],"ymouse":[510,510,510,510,510,510,510,510,510,510,510,510,510,510,510,510,510,510,510,510,510,510,510,510,510,510,510,510,510,510,510,510,510,510,509,504,492,483,473,457,455,453,452,448,425,405,381,353,306,272,269,268,267,266,260,254,246,233,209,177,166,161,158,155,147,143,139,135,127,104,92],"timestamp_mouse":[8,35,48,69,87,109,129,149,168,188,208,229,248,268,287,309,329,348,368,387,408,428,448,469,487,508,527,548,567,589,608,627,649,668,689,708,728,748,769,788,809,828,847,868,889,908,929,948,969,989,1008,1028,1047,1068,1088,1109,1128,1148,1168,1188,1209,1227,1247,1269,1288,1308,1327,1348,1368,1388,1408],"xSR":741.5,"ySR":469.95,"xT1":424.9,"yT1":0,"xT2":1058.1,"yT2":0,"toosoon":0,"cond_shown":"Congruent","ratio_trial":100,"L_num":11,"L_den":22,"R_num":4,"R_den":10,"correct_side":1,"subjID":"LauraSofiaRinconAriza11","gender":"1","school":"6","age":"11"},{"start_time":1551794020166,"click_time":1551794021895,"finger_time":1551794021114,"fix_duration":250,"trial":16,"RT":948,"MT":781,"sideResp":1,"stimulus":[],"xmouse":[825,825,825,825,825,825,825,825,825,825,825,825,825,825,825,825,825,825,825,825,825,824,824,824,824,824,824,824,824,824,824,824,824,824,824,824,824,824,824,824,823,823,821,819,817,812,798,786,771,747,703,683,679,678,677,676,655,634,609,586,560,517,501,480,461,445,431,431,431,431,431,435,443,450,457,461,468,470,472,474,476,478,478,478,478,478,480],"ymouse":[545,545,545,545,545,545,545,545,545,545,545,545,545,545,545,545,545,545,545,545,545,544,544,544,544,544,544,544,544,544,544,544,544,544,544,544,544,544,544,544,543,540,536,530,524,515,486,466,440,407,346,315,308,305,304,303,283,269,251,235,219,195,186,175,166,158,150,150,150,150,150,141,135,131,128,126,122,121,119,117,115,110,108,106,103,102,98],"timestamp_mouse":[9,43,51,69,88,109,129,148,170,190,208,229,250,270,290,310,329,349,370,390,409,429,448,469,489,508,528,548,570,590,608,628,649,669,689,709,729,750,768,790,810,829,848,870,890,910,929,948,969,989,1010,1028,1049,1068,1090,1110,1130,1149,1168,1189,1209,1229,1249,1270,1288,1308,1328,1348,1369,1390,1409,1429,1448,1469,1489,1510,1529,1548,1568,1589,1609,1629,1650,1668,1688,1710,1729],"xSR":741.5,"ySR":469.95,"xT1":424.9,"yT1":0,"xT2":1058.1,"yT2":0,"toosoon":0,"cond_shown":"Incongruent","ratio_trial":200,"L_num":9,"L_den":15,"R_num":8,"R_den":10,"correct_side":2,"subjID":"LauraSofiaRinconAriza11","gender":"1","school":"6","age":"11"},{"start_time":1551794023688,"click_time":1551794026376,"finger_time":1551794025694,"fix_duration":250,"trial":17,"RT":2006,"MT":682,"sideResp":2,"stimulus":[],"xmouse":[813,812,812,812,812,812,811,811,810,810,810,809,809,809,809,809,809,809,809,809,809,809,809,809,809,809,809,808,808,806,805,803,803,802,801,800,800,800,800,800,800,800,800,800,800,800,800,800,800,800,800,800,800,800,800,800,800,800,800,800,800,800,800,800,800,800,800,800,800,800,800,800,800,800,800,800,800,800,800,800,800,800,800,800,800,800,800,800,800,800,800,800,800,800,800,800,803,807,813,821,842,850,856,865,874,891,901,907,916,932,1011,1077,1135,1183,1226,1239,1250,1252,1252,1252,1252,1252,1252,1246,1232,1218,1210,1202,1195,1187,1171,1165,1160,1159,1158],"ymouse":[498,499,499,500,500,500,500,500,501,501,501,502,502,502,502,502,502,502,502,502,502,502,502,502,502,502,502,502,502,502,501,499,498,496,493,492,492,492,492,492,492,492,492,492,492,492,492,492,492,492,492,492,492,492,492,492,492,492,492,492,492,492,492,492,492,492,492,492,492,492,492,492,492,492,492,492,492,492,492,492,492,492,492,492,492,492,492,492,492,492,492,492,492,492,492,492,488,485,481,474,440,418,392,362,332,307,300,295,289,276,240,207,176,147,110,89,54,46,41,37,35,35,34,34,34,34,37,40,43,46,50,50,51,51,52],"timestamp_mouse":[9,37,48,67,88,106,128,147,167,187,207,228,248,268,287,306,326,347,368,387,406,427,447,467,486,507,526,547,567,587,607,627,646,666,687,707,727,746,768,787,806,827,847,867,887,906,928,946,968,986,1006,1027,1047,1068,1086,1106,1127,1146,1168,1188,1206,1228,1248,1268,1287,1307,1327,1348,1367,1388,1406,1427,1448,1467,1487,1508,1527,1547,1567,1587,1607,1628,1647,1668,1688,1706,1728,1746,1766,1787,1807,1826,1848,1867,1887,1907,1928,1947,1967,1988,2006,2028,2047,2067,2087,2107,2127,2146,2166,2186,2208,2228,2248,2267,2286,2306,2327,2347,2367,2388,2407,2427,2448,2466,2486,2507,2527,2547,2568,2588,2607,2628,2646,2667,2688],"xSR":741.5,"ySR":469.95,"xT1":424.9,"yT1":0,"xT2":1058.1,"yT2":0,"toosoon":0,"cond_shown":"Congruent","ratio_trial":300,"L_num":11,"L_den":22,"R_num":2,"R_den":10,"correct_side":1,"subjID":"LauraSofiaRinconAriza11","gender":"1","school":"6","age":"11"},{"start_time":1551794032492,"click_time":1551794035555,"finger_time":1551794035076,"fix_duration":314.0017909622392,"trial":18,"RT":2584,"MT":479,"sideResp":1,"stimulus":[],"xmouse":[802,802,802,803,803,800,799,798,798,798,798,798,798,798,798,798,798,798,798,798,798,798,798,798,797,794,791,790,790,790,795,797,800,802,802,802,802,802,802,802,802,802,802,802,802,802,802,802,802,802,802,802,802,802,802,802,802,802,802,802,802,802,802,802,802,802,802,803,803,805,807,807,807,807,807,807,807,807,807,808,809,809,809,810,810,811,811,811,811,811,811,811,811,811,811,811,811,811,811,811,811,811,811,811,811,811,811,811,811,811,813,815,816,816,816,817,817,817,817,817,817,817,817,817,817,817,819,819,819,819,802,788,771,758,745,710,692,679,679,679,679,679,677,666,622,577,573,573,573,572,561,548,533,516],"ymouse":[499,499,499,499,499,500,500,500,500,500,500,500,500,500,500,500,500,500,500,500,500,500,500,500,500,500,500,500,500,500,502,503,504,505,505,505,505,505,505,505,505,505,505,505,505,505,505,505,505,505,505,505,505,505,505,505,505,505,505,505,505,505,505,505,505,505,505,505,505,505,505,505,505,505,505,505,505,505,505,505,505,505,505,505,505,505,505,505,505,505,505,505,505,505,505,505,505,505,505,505,505,505,505,505,505,505,505,505,505,505,505,504,504,504,504,504,504,504,504,504,504,504,504,504,504,504,502,496,481,457,369,330,294,268,251,223,212,204,204,204,203,202,199,188,165,137,131,130,126,120,99,86,75,67],"timestamp_mouse":[8,23,46,63,82,103,124,142,164,184,202,223,244,262,284,303,322,344,362,382,403,424,443,464,483,502,523,543,564,584,602,624,642,664,684,702,722,743,764,784,803,823,844,862,883,903,922,942,963,983,1002,1023,1043,1063,1083,1103,1122,1144,1164,1183,1203,1223,1243,1263,1283,1303,1323,1343,1363,1382,1404,1422,1443,1462,1484,1503,1522,1543,1562,1584,1603,1622,1644,1663,1683,1703,1723,1742,1763,1782,1803,1823,1842,1863,1883,1902,1923,1944,1964,1984,2002,2023,2042,2064,2082,2102,2124,2142,2162,2183,2204,2224,2244,2264,2283,2302,2324,2344,2363,2384,2403,2424,2443,2464,2483,2504,2524,2544,2563,2584,2603,2623,2642,2662,2684,2704,2723,2743,2764,2783,2804,2823,2844,2864,2884,2903,2922,2943,2962,2984,3003,3023,3042,3063],"xSR":741.5,"ySR":469.95,"xT1":424.9,"yT1":0,"xT2":1058.1,"yT2":0,"toosoon":0,"cond_shown":"Congruent","ratio_trial":100,"L_num":12,"L_den":30,"R_num":13,"R_den":26,"correct_side":2,"subjID":"LauraSofiaRinconAriza11","gender":"1","school":"6","age":"11"},{"start_time":1551794038809,"click_time":1551794040155,"finger_time":1551794039575,"fix_duration":512.3449322501831,"trial":19,"RT":766,"MT":580,"sideResp":2,"stimulus":[],"xmouse":[806,806,806,806,806,806,806,806,806,806,806,806,806,806,806,806,806,806,806,806,806,806,806,806,806,806,806,806,806,806,806,806,806,806,806,806,810,823,875,994,1067,1145,1226,1299,1390,1401,1401,1401,1401,1401,1401,1401,1396,1382,1338,1313,1289,1275,1262,1240,1229,1221,1214,1208,1194,1178,1160,1146],"ymouse":[520,520,520,520,520,520,520,520,520,520,520,520,520,520,520,520,520,520,520,520,520,520,520,520,520,520,520,520,520,520,520,520,520,520,520,520,520,514,483,377,305,226,148,87,17,11,11,11,11,11,11,11,11,14,21,26,33,41,49,62,65,67,67,67,61,59,56,53],"timestamp_mouse":[8,26,45,65,87,107,126,146,167,186,205,227,246,265,286,305,325,345,366,386,407,426,446,467,486,506,526,546,566,586,606,627,646,667,686,706,727,746,766,787,807,826,846,866,886,907,925,946,966,986,1007,1027,1046,1066,1087,1107,1126,1146,1166,1186,1206,1225,1245,1267,1286,1307,1327,1346],"xSR":741.5,"ySR":469.95,"xT1":424.9,"yT1":0,"xT2":1058.1,"yT2":0,"toosoon":0,"cond_shown":"Congruent","ratio_trial":100,"L_num":12,"L_den":30,"R_num":13,"R_den":26,"correct_side":2,"subjID":"LauraSofiaRinconAriza11","gender":"1","school":"6","age":"11"},{"start_time":1551794042851,"click_time":1551794043876,"finger_time":1551794043636,"fix_duration":1095.4948119840667,"trial":20,"RT":785,"MT":240,"sideResp":2,"stimulus":[],"xmouse":[794,794,794,794,794,794,794,794,794,794,794,794,794,794,794,794,794,794,794,794,794,794,794,794,794,794,794,794,794,794,794,794,794,794,794,796,803,832,839,845,850,857,860,864,867,874,892,973,1036,1090,1123,1138],"ymouse":[500,500,500,500,500,500,500,500,500,500,500,500,500,500,500,500,500,500,500,500,500,500,500,500,500,500,500,500,500,500,500,500,500,500,500,500,499,487,481,476,470,461,456,450,444,432,402,298,235,168,110,75],"timestamp_mouse":[9,24,43,64,83,104,124,143,163,185,204,223,244,263,283,305,324,343,364,383,404,424,445,463,484,503,524,543,564,584,605,623,645,664,683,704,725,744,763,785,804,828,844,864,883,904,924,944,964,984,1005,1025],"xSR":741.5,"ySR":469.95,"xT1":424.9,"yT1":0,"xT2":1058.1,"yT2":0,"toosoon":0,"cond_shown":"Congruent","ratio_trial":100,"L_num":7,"L_den":14,"R_num":9,"R_den":15,"correct_side":2,"subjID":"LauraSofiaRinconAriza11","gender":"1","school":"6","age":"11"},{"start_time":1551794049729,"click_time":1551794050515,"finger_time":1551794050234,"fix_duration":1213.8674070644618,"trial":21,"RT":505,"MT":281,"sideResp":2,"stimulus":[],"xmouse":[791,791,791,791,791,791,791,791,791,791,791,791,791,791,791,791,791,791,791,791,793,798,808,823,834,842,847,849,855,858,865,874,889,928,962,1000,1034,1064,1102,1109],"ymouse":[524,524,524,524,524,524,524,524,524,524,524,524,524,524,524,524,524,524,524,521,518,514,505,485,472,463,453,447,433,423,407,386,354,293,246,203,165,136,100,93],"timestamp_mouse":[9,35,45,66,86,106,126,145,165,186,207,226,246,267,286,307,327,346,365,386,407,426,446,465,485,505,525,545,566,586,605,625,646,666,686,707,725,747,767,786],"xSR":741.5,"ySR":469.95,"xT1":424.9,"yT1":0,"xT2":1058.1,"yT2":0,"toosoon":0,"cond_shown":"Incongruent","ratio_trial":200,"L_num":7,"L_den":10,"R_num":12,"R_den":24,"correct_side":1,"subjID":"LauraSofiaRinconAriza11","gender":"1","school":"6","age":"11"},{"start_time":1551794052808,"click_time":1551794054095,"finger_time":1551794053556,"fix_duration":1071.48519404938,"trial":22,"RT":748,"MT":539,"sideResp":2,"stimulus":[],"xmouse":[828,828,828,828,828,828,828,828,828,828,828,828,828,828,828,828,828,828,828,828,828,828,828,828,828,828,828,828,828,827,826,825,825,825,825,829,840,858,894,944,959,969,974,977,985,994,1004,1016,1024,1036,1039,1040,1042,1042,1043,1047,1050,1052,1054,1057,1060,1064,1074,1098,1136],"ymouse":[550,550,550,550,550,550,550,550,550,550,550,550,550,550,550,550,550,550,550,550,550,550,550,550,550,550,550,550,549,545,544,543,542,541,539,533,522,508,478,413,375,342,319,299,269,257,245,231,219,192,186,181,176,174,173,168,164,162,158,155,152,145,135,110,76],"timestamp_mouse":[9,27,47,67,87,108,127,147,167,188,207,226,247,268,287,307,328,348,368,387,407,428,446,467,487,506,526,547,568,587,607,626,646,667,688,707,727,748,768,787,807,827,847,867,887,908,927,948,967,987,1007,1027,1048,1068,1086,1106,1127,1147,1168,1187,1207,1228,1247,1267,1286],"xSR":741.5,"ySR":469.95,"xT1":424.9,"yT1":0,"xT2":1058.1,"yT2":0,"toosoon":0,"cond_shown":"Incongruent","ratio_trial":100,"L_num":9,"L_den":10,"R_num":20,"R_den":25,"correct_side":1,"subjID":"LauraSofiaRinconAriza11","gender":"1","school":"6","age":"11"},{"start_time":1551794058141,"click_time":1551794060196,"finger_time":1551794059434,"fix_duration":1464.9095733917745,"trial":23,"RT":1293,"MT":762,"sideResp":2,"stimulus":[],"xmouse":[793,791,791,790,790,790,790,790,790,790,790,790,790,790,790,790,790,790,790,790,790,790,790,790,790,790,790,790,790,790,790,790,790,790,790,790,790,790,790,790,790,790,790,790,790,790,790,790,790,790,790,790,790,790,790,790,790,790,790,790,790,790,790,802,819,836,855,896,917,938,954,970,977,980,984,991,1005,1041,1055,1065,1073,1078,1084,1088,1091,1094,1098,1102,1104,1106,1108,1113,1117,1117,1117,1117,1117,1117,1117,1117,1117,1117,1116],"ymouse":[502,503,503,503,503,503,503,503,503,503,503,503,503,503,503,503,503,503,503,503,503,503,503,503,503,503,503,503,503,503,503,503,503,503,503,503,503,503,503,503,503,503,503,503,503,503,503,503,503,503,503,503,503,503,503,503,503,503,503,503,503,503,503,487,467,441,410,339,309,285,270,260,255,252,250,244,235,219,214,210,208,204,196,190,184,176,169,158,152,145,138,127,116,114,112,112,112,112,111,111,107,100,91],"timestamp_mouse":[14,34,53,74,94,114,134,153,175,195,215,234,254,273,295,314,335,353,374,395,413,433,454,473,493,513,535,553,575,594,614,633,654,674,694,714,734,754,774,795,813,835,855,874,893,915,934,953,973,995,1014,1033,1053,1073,1094,1114,1133,1153,1175,1195,1214,1234,1254,1274,1293,1313,1335,1354,1374,1395,1414,1434,1453,1475,1493,1513,1535,1554,1573,1593,1614,1635,1654,1674,1694,1715,1735,1754,1773,1793,1814,1834,1854,1873,1893,1915,1934,1954,1975,1994,2015,2033,2055],"xSR":741.5,"ySR":469.95,"xT1":424.9,"yT1":0,"xT2":1058.1,"yT2":0,"toosoon":0,"cond_shown":"Congruent","ratio_trial":200,"L_num":5,"L_den":10,"R_num":14,"R_den":20,"correct_side":2,"subjID":"LauraSofiaRinconAriza11","gender":"1","school":"6","age":"11"},{"start_time":1551794061726,"click_time":1551794067936,"finger_time":1551794065895,"fix_duration":250,"trial":24,"RT":4169,"MT":2041,"sideResp":2,"stimulus":[],"xmouse":[825,825,825,825,825,825,825,825,825,825,825,825,825,825,825,825,825,825,825,825,825,825,825,825,825,825,825,825,825,825,825,825,825,825,825,825,825,825,825,825,825,825,825,825,825,825,825,825,825,825,825,825,825,825,825,825,825,825,825,825,825,825,825,825,825,825,825,825,825,825,825,825,825,825,825,825,825,825,825,825,825,825,825,825,825,825,825,825,825,825,825,825,825,825,825,825,825,825,820,816,813,813,813,812,812,812,812,811,810,810,808,805,803,803,802,802,802,802,802,802,802,802,802,802,802,802,802,802,802,802,802,802,802,802,802,802,802,802,802,802,802,802,802,802,802,802,802,802,802,802,802,802,802,802,802,802,802,802,802,802,802,802,802,802,802,802,802,802,802,802,802,802,802,802,802,802,802,802,802,802,802,802,802,815,827,834,835,835,835,835,835,835,835,834,825,816,809,806,804,803,802,799,798,798,798,797,809,823,872,888,897,897,897,897,897,897,897,897,897,895,877,856,831,813,810,809,808,808,808,808,808,808,808,808,808,808,808,808,808,808,808,808,808,808,808,808,808,808,808,808,808,808,808,808,808,808,808,808,808,808,808,808,808,808,808,808,808,808,808,808,808,808,808,808,808,808,808,808,808,808,808,808,808,808,808,808,808,808,812,830,849,876,927,1051,1108,1160,1199,1210,1210,1210,1210,1210,1210,1210,1210,1210,1210,1210,1210,1164,1153],"ymouse":[506,506,506,506,506,506,506,506,506,506,506,506,506,506,506,506,506,506,506,506,506,506,506,506,506,506,506,506,506,506,506,506,506,506,506,506,506,506,506,506,506,506,506,506,506,506,506,506,506,506,506,506,506,506,506,506,506,506,506,506,506,506,506,506,506,506,506,506,506,506,506,506,506,506,506,506,506,506,506,506,506,506,506,506,506,506,506,506,506,506,506,506,506,506,506,506,506,506,507,508,509,509,509,509,509,509,509,510,510,510,511,512,513,513,513,513,513,513,513,513,513,513,513,513,513,513,513,513,513,513,513,513,513,513,513,513,513,513,513,513,513,513,513,513,513,513,513,513,513,513,513,513,513,513,513,513,513,513,513,513,513,513,513,513,513,513,513,513,513,513,513,513,513,513,513,513,513,513,513,513,513,513,513,512,511,510,510,510,510,510,510,510,510,510,510,511,511,512,512,513,513,514,514,514,514,515,514,512,508,508,508,508,508,508,508,508,508,508,508,508,510,511,511,511,511,511,512,512,512,512,512,512,512,512,512,512,512,512,512,512,512,512,512,512,512,512,512,512,512,512,512,512,512,512,512,512,512,512,512,512,512,512,512,512,512,512,512,512,512,512,512,512,512,512,512,512,512,512,512,512,512,512,512,512,512,512,512,512,507,492,476,446,363,194,119,60,14,4,4,4,4,4,4,4,4,4,4,4,4,5,15],"timestamp_mouse":[10,33,49,69,89,108,129,150,168,189,208,228,249,269,289,310,328,349,370,388,410,430,449,468,488,508,530,550,569,588,609,630,649,668,690,709,729,750,769,788,808,828,850,868,890,910,929,948,969,989,1010,1029,1049,1069,1089,1108,1129,1149,1169,1189,1209,1229,1249,1268,1288,1309,1328,1350,1369,1388,1410,1428,1449,1469,1489,1509,1530,1549,1568,1588,1609,1629,1648,1668,1689,1710,1728,1749,1769,1789,1808,1828,1849,1869,1888,1908,1930,1949,1970,1989,2009,2030,2049,2068,2088,2109,2129,2148,2168,2189,2209,2229,2250,2269,2288,2309,2329,2348,2369,2388,2409,2428,2450,2469,2488,2508,2528,2549,2569,2588,2610,2629,2648,2669,2689,2708,2729,2749,2769,2788,2810,2828,2848,2869,2888,2910,2929,2949,2969,2989,3009,3030,3048,3068,3089,3109,3128,3150,3169,3189,3210,3229,3250,3269,3289,3308,3329,3348,3369,3389,3408,3430,3449,3468,3489,3509,3528,3549,3568,3590,3610,3628,3649,3669,3689,3708,3729,3749,3768,3790,3809,3828,3848,3869,3889,3909,3929,3949,3968,3990,4009,4030,4049,4069,4090,4109,4130,4148,4169,4189,4209,4229,4248,4269,4288,4308,4329,4349,4369,4390,4409,4429,4448,4468,4489,4509,4529,4549,4569,4589,4609,4629,4650,4668,4688,4709,4730,4750,4768,4790,4810,4830,4850,4869,4889,4909,4929,4949,4969,4989,5008,5030,5050,5069,5089,5108,5129,5149,5169,5189,5209,5229,5248,5268,5290,5310,5330,5349,5368,5390,5409,5430,5450,5469,5489,5510,5529,5549,5569,5590,5608,5630,5648,5669,5689,5709,5729,5749,5769,5789,5809,5829,5850,5870,5889,5909,5930,5949,5969,5989,6010,6029,6048,6069,6088,6110,6129,6149,6170,6189,6210],"xSR":741.5,"ySR":469.95,"xT1":424.9,"yT1":0,"xT2":1058.1,"yT2":0,"toosoon":0,"cond_shown":"Congruent","ratio_trial":100,"L_num":12,"L_den":30,"R_num":13,"R_den":26,"correct_side":2,"subjID":"LauraSofiaRinconAriza11","gender":"1","school":"6","age":"11"},{"start_time":1551794069986,"click_time":1551794071095,"finger_time":1551794070615,"fix_duration":590.5043393819094,"trial":25,"RT":629,"MT":480,"sideResp":1,"stimulus":[],"xmouse":[815,815,816,816,816,816,816,816,816,817,817,817,817,817,817,817,817,817,817,817,817,817,817,817,818,818,818,816,815,809,792,784,778,775,750,720,694,668,641,613,603,603,602,600,582,567,554,547,540,532,525,518,511,505,500],"ymouse":[510,507,507,507,507,507,507,506,504,500,500,499,499,499,499,499,497,497,497,497,497,497,497,497,497,496,495,493,490,484,457,437,415,391,321,284,257,235,212,193,185,185,185,183,176,170,165,163,160,153,146,137,125,113,99],"timestamp_mouse":[31,49,70,90,108,130,150,169,190,209,230,249,270,289,309,330,350,369,388,409,429,449,470,488,509,529,549,568,589,609,629,650,669,690,709,729,750,770,788,808,829,849,868,889,909,930,950,970,989,1009,1030,1049,1069,1089,1109],"xSR":741.5,"ySR":469.95,"xT1":424.9,"yT1":0,"xT2":1058.1,"yT2":0,"toosoon":0,"cond_shown":"Incongruent","ratio_trial":300,"L_num":4,"L_den":20,"R_num":2,"R_den":4,"correct_side":2,"subjID":"LauraSofiaRinconAriza11","gender":"1","school":"6","age":"11"},{"start_time":1551794073610,"click_time":1551794075135,"finger_time":1551794074716,"fix_duration":614.3846618101377,"trial":26,"RT":1106,"MT":419,"sideResp":2,"stimulus":[],"xmouse":[797,797,797,797,797,797,797,797,797,797,797,797,797,797,797,797,797,797,797,797,797,799,800,801,801,801,801,801,801,801,801,801,801,801,801,801,801,801,801,801,801,801,801,801,801,803,803,804,804,804,804,805,806,810,824,841,885,899,943,990,1002,1011,1018,1027,1038,1042,1043,1043,1043,1040,1039,1039,1039,1039,1045,1057,1068],"ymouse":[504,504,504,504,504,504,504,504,504,504,504,504,504,504,504,504,504,504,504,504,504,502,502,501,501,501,501,501,501,501,501,501,501,501,501,501,501,501,501,501,501,501,501,501,501,499,499,498,498,498,498,497,496,492,477,461,429,419,383,329,312,292,273,254,222,207,189,172,153,122,116,114,112,110,97,81,65],"timestamp_mouse":[10,33,45,66,85,105,126,145,164,185,206,225,245,266,285,304,326,345,365,385,405,426,446,466,485,506,526,545,566,585,605,624,645,665,686,706,726,746,765,785,806,826,846,866,884,905,925,945,965,985,1005,1025,1045,1065,1084,1106,1125,1146,1166,1185,1206,1225,1245,1265,1286,1305,1325,1344,1366,1385,1406,1425,1446,1465,1486,1505,1524],"xSR":741.5,"ySR":469.95,"xT1":424.9,"yT1":0,"xT2":1058.1,"yT2":0,"toosoon":0,"cond_shown":"Congruent","ratio_trial":200,"L_num":13,"L_den":26,"R_num":14,"R_den":20,"correct_side":2,"subjID":"LauraSofiaRinconAriza11","gender":"1","school":"6","age":"11"},{"start_time":1551794076526,"click_time":1551794077915,"finger_time":1551794077115,"fix_duration":250,"trial":27,"RT":589,"MT":800,"sideResp":2,"stimulus":[],"xmouse":[806,806,806,806,806,806,806,806,806,806,806,806,806,806,806,806,806,806,806,806,806,806,806,810,814,817,821,826,841,853,865,867,871,875,876,877,880,884,899,910,922,934,950,967,972,978,986,995,1012,1021,1030,1033,1036,1038,1039,1041,1044,1048,1061,1065,1067,1070,1074,1082,1085,1086,1087,1088,1092,1093],"ymouse":[545,545,545,545,545,545,545,545,545,545,545,545,545,545,545,545,545,545,545,545,545,545,543,537,534,531,528,525,513,506,496,495,491,486,485,484,480,475,455,439,422,405,379,350,337,318,298,279,238,222,205,200,195,190,188,184,177,170,150,143,138,132,126,115,111,109,107,105,100,97],"timestamp_mouse":[10,36,50,69,89,109,129,150,169,189,209,230,249,269,289,309,329,348,368,390,409,429,449,468,490,508,529,549,569,589,609,630,650,670,689,710,729,749,770,789,809,829,850,868,890,909,930,950,970,990,1009,1030,1049,1069,1088,1109,1130,1149,1169,1189,1209,1229,1249,1269,1290,1310,1329,1348,1369,1389],"xSR":741.5,"ySR":469.95,"xT1":424.9,"yT1":0,"xT2":1058.1,"yT2":0,"toosoon":0,"cond_shown":"Incongruent","ratio_trial":100,"L_num":2,"L_den":4,"R_num":8,"R_den":20,"correct_side":1,"subjID":"LauraSofiaRinconAriza11","gender":"1","school":"6","age":"11"},{"start_time":1551794080309,"click_time":1551794082535,"finger_time":1551794082074,"fix_duration":250,"trial":28,"RT":1765,"MT":461,"sideResp":1,"stimulus":[],"xmouse":[809,809,809,809,809,809,809,809,809,809,810,810,810,810,810,811,812,812,814,815,815,815,815,815,815,815,815,816,816,816,816,816,816,816,816,816,816,816,816,816,816,816,816,816,816,816,816,816,816,816,816,816,816,816,816,816,816,816,817,821,824,825,827,830,832,835,835,835,835,835,835,835,835,835,835,835,835,835,834,832,825,818,812,801,783,775,764,748,725,661,632,614,604,602,603,604,604,604,598,575,568,568,568,568,568,568,568,547,544,534,528,519],"ymouse":[558,558,558,558,558,557,557,557,556,556,555,555,555,554,552,552,550,550,548,546,545,545,545,545,545,545,544,543,543,543,543,543,543,542,542,542,542,542,542,542,542,542,542,542,542,542,542,542,542,542,542,542,542,542,541,541,539,535,532,522,517,514,510,507,504,502,502,502,502,502,502,502,502,502,501,501,501,501,499,499,503,508,513,520,530,531,531,530,518,442,369,289,213,112,50,43,41,39,31,7,0,0,0,0,0,0,0,0,4,17,26,36],"timestamp_mouse":[9,33,45,66,86,106,126,147,166,186,206,227,247,266,285,307,326,347,367,386,405,426,446,466,485,506,527,545,566,586,607,625,647,666,685,707,727,746,767,786,806,825,847,865,886,906,926,945,967,986,1006,1025,1047,1065,1086,1107,1127,1146,1167,1186,1207,1226,1246,1267,1286,1307,1326,1347,1366,1385,1406,1427,1446,1467,1485,1506,1526,1547,1566,1586,1606,1627,1646,1667,1686,1707,1726,1747,1765,1785,1807,1827,1846,1867,1886,1906,1926,1946,1967,1986,2005,2026,2047,2066,2087,2106,2126,2147,2166,2186,2207,2226],"xSR":741.5,"ySR":469.95,"xT1":424.9,"yT1":0,"xT2":1058.1,"yT2":0,"toosoon":0,"cond_shown":"Congruent","ratio_trial":200,"L_num":9,"L_den":20,"R_num":4,"R_den":16,"correct_side":1,"subjID":"LauraSofiaRinconAriza11","gender":"1","school":"6","age":"11"},{"start_time":1551794085049,"click_time":1551794086195,"finger_time":1551794085795,"fix_duration":1253.252475520309,"trial":29,"RT":746,"MT":400,"sideResp":1,"stimulus":[],"xmouse":[807,807,807,807,807,807,807,807,807,807,807,807,807,807,807,807,807,807,807,807,807,807,807,807,807,807,807,807,807,807,807,807,807,807,807,805,803,790,780,769,757,742,709,692,680,668,654,633,620,605,590,571,539,531,528,527,525,524],"ymouse":[502,502,502,502,502,502,502,502,502,502,502,502,502,502,502,502,502,502,502,502,502,502,502,502,502,502,502,502,502,502,502,502,502,502,502,493,490,453,434,417,400,382,345,323,306,290,269,241,223,204,184,159,112,96,89,86,84,82],"timestamp_mouse":[5,26,47,66,86,106,126,146,167,187,207,226,246,266,286,306,326,346,366,386,407,426,446,465,486,506,525,546,567,587,607,626,646,666,687,706,727,746,767,786,806,826,846,865,886,906,927,947,967,986,1005,1027,1046,1067,1086,1106,1127,1146],"xSR":741.5,"ySR":469.95,"xT1":424.9,"yT1":0,"xT2":1058.1,"yT2":0,"toosoon":0,"cond_shown":"Incongruent","ratio_trial":300,"L_num":4,"L_den":5,"R_num":8,"R_den":16,"correct_side":1,"subjID":"LauraSofiaRinconAriza11","gender":"1","school":"6","age":"11"},{"start_time":1551794088115,"click_time":1551794089335,"finger_time":1551794088595,"fix_duration":718.0240816907087,"trial":30,"RT":480,"MT":740,"sideResp":1,"stimulus":[],"xmouse":[787,787,787,787,787,787,787,787,787,787,787,787,787,787,787,787,787,787,787,787,787,787,787,790,791,789,785,783,779,774,770,762,751,741,713,701,691,686,683,682,682,682,682,682,682,677,665,645,616,570,565,563,563,562,555,547,544,542,542,540,530,518],"ymouse":[510,510,510,510,510,510,510,510,510,510,510,510,510,510,510,510,510,510,510,510,510,510,508,493,458,444,431,421,413,403,397,385,370,355,312,295,282,271,266,262,262,262,262,262,262,253,236,211,176,124,116,114,113,112,108,104,102,101,101,100,95,91],"timestamp_mouse":[1,33,40,61,80,100,119,140,161,179,200,220,240,261,280,300,320,339,359,380,400,421,440,461,480,500,520,539,560,580,601,621,640,661,681,699,720,741,760,780,800,819,840,861,880,901,920,941,961,980,1001,1020,1040,1061,1080,1101,1120,1139,1161,1180,1200,1220],"xSR":741.5,"ySR":469.95,"xT1":424.9,"yT1":0,"xT2":1058.1,"yT2":0,"toosoon":0,"cond_shown":"Congruent","ratio_trial":300,"L_num":20,"L_den":25,"R_num":14,"R_den":28,"correct_side":1,"subjID":"LauraSofiaRinconAriza11","gender":"1","school":"6","age":"11"},{"start_time":1551794090709,"click_time":1551794091995,"finger_time":1551794091395,"fix_duration":250,"trial":31,"RT":686,"MT":600,"sideResp":2,"stimulus":[],"xmouse":[801,803,803,805,806,807,808,808,808,808,808,808,808,808,808,808,808,808,808,808,811,812,812,812,812,811,811,811,811,811,811,811,811,816,827,833,839,846,858,958,1019,1086,1138,1198,1218,1218,1218,1218,1218,1218,1218,1218,1218,1218,1218,1218,1218,1218,1218,1218,1192,1189,1185,1173,1140],"ymouse":[502,505,505,508,509,510,511,511,512,512,512,512,512,512,512,512,512,512,512,512,505,500,495,492,490,489,489,489,489,489,489,489,486,481,465,454,441,423,401,276,213,153,102,45,13,12,11,9,8,1,1,1,1,1,1,1,1,1,1,1,0,4,9,20,45],"timestamp_mouse":[14,38,46,66,85,107,126,147,167,187,206,227,247,265,286,307,326,347,366,385,406,426,447,466,485,506,526,547,565,586,607,626,647,666,686,706,726,745,765,786,806,827,847,867,886,906,926,946,967,986,1006,1027,1047,1066,1087,1106,1125,1146,1167,1187,1206,1226,1246,1267,1286],"xSR":741.5,"ySR":469.95,"xT1":424.9,"yT1":0,"xT2":1058.1,"yT2":0,"toosoon":0,"cond_shown":"Incongruent","ratio_trial":300,"L_num":4,"L_den":20,"R_num":2,"R_den":4,"correct_side":2,"subjID":"LauraSofiaRinconAriza11","gender":"1","school":"6","age":"11"},{"start_time":1551794095019,"click_time":1551794095995,"finger_time":1551794095575,"fix_duration":1442.0654543338812,"trial":32,"RT":556,"MT":420,"sideResp":2,"stimulus":[],"xmouse":[826,826,826,826,826,826,826,826,826,826,826,826,826,826,826,826,826,826,826,826,826,826,826,826,826,828,834,850,888,894,897,900,901,902,903,904,906,909,913,917,919,923,926,947,971,1004,1039,1079,1100],"ymouse":[510,510,510,510,510,510,510,510,510,510,510,510,510,510,510,509,509,509,508,507,507,507,507,507,507,506,502,487,462,457,453,448,447,446,445,444,443,441,437,432,428,418,406,353,309,250,192,127,96],"timestamp_mouse":[16,35,57,76,97,115,137,156,176,195,216,237,255,276,296,317,335,357,376,397,416,436,456,476,496,516,536,556,576,595,616,637,656,676,696,716,736,757,776,795,816,837,857,876,897,916,937,956,975],"xSR":741.5,"ySR":469.95,"xT1":424.9,"yT1":0,"xT2":1058.1,"yT2":0,"toosoon":0,"cond_shown":"Congruent","ratio_trial":200,"L_num":16,"L_den":20,"R_num":12,"R_den":20,"correct_side":1,"subjID":"LauraSofiaRinconAriza11","gender":"1","school":"6","age":"11"},{"start_time":1551794097878,"click_time":1551794099036,"finger_time":1551794098435,"fix_duration":981.0097806289226,"trial":33,"RT":557,"MT":601,"sideResp":1,"stimulus":[],"xmouse":[805,805,805,805,805,805,805,805,805,805,805,805,805,805,805,805,805,805,805,805,805,805,805,805,805,805,802,784,752,714,683,662,662,661,661,660,658,656,655,654,652,647,632,628,610,594,590,583,573,565,541,529,528,527,526,526,524,521],"ymouse":[532,532,532,532,532,532,532,532,532,532,532,532,532,532,532,532,532,532,532,532,532,532,532,532,531,496,471,427,369,312,266,228,222,217,214,206,201,197,192,189,185,181,171,168,159,148,144,138,131,125,111,105,104,103,103,102,100,97],"timestamp_mouse":[16,36,57,78,98,116,138,158,178,196,217,237,256,277,296,316,337,357,378,396,417,437,456,477,498,517,537,557,578,596,617,637,657,677,698,717,738,757,776,798,818,837,857,878,897,917,937,962,978,998,1018,1038,1057,1077,1097,1118,1137,1158],"xSR":741.5,"ySR":469.95,"xT1":424.9,"yT1":0,"xT2":1058.1,"yT2":0,"toosoon":0,"cond_shown":"Congruent","ratio_trial":200,"L_num":9,"L_den":20,"R_num":4,"R_den":16,"correct_side":1,"subjID":"LauraSofiaRinconAriza11","gender":"1","school":"6","age":"11"},{"start_time":1551794102051,"click_time":1551794104295,"finger_time":1551794102595,"fix_duration":1255.8121433048952,"trial":34,"RT":544,"MT":1700,"sideResp":1,"stimulus":[],"xmouse":[796,796,796,796,796,796,796,796,796,796,796,796,796,796,796,796,796,800,807,810,813,816,824,824,824,824,825,825,827,827,827,827,827,827,827,827,827,827,827,827,827,827,827,827,827,827,827,827,827,827,827,827,827,826,822,817,809,803,802,801,800,799,799,799,799,799,799,799,799,799,799,799,799,799,799,799,799,799,799,799,799,799,799,799,799,799,799,799,799,799,799,799,799,799,799,799,796,780,774,769,764,759,741,724,687,639,595,508,501,497,495,494,493],"ymouse":[494,494,494,494,494,494,494,494,494,494,494,494,494,494,494,494,494,490,485,482,480,477,471,470,470,470,470,469,468,468,468,468,468,468,468,468,468,468,468,468,468,468,468,468,468,468,468,468,468,468,468,468,468,468,471,474,479,482,483,484,485,488,493,494,497,498,499,500,500,500,500,500,500,500,500,500,500,500,500,500,500,500,500,500,500,500,500,500,500,500,500,500,500,500,500,496,486,434,412,394,376,359,327,306,269,230,198,130,121,115,108,101,75],"timestamp_mouse":[8,24,45,63,84,104,125,143,165,184,204,224,244,264,283,305,324,344,364,384,405,423,443,465,485,504,524,544,565,585,604,624,644,665,684,704,725,744,764,784,803,824,845,864,885,904,925,945,965,984,1005,1024,1044,1065,1084,1104,1124,1144,1165,1184,1204,1225,1244,1264,1283,1304,1325,1344,1364,1385,1405,1425,1443,1465,1485,1505,1525,1544,1564,1584,1605,1625,1644,1665,1684,1705,1725,1744,1765,1783,1803,1823,1844,1865,1884,1904,1925,1944,1965,1984,2004,2024,2045,2064,2084,2104,2125,2144,2164,2184,2205,2224,2244],"xSR":741.5,"ySR":469.95,"xT1":424.9,"yT1":0,"xT2":1058.1,"yT2":0,"toosoon":0,"cond_shown":"Incongruent","ratio_trial":100,"L_num":3,"L_den":9,"R_num":7,"R_den":30,"correct_side":1,"subjID":"LauraSofiaRinconAriza11","gender":"1","school":"6","age":"11"},{"start_time":1551794107460,"click_time":1551794110095,"finger_time":1551794109156,"fix_duration":803.1218386932862,"trial":35,"RT":1696,"MT":939,"sideResp":1,"stimulus":[],"xmouse":[831,831,831,831,831,831,831,831,831,831,831,831,831,831,831,831,831,831,831,831,831,831,831,831,831,831,831,831,831,831,831,831,831,831,831,831,831,831,831,831,831,831,831,831,831,831,831,831,831,831,831,831,831,831,831,831,831,831,831,831,831,831,831,831,831,831,831,831,831,831,831,831,831,831,831,831,832,832,832,832,830,829,831,838,858,870,881,883,884,886,889,895,899,906,910,914,915,915,915,911,903,884,871,857,840,825,787,770,752,734,706,660,644,629,616,593,564,552,543,537,536,535,534,532,529,525,525,525,525,525,525,524],"ymouse":[555,555,555,555,555,555,555,555,555,555,555,555,555,555,555,555,555,555,555,555,555,555,555,555,555,555,555,555,555,555,555,555,555,555,555,555,555,555,555,555,555,555,555,555,555,555,555,555,555,555,555,555,555,555,555,555,555,555,555,555,555,555,555,555,555,555,555,555,555,555,555,555,555,555,555,555,554,554,551,547,542,530,525,518,504,495,487,485,484,483,480,473,464,449,432,409,397,391,385,377,368,352,346,342,338,331,312,298,280,259,226,172,153,135,119,91,68,60,55,53,52,52,52,51,50,50,50,50,50,50,50,49],"timestamp_mouse":[15,34,56,76,96,114,135,155,175,195,215,235,256,274,296,315,334,355,375,396,414,435,455,474,496,515,535,556,575,595,615,635,655,676,695,716,735,755,776,796,815,835,855,876,895,916,935,956,975,995,1016,1035,1055,1075,1095,1116,1135,1155,1176,1194,1215,1235,1255,1275,1295,1315,1334,1356,1376,1396,1416,1435,1455,1475,1495,1515,1535,1555,1575,1596,1615,1635,1654,1675,1696,1714,1735,1755,1774,1795,1815,1835,1855,1875,1896,1916,1935,1955,1975,1994,2016,2036,2055,2074,2096,2116,2135,2156,2175,2195,2215,2235,2255,2276,2295,2314,2336,2356,2375,2395,2416,2435,2456,2476,2496,2516,2536,2556,2575,2596,2615,2635],"xSR":741.5,"ySR":469.95,"xT1":424.9,"yT1":0,"xT2":1058.1,"yT2":0,"toosoon":0,"cond_shown":"Congruent","ratio_trial":300,"L_num":4,"L_den":5,"R_num":2,"R_den":4,"correct_side":1,"subjID":"LauraSofiaRinconAriza11","gender":"1","school":"6","age":"11"},{"start_time":1551794111467,"click_time":1551794113176,"finger_time":1551794112635,"fix_duration":250,"trial":36,"RT":1168,"MT":541,"sideResp":2,"stimulus":[],"xmouse":[801,801,801,801,801,801,801,801,801,801,801,801,801,801,801,801,802,802,802,802,802,802,802,802,802,802,802,802,802,802,802,802,802,802,802,802,802,802,802,802,802,802,802,802,802,802,802,802,802,802,802,802,802,802,805,811,830,841,854,861,866,872,879,897,908,955,998,1011,1022,1024,1025,1025,1025,1025,1025,1025,1025,1025,1025,1025,1025,1025,1025,1028,1053,1066],"ymouse":[544,544,544,544,544,544,544,544,544,544,544,544,544,544,544,544,545,545,545,545,545,545,545,545,545,545,545,545,545,545,545,545,545,545,545,545,545,545,545,545,545,545,545,545,545,545,545,545,545,545,545,545,545,545,544,540,525,514,496,481,467,440,421,379,363,288,200,156,118,96,81,71,71,71,71,71,71,71,71,71,71,71,71,70,65,63],"timestamp_mouse":[10,31,48,67,88,109,128,149,168,189,209,228,249,269,289,309,328,348,367,388,407,427,449,468,489,508,528,548,567,588,609,628,647,669,689,708,727,749,768,788,807,828,849,867,888,909,928,948,967,989,1009,1028,1048,1068,1089,1108,1128,1148,1168,1188,1207,1229,1249,1268,1288,1309,1328,1348,1367,1388,1408,1429,1448,1468,1487,1508,1528,1548,1568,1589,1608,1629,1649,1669,1688,1709],"xSR":741.5,"ySR":469.95,"xT1":424.9,"yT1":0,"xT2":1058.1,"yT2":0,"toosoon":0,"cond_shown":"Incongruent","ratio_trial":300,"L_num":13,"L_den":26,"R_num":12,"R_den":15,"correct_side":2,"subjID":"LauraSofiaRinconAriza11","gender":"1","school":"6","age":"11"},{"start_time":1551794116406,"click_time":1551794117375,"finger_time":1551794117114,"fix_duration":250,"trial":37,"RT":708,"MT":261,"sideResp":1,"stimulus":[],"xmouse":[818,818,818,818,818,818,818,818,818,818,818,818,818,818,818,818,818,818,818,818,818,818,818,818,818,818,818,818,818,818,818,818,816,815,809,799,786,765,725,674,653,630,609,587,554,542,533,527,519],"ymouse":[491,491,491,491,491,491,491,491,491,491,491,491,491,491,491,491,491,491,491,491,491,491,491,491,491,491,491,491,491,491,491,491,490,490,471,451,425,391,329,248,215,184,160,142,119,113,107,102,98],"timestamp_mouse":[10,39,49,70,88,109,128,150,169,190,209,229,249,270,288,310,329,350,370,389,408,429,449,470,489,509,529,549,569,589,609,628,649,669,689,708,729,749,770,790,808,829,850,870,889,909,928,950,969],"xSR":741.5,"ySR":469.95,"xT1":424.9,"yT1":0,"xT2":1058.1,"yT2":0,"toosoon":0,"cond_shown":"Incongruent","ratio_trial":300,"L_num":2,"L_den":4,"R_num":6,"R_den":30,"correct_side":1,"subjID":"LauraSofiaRinconAriza11","gender":"1","school":"6","age":"11"},{"start_time":1551794118769,"click_time":1551794120216,"finger_time":1551794119795,"fix_duration":250,"trial":38,"RT":1026,"MT":421,"sideResp":1,"stimulus":[],"xmouse":[803,803,803,803,803,803,803,803,803,803,803,803,803,803,803,803,803,803,803,803,803,803,803,803,803,803,803,803,803,803,803,803,803,803,803,803,803,803,803,803,803,803,803,803,803,803,803,803,797,790,777,713,682,665,655,647,642,642,641,638,628,611,608,606,606,604,591,578,566,557,546,527,513],"ymouse":[522,522,522,522,522,522,522,522,522,522,522,522,522,522,522,522,522,522,522,522,522,522,522,522,522,522,522,522,522,522,522,522,522,522,522,522,522,522,522,522,522,522,522,522,522,522,522,522,515,509,493,418,383,356,335,313,275,255,233,209,172,134,126,123,121,117,101,90,82,75,70,65,61],"timestamp_mouse":[10,39,46,67,85,106,126,146,165,186,207,225,246,266,285,306,326,346,366,385,406,426,446,466,485,506,526,546,567,585,606,625,647,666,686,706,726,746,765,787,807,826,845,866,887,907,926,945,967,986,1005,1026,1046,1066,1087,1106,1126,1147,1166,1187,1207,1226,1245,1266,1286,1306,1326,1347,1366,1387,1407,1426,1447],"xSR":741.5,"ySR":469.95,"xT1":424.9,"yT1":0,"xT2":1058.1,"yT2":0,"toosoon":0,"cond_shown":"Incongruent","ratio_trial":100,"L_num":6,"L_den":10,"R_num":7,"R_den":14,"correct_side":1,"subjID":"LauraSofiaRinconAriza11","gender":"1","school":"6","age":"11"},{"start_time":1551794121554,"click_time":1551794122835,"finger_time":1551794122135,"fix_duration":358.1519827391387,"trial":39,"RT":581,"MT":700,"sideResp":1,"stimulus":[],"xmouse":[824,824,824,824,824,824,824,824,824,824,824,824,824,824,824,824,824,824,824,824,824,824,824,824,824,824,824,828,828,828,821,804,759,740,726,715,707,695,690,689,688,686,685,683,679,673,662,643,635,625,614,601,585,579,575,570,566,559,556,554,552,547,537,528,518],"ymouse":[525,525,525,525,525,525,525,525,525,525,525,525,525,525,525,525,525,525,525,525,525,525,525,525,525,523,519,494,476,457,425,399,339,316,294,276,260,233,221,211,203,195,190,186,181,173,162,146,140,132,124,115,104,100,97,94,91,86,84,83,81,79,76,74,71],"timestamp_mouse":[8,21,42,61,81,100,122,142,161,181,202,221,241,261,280,301,321,341,362,380,401,420,441,461,480,501,521,541,562,581,602,622,641,661,680,701,721,741,761,780,802,822,842,860,880,902,922,941,960,980,1002,1020,1041,1061,1081,1101,1121,1141,1161,1181,1202,1220,1241,1261,1281],"xSR":741.5,"ySR":469.95,"xT1":424.9,"yT1":0,"xT2":1058.1,"yT2":0,"toosoon":0,"cond_shown":"Incongruent","ratio_trial":200,"L_num":4,"L_den":6,"R_num":14,"R_den":30,"correct_side":1,"subjID":"LauraSofiaRinconAriza11","gender":"1","school":"6","age":"11"},{"start_time":1551794124594,"click_time":1551794125515,"finger_time":1551794125214,"fix_duration":598.3747709256658,"trial":40,"RT":620,"MT":301,"sideResp":2,"stimulus":[],"xmouse":[808,808,808,808,808,808,808,808,808,808,808,808,808,808,808,808,808,808,808,808,808,807,807,807,807,807,807,807,807,812,832,842,849,856,864,881,892,901,919,963,1011,1028,1038,1043,1047,1053,1060],"ymouse":[505,505,505,505,505,505,505,505,505,505,505,505,505,505,505,505,505,505,505,505,505,505,505,505,503,501,499,498,497,494,487,484,479,472,460,417,382,345,302,208,143,122,109,101,95,87,82],"timestamp_mouse":[8,21,40,61,81,101,121,141,161,182,200,220,241,262,280,301,321,342,362,382,401,422,442,460,481,501,522,541,562,581,601,620,640,662,682,702,721,741,761,780,801,821,841,861,882,902,921],"xSR":741.5,"ySR":469.95,"xT1":424.9,"yT1":0,"xT2":1058.1,"yT2":0,"toosoon":0,"cond_shown":"Congruent","ratio_trial":300,"L_num":8,"L_den":16,"R_num":1,"R_den":5,"correct_side":1,"subjID":"LauraSofiaRinconAriza11","gender":"1","school":"6","age":"11"},{"start_time":1551794127710,"click_time":1551794128855,"finger_time":1551794128335,"fix_duration":814.8150109174206,"trial":41,"RT":625,"MT":520,"sideResp":1,"stimulus":[],"xmouse":[789,789,789,790,790,790,790,790,790,790,790,790,790,790,791,791,791,791,791,791,791,791,791,791,791,791,792,792,792,792,789,779,758,725,677,673,670,667,667,664,661,658,653,647,636,629,621,611,598,581,566,560,550,539,530,527,526,524],"ymouse":[515,515,515,515,515,515,515,515,515,514,514,513,512,512,511,511,511,511,511,511,511,511,511,511,511,511,510,510,510,501,485,464,428,379,272,248,229,212,201,182,172,162,150,135,117,109,99,91,82,73,69,68,64,61,57,56,56,56],"timestamp_mouse":[9,35,46,66,85,105,127,145,165,185,205,225,246,265,285,305,325,346,366,386,405,426,445,465,485,505,526,546,566,585,605,625,646,666,685,705,725,745,765,785,806,825,846,865,885,905,925,946,965,985,1005,1025,1046,1066,1085,1106,1125,1145],"xSR":741.5,"ySR":469.95,"xT1":424.9,"yT1":0,"xT2":1058.1,"yT2":0,"toosoon":0,"cond_shown":"Incongruent","ratio_trial":300,"L_num":1,"L_den":2,"R_num":3,"R_den":15,"correct_side":1,"subjID":"LauraSofiaRinconAriza11","gender":"1","school":"6","age":"11"},{"start_time":1551794130388,"click_time":1551794131475,"finger_time":1551794131015,"fix_duration":271.0153632652851,"trial":42,"RT":627,"MT":460,"sideResp":1,"stimulus":[],"xmouse":[802,802,802,802,802,802,802,802,802,802,802,802,802,802,802,802,802,802,802,802,802,802,802,802,802,802,802,802,802,802,802,802,800,794,788,770,763,756,743,731,707,696,686,678,669,649,637,626,614,599,576,558,545,533,523],"ymouse":[482,482,482,482,482,482,482,482,482,482,482,482,482,482,482,482,482,482,482,482,482,482,482,482,482,482,482,482,482,482,481,468,451,431,409,371,357,340,312,293,259,243,229,218,207,183,171,158,147,131,106,95,86,81,75],"timestamp_mouse":[8,34,47,67,87,107,128,147,167,187,207,228,247,268,287,307,327,347,368,388,407,427,447,467,488,507,527,547,567,587,608,627,647,668,688,707,727,747,767,787,807,828,847,868,888,907,927,948,967,988,1008,1027,1047,1068,1087],"xSR":741.5,"ySR":469.95,"xT1":424.9,"yT1":0,"xT2":1058.1,"yT2":0,"toosoon":0,"cond_shown":"Incongruent","ratio_trial":200,"L_num":1,"L_den":3,"R_num":2,"R_den":15,"correct_side":1,"subjID":"LauraSofiaRinconAriza11","gender":"1","school":"6","age":"11"},{"start_time":1551794135938,"click_time":1551794138255,"finger_time":1551794137575,"fix_duration":1100.0003877284255,"trial":43,"RT":1637,"MT":680,"sideResp":2,"stimulus":[],"xmouse":[799,799,799,799,799,799,799,799,799,799,799,799,799,799,799,799,799,799,799,799,799,799,799,799,799,799,799,799,799,799,799,799,799,799,799,799,798,798,798,798,798,798,798,798,798,798,798,798,798,798,798,798,798,798,798,798,798,798,798,798,798,798,798,798,798,798,798,798,798,798,798,798,798,798,798,798,798,801,808,819,838,868,896,905,911,914,917,927,940,955,973,1000,1035,1064,1108,1151,1195,1217,1217,1217,1214,1204,1202,1201,1200,1200,1199,1187,1180,1176,1171,1164,1161,1159,1159,1158],"ymouse":[540,540,540,540,540,540,540,540,540,540,540,540,540,540,540,540,540,540,540,540,540,540,540,540,540,540,540,540,540,540,540,540,540,540,540,540,539,539,539,539,539,539,539,539,539,539,539,539,539,539,539,539,539,539,539,539,539,539,539,539,539,539,539,539,539,539,539,539,539,539,539,539,539,539,539,538,537,531,523,510,491,459,420,404,390,379,367,338,318,298,272,233,184,164,144,133,119,111,111,108,102,92,87,86,85,84,83,77,75,73,69,67,65,65,65,64],"timestamp_mouse":[17,39,58,77,98,119,137,157,177,197,217,237,257,277,297,317,338,357,378,398,417,437,457,477,498,517,537,558,578,597,618,637,657,679,698,717,738,757,777,797,818,837,857,877,898,917,937,957,978,997,1017,1037,1057,1078,1097,1118,1137,1158,1178,1199,1217,1237,1257,1277,1298,1317,1338,1357,1377,1398,1417,1437,1459,1478,1498,1517,1537,1557,1577,1597,1617,1637,1657,1678,1697,1718,1738,1758,1778,1797,1818,1838,1858,1877,1897,1917,1937,1957,1977,1997,2017,2038,2057,2078,2097,2118,2138,2157,2177,2197,2217,2238,2258,2277,2297,2317],"xSR":741.5,"ySR":469.95,"xT1":424.9,"yT1":0,"xT2":1058.1,"yT2":0,"toosoon":0,"cond_shown":"Incongruent","ratio_trial":100,"L_num":9,"L_den":18,"R_num":6,"R_den":10,"correct_side":2,"subjID":"LauraSofiaRinconAriza11","gender":"1","school":"6","age":"11"},{"start_time":1551794139696,"click_time":1551794141575,"finger_time":1551794140595,"fix_duration":419.321783687044,"trial":44,"RT":899,"MT":980,"sideResp":1,"stimulus":[],"xmouse":[809,809,809,809,809,809,809,809,809,809,809,809,809,809,809,809,809,809,809,809,809,809,809,809,809,809,809,809,809,809,809,809,809,809,809,809,809,809,809,809,809,809,809,809,809,804,799,794,790,783,767,759,751,742,728,716,702,679,660,641,638,637,636,632,626,625,625,625,625,625,625,625,625,625,625,625,623,622,620,615,614,612,611,606,593,583,571,564,557,547,541,534,527,521],"ymouse":[502,502,502,502,502,502,502,502,502,502,502,502,502,502,502,502,502,502,502,502,502,502,502,502,502,502,502,502,502,502,502,502,502,502,502,502,502,502,502,502,502,502,502,496,461,428,398,360,327,296,246,232,220,210,201,194,186,173,163,154,152,151,151,147,144,143,143,143,143,143,143,143,143,143,143,143,139,136,133,127,125,123,122,117,110,103,96,92,87,77,73,68,64,61],"timestamp_mouse":[33,40,59,80,99,120,140,160,179,199,219,239,260,279,299,319,340,359,380,399,419,440,459,480,499,519,539,559,579,599,620,639,659,679,699,719,740,760,780,799,819,839,859,879,899,920,939,959,980,999,1019,1039,1060,1079,1099,1120,1139,1159,1179,1200,1219,1241,1261,1280,1299,1319,1341,1359,1379,1399,1420,1440,1459,1480,1499,1519,1539,1559,1579,1600,1619,1640,1660,1680,1699,1720,1739,1760,1780,1799,1821,1839,1859,1879],"xSR":741.5,"ySR":469.95,"xT1":424.9,"yT1":0,"xT2":1058.1,"yT2":0,"toosoon":0,"cond_shown":"Congruent","ratio_trial":100,"L_num":6,"L_den":12,"R_num":15,"R_den":25,"correct_side":2,"subjID":"LauraSofiaRinconAriza11","gender":"1","school":"6","age":"11"},{"start_time":1551794148714,"click_time":1551794149896,"finger_time":1551794149416,"fix_duration":397.93406309016734,"trial":45,"RT":702,"MT":480,"sideResp":2,"stimulus":[],"xmouse":[776,776,776,776,782,792,796,798,799,799,799,799,799,799,799,799,799,799,799,799,799,799,799,799,799,799,799,799,799,799,799,799,799,799,821,849,868,880,886,892,895,904,916,929,959,960,959,959,959,959,961,969,982,992,1013,1025,1035,1045,1053,1073],"ymouse":[545,545,545,545,540,536,533,531,530,530,530,530,530,530,530,530,530,530,530,530,530,530,530,530,530,530,530,530,530,530,530,530,530,530,507,477,443,397,354,305,290,268,252,241,223,221,219,219,219,218,215,209,198,188,168,155,142,131,120,88],"timestamp_mouse":[8,34,41,61,81,102,122,141,161,182,202,221,242,261,281,302,322,341,362,381,402,421,442,461,481,501,522,541,561,582,602,622,641,662,681,701,721,741,762,781,801,821,842,862,881,902,921,941,961,981,1001,1021,1042,1062,1081,1101,1121,1142,1162,1182],"xSR":741.5,"ySR":469.95,"xT1":424.9,"yT1":0,"xT2":1058.1,"yT2":0,"toosoon":0,"cond_shown":"Incongruent","ratio_trial":300,"L_num":13,"L_den":26,"R_num":12,"R_den":15,"correct_side":2,"subjID":"LauraSofiaRinconAriza11","gender":"1","school":"6","age":"11"},{"start_time":1551794152568,"click_time":1551794156335,"finger_time":1551794155755,"fix_duration":1472.198936707389,"trial":46,"RT":3187,"MT":580,"sideResp":2,"stimulus":[],"xmouse":[781,781,781,781,781,781,781,781,781,781,781,781,781,781,781,781,781,781,781,781,781,781,781,781,781,781,784,787,788,788,788,788,788,788,788,788,788,788,788,788,788,788,788,788,788,788,788,788,788,788,788,788,788,788,788,788,788,788,788,788,788,788,788,788,788,788,788,788,788,788,788,788,788,788,788,788,788,788,788,788,788,788,788,788,788,788,788,788,788,788,788,788,788,788,788,788,788,788,788,788,788,788,788,788,788,788,788,788,788,788,788,788,788,788,788,788,788,788,788,788,788,788,788,788,788,788,788,788,788,788,788,788,788,788,788,788,788,788,788,788,788,788,788,788,788,788,788,788,788,788,788,788,788,788,788,788,788,801,824,891,966,1117,1152,1172,1184,1196,1202,1204,1205,1207,1208,1208,1208,1203,1200,1192,1184,1180,1179,1178,1177,1176,1174,1173,1171,1169,1163,1159,1151],"ymouse":[528,528,528,528,528,528,528,528,528,528,528,528,528,528,528,528,528,528,528,528,528,528,528,528,528,527,522,520,519,518,518,518,518,518,518,518,518,518,518,518,518,518,518,518,518,518,518,518,518,518,518,518,518,518,518,518,518,518,518,518,518,518,518,518,518,518,518,518,518,518,518,518,518,518,518,518,518,518,518,518,518,518,518,518,518,518,518,518,518,518,518,518,518,518,518,518,518,518,518,518,518,518,518,518,518,518,518,518,518,518,518,518,518,518,518,518,518,518,518,518,518,518,518,518,518,518,518,518,518,518,518,518,518,518,518,518,518,518,518,518,518,518,518,518,518,518,518,518,518,518,518,518,518,518,518,518,518,513,504,477,444,337,300,268,246,225,199,192,185,178,171,164,161,155,149,141,131,123,121,118,116,113,111,108,105,103,94,91,85],"timestamp_mouse":[11,27,48,67,88,107,127,147,167,187,207,228,247,268,287,307,327,347,367,387,408,427,447,467,489,508,527,548,567,587,607,627,648,667,687,707,729,748,767,787,807,827,847,867,888,907,927,947,967,987,1007,1027,1048,1067,1087,1109,1127,1148,1167,1187,1208,1227,1248,1267,1288,1307,1327,1348,1368,1387,1408,1427,1447,1468,1487,1507,1527,1548,1568,1588,1608,1627,1647,1667,1687,1708,1727,1747,1767,1787,1809,1827,1847,1867,1888,1908,1927,1948,1967,1987,2007,2027,2047,2067,2087,2107,2127,2148,2167,2188,2207,2227,2248,2268,2288,2308,2327,2347,2367,2387,2408,2427,2448,2468,2488,2508,2527,2548,2567,2587,2609,2627,2647,2667,2687,2708,2728,2748,2767,2787,2808,2827,2848,2867,2887,2907,2927,2947,2968,2988,3007,3027,3047,3068,3088,3108,3127,3149,3168,3187,3208,3227,3248,3267,3287,3307,3328,3348,3367,3387,3408,3427,3447,3467,3488,3508,3527,3547,3567,3588,3607,3627,3648,3667,3687,3708,3728,3748,3767],"xSR":741.5,"ySR":469.95,"xT1":424.9,"yT1":0,"xT2":1058.1,"yT2":0,"toosoon":0,"cond_shown":"Congruent","ratio_trial":300,"L_num":5,"L_den":25,"R_num":6,"R_den":12,"correct_side":2,"subjID":"LauraSofiaRinconAriza11","gender":"1","school":"6","age":"11"},{"start_time":1551794158069,"click_time":1551794159396,"finger_time":1551794158876,"fix_duration":751.6367237017794,"trial":47,"RT":807,"MT":520,"sideResp":2,"stimulus":[],"xmouse":[808,808,808,808,808,808,808,808,808,808,808,808,808,808,808,808,808,808,808,808,808,808,808,808,808,808,808,808,808,808,808,808,808,808,808,808,808,808,819,836,886,934,947,966,972,985,998,1003,1008,1016,1024,1040,1044,1046,1048,1049,1050,1051,1052,1054,1056,1064,1069,1074,1078,1085,1089],"ymouse":[511,511,511,511,511,511,511,511,511,511,511,511,511,511,511,511,511,511,511,511,511,511,511,511,511,511,511,511,511,511,511,511,511,511,511,511,511,511,499,485,445,396,375,341,330,301,271,257,242,227,211,182,172,166,159,156,152,151,149,145,141,130,123,117,111,103,95],"timestamp_mouse":[10,26,46,66,86,107,126,146,168,187,206,227,246,268,286,306,326,346,366,388,407,426,447,467,486,507,526,546,568,587,606,626,646,666,686,706,726,746,766,786,807,826,847,867,887,908,926,947,966,986,1007,1026,1046,1066,1086,1106,1126,1146,1167,1186,1206,1226,1246,1267,1287,1306,1327],"xSR":741.5,"ySR":469.95,"xT1":424.9,"yT1":0,"xT2":1058.1,"yT2":0,"toosoon":0,"cond_shown":"Congruent","ratio_trial":200,"L_num":13,"L_den":26,"R_num":14,"R_den":20,"correct_side":2,"subjID":"LauraSofiaRinconAriza11","gender":"1","school":"6","age":"11"},{"start_time":1551794160876,"click_time":1551794162696,"finger_time":1551794161795,"fix_duration":679.266399415151,"trial":48,"RT":919,"MT":901,"sideResp":1,"stimulus":[],"xmouse":[815,815,815,815,815,815,815,815,815,815,815,815,815,815,815,815,815,815,815,815,815,815,815,815,815,815,815,815,815,815,815,815,815,815,815,815,815,815,815,815,815,814,812,809,804,801,800,800,800,798,795,793,791,789,787,780,774,763,742,711,655,635,621,611,592,561,545,531,515,508,504,504,504,504,504,506,510,511,511,511,511,511,511,511,511,509,507,507,505,504,503],"ymouse":[527,527,527,527,527,527,527,527,527,527,527,527,527,527,527,527,527,527,527,527,527,527,527,527,527,527,527,527,527,527,527,527,527,527,527,527,527,527,527,527,527,521,514,504,484,460,449,438,428,415,390,378,367,358,348,336,327,316,304,288,264,255,248,242,231,213,204,193,181,176,168,166,162,161,161,158,150,144,140,137,136,135,135,131,129,122,118,114,111,106,96],"timestamp_mouse":[33,39,59,79,99,119,140,160,180,199,219,239,259,280,299,319,340,359,380,400,419,439,459,479,500,519,540,561,579,601,621,640,659,680,700,719,739,760,780,800,819,839,860,879,900,919,940,959,979,999,1019,1039,1059,1080,1099,1120,1139,1161,1180,1200,1219,1239,1260,1280,1300,1319,1339,1359,1379,1400,1420,1439,1460,1479,1499,1519,1539,1559,1580,1599,1620,1640,1660,1679,1699,1719,1740,1760,1779,1800,1820],"xSR":741.5,"ySR":469.95,"xT1":424.9,"yT1":0,"xT2":1058.1,"yT2":0,"toosoon":0,"cond_shown":"Incongruent","ratio_trial":100,"L_num":6,"L_den":10,"R_num":7,"R_den":14,"correct_side":1,"subjID":"LauraSofiaRinconAriza11","gender":"1","school":"6","age":"11"},{"start_time":1551794164831,"click_time":1551794166937,"finger_time":1551794166356,"fix_duration":1134.0524904423266,"trial":49,"RT":1525,"MT":581,"sideResp":2,"stimulus":[],"xmouse":[786,786,786,786,786,786,786,786,786,786,786,786,786,786,786,786,786,786,786,786,786,786,786,786,786,786,786,786,786,786,786,786,786,786,786,786,786,786,786,786,786,786,786,786,786,786,786,786,786,786,786,786,786,786,786,786,786,786,786,786,788,789,789,789,789,790,790,790,792,794,796,798,801,808,812,814,817,820,826,831,836,847,860,903,926,946,963,985,1005,1010,1014,1021,1033,1075,1097,1118,1126,1127,1128,1128,1128,1128,1128,1128,1128,1126],"ymouse":[526,526,526,526,526,526,526,526,526,526,526,526,526,526,526,526,526,526,526,526,526,526,526,526,526,526,526,526,526,526,526,526,526,526,526,526,526,526,526,526,526,526,526,526,526,526,526,526,526,526,526,526,526,526,526,526,526,526,526,526,526,526,526,526,526,526,526,526,524,522,520,518,512,497,488,479,469,452,427,412,398,379,358,300,271,248,233,218,210,208,206,202,195,176,167,159,153,152,151,149,145,140,134,115,106,98],"timestamp_mouse":[9,31,44,66,84,105,126,145,164,184,205,225,244,264,285,304,324,345,364,384,405,426,444,464,484,504,524,545,565,584,604,624,645,664,684,704,725,745,764,784,804,824,844,864,884,904,924,944,964,985,1004,1024,1045,1064,1084,1104,1125,1146,1164,1184,1204,1225,1246,1264,1285,1306,1324,1345,1364,1385,1405,1424,1445,1464,1484,1505,1525,1545,1564,1585,1604,1625,1644,1664,1684,1704,1726,1745,1765,1784,1804,1825,1844,1865,1884,1905,1924,1944,1964,1985,2004,2024,2044,2065,2085,2105],"xSR":741.5,"ySR":469.95,"xT1":424.9,"yT1":0,"xT2":1058.1,"yT2":0,"toosoon":0,"cond_shown":"Congruent","ratio_trial":100,"L_num":9,"L_den":15,"R_num":8,"R_den":16,"correct_side":1,"subjID":"LauraSofiaRinconAriza11","gender":"1","school":"6","age":"11"},{"start_time":1551794169476,"click_time":1551794170555,"finger_time":1551794170215,"fix_duration":1298.6856287521568,"trial":50,"RT":739,"MT":340,"sideResp":1,"stimulus":[],"xmouse":[811,811,811,811,811,811,811,811,811,811,811,811,811,811,811,811,811,811,811,811,811,811,811,811,811,811,811,811,811,807,803,785,779,778,776,775,775,772,769,764,757,736,719,693,667,634,602,594,592,590,589,579,563,539,517],"ymouse":[525,525,525,525,525,525,525,525,525,525,525,525,525,525,525,525,525,525,525,525,525,525,525,525,525,525,525,525,525,513,505,481,476,474,472,472,471,465,460,452,441,399,359,307,248,171,95,78,72,68,66,58,49,38,29],"timestamp_mouse":[1,32,39,59,80,99,119,140,160,181,199,219,241,259,279,300,319,339,360,379,400,419,439,459,479,499,519,540,560,579,600,620,639,659,679,699,719,739,759,779,799,820,839,860,881,899,919,939,959,979,999,1019,1041,1060,1079],"xSR":741.5,"ySR":469.95,"xT1":424.9,"yT1":0,"xT2":1058.1,"yT2":0,"toosoon":0,"cond_shown":"Congruent","ratio_trial":200,"L_num":12,"L_den":15,"R_num":6,"R_den":10,"correct_side":1,"subjID":"LauraSofiaRinconAriza11","gender":"1","school":"6","age":"11"},{"start_time":1551794171846,"click_time":1551794172815,"finger_time":1551794172495,"fix_duration":250,"trial":51,"RT":649,"MT":320,"sideResp":2,"stimulus":[],"xmouse":[799,799,799,799,799,799,799,799,799,799,799,799,799,799,799,799,799,799,799,799,799,799,799,799,799,799,799,799,801,806,812,817,826,833,844,852,872,915,933,945,954,961,991,1013,1038,1067,1103,1138,1148],"ymouse":[531,531,531,531,531,531,531,531,531,531,531,531,531,531,531,531,531,531,531,531,531,531,531,531,531,531,531,531,530,519,504,486,460,446,426,415,385,335,317,307,298,292,268,249,227,201,161,110,96],"timestamp_mouse":[10,33,50,70,89,110,130,150,169,190,209,229,249,270,289,309