[{"start_time":1551800576770,"click_time":1551800579017,"finger_time":1551800578856,"fix_duration":1109.7763315381455,"trial":0,"RT":2086,"MT":161,"sideResp":2,"stimulus":[],"xmouse":[777,777,777,777,777,777,777,777,777,777,777,778,778,778,779,779,779,779,779,779,779,779,779,779,779,779,779,779,779,779,779,779,779,779,779,779,779,779,779,779,779,779,779,779,779,779,779,779,779,779,779,779,779,779,779,779,779,779,779,779,779,779,779,779,779,779,779,779,779,779,779,779,779,779,779,779,779,779,779,779,779,779,779,779,779,779,779,779,779,779,779,779,779,781,782,783,783,783,783,783,783,785,794,808,828,841,864,885,918,969,1053,1116],"ymouse":[558,558,558,558,558,558,558,558,558,558,558,558,558,558,558,558,558,558,558,558,558,558,558,558,558,558,558,558,558,558,558,558,558,558,558,558,558,558,558,558,558,558,558,558,558,558,558,558,558,558,558,558,558,558,558,558,558,558,558,558,558,558,558,558,558,558,558,558,558,558,558,558,558,558,558,558,558,558,558,558,558,558,558,558,558,558,558,553,542,539,533,518,512,498,493,491,490,490,490,490,490,487,478,463,446,423,366,295,225,158,102,70],"timestamp_mouse":[9,45,66,85,105,125,145,166,187,206,227,246,265,286,306,325,346,365,385,407,425,445,467,486,506,525,545,565,586,605,626,646,665,685,705,726,745,765,786,806,826,845,865,885,905,925,945,966,987,1005,1026,1045,1067,1086,1105,1126,1145,1166,1185,1205,1226,1246,1266,1286,1305,1327,1345,1365,1385,1405,1426,1445,1465,1486,1505,1525,1546,1567,1586,1605,1627,1646,1666,1686,1705,1725,1745,1766,1785,1806,1826,1845,1866,1886,1906,1927,1945,1966,1985,2006,2025,2045,2065,2086,2105,2125,2146,2166,2186,2206,2226,2246],"xSR":741.5,"ySR":501.8,"xT1":424.9,"yT1":0,"xT2":1058.1,"yT2":0,"toosoon":0,"cond_shown":"Incongruent","ratio_trial":300,"L_num":7,"L_den":10,"R_num":8,"R_den":20,"correct_side":1,"subjID":"lauracarebilla35","gender":"1","age":"11","school":"6","test":{"fix_dur":[250,1500],"timestim":1000,"targets_dim":[100,100],"targets_relative_coord":[0.3,0.7],"size_stim":[880,420],"start_dim":[100,100],"size_start":[300,300],"size_fix":60,"samplingrate":20,"img_types":["Congruent","Incongruent"],"ratios":[100,200,300],"rep_conds":19,"nTrials":120,"trials_to_rest":500,"Trials_order":[113,37,46,6,104,94,45,26,1,8,61,50,62,0,103,82,54,14,97,85,55,52,32,47,80,96,35,38,79,10,78,87,3,9,44,117,84,102,110,116,108,19,92,77,48,73,115,15,69,86,98,12,106,75,53,99,30,33,111,64,49,41,13,83,5,101,39,81,107,34,74,71,4,57,21,95,56,89,90,93,11,100,28,25,2,68,27,59,18,118,42,36,22,40,70,23,109,17,29,91,58,112,7,20,72,43,51,24,16,31,88,65,66,67,105,119,60,63,76,114],"cond_shown":["Incongruent","Incongruent","Congruent","Congruent","Congruent","Congruent","Incongruent","Congruent","Incongruent","Congruent","Incongruent","Congruent","Congruent","Congruent","Incongruent","Congruent","Congruent","Congruent","Incongruent","Incongruent","Incongruent","Congruent","Congruent","Incongruent","Congruent","Congruent","Incongruent","Congruent","Incongruent","Congruent","Congruent","Incongruent","Incongruent","Incongruent","Congruent","Incongruent","Congruent","Congruent","Congruent","Congruent","Congruent","Incongruent","Congruent","Incongruent","Congruent","Incongruent","Incongruent","Incongruent","Incongruent","Congruent","Congruent","Congruent","Congruent","Incongruent","Incongruent","Incongruent","Congruent","Incongruent","Incongruent","Congruent","Incongruent","Incongruent","Incongruent","Incongruent","Incongruent","Incongruent","Incongruent","Incongruent","Incongruent","Congruent","Congruent","Incongruent","Congruent","Incongruent","Incongruent","Incongruent","Congruent","Incongruent","Congruent","Incongruent","Incongruent","Congruent","Congruent","Incongruent","Congruent","Congruent","Incongruent","Incongruent","Congruent","Congruent","Congruent","Congruent","Congruent","Congruent","Congruent","Incongruent","Incongruent","Incongruent","Incongruent","Incongruent","Congruent","Congruent","Incongruent","Congruent","Congruent","Incongruent","Incongruent","Congruent","Congruent","Incongruent","Congruent","Incongruent","Congruent","Incongruent","Incongruent","Incongruent","Congruent","Incongruent","Congruent","Congruent"],"ratio_trial":[300,100,300,100,200,300,200,200,100,200,100,200,200,100,100,300,100,200,100,100,100,300,200,300,200,100,300,200,100,300,100,200,200,200,200,200,100,100,200,200,100,100,200,300,100,100,100,200,200,200,200,100,300,200,300,200,100,200,200,300,100,300,100,300,300,300,200,200,300,300,200,300,300,200,200,300,200,300,100,200,300,300,300,100,200,200,200,300,100,300,100,100,300,300,300,300,100,300,300,100,300,300,100,200,100,100,200,100,300,100,300,300,100,100,200,300,100,200,300,100],"left_num":[7,3,1,4,1,18,7,3,9,16,13,1,6,12,6,20,15,12,10,13,9,20,11,8,6,10,4,8,17,9,4,4,7,3,3,4,8,4,8,6,7,12,3,13,11,8,13,11,11,3,6,11,1,7,13,9,3,3,4,4,10,1,9,4,2,13,7,14,13,1,7,4,4,7,4,3,9,4,3,14,4,1,12,3,8,8,7,13,7,8,12,9,5,5,8,13,6,13,4,10,2,7,6,3,4,9,1,9,8,11,11,4,6,1,11,13,6,4,8,11],"right_num":[8,4,3,6,21,9,12,7,6,9,6,21,7,13,13,9,13,6,8,6,14,13,3,14,7,3,2,3,10,3,6,6,12,1,11,1,2,15,3,7,15,9,9,12,4,1,12,3,3,9,11,4,3,4,12,8,2,11,6,2,8,3,6,6,6,12,14,6,12,11,18,2,1,14,14,4,4,8,4,12,8,3,2,11,7,3,14,12,9,1,13,8,6,7,1,12,3,12,6,9,10,20,7,9,6,14,2,8,10,9,1,6,15,8,3,12,15,1,10,6],"left_den":[10,6,5,8,2,20,10,10,18,30,26,2,12,30,10,25,25,20,25,26,15,25,22,10,12,25,20,15,30,10,8,5,10,10,10,30,16,10,15,12,14,24,12,26,22,20,26,20,20,12,20,22,5,15,26,15,6,4,5,5,25,2,18,5,4,26,10,30,26,5,15,20,10,10,6,6,20,5,20,30,5,5,24,5,15,15,10,26,14,16,30,15,25,25,16,26,12,26,5,25,20,14,10,12,8,15,3,15,15,22,22,5,12,2,20,26,12,30,15,22],"right_den":[20,10,6,10,30,15,24,14,10,27,10,30,10,26,26,18,26,15,16,10,28,26,10,28,10,10,4,9,15,5,10,10,24,2,22,3,5,30,9,10,25,15,20,15,10,2,20,4,4,20,22,10,6,6,15,10,5,20,10,4,16,15,10,12,30,15,28,9,15,22,27,4,10,28,30,20,16,16,16,18,16,6,10,22,21,9,28,15,15,5,26,16,12,14,5,15,5,15,12,18,25,25,14,20,10,28,15,16,12,15,5,12,25,20,4,15,25,3,12,15],"correct_side":[1,1,2,2,2,1,1,2,2,1,2,2,2,2,1,1,1,1,2,2,1,1,1,1,2,1,2,1,2,1,2,1,1,2,2,2,1,2,1,2,2,2,2,2,1,2,2,2,2,2,2,1,2,2,2,2,1,1,1,1,2,1,2,1,1,2,1,2,2,2,2,2,1,1,1,1,1,1,2,2,1,2,1,1,1,1,1,2,2,1,2,1,2,2,1,2,2,2,1,2,2,2,1,2,2,1,1,1,2,2,1,1,2,1,2,2,2,2,2,1],"img_shown":["img2/300/Incongruent/L/I_Dist_300_LN_7_LD_10_RN_8_RD_20_0.png","img2/100/Incongruent/L/I_Dist_100_LN_3_LD_6_RN_4_RD_10_0.png","img2/300/Congruent/R/C_Dist_300_LN_1_LD_5_RN_3_RD_6_1.png","img2/100/Congruent/R/C_Dist_100_LN_4_LD_8_RN_6_RD_10_1.png","img2/200/Congruent/R/C_Dist_200_LN_1_LD_2_RN_21_RD_30_1.png","img2/300/Congruent/L/C_Dist_300_LN_18_LD_20_RN_9_RD_15_0.png","img2/200/Incongruent/L/I_Dist_200_LN_7_LD_10_RN_12_RD_24_0.png","img2/200/Congruent/R/C_Dist_200_LN_3_LD_10_RN_7_RD_14_1.png","img2/100/Incongruent/R/I_Dist_100_LN_9_LD_18_RN_6_RD_10_1.png","img2/200/Congruent/L/C_Dist_200_LN_16_LD_30_RN_9_RD_27_0.png","img2/100/Incongruent/R/I_Dist_100_LN_13_LD_26_RN_6_RD_10_1.png","img2/200/Congruent/R/C_Dist_200_LN_1_LD_2_RN_21_RD_30_1.png","img2/200/Congruent/R/C_Dist_200_LN_6_LD_12_RN_7_RD_10_1.png","img2/100/Congruent/R/C_Dist_100_LN_12_LD_30_RN_13_RD_26_1.png","img2/100/Incongruent/L/I_Dist_100_LN_6_LD_10_RN_13_RD_26_0.png","img2/300/Congruent/L/C_Dist_300_LN_20_LD_25_RN_9_RD_18_0.png","img2/100/Congruent/L/C_Dist_100_LN_15_LD_25_RN_13_RD_26_0.png","img2/200/Congruent/L/C_Dist_200_LN_12_LD_20_RN_6_RD_15_0.png","img2/100/Incongruent/R/I_Dist_100_LN_10_LD_25_RN_8_RD_16_1.png","img2/100/Incongruent/R/I_Dist_100_LN_13_LD_26_RN_6_RD_10_1.png","img2/100/Incongruent/L/I_Dist_100_LN_9_LD_15_RN_14_RD_28_0.png","img2/300/Congruent/L/C_Dist_300_LN_20_LD_25_RN_13_RD_26_0.png","img2/200/Congruent/L/C_Dist_200_LN_11_LD_22_RN_3_RD_10_0.png","img2/300/Incongruent/L/I_Dist_300_LN_8_LD_10_RN_14_RD_28_0.png","img2/200/Congruent/R/C_Dist_200_LN_6_LD_12_RN_7_RD_10_1.png","img2/100/Congruent/L/C_Dist_100_LN_10_LD_25_RN_3_RD_10_0.png","img2/300/Incongruent/R/I_Dist_300_LN_4_LD_20_RN_2_RD_4_1.png","img2/200/Congruent/L/C_Dist_200_LN_8_LD_15_RN_3_RD_9_0.png","img2/100/Incongruent/R/I_Dist_100_LN_17_LD_30_RN_10_RD_15_1.png","img2/300/Congruent/L/C_Dist_300_LN_9_LD_10_RN_3_RD_5_0.png","img2/100/Congruent/R/C_Dist_100_LN_4_LD_8_RN_6_RD_10_1.png","img2/200/Incongruent/L/I_Dist_200_LN_4_LD_5_RN_6_RD_10_0.png","img2/200/Incongruent/L/I_Dist_200_LN_7_LD_10_RN_12_RD_24_0.png","img2/200/Incongruent/R/I_Dist_200_LN_3_LD_10_RN_1_RD_2_1.png","img2/200/Congruent/R/C_Dist_200_LN_3_LD_10_RN_11_RD_22_1.png","img2/200/Incongruent/R/I_Dist_200_LN_4_LD_30_RN_1_RD_3_1.png","img2/100/Congruent/L/C_Dist_100_LN_8_LD_16_RN_2_RD_5_0.png","img2/100/Congruent/R/C_Dist_100_LN_4_LD_10_RN_15_RD_30_1.png","img2/200/Congruent/L/C_Dist_200_LN_8_LD_15_RN_3_RD_9_0.png","img2/200/Congruent/R/C_Dist_200_LN_6_LD_12_RN_7_RD_10_1.png","img2/100/Congruent/R/C_Dist_100_LN_7_LD_14_RN_15_RD_25_1.png","img2/100/Incongruent/R/I_Dist_100_LN_12_LD_24_RN_9_RD_15_1.png","img2/200/Congruent/R/C_Dist_200_LN_3_LD_12_RN_9_RD_20_1.png","img2/300/Incongruent/R/I_Dist_300_LN_13_LD_26_RN_12_RD_15_1.png","img2/100/Congruent/L/C_Dist_100_LN_11_LD_22_RN_4_RD_10_0.png","img2/100/Incongruent/R/I_Dist_100_LN_8_LD_20_RN_1_RD_2_1.png","img2/100/Incongruent/R/I_Dist_100_LN_13_LD_26_RN_12_RD_20_1.png","img2/200/Incongruent/R/I_Dist_200_LN_11_LD_20_RN_3_RD_4_1.png","img2/200/Incongruent/R/I_Dist_200_LN_11_LD_20_RN_3_RD_4_1.png","img2/200/Congruent/R/C_Dist_200_LN_3_LD_12_RN_9_RD_20_1.png","img2/200/Congruent/R/C_Dist_200_LN_6_LD_20_RN_11_RD_22_1.png","img2/100/Congruent/L/C_Dist_100_LN_11_LD_22_RN_4_RD_10_0.png","img2/300/Congruent/R/C_Dist_300_LN_1_LD_5_RN_3_RD_6_1.png","img2/200/Incongruent/R/I_Dist_200_LN_7_LD_15_RN_4_RD_6_1.png","img2/300/Incongruent/R/I_Dist_300_LN_13_LD_26_RN_12_RD_15_1.png","img2/200/Incongruent/R/I_Dist_200_LN_9_LD_15_RN_8_RD_10_1.png","img2/100/Congruent/L/C_Dist_100_LN_3_LD_6_RN_2_RD_5_0.png","img2/200/Incongruent/L/I_Dist_200_LN_3_LD_4_RN_11_RD_20_0.png","img2/200/Incongruent/L/I_Dist_200_LN_4_LD_5_RN_6_RD_10_0.png","img2/300/Congruent/L/C_Dist_300_LN_4_LD_5_RN_2_RD_4_0.png","img2/100/Incongruent/R/I_Dist_100_LN_10_LD_25_RN_8_RD_16_1.png","img2/300/Incongruent/L/I_Dist_300_LN_1_LD_2_RN_3_RD_15_0.png","img2/100/Incongruent/R/I_Dist_100_LN_9_LD_18_RN_6_RD_10_1.png","img2/300/Incongruent/L/I_Dist_300_LN_4_LD_5_RN_6_RD_12_0.png","img2/300/Incongruent/L/I_Dist_300_LN_2_LD_4_RN_6_RD_30_0.png","img2/300/Incongruent/R/I_Dist_300_LN_13_LD_26_RN_12_RD_15_1.png","img2/200/Incongruent/L/I_Dist_200_LN_7_LD_10_RN_14_RD_28_0.png","img2/200/Incongruent/R/I_Dist_200_LN_14_LD_30_RN_6_RD_9_1.png","img2/300/Incongruent/R/I_Dist_300_LN_13_LD_26_RN_12_RD_15_1.png","img2/300/Congruent/R/C_Dist_300_LN_1_LD_5_RN_11_RD_22_1.png","img2/200/Congruent/R/C_Dist_200_LN_7_LD_15_RN_18_RD_27_1.png","img2/300/Incongruent/R/I_Dist_300_LN_4_LD_20_RN_2_RD_4_1.png","img2/300/Congruent/L/C_Dist_300_LN_4_LD_10_RN_1_RD_10_0.png","img2/200/Incongruent/L/I_Dist_200_LN_7_LD_10_RN_14_RD_28_0.png","img2/200/Incongruent/L/I_Dist_200_LN_4_LD_6_RN_14_RD_30_0.png","img2/300/Incongruent/L/I_Dist_300_LN_3_LD_6_RN_4_RD_20_0.png","img2/200/Congruent/L/C_Dist_200_LN_9_LD_20_RN_4_RD_16_0.png","img2/300/Incongruent/L/I_Dist_300_LN_4_LD_5_RN_8_RD_16_0.png","img2/100/Congruent/R/C_Dist_100_LN_3_LD_20_RN_4_RD_16_1.png","img2/200/Incongruent/R/I_Dist_200_LN_14_LD_30_RN_12_RD_18_1.png","img2/300/Incongruent/L/I_Dist_300_LN_4_LD_5_RN_8_RD_16_0.png","img2/300/Congruent/R/C_Dist_300_LN_1_LD_5_RN_3_RD_6_1.png","img2/300/Congruent/L/C_Dist_300_LN_12_LD_24_RN_2_RD_10_0.png","img2/100/Incongruent/L/I_Dist_100_LN_3_LD_5_RN_11_RD_22_0.png","img2/200/Congruent/L/C_Dist_200_LN_8_LD_15_RN_7_RD_21_0.png","img2/200/Congruent/L/C_Dist_200_LN_8_LD_15_RN_3_RD_9_0.png","img2/200/Incongruent/L/I_Dist_200_LN_7_LD_10_RN_14_RD_28_0.png","img2/300/Incongruent/R/I_Dist_300_LN_13_LD_26_RN_12_RD_15_1.png","img2/100/Congruent/R/C_Dist_100_LN_7_LD_14_RN_9_RD_15_1.png","img2/300/Congruent/L/C_Dist_300_LN_8_LD_16_RN_1_RD_5_0.png","img2/100/Congruent/R/C_Dist_100_LN_12_LD_30_RN_13_RD_26_1.png","img2/100/Congruent/L/C_Dist_100_LN_9_LD_15_RN_8_RD_16_0.png","img2/300/Congruent/R/C_Dist_300_LN_5_LD_25_RN_6_RD_12_1.png","img2/300/Congruent/R/C_Dist_300_LN_5_LD_25_RN_7_RD_14_1.png","img2/300/Congruent/L/C_Dist_300_LN_8_LD_16_RN_1_RD_5_0.png","img2/300/Incongruent/R/I_Dist_300_LN_13_LD_26_RN_12_RD_15_1.png","img2/100/Incongruent/R/I_Dist_100_LN_6_LD_12_RN_3_RD_5_1.png","img2/300/Incongruent/R/I_Dist_300_LN_13_LD_26_RN_12_RD_15_1.png","img2/300/Incongruent/L/I_Dist_300_LN_4_LD_5_RN_6_RD_12_0.png","img2/100/Incongruent/R/I_Dist_100_LN_10_LD_25_RN_9_RD_18_1.png","img2/300/Congruent/R/C_Dist_300_LN_2_LD_20_RN_10_RD_25_1.png","img2/300/Congruent/R/C_Dist_300_LN_7_LD_14_RN_20_RD_25_1.png","img2/100/Incongruent/L/I_Dist_100_LN_6_LD_10_RN_7_RD_14_0.png","img2/200/Congruent/R/C_Dist_200_LN_3_LD_12_RN_9_RD_20_1.png","img2/100/Congruent/R/C_Dist_100_LN_4_LD_8_RN_6_RD_10_1.png","img2/100/Incongruent/L/I_Dist_100_LN_9_LD_15_RN_14_RD_28_0.png","img2/200/Incongruent/L/I_Dist_200_LN_1_LD_3_RN_2_RD_15_0.png","img2/100/Congruent/L/C_Dist_100_LN_9_LD_15_RN_8_RD_16_0.png","img2/300/Congruent/R/C_Dist_300_LN_8_LD_15_RN_10_RD_12_1.png","img2/100/Incongruent/R/I_Dist_100_LN_11_LD_22_RN_9_RD_15_1.png","img2/300/Congruent/L/C_Dist_300_LN_11_LD_22_RN_1_RD_5_0.png","img2/300/Incongruent/L/I_Dist_300_LN_4_LD_5_RN_6_RD_12_0.png","img2/100/Congruent/R/C_Dist_100_LN_6_LD_12_RN_15_RD_25_1.png","img2/100/Incongruent/L/I_Dist_100_LN_1_LD_2_RN_8_RD_20_0.png","img2/200/Incongruent/R/I_Dist_200_LN_11_LD_20_RN_3_RD_4_1.png","img2/300/Incongruent/R/I_Dist_300_LN_13_LD_26_RN_12_RD_15_1.png","img2/100/Congruent/R/C_Dist_100_LN_6_LD_12_RN_15_RD_25_1.png","img2/200/Incongruent/R/I_Dist_200_LN_4_LD_30_RN_1_RD_3_1.png","img2/300/Congruent/R/C_Dist_300_LN_8_LD_15_RN_10_RD_12_1.png","img2/100/Congruent/L/C_Dist_100_LN_11_LD_22_RN_6_RD_15_0.png"],"dist100_C":[["C_Dist_100_LN_10_LD_25_RN_3_RD_10_0.png","C_Dist_100_LN_11_LD_22_RN_4_RD_10_0.png","C_Dist_100_LN_11_LD_22_RN_6_RD_15_0.png","C_Dist_100_LN_15_LD_25_RN_13_RD_26_0.png","C_Dist_100_LN_3_LD_6_RN_2_RD_5_0.png","C_Dist_100_LN_6_LD_20_RN_5_RD_25_0.png","C_Dist_100_LN_8_LD_16_RN_2_RD_5_0.png","C_Dist_100_LN_9_LD_15_RN_8_RD_16_0.png"],["C_Dist_100_LN_1_LD_2_RN_18_RD_30_1.png","C_Dist_100_LN_1_LD_2_RN_3_RD_5_1.png","C_Dist_100_LN_12_LD_30_RN_13_RD_26_1.png","C_Dist_100_LN_2_LD_5_RN_11_RD_22_1.png","C_Dist_100_LN_2_LD_5_RN_6_RD_12_1.png","C_Dist_100_LN_3_LD_20_RN_4_RD_16_1.png","C_Dist_100_LN_4_LD_10_RN_15_RD_30_1.png","C_Dist_100_LN_4_LD_8_RN_6_RD_10_1.png","C_Dist_100_LN_6_LD_12_RN_15_RD_25_1.png","C_Dist_100_LN_7_LD_14_RN_15_RD_25_1.png","C_Dist_100_LN_7_LD_14_RN_9_RD_15_1.png"]],"dist100_I":[["I_Dist_100_LN_1_LD_2_RN_8_RD_20_0.png","I_Dist_100_LN_2_LD_4_RN_6_RD_15_0.png","I_Dist_100_LN_2_LD_4_RN_8_RD_20_0.png","I_Dist_100_LN_3_LD_5_RN_11_RD_22_0.png","I_Dist_100_LN_3_LD_5_RN_8_RD_16_0.png","I_Dist_100_LN_3_LD_6_RN_4_RD_10_0.png","I_Dist_100_LN_3_LD_9_RN_7_RD_30_0.png","I_Dist_100_LN_4_LD_8_RN_8_RD_20_0.png","I_Dist_100_LN_6_LD_10_RN_11_RD_22_0.png","I_Dist_100_LN_6_LD_10_RN_13_RD_26_0.png","I_Dist_100_LN_6_LD_10_RN_7_RD_14_0.png","I_Dist_100_LN_9_LD_10_RN_20_RD_25_0.png","I_Dist_100_LN_9_LD_15_RN_13_RD_26_0.png","I_Dist_100_LN_9_LD_15_RN_14_RD_28_0.png"],["I_Dist_100_LN_10_LD_25_RN_8_RD_16_1.png","I_Dist_100_LN_10_LD_25_RN_9_RD_18_1.png","I_Dist_100_LN_11_LD_22_RN_9_RD_15_1.png","I_Dist_100_LN_12_LD_24_RN_9_RD_15_1.png","I_Dist_100_LN_12_LD_30_RN_2_RD_4_1.png","I_Dist_100_LN_13_LD_26_RN_12_RD_20_1.png","I_Dist_100_LN_13_LD_26_RN_6_RD_10_1.png","I_Dist_100_LN_17_LD_30_RN_10_RD_15_1.png","I_Dist_100_LN_6_LD_12_RN_3_RD_5_1.png","I_Dist_100_LN_8_LD_16_RN_6_RD_10_1.png","I_Dist_100_LN_8_LD_20_RN_1_RD_2_1.png","I_Dist_100_LN_9_LD_18_RN_6_RD_10_1.png"]],"dist100_S":[["E_Dist_100_LN_2_LD_12_RN_2_RD_30_0.png","E_Dist_100_LN_6_LD_10_RN_6_RD_12_0.png"],["E_Dist_100_LN_6_LD_12_RN_6_RD_10_1.png"]],"dist200_C":[["C_Dist_200_LN_11_LD_22_RN_3_RD_10_0.png","C_Dist_200_LN_12_LD_15_RN_6_RD_10_0.png","C_Dist_200_LN_12_LD_20_RN_6_RD_15_0.png","C_Dist_200_LN_14_LD_28_RN_6_RD_20_0.png","C_Dist_200_LN_15_LD_25_RN_4_RD_10_0.png","C_Dist_200_LN_16_LD_20_RN_12_RD_20_0.png","C_Dist_200_LN_16_LD_30_RN_9_RD_27_0.png","C_Dist_200_LN_20_LD_25_RN_9_RD_15_0.png","C_Dist_200_LN_21_LD_30_RN_2_RD_4_0.png","C_Dist_200_LN_4_LD_10_RN_3_RD_15_0.png","C_Dist_200_LN_4_LD_8_RN_3_RD_10_0.png","C_Dist_200_LN_6_LD_15_RN_3_RD_15_0.png","C_Dist_200_LN_7_LD_21_RN_2_RD_15_0.png","C_Dist_200_LN_8_LD_15_RN_2_RD_6_0.png","C_Dist_200_LN_8_LD_15_RN_3_RD_9_0.png","C_Dist_200_LN_8_LD_15_RN_7_RD_21_0.png","C_Dist_200_LN_9_LD_20_RN_4_RD_16_0.png"],["C_Dist_200_LN_1_LD_2_RN_21_RD_30_1.png","C_Dist_200_LN_13_LD_26_RN_14_RD_20_1.png","C_Dist_200_LN_3_LD_10_RN_11_RD_22_1.png","C_Dist_200_LN_3_LD_10_RN_14_RD_28_1.png","C_Dist_200_LN_3_LD_10_RN_7_RD_14_1.png","C_Dist_200_LN_3_LD_12_RN_9_RD_20_1.png","C_Dist_200_LN_3_LD_6_RN_14_RD_20_1.png","C_Dist_200_LN_5_LD_10_RN_14_RD_20_1.png","C_Dist_200_LN_6_LD_12_RN_7_RD_10_1.png","C_Dist_200_LN_6_LD_20_RN_11_RD_22_1.png","C_Dist_200_LN_7_LD_15_RN_18_RD_27_1.png","C_Dist_200_LN_9_LD_30_RN_13_RD_26_1.png"]],"dist200_I":[["I_Dist_200_LN_1_LD_2_RN_3_RD_10_0.png","I_Dist_200_LN_1_LD_3_RN_2_RD_15_0.png","I_Dist_200_LN_3_LD_4_RN_11_RD_20_0.png","I_Dist_200_LN_4_LD_5_RN_6_RD_10_0.png","I_Dist_200_LN_4_LD_6_RN_14_RD_30_0.png","I_Dist_200_LN_7_LD_10_RN_12_RD_24_0.png","I_Dist_200_LN_7_LD_10_RN_14_RD_28_0.png","I_Dist_200_LN_7_LD_10_RN_8_RD_16_0.png"],["I_Dist_200_LN_11_LD_20_RN_3_RD_4_1.png","I_Dist_200_LN_14_LD_30_RN_12_RD_18_1.png","I_Dist_200_LN_14_LD_30_RN_6_RD_9_1.png","I_Dist_200_LN_3_LD_10_RN_1_RD_2_1.png","I_Dist_200_LN_4_LD_30_RN_1_RD_3_1.png","I_Dist_200_LN_6_LD_20_RN_3_RD_6_1.png","I_Dist_200_LN_7_LD_15_RN_4_RD_6_1.png","I_Dist_200_LN_7_LD_15_RN_6_RD_9_1.png","I_Dist_200_LN_9_LD_15_RN_8_RD_10_1.png"]],"dist200_S":[["E_Dist_200_LN_3_LD_6_RN_3_RD_10_0.png"],["E_Dist_200_LN_3_LD_10_RN_3_RD_6_1.png"]],"dist300_C":[["C_Dist_300_LN_11_LD_22_RN_1_RD_5_0.png","C_Dist_300_LN_11_LD_22_RN_2_RD_10_0.png","C_Dist_300_LN_11_LD_22_RN_4_RD_20_0.png","C_Dist_300_LN_12_LD_24_RN_2_RD_10_0.png","C_Dist_300_LN_18_LD_20_RN_9_RD_15_0.png","C_Dist_300_LN_20_LD_25_RN_13_RD_26_0.png","C_Dist_300_LN_20_LD_25_RN_14_RD_28_0.png","C_Dist_300_LN_20_LD_25_RN_5_RD_10_0.png","C_Dist_300_LN_20_LD_25_RN_8_RD_16_0.png","C_Dist_300_LN_20_LD_25_RN_9_RD_18_0.png","C_Dist_300_LN_24_LD_30_RN_2_RD_4_0.png","C_Dist_300_LN_24_LD_30_RN_8_RD_16_0.png","C_Dist_300_LN_3_LD_6_RN_2_RD_10_0.png","C_Dist_300_LN_4_LD_10_RN_1_RD_10_0.png","C_Dist_300_LN_4_LD_5_RN_2_RD_4_0.png","C_Dist_300_LN_8_LD_16_RN_1_RD_5_0.png","C_Dist_300_LN_9_LD_10_RN_3_RD_5_0.png"],["C_Dist_300_LN_1_LD_20_RN_7_RD_20_1.png","C_Dist_300_LN_1_LD_3_RN_19_RD_30_1.png","C_Dist_300_LN_1_LD_30_RN_8_RD_24_1.png","C_Dist_300_LN_1_LD_5_RN_11_RD_22_1.png","C_Dist_300_LN_1_LD_5_RN_3_RD_6_1.png","C_Dist_300_LN_1_LD_5_RN_6_RD_12_1.png","C_Dist_300_LN_2_LD_10_RN_12_RD_24_1.png","C_Dist_300_LN_2_LD_20_RN_10_RD_25_1.png","C_Dist_300_LN_3_LD_12_RN_11_RD_20_1.png","C_Dist_300_LN_3_LD_6_RN_4_RD_5_1.png","C_Dist_300_LN_4_LD_20_RN_13_RD_26_1.png","C_Dist_300_LN_5_LD_25_RN_6_RD_12_1.png","C_Dist_300_LN_5_LD_25_RN_7_RD_14_1.png","C_Dist_300_LN_7_LD_14_RN_20_RD_25_1.png","C_Dist_300_LN_8_LD_15_RN_10_RD_12_1.png"]],"dist300_I":[["I_Dist_300_LN_1_LD_2_RN_2_RD_10_0.png","I_Dist_300_LN_1_LD_2_RN_3_RD_15_0.png","I_Dist_300_LN_2_LD_4_RN_6_RD_30_0.png","I_Dist_300_LN_3_LD_6_RN_4_RD_20_0.png","I_Dist_300_LN_4_LD_5_RN_6_RD_12_0.png","I_Dist_300_LN_4_LD_5_RN_8_RD_16_0.png","I_Dist_300_LN_7_LD_10_RN_8_RD_20_0.png","I_Dist_300_LN_8_LD_10_RN_14_RD_28_0.png","I_Dist_300_LN_8_LD_10_RN_9_RD_18_0.png"],["I_Dist_300_LN_13_LD_26_RN_12_RD_15_1.png","I_Dist_300_LN_4_LD_20_RN_2_RD_4_1.png"]],"dist300_S":[["E_Dist_300_LN_9_LD_12_RN_9_RD_20_0.png"],["E_Dist_300_LN_18_LD_30_RN_18_RD_20_1.png","E_Dist_300_LN_3_LD_10_RN_3_RD_5_1.png","E_Dist_300_LN_9_LD_20_RN_9_RD_12_1.png"]],"dist500_C":[["C_Dist_500_LN_10_LD_13_RN_7_RD_26_0.png","C_Dist_500_LN_10_LD_15_RN_4_RD_24_0.png","C_Dist_500_LN_12_LD_16_RN_3_RD_12_0.png","C_Dist_500_LN_12_LD_18_RN_4_RD_24_0.png","C_Dist_500_LN_15_LD_18_RN_5_RD_15_0.png","C_Dist_500_LN_15_LD_20_RN_1_RD_4_0.png","C_Dist_500_LN_18_LD_27_RN_1_RD_6_0.png","C_Dist_500_LN_20_LD_24_RN_1_RD_3_0.png","C_Dist_500_LN_20_LD_24_RN_3_RD_9_0.png","C_Dist_500_LN_20_LD_24_RN_7_RD_21_0.png","C_Dist_500_LN_20_LD_28_RN_3_RD_14_0.png","C_Dist_500_LN_21_LD_28_RN_6_RD_24_0.png","C_Dist_500_LN_22_LD_28_RN_2_RD_7_0.png","C_Dist_500_LN_25_LD_30_RN_9_RD_27_0.png","C_Dist_500_LN_4_LD_6_RN_1_RD_6_0.png","C_Dist_500_LN_5_LD_6_RN_2_RD_6_0.png","C_Dist_500_LN_6_LD_9_RN_1_RD_6_0.png","C_Dist_500_LN_7_LD_10_RN_1_RD_5_0.png","C_Dist_500_LN_8_LD_12_RN_1_RD_6_0.png","C_Dist_500_LN_8_LD_12_RN_4_RD_24_0.png"],["C_Dist_500_LN_1_LD_4_RN_12_RD_16_1.png","C_Dist_500_LN_1_LD_4_RN_9_RD_12_1.png","C_Dist_500_LN_1_LD_9_RN_11_RD_18_1.png","C_Dist_500_LN_10_LD_24_RN_22_RD_24_1.png","C_Dist_500_LN_2_LD_12_RN_10_RD_15_1.png","C_Dist_500_LN_2_LD_12_RN_12_RD_18_1.png","C_Dist_500_LN_2_LD_12_RN_4_RD_6_1.png","C_Dist_500_LN_2_LD_24_RN_7_RD_12_1.png","C_Dist_500_LN_2_LD_5_RN_18_RD_20_1.png","C_Dist_500_LN_2_LD_5_RN_9_RD_10_1.png","C_Dist_500_LN_2_LD_8_RN_12_RD_16_1.png","C_Dist_500_LN_2_LD_8_RN_21_RD_28_1.png","C_Dist_500_LN_3_LD_10_RN_4_RD_5_1.png","C_Dist_500_LN_3_LD_12_RN_15_RD_20_1.png","C_Dist_500_LN_3_LD_30_RN_6_RD_10_1.png","C_Dist_500_LN_3_LD_8_RN_14_RD_16_1.png","C_Dist_500_LN_4_LD_16_RN_15_RD_20_1.png","C_Dist_500_LN_4_LD_24_RN_12_RD_18_1.png","C_Dist_500_LN_5_LD_14_RN_6_RD_7_1.png","C_Dist_500_LN_7_LD_21_RN_20_RD_24_1.png","C_Dist_500_LN_7_LD_28_RN_12_RD_16_1.png","C_Dist_500_LN_7_LD_28_RN_9_RD_12_1.png","C_Dist_500_LN_9_LD_27_RN_20_RD_24_1.png"]],"dist500_I":[["I_Dist_500_LN_2_LD_3_RN_4_RD_24_0.png","I_Dist_500_LN_5_LD_6_RN_6_RD_18_0.png","I_Dist_500_LN_7_LD_8_RN_9_RD_24_0.png"],["I_Dist_500_LN_7_LD_21_RN_5_RD_6_1.png"]],"dist500_S":[["E_Dist_500_LN_6_LD_8_RN_6_RD_24_0.png"],["E_Dist_500_LN_2_LD_12_RN_2_RD_3_1.png","E_Dist_500_LN_6_LD_24_RN_6_RD_8_1.png"]]}},{"start_time":1551800580987,"click_time":1551800583936,"finger_time":1551800583495,"fix_duration":250,"trial":1,"RT":2508,"MT":441,"sideResp":2,"stimulus":[],"xmouse":[792,792,792,792,792,792,792,792,792,792,792,792,792,792,792,792,792,792,792,792,792,792,792,792,792,792,792,792,792,792,792,792,792,792,792,792,792,792,792,792,792,792,792,792,792,792,792,792,792,792,792,792,792,792,792,792,792,792,792,792,792,792,792,792,792,792,792,792,792,792,792,792,792,792,792,792,792,792,792,792,792,792,792,792,792,792,792,792,792,792,792,792,792,792,792,792,792,792,792,792,792,792,792,792,792,792,792,792,792,799,801,808,814,816,819,819,819,819,819,819,819,819,821,823,825,830,847,867,886,909,923,944,948,950,952,956,962,969,977,982,987,1006,1014,1027,1039,1050,1060,1064],"ymouse":[503,503,503,503,503,503,503,503,503,503,503,503,503,503,503,503,503,503,503,503,503,503,503,503,503,503,503,503,503,503,503,503,503,503,503,503,503,503,503,503,503,503,503,503,503,503,503,503,503,503,503,503,503,503,503,503,503,503,503,503,503,503,503,503,503,503,503,503,503,503,503,503,503,503,503,503,503,503,503,503,503,503,503,503,503,503,503,503,503,503,503,503,503,503,503,503,503,503,503,503,503,503,503,503,503,503,503,503,503,500,498,493,488,486,484,484,484,484,484,484,484,484,480,477,473,465,445,432,418,401,387,350,341,330,316,298,254,233,216,204,190,157,146,132,121,111,102,99],"timestamp_mouse":[9,42,50,69,89,109,128,150,168,189,210,228,248,270,290,309,328,349,370,388,409,429,449,469,488,510,528,549,569,589,608,628,648,668,690,709,728,750,769,788,809,829,850,869,889,909,929,949,969,989,1008,1028,1049,1069,1089,1109,1129,1148,1168,1189,1208,1229,1249,1268,1290,1308,1329,1348,1368,1390,1409,1428,1450,1470,1489,1508,1528,1549,1570,1589,1609,1629,1650,1668,1689,1710,1729,1749,1768,1788,1809,1829,1849,1869,1889,1908,1928,1949,1968,1990,2009,2029,2048,2069,2090,2110,2128,2148,2168,2189,2208,2228,2249,2269,2290,2309,2328,2349,2370,2389,2409,2430,2449,2469,2488,2508,2529,2548,2568,2588,2609,2629,2648,2668,2690,2710,2729,2748,2769,2789,2808,2828,2848,2868,2889,2910,2929,2948],"xSR":741.5,"ySR":469.95,"xT1":424.9,"yT1":0,"xT2":1058.1,"yT2":0,"toosoon":0,"cond_shown":"Incongruent","ratio_trial":100,"L_num":3,"L_den":6,"R_num":4,"R_den":10,"correct_side":1,"subjID":"lauracarebilla35","gender":"1","school":"6","age":"11"},{"start_time":1551800586399,"click_time":1551800588396,"finger_time":1551800588115,"fix_duration":1342.8120510092072,"trial":2,"RT":1716,"MT":281,"sideResp":1,"stimulus":[],"xmouse":[793,793,793,793,793,793,793,793,793,793,793,793,793,793,793,793,793,793,793,793,793,793,793,793,793,793,793,793,793,793,793,793,793,793,793,793,793,793,793,793,793,793,793,793,793,793,793,793,793,793,793,793,793,793,793,793,793,793,793,793,793,793,793,793,793,793,793,793,793,793,793,793,793,793,793,793,793,793,793,793,793,793,793,793,793,738,724,717,711,701,674,669,657,636,619,580,566,549,529,518],"ymouse":[510,510,510,510,510,510,510,510,510,510,510,510,510,510,510,510,510,510,510,510,510,510,510,510,510,510,510,510,510,510,510,510,510,510,510,510,510,510,510,510,510,510,510,510,510,510,510,510,510,510,510,510,510,510,510,510,510,510,510,510,510,510,510,510,510,510,510,510,510,510,510,510,510,510,510,510,510,510,510,510,510,510,510,510,487,217,165,152,141,128,105,102,97,90,85,74,70,67,67,67],"timestamp_mouse":[24,41,56,77,98,117,137,156,176,196,217,237,257,277,296,317,338,356,376,397,417,437,457,476,496,516,536,558,577,597,618,636,656,676,698,716,736,756,776,796,817,837,858,876,898,917,936,956,977,998,1018,1036,1057,1076,1096,1116,1137,1157,1177,1196,1217,1236,1256,1276,1296,1316,1337,1356,1376,1396,1417,1438,1456,1477,1496,1517,1537,1557,1578,1596,1617,1636,1656,1676,1697,1716,1736,1756,1777,1798,1818,1836,1857,1877,1897,1917,1937,1958,1976,1997],"xSR":741.5,"ySR":469.95,"xT1":424.9,"yT1":0,"xT2":1058.1,"yT2":0,"toosoon":0,"cond_shown":"Congruent","ratio_trial":300,"L_num":1,"L_den":5,"R_num":3,"R_den":6,"correct_side":2,"subjID":"lauracarebilla35","gender":"1","school":"6","age":"11"},{"start_time":1551800590012,"click_time":1551800591756,"finger_time":1551800591436,"fix_duration":394.80395096095987,"trial":3,"RT":1424,"MT":320,"sideResp":2,"stimulus":[],"xmouse":[780,780,780,780,780,780,780,780,780,780,780,780,780,780,780,780,780,780,780,780,780,780,780,780,780,780,780,780,780,780,780,780,780,780,780,780,780,780,780,780,780,780,780,780,780,780,780,780,780,780,780,780,780,780,780,780,780,780,780,780,780,780,780,780,780,780,780,780,780,785,812,830,865,898,930,983,1009,1020,1030,1041,1045,1047,1047,1047,1047,1052,1055,1061],"ymouse":[519,519,519,519,519,519,519,519,519,519,519,519,519,519,519,519,519,519,519,519,519,519,519,519,519,519,519,519,519,519,519,519,519,519,519,519,519,519,519,519,519,519,519,519,519,519,519,519,519,519,519,519,519,519,519,519,519,519,519,519,519,519,519,519,519,519,519,519,519,510,472,439,364,303,237,116,76,55,39,24,16,13,13,13,13,14,15,25],"timestamp_mouse":[9,33,44,64,83,104,123,144,163,183,204,225,243,263,283,305,324,344,364,385,403,424,443,463,483,503,523,543,565,585,604,623,643,663,684,704,724,743,764,783,803,825,843,863,884,904,923,944,963,985,1005,1024,1043,1063,1083,1105,1123,1143,1164,1184,1204,1223,1244,1263,1284,1304,1323,1343,1364,1385,1404,1424,1443,1463,1484,1504,1524,1544,1563,1583,1604,1625,1643,1663,1685,1704,1723,1744],"xSR":741.5,"ySR":469.95,"xT1":424.9,"yT1":0,"xT2":1058.1,"yT2":0,"toosoon":0,"cond_shown":"Congruent","ratio_trial":100,"L_num":4,"L_den":8,"R_num":6,"R_den":10,"correct_side":2,"subjID":"lauracarebilla35","gender":"1","school":"6","age":"11"},{"start_time":1551800594385,"click_time":1551800596056,"finger_time":1551800595616,"fix_duration":1288.6146588462302,"trial":4,"RT":1231,"MT":440,"sideResp":2,"stimulus":[],"xmouse":[787,787,788,789,789,789,789,789,789,789,789,789,789,789,789,789,789,789,789,789,789,789,789,789,789,789,789,789,789,789,789,789,789,789,789,789,789,789,789,789,789,789,789,789,789,789,789,789,789,789,789,789,789,789,789,792,798,803,808,810,813,817,836,845,861,880,923,938,954,961,965,972,976,987,997,1017,1050,1061,1071,1082,1094,1100,1110,1114],"ymouse":[500,500,501,502,502,502,502,502,502,502,502,502,502,502,502,502,502,502,502,502,502,502,502,502,502,502,502,502,502,502,502,502,502,502,502,502,502,502,502,502,502,502,502,502,502,502,502,502,502,502,502,502,502,502,502,500,487,480,477,474,471,466,448,439,430,420,391,376,359,347,341,332,323,306,286,255,203,185,165,143,124,114,101,95],"timestamp_mouse":[12,30,51,70,90,110,130,150,170,191,210,231,251,271,292,311,331,351,370,392,410,430,452,471,491,510,531,550,571,592,611,632,650,671,691,710,731,755,772,792,811,830,851,870,890,912,931,950,971,990,1010,1030,1051,1071,1091,1111,1130,1151,1170,1190,1212,1231,1250,1270,1290,1310,1331,1351,1372,1391,1410,1430,1450,1471,1491,1512,1531,1551,1570,1590,1610,1630,1650,1671],"xSR":741.5,"ySR":469.95,"xT1":424.9,"yT1":0,"xT2":1058.1,"yT2":0,"toosoon":0,"cond_shown":"Congruent","ratio_trial":200,"L_num":1,"L_den":2,"R_num":21,"R_den":30,"correct_side":2,"subjID":"lauracarebilla35","gender":"1","school":"6","age":"11"},{"start_time":1551800597827,"click_time":1551800599775,"finger_time":1551800599195,"fix_duration":250,"trial":5,"RT":1368,"MT":580,"sideResp":1,"stimulus":[],"xmouse":[801,801,801,801,801,801,801,801,801,801,801,801,801,801,801,801,801,801,801,801,801,801,801,801,801,801,801,801,801,801,801,801,801,801,801,801,801,801,801,801,801,801,801,801,801,801,801,801,801,801,801,801,801,801,801,801,801,801,801,801,801,801,801,801,801,801,798,789,775,765,742,723,711,697,674,661,653,647,644,629,619,610,605,599,579,571,560,546,536,519,514,510,508,507,505,504,504,499],"ymouse":[492,492,492,492,492,492,492,492,492,492,492,492,492,492,492,492,492,492,492,492,492,492,492,492,492,492,492,492,492,492,492,492,492,492,492,492,492,492,492,492,492,492,492,492,492,492,492,492,492,492,492,492,492,492,492,492,492,492,492,492,492,492,492,492,492,492,486,476,462,452,423,398,383,362,323,308,296,285,278,262,252,245,240,234,214,202,191,178,167,143,134,124,117,113,108,105,103,94],"timestamp_mouse":[12,36,50,68,88,110,130,150,169,189,208,230,249,269,288,308,330,348,368,390,409,428,449,468,489,510,528,549,569,589,608,629,649,670,690,708,730,748,770,789,808,828,848,870,889,910,928,949,969,988,1008,1030,1048,1068,1088,1109,1128,1149,1169,1188,1209,1229,1250,1269,1288,1308,1329,1350,1368,1388,1408,1429,1449,1469,1489,1509,1529,1548,1568,1588,1609,1629,1649,1669,1688,1709,1728,1748,1768,1789,1809,1828,1849,1868,1889,1909,1928,1948],"xSR":741.5,"ySR":469.95,"xT1":424.9,"yT1":0,"xT2":1058.1,"yT2":0,"toosoon":0,"cond_shown":"Congruent","ratio_trial":300,"L_num":18,"L_den":20,"R_num":9,"R_den":15,"correct_side":1,"subjID":"lauracarebilla35","gender":"1","school":"6","age":"11"},{"start_time":1551800601386,"click_time":1551800603656,"finger_time":1551800602576,"fix_duration":509.7118924721479,"trial":6,"RT":1190,"MT":1080,"sideResp":2,"stimulus":[],"xmouse":[790,790,790,790,790,790,790,790,790,790,790,790,790,790,790,790,790,790,790,790,790,790,790,790,790,790,790,790,790,790,790,790,790,790,790,790,790,790,790,790,790,790,790,790,790,790,790,790,790,790,790,790,790,790,790,790,798,814,828,844,854,868,877,883,891,897,915,926,936,946,958,969,974,979,986,991,1005,1010,1018,1026,1035,1041,1042,1043,1044,1044,1046,1048,1049,1051,1051,1053,1056,1056,1057,1061,1071,1079,1085,1088,1088,1089,1089,1089,1089,1089,1089,1089,1089,1089,1089,1090,1090,1093],"ymouse":[520,520,520,520,520,520,520,520,520,520,520,520,520,520,520,520,520,520,520,520,520,520,520,520,520,520,520,520,520,520,520,520,520,520,520,520,520,520,520,520,520,520,520,520,520,520,520,520,520,520,520,520,520,520,520,520,511,494,477,460,449,430,418,411,403,393,362,342,325,311,299,285,278,272,264,258,242,238,232,230,226,223,222,218,217,215,214,208,206,202,201,198,194,192,187,180,150,138,129,124,122,121,121,121,121,121,121,121,121,119,112,107,103,90],"timestamp_mouse":[9,35,50,69,89,110,131,151,169,190,209,230,250,269,289,309,330,350,369,389,411,430,450,470,491,509,530,550,570,589,609,630,650,670,689,711,730,750,771,789,810,830,850,870,890,910,930,949,970,990,1010,1029,1051,1071,1090,1109,1129,1150,1171,1190,1209,1229,1249,1269,1290,1310,1330,1350,1370,1390,1410,1429,1450,1469,1489,1509,1531,1550,1570,1590,1609,1629,1649,1669,1690,1710,1730,1750,1769,1789,1811,1830,1849,1870,1890,1909,1930,1949,1970,1990,2009,2030,2050,2070,2089,2110,2130,2150,2171,2189,2209,2229,2251,2270],"xSR":741.5,"ySR":469.95,"xT1":424.9,"yT1":0,"xT2":1058.1,"yT2":0,"toosoon":0,"cond_shown":"Incongruent","ratio_trial":200,"L_num":7,"L_den":10,"R_num":12,"R_den":24,"correct_side":1,"subjID":"lauracarebilla35","gender":"1","school":"6","age":"11"},{"start_time":1551800609527,"click_time":1551800611416,"finger_time":1551800611136,"fix_duration":250,"trial":7,"RT":1609,"MT":280,"sideResp":2,"stimulus":[],"xmouse":[792,792,792,792,792,792,792,792,792,792,792,792,792,792,792,792,792,792,792,792,792,792,792,792,792,792,792,792,792,792,792,792,792,792,792,792,792,792,792,792,792,792,792,792,792,792,792,792,792,792,792,792,792,792,792,792,792,792,792,792,792,792,792,792,792,792,792,792,792,792,792,792,792,792,792,792,792,792,792,803,820,837,862,892,935,956,989,1006,1021,1038,1044,1047,1050,1057,1066],"ymouse":[508,508,508,508,508,508,508,508,508,508,508,508,508,508,508,508,508,508,508,508,508,508,508,508,508,508,508,508,508,508,508,508,508,508,508,508,508,508,508,508,508,508,508,508,508,508,508,508,508,508,508,508,508,508,508,508,508,508,508,508,508,508,508,508,508,508,508,508,508,508,508,508,508,508,508,508,508,508,508,476,455,433,413,393,362,343,311,288,261,220,196,169,142,120,89],"timestamp_mouse":[9,35,48,69,88,109,130,149,169,189,208,228,250,269,289,309,328,349,368,389,409,428,448,469,489,508,528,550,568,588,609,629,648,668,688,708,728,748,768,788,808,830,849,869,888,908,930,949,969,988,1009,1028,1048,1069,1089,1108,1129,1149,1169,1189,1210,1228,1249,1269,1288,1309,1330,1348,1369,1388,1408,1429,1450,1468,1488,1509,1529,1548,1569,1589,1609,1628,1650,1669,1688,1708,1728,1748,1768,1789,1808,1829,1849,1869,1889],"xSR":741.5,"ySR":469.95,"xT1":424.9,"yT1":0,"xT2":1058.1,"yT2":0,"toosoon":0,"cond_shown":"Congruent","ratio_trial":200,"L_num":3,"L_den":10,"R_num":7,"R_den":14,"correct_side":2,"subjID":"lauracarebilla35","gender":"1","school":"6","age":"11"},{"start_time":1551800613299,"click_time":1551800615456,"finger_time":1551800615035,"fix_duration":662.3695492782755,"trial":8,"RT":1736,"MT":421,"sideResp":1,"stimulus":[],"xmouse":[803,803,803,803,803,803,803,803,803,803,803,803,803,803,803,803,803,803,803,803,803,803,803,803,803,803,803,803,803,803,803,803,803,803,803,803,803,803,803,803,803,803,803,803,803,803,803,803,803,803,803,803,803,803,803,803,803,803,803,803,803,803,803,803,803,803,803,803,803,803,803,803,803,803,803,803,803,803,803,803,803,803,803,803,802,791,746,716,699,677,630,606,586,568,553,536,533,527,525,523,520,520,520,520,517,515,510,509],"ymouse":[513,513,513,513,513,513,513,513,513,513,513,513,513,513,513,513,513,513,513,513,513,513,513,513,513,513,513,513,513,513,513,513,513,513,513,513,513,513,513,513,513,513,513,513,513,513,513,513,513,513,513,513,513,513,513,513,513,513,513,513,513,513,513,513,513,513,513,513,513,513,513,513,513,513,513,513,513,513,513,513,513,513,513,513,511,493,425,392,379,366,338,324,311,296,282,263,257,233,214,195,169,162,155,141,127,117,102,98],"timestamp_mouse":[16,36,57,77,97,116,137,156,178,197,216,237,257,276,296,316,336,357,376,396,416,437,457,477,496,516,536,556,576,596,616,638,656,676,697,717,737,756,776,798,816,836,856,877,897,917,937,956,976,997,1017,1036,1056,1076,1098,1118,1137,1156,1177,1197,1216,1236,1257,1276,1296,1316,1336,1358,1378,1397,1417,1438,1456,1477,1496,1517,1536,1557,1576,1596,1617,1637,1657,1677,1697,1717,1736,1757,1777,1798,1816,1836,1856,1877,1896,1917,1937,1957,1976,1998,2016,2036,2057,2077,2097,2117,2136,2157],"xSR":741.5,"ySR":469.95,"xT1":424.9,"yT1":0,"xT2":1058.1,"yT2":0,"toosoon":0,"cond_shown":"Incongruent","ratio_trial":100,"L_num":9,"L_den":18,"R_num":6,"R_den":10,"correct_side":2,"subjID":"lauracarebilla35","gender":"1","school":"6","age":"11"},{"start_time":1551800616949,"click_time":1551800618956,"finger_time":1551800618616,"fix_duration":250,"trial":9,"RT":1667,"MT":340,"sideResp":1,"stimulus":[],"xmouse":[813,813,813,813,813,813,813,813,813,813,813,813,813,813,813,813,813,813,813,813,813,813,813,813,813,813,813,813,813,813,813,813,813,813,813,813,813,813,813,813,813,813,813,813,813,813,813,813,813,813,813,813,813,813,813,813,813,813,813,813,813,813,813,813,813,813,813,813,813,813,813,813,813,813,813,813,813,813,813,812,810,808,802,772,699,665,650,633,606,597,587,581,578,574,566,563,553,544,531,526,524],"ymouse":[525,525,525,525,525,525,525,525,525,525,525,525,525,525,525,525,525,525,525,525,525,525,525,525,525,525,525,525,525,525,525,525,525,525,525,525,525,525,525,525,525,525,525,525,525,525,525,525,525,525,525,525,525,525,525,525,525,525,525,525,525,525,525,525,525,525,525,525,525,525,525,525,525,525,525,525,525,525,525,524,523,521,507,455,352,315,300,281,245,228,214,203,198,187,171,163,141,127,105,99,95],"timestamp_mouse":[9,34,47,66,87,107,128,147,166,187,206,227,247,267,287,307,327,347,366,386,408,426,448,467,487,507,526,548,566,587,607,627,647,667,686,707,727,747,766,786,806,826,848,866,886,907,926,947,967,988,1006,1026,1046,1066,1088,1107,1126,1146,1166,1186,1206,1226,1248,1267,1286,1306,1326,1348,1367,1387,1407,1427,1446,1466,1488,1506,1528,1547,1566,1586,1607,1627,1646,1667,1686,1706,1727,1746,1767,1787,1808,1826,1848,1866,1886,1906,1927,1947,1967,1986,2007],"xSR":741.5,"ySR":469.95,"xT1":424.9,"yT1":0,"xT2":1058.1,"yT2":0,"toosoon":0,"cond_shown":"Congruent","ratio_trial":200,"L_num":16,"L_den":30,"R_num":9,"R_den":27,"correct_side":1,"subjID":"lauracarebilla35","gender":"1","school":"6","age":"11"},{"start_time":1551800621084,"click_time":1551800623235,"finger_time":1551800622635,"fix_duration":1006.0691987168144,"trial":10,"RT":1551,"MT":600,"sideResp":1,"stimulus":[],"xmouse":[805,805,805,805,805,805,805,805,805,805,805,805,805,805,805,805,805,805,805,805,805,805,805,805,805,805,805,805,805,805,805,805,805,805,805,805,805,805,805,805,805,805,805,805,805,805,805,805,805,805,805,805,805,805,805,805,805,805,805,805,805,805,805,805,805,805,805,805,805,805,805,805,805,799,793,780,766,739,735,717,704,692,667,656,645,632,604,584,581,566,558,548,544,542,534,530,524,520,517,516,514,511,507,503,501,497,491,487],"ymouse":[510,510,510,510,510,510,510,510,510,510,510,510,510,510,510,510,510,510,510,510,510,510,510,510,510,510,510,510,510,510,510,510,510,510,510,510,510,510,510,510,510,510,510,510,510,510,510,510,510,510,510,510,510,510,510,510,510,510,510,510,510,510,510,510,510,510,510,510,510,510,510,510,510,508,501,487,475,453,449,430,416,402,373,358,341,322,278,251,245,222,210,190,182,173,161,152,141,136,132,130,127,124,118,114,112,108,102,96],"timestamp_mouse":[12,32,52,71,91,112,131,152,172,193,213,231,251,271,292,311,331,352,371,391,412,432,451,471,492,512,532,552,572,592,612,632,651,671,692,711,731,751,771,792,811,831,851,872,891,912,931,951,971,992,1011,1031,1052,1071,1093,1111,1132,1152,1172,1192,1211,1231,1251,1271,1291,1312,1332,1352,1372,1392,1412,1432,1452,1471,1492,1512,1531,1551,1572,1591,1612,1631,1652,1672,1692,1712,1731,1751,1771,1791,1812,1832,1851,1871,1891,1913,1932,1952,1972,1992,2011,2031,2052,2071,2093,2112,2131,2151],"xSR":741.5,"ySR":469.95,"xT1":424.9,"yT1":0,"xT2":1058.1,"yT2":0,"toosoon":0,"cond_shown":"Incongruent","ratio_trial":100,"L_num":13,"L_den":26,"R_num":6,"R_den":10,"correct_side":2,"subjID":"lauracarebilla35","gender":"1","school":"6","age":"11"},{"start_time":1551800625122,"click_time":1551800627277,"finger_time":1551800626816,"fix_duration":764.7874116590234,"trial":11,"RT":1694,"MT":461,"sideResp":2,"stimulus":[],"xmouse":[805,805,805,805,805,805,805,805,805,805,805,805,805,805,805,805,805,805,805,805,805,805,805,805,805,805,805,805,805,805,805,805,805,805,805,805,805,805,805,805,805,805,805,805,805,805,805,805,805,805,805,805,805,805,805,805,805,805,805,805,805,805,805,805,805,805,805,805,805,805,804,801,800,800,800,800,800,800,800,800,800,800,800,800,840,851,911,943,966,1001,1014,1021,1026,1029,1032,1036,1039,1040,1040,1040,1040,1040,1042,1044,1052,1057,1058,1064],"ymouse":[514,514,514,514,514,514,514,514,514,514,514,514,514,514,514,514,514,514,514,514,514,514,514,514,514,514,514,514,514,514,514,514,514,514,514,514,514,514,514,514,514,514,514,514,514,514,514,514,514,514,514,514,514,514,514,514,514,514,514,514,514,514,514,514,514,514,514,514,514,514,514,513,512,512,512,512,512,512,512,512,512,512,512,507,419,391,320,284,257,216,199,181,164,148,126,114,104,101,100,100,100,100,96,93,83,79,78,75],"timestamp_mouse":[13,41,55,73,94,114,134,154,174,194,213,233,253,273,294,314,334,354,374,394,414,434,453,475,494,514,534,554,574,594,615,635,654,674,693,714,734,753,774,794,814,834,854,873,894,913,933,954,975,993,1014,1033,1054,1074,1094,1114,1134,1154,1173,1193,1213,1233,1253,1275,1294,1314,1333,1353,1374,1394,1414,1434,1453,1474,1494,1513,1534,1553,1573,1595,1614,1634,1655,1674,1694,1713,1733,1754,1775,1794,1814,1833,1854,1874,1893,1914,1933,1954,1974,1993,2013,2035,2053,2074,2093,2113,2133,2154],"xSR":741.5,"ySR":469.95,"xT1":424.9,"yT1":0,"xT2":1058.1,"yT2":0,"toosoon":0,"cond_shown":"Congruent","ratio_trial":200,"L_num":1,"L_den":2,"R_num":21,"R_den":30,"correct_side":2,"subjID":"lauracarebilla35","gender":"1","school":"6","age":"11"},{"start_time":1551800629690,"click_time":1551800631656,"finger_time":1551800631195,"fix_duration":753.6198489868727,"trial":12,"RT":1505,"MT":461,"sideResp":2,"stimulus":[],"xmouse":[778,778,778,778,778,778,778,778,778,778,778,778,778,778,778,778,778,778,778,778,778,778,778,778,778,778,778,778,778,778,778,778,778,778,778,778,778,778,778,778,778,778,778,778,778,778,778,778,778,778,778,778,778,778,778,778,778,778,778,778,778,778,778,778,778,778,778,778,778,778,778,778,778,787,799,813,846,869,938,995,1053,1134,1164,1182,1196,1204,1208,1208,1209,1208,1206,1206,1204,1204,1200,1192,1171,1163,1158],"ymouse":[527,527,527,527,527,527,527,527,527,527,527,527,527,527,527,527,527,527,527,527,527,527,527,527,527,527,527,527,527,527,527,527,527,527,527,527,527,527,527,527,527,527,527,527,527,527,527,527,527,527,527,527,527,527,527,527,527,527,527,527,527,527,527,527,527,527,527,527,527,527,527,527,527,505,484,463,420,394,320,266,222,134,103,84,71,64,59,58,49,43,39,38,38,37,36,36,37,40,42],"timestamp_mouse":[12,42,46,65,86,105,127,146,166,186,206,225,245,266,285,307,325,346,365,386,406,426,446,465,485,507,526,546,565,586,605,625,645,667,685,706,726,747,765,785,807,825,847,866,886,907,925,945,965,986,1007,1025,1045,1067,1086,1106,1127,1146,1167,1186,1206,1226,1247,1265,1286,1306,1327,1345,1367,1386,1405,1427,1445,1466,1486,1505,1526,1546,1566,1586,1606,1626,1645,1666,1685,1707,1727,1747,1765,1786,1806,1826,1846,1867,1886,1906,1926,1946,1966],"xSR":741.5,"ySR":469.95,"xT1":424.9,"yT1":0,"xT2":1058.1,"yT2":0,"toosoon":0,"cond_shown":"Congruent","ratio_trial":200,"L_num":6,"L_den":12,"R_num":7,"R_den":10,"correct_side":2,"subjID":"lauracarebilla35","gender":"1","school":"6","age":"11"},{"start_time":1551800636950,"click_time":1551800638816,"finger_time":1551800638536,"fix_duration":412.7662660777166,"trial":13,"RT":1586,"MT":280,"sideResp":2,"stimulus":[],"xmouse":[785,785,785,785,785,785,785,785,785,785,785,785,785,785,785,785,785,785,785,785,785,785,785,785,785,785,785,785,785,785,785,785,785,785,785,785,785,785,785,785,785,785,785,785,785,785,785,785,785,785,785,785,785,785,785,785,785,785,785,785,785,785,785,785,785,785,785,785,785,785,785,785,785,785,785,785,785,789,800,837,856,870,885,918,941,955,971,989,1041,1058,1070,1083,1090,1112],"ymouse":[551,551,551,551,551,551,551,551,551,551,551,551,551,551,551,551,551,551,551,551,551,551,551,551,551,551,551,551,551,551,551,551,551,551,551,551,551,551,551,551,551,551,551,551,551,551,551,551,551,551,551,551,551,551,551,551,551,551,551,551,551,551,551,551,551,551,551,551,551,551,551,551,551,551,551,551,551,537,522,465,443,428,413,378,345,324,301,266,180,149,129,109,100,62],"timestamp_mouse":[8,33,47,66,86,107,126,146,165,185,205,225,245,265,285,307,325,346,365,385,405,425,445,465,485,505,525,545,566,587,605,626,646,666,686,705,725,746,765,785,806,827,845,866,886,906,926,946,966,986,1006,1026,1046,1067,1086,1106,1126,1146,1166,1187,1206,1226,1246,1266,1285,1305,1325,1345,1366,1385,1405,1425,1446,1465,1485,1505,1525,1546,1565,1586,1606,1625,1645,1666,1685,1705,1725,1745,1765,1785,1805,1826,1847,1865],"xSR":741.5,"ySR":469.95,"xT1":424.9,"yT1":0,"xT2":1058.1,"yT2":0,"toosoon":0,"cond_shown":"Congruent","ratio_trial":100,"L_num":12,"L_den":30,"R_num":13,"R_den":26,"correct_side":2,"subjID":"lauracarebilla35","gender":"1","school":"6","age":"11"},{"start_time":1551800641095,"click_time":1551800643175,"finger_time":1551800643035,"fix_duration":479.0937708674644,"trial":14,"RT":1940,"MT":140,"sideResp":1,"stimulus":[],"xmouse":[786,786,786,786,786,786,786,786,786,786,786,786,786,786,786,786,786,786,786,786,786,786,786,786,786,786,786,786,786,786,786,786,786,786,786,786,786,786,786,786,786,786,786,786,786,786,786,786,786,786,786,786,786,786,786,786,786,786,786,786,786,786,786,786,786,786,786,786,786,786,786,786,786,786,786,786,786,786,786,786,786,786,786,786,786,786,786,786,786,786,786,786,786,786,786,786,786,743,693,634,593,555,541,526,522],"ymouse":[483,483,483,483,483,483,483,483,483,483,483,483,483,483,483,483,483,483,483,483,483,483,483,483,483,483,483,483,483,483,483,483,483,483,483,483,483,483,483,483,483,483,483,483,483,483,483,483,483,483,483,483,483,483,483,483,483,483,483,483,483,483,483,483,483,483,483,483,483,483,483,483,483,483,483,483,483,483,483,483,483,483,483,483,483,483,483,483,483,483,483,483,483,483,483,483,483,398,315,234,169,123,107,89,83],"timestamp_mouse":[3,26,40,60,80,100,120,140,160,180,200,220,240,260,280,300,320,340,360,380,400,420,440,460,480,500,520,540,560,580,600,620,640,660,682,702,722,742,762,782,802,822,841,861,881,901,921,941,961,981,1001,1021,1041,1061,1081,1101,1121,1141,1161,1181,1201,1221,1241,1261,1281,1301,1322,1341,1361,1381,1401,1421,1440,1461,1480,1500,1520,1540,1560,1580,1600,1620,1640,1660,1680,1700,1720,1740,1760,1780,1800,1820,1840,1860,1880,1900,1920,1940,1960,1981,2000,2021,2040,2060,2080],"xSR":741.5,"ySR":469.95,"xT1":424.9,"yT1":0,"xT2":1058.1,"yT2":0,"toosoon":0,"cond_shown":"Incongruent","ratio_trial":100,"L_num":6,"L_den":10,"R_num":13,"R_den":26,"correct_side":1,"subjID":"lauracarebilla35","gender":"1","school":"6","age":"11"},{"start_time":1551800645687,"click_time":1551800647516,"finger_time":1551800647215,"fix_duration":911.8862534406267,"trial":15,"RT":1528,"MT":301,"sideResp":1,"stimulus":[],"xmouse":[760,760,760,760,761,761,762,762,763,763,763,763,763,763,763,763,763,763,763,763,763,763,763,763,763,763,763,763,763,763,763,763,763,763,763,763,763,763,763,763,763,763,763,763,763,763,763,763,763,763,763,763,763,763,763,763,763,763,763,763,763,763,763,763,763,763,763,763,763,763,763,763,763,760,759,750,696,664,648,637,626,603,593,586,580,576,559,552,541,531,522,511],"ymouse":[487,487,487,488,488,488,489,489,489,489,489,489,489,489,489,489,489,489,489,489,489,489,489,489,489,489,489,489,489,489,489,489,489,489,489,489,489,489,489,489,489,489,489,489,489,489,489,489,489,489,489,489,489,489,489,489,489,489,489,489,489,489,489,489,489,489,489,489,489,489,489,489,489,488,487,483,406,366,342,323,299,262,248,233,222,212,170,156,140,123,107,94],"timestamp_mouse":[10,29,50,70,90,109,130,149,168,190,209,229,249,269,289,309,329,348,368,389,408,428,448,468,488,508,528,548,568,588,608,628,649,668,688,708,728,748,768,788,808,828,848,868,888,908,928,948,968,988,1008,1028,1048,1068,1088,1108,1128,1148,1168,1188,1208,1228,1248,1268,1288,1310,1330,1350,1370,1390,1409,1429,1449,1469,1489,1510,1528,1550,1568,1590,1610,1629,1649,1670,1689,1710,1729,1749,1768,1790,1810,1829],"xSR":741.5,"ySR":469.95,"xT1":424.9,"yT1":0,"xT2":1058.1,"yT2":0,"toosoon":0,"cond_shown":"Congruent","ratio_trial":300,"L_num":20,"L_den":25,"R_num":9,"R_den":18,"correct_side":1,"subjID":"lauracarebilla35","gender":"1","school":"6","age":"11"},{"start_time":1551800649778,"click_time":1551800651377,"finger_time":1551800651177,"fix_duration":820.3672662230829,"trial":16,"RT":1399,"MT":200,"sideResp":1,"stimulus":[],"xmouse":[818,818,818,818,818,818,818,818,818,818,818,818,818,818,818,818,818,818,818,818,818,818,818,818,818,818,818,818,818,818,818,818,818,818,818,818,818,818,818,818,818,818,818,818,818,818,818,818,818,818,818,818,818,818,818,818,818,818,818,818,818,818,818,818,818,818,818,818,818,812,803,767,724,689,647,609,521,492,469,455],"ymouse":[472,472,472,472,472,472,472,472,472,472,472,472,472,472,472,472,472,472,472,472,472,472,472,472,472,472,472,472,472,472,472,472,472,472,472,472,472,472,472,472,472,472,472,472,472,472,472,472,472,472,472,472,472,472,472,472,472,472,472,472,472,472,472,472,472,472,472,472,472,464,457,415,359,321,281,248,172,137,110,93],"timestamp_mouse":[17,37,57,77,97,117,137,157,177,197,217,237,257,277,297,317,337,357,377,397,417,437,457,477,497,517,537,557,577,597,617,637,659,678,699,719,739,759,779,799,819,838,858,878,898,918,938,958,978,998,1018,1038,1058,1078,1098,1118,1138,1158,1178,1198,1218,1238,1258,1278,1298,1318,1338,1358,1378,1399,1419,1438,1458,1477,1497,1517,1537,1558,1578,1598],"xSR":741.5,"ySR":469.95,"xT1":424.9,"yT1":0,"xT2":1058.1,"yT2":0,"toosoon":0,"cond_shown":"Congruent","ratio_trial":100,"L_num":15,"L_den":25,"R_num":13,"R_den":26,"correct_side":1,"subjID":"lauracarebilla35","gender":"1","school":"6","age":"11"},{"start_time":1551800654238,"click_time":1551800657155,"finger_time":1551800655635,"fix_duration":1262.4338424086816,"trial":17,"RT":1397,"MT":1520,"sideResp":1,"stimulus":[],"xmouse":[778,778,778,778,778,778,778,778,778,778,778,778,778,778,778,778,778,778,778,778,778,778,778,778,778,778,778,778,778,778,778,778,778,778,778,778,778,778,778,778,778,778,778,778,778,778,778,778,778,778,778,778,778,778,778,778,778,778,778,778,778,778,778,778,778,778,770,763,751,721,714,710,707,697,692,688,687,683,664,645,632,619,610,586,574,565,556,547,536,525,519,514,513,509,507,505,504,504,504,504,504,504,504,504,504,504,504,504,504,504,504,504,504,504,504,504,504,504,504,504,504,504,504,504,504,504,504,504,504,504,504,504,504,504,504,504,504,504,504,504,504,504,504,500,500,499],"ymouse":[494,494,494,494,494,494,494,494,494,494,494,494,494,494,494,494,494,494,494,494,494,494,494,494,494,494,494,494,494,494,494,494,494,494,494,494,494,494,494,494,494,494,494,494,494,494,494,494,494,494,494,494,494,494,494,494,494,494,494,494,494,494,494,494,494,494,492,489,483,462,452,444,438,423,417,411,409,403,364,326,302,283,261,226,209,202,195,189,179,166,161,156,155,146,141,137,135,133,133,133,133,133,133,133,133,133,133,133,133,133,133,133,133,133,133,133,133,133,133,133,133,133,133,133,133,133,133,133,133,133,133,133,133,133,133,133,133,133,133,133,133,133,133,105,100,94],"timestamp_mouse":[19,38,58,78,98,118,138,158,178,198,218,238,258,278,298,318,338,358,378,398,418,438,457,477,497,517,537,557,577,597,617,637,657,677,697,717,737,757,777,797,817,837,857,877,897,917,937,957,977,997,1017,1037,1057,1077,1097,1117,1137,1157,1177,1197,1217,1237,1257,1277,1297,1317,1338,1357,1377,1397,1418,1439,1459,1477,1498,1518,1538,1559,1577,1598,1619,1639,1659,1679,1697,1719,1739,1759,1777,1799,1817,1838,1858,1877,1898,1919,1938,1959,1979,1999,2018,2038,2058,2078,2099,2118,2138,2158,2178,2198,2218,2238,2257,2277,2297,2317,2338,2357,2377,2397,2417,2437,2457,2477,2497,2517,2537,2557,2577,2597,2617,2637,2658,2678,2697,2717,2737,2757,2778,2797,2817,2837,2858,2877,2897,2917],"xSR":741.5,"ySR":469.95,"xT1":424.9,"yT1":0,"xT2":1058.1,"yT2":0,"toosoon":0,"cond_shown":"Congruent","ratio_trial":200,"L_num":12,"L_den":20,"R_num":6,"R_den":15,"correct_side":1,"subjID":"lauracarebilla35","gender":"1","school":"6","age":"11"},{"start_time":1551800660401,"click_time":1551800662435,"finger_time":1551800662235,"fix_duration":586.7321933593846,"trial":18,"RT":1834,"MT":200,"sideResp":1,"stimulus":[],"xmouse":[765,765,765,765,765,765,765,765,765,765,765,765,765,765,765,765,765,765,765,765,765,765,765,765,765,765,765,765,765,765,765,765,765,765,765,765,765,765,765,765,765,765,765,765,765,765,765,765,765,765,765,765,765,765,765,765,765,765,765,765,765,765,765,765,765,765,765,765,765,765,765,765,765,765,765,765,765,765,765,765,765,765,765,765,765,765,765,765,763,761,760,739,723,698,662,595,572,558,546,540,528,517],"ymouse":[497,497,497,497,497,497,497,497,497,497,497,497,497,497,497,497,497,497,497,497,497,497,497,497,497,497,497,497,497,497,497,497,497,497,497,497,497,497,497,497,497,497,497,497,497,497,497,497,497,497,497,497,497,497,497,497,497,497,497,497,497,497,497,497,497,497,497,497,497,497,497,497,497,497,497,497,497,497,497,497,497,497,497,497,497,497,497,497,496,495,495,481,418,339,272,167,136,119,99,85,62,47],"timestamp_mouse":[19,34,55,74,94,114,134,154,174,194,214,234,254,274,294,314,334,355,374,394,414,436,456,476,496,516,536,556,576,595,616,635,655,675,695,715,735,755,775,795,815,835,855,875,895,915,935,955,975,995,1015,1035,1055,1075,1095,1115,1135,1155,1175,1195,1215,1234,1255,1274,1294,1315,1334,1354,1374,1394,1414,1434,1454,1474,1494,1514,1534,1554,1574,1594,1614,1634,1654,1674,1694,1714,1734,1754,1775,1794,1814,1834,1854,1874,1895,1914,1934,1954,1974,1994,2014,2034],"xSR":741.5,"ySR":469.95,"xT1":424.9,"yT1":0,"xT2":1058.1,"yT2":0,"toosoon":0,"cond_shown":"Incongruent","ratio_trial":100,"L_num":10,"L_den":25,"R_num":8,"R_den":16,"correct_side":2,"subjID":"lauracarebilla35","gender":"1","school":"6","age":"11"},{"start_time":1551800665008,"click_time":1551800666935,"finger_time":1551800666476,"fix_duration":250,"trial":19,"RT":1468,"MT":459,"sideResp":2,"stimulus":[],"xmouse":[817,817,817,817,817,817,817,817,817,817,817,817,817,817,817,817,817,817,817,817,817,817,817,817,817,817,817,817,817,817,817,817,817,817,817,817,817,817,817,817,817,817,817,817,817,817,817,817,817,816,816,815,815,815,815,815,815,815,815,815,815,815,815,815,815,815,815,815,815,815,815,815,819,835,870,900,922,965,1012,1037,1062,1067,1070,1071,1071,1072,1072,1072,1074,1074,1075,1075,1077,1078,1084,1093,1097],"ymouse":[493,493,493,493,493,493,493,493,493,493,493,493,493,493,493,493,493,493,493,493,493,493,493,493,493,493,493,493,493,493,493,493,493,493,493,493,493,493,493,493,493,493,493,493,493,493,493,492,492,492,492,491,491,491,491,491,491,491,491,491,491,491,491,491,491,491,491,491,491,491,491,491,484,460,402,359,338,301,276,258,232,219,214,211,208,199,194,188,178,170,166,153,143,135,124,102,95],"timestamp_mouse":[12,28,48,68,88,108,127,147,167,187,207,227,247,267,287,307,327,347,367,387,407,427,447,467,487,507,527,547,567,587,607,627,647,667,687,707,727,747,767,787,807,827,847,867,887,907,927,947,967,987,1008,1027,1047,1067,1089,1109,1129,1149,1168,1189,1208,1228,1248,1268,1288,1308,1328,1348,1368,1388,1408,1428,1447,1468,1489,1509,1528,1549,1568,1589,1608,1628,1648,1669,1689,1708,1728,1749,1769,1788,1808,1828,1852,1868,1888,1908,1927],"xSR":741.5,"ySR":469.95,"xT1":424.9,"yT1":0,"xT2":1058.1,"yT2":0,"toosoon":0,"cond_shown":"Incongruent","ratio_trial":100,"L_num":13,"L_den":26,"R_num":6,"R_den":10,"correct_side":2,"subjID":"lauracarebilla35","gender":"1","school":"6","age":"11"},{"start_time":1551800669658,"click_time":1551800671615,"finger_time":1551800671136,"fix_duration":301.79869021087626,"trial":20,"RT":1478,"MT":479,"sideResp":2,"stimulus":[],"xmouse":[826,826,826,826,826,826,826,826,826,826,826,826,826,826,826,826,826,826,826,826,826,826,826,826,826,826,826,826,826,826,826,826,826,826,826,826,826,826,826,826,826,826,826,826,826,826,826,826,826,826,826,826,826,826,826,826,826,826,826,826,826,826,826,826,826,826,826,826,826,826,826,826,826,862,896,916,949,991,1002,1005,1008,1008,1009,1009,1011,1011,1011,1011,1013,1016,1020,1029,1036,1043,1050,1055,1065,1076],"ymouse":[491,491,491,491,491,491,491,491,491,491,491,491,491,491,491,491,491,491,491,491,491,491,491,491,491,491,491,491,491,491,491,491,491,491,491,491,491,491,491,491,491,491,491,491,491,491,491,491,491,491,491,491,491,491,491,491,491,491,491,491,491,491,491,491,491,491,491,491,491,491,491,491,481,431,384,357,325,280,268,258,251,251,251,248,243,239,239,238,235,227,211,195,172,160,146,135,125,99],"timestamp_mouse":[19,39,58,78,98,118,138,158,178,198,218,238,258,278,298,318,338,358,378,398,418,438,458,478,498,518,538,558,578,598,618,638,657,677,697,717,737,757,777,797,817,837,857,877,897,917,937,957,977,997,1017,1037,1057,1077,1097,1117,1137,1157,1177,1197,1217,1237,1257,1277,1297,1317,1337,1357,1377,1397,1417,1437,1457,1478,1497,1517,1537,1557,1577,1599,1617,1639,1657,1678,1698,1719,1739,1759,1778,1799,1819,1838,1858,1878,1899,1919,1939,1957],"xSR":741.5,"ySR":469.95,"xT1":424.9,"yT1":0,"xT2":1058.1,"yT2":0,"toosoon":0,"cond_shown":"Incongruent","ratio_trial":100,"L_num":9,"L_den":15,"R_num":14,"R_den":28,"correct_side":1,"subjID":"lauracarebilla35","gender":"1","school":"6","age":"11"},{"start_time":1551800673398,"click_time":1551800675477,"finger_time":1551800674856,"fix_duration":642.8027440932188,"trial":21,"RT":1458,"MT":621,"sideResp":1,"stimulus":[],"xmouse":[788,788,788,788,788,788,788,788,788,788,788,788,788,788,788,788,788,788,788,788,788,788,788,788,788,788,788,788,788,788,788,788,788,788,788,788,788,788,788,788,788,788,788,788,788,788,788,788,788,788,788,788,788,788,788,788,788,788,788,788,788,788,788,785,785,785,785,785,785,785,780,763,743,732,722,710,700,688,681,676,674,673,673,669,667,659,654,652,651,643,610,591,588,583,579,574,571,569,567,566,559,547,540,524],"ymouse":[540,540,540,540,540,540,540,540,540,540,540,540,540,540,540,540,540,540,540,540,540,540,540,540,540,540,540,540,540,540,540,540,540,540,540,540,540,540,540,540,540,540,540,540,540,540,540,540,540,540,540,540,540,540,540,540,540,540,540,540,540,540,540,539,538,538,538,538,538,538,530,487,450,425,402,371,353,336,323,316,312,311,307,303,298,287,281,278,277,258,227,207,201,192,190,185,180,179,178,174,156,132,115,98],"timestamp_mouse":[21,38,58,78,98,118,138,158,178,198,218,238,258,278,298,318,338,358,378,397,418,437,457,477,497,517,537,557,577,597,617,637,657,677,697,717,737,757,777,797,817,837,857,877,897,917,937,957,977,997,1017,1037,1057,1077,1097,1117,1137,1157,1177,1197,1217,1237,1257,1277,1297,1317,1337,1357,1379,1399,1417,1439,1458,1479,1498,1519,1538,1559,1579,1599,1619,1639,1659,1678,1698,1718,1737,1758,1779,1798,1817,1838,1859,1878,1899,1917,1939,1958,1979,1998,2017,2039,2059,2079],"xSR":741.5,"ySR":469.95,"xT1":424.9,"yT1":0,"xT2":1058.1,"yT2":0,"toosoon":0,"cond_shown":"Congruent","ratio_trial":300,"L_num":20,"L_den":25,"R_num":13,"R_den":26,"correct_side":1,"subjID":"lauracarebilla35","gender":"1","school":"6","age":"11"},{"start_time":1551800677166,"click_time":1551800679216,"finger_time":1551800678637,"fix_duration":250,"trial":22,"RT":1471,"MT":579,"sideResp":1,"stimulus":[],"xmouse":[769,769,769,769,769,769,769,769,769,769,769,769,769,769,769,769,769,769,769,769,769,769,769,769,769,769,769,769,769,769,769,769,769,769,769,769,769,769,769,769,769,769,769,769,769,769,769,769,769,769,769,769,769,769,769,769,769,769,769,769,769,769,769,769,769,769,769,769,769,769,769,769,769,767,759,749,734,719,715,704,697,686,663,641,630,627,621,597,589,581,570,562,556,554,546,542,538,533,530,529,527,525,521],"ymouse":[520,520,520,520,520,520,520,520,520,520,520,520,520,520,520,520,520,520,520,520,520,520,520,520,520,520,520,520,520,520,520,520,520,520,520,520,520,520,520,520,520,520,520,520,520,520,520,520,520,520,520,520,520,520,520,520,520,520,520,520,520,520,520,520,520,520,520,520,520,520,520,520,521,453,399,334,267,232,223,211,204,192,169,151,143,140,135,121,116,110,105,101,98,98,93,91,89,85,84,84,83,82,80],"timestamp_mouse":[9,30,49,69,89,109,129,149,169,189,209,229,249,270,289,309,329,349,370,389,409,429,449,469,489,509,529,549,569,589,609,629,649,669,689,709,729,749,770,789,809,831,850,871,891,911,931,950,971,991,1010,1030,1050,1070,1090,1110,1130,1150,1170,1190,1210,1230,1250,1270,1291,1310,1330,1350,1370,1390,1410,1430,1450,1471,1490,1510,1530,1550,1570,1591,1610,1629,1650,1670,1690,1710,1729,1750,1769,1789,1809,1830,1850,1869,1890,1909,1929,1949,1969,1990,2009,2030,2050],"xSR":741.5,"ySR":469.95,"xT1":424.9,"yT1":0,"xT2":1058.1,"yT2":0,"toosoon":0,"cond_shown":"Congruent","ratio_trial":200,"L_num":11,"L_den":22,"R_num":3,"R_den":10,"correct_side":1,"subjID":"lauracarebilla35","gender":"1","school":"6","age":"11"},{"start_time":1551800682019,"click_time":1551800684255,"finger_time":1551800683415,"fix_duration":261.8694856451985,"trial":23,"RT":1396,"MT":840,"sideResp":1,"stimulus":[],"xmouse":[777,777,777,777,777,777,777,777,777,777,777,777,777,777,777,777,777,777,777,777,777,777,777,777,777,777,777,777,777,777,777,777,777,777,777,777,777,777,777,777,777,777,777,777,777,777,777,777,777,777,777,777,777,777,777,777,777,777,777,777,777,777,777,777,777,777,777,776,776,750,711,692,665,630,605,594,585,581,576,559,548,546,540,538,536,532,531,530,529,528,526,524,524,524,523,520,514,504,500,499,499,499,499,499,499,499,499,499,499,499,498,496],"ymouse":[506,506,506,506,506,506,506,506,506,506,506,506,506,506,506,506,506,506,506,506,506,506,506,506,506,506,506,506,506,506,506,506,506,506,506,506,506,506,506,506,506,506,506,506,506,506,506,506,506,506,506,506,506,506,506,506,506,506,506,506,506,506,506,506,506,506,506,505,504,444,384,357,327,284,246,232,223,219,214,191,174,171,155,150,145,138,133,131,130,128,127,126,126,126,126,124,122,116,113,112,112,112,112,112,112,112,112,112,112,112,105,92],"timestamp_mouse":[17,38,57,77,97,117,137,157,177,197,217,237,256,276,296,316,336,356,376,396,416,436,456,476,496,516,536,556,576,596,616,636,656,676,696,716,736,757,776,796,816,836,856,876,896,916,936,956,976,997,1016,1036,1056,1076,1096,1116,1136,1156,1176,1196,1218,1238,1258,1278,1297,1317,1337,1357,1378,1396,1418,1437,1458,1478,1498,1517,1537,1557,1578,1596,1618,1637,1658,1678,1696,1716,1737,1757,1777,1797,1817,1838,1857,1877,1897,1917,1938,1957,1978,1997,2017,2037,2056,2076,2096,2116,2137,2157,2177,2196,2217,2236],"xSR":741.5,"ySR":469.95,"xT1":424.9,"yT1":0,"xT2":1058.1,"yT2":0,"toosoon":0,"cond_shown":"Incongruent","ratio_trial":300,"L_num":8,"L_den":10,"R_num":14,"R_den":28,"correct_side":1,"subjID":"lauracarebilla35","gender":"1","school":"6","age":"11"},{"start_time":1551800687129,"click_time":1551800689237,"finger_time":1551800688576,"fix_duration":1412.0188641859693,"trial":24,"RT":1447,"MT":661,"sideResp":2,"stimulus":[],"xmouse":[778,778,778,778,778,778,778,778,778,778,778,778,778,778,778,778,778,778,778,778,778,778,778,778,778,778,778,778,778,778,778,778,778,778,778,778,778,778,778,778,778,778,778,778,778,778,778,778,778,778,778,778,778,778,778,778,778,778,778,778,778,778,778,778,778,778,778,778,778,778,779,790,819,832,849,862,871,881,890,909,918,930,936,941,953,981,1001,1015,1031,1055,1064,1071,1075,1077,1079,1080,1081,1081,1081,1081,1081,1081,1081,1084,1087,1096],"ymouse":[520,520,520,520,520,520,520,520,520,520,520,520,520,520,520,520,520,520,520,520,520,520,520,520,520,520,520,520,520,520,520,520,520,520,520,520,520,520,520,520,520,520,520,520,520,520,520,520,520,520,520,520,520,520,520,520,520,520,520,520,520,520,520,520,520,520,520,520,520,520,520,495,437,401,354,323,310,295,282,254,240,226,219,213,203,191,184,175,168,153,146,140,137,135,130,129,128,127,127,127,127,127,127,123,115,90],"timestamp_mouse":[7,27,47,67,88,107,127,147,167,187,207,227,247,267,287,307,327,347,367,386,406,426,446,466,486,506,526,546,567,586,606,626,646,666,686,706,726,746,766,786,806,826,846,866,886,906,926,946,966,986,1007,1026,1047,1066,1087,1106,1126,1146,1166,1186,1206,1226,1246,1266,1288,1308,1326,1348,1368,1388,1406,1428,1447,1468,1487,1508,1527,1548,1567,1588,1606,1628,1648,1667,1687,1708,1727,1748,1768,1786,1808,1828,1848,1868,1887,1907,1928,1948,1967,1987,2007,2028,2047,2066,2086,2107],"xSR":741.5,"ySR":469.95,"xT1":424.9,"yT1":0,"xT2":1058.1,"yT2":0,"toosoon":0,"cond_shown":"Congruent","ratio_trial":200,"L_num":6,"L_den":12,"R_num":7,"R_den":10,"correct_side":2,"subjID":"lauracarebilla35","gender":"1","school":"6","age":"11"},{"start_time":1551800703948,"click_time":1551800706117,"finger_time":1551800705616,"fix_duration":250,"trial":25,"RT":1668,"MT":501,"sideResp":1,"stimulus":[],"xmouse":[757,757,759,759,759,759,759,759,759,759,759,759,759,759,759,759,759,759,759,759,759,759,759,759,759,759,759,759,759,759,759,759,759,759,759,759,759,759,759,759,759,759,759,759,759,759,759,759,759,760,760,760,760,760,760,760,760,760,760,760,760,760,760,760,760,760,760,760,760,760,760,760,760,760,760,760,760,760,760,762,765,766,766,714,691,651,622,585,543,539,538,538,538,538,538,538,538,542,542,540,539,538,538,538,536,535,534,531,507],"ymouse":[525,525,526,526,526,526,526,526,526,526,526,526,526,526,526,526,526,526,526,526,526,526,526,526,526,526,526,526,526,526,526,526,526,526,526,526,526,526,526,526,526,526,526,526,526,526,526,526,526,526,526,526,526,526,526,526,526,526,526,526,526,526,526,526,526,526,526,526,526,526,526,526,526,526,526,526,526,526,526,527,520,493,475,379,327,260,200,129,30,10,2,2,2,2,2,2,2,15,43,57,66,70,70,70,71,71,71,70,59],"timestamp_mouse":[8,29,49,68,88,108,128,150,170,190,209,229,249,269,289,309,329,349,369,389,409,429,449,469,489,509,529,549,569,589,609,629,649,669,689,709,729,749,769,789,809,829,849,869,889,909,929,949,969,990,1009,1029,1049,1070,1089,1109,1129,1149,1169,1189,1209,1229,1249,1269,1289,1309,1329,1349,1369,1389,1409,1429,1449,1469,1488,1508,1528,1548,1570,1589,1610,1630,1650,1668,1689,1709,1730,1750,1769,1789,1810,1830,1850,1869,1889,1910,1929,1949,1969,1990,2010,2029,2049,2069,2089,2110,2129,2149,2169],"xSR":741.5,"ySR":469.95,"xT1":424.9,"yT1":0,"xT2":1058.1,"yT2":0,"toosoon":0,"cond_shown":"Congruent","ratio_trial":100,"L_num":10,"L_den":25,"R_num":3,"R_den":10,"correct_side":1,"subjID":"lauracarebilla35","gender":"1","school":"6","age":"11"},{"start_time":1551800712014,"click_time":1551800714517,"finger_time":1551800714216,"fix_duration":735.5508699943674,"trial":26,"RT":2202,"MT":301,"sideResp":1,"stimulus":[],"xmouse":[773,773,773,773,773,773,773,773,773,773,775,775,775,775,775,776,776,776,776,776,776,776,776,776,777,777,777,777,777,777,777,777,777,777,777,777,777,777,777,777,777,777,777,777,777,777,777,777,777,777,777,777,777,777,777,777,777,777,777,777,777,777,777,777,777,777,777,777,777,777,777,777,777,777,777,777,777,777,777,777,777,777,777,778,778,778,778,778,778,778,778,778,778,778,778,778,778,778,778,778,778,778,778,778,778,778,778,778,767,760,722,702,655,608,571,555,555,555,557,562,553,543,535,529,524,514],"ymouse":[532,532,532,532,532,532,532,532,532,532,532,532,532,532,532,533,533,533,533,533,533,533,533,533,534,534,534,534,534,534,534,534,534,534,534,534,534,534,534,534,534,534,534,534,534,534,534,534,534,534,534,534,534,534,534,534,534,534,534,534,534,534,534,534,534,534,534,534,534,534,534,534,534,534,534,534,534,534,534,534,534,534,534,534,534,534,534,534,534,534,534,534,534,534,534,534,534,534,534,534,534,534,534,534,534,534,534,534,526,518,471,440,397,359,333,324,324,324,311,286,211,181,159,138,118,86],"timestamp_mouse":[3,24,42,62,82,102,122,142,162,182,202,223,242,262,282,303,322,342,364,384,404,424,444,463,483,503,523,543,563,583,603,623,643,663,683,703,723,743,763,783,803,823,843,863,883,903,923,943,963,983,1003,1024,1043,1063,1083,1103,1123,1143,1163,1183,1203,1223,1243,1263,1283,1303,1323,1343,1363,1383,1403,1423,1443,1463,1483,1503,1523,1543,1563,1583,1603,1623,1643,1663,1683,1703,1722,1742,1762,1783,1802,1822,1842,1862,1882,1902,1922,1942,1962,1982,2002,2022,2042,2064,2082,2104,2124,2144,2163,2184,2202,2224,2243,2264,2284,2304,2323,2344,2363,2383,2403,2424,2443,2463,2484,2503],"xSR":741.5,"ySR":469.95,"xT1":424.9,"yT1":0,"xT2":1058.1,"yT2":0,"toosoon":0,"cond_shown":"Incongruent","ratio_trial":300,"L_num":4,"L_den":20,"R_num":2,"R_den":4,"correct_side":2,"subjID":"lauracarebilla35","gender":"1","school":"6","age":"11"},{"start_time":1551800717335,"click_time":1551800721717,"finger_time":1551800718778,"fix_duration":457.5157966120873,"trial":27,"RT":1443,"MT":2939,"sideResp":2,"stimulus":[],"xmouse":[761,761,761,761,761,761,761,761,761,761,761,761,761,761,761,761,761,761,761,761,761,761,761,761,761,761,761,761,761,761,761,761,761,761,761,761,761,761,761,761,761,761,761,761,761,761,761,761,761,761,761,761,761,761,761,761,761,761,761,761,761,761,761,761,761,761,761,761,761,761,800,828,872,897,930,955,967,983,1002,1010,1011,1012,1012,1012,1009,1004,1002,1000,998,1000,1003,1010,1015,1016,1020,1026,1028,1029,1029,1029,1029,1029,1029,1029,1029,1033,1040,1045,1048,1050,1054,1055,1055,1055,1056,1056,1056,1056,1056,1056,1056,1057,1057,1057,1057,1057,1057,1057,1057,1057,1057,1057,1057,1057,1057,1057,1057,1057,1057,1057,1057,1057,1057,1057,1057,1057,1059,1059,1059,1059,1059,1059,1059,1059,1059,1059,1059,1061,1061,1061,1061,1061,1061,1061,1061,1061,1061,1061,1061,1061,1061,1061,1061,1061,1061,1061,1061,1061,1061,1061,1061,1061,1062,1062,1064,1064,1064,1064,1064,1064,1064,1064,1064,1064,1064,1064,1064,1064,1064,1064,1064,1064,1064,1064,1064,1064,1064,1064,1064,1064,1064,1064,1064,1064,1064,1064,1064,1064,1064,1064],"ymouse":[547,547,547,547,547,547,547,547,547,547,547,547,547,547,547,547,547,547,547,547,547,547,547,547,547,547,547,547,547,547,547,547,547,547,547,547,547,547,547,547,547,547,547,547,547,547,547,547,547,547,547,547,547,547,547,547,547,547,547,547,547,547,547,547,547,547,547,547,547,547,497,474,445,427,404,383,373,360,346,335,327,313,301,289,261,239,225,213,199,174,162,148,140,136,129,118,116,115,115,115,115,114,114,114,114,114,110,108,107,105,105,104,104,104,104,104,104,104,104,104,104,104,104,104,104,104,104,104,104,104,104,104,104,104,104,104,104,104,104,104,104,104,104,104,104,104,105,105,105,105,105,105,105,105,105,105,105,105,105,105,105,105,105,105,105,105,105,105,105,105,105,105,105,105,105,105,105,105,105,105,105,105,104,103,100,100,100,100,100,100,100,100,100,100,100,100,100,100,100,100,100,100,100,100,100,100,100,100,100,100,100,100,100,100,100,100,100,100,100,99],"timestamp_mouse":[3,22,41,61,81,101,121,141,161,181,201,221,243,262,283,302,323,343,362,382,402,422,442,462,482,502,522,542,562,582,602,622,642,662,682,702,722,742,762,782,802,822,842,862,882,902,922,942,962,982,1002,1022,1042,1062,1082,1102,1122,1142,1162,1182,1202,1222,1242,1262,1282,1302,1322,1342,1362,1382,1403,1423,1443,1463,1482,1502,1523,1542,1563,1582,1602,1621,1643,1662,1682,1701,1722,1741,1761,1781,1801,1822,1841,1862,1882,1901,1922,1942,1961,1981,2002,2023,2042,2062,2083,2103,2122,2143,2163,2182,2202,2223,2242,2263,2283,2302,2322,2342,2362,2383,2402,2422,2443,2462,2483,2502,2522,2542,2563,2583,2602,2623,2643,2662,2682,2702,2722,2743,2763,2782,2802,2822,2842,2862,2882,2902,2922,2943,2962,2982,3002,3022,3042,3062,3082,3102,3123,3143,3163,3182,3202,3222,3243,3262,3282,3303,3322,3342,3362,3382,3401,3421,3441,3461,3481,3501,3521,3541,3561,3581,3602,3621,3642,3661,3681,3701,3722,3742,3763,3782,3803,3822,3842,3863,3882,3903,3922,3942,3963,3983,4003,4022,4043,4063,4083,4103,4122,4143,4162,4182,4202,4222,4243,4262,4282,4302,4323,4342,4363,4382],"xSR":741.5,"ySR":469.95,"xT1":424.9,"yT1":0,"xT2":1058.1,"yT2":0,"toosoon":0,"cond_shown":"Congruent","ratio_trial":200,"L_num":8,"L_den":15,"R_num":3,"R_den":9,"correct_side":1,"subjID":"lauracarebilla35","gender":"1","school":"6","age":"11"},{"start_time":1551800724840,"click_time":1551800726537,"finger_time":1551800726198,"fix_duration":962.5383484029827,"trial":28,"RT":1358,"MT":339,"sideResp":2,"stimulus":[],"xmouse":[797,797,797,797,797,797,797,797,797,797,797,797,797,797,797,797,797,797,797,797,797,797,797,797,797,797,797,797,797,797,797,797,797,797,797,797,797,797,797,797,797,797,797,797,797,797,797,797,797,797,797,797,797,797,797,797,797,797,797,797,797,797,797,797,797,797,800,833,916,959,975,985,991,999,999,999,999,999,999,999,999,999,999,999,1060],"ymouse":[492,492,492,492,492,492,492,492,492,492,492,492,492,492,492,492,492,492,492,492,492,492,492,492,492,492,492,492,492,492,492,492,492,492,492,492,492,492,492,492,492,492,492,492,492,492,492,492,492,492,492,492,492,492,492,492,492,492,492,492,492,492,492,492,492,492,476,422,291,182,125,91,58,6,6,6,6,6,6,6,6,6,6,6,15],"timestamp_mouse":[18,37,57,77,97,117,137,157,177,197,217,237,257,277,297,317,337,357,377,397,417,437,457,477,497,517,537,557,577,597,617,637,657,677,697,717,737,757,777,797,817,837,857,877,897,917,937,957,976,996,1016,1036,1056,1076,1096,1116,1136,1156,1176,1196,1216,1236,1256,1276,1298,1318,1337,1358,1377,1398,1417,1438,1458,1477,1497,1517,1538,1557,1577,1597,1617,1637,1657,1677,1697],"xSR":741.5,"ySR":469.95,"xT1":424.9,"yT1":0,"xT2":1058.1,"yT2":0,"toosoon":0,"cond_shown":"Incongruent","ratio_trial":100,"L_num":17,"L_den":30,"R_num":10,"R_den":15,"correct_side":2,"subjID":"lauracarebilla35","gender":"1","school":"6","age":"11"},{"start_time":1551800728921,"click_time":1551800730838,"finger_time":1551800730378,"fix_duration":1384.0808317102676,"trial":29,"RT":1457,"MT":460,"sideResp":1,"stimulus":[],"xmouse":[808,808,808,808,808,808,808,808,808,808,808,808,808,808,808,808,808,808,808,808,808,808,808,808,808,808,808,808,808,808,808,808,808,808,808,808,808,808,808,808,808,808,808,808,808,808,808,808,808,808,808,808,808,808,808,808,808,808,808,808,808,808,808,808,808,808,808,808,808,808,806,805,800,790,753,732,715,693,678,643,619,595,579,568,549,537,529,526,525,522,522,522,522,522,521,518],"ymouse":[496,496,496,496,496,496,496,496,496,496,496,496,496,496,496,496,496,496,496,496,496,496,496,496,496,496,496,496,496,496,496,496,496,496,496,496,496,496,496,496,496,496,496,496,496,496,496,496,496,496,496,496,496,496,496,496,496,496,496,496,496,496,496,496,496,496,496,496,496,496,482,470,454,437,393,373,358,342,329,293,269,247,228,213,177,149,136,123,117,112,111,111,111,111,103,86],"timestamp_mouse":[16,36,56,77,96,116,136,156,176,196,216,236,256,276,296,316,336,355,375,395,415,435,455,475,495,515,535,555,575,595,615,635,655,675,695,717,736,756,777,796,817,836,856,876,896,916,936,956,976,996,1016,1036,1056,1076,1096,1116,1136,1156,1176,1196,1216,1236,1256,1276,1296,1316,1336,1356,1376,1396,1417,1437,1457,1477,1497,1517,1537,1556,1576,1595,1615,1636,1657,1677,1696,1717,1736,1756,1776,1795,1816,1837,1856,1876,1895,1917],"xSR":741.5,"ySR":469.95,"xT1":424.9,"yT1":0,"xT2":1058.1,"yT2":0,"toosoon":0,"cond_shown":"Congruent","ratio_trial":300,"L_num":9,"L_den":10,"R_num":3,"R_den":5,"correct_side":1,"subjID":"lauracarebilla35","gender":"1","school":"6","age":"11"},{"start_time":1551800733999,"click_time":1551800736276,"finger_time":1551800735798,"fix_duration":1021.4461503521928,"trial":30,"RT":1799,"MT":478,"sideResp":2,"stimulus":[],"xmouse":[769,769,769,769,769,769,769,769,769,769,769,769,769,769,769,769,769,769,769,769,769,769,769,769,769,769,769,769,769,769,769,769,769,769,769,769,769,769,769,769,769,769,769,769,769,769,769,769,769,769,769,769,769,769,769,769,769,769,769,769,769,769,769,769,769,769,769,769,769,769,769,769,769,769,769,769,769,769,769,769,769,769,769,769,769,769,769,773,784,795,816,837,851,871,900,999,1054,1088,1112,1130,1169,1187,1196,1204,1211,1214,1215,1214,1214,1214,1214,1207,1182,1156],"ymouse":[494,494,494,494,494,494,494,494,494,494,494,494,494,494,494,494,494,494,494,494,494,494,494,494,494,494,494,494,494,494,494,494,494,494,494,494,494,494,494,494,494,494,494,494,494,494,494,494,494,494,494,494,494,494,494,494,494,494,494,494,494,494,494,494,494,494,494,494,494,494,494,494,494,494,494,494,494,494,494,494,494,494,494,494,494,494,493,486,472,458,430,405,390,375,348,277,252,239,225,211,174,148,138,124,108,90,86,84,84,84,84,77,66,59],"timestamp_mouse":[22,38,58,78,98,118,138,158,178,198,218,238,258,278,298,318,338,358,378,398,418,438,458,478,497,517,537,557,577,597,617,637,657,677,697,717,737,757,777,797,819,837,857,879,899,919,939,958,978,998,1018,1038,1058,1078,1098,1118,1138,1158,1178,1198,1218,1238,1258,1278,1298,1318,1338,1358,1378,1398,1418,1438,1458,1478,1498,1518,1538,1558,1578,1598,1618,1639,1658,1678,1698,1718,1738,1759,1778,1799,1818,1839,1859,1878,1898,1918,1938,1959,1978,1999,2018,2039,2058,2078,2098,2117,2139,2159,2178,2198,2217,2237,2258,2277],"xSR":741.5,"ySR":469.95,"xT1":424.9,"yT1":0,"xT2":1058.1,"yT2":0,"toosoon":0,"cond_shown":"Congruent","ratio_trial":100,"L_num":4,"L_den":8,"R_num":6,"R_den":10,"correct_side":2,"subjID":"lauracarebilla35","gender":"1","school":"6","age":"11"},{"start_time":1551800737949,"click_time":1551800740517,"finger_time":1551800739816,"fix_duration":370.81029813652,"trial":31,"RT":1867,"MT":701,"sideResp":1,"stimulus":[],"xmouse":[810,810,810,810,810,810,810,810,810,810,810,810,810,810,810,810,810,810,810,810,810,810,810,810,810,810,810,810,810,810,810,810,810,810,810,810,810,810,810,810,810,810,810,810,810,810,810,810,810,810,810,810,810,810,810,810,810,810,810,810,810,810,810,810,810,810,810,810,810,810,810,810,810,810,810,810,810,810,810,810,810,810,810,810,810,810,810,810,810,810,810,787,750,725,600,575,558,543,534,534,534,534,534,534,534,534,534,534,534,534,535,533,532,532,531,531,531,531,531,531,531,530,530,530,530,529,529,527,524],"ymouse":[524,524,524,524,524,524,524,524,524,524,524,524,524,524,524,524,524,524,524,524,524,524,524,524,524,524,524,524,524,524,524,524,524,525,525,525,525,525,525,525,525,525,525,525,525,525,525,525,525,525,525,525,525,525,525,525,525,525,525,525,525,525,525,525,525,525,525,525,525,525,525,525,525,525,525,525,525,525,525,525,525,525,525,525,525,525,525,525,525,525,525,507,475,434,236,174,143,114,88,84,84,84,84,84,84,84,84,84,84,84,84,83,82,82,81,81,81,81,81,81,81,79,79,79,79,79,79,78,77],"timestamp_mouse":[7,27,47,67,87,107,127,147,167,187,207,227,247,267,287,307,329,349,369,389,409,428,448,468,488,508,528,548,568,588,608,628,648,669,688,708,728,748,768,788,808,828,848,868,888,908,928,948,968,988,1008,1028,1048,1068,1088,1108,1128,1148,1168,1188,1208,1228,1248,1268,1288,1308,1328,1348,1368,1388,1408,1428,1448,1468,1488,1508,1528,1548,1568,1588,1608,1628,1647,1667,1687,1707,1727,1747,1767,1787,1807,1827,1847,1867,1887,1907,1927,1947,1967,1988,2007,2029,2049,2069,2089,2109,2129,2149,2169,2189,2209,2228,2249,2269,2288,2309,2329,2348,2369,2389,2409,2428,2449,2469,2489,2509,2529,2548,2568],"xSR":741.5,"ySR":469.95,"xT1":424.9,"yT1":0,"xT2":1058.1,"yT2":0,"toosoon":0,"cond_shown":"Incongruent","ratio_trial":200,"L_num":4,"L_den":5,"R_num":6,"R_den":10,"correct_side":1,"subjID":"lauracarebilla35","gender":"1","school":"6","age":"11"},{"start_time":1551800743035,"click_time":1551800745017,"finger_time":1551800744657,"fix_duration":817.6723308343999,"trial":32,"RT":1622,"MT":360,"sideResp":1,"stimulus":[],"xmouse":[795,795,795,795,795,795,795,795,795,795,795,795,795,795,795,795,795,795,795,795,795,795,795,795,795,795,795,795,795,795,795,795,795,795,795,795,795,795,795,795,795,795,795,795,795,795,795,795,795,795,795,795,795,795,795,795,795,795,795,795,795,795,795,795,795,795,795,795,795,795,795,795,795,795,795,795,795,795,795,793,775,731,661,594,555,543,531,519,507,500,500,500,500,500,500,500,500,500,500,488],"ymouse":[519,519,519,519,519,519,519,519,519,519,519,519,519,519,519,519,519,519,519,519,519,519,519,519,519,519,519,519,519,519,519,519,519,519,519,519,519,519,519,519,519,519,519,519,519,519,519,519,519,519,519,519,519,519,519,519,519,519,519,519,519,519,519,519,519,519,519,519,519,519,519,519,519,519,519,519,519,519,519,519,506,443,357,274,221,203,185,161,144,125,125,125,125,125,125,125,125,122,105,73],"timestamp_mouse":[4,23,42,62,82,102,122,142,162,182,202,222,242,262,282,303,322,341,361,382,401,421,441,461,481,501,521,541,561,581,601,621,641,661,681,701,723,743,763,783,802,823,843,862,882,902,922,942,962,982,1002,1023,1042,1062,1082,1102,1122,1142,1162,1182,1202,1222,1242,1262,1282,1302,1322,1342,1362,1383,1402,1422,1442,1462,1482,1502,1522,1542,1562,1581,1602,1622,1642,1662,1682,1701,1722,1742,1762,1782,1802,1823,1843,1863,1882,1903,1922,1942,1962,1982],"xSR":741.5,"ySR":469.95,"xT1":424.9,"yT1":0,"xT2":1058.1,"yT2":0,"toosoon":0,"cond_shown":"Incongruent","ratio_trial":200,"L_num":7,"L_den":10,"R_num":12,"R_den":24,"correct_side":1,"subjID":"lauracarebilla35","gender":"1","school":"6","age":"11"},{"start_time":1551800747468,"click_time":1551800749617,"finger_time":1551800748536,"fix_duration":1049.299841617282,"trial":33,"RT":1068,"MT":1081,"sideResp":1,"stimulus":[],"xmouse":[753,753,753,753,753,753,753,753,753,753,753,753,753,753,753,753,753,753,753,753,753,753,753,753,753,753,753,753,753,753,753,753,753,753,753,753,753,753,753,753,753,753,753,753,753,753,753,753,753,753,753,753,753,750,751,753,756,756,756,756,756,756,756,756,756,756,756,756,756,756,756,756,756,756,756,756,756,752,739,719,698,680,659,654,642,631,623,617,616,615,615,615,613,604,591,571,562,559,557,554,546,540,538,538,538,538,532,513],"ymouse":[510,510,510,510,510,510,510,510,510,510,510,510,510,510,510,510,510,510,510,510,510,510,510,510,510,510,510,510,510,510,510,510,510,510,510,510,510,510,510,510,510,510,510,510,510,510,510,510,510,510,510,510,510,443,366,321,315,315,315,315,315,315,315,315,315,315,315,315,315,315,315,315,315,315,314,314,314,314,312,302,288,280,266,262,251,236,223,209,209,205,205,205,200,181,161,142,134,131,130,129,125,120,120,120,120,120,114,23],"timestamp_mouse":[9,32,49,70,89,109,130,148,170,189,208,230,249,269,289,308,328,348,368,388,408,428,448,468,488,508,528,550,569,589,609,628,650,670,689,709,728,749,768,788,808,829,849,870,889,910,928,950,970,990,1010,1030,1049,1068,1089,1108,1130,1149,1170,1189,1208,1230,1250,1269,1289,1309,1329,1349,1370,1390,1409,1429,1448,1469,1490,1509,1530,1549,1568,1589,1609,1629,1649,1669,1689,1709,1730,1749,1768,1789,1809,1829,1849,1868,1890,1908,1930,1949,1968,1989,2008,2028,2048,2068,2088,2108,2128,2149],"xSR":741.5,"ySR":469.95,"xT1":424.9,"yT1":0,"xT2":1058.1,"yT2":0,"toosoon":0,"cond_shown":"Incongruent","ratio_trial":200,"L_num":3,"L_den":10,"R_num":1,"R_den":2,"correct_side":2,"subjID":"lauracarebilla35","gender":"1","school":"6","age":"11"},{"start_time":1551800751210,"click_time":1551800753617,"finger_time":1551800752857,"fix_duration":250,"trial":34,"RT":1647,"MT":760,"sideResp":2,"stimulus":[],"xmouse":[841,841,840,840,839,832,831,831,831,831,830,830,830,830,830,830,830,830,830,830,830,830,830,830,830,830,830,830,830,830,830,830,830,830,830,830,830,830,830,830,830,830,830,830,830,830,830,830,830,830,830,830,830,830,830,830,830,830,830,830,830,830,830,830,830,830,830,830,830,830,830,830,830,830,830,830,830,830,830,830,830,830,861,873,946,1073,1098,1115,1124,1127,1127,1127,1127,1127,1127,1125,1121,1121,1121,1121,1120,1118,1118,1118,1118,1118,1118,1118,1118,1118,1118,1118,1118,1118,1118,1118,1118,1118,1119,1119,1119],"ymouse":[544,544,545,546,547,554,555,555,555,555,556,556,556,556,556,556,556,556,556,556,556,556,556,556,556,556,556,556,556,556,556,556,556,556,556,556,556,556,556,556,556,556,556,556,556,556,556,556,556,556,556,556,556,556,556,556,556,556,556,556,556,556,556,556,556,556,556,556,556,556,556,556,556,556,556,556,556,556,556,556,556,556,525,509,443,336,298,260,230,216,207,207,207,207,207,197,188,186,184,178,165,157,157,157,157,156,152,148,144,140,133,129,127,127,125,117,113,109,103,101,99],"timestamp_mouse":[15,27,48,68,88,106,127,147,167,187,207,228,247,267,287,307,327,347,367,387,407,427,447,467,487,507,527,547,567,587,608,627,647,667,687,707,727,747,767,787,808,828,849,868,887,908,927,949,967,989,1007,1028,1047,1068,1087,1108,1128,1147,1167,1187,1207,1227,1247,1267,1287,1308,1327,1347,1368,1387,1408,1429,1448,1467,1487,1507,1527,1547,1567,1587,1607,1627,1647,1669,1688,1707,1727,1748,1768,1788,1807,1827,1847,1868,1887,1907,1927,1948,1967,1987,2007,2027,2048,2068,2087,2107,2127,2147,2167,2187,2207,2227,2248,2267,2287,2307,2327,2348,2367,2387,2407],"xSR":741.5,"ySR":469.95,"xT1":424.9,"yT1":0,"xT2":1058.1,"yT2":0,"toosoon":0,"cond_shown":"Congruent","ratio_trial":200,"L_num":3,"L_den":10,"R_num":11,"R_den":22,"correct_side":2,"subjID":"lauracarebilla35","gender":"1","school":"6","age":"11"},{"start_time":1551800762730,"click_time":1551800764357,"finger_time":1551800764078,"fix_duration":250,"trial":35,"RT":1348,"MT":279,"sideResp":2,"stimulus":[],"xmouse":[793,793,793,793,793,793,793,793,793,793,793,793,793,793,793,793,793,793,793,793,793,793,793,793,793,793,793,793,793,793,793,793,793,793,793,793,793,793,793,793,793,793,793,793,793,793,793,793,793,793,793,793,793,793,793,793,793,793,793,793,793,793,793,793,793,794,815,823,829,846,859,871,883,895,933,962,994,1012,1025,1055,1081,1103],"ymouse":[482,482,482,482,482,482,482,482,482,482,482,482,482,482,482,482,482,482,482,482,482,482,482,482,482,482,482,482,482,482,482,482,482,482,482,482,482,482,482,482,482,482,482,482,482,482,482,482,482,482,482,482,482,482,482,482,482,482,482,482,482,482,482,482,482,482,471,466,460,439,424,414,397,383,334,295,251,225,207,162,124,95],"timestamp_mouse":[8,34,47,68,87,108,127,148,167,187,208,227,247,267,288,307,327,348,367,388,407,427,448,468,488,507,527,547,567,588,607,627,647,667,687,707,728,747,767,788,807,827,848,867,887,908,927,948,968,988,1007,1027,1047,1069,1087,1107,1127,1147,1168,1188,1208,1228,1247,1267,1287,1307,1328,1348,1367,1387,1407,1428,1447,1468,1487,1508,1527,1547,1567,1587,1607,1627],"xSR":741.5,"ySR":469.95,"xT1":424.9,"yT1":0,"xT2":1058.1,"yT2":0,"toosoon":0,"cond_shown":"Incongruent","ratio_trial":200,"L_num":4,"L_den":30,"R_num":1,"R_den":3,"correct_side":2,"subjID":"lauracarebilla35","gender":"1","school":"6","age":"11"},{"start_time":1551800789191,"click_time":1551800790837,"finger_time":1551800790518,"fix_duration":313.9071857355663,"trial":36,"RT":1327,"MT":319,"sideResp":2,"stimulus":[],"xmouse":[804,804,804,804,804,804,804,804,804,804,804,804,804,804,804,804,804,804,804,804,804,804,804,804,804,804,804,804,804,804,804,804,804,804,804,804,804,804,804,804,804,804,804,804,804,804,804,804,804,804,804,804,804,804,804,804,804,804,804,804,804,804,804,804,804,805,858,894,924,950,966,977,979,980,981,981,982,986,991,1005,1024,1043,1070],"ymouse":[515,515,515,515,515,515,515,515,515,515,515,515,515,515,515,515,515,515,515,515,515,515,515,515,515,515,515,515,515,515,515,515,515,515,515,515,515,515,515,515,515,515,515,515,515,515,515,515,515,515,515,515,515,515,515,515,515,515,515,515,515,515,515,515,510,491,366,300,247,208,185,147,136,129,125,124,118,109,102,95,90,87,87],"timestamp_mouse":[7,27,46,66,86,106,126,146,167,186,206,226,246,266,286,306,327,346,366,386,407,426,446,466,486,506,526,546,566,586,606,626,646,666,686,706,726,746,766,786,807,826,846,866,886,906,926,946,966,986,1006,1027,1046,1066,1086,1106,1126,1146,1166,1186,1206,1226,1246,1267,1286,1307,1327,1346,1367,1386,1407,1426,1447,1466,1487,1507,1526,1546,1566,1586,1606,1627,1646],"xSR":741.5,"ySR":469.95,"xT1":424.9,"yT1":0,"xT2":1058.1,"yT2":0,"toosoon":0,"cond_shown":"Congruent","ratio_trial":100,"L_num":8,"L_den":16,"R_num":2,"R_den":5,"correct_side":1,"subjID":"lauracarebilla35","gender":"1","school":"6","age":"11"},{"start_time":1551800800122,"click_time":1551800801917,"finger_time":1551800801557,"fix_duration":844.687441279604,"trial":37,"RT":1435,"MT":360,"sideResp":2,"stimulus":[],"xmouse":[805,805,805,805,805,805,805,805,805,805,805,805,805,805,805,805,805,805,805,805,805,805,805,805,805,805,805,805,805,805,805,805,805,805,805,805,805,805,805,805,805,805,805,805,805,805,805,805,805,805,805,805,805,805,805,805,805,805,805,805,805,805,805,805,805,805,805,805,805,805,805,831,851,894,932,998,1008,1014,1020,1027,1031,1032,1038,1044,1048,1049,1049,1051,1054,1060],"ymouse":[496,496,496,496,496,496,496,496,496,496,496,496,496,496,496,496,496,496,496,496,496,496,496,496,496,496,496,496,496,496,496,496,496,496,496,496,496,496,496,496,496,496,496,496,496,496,496,496,496,496,496,496,496,496,496,496,496,496,496,496,496,496,496,496,496,496,496,496,496,495,495,443,386,294,213,92,69,54,43,34,31,28,20,13,8,7,7,7,8,11],"timestamp_mouse":[16,36,55,75,96,115,135,155,175,195,215,236,255,275,296,315,335,356,376,396,415,435,456,475,496,515,535,555,575,596,616,635,655,675,696,715,735,755,775,795,816,835,855,876,895,915,935,955,975,996,1015,1035,1056,1076,1096,1115,1135,1155,1176,1196,1216,1236,1255,1275,1295,1315,1336,1355,1375,1396,1415,1435,1455,1475,1495,1516,1535,1555,1575,1595,1616,1635,1655,1675,1695,1715,1735,1757,1776,1795],"xSR":741.5,"ySR":469.95,"xT1":424.9,"yT1":0,"xT2":1058.1,"yT2":0,"toosoon":0,"cond_shown":"Congruent","ratio_trial":100,"L_num":4,"L_den":10,"R_num":15,"R_den":30,"correct_side":2,"subjID":"lauracarebilla35","gender":"1","school":"6","age":"11"},{"start_time":1551800806315,"click_time":1551800808217,"finger_time":1551800807657,"fix_duration":496.077940835003,"trial":38,"RT":1342,"MT":560,"sideResp":1,"stimulus":[],"xmouse":[800,799,799,799,799,799,799,799,799,799,799,799,799,799,799,799,799,799,799,799,799,799,799,799,799,799,799,799,799,799,799,799,799,799,799,799,799,799,799,799,799,799,799,799,799,799,799,799,799,799,799,799,799,799,799,799,799,799,799,799,799,799,799,797,797,796,774,727,624,511,363,324,324,324,324,324,324,324,324,324,324,324,344,353,374,404,414,414,414,415,415,415,419,422,423,425],"ymouse":[520,520,520,520,520,520,520,520,520,520,520,520,520,520,520,520,520,520,520,520,520,520,520,520,520,520,520,520,520,520,520,520,520,520,520,520,520,520,520,520,520,520,520,520,520,520,520,520,520,520,520,520,520,520,520,520,520,520,520,520,520,520,520,518,518,518,497,436,339,239,67,15,15,15,15,15,15,15,15,15,15,15,6,13,29,48,51,51,51,51,52,52,53,54,54,54],"timestamp_mouse":[3,22,43,63,83,102,122,142,162,182,202,222,243,262,282,303,323,342,363,384,403,423,443,462,483,502,522,543,562,583,602,623,642,662,682,704,724,743,763,783,802,822,842,862,882,902,922,942,963,982,1003,1023,1042,1063,1082,1102,1122,1142,1162,1182,1202,1222,1243,1262,1283,1303,1322,1342,1362,1382,1402,1422,1443,1463,1483,1502,1523,1542,1562,1582,1602,1622,1642,1663,1682,1702,1723,1743,1763,1782,1803,1823,1842,1863,1883,1902],"xSR":741.5,"ySR":469.95,"xT1":424.9,"yT1":0,"xT2":1058.1,"yT2":0,"toosoon":0,"cond_shown":"Congruent","ratio_trial":200,"L_num":8,"L_den":15,"R_num":3,"R_den":9,"correct_side":1,"subjID":"lauracarebilla35","gender":"1","school":"6","age":"11"},{"start_time":1551800811366,"click_time":1551800813017,"finger_time":1551800812458,"fix_duration":387.95033565647253,"trial":39,"RT":1092,"MT":559,"sideResp":2,"stimulus":[],"xmouse":[785,785,785,785,785,785,785,785,785,785,785,785,785,785,785,785,785,785,785,785,785,786,786,786,786,786,786,786,786,786,786,786,786,786,786,786,786,786,786,786,786,786,786,786,786,786,786,786,787,788,788,788,789,791,813,841,862,898,904,910,914,916,932,947,959,974,986,995,995,996,998,1000,1006,1009,1011,1012,1013,1015,1020,1029,1042,1055,1074],"ymouse":[509,509,509,509,509,509,509,509,509,509,509,509,509,509,509,509,509,509,509,509,509,509,509,509,509,509,509,509,509,509,509,509,509,509,509,509,509,509,509,509,509,509,509,509,509,509,509,510,511,511,511,511,511,508,446,393,356,327,321,318,314,310,296,279,261,238,218,201,197,194,190,182,143,111,98,92,89,87,79,68,50,34,22],"timestamp_mouse":[12,31,51,71,91,112,132,151,171,191,211,232,251,271,291,312,331,351,371,392,411,431,451,471,491,511,531,551,571,591,611,631,651,672,692,711,731,751,771,791,812,831,851,871,891,911,933,953,973,993,1012,1033,1052,1071,1092,1112,1132,1152,1172,1191,1211,1231,1251,1271,1291,1312,1331,1351,1371,1391,1411,1432,1451,1472,1492,1511,1531,1551,1572,1591,1611,1631,1651],"xSR":741.5,"ySR":469.95,"xT1":424.9,"yT1":0,"xT2":1058.1,"yT2":0,"toosoon":0,"cond_shown":"Congruent","ratio_trial":200,"L_num":6,"L_den":12,"R_num":7,"R_den":10,"correct_side":2,"subjID":"lauracarebilla35","gender":"1","school":"6","age":"11"},{"start_time":1551800815694,"click_time":1551800817617,"finger_time":1551800817018,"fix_duration":835.2657426624082,"trial":40,"RT":1324,"MT":599,"sideResp":1,"stimulus":[],"xmouse":[761,761,761,761,761,761,761,761,761,761,761,761,761,761,761,761,761,761,761,761,761,761,761,761,761,761,761,761,761,761,761,761,761,761,761,761,761,761,761,761,761,761,761,761,761,761,761,761,761,761,761,761,761,761,761,761,761,761,761,761,761,761,761,761,761,760,749,699,634,575,537,516,515,512,510,510,509,514,525,534,542,547,547,547,547,547,545,541,534,523,514,506,506,505,505,501,485],"ymouse":[513,513,513,513,513,513,513,513,513,513,513,513,513,513,513,513,513,513,513,513,513,513,513,513,513,513,513,513,513,513,513,513,513,513,513,513,513,513,513,513,513,513,513,513,513,513,513,513,513,513,513,513,513,513,513,513,513,513,513,513,513,513,513,513,513,511,468,387,330,296,277,267,266,259,252,250,234,207,181,153,133,110,106,106,106,106,105,103,103,107,111,112,112,112,111,102,69],"timestamp_mouse":[3,24,45,64,83,103,124,143,164,183,203,224,245,264,285,304,324,345,365,384,405,424,445,464,485,504,523,543,564,583,603,623,644,664,683,704,725,745,763,783,803,823,843,864,883,903,924,943,963,984,1005,1023,1043,1063,1084,1104,1124,1143,1163,1183,1203,1223,1243,1265,1284,1303,1324,1343,1363,1385,1404,1424,1443,1463,1484,1505,1524,1545,1564,1585,1605,1625,1645,1664,1684,1705,1723,1743,1763,1783,1803,1823,1843,1864,1883,1904,1923],"xSR":741.5,"ySR":469.95,"xT1":424.9,"yT1":0,"xT2":1058.1,"yT2":0,"toosoon":0,"cond_shown":"Congruent","ratio_trial":100,"L_num":7,"L_den":14,"R_num":15,"R_den":25,"correct_side":2,"subjID":"lauracarebilla35","gender":"1","school":"6","age":"11"},{"start_time":1551800819937,"click_time":1551800821417,"finger_time":1551800821318,"fix_duration":356.25599729419434,"trial":41,"RT":1381,"MT":99,"sideResp":1,"stimulus":[],"xmouse":[778,778,778,778,778,778,778,778,778,778,778,778,778,778,778,778,778,778,778,778,778,778,778,778,778,778,778,778,778,778,778,778,778,778,778,778,778,778,778,778,778,778,778,778,778,778,778,778,778,778,778,778,778,778,778,778,778,778,778,778,778,778,778,778,778,778,778,778,767,687,629,572,535,509,478],"ymouse":[512,512,512,512,512,512,512,512,512,512,512,512,512,512,512,512,512,512,512,512,512,512,512,512,512,512,512,512,512,512,512,512,512,512,512,512,512,512,512,512,512,512,512,512,512,512,512,512,512,512,512,512,512,512,512,512,512,512,512,512,512,512,512,512,512,512,512,507,484,333,244,173,127,103,73],"timestamp_mouse":[3,21,40,60,81,100,120,141,160,180,200,220,240,260,280,300,320,340,360,380,401,421,442,461,482,500,521,541,562,580,600,620,640,661,680,700,720,740,761,780,801,822,840,860,880,901,922,940,960,980,1001,1020,1040,1060,1081,1100,1121,1141,1160,1182,1201,1221,1242,1261,1282,1301,1322,1340,1361,1381,1400,1420,1440,1460,1480],"xSR":741.5,"ySR":469.95,"xT1":424.9,"yT1":0,"xT2":1058.1,"yT2":0,"toosoon":0,"cond_shown":"Incongruent","ratio_trial":100,"L_num":12,"L_den":24,"R_num":9,"R_den":15,"correct_side":2,"subjID":"lauracarebilla35","gender":"1","school":"6","age":"11"},{"start_time":1551800837104,"click_time":1551800838779,"finger_time":1551800838378,"fix_duration":1245.8236278066895,"trial":42,"RT":1274,"MT":401,"sideResp":2,"stimulus":[],"xmouse":[779,779,779,779,779,780,780,780,780,780,780,780,780,780,780,780,780,780,780,780,780,780,780,780,780,780,780,780,781,781,781,781,781,781,781,781,781,781,781,781,781,781,781,781,781,781,781,781,781,781,781,781,781,784,785,785,785,785,785,786,786,788,789,796,811,897,916,931,943,952,967,993,1018,1037,1047,1054,1054,1054,1054,1057,1071,1077,1082,1085],"ymouse":[494,494,494,494,495,496,496,496,496,496,496,496,496,496,496,496,496,496,496,496,496,496,496,496,496,496,496,496,496,496,496,496,496,496,496,496,496,496,496,496,496,496,496,496,496,496,496,496,496,496,496,496,496,497,497,497,497,497,497,497,497,498,493,468,452,371,354,337,324,305,280,251,225,213,207,202,202,202,200,186,146,123,109,98],"timestamp_mouse":[20,34,53,73,95,114,134,154,174,194,214,234,254,274,294,314,334,354,373,393,415,434,453,473,493,514,535,554,574,595,615,635,655,674,694,714,735,754,773,794,814,833,854,874,894,915,933,953,973,994,1013,1034,1053,1073,1094,1113,1133,1153,1173,1194,1215,1234,1254,1274,1295,1313,1334,1354,1374,1394,1415,1435,1454,1474,1493,1513,1533,1553,1574,1593,1613,1635,1654,1675],"xSR":741.5,"ySR":469.95,"xT1":424.9,"yT1":0,"xT2":1058.1,"yT2":0,"toosoon":0,"cond_shown":"Congruent","ratio_trial":200,"L_num":3,"L_den":12,"R_num":9,"R_den":20,"correct_side":2,"subjID":"lauracarebilla35","gender":"1","school":"6","age":"11"},{"start_time":1551800852595,"click_time":1551800854278,"finger_time":1551800853938,"fix_duration":976.9852445645585,"trial":43,"RT":1343,"MT":340,"sideResp":2,"stimulus":[],"xmouse":[805,805,805,805,805,805,805,805,805,805,805,805,805,805,805,805,805,805,805,805,805,805,805,805,805,805,805,805,805,805,805,805,805,805,805,805,805,805,805,805,805,805,805,805,805,805,805,805,805,805,805,805,805,805,805,805,805,805,805,805,805,805,805,805,805,805,810,847,894,945,975,994,996,997,1000,1001,1006,1009,1015,1022,1029,1045,1050,1058,1059],"ymouse":[517,517,517,517,517,517,517,517,517,517,517,517,517,517,517,517,517,517,517,517,517,517,517,517,517,517,517,517,517,517,517,517,517,517,517,517,517,517,517,517,517,517,517,517,517,517,517,517,517,517,517,517,517,517,517,517,517,517,517,517,517,517,517,517,517,517,499,406,310,227,181,130,122,117,112,108,101,95,87,81,77,69,68,68,68],"timestamp_mouse":[4,26,44,63,83,103,122,142,163,184,204,223,242,263,282,303,324,343,364,382,404,423,444,462,483,503,523,543,562,582,602,623,644,663,684,703,724,743,763,783,804,824,844,864,884,904,922,942,962,983,1002,1023,1042,1063,1082,1102,1123,1143,1162,1182,1203,1224,1243,1263,1283,1303,1324,1343,1363,1383,1404,1424,1443,1464,1483,1503,1524,1543,1562,1582,1603,1622,1643,1664,1683],"xSR":741.5,"ySR":469.95,"xT1":424.9,"yT1":0,"xT2":1058.1,"yT2":0,"toosoon":0,"cond_shown":"Incongruent","ratio_trial":300,"L_num":13,"L_den":26,"R_num":12,"R_den":15,"correct_side":2,"subjID":"lauracarebilla35","gender":"1","school":"6","age":"11"},{"start_time":1551800858729,"click_time":1551800860678,"finger_time":1551800860117,"fix_duration":250,"trial":44,"RT":1388,"MT":561,"sideResp":1,"stimulus":[],"xmouse":[778,778,778,778,778,778,778,778,778,778,778,778,778,778,778,778,778,778,778,778,778,778,778,778,778,778,778,778,778,778,778,778,778,778,778,778,778,778,778,778,778,778,778,778,778,778,778,778,778,778,778,778,778,778,778,778,778,778,778,778,778,778,778,778,778,778,776,772,759,604,589,562,543,522,489,486,486,486,489,498,503,508,514,518,532,533,534,534,534,534,534,533,531,530,527,526,525,524],"ymouse":[498,498,498,498,498,498,498,498,498,498,498,498,498,498,498,498,498,498,498,498,498,498,498,498,498,498,498,498,498,498,498,498,498,498,498,498,498,498,498,498,498,498,498,498,498,498,498,498,498,498,498,498,498,498,498,498,498,498,498,498,498,498,498,498,498,498,497,495,481,353,338,302,274,247,193,178,165,158,149,137,127,121,112,103,78,74,72,72,72,72,72,72,71,70,69,68,67,67],"timestamp_mouse":[10,29,48,70,88,108,128,148,169,189,208,228,250,269,290,308,329,349,368,388,408,429,449,470,488,508,528,548,569,589,608,628,649,669,689,708,728,748,769,790,809,830,849,869,888,909,928,948,968,989,1008,1029,1048,1068,1089,1109,1130,1150,1168,1188,1209,1228,1248,1269,1288,1308,1329,1348,1369,1388,1409,1428,1448,1469,1489,1509,1529,1548,1568,1589,1609,1629,1648,1668,1688,1709,1728,1749,1769,1789,1808,1829,1850,1870,1890,1909,1928,1949],"xSR":741.5,"ySR":469.95,"xT1":424.9,"yT1":0,"xT2":1058.1,"yT2":0,"toosoon":0,"cond_shown":"Congruent","ratio_trial":100,"L_num":11,"L_den":22,"R_num":4,"R_den":10,"correct_side":1,"subjID":"lauracarebilla35","gender":"1","school":"6","age":"11"},{"start_time":1551800864981,"click_time":1551800867479,"finger_time":1551800866357,"fix_duration":1101.1828808422845,"trial":45,"RT":1376,"MT":1122,"sideResp":2,"stimulus":[],"xmouse":[782,782,782,782,782,782,782,782,782,782,782,782,782,782,782,782,782,782,782,782,782,782,782,782,782,782,782,782,782,782,782,782,782,782,782,782,782,782,782,782,782,782,782,782,782,782,782,782,782,782,782,782,782,782,782,782,782,782,782,782,782,782,782,782,782,782,782,806,856,884,907,946,959,973,977,984,989,992,998,1004,1010,1019,1022,1027,1032,1035,1038,1038,1038,1038,1038,1038,1038,1038,1038,1038,1038,1038,1039,1039,1039,1039,1039,1042,1045,1046,1046,1046,1046,1046,1046,1046,1046,1046,1046,1046,1046,1046,1046,1046,1046,1050,1055,1057,