[{"start_time":1551899902947,"click_time":1551899914463,"finger_time":1551899902963,"fix_duration":1380.2050517948799,"trial":0,"RT":16,"MT":11500,"sideResp":1,"stimulus":[],"xmouse":[771,771,771,771,771,771,771,771,771,771,771,771,771,771,771,771,771,771,771,771,771,771,771,771,771,772,773,775,778,779,780,781,782,782,782,782,782,782,782,782,782,782,786,788,791,794,796,799,801,801,804,806,807,807,808,808,808,811,811,812,812,812,812,812,812,812,812,812,812,812,812,812,812,812,812,812,812,812,811,811,811,811,811,811,811,811,811,811,811,811,811,811,811,811,811,811,811,811,811,811,811,811,811,811,811,811,811,811,811,811,811,811,811,811,811,811,811,811,811,811,811,811,811,811,811,811,811,811,811,811,811,811,811,811,811,811,811,811,811,811,811,811,811,811,811,811,811,811,811,811,811,811,811,811,811,811,811,811,811,811,811,811,811,811,811,811,811,811,811,811,811,811,811,811,811,811,811,811,811,811,811,810,809,809,809,809,809,809,809,809,809,809,809,809,809,809,809,809,809,809,809,809,809,809,809,809,809,809,809,809,809,809,809,809,809,809,809,809,809,809,807,806,796,792,788,784,779,778,778,778,778,778,778,778,778,778,778,775,774,774,773,773,773,773,773,773,773,773,773,773,773,773,773,773,773,773,773,773,773,773,773,773,773,773,773,773,773,773,773,773,773,773,773,773,773,773,773,773,773,773,773,773,773,773,773,773,773,773,773,773,773,773,773,773,773,773,773,773,773,773,773,773,773,773,773,774,775,779,781,783,784,784,784,785,785,785,785,785,785,785,785,785,785,785,785,785,785,785,785,785,785,785,785,785,785,785,785,785,785,785,785,785,785,785,785,785,785,785,785,785,785,785,785,785,785,785,785,785,785,785,785,785,785,785,785,785,785,785,785,785,785,785,785,785,785,785,785,785,785,785,785,785,785,785,785,785,785,785,785,785,785,785,785,785,785,785,785,785,785,785,785,785,785,785,785,785,785,785,785,785,785,785,785,785,785,785,785,785,785,785,785,785,785,785,785,785,785,785,785,785,785,785,785,785,785,786,787,788,788,790,799,803,804,805,805,805,805,805,805,805,805,805,805,805,805,804,804,804,803,802,802,802,802,801,800,798,797,797,797,797,797,796,796,796,796,796,796,796,796,796,796,796,796,795,795,795,795,795,794,794,794,794,794,794,794,794,794,794,792,791,790,790,791,791,791,792,792,792,792,792,792,792,792,792,791,790,790,790,789,789,789,788,788,788,787,786,786,785,782,780,777,769,758,735,728,725,723,720,714,714,710,697,679,628,603,585,571,565,554,551,548,546,545,541,537,533,525,520,517,515,515,515,515,521,524,531,541,552,570,574,574,574,572,561,546,523],"ymouse":[503,503,503,503,503,503,503,503,503,503,503,503,503,503,503,503,503,503,503,503,503,503,503,503,503,502,502,510,516,520,524,528,530,530,530,530,530,532,533,538,544,554,581,588,595,603,608,619,623,625,630,633,635,635,635,635,636,638,639,639,639,639,639,639,639,639,639,639,639,639,639,639,639,639,639,639,639,639,639,639,639,639,639,639,639,639,639,639,639,639,639,639,639,639,639,639,639,639,639,639,639,639,639,639,639,639,639,639,639,639,639,639,639,639,639,639,639,639,639,639,639,639,639,639,639,639,639,639,639,639,639,639,639,639,639,639,639,639,639,639,639,639,639,639,639,639,639,639,639,639,639,639,639,639,639,639,639,639,639,639,639,639,639,639,639,639,639,639,639,639,639,639,639,639,639,639,639,639,639,639,639,639,638,638,638,638,638,638,638,638,638,638,637,637,637,637,637,637,636,636,636,636,636,636,636,636,636,636,636,636,636,636,636,636,636,636,636,636,634,631,628,626,615,613,611,609,607,607,607,607,607,607,607,607,607,607,607,607,607,607,607,607,607,607,607,607,607,607,607,607,607,607,607,607,607,607,607,607,607,607,607,607,607,607,607,607,607,607,607,607,607,607,607,607,607,607,607,607,607,607,607,607,607,607,607,607,607,607,607,607,607,607,607,607,607,607,607,607,607,607,607,607,607,607,607,607,607,609,609,610,611,611,611,611,611,611,611,611,611,611,611,611,611,611,611,611,611,611,611,611,611,611,611,611,611,611,611,611,611,611,611,611,611,611,611,611,611,611,611,611,611,611,611,611,611,611,611,611,611,611,611,611,611,611,611,611,611,611,611,611,611,611,611,611,611,611,611,611,611,611,611,611,611,611,611,611,611,611,611,611,611,611,611,611,611,611,611,611,611,611,611,611,611,611,611,611,611,611,611,611,611,611,611,611,611,611,611,611,611,611,611,611,611,611,611,611,611,611,611,611,611,611,611,611,611,611,610,609,609,609,608,608,607,607,606,604,603,602,602,601,599,598,598,597,596,595,595,595,594,592,592,592,592,592,592,592,592,592,592,592,592,592,590,579,573,565,558,553,543,537,532,529,527,520,515,510,505,500,490,485,480,469,463,455,449,443,434,425,404,394,387,378,374,367,365,362,362,361,360,359,359,357,355,352,350,347,346,345,343,342,342,341,340,339,338,337,335,333,330,326,322,313,297,273,265,262,261,259,255,255,254,252,249,240,235,228,221,216,206,203,197,193,190,179,171,165,154,147,141,137,135,132,129,115,109,98,85,69,38,24,20,19,19,18,16,14],"timestamp_mouse":[16,37,57,75,96,116,136,156,176,196,217,236,255,276,296,316,336,355,375,396,416,436,456,476,496,516,537,556,575,595,615,637,657,676,696,715,736,755,775,796,815,836,855,876,897,916,935,955,975,995,1016,1036,1055,1075,1097,1116,1135,1156,1175,1196,1216,1237,1256,1276,1296,1317,1335,1355,1375,1397,1415,1435,1456,1476,1497,1515,1535,1555,1576,1596,1615,1635,1656,1675,1696,1716,1736,1756,1776,1796,1817,1836,1856,1875,1896,1915,1936,1955,1977,1996,2017,2037,2055,2076,2095,2117,2136,2156,2176,2197,2216,2237,2255,2276,2296,2316,2335,2356,2376,2397,2416,2437,2455,2477,2497,2517,2535,2557,2575,2595,2617,2635,2657,2675,2695,2717,2735,2755,2776,2796,2817,2836,2857,2875,2895,2915,2935,2956,2976,2996,3016,3037,3056,3075,3095,3115,3137,3155,3177,3196,3215,3237,3255,3276,3295,3317,3336,3355,3375,3396,3415,3437,3455,3475,3496,3516,3535,3555,3576,3596,3617,3635,3657,3675,3697,3715,3736,3756,3775,3796,3816,3836,3856,3877,3897,3916,3936,3955,3976,3996,4015,4035,4056,4075,4097,4115,4136,4157,4175,4195,4217,4237,4256,4276,4297,4315,4336,4357,4375,4396,4415,4437,4457,4477,4496,4516,4537,4557,4576,4596,4617,4636,4655,4675,4695,4715,4736,4755,4776,4795,4816,4836,4857,4876,4895,4915,4936,4956,4976,4996,5015,5036,5056,5076,5095,5115,5135,5156,5175,5195,5215,5236,5256,5277,5295,5315,5336,5356,5375,5395,5415,5436,5456,5477,5495,5517,5537,5556,5575,5596,5616,5637,5655,5676,5696,5716,5735,5756,5775,5795,5815,5836,5855,5876,5895,5915,5936,5956,5975,5996,6016,6036,6055,6077,6095,6116,6136,6157,6175,6196,6217,6236,6255,6277,6296,6315,6337,6357,6375,6395,6415,6437,6455,6476,6495,6516,6537,6555,6575,6596,6616,6635,6655,6676,6696,6715,6735,6756,6776,6795,6816,6835,6856,6877,6895,6915,6935,6956,6977,6995,7016,7037,7055,7077,7095,7116,7136,7155,7176,7196,7215,7236,7255,7276,7296,7315,7337,7356,7375,7396,7416,7435,7457,7476,7496,7516,7537,7555,7575,7595,7617,7636,7655,7676,7696,7716,7735,7756,7775,7795,7817,7836,7857,7876,7895,7916,7935,7957,7976,7995,8015,8037,8057,8075,8095,8115,8135,8155,8176,8196,8215,8236,8257,8275,8295,8315,8335,8357,8375,8395,8415,8437,8456,8476,8495,8515,8537,8557,8576,8597,8616,8636,8656,8676,8695,8716,8736,8757,8776,8795,8816,8835,8856,8877,8895,8916,8936,8956,8975,8997,9015,9037,9057,9075,9095,9116,9135,9155,9175,9196,9215,9237,9256,9275,9295,9315,9335,9357,9377,9397,9415,9435,9456,9475,9495,9515,9536,9555,9575,9597,9616,9637,9655,9676,9696,9716,9736,9755,9776,9796,9815,9836,9855,9876,9895,9915,9937,9957,9975,9996,10016,10035,10056,10077,10095,10116,10135,10156,10176,10195,10216,10237,10255,10275,10295,10315,10335,10355,10375,10396,10416,10435,10455,10477,10497,10516,10536,10556,10575,10595,10616,10636,10656,10676,10695,10715,10735,10756,10775,10797,10815,10836,10857,10875,10895,10916,10935,10956,10975,10996,11016,11037,11056,11075,11095,11116,11137,11157,11175,11196,11216,11237,11256,11276,11295,11315,11336,11355,11375,11396,11417,11437,11456,11476,11495,11515],"xSR":741.5,"ySR":469.95,"xT1":424.9,"yT1":0,"xT2":1058.1,"yT2":0,"toosoon":0,"cond_shown":"Congruent","ratio_trial":300,"L_num":11,"L_den":22,"R_num":4,"R_den":20,"correct_side":1,"subjID":"LauraValentinaCoteSanchez","gender":"1","age":"11","school":"6","test":{"fix_dur":[250,1500],"timestim":1000,"targets_dim":[100,100],"targets_relative_coord":[0.3,0.7],"size_stim":[880,420],"start_dim":[100,100],"size_start":[300,300],"size_fix":60,"samplingrate":20,"img_types":["Congruent","Incongruent"],"ratios":[100,200,300],"rep_conds":19,"nTrials":120,"trials_to_rest":500,"Trials_order":[52,98,95,3,11,16,79,48,106,43,92,91,35,45,18,39,107,119,111,87,49,32,65,89,76,115,44,81,38,31,33,25,4,83,113,99,96,34,21,58,103,75,19,56,57,71,14,118,50,94,20,40,100,26,70,6,74,116,109,93,53,110,59,10,90,97,23,55,13,72,0,15,12,2,7,114,61,102,5,37,28,47,24,17,27,36,112,78,54,60,108,8,101,77,67,84,82,66,117,63,29,104,42,30,68,73,64,41,22,46,69,62,86,105,85,88,80,9,1,51],"cond_shown":["Congruent","Congruent","Incongruent","Incongruent","Incongruent","Congruent","Incongruent","Congruent","Congruent","Incongruent","Congruent","Incongruent","Incongruent","Incongruent","Congruent","Incongruent","Incongruent","Incongruent","Incongruent","Incongruent","Incongruent","Congruent","Incongruent","Incongruent","Congruent","Incongruent","Congruent","Incongruent","Congruent","Incongruent","Incongruent","Incongruent","Congruent","Incongruent","Incongruent","Incongruent","Congruent","Congruent","Incongruent","Congruent","Incongruent","Incongruent","Incongruent","Congruent","Incongruent","Incongruent","Congruent","Congruent","Congruent","Congruent","Congruent","Congruent","Congruent","Congruent","Congruent","Congruent","Congruent","Congruent","Incongruent","Incongruent","Incongruent","Congruent","Incongruent","Congruent","Congruent","Incongruent","Incongruent","Incongruent","Incongruent","Congruent","Congruent","Incongruent","Congruent","Congruent","Incongruent","Congruent","Incongruent","Congruent","Incongruent","Incongruent","Congruent","Incongruent","Congruent","Incongruent","Incongruent","Congruent","Congruent","Congruent","Congruent","Congruent","Congruent","Congruent","Incongruent","Incongruent","Incongruent","Congruent","Congruent","Congruent","Incongruent","Incongruent","Incongruent","Congruent","Congruent","Congruent","Congruent","Incongruent","Congruent","Incongruent","Congruent","Congruent","Incongruent","Congruent","Congruent","Incongruent","Incongruent","Congruent","Congruent","Incongruent","Incongruent","Incongruent"],"ratio_trial":[300,200,300,200,300,300,100,100,300,100,200,100,300,200,100,200,300,300,200,200,100,200,300,300,300,100,200,200,200,100,200,100,300,300,300,200,100,300,200,300,100,200,100,200,200,300,200,300,200,300,200,300,300,200,300,100,200,200,100,200,300,200,300,300,100,100,300,100,100,100,100,200,100,200,100,100,100,100,300,100,300,300,100,300,200,100,300,100,100,100,100,200,300,300,100,100,300,100,200,200,300,200,100,100,200,100,300,300,300,300,200,200,200,200,100,300,200,200,100,200],"left_num":[11,4,13,4,13,20,9,15,4,17,21,13,1,4,7,3,4,13,7,4,9,3,13,4,2,9,3,1,8,10,7,8,1,13,7,4,15,3,7,4,8,14,11,3,7,4,8,3,7,4,20,2,20,3,5,3,9,13,10,14,2,12,7,20,8,10,7,3,9,6,4,7,15,6,12,10,10,10,1,11,12,7,6,4,14,4,1,1,3,8,11,12,4,4,17,9,3,8,4,7,4,7,11,8,4,9,20,3,3,24,7,7,8,4,6,11,3,4,1,4],"right_num":[4,3,12,14,12,14,13,13,2,10,2,6,3,14,15,1,8,12,14,1,20,7,12,8,12,6,9,3,3,8,4,6,19,12,8,6,13,4,12,1,1,12,9,14,12,6,3,11,2,2,9,10,9,14,6,4,13,14,9,12,6,6,8,14,2,8,8,8,13,5,15,6,13,3,2,3,9,3,3,9,2,8,5,2,12,15,7,3,2,2,6,6,6,2,10,8,11,2,6,12,2,18,6,2,3,13,8,4,4,8,6,2,2,6,11,2,7,14,8,6],"left_den":[22,10,26,6,26,25,15,25,5,30,30,26,2,6,14,10,5,26,10,30,10,10,26,5,10,18,12,2,15,25,15,16,3,26,10,5,25,6,10,10,20,30,22,10,10,5,15,12,21,5,25,20,25,6,25,20,30,26,25,30,4,15,10,25,16,25,10,5,15,20,10,15,25,15,30,25,25,25,2,22,24,10,20,20,30,10,20,2,6,16,22,20,5,20,30,15,12,16,5,10,20,15,22,16,8,15,25,6,6,30,15,21,15,5,10,22,10,6,2,5],"right_den":[20,15,15,30,15,28,26,26,4,15,4,10,15,30,25,2,16,15,28,3,25,14,15,16,24,10,20,10,9,16,6,10,30,15,20,10,26,5,24,10,2,18,15,28,24,12,9,20,15,4,15,25,18,20,12,16,26,20,18,18,30,10,20,28,5,16,20,16,26,25,30,9,26,15,4,10,18,10,15,15,10,20,25,4,18,30,20,5,5,5,15,15,12,4,15,16,20,5,10,24,4,27,15,5,10,26,16,20,5,16,9,15,6,10,22,10,14,30,20,10],"correct_side":[1,1,2,1,2,1,1,1,1,2,1,2,1,1,2,2,1,2,1,2,1,2,2,1,2,2,2,1,1,2,2,2,2,2,1,1,1,2,1,1,2,2,2,2,1,1,1,2,1,1,1,2,1,2,2,2,2,2,2,2,1,1,1,1,1,2,1,1,1,1,2,2,1,1,2,1,2,1,1,2,1,1,1,2,2,2,2,2,1,1,1,1,1,2,2,1,2,1,1,1,2,2,1,1,1,1,1,1,2,1,2,1,1,1,1,1,2,1,1,1],"img_shown":["img2/300/Congruent/L/C_Dist_300_LN_11_LD_22_RN_4_RD_20_0.png","img2/200/Congruent/L/C_Dist_200_LN_4_LD_10_RN_3_RD_15_0.png","img2/300/Incongruent/R/I_Dist_300_LN_13_LD_26_RN_12_RD_15_1.png","img2/200/Incongruent/L/I_Dist_200_LN_4_LD_6_RN_14_RD_30_0.png","img2/300/Incongruent/R/I_Dist_300_LN_13_LD_26_RN_12_RD_15_1.png","img2/300/Congruent/L/C_Dist_300_LN_20_LD_25_RN_14_RD_28_0.png","img2/100/Incongruent/L/I_Dist_100_LN_9_LD_15_RN_13_RD_26_0.png","img2/100/Congruent/L/C_Dist_100_LN_15_LD_25_RN_13_RD_26_0.png","img2/300/Congruent/L/C_Dist_300_LN_4_LD_5_RN_2_RD_4_0.png","img2/100/Incongruent/R/I_Dist_100_LN_17_LD_30_RN_10_RD_15_1.png","img2/200/Congruent/L/C_Dist_200_LN_21_LD_30_RN_2_RD_4_0.png","img2/100/Incongruent/R/I_Dist_100_LN_13_LD_26_RN_6_RD_10_1.png","img2/300/Incongruent/L/I_Dist_300_LN_1_LD_2_RN_3_RD_15_0.png","img2/200/Incongruent/L/I_Dist_200_LN_4_LD_6_RN_14_RD_30_0.png","img2/100/Congruent/R/C_Dist_100_LN_7_LD_14_RN_15_RD_25_1.png","img2/200/Incongruent/R/I_Dist_200_LN_3_LD_10_RN_1_RD_2_1.png","img2/300/Incongruent/L/I_Dist_300_LN_4_LD_5_RN_8_RD_16_0.png","img2/300/Incongruent/R/I_Dist_300_LN_13_LD_26_RN_12_RD_15_1.png","img2/200/Incongruent/L/I_Dist_200_LN_7_LD_10_RN_14_RD_28_0.png","img2/200/Incongruent/R/I_Dist_200_LN_4_LD_30_RN_1_RD_3_1.png","img2/100/Incongruent/L/I_Dist_100_LN_9_LD_10_RN_20_RD_25_0.png","img2/200/Congruent/R/C_Dist_200_LN_3_LD_10_RN_7_RD_14_1.png","img2/300/Incongruent/R/I_Dist_300_LN_13_LD_26_RN_12_RD_15_1.png","img2/300/Incongruent/L/I_Dist_300_LN_4_LD_5_RN_8_RD_16_0.png","img2/300/Congruent/R/C_Dist_300_LN_2_LD_10_RN_12_RD_24_1.png","img2/100/Incongruent/R/I_Dist_100_LN_9_LD_18_RN_6_RD_10_1.png","img2/200/Congruent/R/C_Dist_200_LN_3_LD_12_RN_9_RD_20_1.png","img2/200/Incongruent/L/I_Dist_200_LN_1_LD_2_RN_3_RD_10_0.png","img2/200/Congruent/L/C_Dist_200_LN_8_LD_15_RN_3_RD_9_0.png","img2/100/Incongruent/R/I_Dist_100_LN_10_LD_25_RN_8_RD_16_1.png","img2/200/Incongruent/R/I_Dist_200_LN_7_LD_15_RN_4_RD_6_1.png","img2/100/Incongruent/R/I_Dist_100_LN_8_LD_16_RN_6_RD_10_1.png","img2/300/Congruent/R/C_Dist_300_LN_1_LD_3_RN_19_RD_30_1.png","img2/300/Incongruent/R/I_Dist_300_LN_13_LD_26_RN_12_RD_15_1.png","img2/300/Incongruent/L/I_Dist_300_LN_7_LD_10_RN_8_RD_20_0.png","img2/200/Incongruent/L/I_Dist_200_LN_4_LD_5_RN_6_RD_10_0.png","img2/100/Congruent/L/C_Dist_100_LN_15_LD_25_RN_13_RD_26_0.png","img2/300/Congruent/R/C_Dist_300_LN_3_LD_6_RN_4_RD_5_1.png","img2/200/Incongruent/L/I_Dist_200_LN_7_LD_10_RN_12_RD_24_0.png","img2/300/Congruent/L/C_Dist_300_LN_4_LD_10_RN_1_RD_10_0.png","img2/100/Incongruent/R/I_Dist_100_LN_8_LD_20_RN_1_RD_2_1.png","img2/200/Incongruent/R/I_Dist_200_LN_14_LD_30_RN_12_RD_18_1.png","img2/100/Incongruent/R/I_Dist_100_LN_11_LD_22_RN_9_RD_15_1.png","img2/200/Congruent/R/C_Dist_200_LN_3_LD_10_RN_14_RD_28_1.png","img2/200/Incongruent/L/I_Dist_200_LN_7_LD_10_RN_12_RD_24_0.png","img2/300/Incongruent/L/I_Dist_300_LN_4_LD_5_RN_6_RD_12_0.png","img2/200/Congruent/L/C_Dist_200_LN_8_LD_15_RN_3_RD_9_0.png","img2/300/Congruent/R/C_Dist_300_LN_3_LD_12_RN_11_RD_20_1.png","img2/200/Congruent/L/C_Dist_200_LN_7_LD_21_RN_2_RD_15_0.png","img2/300/Congruent/L/C_Dist_300_LN_4_LD_5_RN_2_RD_4_0.png","img2/200/Congruent/L/C_Dist_200_LN_20_LD_25_RN_9_RD_15_0.png","img2/300/Congruent/R/C_Dist_300_LN_2_LD_20_RN_10_RD_25_1.png","img2/300/Congruent/L/C_Dist_300_LN_20_LD_25_RN_9_RD_18_0.png","img2/200/Congruent/R/C_Dist_200_LN_3_LD_6_RN_14_RD_20_1.png","img2/300/Congruent/R/C_Dist_300_LN_5_LD_25_RN_6_RD_12_1.png","img2/100/Congruent/R/C_Dist_100_LN_3_LD_20_RN_4_RD_16_1.png","img2/200/Congruent/R/C_Dist_200_LN_9_LD_30_RN_13_RD_26_1.png","img2/200/Congruent/R/C_Dist_200_LN_13_LD_26_RN_14_RD_20_1.png","img2/100/Incongruent/R/I_Dist_100_LN_10_LD_25_RN_9_RD_18_1.png","img2/200/Incongruent/R/I_Dist_200_LN_14_LD_30_RN_12_RD_18_1.png","img2/300/Incongruent/L/I_Dist_300_LN_2_LD_4_RN_6_RD_30_0.png","img2/200/Congruent/L/C_Dist_200_LN_12_LD_15_RN_6_RD_10_0.png","img2/300/Incongruent/L/I_Dist_300_LN_7_LD_10_RN_8_RD_20_0.png","img2/300/Congruent/L/C_Dist_300_LN_20_LD_25_RN_14_RD_28_0.png","img2/100/Congruent/L/C_Dist_100_LN_8_LD_16_RN_2_RD_5_0.png","img2/100/Incongruent/R/I_Dist_100_LN_10_LD_25_RN_8_RD_16_1.png","img2/300/Incongruent/L/I_Dist_300_LN_7_LD_10_RN_8_RD_20_0.png","img2/100/Incongruent/L/I_Dist_100_LN_3_LD_5_RN_8_RD_16_0.png","img2/100/Incongruent/L/I_Dist_100_LN_9_LD_15_RN_13_RD_26_0.png","img2/100/Congruent/L/C_Dist_100_LN_6_LD_20_RN_5_RD_25_0.png","img2/100/Congruent/R/C_Dist_100_LN_4_LD_10_RN_15_RD_30_1.png","img2/200/Incongruent/R/I_Dist_200_LN_7_LD_15_RN_6_RD_9_1.png","img2/100/Congruent/L/C_Dist_100_LN_15_LD_25_RN_13_RD_26_0.png","img2/200/Congruent/L/C_Dist_200_LN_6_LD_15_RN_3_RD_15_0.png","img2/100/Incongruent/R/I_Dist_100_LN_12_LD_30_RN_2_RD_4_1.png","img2/100/Congruent/L/C_Dist_100_LN_10_LD_25_RN_3_RD_10_0.png","img2/100/Incongruent/R/I_Dist_100_LN_10_LD_25_RN_9_RD_18_1.png","img2/100/Congruent/L/C_Dist_100_LN_10_LD_25_RN_3_RD_10_0.png","img2/300/Incongruent/L/I_Dist_300_LN_1_LD_2_RN_3_RD_15_0.png","img2/100/Incongruent/R/I_Dist_100_LN_11_LD_22_RN_9_RD_15_1.png","img2/300/Congruent/L/C_Dist_300_LN_12_LD_24_RN_2_RD_10_0.png","img2/300/Incongruent/L/I_Dist_300_LN_7_LD_10_RN_8_RD_20_0.png","img2/100/Congruent/L/C_Dist_100_LN_6_LD_20_RN_5_RD_25_0.png","img2/300/Incongruent/R/I_Dist_300_LN_4_LD_20_RN_2_RD_4_1.png","img2/200/Incongruent/R/I_Dist_200_LN_14_LD_30_RN_12_RD_18_1.png","img2/100/Congruent/R/C_Dist_100_LN_4_LD_10_RN_15_RD_30_1.png","img2/300/Congruent/R/C_Dist_300_LN_1_LD_20_RN_7_RD_20_1.png","img2/100/Congruent/R/C_Dist_100_LN_1_LD_2_RN_3_RD_5_1.png","img2/100/Congruent/L/C_Dist_100_LN_3_LD_6_RN_2_RD_5_0.png","img2/100/Congruent/L/C_Dist_100_LN_8_LD_16_RN_2_RD_5_0.png","img2/100/Congruent/L/C_Dist_100_LN_11_LD_22_RN_6_RD_15_0.png","img2/200/Congruent/L/C_Dist_200_LN_12_LD_20_RN_6_RD_15_0.png","img2/300/Incongruent/L/I_Dist_300_LN_4_LD_5_RN_6_RD_12_0.png","img2/300/Incongruent/R/I_Dist_300_LN_4_LD_20_RN_2_RD_4_1.png","img2/100/Incongruent/R/I_Dist_100_LN_17_LD_30_RN_10_RD_15_1.png","img2/100/Congruent/L/C_Dist_100_LN_9_LD_15_RN_8_RD_16_0.png","img2/300/Congruent/R/C_Dist_300_LN_3_LD_12_RN_11_RD_20_1.png","img2/100/Congruent/L/C_Dist_100_LN_8_LD_16_RN_2_RD_5_0.png","img2/200/Incongruent/L/I_Dist_200_LN_4_LD_5_RN_6_RD_10_0.png","img2/200/Incongruent/L/I_Dist_200_LN_7_LD_10_RN_12_RD_24_0.png","img2/300/Incongruent/R/I_Dist_300_LN_4_LD_20_RN_2_RD_4_1.png","img2/200/Congruent/R/C_Dist_200_LN_7_LD_15_RN_18_RD_27_1.png","img2/100/Congruent/L/C_Dist_100_LN_11_LD_22_RN_6_RD_15_0.png","img2/100/Congruent/L/C_Dist_100_LN_8_LD_16_RN_2_RD_5_0.png","img2/200/Congruent/L/C_Dist_200_LN_4_LD_8_RN_3_RD_10_0.png","img2/100/Incongruent/L/I_Dist_100_LN_9_LD_15_RN_13_RD_26_0.png","img2/300/Congruent/L/C_Dist_300_LN_20_LD_25_RN_8_RD_16_0.png","img2/300/Incongruent/L/I_Dist_300_LN_3_LD_6_RN_4_RD_20_0.png","img2/300/Congruent/R/C_Dist_300_LN_3_LD_6_RN_4_RD_5_1.png","img2/300/Congruent/L/C_Dist_300_LN_24_LD_30_RN_8_RD_16_0.png","img2/200/Incongruent/R/I_Dist_200_LN_7_LD_15_RN_6_RD_9_1.png","img2/200/Congruent/L/C_Dist_200_LN_7_LD_21_RN_2_RD_15_0.png","img2/200/Congruent/L/C_Dist_200_LN_8_LD_15_RN_2_RD_6_0.png","img2/200/Incongruent/L/I_Dist_200_LN_4_LD_5_RN_6_RD_10_0.png","img2/100/Incongruent/L/I_Dist_100_LN_6_LD_10_RN_11_RD_22_0.png","img2/300/Congruent/L/C_Dist_300_LN_11_LD_22_RN_2_RD_10_0.png","img2/200/Congruent/R/C_Dist_200_LN_3_LD_10_RN_7_RD_14_1.png","img2/200/Incongruent/L/I_Dist_200_LN_4_LD_6_RN_14_RD_30_0.png","img2/100/Incongruent/L/I_Dist_100_LN_1_LD_2_RN_8_RD_20_0.png","img2/200/Incongruent/L/I_Dist_200_LN_4_LD_5_RN_6_RD_10_0.png"],"dist100_C":[["C_Dist_100_LN_10_LD_25_RN_3_RD_10_0.png","C_Dist_100_LN_11_LD_22_RN_4_RD_10_0.png","C_Dist_100_LN_11_LD_22_RN_6_RD_15_0.png","C_Dist_100_LN_15_LD_25_RN_13_RD_26_0.png","C_Dist_100_LN_3_LD_6_RN_2_RD_5_0.png","C_Dist_100_LN_6_LD_20_RN_5_RD_25_0.png","C_Dist_100_LN_8_LD_16_RN_2_RD_5_0.png","C_Dist_100_LN_9_LD_15_RN_8_RD_16_0.png"],["C_Dist_100_LN_1_LD_2_RN_18_RD_30_1.png","C_Dist_100_LN_1_LD_2_RN_3_RD_5_1.png","C_Dist_100_LN_12_LD_30_RN_13_RD_26_1.png","C_Dist_100_LN_2_LD_5_RN_11_RD_22_1.png","C_Dist_100_LN_2_LD_5_RN_6_RD_12_1.png","C_Dist_100_LN_3_LD_20_RN_4_RD_16_1.png","C_Dist_100_LN_4_LD_10_RN_15_RD_30_1.png","C_Dist_100_LN_4_LD_8_RN_6_RD_10_1.png","C_Dist_100_LN_6_LD_12_RN_15_RD_25_1.png","C_Dist_100_LN_7_LD_14_RN_15_RD_25_1.png","C_Dist_100_LN_7_LD_14_RN_9_RD_15_1.png"]],"dist100_I":[["I_Dist_100_LN_1_LD_2_RN_8_RD_20_0.png","I_Dist_100_LN_2_LD_4_RN_6_RD_15_0.png","I_Dist_100_LN_2_LD_4_RN_8_RD_20_0.png","I_Dist_100_LN_3_LD_5_RN_11_RD_22_0.png","I_Dist_100_LN_3_LD_5_RN_8_RD_16_0.png","I_Dist_100_LN_3_LD_6_RN_4_RD_10_0.png","I_Dist_100_LN_3_LD_9_RN_7_RD_30_0.png","I_Dist_100_LN_4_LD_8_RN_8_RD_20_0.png","I_Dist_100_LN_6_LD_10_RN_11_RD_22_0.png","I_Dist_100_LN_6_LD_10_RN_13_RD_26_0.png","I_Dist_100_LN_6_LD_10_RN_7_RD_14_0.png","I_Dist_100_LN_9_LD_10_RN_20_RD_25_0.png","I_Dist_100_LN_9_LD_15_RN_13_RD_26_0.png","I_Dist_100_LN_9_LD_15_RN_14_RD_28_0.png"],["I_Dist_100_LN_10_LD_25_RN_8_RD_16_1.png","I_Dist_100_LN_10_LD_25_RN_9_RD_18_1.png","I_Dist_100_LN_11_LD_22_RN_9_RD_15_1.png","I_Dist_100_LN_12_LD_24_RN_9_RD_15_1.png","I_Dist_100_LN_12_LD_30_RN_2_RD_4_1.png","I_Dist_100_LN_13_LD_26_RN_12_RD_20_1.png","I_Dist_100_LN_13_LD_26_RN_6_RD_10_1.png","I_Dist_100_LN_17_LD_30_RN_10_RD_15_1.png","I_Dist_100_LN_6_LD_12_RN_3_RD_5_1.png","I_Dist_100_LN_8_LD_16_RN_6_RD_10_1.png","I_Dist_100_LN_8_LD_20_RN_1_RD_2_1.png","I_Dist_100_LN_9_LD_18_RN_6_RD_10_1.png"]],"dist100_S":[["E_Dist_100_LN_2_LD_12_RN_2_RD_30_0.png","E_Dist_100_LN_6_LD_10_RN_6_RD_12_0.png"],["E_Dist_100_LN_6_LD_12_RN_6_RD_10_1.png"]],"dist200_C":[["C_Dist_200_LN_11_LD_22_RN_3_RD_10_0.png","C_Dist_200_LN_12_LD_15_RN_6_RD_10_0.png","C_Dist_200_LN_12_LD_20_RN_6_RD_15_0.png","C_Dist_200_LN_14_LD_28_RN_6_RD_20_0.png","C_Dist_200_LN_15_LD_25_RN_4_RD_10_0.png","C_Dist_200_LN_16_LD_20_RN_12_RD_20_0.png","C_Dist_200_LN_16_LD_30_RN_9_RD_27_0.png","C_Dist_200_LN_20_LD_25_RN_9_RD_15_0.png","C_Dist_200_LN_21_LD_30_RN_2_RD_4_0.png","C_Dist_200_LN_4_LD_10_RN_3_RD_15_0.png","C_Dist_200_LN_4_LD_8_RN_3_RD_10_0.png","C_Dist_200_LN_6_LD_15_RN_3_RD_15_0.png","C_Dist_200_LN_7_LD_21_RN_2_RD_15_0.png","C_Dist_200_LN_8_LD_15_RN_2_RD_6_0.png","C_Dist_200_LN_8_LD_15_RN_3_RD_9_0.png","C_Dist_200_LN_8_LD_15_RN_7_RD_21_0.png","C_Dist_200_LN_9_LD_20_RN_4_RD_16_0.png"],["C_Dist_200_LN_1_LD_2_RN_21_RD_30_1.png","C_Dist_200_LN_13_LD_26_RN_14_RD_20_1.png","C_Dist_200_LN_3_LD_10_RN_11_RD_22_1.png","C_Dist_200_LN_3_LD_10_RN_14_RD_28_1.png","C_Dist_200_LN_3_LD_10_RN_7_RD_14_1.png","C_Dist_200_LN_3_LD_12_RN_9_RD_20_1.png","C_Dist_200_LN_3_LD_6_RN_14_RD_20_1.png","C_Dist_200_LN_5_LD_10_RN_14_RD_20_1.png","C_Dist_200_LN_6_LD_12_RN_7_RD_10_1.png","C_Dist_200_LN_6_LD_20_RN_11_RD_22_1.png","C_Dist_200_LN_7_LD_15_RN_18_RD_27_1.png","C_Dist_200_LN_9_LD_30_RN_13_RD_26_1.png"]],"dist200_I":[["I_Dist_200_LN_1_LD_2_RN_3_RD_10_0.png","I_Dist_200_LN_1_LD_3_RN_2_RD_15_0.png","I_Dist_200_LN_3_LD_4_RN_11_RD_20_0.png","I_Dist_200_LN_4_LD_5_RN_6_RD_10_0.png","I_Dist_200_LN_4_LD_6_RN_14_RD_30_0.png","I_Dist_200_LN_7_LD_10_RN_12_RD_24_0.png","I_Dist_200_LN_7_LD_10_RN_14_RD_28_0.png","I_Dist_200_LN_7_LD_10_RN_8_RD_16_0.png"],["I_Dist_200_LN_11_LD_20_RN_3_RD_4_1.png","I_Dist_200_LN_14_LD_30_RN_12_RD_18_1.png","I_Dist_200_LN_14_LD_30_RN_6_RD_9_1.png","I_Dist_200_LN_3_LD_10_RN_1_RD_2_1.png","I_Dist_200_LN_4_LD_30_RN_1_RD_3_1.png","I_Dist_200_LN_6_LD_20_RN_3_RD_6_1.png","I_Dist_200_LN_7_LD_15_RN_4_RD_6_1.png","I_Dist_200_LN_7_LD_15_RN_6_RD_9_1.png","I_Dist_200_LN_9_LD_15_RN_8_RD_10_1.png"]],"dist200_S":[["E_Dist_200_LN_3_LD_6_RN_3_RD_10_0.png"],["E_Dist_200_LN_3_LD_10_RN_3_RD_6_1.png"]],"dist300_C":[["C_Dist_300_LN_11_LD_22_RN_1_RD_5_0.png","C_Dist_300_LN_11_LD_22_RN_2_RD_10_0.png","C_Dist_300_LN_11_LD_22_RN_4_RD_20_0.png","C_Dist_300_LN_12_LD_24_RN_2_RD_10_0.png","C_Dist_300_LN_18_LD_20_RN_9_RD_15_0.png","C_Dist_300_LN_20_LD_25_RN_13_RD_26_0.png","C_Dist_300_LN_20_LD_25_RN_14_RD_28_0.png","C_Dist_300_LN_20_LD_25_RN_5_RD_10_0.png","C_Dist_300_LN_20_LD_25_RN_8_RD_16_0.png","C_Dist_300_LN_20_LD_25_RN_9_RD_18_0.png","C_Dist_300_LN_24_LD_30_RN_2_RD_4_0.png","C_Dist_300_LN_24_LD_30_RN_8_RD_16_0.png","C_Dist_300_LN_3_LD_6_RN_2_RD_10_0.png","C_Dist_300_LN_4_LD_10_RN_1_RD_10_0.png","C_Dist_300_LN_4_LD_5_RN_2_RD_4_0.png","C_Dist_300_LN_8_LD_16_RN_1_RD_5_0.png","C_Dist_300_LN_9_LD_10_RN_3_RD_5_0.png"],["C_Dist_300_LN_1_LD_20_RN_7_RD_20_1.png","C_Dist_300_LN_1_LD_3_RN_19_RD_30_1.png","C_Dist_300_LN_1_LD_30_RN_8_RD_24_1.png","C_Dist_300_LN_1_LD_5_RN_11_RD_22_1.png","C_Dist_300_LN_1_LD_5_RN_3_RD_6_1.png","C_Dist_300_LN_1_LD_5_RN_6_RD_12_1.png","C_Dist_300_LN_2_LD_10_RN_12_RD_24_1.png","C_Dist_300_LN_2_LD_20_RN_10_RD_25_1.png","C_Dist_300_LN_3_LD_12_RN_11_RD_20_1.png","C_Dist_300_LN_3_LD_6_RN_4_RD_5_1.png","C_Dist_300_LN_4_LD_20_RN_13_RD_26_1.png","C_Dist_300_LN_5_LD_25_RN_6_RD_12_1.png","C_Dist_300_LN_5_LD_25_RN_7_RD_14_1.png","C_Dist_300_LN_7_LD_14_RN_20_RD_25_1.png","C_Dist_300_LN_8_LD_15_RN_10_RD_12_1.png"]],"dist300_I":[["I_Dist_300_LN_1_LD_2_RN_2_RD_10_0.png","I_Dist_300_LN_1_LD_2_RN_3_RD_15_0.png","I_Dist_300_LN_2_LD_4_RN_6_RD_30_0.png","I_Dist_300_LN_3_LD_6_RN_4_RD_20_0.png","I_Dist_300_LN_4_LD_5_RN_6_RD_12_0.png","I_Dist_300_LN_4_LD_5_RN_8_RD_16_0.png","I_Dist_300_LN_7_LD_10_RN_8_RD_20_0.png","I_Dist_300_LN_8_LD_10_RN_14_RD_28_0.png","I_Dist_300_LN_8_LD_10_RN_9_RD_18_0.png"],["I_Dist_300_LN_13_LD_26_RN_12_RD_15_1.png","I_Dist_300_LN_4_LD_20_RN_2_RD_4_1.png"]],"dist300_S":[["E_Dist_300_LN_9_LD_12_RN_9_RD_20_0.png"],["E_Dist_300_LN_18_LD_30_RN_18_RD_20_1.png","E_Dist_300_LN_3_LD_10_RN_3_RD_5_1.png","E_Dist_300_LN_9_LD_20_RN_9_RD_12_1.png"]],"dist500_C":[["C_Dist_500_LN_10_LD_13_RN_7_RD_26_0.png","C_Dist_500_LN_10_LD_15_RN_4_RD_24_0.png","C_Dist_500_LN_12_LD_16_RN_3_RD_12_0.png","C_Dist_500_LN_12_LD_18_RN_4_RD_24_0.png","C_Dist_500_LN_15_LD_18_RN_5_RD_15_0.png","C_Dist_500_LN_15_LD_20_RN_1_RD_4_0.png","C_Dist_500_LN_18_LD_27_RN_1_RD_6_0.png","C_Dist_500_LN_20_LD_24_RN_1_RD_3_0.png","C_Dist_500_LN_20_LD_24_RN_3_RD_9_0.png","C_Dist_500_LN_20_LD_24_RN_7_RD_21_0.png","C_Dist_500_LN_20_LD_28_RN_3_RD_14_0.png","C_Dist_500_LN_21_LD_28_RN_6_RD_24_0.png","C_Dist_500_LN_22_LD_28_RN_2_RD_7_0.png","C_Dist_500_LN_25_LD_30_RN_9_RD_27_0.png","C_Dist_500_LN_4_LD_6_RN_1_RD_6_0.png","C_Dist_500_LN_5_LD_6_RN_2_RD_6_0.png","C_Dist_500_LN_6_LD_9_RN_1_RD_6_0.png","C_Dist_500_LN_7_LD_10_RN_1_RD_5_0.png","C_Dist_500_LN_8_LD_12_RN_1_RD_6_0.png","C_Dist_500_LN_8_LD_12_RN_4_RD_24_0.png"],["C_Dist_500_LN_1_LD_4_RN_12_RD_16_1.png","C_Dist_500_LN_1_LD_4_RN_9_RD_12_1.png","C_Dist_500_LN_1_LD_9_RN_11_RD_18_1.png","C_Dist_500_LN_10_LD_24_RN_22_RD_24_1.png","C_Dist_500_LN_2_LD_12_RN_10_RD_15_1.png","C_Dist_500_LN_2_LD_12_RN_12_RD_18_1.png","C_Dist_500_LN_2_LD_12_RN_4_RD_6_1.png","C_Dist_500_LN_2_LD_24_RN_7_RD_12_1.png","C_Dist_500_LN_2_LD_5_RN_18_RD_20_1.png","C_Dist_500_LN_2_LD_5_RN_9_RD_10_1.png","C_Dist_500_LN_2_LD_8_RN_12_RD_16_1.png","C_Dist_500_LN_2_LD_8_RN_21_RD_28_1.png","C_Dist_500_LN_3_LD_10_RN_4_RD_5_1.png","C_Dist_500_LN_3_LD_12_RN_15_RD_20_1.png","C_Dist_500_LN_3_LD_30_RN_6_RD_10_1.png","C_Dist_500_LN_3_LD_8_RN_14_RD_16_1.png","C_Dist_500_LN_4_LD_16_RN_15_RD_20_1.png","C_Dist_500_LN_4_LD_24_RN_12_RD_18_1.png","C_Dist_500_LN_5_LD_14_RN_6_RD_7_1.png","C_Dist_500_LN_7_LD_21_RN_20_RD_24_1.png","C_Dist_500_LN_7_LD_28_RN_12_RD_16_1.png","C_Dist_500_LN_7_LD_28_RN_9_RD_12_1.png","C_Dist_500_LN_9_LD_27_RN_20_RD_24_1.png"]],"dist500_I":[["I_Dist_500_LN_2_LD_3_RN_4_RD_24_0.png","I_Dist_500_LN_5_LD_6_RN_6_RD_18_0.png","I_Dist_500_LN_7_LD_8_RN_9_RD_24_0.png"],["I_Dist_500_LN_7_LD_21_RN_5_RD_6_1.png"]],"dist500_S":[["E_Dist_500_LN_6_LD_8_RN_6_RD_24_0.png"],["E_Dist_500_LN_2_LD_12_RN_2_RD_3_1.png","E_Dist_500_LN_6_LD_24_RN_6_RD_8_1.png"]]}},{"start_time":1551899924677,"click_time":1551899927505,"finger_time":1551899926962,"fix_duration":1153.2919622388865,"trial":1,"RT":2285,"MT":543,"sideResp":2,"stimulus":[],"xmouse":[770,770,770,770,770,770,770,770,770,770,770,770,770,770,770,770,770,770,770,770,770,770,770,770,770,770,770,770,770,770,770,770,770,770,770,770,770,770,770,770,770,770,770,770,770,770,770,770,770,770,770,770,770,770,770,770,770,770,770,770,770,770,770,770,770,770,770,770,770,770,770,770,770,770,770,770,770,770,770,770,770,770,770,770,770,770,770,770,770,770,770,770,770,770,770,770,770,770,770,770,770,770,770,770,770,770,770,770,771,775,781,787,796,804,825,832,841,852,868,937,990,1044,1085,1112,1123,1133,1136,1137,1138,1140,1141,1141,1139,1136,1135,1135,1135,1135,1135,1134,1133,1133],"ymouse":[638,638,638,638,638,638,638,638,638,638,638,638,638,638,638,638,638,638,638,638,638,638,638,638,638,638,638,638,638,638,638,638,638,638,638,638,638,638,638,638,638,638,638,638,638,638,638,638,638,638,638,638,638,638,638,638,638,638,638,638,638,638,638,638,638,638,638,638,638,638,638,638,638,638,638,638,638,638,638,638,638,638,638,638,638,638,638,638,638,638,638,638,639,639,639,639,639,639,639,639,639,639,639,639,639,639,639,639,637,631,620,607,591,575,539,521,501,476,446,357,329,304,286,257,233,203,181,159,156,140,133,122,114,108,107,107,106,106,106,105,101,99],"timestamp_mouse":[9,39,45,66,87,107,125,146,166,185,205,225,246,265,285,307,325,345,367,385,407,427,445,465,486,505,525,545,567,587,607,625,647,665,685,705,726,745,766,786,806,826,846,867,885,906,927,945,966,987,1006,1025,1045,1065,1085,1106,1127,1146,1166,1186,1206,1227,1245,1265,1285,1307,1325,1345,1367,1398,1406,1427,1446,1466,1485,1506,1526,1545,1566,1585,1605,1626,1647,1666,1685,1705,1727,1745,1766,1785,1806,1826,1845,1866,1885,1907,1925,1945,1965,1987,2007,2025,2045,2066,2087,2105,2125,2146,2166,2185,2205,2226,2246,2266,2285,2306,2326,2345,2366,2387,2406,2426,2446,2466,2485,2506,2526,2545,2566,2586,2606,2625,2645,2667,2685,2706,2726,2747,2765,2786,2806,2827],"xSR":741.5,"ySR":573.95,"xT1":424.9,"yT1":0,"xT2":1058.1,"yT2":0,"toosoon":0,"cond_shown":"Congruent","ratio_trial":200,"L_num":4,"L_den":10,"R_num":3,"R_den":15,"correct_side":1,"subjID":"LauraValentinaCoteSanchez","gender":"1","school":"6","age":"11"},{"start_time":1551899932322,"click_time":1551899937583,"finger_time":1551899934142,"fix_duration":1095.0494287603246,"trial":2,"RT":1820,"MT":3441,"sideResp":2,"stimulus":[],"xmouse":[790,790,790,790,790,790,790,790,790,790,790,790,790,790,790,790,790,790,790,789,789,787,786,783,782,780,779,775,774,774,772,772,772,772,772,772,772,772,772,772,772,772,772,772,772,772,772,772,772,772,772,772,772,772,772,772,772,772,772,772,772,772,772,772,772,772,772,772,772,772,772,772,772,772,772,772,772,772,772,772,772,772,772,772,773,777,778,782,792,796,799,802,810,820,832,845,856,885,897,927,979,989,993,993,993,993,993,993,993,993,993,993,993,993,993,993,993,993,993,993,993,993,993,993,993,993,993,993,993,993,993,993,993,993,993,993,993,993,993,993,993,993,993,993,993,993,993,993,993,993,993,993,993,989,989,989,989,989,989,989,989,989,989,989,989,989,989,989,989,989,989,992,992,992,992,992,992,992,992,992,992,992,992,992,992,992,992,992,992,992,992,992,992,992,992,992,992,992,992,992,992,992,992,992,992,992,992,992,992,992,992,992,992,992,992,992,992,992,992,992,992,992,992,992,992,992,992,992,992,992,992,992,992,992,992,992,992,992,992,992,996,1001,1008,1008,1008,1010,1012,1015,1020,1021,1025,1030,1040,1045,1053,1064,1073,1081,1081,1081,1081,1083,1097,1106],"ymouse":[612,612,612,612,612,612,612,612,612,612,612,612,612,612,612,612,612,612,612,612,612,611,611,610,609,608,608,607,606,606,606,606,606,606,606,606,606,606,606,606,606,606,606,606,606,606,606,606,606,606,606,606,606,606,606,606,606,606,606,606,606,606,606,606,606,606,606,606,606,606,606,606,606,606,606,606,606,606,606,606,606,606,606,606,606,605,603,600,589,581,576,570,550,527,508,485,458,393,364,327,290,282,279,279,279,279,279,279,279,279,279,279,279,279,279,279,279,279,279,279,279,279,279,279,279,279,279,279,279,279,279,279,279,279,279,279,279,279,279,279,279,279,279,279,279,279,279,279,279,279,279,279,279,302,302,302,302,302,302,302,302,302,302,302,302,302,302,302,302,302,302,324,324,324,324,324,324,324,324,324,324,324,324,324,324,324,324,324,324,324,324,324,324,324,324,324,324,322,322,322,322,322,322,322,322,322,322,322,322,322,322,322,322,322,322,322,322,322,322,322,322,322,322,322,322,322,322,322,322,322,322,322,322,322,322,322,322,322,322,322,329,352,374,376,370,358,344,326,295,284,273,264,247,239,228,212,194,166,156,149,144,137,102,84],"timestamp_mouse":[8,22,41,61,80,101,121,140,161,180,201,220,242,261,281,300,322,340,361,380,400,421,440,460,481,500,521,541,560,580,601,622,642,661,681,701,722,742,762,781,800,821,840,860,880,900,922,941,962,980,1001,1020,1040,1061,1081,1102,1122,1140,1161,1180,1201,1221,1240,1262,1280,1302,1321,1341,1360,1381,1402,1421,1441,1462,1480,1500,1521,1540,1561,1580,1600,1622,1640,1660,1680,1702,1720,1740,1760,1780,1800,1820,1840,1861,1880,1900,1920,1940,1960,1980,2001,2022,2041,2062,2081,2101,2121,2141,2160,2180,2201,2221,2240,2260,2280,2301,2321,2341,2361,2381,2400,2421,2442,2462,2481,2501,2521,2541,2561,2581,2600,2620,2640,2660,2681,2701,2722,2741,2760,2782,2801,2821,2841,2860,2880,2900,2921,2941,2962,2981,3002,3022,3040,3060,3080,3101,3122,3142,3161,3182,3202,3220,3241,3260,3281,3302,3320,3341,3361,3382,3400,3422,3442,3462,3480,3500,3522,3540,3560,3580,3601,3620,3640,3660,3681,3701,3721,3741,3760,3781,3801,3822,3841,3860,3880,3901,3920,3940,3960,3980,4001,4021,4040,4060,4082,4101,4120,4140,4160,4182,4201,4220,4241,4260,4280,4300,4322,4342,4360,4381,4400,4421,4442,4460,4480,4500,4520,4540,4561,4581,4600,4621,4640,4660,4681,4700,4720,4742,4760,4780,4800,4822,4841,4860,4880,4901,4921,4940,4960,4981,5001,5021,5041,5061,5081,5101,5121,5141,5160,5180,5201,5222,5241,5261],"xSR":741.5,"ySR":573.95,"xT1":424.9,"yT1":0,"xT2":1058.1,"yT2":0,"toosoon":0,"cond_shown":"Incongruent","ratio_trial":300,"L_num":13,"L_den":26,"R_num":12,"R_den":15,"correct_side":2,"subjID":"LauraValentinaCoteSanchez","gender":"1","school":"6","age":"11"},{"start_time":1551899941174,"click_time":1551899943985,"finger_time":1551899943043,"fix_duration":730.3828572204386,"trial":3,"RT":1869,"MT":942,"sideResp":1,"stimulus":[],"xmouse":[783,783,784,784,784,784,784,784,784,784,784,784,784,784,784,784,784,784,784,783,783,783,783,783,783,783,783,783,783,783,783,783,783,783,783,783,783,783,783,783,783,783,783,783,783,783,783,783,783,783,783,783,783,783,783,783,783,783,783,783,783,783,783,783,783,783,783,783,783,783,783,782,782,782,778,777,777,776,776,776,776,776,776,776,776,776,776,776,776,776,775,771,766,759,748,728,726,726,726,726,725,724,722,716,702,699,697,697,697,697,697,685,666,636,514,478,453,437,429,421,408,401,394,384,381,379,379,379,381,385,386,388,388,389,392,397,402,409,416,425],"ymouse":[605,603,602,602,602,602,602,602,602,602,602,602,602,602,602,602,601,600,600,599,599,599,599,599,599,599,599,599,599,599,599,599,599,599,599,599,599,598,597,597,597,596,596,596,596,596,596,595,595,594,594,594,594,594,594,594,593,593,593,593,593,593,593,593,593,593,593,591,591,591,591,591,591,590,585,583,581,580,580,580,580,580,580,580,580,580,580,580,580,580,578,575,571,564,555,541,540,540,540,540,538,537,531,523,489,471,456,441,421,356,293,222,159,92,0,0,0,0,0,0,0,0,0,3,5,10,12,14,14,14,14,14,14,13,12,11,11,11,11,11],"timestamp_mouse":[31,49,69,89,108,129,148,170,189,208,229,249,270,288,310,329,350,369,388,409,430,449,468,490,508,528,550,568,589,610,629,649,669,689,709,730,749,769,788,808,828,848,869,888,909,929,948,970,988,1008,1030,1050,1068,1090,1109,1130,1149,1168,1189,1208,1229,1249,1268,1288,1309,1328,1348,1368,1388,1408,1430,1450,1468,1489,1509,1529,1548,1569,1589,1608,1630,1648,1670,1688,1709,1730,1750,1769,1788,1809,1828,1848,1869,1889,1909,1928,1949,1969,1990,2009,2029,2049,2068,2088,2109,2128,2149,2168,2188,2209,2229,2248,2269,2289,2309,2329,2348,2368,2389,2409,2429,2450,2470,2488,2508,2529,2548,2569,2590,2610,2628,2648,2668,2689,2709,2729,2748,2769,2790,2810],"xSR":741.5,"ySR":573.95,"xT1":424.9,"yT1":0,"xT2":1058.1,"yT2":0,"toosoon":0,"cond_shown":"Incongruent","ratio_trial":200,"L_num":4,"L_den":6,"R_num":14,"R_den":30,"correct_side":1,"subjID":"LauraValentinaCoteSanchez","gender":"1","school":"6","age":"11"},{"start_time":1551899946457,"click_time":1551899947763,"finger_time":1551899947303,"fix_duration":973.1822090625485,"trial":4,"RT":846,"MT":460,"sideResp":2,"stimulus":[],"xmouse":[761,761,761,761,761,761,761,761,761,761,761,761,761,761,761,761,761,761,761,761,761,761,761,761,761,761,761,761,761,761,761,761,761,761,761,761,761,761,761,761,763,763,775,779,780,780,787,820,849,864,877,890,920,932,939,941,942,942,945,951,964,981,1020,1039,1056,1072],"ymouse":[617,617,617,617,617,617,617,617,617,617,617,617,617,617,617,617,617,617,617,617,617,617,617,617,617,617,617,617,617,617,617,617,617,617,617,617,617,617,617,617,617,611,571,539,487,419,357,313,292,278,264,246,210,194,183,176,173,171,169,162,155,144,114,99,85,74],"timestamp_mouse":[8,25,45,66,87,105,127,147,165,186,206,225,246,265,286,307,326,346,365,386,407,425,445,466,486,507,526,547,567,585,606,627,646,666,686,706,726,746,765,787,806,825,846,865,885,905,925,945,965,986,1006,1026,1045,1065,1087,1106,1125,1145,1166,1185,1205,1226,1246,1266,1287,1306],"xSR":741.5,"ySR":573.95,"xT1":424.9,"yT1":0,"xT2":1058.1,"yT2":0,"toosoon":0,"cond_shown":"Incongruent","ratio_trial":300,"L_num":13,"L_den":26,"R_num":12,"R_den":15,"correct_side":2,"subjID":"LauraValentinaCoteSanchez","gender":"1","school":"6","age":"11"},{"start_time":1551899952861,"click_time":1551899954423,"finger_time":1551899954263,"fix_duration":555.2623648752738,"trial":5,"RT":1402,"MT":160,"sideResp":1,"stimulus":[],"xmouse":[800,800,800,800,800,800,800,800,800,800,800,800,800,800,800,800,800,800,800,800,800,800,800,800,800,800,800,800,800,800,800,800,800,800,800,800,800,800,800,800,800,800,800,800,800,800,800,800,800,800,800,800,800,800,800,800,800,800,800,800,800,800,800,800,800,800,797,795,792,784,764,733,697,643,630,611,571,535,476],"ymouse":[612,612,612,612,612,612,612,612,612,612,612,612,612,612,612,612,612,612,612,612,612,612,612,612,612,612,612,612,612,612,612,612,612,612,612,612,612,612,612,612,612,612,612,612,612,612,612,612,612,612,612,612,612,612,612,612,612,612,612,612,612,612,612,612,612,612,606,603,595,576,531,456,375,290,270,243,185,142,77],"timestamp_mouse":[9,23,52,62,82,101,122,143,161,181,203,222,241,261,283,302,322,342,361,381,402,422,442,462,481,501,521,543,561,581,603,622,642,663,681,703,721,742,762,781,801,821,843,863,881,903,922,943,961,983,1002,1023,1041,1063,1082,1102,1123,1142,1163,1181,1202,1223,1242,1261,1282,1301,1321,1341,1362,1381,1402,1421,1442,1461,1482,1502,1522,1542,1562],"xSR":741.5,"ySR":573.95,"xT1":424.9,"yT1":0,"xT2":1058.1,"yT2":0,"toosoon":0,"cond_shown":"Congruent","ratio_trial":300,"L_num":20,"L_den":25,"R_num":14,"R_den":28,"correct_side":1,"subjID":"LauraValentinaCoteSanchez","gender":"1","school":"6","age":"11"},{"start_time":1551899956194,"click_time":1551899957603,"finger_time":1551899957263,"fix_duration":389.406648629091,"trial":6,"RT":1069,"MT":340,"sideResp":1,"stimulus":[],"xmouse":[809,809,809,809,809,809,809,809,809,809,809,809,809,809,809,809,809,809,806,805,803,800,800,799,799,799,799,799,799,799,799,799,799,799,799,799,799,799,799,799,799,799,799,799,799,799,799,797,794,788,780,760,746,735,724,711,687,660,643,633,632,630,627,620,614,598,546,537,530,526,524],"ymouse":[632,632,632,632,632,632,632,632,632,632,632,632,632,632,632,632,632,632,630,629,629,627,627,626,626,626,626,626,626,626,626,626,626,626,626,626,626,626,626,626,626,626,626,626,626,626,626,626,628,628,628,616,607,599,588,573,526,461,413,371,343,297,277,259,235,200,104,84,67,54,48],"timestamp_mouse":[10,32,48,68,90,109,129,149,168,188,208,228,249,268,288,311,329,349,368,389,409,429,448,470,489,510,529,548,570,590,608,630,649,668,689,709,729,748,769,790,808,829,848,869,889,909,928,948,968,988,1010,1029,1048,1069,1088,1109,1128,1148,1169,1189,1209,1228,1248,1268,1289,1308,1329,1349,1369,1389,1409],"xSR":741.5,"ySR":573.95,"xT1":424.9,"yT1":0,"xT2":1058.1,"yT2":0,"toosoon":0,"cond_shown":"Incongruent","ratio_trial":100,"L_num":9,"L_den":15,"R_num":13,"R_den":26,"correct_side":1,"subjID":"LauraValentinaCoteSanchez","gender":"1","school":"6","age":"11"},{"start_time":1551899960590,"click_time":1551899968242,"finger_time":1551899965143,"fix_duration":326.95334797306407,"trial":7,"RT":4553,"MT":3099,"sideResp":1,"stimulus":[],"xmouse":[802,802,802,802,802,802,802,802,802,802,802,802,802,802,802,802,802,802,802,802,802,802,802,802,802,802,802,802,802,802,802,802,802,802,802,802,802,802,802,802,802,802,802,802,802,802,802,802,802,802,802,802,802,802,802,802,802,802,802,802,802,802,802,802,802,802,802,802,802,802,802,802,802,802,802,802,802,802,802,802,802,802,802,802,802,802,802,802,802,802,802,802,802,802,802,802,802,802,802,802,802,802,802,802,802,802,802,802,802,802,802,802,802,802,802,802,802,802,802,802,802,802,802,802,802,802,802,802,802,802,802,802,802,802,802,802,802,802,802,802,802,802,802,802,802,802,802,802,802,802,802,802,802,802,802,802,802,802,802,802,802,802,802,802,802,802,802,802,802,802,802,802,802,802,802,802,802,802,802,802,802,802,802,802,802,802,802,802,802,802,802,802,802,802,802,802,802,802,802,802,802,802,802,802,802,802,802,802,802,802,802,802,802,802,802,802,802,803,806,808,809,809,809,809,809,809,806,801,797,794,791,790,790,790,790,790,790,783,782,781,780,780,791,795,795,797,797,797,797,797,797,795,783,769,757,748,742,740,740,740,740,740,741,741,741,743,745,750,752,756,758,760,767,767,767,767,767,767,768,768,769,771,775,779,780,780,780,780,780,780,780,780,780,780,780,780,780,780,780,780,780,780,780,780,780,780,780,780,780,780,780,781,784,784,785,786,786,787,787,787,791,791,793,793,793,793,793,792,792,792,792,792,792,792,792,792,792,796,798,799,800,800,800,800,800,798,797,795,795,795,795,795,794,794,794,794,794,794,794,794,794,794,794,794,792,792,799,840,855,859,857,851,773,741,637,572,515,458,450,450,449,449,450],"ymouse":[642,642,642,642,642,642,642,642,642,642,642,642,642,642,642,642,642,642,642,642,642,642,642,642,642,642,642,642,642,642,642,642,642,642,642,642,642,642,642,642,642,642,642,642,642,642,642,642,642,642,642,642,642,642,642,642,642,642,642,642,642,642,642,642,642,642,642,642,642,642,642,642,642,642,642,642,642,642,642,642,642,642,642,642,642,642,642,642,642,642,642,642,642,642,642,642,642,642,642,642,642,642,642,642,642,642,642,642,642,642,642,642,642,642,642,642,642,642,642,642,642,642,642,642,642,642,642,642,642,642,642,642,642,642,642,642,642,642,642,642,642,642,642,642,642,642,642,642,642,642,642,642,642,642,642,642,642,642,642,642,642,642,642,642,642,642,642,642,642,642,642,642,642,642,642,642,642,642,642,642,642,642,642,642,642,642,642,642,642,642,642,642,642,642,642,642,642,642,642,642,642,642,642,642,642,642,642,642,642,642,642,642,642,642,642,642,642,642,642,640,638,638,638,638,638,632,596,519,500,492,486,486,486,486,486,486,485,485,485,485,492,508,544,554,561,564,564,565,565,565,565,567,580,600,615,624,629,631,631,631,630,629,627,626,626,625,624,622,621,620,619,618,616,616,616,616,616,616,616,616,616,617,617,617,617,617,617,617,617,617,617,617,617,617,617,617,617,617,617,617,617,617,617,617,617,617,617,617,617,617,617,617,613,610,602,597,592,587,566,549,523,507,485,471,467,463,458,449,446,444,443,441,436,434,431,429,425,414,408,403,397,391,384,381,378,376,373,369,366,364,359,357,354,354,354,354,354,354,354,354,354,354,354,352,340,318,285,173,136,114,105,103,103,103,104,104,104,102,102,102,102,101,99],"timestamp_mouse":[12,35,54,73,92,112,133,153,172,192,213,232,254,272,292,314,332,353,372,394,413,432,452,473,492,514,533,553,573,594,614,633,653,673,692,714,732,753,773,793,812,834,854,874,894,913,933,953,974,992,1014,1032,1052,1074,1092,1114,1132,1152,1174,1194,1213,1233,1253,1274,1293,1313,1333,1352,1374,1393,1413,1434,1453,1472,1493,1514,1532,1552,1573,1592,1612,1633,1654,1672,1692,1713,1733,1753,1772,1793,1813,1833,1852,1874,1892,1912,1933,1952,1974,1993,2012,2032,2052,2074,2093,2113,2134,2153,2174,2193,2214,2232,2254,2274,2293,2312,2332,2354,2372,2393,2412,2433,2452,2473,2492,2513,2533,2553,2574,2593,2613,2632,2653,2672,2693,2712,2733,2753,2773,2792,2813,2834,2853,2873,2892,2914,2932,2954,2973,2992,3014,3032,3052,3074,3092,3113,3134,3153,3174,3193,3214,3233,3252,3273,3292,3312,3333,3353,3372,3393,3414,3432,3453,3473,3492,3514,3534,3553,3574,3593,3613,3633,3653,3673,3693,3713,3734,3752,3773,3793,3814,3834,3853,3873,3893,3913,3934,3952,3973,3994,4012,4034,4053,4072,4094,4112,4132,4153,4174,4192,4213,4233,4252,4272,4294,4312,4333,4353,4372,4394,4413,4433,4452,4472,4492,4513,4533,4553,4572,4592,4613,4632,4652,4673,4694,4713,4732,4753,4773,4793,4813,4834,4852,4873,4892,4912,4934,4952,4973,4992,5012,5034,5053,5073,5092,5113,5133,5152,5172,5194,5212,5233,5252,5272,5292,5312,5333,5352,5372,5393,5413,5433,5452,5473,5493,5514,5534,5552,5573,5593,5613,5632,5652,5674,5692,5713,5734,5752,5773,5792,5812,5834,5852,5873,5892,5912,5932,5952,5974,5993,6014,6032,6053,6073,6093,6112,6133,6153,6173,6192,6214,6234,6253,6272,6292,6313,6333,6352,6372,6393,6413,6433,6452,6473,6492,6512,6533,6552,6573,6592,6613,6634,6652,6673,6692,6713,6733,6753,6772,6792,6812,6834,6852,6874,6892,6913,6933,6953,6972,6992,7012,7033,7053,7073,7093,7113,7133,7153,7173,7194,7212,7233,7253,7273,7292,7314,7333,7353,7372,7393,7413,7432,7453,7473,7493,7513,7533,7552,7574,7593,7612,7633,7652],"xSR":741.5,"ySR":573.95,"xT1":424.9,"yT1":0,"xT2":1058.1,"yT2":0,"toosoon":0,"cond_shown":"Congruent","ratio_trial":100,"L_num":15,"L_den":25,"R_num":13,"R_den":26,"correct_side":1,"subjID":"LauraValentinaCoteSanchez","gender":"1","school":"6","age":"11"},{"start_time":1551899972483,"click_time":1551899974202,"finger_time":1551899973443,"fix_duration":817.672362290329,"trial":8,"RT":960,"MT":759,"sideResp":1,"stimulus":[],"xmouse":[787,787,787,787,787,787,787,787,787,787,787,787,787,787,787,787,787,787,787,787,787,787,787,787,787,787,787,787,787,787,787,787,787,787,787,787,787,787,787,787,787,787,787,785,775,766,752,748,739,737,736,734,734,734,734,734,733,731,730,720,710,701,690,678,643,606,528,495,476,455,449,443,440,440,440,439,438,438,438,442,445,449,453,455,456,456,456],"ymouse":[587,587,587,587,587,587,587,587,587,587,587,587,587,587,587,587,587,587,587,587,587,587,587,587,587,587,587,587,587,587,587,587,587,587,587,587,587,587,587,587,587,587,587,587,587,583,578,574,568,563,559,556,556,556,556,556,555,553,550,539,526,509,489,468,412,367,284,252,239,213,200,187,175,170,167,166,164,161,159,150,144,138,132,126,112,106,99],"timestamp_mouse":[1,19,40,60,80,99,121,141,160,180,201,221,241,259,280,299,321,341,361,380,399,420,439,460,481,499,519,540,561,581,599,620,641,661,679,701,720,740,759,780,800,820,841,861,879,899,919,940,960,980,999,1020,1040,1059,1080,1100,1119,1139,1159,1180,1199,1220,1240,1260,1279,1300,1319,1341,1359,1380,1399,1419,1439,1460,1480,1500,1521,1541,1560,1581,1600,1619,1641,1660,1680,1699,1719],"xSR":741.5,"ySR":573.95,"xT1":424.9,"yT1":0,"xT2":1058.1,"yT2":0,"toosoon":0,"cond_shown":"Congruent","ratio_trial":300,"L_num":4,"L_den":5,"R_num":2,"R_den":4,"correct_side":1,"subjID":"LauraValentinaCoteSanchez","gender":"1","school":"6","age":"11"},{"start_time":1551899976912,"click_time":1551899978783,"finger_time":1551899978462,"fix_duration":488.33640890532814,"trial":9,"RT":1550,"MT":321,"sideResp":2,"stimulus":[],"xmouse":[785,785,785,785,785,785,785,785,785,785,785,785,785,785,785,785,785,785,785,785,785,785,785,785,785,785,785,785,785,785,785,785,785,785,785,785,785,785,785,785,785,785,785,785,785,785,785,785,785,785,785,785,785,785,785,785,785,785,785,785,785,785,785,785,785,785,785,785,785,785,785,785,785,785,788,796,811,846,855,865,873,880,889,901,910,920,928,951,971,991,1021,1050,1100,1131],"ymouse":[647,647,647,647,647,647,647,647,647,647,647,647,647,647,647,647,647,647,647,647,647,647,647,647,647,647,647,647,647,647,647,647,647,647,647,647,647,647,647,647,647,647,647,647,647,647,647,647,647,647,647,647,647,647,647,647,647,647,647,647,647,647,647,647,647,647,647,647,647,647,647,647,647,647,646,645,643,628,620,610,600,590,567,540,521,503,487,428,385,343,290,239,147,69],"timestamp_mouse":[11,35,51,72,91,112,130,151,171,190,210,231,250,270,290,311,330,351,372,392,410,430,451,472,491,510,532,552,570,591,612,632,650,672,692,711,732,751,770,792,810,831,851,872,891,912,931,951,972,990,1010,1032,1052,1072,1092,1111,1130,1150,1170,1190,1211,1232,1250,1270,1290,1312,1330,1352,1371,1392,1412,1430,1452,1470,1490,1511,1531,1550,1570,1591,1610,1632,1651,1670,1690,1711,1730,1750,1772,1791,1811,1831,1850,1871],"xSR":741.5,"ySR":573.95,"xT1":424.9,"yT1":0,"xT2":1058.1,"yT2":0,"toosoon":0,"cond_shown":"Incongruent","ratio_trial":100,"L_num":17,"L_den":30,"R_num":10,"R_den":15,"correct_side":2,"subjID":"LauraValentinaCoteSanchez","gender":"1","school":"6","age":"11"},{"start_time":1551899982073,"click_time":1551899994423,"finger_time":1551899993223,"fix_duration":1447.448763874827,"trial":10,"RT":11150,"MT":1200,"sideResp":2,"stimulus":[],"xmouse":[767,767,767,767,767,767,767,767,767,767,767,767,767,767,767,767,767,767,767,767,767,767,767,767,767,767,767,767,767,767,767,767,767,767,767,767,767,767,767,767,767,767,767,767,767,767,767,767,768,770,775,776,776,776,776,776,776,776,776,776,776,776,776,776,776,776,776,776,776,776,776,776,776,776,776,776,776,776,776,776,776,776,776,776,776,776,776,776,776,776,776,776,776,776,776,776,776,776,776,776,776,776,776,776,776,776,776,776,776,776,776,776,776,776,776,776,776,776,776,776,776,776,776,776,776,776,776,776,776,776,776,776,776,776,776,776,776,776,776,776,776,776,776,776,776,776,776,776,776,776,776,776,776,776,776,776,776,776,776,776,776,776,776,776,776,776,776,776,776,776,776,776,776,776,776,776,776,776,776,776,776,776,776,776,776,776,776,776,776,776,776,776,776,776,776,776,776,776,776,776,776,776,776,776,776,776,776,776,776,776,776,776,776,776,776,776,776,776,776,776,776,776,776,776,776,776,776,776,776,776,776,776,776,776,776,776,776,776,776,776,776,776,776,776,776,776,776,776,776,776,776,776,776,776,776,776,776,776,776,776,776,776,776,776,776,776,776,776,776,776,776,776,776,776,776,776,776,776,776,776,776,776,776,776,776,776,776,776,776,776,776,776,776,776,776,776,776,776,776,776,776,776,776,776,776,776,776,776,776,776,776,776,776,776,776,776,776,776,776,776,776,776,776,776,776,776,776,776,776,776,776,776,776,776,776,776,776,776,776,776,776,776,776,776,776,776,776,776,776,776,776,776,776,776,776,776,776,776,776,776,776,776,776,776,776,776,776,776,776,776,776,776,776,776,776,776,776,776,776,776,776,776,776,776,776,776,776,776,776,776,776,776,776,776,776,776,776,776,776,776,776,776,776,776,776,776,776,776,776,776,776,776,776,776,776,776,776,776,776,776,776,776,776,776,776,776,776,776,776,776,776,776,776,776,776,776,776,776,776,776,776,776,776,776,776,776,776,776,776,776,776,776,776,776,776,776,776,776,776,776,776,776,776,776,776,776,776,776,776,776,776,776,776,776,776,776,776,776,776,776,776,776,776,776,776,776,776,776,776,776,776,776,776,776,776,776,776,776,776,776,776,776,776,776,776,776,776,776,776,776,776,776,776,776,776,776,776,776,776,776,776,776,776,776,776,776,776,776,776,776,776,776,776,776,778,779,780,781,781,781,781,782,782,782,782,782,782,782,782,782,782,782,782,782,782,782,783,788,789,790,791,791,791,791,791,791,791,791,792,792,792,793,793,794,796,798,799,801,803,806,807,809,809,809,809,809,810,810,810,810,810,810,810,810,810,807,806,806,808,811,815,819,819,819,819,819,826,840,854,868,885,904,915,925,943,971,1045,1093],"ymouse":[600,600,600,600,600,600,600,600,600,600,600,600,600,600,600,600,600,600,600,600,600,600,600,600,600,600,600,600,600,600,600,600,600,600,600,600,600,600,600,600,600,600,600,600,600,600,600,600,601,601,601,601,601,601,601,601,601,601,601,601,601,601,601,601,601,601,601,601,601,601,601,601,601,601,601,601,601,601,601,601,601,601,601,601,601,601,601,601,601,601,601,601,601,601,601,601,601,601,601,601,601,601,601,601,601,601,601,601,601,601,601,601,601,601,601,601,601,601,601,601,601,601,601,601,601,601,601,601,601,601,601,601,601,601,601,601,601,601,601,601,601,601,601,601,601,601,601,601,601,601,601,601,601,601,601,601,601,601,601,601,601,601,601,601,601,601,601,601,601,601,601,601,601,601,601,601,601,601,601,601,601,601,601,601,601,601,601,601,601,601,601,601,601,601,601,601,601,601,601,601,601,601,601,601,601,601,601,601,601,601,601,601,601,601,601,601,601,601,601,601,601,601,601,601,601,601,601,601,601,601,601,601,601,601,601,601,601,601,601,601,601,601,601,601,601,601,601,601,601,601,601,601,601,601,601,601,601,601,601,601,601,601,601,601,601,601,601,601,601,601,601,601,601,601,601,601,601,601,601,601,601,601,601,601,601,601,601,601,601,601,601,601,601,601,601,601,601,601,601,601,601,601,601,601,601,601,601,601,601,601,601,601,601,601,601,601,601,601,601,601,601,601,601,601,601,601,601,601,601,601,601,601,601,601,601,601,601,601,601,601,601,601,601,601,601,601,601,601,601,601,601,601,601,601,601,601,601,601,601,601,601,601,601,601,601,601,601,601,601,601,601,601,601,601,601,601,601,601,601,601,601,601,601,601,601,601,601,601,601,601,601,601,601,601,601,601,601,601,601,601,601,601,601,601,601,601,601,601,601,601,601,601,601,601,601,601,601,601,601,601,601,601,601,601,601,601,601,601,601,601,601,601,601,601,601,601,601,601,601,601,601,601,601,601,601,601,601,601,601,601,601,601,601,601,601,601,601,601,601,601,601,601,601,601,601,601,601,601,601,601,601,601,601,601,601,601,601,601,601,601,601,601,601,601,601,601,601,601,601,601,601,601,601,601,601,601,601,601,601,601,601,601,601,601,601,601,601,601,601,601,601,601,601,601,601,601,601,601,601,601,601,601,601,601,601,601,601,601,597,592,592,592,592,592,597,599,604,605,605,605,606,608,608,608,608,609,609,609,609,610,611,615,620,626,633,641,663,683,690,694,695,695,695,695,695,695,695,692,690,689,686,679,675,668,658,646,611,598,587,580,575,570,569,569,569,569,569,568,568,568,568,568,568,564,564,560,553,547,543,539,533,528,528,528,528,528,528,528,524,514,499,461,431,396,338,276,139,58],"timestamp_mouse":[10,39,49,69,91,109,131,151,170,191,209,230,250,269,291,309,331,351,370,390,410,431,450,471,489,511,531,550,570,591,611,630,651,670,691,709,729,751,769,790,811,830,849,870,889,909,930,950,969,990,1011,1030,1051,1071,1089,1109,1130,1149,1170,1190,1210,1230,1251,1269,1291,1309,1331,1351,1369,1389,1411,1430,1449,1471,1489,1511,1530,1550,1569,1590,1611,1629,1651,1671,1690,1710,1729,1750,1769,1791,1809,1831,1851,1869,1891,1911,1929,1949,1971,1991,2011,2031,2051,2069,2091,2110,2130,2151,2170,2190,2210,2231,2250,2271,2290,2311,2330,2351,2370,2390,2410,2429,2451,2469,2489,2510,2531,2549,2571,2591,2611,2629,2649,2671,2690,2710,2731,2751,2770,2790,2810,2831,2850,2871,2889,2909,2929,2950,2970,2991,3009,3030,3051,3070,3090,3111,3131,3151,3169,3189,3210,3230,3250,3271,3290,3309,3331,3350,3370,3389,3410,3429,3451,3470,3489,3510,3529,3550,3570,3590,3609,3629,3650,3669,3691,3711,3729,3749,3769,3791,3810,3831,3849,3870,3889,3909,3930,3951,3970,3991,4010,4031,4051,4069,4089,4110,4131,4150,4170,4191,4209,4231,4250,4269,4290,4310,4330,4350,4369,4391,4410,4429,4449,4470,4491,4509,4531,4550,4571,4589,4611,4629,4649,4671,4690,4710,4730,4751,4770,4791,4810,4830,4849,4870,4891,4909,4930,4950,4970,4989,5011,5029,5051,5071,5090,5110,5131,5150,5169,5191,5211,5229,5249,5271,5290,5309,5329,5349,5371,5390,5410,5430,5451,5470,5489,5511,5531,5550,5570,5589,5609,5630,5649,5669,5690,5710,5729,5751,5771,5790,5809,5830,5850,5871,5890,5910,5930,5950,5969,5991,6011,6029,6051,6071,6090,6111,6131,6150,6171,6190,6211,6229,6250,6271,6289,6311,6330,6349,6370,6389,6410,6430,6449,6471,6490,6511,6529,6550,6570,6591,6611,6629,6650,6671,6689,6710,6730,6749,6770,6789,6811,6830,6849,6870,6891,6910,6930,6950,6971,6990,7011,7029,7050,7071,7091,7111,7129,7149,7170,7191,7211,7231,7250,7270,7290,7311,7329,7350,7369,7391,7410,7431,7451,7469,7490,7511,7530,7550,7570,7591,7611,7631,7649,7670,7691,7709,7729,7750,7770,7790,7810,7830,7851,7871,7890,7911,7930,7950,7969,7990,8010,8030,8049,8070,8090,8109,8130,8151,8170,8190,8211,8230,8250,8270,8289,8311,8331,8351,8370,8390,8411,8430,8450,8470,8490,8511,8530,8549,8571,8590,8609,8629,8650,8669,8689,8710,8729,8750,8769,8791,8810,8831,8851,8870,8889,8911,8931,8949,8969,8990,9009,9030,9050,9070,9090,9111,9131,9149,9170,9190,9211,9229,9250,9271,9289,9309,9330,9349,9369,9391,9411,9430,9451,9469,9490,9509,9530,9550,9571,9589,9609,9630,9650,9671,9689,9710,9731,9751,9770,9791,9810,9829,9851,9870,9889,9909,9929,9951,9969,9990,10010,10030,10049,10071,10089,10110,10131,10149,10171,10189,10209,10230,10250,10269,10291,10310,10330,10351,10370,10391,10410,10430,10449,10471,10491,10509,10531,10551,10569,10590,10609,10630,10649,10671,10689,10710,10729,10750,10770,10790,10809,10829,10849,10871,10891,10910,10929,10950,10970,10990,11010,11029,11049,11071,11090,11110,11129,11150,11169,11190,11211,11230,11249,11269,11290,11310,11329,11349,11370,11389,11410,11429,11450,11470,11490,11510,11530,11550,11569,11589,11610,11629,11651,11670,11689,11709,11730,11751,11770,11789,11809,11830,11849,11871,11890,11910,11929,11950,11969,11990,12010,12030,12050,12070,12089,12109,12130,12151,12169,12191,12210,12230,12250,12269,12289,12311,12330,12350],"xSR":741.5,"ySR":573.95,"xT1":424.9,"yT1":0,"xT2":1058.1,"yT2":0,"toosoon":0,"cond_shown":"Congruent","ratio_trial":200,"L_num":21,"L_den":30,"R_num":2,"R_den":4,"correct_side":1,"subjID":"LauraValentinaCoteSanchez","gender":"1","school":"6","age":"11"},{"start_time":1551899997265,"click_time":1551900017983,"finger_time":1551900016322,"fix_duration":1300.6747618620655,"trial":11,"RT":19057,"MT":1661,"sideResp":1,"stimulus":[],"xmouse":[821,821,821,821,821,821,821,821,821,821,821,821,821,821,821,821,821,821,821,821,821,821,821,821,821,821,821,821,821,821,821,821,821,821,821,821,821,821,821,821,821,821,821,821,821,821,821,821,821,821,821,821,821,821,821,821,821,821,821,821,821,821,821,821,821,821,821,821,821,821,821,821,821,821,821,821,821,821,821,821,821,821,821,821,821,821,821,821,821,821,821,821,821,821,821,821,821,821,821,821,821,821,821,821,821,821,821,821,821,821,821,821,821,821,821,821,821,821,821,821,821,821,821,821,821,821,821,821,821,821,821,821,821,821,821,821,821,821,821,821,821,821,821,821,821,821,821,821,821,821,821,821,821,821,821,821,821,821,821,821,821,821,821,821,821,821,821,821,821,821,821,821,821,821,821,821,821,821,821,821,821,821,821,821,821,821,821,821,821,821,821,821,821,821,821,821,821,821,821,821,821,821,821,821,821,821,821,821,821,821,821,821,821,821,821,821,821,821,821,821,821,821,821,821,821,821,821,821,821,821,821,821,821,821,821,821,821,821,821,821,821,821,821,821,821,821,821,821,821,821,821,821,821,821,821,821,821,821,821,821,821,821,821,821,821,821,821,821,821,821,821,821,821,821,821,821,821,821,821,821,821,821,821,821,821,821,821,821,821,821,821,821,821,821,821,821,821,821,821,821,821,821,821,821,821,821,821,821,821,821,821,821,821,821,821,821,821,821,821,821,821,821,821,821,821,821,821,821,821,821,821,821,821,821,821,821,821,821,821,821,821,821,821,821,821,821,821,821,821,821,821,821,821,821,821,821,821,821,821,821,821,821,821,821,821,821,821,821,821,821,821,821,821,821,821,821,821,821,821,821,821,821,821,821,821,821,821,821,821,821,821,821,821,821,821,821,821,821,821,821,821,821,821,821,821,821,821,821,821,821,821,821,821,821,821,821,821,821,821,821,821,821,821,821,821,821,821,821,821,821,821,821,821,821,821,821,821,821,821,821,821,821,821,821,821,821,821,821,821,821,821,821,821,821,821,821,821,821,821,821,821,821,821,821,821,821,821,821,821,821,821,821,821,821,821,821,821,821,821,821,821,821,821,821,821,821,821,821,821,821,821,821,821,821,821,821,821,821,821,821,821,821,821,821,821,821,821,821,821,821,821,821,821,821,821,821,821,821,821,821,821,821,821,821,821,821,821,821,821,821,821,821,821,821,821,821,821,821,821,821,821,821,821,821,821,821,821,821,821,819,819,819,819,819,819,819,819,819,819,819,819,819,819,819,819,819,819,819,819,819,819,819,819,819,819,819,819,819,819,819,819,819,819,819,819,819,819,819,819,819,819,819,819,819,819,819,819,819,819,819,819,819,819,819,819,819,819,819,819,819,819,819,819,819,819,819,819,819,819,819,819,819,819,819,819,819,819,819,819,819,819,819,819,819,819,819,819,819,819,819,819,819,819,819,819,819,819,819,819,819,819,819,819,819,819,819,819,819,819,819,819,819,819,819,819,819,819,819,819,819,819,819,819,819,819,819,819,819,819,819,819,819,819,819,819,819,819,819,819,819,819,819,819,819,819,819,819,819,819,819,819,819,819,819,819,819,819,819,819,819,819,819,819,819,819,819,819,819,819,819,819,819,819,819,819,819,819,819,819,819,819,819,819,819,819,819,819,819,819,819,819,819,819,819,819,819,819,819,819,819,819,819,819,819,819,819,819,819,819,819,819,819,819,819,819,819,819,819,819,819,819,819,819,819,819,819,819,819,819,819,819,819,819,819,819,819,819,819,819,819,819,819,819,819,819,819,819,819,819,819,819,819,819,819,819,819,819,819,819,819,819,819,819,819,819,819,819,819,819,819,819,819,819,819,819,819,819,819,819,819,819,819,819,819,819,819,819,819,819,819,819,819,819,819,819,819,819,819,819,819,819,819,819,819,819,819,819,819,819,819,819,819,819,819,819,819,819,819,819,819,819,819,819,819,819,819,819,819,819,819,819,819,819,819,819,819,819,819,819,819,819,819,819,819,819,819,819,819,819,819,819,819,819,819,819,819,819,819,819,819,819,819,819,819,819,819,819,819,819,819,819,819,819,819,819,819,819,819,819,819,819,819,819,819,819,819,819,819,819,819,819,819,819,819,819,819,819,819,819,819,811,794,778,778,778,778,778,778,778,778,778,778,778,778,778,778,778,778,778,778,778,778,778,778,780,781,786,794,819,829,832,832,831,830,830,830,830,830,828,828,828,828,826,822,814,803,785,777,774,774,774,774,774,777,777,777,777,777,774,761,724,667,565,547,545,542,542,542,539,533,528,526,526,527,534,538,541,542,547,549,550,550,550,539,518],"ymouse":[624,624,624,624,624,624,624,624,624,624,624,624,624,624,624,624,624,624,624,624,624,624,624,624,624,624,624,624,624,624,624,624,624,624,624,624,624,624,624,624,624,624,624,624,624,624,624,624,624,624,624,624,624,624,624,624,624,624,624,624,624,624,624,624,624,624,624,624,624,624,624,624,624,624,624,624,624,624,624,624,624,624,624,624,624,624,624,624,624,624,624,624,624,624,624,624,624,624,624,624,624,624,624,624,624,624,624,624,624,624,624,624,624,624,624,624,624,624,624,624,624,624,624,624,624,624,624,624,624,624,624,624,624,624,624,624,624,624,624,624,624,624,624,624,624,624,624,624,624,624,624,624,624,624,624,624,624,624,624,624,624,624,624,624,624,624,624,624,624,624,624,624,624,624,624,624,624,624,624,624,624,624,624,624,624,624,624,624,624,624,624,624,624,624,624,624,624,624,624,624,624,624,624,624,624,624,624,624,624,624,624,624,624,624,624,624,624,624,624,624,624,624,624,624,624,624,624,624,624,624,624,624,624,624,624,624,624,624,624,624,624,624,624,624,624,624,624,624,624,624,624,624,624,624,624,624,624,624,624,624,624,624,624,624,624,624,624,624,624,624,624,624,624,624,624,624,624,624,624,624,624,624,624,624,624,624,624,624,624,624,624,624,624,624,624,624,624,624,624,624,624,624,624,624,624,624,624,624,624,624,624,624,624,624,624,624,624,624,624,624,624,624,624,624,624,624,624,624,624,624,624,624,624,624,624,624,624,624,624,624,624,624,624,624,624,624,624,624,624,624,624,624,624,624,624,624,624,624,624,624,624,624,624,624,624,624,624,624,624,624,624,624,624,624,624,624,624,624,624,624,624,624,624,624,624,624,624,624,624,624,624,624,624,624,624,624,624,624,624,624,624,624,624,624,624,624,624,624,624,624,624,624,624,624,624,624,624,624,624,624,624,624,624,624,624,624,624,624,624,624,624,624,624,624,624,624,624,624,624,624,624,624,624,624,624,624,624,624,624,624,624,624,624,624,624,624,624,624,624,624,624,624,624,624,624,624,624,624,624,624,624,624,624,624,624,624,624,624,624,624,624,624,624,624,624,624,624,624,624,624,624,624,624,624,624,624,624,624,624,624,624,624,624,624,624,624,624,624,624,624,624,624,624,624,624,624,624,624,624,624,624,624,624,624,624,624,624,624,624,624,624,624,624,624,624,624,624,624,624,624,624,624,624,624,624,624,624,624,624,625,625,625,625,625,625,625,625,625,625,625,625,625,625,625,625,625,625,625,625,625,625,625,625,625,625,625,625,625,625,625,625,625,625,625,625,625,625,625,625,625,625,625,625,625,625,625,625,625,625,625,625,625,625,625,625,625,625,625,625,625,625,625,625,625,625,625,625,625,625,625,625,625,625,625,625,625,625,625,625,625,625,625,625,625,625,625,625,625,625,625,625,625,625,625,625,625,625,625,625,625,625,625,625,625,625,625,625,625,625,625,625,625,625,625,625,625,625,625,625,625,625,625,625,625,625,625,625,625,625,625,625,625,625,625,625,625,625,625,625,625,625,625,625,625,625,625,625,625,625,625,625,625,625,625,625,625,625,625,625,625,625,625,625,625,625,625,625,625,625,625,625,625,625,625,625,625,625,625,625,625,625,625,625,625,625,625,625,625,625,625,625,625,625,625,625,625,625,625,625,625,625,625,625,625,625,625,625,625,625,625,625,625,625,625,625,625,625,625,625,625,625,625,625,625,625,625,625,625,625,625,625,625,625,625,625,625,625,625,625,625,625,625,625,625,625,625,625,625,625,625,625,625,625,625,625,625,625,625,625,625,625,625,625,625,625,625,625,625,625,625,625,625,625,625,625,625,625,625,625,625,625,625,625,625,625,625,625,625,625,625,625,625,625,625,625,625,625,625,625,625,625,625,625,625,625,625,625,625,625,625,625,625,625,625,625,625,625,625,625,625,625,625,625,625,625,625,625,625,625,625,625,625,625,625,625,625,625,625,625,625,625,625,625,625,625,625,625,625,625,625,625,625,625,625,625,625,625,625,625,625,625,625,625,625,625,625,625,625,625,625,625,625,625,625,625,625,625,625,625,625,625,625,625,625,625,625,625,625,625,625,625,625,625,625,625,625,625,625,625,625,608,570,536,536,536,536,536,536,536,536,535,530,528,528,528,528,528,527,516,515,514,514,514,514,510,506,485,463,418,397,382,373,367,366,366,366,366,365,360,360,360,360,356,350,340,329,314,308,304,304,304,303,301,298,298,298,298,298,286,272,249,224,197,194,193,189,187,187,184,180,177,176,174,158,151,145,128,115,97,93,91,88,86,73,60],"timestamp_mouse":[40,58,77,98,118,138,158,178,199,218,238,258,278,299,317,337,358,378,397,417,438,457,478,499,518,538,558,577,598,617,638,657,677,699,717,739,758,778,798,819,837,858,877,899,919,939,958,978,998,1019,1038,1058,1077,1098,1119,1137,1157,1177,1197,1219,1238,1258,1277,1299,1319,1338,1358,1379,1397,1418,1438,1458,1477,1498,1519,1538,1558,1578,1597,1618,1638,1657,1677,1697,1718,1738,1758,1778,1797,1819,1839,1857,1877,1898,1919,1937,1959,1978,1997,2017,2039,2058,2078,2097,2119,2137,2159,2179,2197,2219,2238,2257,2279,2298,2319,2338,2358,2377,2399,2418,2438,2457,2478,2497,2517,2538,2558,2577,2597,2619,2638,2658,2678,2698,2719,2739,2759,2778,2797,2818,2839,2859,2878,2897,2918,2937,2959,2978,2997,3019,3038,3059,3078,3098,3118,3138,3158,3177,3197,3219,3239,3258,3277,3298,3317,3339,3358,3377,3398,3417,3438,3457,3477,3498,3518,3537,3557,3577,3598,3619,3638,3659,3678,3697,3719,3739,3758,3777,3798,3818,3838,3858,3878,3898,3919,3939,3958,3978,3999,4018,4037,4058,4078,4098,4117,4138,4158,4178,4199,4218,4239,4259,4278,4298,4318,4337,4359,4379,4397,4419,4439,4458,4477,4499,4518,4537,4557,4579,4599,4618,4638,4658,4679,4697,4719,4738,4758,4777,4797,4818,4837,4859,4878,4899,4917,4939,4957,4978,4998,5018,5038,5058,5078,5099,5117,5138,5159,5177,5199,5217,5239,5259,5277,5298,5318,5338,5359,5377,5398,5419,5438,5458,5477,5499,5519,5538,5558,5579,5599,5619,5638,5658,5679,5699,5718,5738,5757,5779,5798,5819,5839,5858,5878,5898,5918,5938,5958,5979,5998,6018,6038,6058,6079,6098,6118,6137,6158,6179,6199,6219,6238,6259,6277,6297,6318,6339,6358,6377,6399,6419,6438,6459,6477,6499,6517,6538,6558,6579,6598,6617,6638,6658,6679,6697,6718,6738,6759,6779,6798,6819,6839,6857,6878,6897,6918,6938,6959,6977,6999,7017,7037,7057,7079,7097,7119,7138,7157,7178,7198,7217,7238,7259,7278,7298,7318,7337,7359,7378,7398,7418,7437,7459,7478,7499,7517,7537,7558,7577,7598,7619,7638,7658,7679,7699,7718,7738,7757,7778,7799,7818,7838,7858,7877,7898,7919,7938,7959,7979,7998,8018,8038,8058,8078,8098,8118,8139,8158,8177,8197,8217,8239,8258,8277,8297,8319,8339,8357,8378,8397,8419,8438,8458,8477,8498,8518,8538,8558,8579,8599,8618,8638,8658,8677,8697,8724,8737,8757,8778,8798,8818,8839,8857,8877,8898,8919,8937,8958,8978,8998,9017,9039,9058,9077,9098,9119,9137,9157,9178,9197,9218,9238,9258,9278,9299,9318,9337,9357,9378,9399,9419,9437,9459,9478,9499,9518,9538,9558,9578,9598,9618,9639,9657,9678,9697,9718,9738,9758,9779,9798,9819,9837,9859,9878,9898,9919,9939,9959,9978,9997,10019,10039,10057,10079,10099,10118,10139,10159,10177,10197,10218,10238,10259,10279,10298,10319,10338,10359,10378,10397,10417,10438,10457,10478,10499,10518,10538,10557,10577,10598,10617,10637,10658,10677,10697,10719,10738,10757,10777,10798,10818,10839,10858,10878,10897,10919,10938,10958,10978,10998,11018,11037,11059,11079,11097,11119,11137,11158,11179,11198,11218,11237,11258,11278,11298,11319,11338,11359,11377,11398,11418,11437,11458,11477,11499,11519,11538,11558,11577,11598,11619,11638,11658,11677,11699,11719,11738,11759,11779,11797,11818,11838,11858,11878,11898,11918,11938,11959,11977,11998,12019,12038,12059,12078,12097,12118,12138,12158,12177,12197,12218,12239,12257,12279,12298,12317,12339,12357,12379,12399,12418,12438,12459,12478,12497,12519,12537,12558,12578,12598,12619,12639,12658,12678,12698,12718,12737,12757,12779,12798,12819,12837,12858,12878,12899,12919,12938,12957,12978,12998,13018,13037,13059,13078,13098,13117,13139,13158,13179,13197,13218,13238,13259,13277,13298,13319,13338,13357,13377,13399,13419,13438,13458,13478,13499,13517,13537,13558,13578,13599,13617,13637,13658,13678,13697,13719,13737,13758,13778,13798,13818,13837,13857,13878,13898,13919,13937,13957,13978,13998,14018,14037,14058,14077,14098,14119,14137,14158,14178,14198,14218,14238,14259,14278,14297,14318,14339,14358,14377,14397,14418,14437,14459,14477,14497,14519,14537,14559,14577,14598,14618,14637,14658,14677,14697,14718,14738,14758,14779,14797,14817,14839,14859,14879,14898,14918,14938,14957,14977,14998,15017,15038,15057,15077,15098,15118,15138,15158,15177,15197,15217,15238,15259,15277,15299,15317,15338,15359,15377,15399,15418,15438,15458,15477,15498,15517,15538,15558,15579,15597,15619,15639,15657,15677,15699,15718,15739,15758,15778,15798,15818,15837,15859,15878,15897,15919,15938,15958,15978,15999,16017,16038,16058,16078,16098,16118,16139,16158,16177,16197,16219,16239,16259,16277,16297,16319,16339,16359,16377,16399,16418,16438,16459,16478,16497,16517,16537,16559,16579,16597,16617,16638,16658,16678,16697,16719,16738,16758,16778,16799,16817,16839,16858,16877,16898,16918,16937,16959,16977,16997,17019,17039,17058,17078,17097,17119,17138,17158,17177,17199,17218,17237,17258,17279,17299,17319,17337,17359,17378,17397,17418,17438,17457,17478,17499,17518,17537,17557,17579,17599,17618,17639,17659,17678,17698,17718,17739,17758,17778,17799,17818,17838,17857,17878,17897,17917,17937,17959,17978,17998,18018,18038,18057,18079,18098,18117,18139,18159,18178,18198,18219,18238,18259,18278,18298,18319,18339,18357,18377,18398,18419,18439,18457,18477,18498,18519,18538,18557,18578,18599,18619,18637,18657,18678,18698,18718,18738,18758,18779,18798,18817,18837,18858,18878,18898,18919,18939,18958,18977,18998,19017,19038,19057,19079,19097,19118,19137,19157,19179,19198,19217,19237,19258,19278,19299,19318,19338,19358,19378,19399,19417,19439,19459,19479,19497,19517,19538,19558,19578,19598,19617,19637,19658,19678,19697,19718,19739,19758,19778,19797,19818,19839,19858,19879,19898,19917,19938,19959,19978,19998,20019,20037,20057,20078,20098,20117,20139,20159,20177,20197,20218,20238,20258,20279,20297,20317,20337,20358,20377,20398,20417,20437,20457,20478,20498,20518,20538,20558,20578,20598,20618,20639,20658,20678,20697,20718],"xSR":741.5,"ySR":573.95,"xT1":424.9,"yT1":0,"xT2":1058.1,"yT2":0,"toosoon":0,"cond_shown":"Incongruent","ratio_trial":100,"L_num":13,"L_den":26,"R_num":6,"R_den":10,"correct_side":2,"subjID":"LauraValentinaCoteSanchez","gender":"1","school":"6","age":"11"},{"start_time":1551900020634,"click_time":1551900024263,"finger_time":1551900023763,"fix_duration":250,"trial":12,"RT":3129,"MT":500,"sideResp":1,"stimulus":[],"xmouse":[813,813,813,813,813,813,813,812,811,810,808,808,807,807,807,807,807,807,807,807,807,807,807,807,807,807,807,807,807,807,807,807,807,807,807,807,806,805,805,805,805,805,805,805,805,805,805,805,805,805,805,805,805,804,804,804,804,804,804,804,804,804,804,804,804,804,804,804,804,804,804,804,804,804,804,804,804,804,804,804,804,804,804,804,804,804,804,804,804,804,804,804,804,804,804,804,804,804,804,804,804,804,804,804,804,804,804,804,804,804,804,804,804,804,804,804,804,804,804,804,804,804,804,804,804,804,804,804,804,804,804,804,804,804,804,804,804,804,804,804,804,804,804,804,804,804,804,804,804,804,804,804,804,804,803,800,772,753,724,679,628,524,489,464,451,442,435,412,404,398,396,395,395,395,395,395,395,397,400,406,416,451],"ymouse":[579,579,579,579,579,580,580,580,581,582,583,583,584,584,584,584,584,584,584,584,584,584,584,584,584,584,584,584,584,584,584,584,584,584,584,584,584,584,584,584,584,584,584,584,584,584,584,584,584,584,584,584,584,584,584,584,584,584,584,584,584,584,584,584,584,584,584,584,584,584,584,584,584,584,584,584,584,584,584,584,584,584,584,584,584,584,584,584,584,584,584,584,584,584,584,584,584,584,584,584,584,584,584,584,584,584,584,584,584,584,584,584,584,584,584,584,584,584,584,584,584,584,584,584,584,584,584,584,584,584,584,584,584,584,584,584,584,584,584,584,584,584,584,584,584,584,584,584,584,584,584,584,584,584,584,579,531,509,475,430,382,299,268,242,220,203,183,131,116,106,100,96,94,93,91,90,89,84,80,74,61,34],"timestamp_mouse":[9,28,48,68,88,108,129,148,168,188,208,229,248,268,288,309,329,348,368,388,408,428,448,468,488,509,529,548,569,588,608,629,648,669,689,708,728,748,768,788,808,828,849,869,888,909,928,949,970,988,1008,1029,1048,1068,1088,1108,1128,1149,1169,1188,1208,1229,1249,1270,1288,1309,1328,1348,1368,1388,1408,1428,1449,1468,1488,1508,1528,1548,1568,1589,1609,1628,1649,1668,1688,1708,1729,1749,1768,1789,1808,1828,1848,1868,1888,1909,1929,1949,1969,1989,2009,2029,2048,2068,2089,2109,2128,2149,2168,2188,2209,2228,2248,2269,2289,2309,2328,2350,2370,2388,2408,2429,2449,2469,2489,2508,2528,2548,2569,2589,2608,2629,2648,2668,2688,2710,2728,2749,2768,2790,2808,2828,2848,2868,2888,2908,2930,2948,2969,2989,3008,3029,3048,3068,3088,3110,3129,3148,3168,3189,3208,3228,3248,3268,3288,3309,3328,3349,3368,3388,3408,3428,3448,3468,3488,3508,3528,3548,3568,3588,3609,3628],"xSR":741.5,"ySR":573.95,"xT1":424.9,"yT1":0,"xT2":1058.1,"yT2":0,"toosoon":0,"cond_shown":"Incongruent","ratio_trial":300,"L_num":1,"L_den":2,"R_num":3,"R_den":15,"correct_side":1,"subjID":"LauraValentinaCoteSanchez","gender":"1","school":"6","age":"11"},{"start_time":1551900026226,"click_time":1551900040862,"finger_time":1551900039422,"fix_duration":960.7228988682153,"trial":13,"RT":13196,"MT":1440,"sideResp":2,"stimulus":[],"xmouse":[816,816,816,816,816,816,816,816,816,816,816,816,816,816,816,816,816,816,816,816,816,816,816,816,816,816,816,816,816,816,816,816,816,816,816,816,816,816,816,816,816,816,816,816,816,816,816,816,816,816,816,816,816,816,816,816,816,816,816,816,816,816,816,816,816,816,816,816,816,816,816,816,816,816,816,816,816,816,816,816,816,816,816,816,816,816,816,816,816,816,816,816,816,816,816,816,816,816,816,816,816,816,816,816,816,816,816,816,816,816,816,816,816,816,816,816,816,816,816,816,816,816,816,816,816,816,816,816,816,816,816,816,816,816,816,816,816,816,816,816,816,816,816,816,816,816,816,816,816,816,816,816,816,816,816,816,816,816,816,816,816,816,816,816,816,816,816,816,816,816,816,816,816,816,816,816,816,816,816,816,816,816,816,816,816,816,816,816,816,816,816,816,816,816,816,816,816,816,816,816,816,816,816,816,816,816,816,816,816,816,816,816,816,816,816,816,816,816,816,816,816,816,816,816,816,816,816,816,816,816,816,816,816,816,816,816,816,816,816,816,816,816,816,816,816,816,816,816,816,816,816,816,816,816,816,816,816,816,816,816,816,816,816,816,816,816,816,816,816,816,816,816,816,816,816,816,816,816,816,816,816,816,816,816,816,816,816,816,816,816,816,816,816,816,816,816,816,816,816,816,816,816,816,816,816,816,816,816,816,816,816,816,816,816,816,816,816,816,816,816,816,816,816,816,816,816,816,816,816,816,816,816,816,816,816,816,816,816,816,816,816,816,816,816,816,816,816,816,816,816,816,816,816,816,816,816,816,816,816,816,816,816,816,816,816,816,816,816,816,816,816,816,816,816,816,816,816,816,816,816,816,816,816,816,816,816,816,816,816,816,816,816,816,816,816,816,816,816,816,816,816,816,816,816,816,816,816,816,816,816,816,816,816,816,816,816,816,816,816,816,816,816,816,816,816,816,816,816,816,816,816,816,816,816,816,816,816,816,816,816,816,816,816,816,816,816,816,816,816,816,816,816,816,816,816,816,816,816,816,816,816,816,816,816,816,816,816,816,816,816,816,816,816,816,816,816,816,816,816,816,816,816,816,816,816,816,816,816,816,816,816,816,816,816,816,816,816,816,816,816,816,816,816,816,816,816,816,816,816,816,816,816,816,816,816,816,816,816,816,816,816,816,816,816,816,816,816,816,816,816,816,816,816,816,816,816,816,816,816,816,816,816,816,816,816,816,816,816,816,816,816,816,816,816,816,816,816,816,816,816,816,816,816,816,816,816,816,816,816,816,816,816,816,816,816,816,816,816,816,816,816,816,816,816,816,816,816,816,816,816,816,816,816,816,816,816,816,816,816,816,816,816,816,816,816,816,816,816,816,816,816,816,816,816,816,816,816,816,816,816,816,816,816,816,816,816,816,816,816,816,816,816,816,816,816,816,816,816,816,816,816,816,816,816,816,816,816,816,816,816,816,816,816,816,816,816,816,816,754,578,405,315,315,315,315,315,315,315,315,315,315,315,315,315,315,315,315,315,315,315,315,315,315,315,315,315,167,147,110,94,68,38,9,0,0,0,0,0,0,0,0,0,0,0,0,36,104,197,394,495,520,527,533,536,554,594,659,731,790,823,823,823,823,822,823,833,845,852,860,917,991,1078],"ymouse":[605,605,605,605,605,605,605,605,605,605,605,605,605,605,605,605,605,605,605,605,605,605,605,605,605,605,605,605,605,605,605,605,605,605,605,605,605,605,605,605,605,605,605,605,605,605,605,605,605,605,605,605,605,605,605,605,605,605,605,605,605,605,605,605,605,605,605,605,605,605,605,605,605,605,605,605,605,605,605,605,605,605,605,605,605,605,605,605,605,605,605,605,605,605,605,605,605,605,605,605,605,605,605,605,605,605,605,605,605,605,605,605,605,605,605,605,605,605,605,605,605,605,605,605,605,605,605,605,605,605,605,605,605,605,605,605,605,605,605,605,605,605,605,605,605,605,605,605,605,605,605,605,605,605,605,605,605,605,605,605,605,605,605,605,605,605,605,605,605,605,605,605,605,605,605,605,605,605,605,605,605,605,605,605,605,605,605,605,605,605,605,605,605,605,605,605,605,605,605,605,605,605,605,605,605,605,605,605,605,605,605,605,605,605,605,605,605,605,605,605,605,605,605,605,605,605,605,605,605,605,605,605,605,605,605,605,605,605,605,605,605,605,605,605,605,605,605,605,605,605,605,605,605,605,605,605,605,605,605,605,605,605,605,605,605,605,605,605,605,605,605,605,605,605,605,605,605,605,605,605,605,605,605,605,605,605,605,605,605,605,605,605,605,605,605,605,605,605,605,605,605,605,605,605,605,605,605,605,605,605,605,605,605,605,605,605,605,605,605,605,605,605,605,605,605,605,605,605,605,605,605,605,605,605,605,605,605,605,605,605,605,605,605,605,605,605,605,605,605,605,605,605,605,605,605,605,605,605,605,605,605,605,605,605,605,605,605,605,605,605,605,605,605,605,605,605,605,605,605,605,605,605,605,605,605,605,605,605,605,605,605,605,605,605,605,605,605,605,605,605,605,605,605,605,605,605,605,605,605,605,605,605,605,605,605,605,605,605,605,605,605,605,605,605,605,605,605,605,605,605,605,605,605,605,605,605,605,605,605,605,605,605,605,605,605,605,605,605,605,605,605,605,605,605,605,605,605,605,605,605,605,605,605,605,605,605,605,605,605,605,605,605,605,605,605,605,605,605,605,605,605,605,605,605,605,605,605,605,605,605,605,605,605,605,605,605,605,605,605,605,605,605,605,605,605,605,605,605,605,605,605,605,605,605,605,605,605,605,605,605,605,605,605,605,605,605,605,605,605,605,605,605,605,605,605,605,605,605,605,605,605,605,605,605,605,605,605,605,605,605,605,605,605,605,605,605,605,605,605,605,605,605,605,605,605,605,605,605,605,605,605,605,605,605,605,605,605,605,605,605,605,605,605,605,605,605,605,605,605,605,605,605,605,605,605,605,605,605,605,605,605,605,605,605,605,605,605,605,605,605,605,605,605,605,605,605,605,605,605,605,605,605,605,605,605,605,605,605,605,605,605,605,605,605,605,605,605,605,605,605,605,605,605,605,605,605,605,605,605,605,605,605,605,605,605,605,605,605,605,632,724,831,831,831,831,831,831,831,831,831,831,831,831,831,831,831,831,831,831,831,831,831,831,831,831,831,866,849,816,796,760,727,696,625,603,589,579,570,559,551,526,494,455,360,291,193,62,0,0,0,0,0,0,0,0,0,0,0,0,0,0,0,0,0,2,3,3,4,7,35,58,83],"timestamp_mouse":[17,37,56,76,96,116,136,157,176,196,216,238,256,276,296,318,337,357,376,397,417,437,456,476,497,518,536,556,577,596,616,636,656,676,696,716,736,756,776,796,816,836,857,876,896,916,937,957,976,997,1017,1036,1057,1077,1098,1116,1136,1156,1176,1196,1216,1236,1257,1276,1296,1316,1338,1356,1378,1396,1417,1436,1457,1476,1497,1516,1537,1556,1578,1597,1617,1637,1657,1676,1698,1716,1736,1757,1776,1796,1817,1837,1856,1876,1897,1916,1936,1957,1976,1997,2016,2037,2056,2077,2096,2117,2136,2156,2176,2196,2216,2237,2256,2277,2297,2316,2336,2356,2376,2396,2416,2436,2456,2477,2496,2516,2537,2557,2577,2597,2617,2636,2657,2676,2696,2717,2737,2756,2776,2797,2817,2836,2856,2877,2896,2916,2936,2957,2977,2997,3016,3036,3056,3078,3097,3117,3137,3156,3177,3196,3218,3237,3257,3277,3296,3317,3337,3356,3376,3398,3417,3437,3457,3477,3497,3517,3537,3557,3577,3597,3618,3636,3657,3677,3697,3716,3737,3757,3777,3796,3817,3837,3857,3877,3896,3916,3936,3957,3977,3996,4016,4037,4057,4076,4096,4117,4138,4157,4177,4196,4216,4236,4256,4276,4296,4316,4337,4357,4377,4396,4417,4437,4457,4477,4496,4516,4536,4556,4576,4596,4616,4636,4656,4676,4696,4716,4737,4756,4777,4797,4817,4837,4856,4876,4897,4916,4936,4957,4976,4996,5016,5036,5057,5076,5096,5116,5136,5156,5176,5196,5216,5236,5257,5276,5297,5316,5337,5356,5377,5398,5417,5436,5456,5476,5496,5517,5537,5557,5576,5597,5616,5637,5657,5676,5696,5716,5736,5756,5777,5796,5816,5836,5856,5876,5896,5916,5936,5956,5978,5996,6016,6036,6057,6076,6096,6116,6136,6158,6177,6196,6216,6237,6257,6276,6298,6316,6336,6356,6376,6396,6416,6436,6457,6477,6497,6516,6537,6556,6576,6596,6616,6637,6656,6676,6696,6718,6736,6757,6777,6796,6816,6837,6856,6877,6896,6916,6936,6957,6976,6997,7016,7038,7056,7076,7097,7116,7136,7157,7176,7197,7217,7236,7257,7276,7296,7317,7336,7357,7376,7398,7417,7436,7456,7477,7496,7516,7536,7556,7577,7597,7616,7636,7656,7677,7697,7716,7738,7756,7776,7796,7818,7836,7856,7876,7896,7916,7936,7956,7977,7997,8016,8036,8056,8076,8097,8118,8137,8157,8176,8196,8216,8237,8257,8276,8296,8316,8337,8356,8377,8397,8417,8437,8457,8477,8497,8517,8536,8556,8577,8596,8617,8638,8656,8677,8696,8716,8736,8756,8776,8796,8816,8837,8858,8876,8896,8916,8936,8956,8978,8997,9016,9037,9057,9077,9097,9116,9137,9157,9178,9197,9216,9236,9258,9276,9296,9317,9336,9356,9376,9396,9417,9436,9456,9478,9496,9516,9537,9556,9576,9597,9616,9636,9656,9676,9696,9717,9736,9757,9777,9796,9816,9836,9856,9876,9896,9916,9936,9956,9976,9996,10016,10037,10057,10076,10098,10117,10137,10157,10177,10197,10217,10237,10256,10277,10296,10316,10336,10356,10376,10396,10416,10436,10457,10477,10496,10516,10536,10556,10576,10596,10617,10637,10656,10676,10696,10716,10736,10757,10777,10797,10816,10836,10856,10876,10897,10917,10937,10957,10976,10997,11017,11037,11056,11076,11097,11117,11136,11157,11176,11196,11216,11238,11257,11277,11296,11317,11336,11357,11377,11396,11417,11436,11457,11476,11497,11517,11536,11558,11577,11597,11616,11636,11656,11677,11698,11717,11736,11757,11776,11796,11816,11836,11856,11877,11896,11918,11936,11957,11976,11996,12017,12037,12056,12076,12097,12116,12137,12157,12176,12196,12216,12237,12257,12276,12298,12316,12337,12356,12376,12396,12416,12437,12457,12476,12496,12517,12536,12556,12576,12596,12617,12637,12656,12677,12696,12717,12737,12756,12776,12796,12817,12837,12857,12877,12897,12916,12937,12957,12976,12996,13016,13036,13056,13076,13096,13116,13137,13156,13176,13196,13216,13236,13256,13276,13296,13316,13337,13357,13376,13396,13416,13436,13456,13478,13496,13516,13536,13558,13576,13597,13616,13636,13657,13676,13696,13716,13736,13757,13776,13796,13816,13836,13856,13876,13896,13916,13937,13957,13976,13996,14016,14037,14056,14077,14097,14116,14136,14156,14176,14197,14216,14236,14256,14276,14296,14316,14336,14357,14376,14397,14417,14436,14456,14477,14497,14516,14537,14557,14576,14596,14616,14636],"xSR":741.5,"ySR":573.95,"xT1":424.9,"yT1":0,"xT2":1058.1,"yT2":0,"toosoon":0,"cond_shown":"Incongruent","ratio_trial":200,"L_num":4,"L_den":6,"R_num":14,"R_den":30,"correct_side":1,"subjID":"LauraValentinaCoteSanchez","gender":"1","school":"6","age":"11"},{"start_time":1551900047159,"click_time":1551900048902,"finger_time":1551900048623,"fix_duration":935.4782221328379,"trial":14,"RT":1464,"MT":279,"sideResp":1,"stimulus":[],"xmouse":[778,778,778,778,778,778,778,778,778,778,778,778,778,778,778,778,778,778,778,778,778,778,778,778,778,778,778,778,778,778,778,778,778,778,778,778,778,778,777,777,777,777,777,777,777,777,777,777,777,777,777,777,777,776,776,776,776,776,776,776,776,776,776,776,776,776,774,774,774,774,772,769,763,734,711,683,637,555,529,501,496,491,483,472,458,454,452,451],"ymouse":[635,635,635,635,635,635,635,635,635,635,635,634,634,634,634,634,634,634,634,634,634,634,634,634,634,634,634,634,634,634,634,634,634,634,634,634,634,634,633,633,633,633,633,633,633,633,633,633,633,633,633,633,633,633,633,633,633,633,633,633,633,633,633,633,633,633,633,633,633,633,631,621,608,570,543,511,443,341,298,246,230,216,199,179,137,118,101,90],"timestamp_mouse":[11,37,43,64,85,103,124,143,163,183,204,223,243,264,284,303,323,344,364,383,403,424,443,463,484,503,524,544,564,583,604,624,644,663,683,704,724,743,763,783,803,823,844,864,884,904,934,943,963,983,1003,1023,1044,1063,1083,1103,1123,1143,1163,1184,1203,1223,1243,1263,1283,1305,1323,1343,1363,1383,1403,1423,1443,1464,1483,1503,1523,1543,1564,1584,1604,1624,1643,1663,1683,1703,1723,1743],"xSR":741.5,"ySR":573.95,"xT1":424.9,"yT1":0,"xT2":1058.1,"yT2":0,"toosoon":0,"cond_shown":"Congruent","ratio_trial":100,"L_num":7,"L_den":14,"R_num":15,"R_den":25,"correct_side":2,"subjID":"LauraValentinaCoteSanchez","gender":"1","school":"6","age":"11"},{"start_time":1551900051565,"click_time":1551900053823,"finger_time":1551900053062,"fix_duration":1222.7193467367542,"trial":15,"RT":1497,"MT":761,"sideResp":2,"stimulus":[],"xmouse":[784,784,784,784,784,784,784,784,784,784,784,784,784,784,784,784,784,784,784,784,784,784,784,784,784,784,784,784,784,784,784,784,784,784,784,784,784,784,784,784,784,784,784,784,784,784,784,784,784,784,784,784,784,784,784,784,784,784,784,784,784,784,784,784,784,784,784,784,784,784,784,784,790,836,844,847,851,856,861,863,866,868,868,868,866,864,864,869,893,908,917,929,949,992,1024,1036,1043,1045,1045,1045,1045,1045,1045,1046,1049,1052,1053,1054,1055,1055,1057,1058,1060],"ymouse":[597,597,597,597,597,597,597,597,597,597,597,597,597,597,597,597,597,597,597,597,597,597,597,597,597,597,597,597,597,597,597,597,597,597,597,597,597,597,597,597,597,597,597,597,597,597,597,597,597,597,597,597,597,597,597,597,597,597,597,597,597,597,597,597,597,597,597,597,597,597,597,597,597,597,594,592,588,581,557,539,522,504,485,447,434,412,387,357,301,266,235,202,165,95,57,42,35,33,32,32,32,32,32,32,32,32,32,32,33,33,33,33,33],"timestamp_mouse":[18,42,58,77,97,118,137,157,177,198,218,238,258,277,297,318,338,358,377,397,417,438,457,478,497,517,537,557,578,598,617,637,658,677,697,717,738,759,778,797,817,837,857,877,898,918,937,958,978,998,1018,1037,1057,1077,1097,1118,1138,1158,1177,1197,1218,1237,1258,1278,1298,1318,1338,1357,1377,1398,1417,1437,1457,1477,1497,1517,1538,1557,1577,1597,1617,1637,1658,1678,1698,1717,1737,1757,1777,1798,1817,1837,1858,1877,1898,1917,1938,1957,1977,1998,2017,2037,2058,2077,2097,2117,2137,2157,2177,2197,2217,2237,2258],"xSR":741.5,"ySR":573.95,"xT1":424.9,"yT1":0,"xT2":1058.1,"yT2":0,"toosoon":0,"cond_shown":"Incongruent","ratio_trial":200,"L_num":3,"L_den":10,"R_num":1,"R_den":2,"correct_side":2,"subjID":"LauraValentinaCoteSanchez","gender":"1","school":"6","age":"11"},{"start_time":1551900056615,"click_time":1551900071442,"finger_time":1551900071122,"fix_duration":1411.0750703917288,"trial":16,"RT":14507,"MT":320,"sideResp":1,"stimulus":[],"xmouse":[765,765,765,765,765,765,765,765,765,765,765,765,765,765,765,765,765,765,765,765,765,765,765,765,765,765,765,765,765,765,765,765,765,765,765,765,765,765,765,765,765,765,765,765,765,765,765,765,765,765,765,765,765,765,765,765,765,765,765,765,765,765,765,765,765,765,765,765,765,765,765,765,765,765,765,765,765,765,765,765,765,765,765,765,765,765,765,765,765,765,765,765,765,765,765,765,765,765,765,765,765,765,765,765,765,765,765,765,765,765,765,765,765,765,765,765,765,765,765,765,765,765,765,765,765,765,765,765,765,765,765,765,765,765,765,765,765,765,765,765,765,765,765,765,765,765,765,765,765,765,765,765,765,765,765,765,765,765,765,765,765,765,765,765,765,765,765,765,765,765,765,765,765,765,765,765,765,765,765,765,765,765,765,765,765,765,765,765,765,765,765,765,765,765,765,765,765,765,765,765,765,765,765,765,765,765,765,765,765,765,765,765,765,765,765,765,765,765,765,765,765,765,765,765,765,765,765,765,765,765,765,765,765,765,765,765,765,765,765,765,765,765,765,765,765,765,765,765,765,765,765,765,765,765,765,765,765,765,765,765,765,765,765,765,765,765,765,765,765,765,765,765,765,765,765,765,765,765,765,765,765,765,765,765,765,765,765,765,765,765,765,765,765,765,765,765,765,765,765,765,765,765,765,765,765,765,765,765,765,765,765,765,765,765,765,765,765,765,765,765,765,765,765,765,765,765,765,765,765,765,765,765,765,765,765,765,765,765,765,765,765,765,765,765,765,765,765,765,765,765,765,765,765,765,765,765,765,765,765,765,765,765,765,765,765,765,765,765,765,765,765,765,765,765,765,765,765,765,765,765,765,765,765,765,765,765,765,765,765,765,765,765,765,765,765,765,765,765,765,765,765,765,765,765,765,765,765,765,765,765,765,765,765,765,765,765,765,765,765,765,765,765,765,765,765,765,765,765,765,765,765,765,765,765,765,765,765,765,765,765,765,765,765,765,765,765,765,765,765,765,765,765,765,765,765,765,765,765,765,765,765,765,765,765,765,765,765,765,765,765,765,765,765,765,765,765,765,765,765,765,765,765,765,765,765,765,765,765,765,765,765,765,765,765,765,765,765,765,765,765,765,765,765,765,765,765,765,765,765,765,765,765,765,765,765,765,765,765,765,765,765,765,765,765,765,765,765,765,765,765,765,765,765,765,765,765,765,765,765,765,765,765,765,765,765,765,765,765,765,765,765,765,765,765,765,765,765,765,765,765,765,765,765,765,765,765,765,765,765,765,765,765,765,765,765,765,765,765,765,765,765,765,765,765,765,765,765,765,765,765,765,765,765,765,765,765,765,765,765,765,765,765,765,765,765,765,765,765,765,765,765,765,765,765,765,765,765,765,765,765,765,765,765,765,765,765,765,765,765,765,765,765,765,765,765,765,765,765,765,765,765,765,765,765,765,765,765,765,765,765,765,765,765,765,765,765,765,765,765,765,765,765,765,765,765,765,765,765,765,765,765,765,765,765,765,765,765,765,765,765,765,765,765,765,765,765,765,765,765,765,765,765,765,765,765,765,765,765,765,765,765,765,765,765,765,765,765,765,765,765,765,765,765,765,765,765,765,765,765,765,765,765,766,766,760,732,701,684,664,648,631,611,595,580,571,562,553,542,517,501,488,483],"ymouse":[638,638,638,638,638,638,638,638,638,638,638,638,638,638,638,638,638,638,638,638,638,638,638,638,638,638,638,638,638,638,638,638,638,638,638,638,638,638,638,638,638,638,638,638,638,638,638,638,638,638,638,638,638,638,638,638,638,638,638,638,638,638,638,638,638,638,638,638,638,638,638,638,638,638,638,638,638,638,638,638,638,638,638,638,638,638,638,638,638,638,638,638,638,638,638,638,638,638,638,638,638,638,638,638,638,638,638,638,638,638,638,638,638,638,638,638,638,638,638,638,638,638,638,638,638,638,638,638,638,638,638,638,638,638,638,638,638,638,638,638,638,638,638,638,638,638,638,638,638,638,638,638,638,638,638,638,638,638,638,638,638,638,638,638,638,638,638,638,638,638,638,638,638,638,638,638,638,638,638,638,638,638,638,638,638,638,638,638,638,638,638,638,638,638,638,638,638,638,638,638,638,638,638,638,638,638,638,638,638,638,638,638,638,638,638,638,638,638,638,638,638,638,638,638,638,638,638,638,638,638,638,638,638,638,638,638,638,638,638,638,638,638,638,638,638,638,638,638,638,638,638,638,638,638,638,638,638,638,638,638,638,638,638,638,638,638,638,638,638,638,638,638,638,638,638,638,638,638,638,638,638,638,638,638,638,638,638,638,638,638,638,638,638,638,638,638,638,638,638,638,638,638,638,638,638,638,638,638,638,638,638,638,638,638,638,638,638,638,638,638,638,638,638,638,638,638,638,638,638,638,638,638,638,638,638,638,638,638,638,638,638,638,638,638,638,638,638,638,638,638,638,638,638,638,638,638,638,638,638,638,638,638,638,638,638,638,638,638,638,638,638,638,638,638,638,638,638,638,638,638,638,638,638,638,638,638,638,638,638,638,638,638,638,638,638,638,638,638,638,638,638,638,638,638,638,638,638,638,638,638,638,638,638,638,638,638,638,638,638,638,638,638,638,638,638,638,638,638,638,638,638,638,638,638,638,638,638,638,638,638,638,638,638,638,638,638,638,638,638,638,638,638,638,638,638,638,638,638,638,638,638,638,638,638,638,638,638,638,638,638,638,638,638,638,638,638,638,638,638,638,638,638,638,638,638,638,638,638,638,638,638,638,638,638,638,638,638,638,638,638,638,638,638,638,638,638,638,638,638,638,638,638,638,638,638,638,638,638,638,638,638,638,638,638,638,638,638,638,638,638,638,638,638,638,638,638,638,638,638,638,638,638,638,638,638,638,638,638,638,638,638,638,638,638,638,638,638,638,638,638,638,638,638,638,638,638,638,638,638,638,638,638,638,638,638,638,638,638,638,638,638,638,638,638,638,638,638,638,638,638,638,638,638,638,638,638,638,638,638,638,638,638,638,638,638,638,638,638,638,638,638,638,638,638,638,638,638,638,638,638,638,638,638,638,638,638,638,638,638,638,638,638,638,638,638,638,638,638,638,638,638,638,638,638,638,638,638,638,638,638,638,638,638,638,638,638,638,638,638,638,638,638,638,638,638,638,638,638,638,638,638,638,638,638,638,638,638,638,638,638,638,638,638,638,638,638,638,638,638,638,638,638,638,638,638,638,638,638,638,638,638,638,638,638,638,638,638,638,638,638,638,638,638,638,638,638,638,638,638,638,638,638,637,630,613,549,488,453,418,397,372,342,313,277,258,244,228,208,160,131,107,94],"timestamp_mouse":[11,42,47,68,88,107,127,147,167,187,207,228,247,268,288,309,327,347,367,388,407,427,449,468,488,507,528,547,568,587,608,627,647,668,688,707,727,748,767,787,808,827,847,867,887,907,927,948,967,987,1007,1027,1047,1067,1088,1107,1127,1147,1167,1187,1207,1228,1247,1268,1288,1307,1329,1347,1368,1388,1408,1428,1448,1467,1487,1507,1527,1548,1567,1587,1607,1627,1648,1667,1688,1708,1727,1748,1768,1787,1807,1827,1847,1867,1888,1908,1927,1947,1967,1988,2008,2027,2047,2068,2087,2107,2127,2148,2167,2187,2207,2227,2248,2267,2287,2307,2328,2347,2368,2388,2407,2428,2448,2467,2489,2507,2527,2548,2567,2587,2608,2627,2647,2668,2687,2707,2728,2747,2767,2788,2808,2827,2847,2867,2889,2908,2929,2948,2967,2987,3007,3027,3047,3068,3088,3108,3127,3148,3167,3188,3207,3228,3247,3267,3287,3307,3328,3347,3368,3387,3407,3428,3447,3467,3488,3507,3528,3547,3567,3588,3608,3627,3647,3667,3687,3707,3727,3747,3767,3787,3809,3827,3847,3869,3887,3907,3927,3948,3968,3988,4008,4028,4048,4067,4087,4108,4127,4148,4168,4187,4207,4227,4248,4268,4287,4307,4327,4347,4367,4388,4407,4427,4447,4467,4487,4507,4527,4548,4567,4589,4609,4627,4647,4667,4688,4707,4729,4747,4768,4787,4807,4827,4847,4867,4887,4907,4927,4948,4967,4987,5007,5028,5047,5067,5088,5107,5127,5147,5168,5187,5209,5228,5247,5267,5288,5307,5328,5348,5367,5388,5407,5428,5448,5467,5487,5507,5528,5548,5568,5588,5607,5628,5647,5668,5688,5707,5727,5747,5768,5787,5807,5827,5848,5867,5887,5907,5929,5947,5967,5988,6007,6028,6048,6068,6087,6108,6127,6147,6168,6187,6208,6227,6247,6267,6287,6307,6327,6347,6367,6388,6407,6428,6447,6469,6488,6508,6528,6547,6568,6588,6607,6627,6648,6667,6688,6708,6727,6747,6768,6788,6808,6828,6848,6868,6888,6908,6927,6948,6968,6987,7007,7027,7048,7067,7088,7107,7128,7148,7167,7189,7208,7228,7247,7267,7288,7307,7328,7347,7368,7387,7407,7428,7447,7468,7488,7508,7528,7548,7567,7587,7607,7627,7648,7667,7688,7709,7727,7747,7767,7787,7808,7828,7847,7868,7887,7908,7928,7947,7968,7988,8007,8027,8048,8067,8088,8108,8127,8147,8167,8188,8207,8227,8247,8268,8287,8307,8327,8348,8368,8387,8408,8427,8447,8468,8488,8508,8527,8547,8567,8588,8607,8628,8648,8668,8688,8708,8728,8747,8768,8787,8808,8828,8847,8868,8887,8908,8928,8948,8968,8987,9007,9027,9047,9067,9087,9109,9128,9147,9167,9187,9208,9228,9247,9267,9288,9307,9328,9347,9368,9389,9407,9427,9448,9467,9487,9507,9527,9548,9568,9587,9608,9628,9648,9669,9687,9707,9729,9748,9767,9787,9808,9828,9848,9867,9888,9908,9928,9947,9968,9988,10008,10027,10047,10067,10087,10108,10127,10148,10167,10187,10207,10227,10247,10267,10288,10307,10328,10347,10367,10387,10408,10428,10448,10467,10487,10507,10527,10548,10567,10587,10607,10628,10648,10667,10687,10707,10727,10747,10768,10787,10807,10827,10847,10867,10887,10907,10928,10948,10968,10988,11007,11028,11047,11067,11088,11107,11127,11148,11167,11187,11208,11227,11247,11269,11287,11307,11327,11348,11367,11387,11407,11427,11447,11468,11487,11507,11527,11547,11567,11587,11608,11627,11647,11667,11687,11707,11728,11749,11768,11787,11807,11828,11847,11868,11888,11907,11928,11947,11968,11988,12007,12027,12047,12067,12088,12107,12127,12147,12167,12187,12208,12227,12247,12267,12287,12307,12327,12347,12369,12388,12408,12427,12447,12467,12487,12507,12527,12549,12567,12587,12607,12627,12647,12669,12687,12707,12727,12747,12767,12787,12807,12828,12847,12868,12887,12907,12927,12948,12967,12987,13007,13027,13047,13067,13087,13108,13127,13148,13167,13187,13207,13227,13247,13268,13288,13307,13327,13349,13368,13387,13407,13427,13448,13467,13487,13507,13527,13548,13567,13587,13607,13628,13648,13667,13687,13707,13727,13747,13767,13787,13808,13828,13848,13867,13888,13907,13927,13948,13967,13988,14007,14028,14048,14068,14088,14108,14129,14147,14167,14188,14207,14227,14248,14268,14288,14308,14328,14348,14367,14388,14407,14428,14448,14468,14487,14507,14528,14547,14567,14588,14608,14627,14647,14667,14688,14707,14728,14747,14767,14787,14807,14827],"xSR":741.5,"ySR":573.95,"xT1":424.9,"yT1":0,"xT2":1058.1,"yT2":0,"toosoon":0,"cond_shown":"Incongruent","ratio_trial":300,"L_num":4,"L_den":5,"R_num":8,"R_den":16,"correct_side":1,"subjID":"LauraValentinaCoteSanchez","gender":"1","school":"6","age":"11"},{"start_time":1551900077129,"click_time":1551900079682,"finger_time":1551900078183,"fix_duration":1164.8357909262527,"trial":17,"RT":1054,"MT":1499,"sideResp":2,"stimulus":[],"xmouse":[798,798,798,798,798,798,798,798,798,798,798,798,798,798,798,798,798,798,798,798,798,798,798,798,798,798,798,798,798,798,798,798,798,798,798,798,798,798,798,798,798,798,798,798,798,798,798,798,798,799,811,831,854,873,873,873,873,873,873,873,873,873,873,873,873,873,873,873,873,873,873,873,873,873,873,873,873,873,873,873,873,873,873,867,854,850,852,858,874,880,883,884,884,884,884,884,884,884,884,884,885,890,895,905,905,905,905,905,901,902,906,908,908,909,909,907,905,905,922,933,943,945,943,939,970,1019,1077,1154],"ymouse":[634,634,634,634,634,634,634,634,634,634,634,634,634,634,634,634,634,634,634,634,634,634,634,634,634,634,634,634,634,634,634,634,634,634,634,634,634,634,634,634,634,634,634,634,634,634,634,634,634,630,615,582,542,514,514,514,514,514,514,514,514,514,514,514,514,514,514,514,514,514,514,514,514,514,514,514,514,514,514,514,514,514,514,527,548,562,564,561,526,506,492,486,486,486,486,486,486,486,486,499,524,559,594,635,636,636,636,636,663,673,678,678,678,674,668,653,638,618,555,517,472,411,350,266,227,186,142,78],"timestamp_mouse":[14,38,53,74,93,114,134,153,173,193,213,233,253,273,294,313,333,354,373,393,414,434,453,473,493,514,533,553,574,593,614,634,653,674,693,713,733,754,773,794,814,833,853,874,8