[{"start_time":1551901155059,"click_time":1551901159189,"finger_time":1551901155069,"fix_duration":547.976530158109,"trial":0,"RT":10,"MT":4120,"sideResp":1,"stimulus":"img/750/equaldotanddens/R/12_Ratio_750_L_3_R_4.png","xmouse":[803,803,803,803,803,803,803,803,803,803,803,803,803,803,803,803,803,803,803,803,803,803,803,803,803,803,803,803,803,803,803,803,803,802,795,787,782,781,782,786,789,791,791,791,791,791,791,791,791,791,791,791,791,791,791,791,791,791,791,791,791,791,791,791,791,790,788,786,783,782,781,781,781,781,781,781,781,780,780,780,780,780,780,780,780,780,780,780,780,780,780,780,780,780,780,780,780,780,780,780,780,780,780,780,780,780,780,780,780,780,780,780,780,780,780,780,780,780,780,780,780,780,780,780,780,780,780,780,780,780,780,780,780,780,780,780,780,780,780,780,780,780,780,780,780,780,780,780,780,780,780,780,780,780,780,780,780,780,780,780,780,780,780,780,780,780,780,780,780,780,780,780,780,780,780,780,780,780,780,780,780,780,780,780,780,780,780,780,780,780,780,779,779,775,774,770,769,761,744,726,688,644,610,562,548,536,524],"ymouse":[508,508,508,508,508,508,508,508,508,508,508,508,508,508,508,508,508,508,508,508,508,508,508,508,508,508,508,508,508,508,508,508,508,508,512,519,524,533,537,540,543,545,545,545,545,545,545,545,545,545,545,545,545,545,545,545,545,545,545,545,545,545,545,546,548,549,552,555,560,563,565,568,585,597,604,609,613,617,617,617,617,617,617,617,617,617,617,617,617,617,617,617,617,617,617,617,617,617,617,617,617,617,617,617,617,617,617,617,617,617,617,617,617,617,617,617,617,617,617,617,617,617,617,617,617,617,617,617,617,617,617,617,617,617,617,617,617,617,617,617,617,617,617,617,617,617,617,617,617,617,617,617,617,617,617,617,617,617,617,617,617,617,617,617,617,617,617,617,617,617,617,617,617,617,617,617,617,617,617,617,617,617,617,617,617,617,617,617,617,617,617,617,614,597,593,582,577,546,491,443,374,306,238,158,132,111,91],"timestamp_mouse":[10,29,50,69,90,109,130,150,170,189,209,229,249,269,289,310,330,349,370,389,409,430,449,470,489,510,529,549,570,589,610,630,649,669,689,710,729,749,769,789,810,829,849,870,890,910,929,949,970,989,1010,1029,1050,1070,1089,1110,1129,1149,1170,1190,1209,1230,1250,1269,1289,1310,1330,1349,1369,1389,1410,1429,1450,1469,1490,1510,1529,1550,1570,1590,1609,1630,1649,1671,1689,1710,1729,1749,1770,1789,1810,1829,1850,1869,1890,1909,1930,1950,1970,1990,2009,2029,2050,2071,2089,2109,2130,2150,2171,2189,2209,2229,2249,2270,2289,2309,2330,2350,2369,2389,2409,2429,2449,2469,2490,2510,2531,2550,2569,2589,2609,2629,2649,2671,2689,2710,2729,2750,2769,2789,2809,2830,2851,2869,2889,2909,2929,2950,2970,2989,3009,3029,3049,3070,3089,3109,3129,3149,3169,3189,3209,3229,3249,3270,3289,3309,3329,3350,3369,3389,3409,3429,3450,3469,3489,3509,3529,3550,3569,3591,3610,3630,3651,3669,3689,3709,3729,3751,3769,3789,3809,3829,3850,3869,3890,3909,3929,3949,3969,3989,4009,4029,4049,4069,4089,4109,4130],"xSR":741.5,"ySR":469.95,"xT1":424.9,"yT1":0,"xT2":1058.1,"yT2":0,"toosoon":0,"cond_shown":"equaldotanddens","ratio_trial":750,"smaller_num":"3","larger_num":"4","correct_side":2,"subjID":"LauraValentinaCoteSanchez8","gender":"1","age":"11","school":"6","test":{"fix_dur":[250,1500],"timestim":300,"targets_dim":[100,100],"targets_relative_coord":[0.3,0.7],"size_stim":[880,420],"start_dim":[100,100],"size_start":[300,300],"size_fix":60,"samplingrate":20,"img_types":["equaldotsize","equaldotanddens","randomdotsizeEA"],"ratios":[250,500,750,900],"rep_conds":9,"nTrials":120,"trials_to_rest":500,"Trials_order":[67,16,0,70,14,85,82,50,55,26,112,58,4,81,41,91,28,23,117,17,35,110,8,47,10,89,22,100,88,48,49,37,56,9,107,74,53,40,76,7,15,5,32,43,84,21,52,62,68,69,115,95,108,3,36,2,109,61,19,33,12,34,97,80,92,104,78,96,106,116,24,44,51,114,54,105,77,83,64,65,66,99,1,71,113,42,27,103,72,38,111,11,93,30,18,79,46,6,90,31,57,59,98,29,20,73,94,25,39,118,60,86,45,101,13,75,63,119,102,87],"cond_shown":["equaldotanddens","equaldotanddens","equaldotsize","equaldotanddens","randomdotsizeEA","equaldotanddens","equaldotanddens","randomdotsizeEA","equaldotanddens","randomdotsizeEA","equaldotanddens","equaldotanddens","equaldotanddens","equaldotsize","randomdotsizeEA","equaldotanddens","equaldotanddens","randomdotsizeEA","equaldotsize","randomdotsizeEA","randomdotsizeEA","randomdotsizeEA","randomdotsizeEA","randomdotsizeEA","equaldotanddens","randomdotsizeEA","equaldotanddens","equaldotanddens","equaldotanddens","equaldotsize","equaldotanddens","equaldotanddens","randomdotsizeEA","equaldotsize","randomdotsizeEA","randomdotsizeEA","randomdotsizeEA","equaldotanddens","equaldotanddens","equaldotanddens","equaldotsize","randomdotsizeEA","randomdotsizeEA","equaldotanddens","equaldotsize","equaldotsize","equaldotanddens","randomdotsizeEA","randomdotsizeEA","equaldotsize","equaldotanddens","randomdotsizeEA","equaldotsize","equaldotsize","equaldotsize","randomdotsizeEA","equaldotanddens","equaldotanddens","equaldotanddens","equaldotsize","equaldotsize","equaldotanddens","equaldotanddens","randomdotsizeEA","randomdotsizeEA","randomdotsizeEA","equaldotsize","equaldotsize","equaldotanddens","randomdotsizeEA","equaldotsize","randomdotsizeEA","equaldotsize","equaldotsize","equaldotsize","equaldotsize","randomdotsizeEA","randomdotsizeEA","equaldotanddens","randomdotsizeEA","equaldotsize","equaldotsize","equaldotanddens","randomdotsizeEA","randomdotsizeEA","equaldotsize","equaldotsize","equaldotanddens","equaldotsize","randomdotsizeEA","equaldotsize","randomdotsizeEA","equaldotsize","equaldotsize","equaldotsize","equaldotanddens","equaldotanddens","equaldotsize","equaldotsize","equaldotanddens","equaldotsize","randomdotsizeEA","randomdotsizeEA","randomdotsizeEA","randomdotsizeEA","equaldotanddens","equaldotanddens","equaldotanddens","equaldotsize","equaldotanddens","equaldotsize","randomdotsizeEA","equaldotsize","randomdotsizeEA","equaldotanddens","equaldotsize","equaldotsize","randomdotsizeEA","equaldotsize","equaldotsize"],"ratio_trial":[750,500,250,900,250,250,900,250,750,250,500,900,500,900,500,750,500,900,900,500,900,250,750,900,900,500,900,500,500,250,250,250,750,900,900,250,500,500,500,750,500,500,750,750,250,900,500,250,750,900,750,900,250,500,250,250,250,250,750,900,250,900,250,750,750,750,750,250,900,750,250,750,500,750,750,900,500,900,500,500,750,500,250,900,500,750,500,750,250,250,500,900,900,750,750,750,900,750,750,750,900,900,250,500,750,250,900,250,500,900,250,250,900,500,250,500,500,900,750,500],"smaller_num":["3","1","1","9","6","2","18","5","9","5","2","9","6","18","4","15","5","18","18","6","18","2","6","18","18","4","9","6","3","3","6","1","12","18","18","6","6","6","2","15","5","2","6","3","1","18","1","2","15","9","15","18","6","6","3","4","4","2","3","18","4","9","3","6","15","3","3","2","18","6","6","15","2","3","12","18","6","9","5","5","6","2","6","18","5","15","9","6","3","6","4","9","9","3","6","12","18","12","6","15","18","18","6","1","3","2","18","6","2","18","6","2","18","5","2","2","1","18","15","2"],"larger_num":["4","2","4","10","24","8","20","20","12","20","4","10","12","20","8","20","10","20","20","12","20","8","8","20","20","8","10","12","6","12","24","4","16","20","20","24","12","12","4","20","10","4","8","4","4","20","2","8","20","10","20","20","24","12","12","16","16","8","4","20","16","10","12","8","20","4","4","8","20","8","24","20","4","4","16","20","12","10","10","10","8","4","24","20","10","20","18","8","12","24","8","10","10","4","8","16","20","16","8","20","20","20","24","2","4","8","20","24","4","20","24","8","20","10","8","4","2","20","20","4"],"correct_side":[2,2,2,2,1,1,1,2,2,2,1,1,1,1,1,2,2,2,2,1,2,1,1,1,2,1,2,1,2,2,2,2,2,1,1,1,1,1,2,2,2,1,1,2,2,1,2,1,1,2,1,1,2,1,1,2,1,1,2,2,2,2,2,1,1,1,1,1,2,1,1,1,2,1,2,2,1,2,2,2,2,2,2,1,2,2,2,1,1,2,1,2,2,2,2,2,1,2,1,2,1,2,1,2,2,1,2,1,2,1,2,1,1,2,1,2,2,2,1,1],"img_shown":["img/750/equaldotanddens/R/12_Ratio_750_L_3_R_4.png","img/500/equaldotanddens/R/12_Ratio_500_L_1_R_2.png","img/250/equaldotsize/R/8_Ratio_250_L_1_R_4.png","img/900/equaldotanddens/R/5_Ratio_900_L_9_R_10.png","img/250/randomdotsizeEA/L/5_Ratio_250_L_24_R_6.png","img/250/equaldotanddens/L/3_Ratio_250_L_8_R_2.png","img/900/equaldotanddens/L/10_Ratio_900_L_20_R_18.png","img/250/randomdotsizeEA/R/12_Ratio_250_L_5_R_20.png","img/750/equaldotanddens/R/15_Ratio_750_L_9_R_12.png","img/250/randomdotsizeEA/R/12_Ratio_250_L_5_R_20.png","img/500/equaldotanddens/L/5_Ratio_500_L_4_R_2.png","img/900/equaldotanddens/L/1_Ratio_900_L_10_R_9.png","img/500/equaldotanddens/L/11_Ratio_500_L_12_R_6.png","img/900/equaldotsize/L/4_Ratio_900_L_20_R_18.png","img/500/randomdotsizeEA/L/8_Ratio_500_L_8_R_4.png","img/750/equaldotanddens/R/4_Ratio_750_L_15_R_20.png","img/500/equaldotanddens/R/14_Ratio_500_L_5_R_10.png","img/900/randomdotsizeEA/R/13_Ratio_900_L_18_R_20.png","img/900/equaldotsize/R/11_Ratio_900_L_18_R_20.png","img/500/randomdotsizeEA/L/13_Ratio_500_L_12_R_6.png","img/900/randomdotsizeEA/R/13_Ratio_900_L_18_R_20.png","img/250/randomdotsizeEA/L/1_Ratio_250_L_8_R_2.png","img/750/randomdotsizeEA/L/14_Ratio_750_L_8_R_6.png","img/900/randomdotsizeEA/L/10_Ratio_900_L_20_R_18.png","img/900/equaldotanddens/R/11_Ratio_900_L_18_R_20.png","img/500/randomdotsizeEA/L/8_Ratio_500_L_8_R_4.png","img/900/equaldotanddens/R/3_Ratio_900_L_9_R_10.png","img/500/equaldotanddens/L/11_Ratio_500_L_12_R_6.png","img/500/equaldotanddens/R/2_Ratio_500_L_3_R_6.png","img/250/equaldotsize/R/11_Ratio_250_L_3_R_12.png","img/250/equaldotanddens/R/6_Ratio_250_L_6_R_24.png","img/250/equaldotanddens/R/8_Ratio_250_L_1_R_4.png","img/750/randomdotsizeEA/R/11_Ratio_750_L_12_R_16.png","img/900/equaldotsize/L/8_Ratio_900_L_20_R_18.png","img/900/randomdotsizeEA/L/10_Ratio_900_L_20_R_18.png","img/250/randomdotsizeEA/L/5_Ratio_250_L_24_R_6.png","img/500/randomdotsizeEA/L/13_Ratio_500_L_12_R_6.png","img/500/equaldotanddens/L/13_Ratio_500_L_12_R_6.png","img/500/equaldotanddens/R/9_Ratio_500_L_2_R_4.png","img/750/equaldotanddens/R/5_Ratio_750_L_15_R_20.png","img/500/equaldotsize/R/14_Ratio_500_L_5_R_10.png","img/500/randomdotsizeEA/L/10_Ratio_500_L_4_R_2.png","img/750/randomdotsizeEA/L/13_Ratio_750_L_8_R_6.png","img/750/equaldotanddens/R/7_Ratio_750_L_3_R_4.png","img/250/equaldotsize/R/8_Ratio_250_L_1_R_4.png","img/900/equaldotsize/L/2_Ratio_900_L_20_R_18.png","img/500/equaldotanddens/R/15_Ratio_500_L_1_R_2.png","img/250/randomdotsizeEA/L/7_Ratio_250_L_8_R_2.png","img/750/randomdotsizeEA/L/1_Ratio_750_L_20_R_15.png","img/900/equaldotsize/R/3_Ratio_900_L_9_R_10.png","img/750/equaldotanddens/L/1_Ratio_750_L_20_R_15.png","img/900/randomdotsizeEA/L/8_Ratio_900_L_20_R_18.png","img/250/equaldotsize/R/6_Ratio_250_L_6_R_24.png","img/500/equaldotsize/L/11_Ratio_500_L_12_R_6.png","img/250/equaldotsize/L/14_Ratio_250_L_12_R_3.png","img/250/randomdotsizeEA/R/10_Ratio_250_L_4_R_16.png","img/250/equaldotanddens/L/2_Ratio_250_L_16_R_4.png","img/250/equaldotanddens/L/1_Ratio_250_L_8_R_2.png","img/750/equaldotanddens/R/12_Ratio_750_L_3_R_4.png","img/900/equaldotsize/R/12_Ratio_900_L_18_R_20.png","img/250/equaldotsize/R/10_Ratio_250_L_4_R_16.png","img/900/equaldotanddens/R/7_Ratio_900_L_9_R_10.png","img/250/equaldotanddens/R/9_Ratio_250_L_3_R_12.png","img/750/randomdotsizeEA/L/14_Ratio_750_L_8_R_6.png","img/750/randomdotsizeEA/L/1_Ratio_750_L_20_R_15.png","img/750/randomdotsizeEA/L/8_Ratio_750_L_4_R_3.png","img/750/equaldotsize/L/8_Ratio_750_L_4_R_3.png","img/250/equaldotsize/L/7_Ratio_250_L_8_R_2.png","img/900/equaldotanddens/R/13_Ratio_900_L_18_R_20.png","img/750/randomdotsizeEA/L/14_Ratio_750_L_8_R_6.png","img/250/equaldotsize/L/5_Ratio_250_L_24_R_6.png","img/750/randomdotsizeEA/L/1_Ratio_750_L_20_R_15.png","img/500/equaldotsize/R/9_Ratio_500_L_2_R_4.png","img/750/equaldotsize/L/9_Ratio_750_L_4_R_3.png","img/750/equaldotsize/R/11_Ratio_750_L_12_R_16.png","img/900/equaldotsize/R/11_Ratio_900_L_18_R_20.png","img/500/randomdotsizeEA/L/11_Ratio_500_L_12_R_6.png","img/900/randomdotsizeEA/R/3_Ratio_900_L_9_R_10.png","img/500/equaldotanddens/R/14_Ratio_500_L_5_R_10.png","img/500/randomdotsizeEA/R/14_Ratio_500_L_5_R_10.png","img/750/equaldotsize/R/2_Ratio_750_L_6_R_8.png","img/500/equaldotsize/R/9_Ratio_500_L_2_R_4.png","img/250/equaldotanddens/R/6_Ratio_250_L_6_R_24.png","img/900/randomdotsizeEA/L/2_Ratio_900_L_20_R_18.png","img/500/randomdotsizeEA/R/14_Ratio_500_L_5_R_10.png","img/750/equaldotsize/R/3_Ratio_750_L_15_R_20.png","img/500/equaldotsize/R/1_Ratio_500_L_9_R_18.png","img/750/equaldotanddens/L/13_Ratio_750_L_8_R_6.png","img/250/equaldotsize/L/14_Ratio_250_L_12_R_3.png","img/250/randomdotsizeEA/R/6_Ratio_250_L_6_R_24.png","img/500/equaldotsize/L/8_Ratio_500_L_8_R_4.png","img/900/randomdotsizeEA/R/15_Ratio_900_L_9_R_10.png","img/900/equaldotsize/R/3_Ratio_900_L_9_R_10.png","img/750/equaldotsize/R/12_Ratio_750_L_3_R_4.png","img/750/equaldotsize/R/2_Ratio_750_L_6_R_8.png","img/750/equaldotanddens/R/11_Ratio_750_L_12_R_16.png","img/900/equaldotanddens/L/2_Ratio_900_L_20_R_18.png","img/750/equaldotsize/R/11_Ratio_750_L_12_R_16.png","img/750/equaldotsize/L/14_Ratio_750_L_8_R_6.png","img/750/equaldotanddens/R/3_Ratio_750_L_15_R_20.png","img/900/equaldotsize/L/10_Ratio_900_L_20_R_18.png","img/900/randomdotsizeEA/R/11_Ratio_900_L_18_R_20.png","img/250/randomdotsizeEA/L/5_Ratio_250_L_24_R_6.png","img/500/randomdotsizeEA/R/12_Ratio_500_L_1_R_2.png","img/750/randomdotsizeEA/R/12_Ratio_750_L_3_R_4.png","img/250/equaldotanddens/L/1_Ratio_250_L_8_R_2.png","img/900/equaldotanddens/R/11_Ratio_900_L_18_R_20.png","img/250/equaldotanddens/L/5_Ratio_250_L_24_R_6.png","img/500/equaldotsize/R/9_Ratio_500_L_2_R_4.png","img/900/equaldotanddens/L/10_Ratio_900_L_20_R_18.png","img/250/equaldotsize/R/6_Ratio_250_L_6_R_24.png","img/250/randomdotsizeEA/L/3_Ratio_250_L_8_R_2.png","img/900/equaldotsize/L/2_Ratio_900_L_20_R_18.png","img/500/randomdotsizeEA/R/14_Ratio_500_L_5_R_10.png","img/250/equaldotanddens/L/7_Ratio_250_L_8_R_2.png","img/500/equaldotsize/R/9_Ratio_500_L_2_R_4.png","img/500/equaldotsize/R/15_Ratio_500_L_1_R_2.png","img/900/randomdotsizeEA/R/13_Ratio_900_L_18_R_20.png","img/750/equaldotsize/L/1_Ratio_750_L_20_R_15.png","img/500/equaldotsize/L/5_Ratio_500_L_4_R_2.png"],"Rat0":[["12_Ratio_0_L_9_R_0.png","13_Ratio_0_L_6_R_0.png","5_Ratio_0_L_2_R_0.png","6_Ratio_0_L_4_R_0.png","8_Ratio_0_L_6_R_0.png"],["1_Ratio_0_L_0_R_17.png","10_Ratio_0_L_0_R_22.png","11_Ratio_0_L_0_R_1.png","14_Ratio_0_L_0_R_24.png","15_Ratio_0_L_0_R_4.png","2_Ratio_0_L_0_R_5.png","3_Ratio_0_L_0_R_17.png","4_Ratio_0_L_0_R_7.png","7_Ratio_0_L_0_R_19.png","9_Ratio_0_L_0_R_15.png"]],"Rat250":[["1_Ratio_250_L_8_R_2.png","14_Ratio_250_L_12_R_3.png","15_Ratio_250_L_12_R_3.png","2_Ratio_250_L_16_R_4.png","3_Ratio_250_L_8_R_2.png","5_Ratio_250_L_24_R_6.png","7_Ratio_250_L_8_R_2.png"],["10_Ratio_250_L_4_R_16.png","11_Ratio_250_L_3_R_12.png","12_Ratio_250_L_5_R_20.png","13_Ratio_250_L_2_R_8.png","4_Ratio_250_L_3_R_12.png","6_Ratio_250_L_6_R_24.png","8_Ratio_250_L_1_R_4.png","9_Ratio_250_L_3_R_12.png"]],"Rat500":[["10_Ratio_500_L_4_R_2.png","11_Ratio_500_L_12_R_6.png","13_Ratio_500_L_12_R_6.png","4_Ratio_500_L_18_R_9.png","5_Ratio_500_L_4_R_2.png","7_Ratio_500_L_10_R_5.png","8_Ratio_500_L_8_R_4.png"],["1_Ratio_500_L_9_R_18.png","12_Ratio_500_L_1_R_2.png","14_Ratio_500_L_5_R_10.png","15_Ratio_500_L_1_R_2.png","2_Ratio_500_L_3_R_6.png","3_Ratio_500_L_10_R_20.png","6_Ratio_500_L_9_R_18.png","9_Ratio_500_L_2_R_4.png"]],"Rat750":[["1_Ratio_750_L_20_R_15.png","10_Ratio_750_L_4_R_3.png","13_Ratio_750_L_8_R_6.png","14_Ratio_750_L_8_R_6.png","6_Ratio_750_L_24_R_18.png","8_Ratio_750_L_4_R_3.png","9_Ratio_750_L_4_R_3.png"],["11_Ratio_750_L_12_R_16.png","12_Ratio_750_L_3_R_4.png","15_Ratio_750_L_9_R_12.png","2_Ratio_750_L_6_R_8.png","3_Ratio_750_L_15_R_20.png","4_Ratio_750_L_15_R_20.png","5_Ratio_750_L_15_R_20.png","7_Ratio_750_L_3_R_4.png"]],"Rat900":[["1_Ratio_900_L_10_R_9.png","10_Ratio_900_L_20_R_18.png","2_Ratio_900_L_20_R_18.png","4_Ratio_900_L_20_R_18.png","8_Ratio_900_L_20_R_18.png"],["11_Ratio_900_L_18_R_20.png","12_Ratio_900_L_18_R_20.png","13_Ratio_900_L_18_R_20.png","14_Ratio_900_L_18_R_20.png","15_Ratio_900_L_9_R_10.png","3_Ratio_900_L_9_R_10.png","5_Ratio_900_L_9_R_10.png","6_Ratio_900_L_9_R_10.png","7_Ratio_900_L_9_R_10.png","9_Ratio_900_L_18_R_20.png"]],"Rat1000":[["10_Ratio_1000_L_16_R_16.png","11_Ratio_1000_L_6_R_6.png","12_Ratio_1000_L_14_R_14.png","13_Ratio_1000_L_20_R_20.png","15_Ratio_1000_L_15_R_15.png","2_Ratio_1000_L_17_R_17.png","4_Ratio_1000_L_9_R_9.png","5_Ratio_1000_L_6_R_6.png","6_Ratio_1000_L_19_R_19.png","8_Ratio_1000_L_14_R_14.png","9_Ratio_1000_L_25_R_25.png"],["1_Ratio_1000_L_1_R_1.png","14_Ratio_1000_L_17_R_17.png","3_Ratio_1000_L_17_R_17.png","7_Ratio_1000_L_6_R_6.png"]]}},{"start_time":1551901161647,"click_time":1551901162808,"finger_time":1551901162428,"fix_duration":1377.2551721414845,"trial":1,"RT":781,"MT":380,"sideResp":2,"stimulus":"img/500/equaldotanddens/R/12_Ratio_500_L_1_R_2.png","xmouse":[801,801,801,801,801,801,801,801,801,801,801,801,801,801,801,801,801,801,801,801,801,801,801,801,801,801,801,801,801,801,801,801,801,801,801,801,801,800,802,836,853,875,896,910,935,943,946,950,952,964,974,981,986,993,1014,1025,1044,1058,1068],"ymouse":[627,627,627,627,627,627,627,627,627,627,627,627,627,627,627,627,627,627,627,627,627,627,627,627,627,627,627,627,627,627,627,627,627,627,627,627,627,625,615,557,519,477,443,422,384,370,353,343,333,307,290,277,264,246,197,170,137,107,83],"timestamp_mouse":[9,22,50,61,81,101,122,141,162,182,202,222,241,262,282,301,322,342,362,381,402,421,441,462,482,502,523,541,561,581,601,622,641,662,681,701,721,742,762,781,801,822,841,861,881,902,921,942,962,981,1001,1022,1042,1062,1081,1102,1121,1142,1161],"xSR":741.5,"ySR":573.95,"xT1":424.9,"yT1":0,"xT2":1058.1,"yT2":0,"toosoon":0,"cond_shown":"equaldotanddens","ratio_trial":500,"smaller_num":"1","larger_num":"2","correct_side":2,"subjID":"LauraValentinaCoteSanchez8","gender":"1","age":"11","school":"6"},{"start_time":1551901165038,"click_time":1551901166129,"finger_time":1551901165870,"fix_duration":1207.7580340624831,"trial":2,"RT":832,"MT":259,"sideResp":2,"stimulus":"img/250/equaldotsize/R/8_Ratio_250_L_1_R_4.png","xmouse":[802,802,802,802,802,802,802,802,802,802,802,802,802,802,802,802,802,802,802,802,802,802,802,802,802,802,802,802,802,802,802,802,803,804,804,805,805,805,806,808,823,838,857,881,907,992,1030,1068,1091,1112,1117,1123,1128,1136,1145],"ymouse":[615,615,615,615,615,615,615,615,615,615,615,615,615,615,615,615,615,615,615,615,615,615,615,615,615,615,615,615,615,615,615,615,613,611,611,610,610,610,609,605,581,558,527,482,430,283,233,192,169,142,133,124,113,101,78],"timestamp_mouse":[10,36,52,70,90,112,131,150,170,190,210,230,250,271,290,311,330,350,370,391,412,430,451,470,491,510,530,551,571,591,611,631,650,670,692,711,732,750,770,791,810,832,851,870,891,910,930,951,970,991,1011,1031,1050,1072,1091],"xSR":741.5,"ySR":573.95,"xT1":424.9,"yT1":0,"xT2":1058.1,"yT2":0,"toosoon":0,"cond_shown":"equaldotsize","ratio_trial":250,"smaller_num":"1","larger_num":"4","correct_side":2,"subjID":"LauraValentinaCoteSanchez8","gender":"1","age":"11","school":"6"},{"start_time":1551901168376,"click_time":1551901169588,"finger_time":1551901169288,"fix_duration":1406.2803683874388,"trial":3,"RT":912,"MT":300,"sideResp":2,"stimulus":"img/900/equaldotanddens/R/5_Ratio_900_L_9_R_10.png","xmouse":[799,799,799,799,799,799,799,799,799,799,799,799,799,799,799,799,799,799,799,799,799,799,799,799,799,799,799,799,799,799,799,799,799,799,799,799,799,799,799,799,799,799,799,798,795,770,757,738,688,671,664,664,664,673,683,710,781,843,971,1039,1107],"ymouse":[627,627,627,627,627,627,627,627,627,627,627,627,627,627,627,627,627,627,627,627,627,627,627,627,627,627,627,627,627,627,627,627,627,627,627,627,627,627,627,627,627,627,626,623,614,533,446,386,296,271,254,242,232,214,204,187,158,141,105,93,85],"timestamp_mouse":[13,38,53,72,92,113,132,153,172,193,213,234,252,272,292,313,333,353,373,393,413,432,452,472,492,514,532,552,572,592,612,633,652,673,693,712,733,754,772,793,813,833,853,872,892,912,934,953,972,992,1012,1033,1052,1072,1092,1112,1132,1152,1172,1192,1212],"xSR":741.5,"ySR":573.95,"xT1":424.9,"yT1":0,"xT2":1058.1,"yT2":0,"toosoon":0,"cond_shown":"equaldotanddens","ratio_trial":900,"smaller_num":"9","larger_num":"10","correct_side":2,"subjID":"LauraValentinaCoteSanchez8","gender":"1","age":"11","school":"6"},{"start_time":1551901171834,"click_time":1551901173348,"finger_time":1551901172648,"fix_duration":1224.0961671099024,"trial":4,"RT":814,"MT":700,"sideResp":1,"stimulus":"img/250/randomdotsizeEA/L/5_Ratio_250_L_24_R_6.png","xmouse":[787,787,787,787,787,787,787,787,787,787,787,787,787,787,787,787,787,787,787,787,787,787,787,787,787,787,787,787,787,787,787,787,787,787,787,787,787,792,798,824,907,923,935,937,938,936,934,933,927,920,905,894,872,863,860,856,853,846,835,819,787,771,760,747,733,709,703,695,687,674,636,598,576,553,533,494],"ymouse":[615,615,615,615,615,615,615,615,615,615,615,615,615,615,615,615,615,615,615,615,615,615,615,615,615,615,615,615,615,615,615,615,615,615,615,615,615,614,608,591,476,449,430,427,427,426,426,426,429,437,447,455,463,465,465,465,464,453,433,404,348,313,282,231,162,76,65,57,51,46,35,26,24,21,21,23],"timestamp_mouse":[16,35,55,74,95,114,135,154,175,195,214,234,255,274,294,314,334,354,375,394,414,436,454,475,495,514,534,554,575,594,615,634,654,675,696,714,734,755,775,794,814,834,854,874,895,914,934,954,974,994,1014,1034,1054,1075,1095,1114,1134,1154,1175,1195,1214,1234,1254,1275,1294,1314,1334,1355,1374,1394,1414,1434,1454,1474,1494,1514],"xSR":741.5,"ySR":573.95,"xT1":424.9,"yT1":0,"xT2":1058.1,"yT2":0,"toosoon":0,"cond_shown":"randomdotsizeEA","ratio_trial":250,"smaller_num":"6","larger_num":"24","correct_side":1,"subjID":"LauraValentinaCoteSanchez8","gender":"1","age":"11","school":"6"},{"start_time":1551901175901,"click_time":1551901177309,"finger_time":1551901176768,"fix_duration":250,"trial":5,"RT":867,"MT":541,"sideResp":1,"stimulus":"img/250/equaldotanddens/L/3_Ratio_250_L_8_R_2.png","xmouse":[823,823,823,823,823,823,823,823,823,823,823,823,823,823,823,823,823,823,823,823,822,822,822,822,822,822,822,822,822,822,822,822,822,822,822,822,822,822,821,817,809,801,790,753,729,705,679,652,616,607,602,595,588,574,572,570,568,566,565,563,563,561,561,555,549,543,534,506,491,476,465],"ymouse":[659,659,659,659,659,659,659,659,659,659,659,659,659,659,659,659,659,659,659,659,658,658,658,658,658,658,658,658,658,658,658,658,658,658,658,658,658,658,658,656,651,641,617,541,499,459,423,386,325,298,265,233,209,177,172,168,164,156,152,147,145,142,139,133,128,125,120,110,106,102,98],"timestamp_mouse":[19,36,47,68,87,107,127,147,167,187,209,227,247,267,287,307,327,349,367,387,408,428,448,468,487,509,528,548,567,587,608,627,647,667,689,707,727,747,768,787,807,827,847,867,887,908,928,948,968,987,1008,1027,1047,1067,1087,1107,1128,1148,1167,1187,1207,1227,1247,1267,1288,1307,1329,1348,1367,1388,1408],"xSR":741.5,"ySR":573.95,"xT1":424.9,"yT1":0,"xT2":1058.1,"yT2":0,"toosoon":0,"cond_shown":"equaldotanddens","ratio_trial":250,"smaller_num":"2","larger_num":"8","correct_side":1,"subjID":"LauraValentinaCoteSanchez8","gender":"1","age":"11","school":"6"},{"start_time":1551901180223,"click_time":1551901181468,"finger_time":1551901181188,"fix_duration":833.3563916182458,"trial":6,"RT":965,"MT":280,"sideResp":1,"stimulus":"img/900/equaldotanddens/L/10_Ratio_900_L_20_R_18.png","xmouse":[798,798,798,798,798,798,798,798,798,798,798,798,798,798,798,798,798,798,798,799,799,799,799,799,799,799,799,799,799,799,799,799,799,799,799,799,799,799,799,799,799,799,799,799,800,800,797,778,761,746,727,704,643,628,588,572,562,552,549,543,532,525,520],"ymouse":[645,645,645,645,645,645,645,645,645,645,645,645,645,645,645,645,645,645,645,645,645,645,645,645,645,645,645,645,645,645,645,645,645,645,645,645,645,645,645,645,645,645,645,645,645,644,640,605,515,414,283,186,43,17,0,0,0,0,0,0,5,13,16],"timestamp_mouse":[10,26,45,65,85,106,126,145,165,185,205,225,246,265,286,305,326,345,366,385,405,426,445,465,485,505,525,547,565,585,605,627,645,666,685,705,727,746,766,785,805,825,845,865,885,905,925,945,965,985,1005,1025,1045,1065,1085,1106,1126,1146,1165,1185,1206,1225,1245],"xSR":741.5,"ySR":573.95,"xT1":424.9,"yT1":0,"xT2":1058.1,"yT2":0,"toosoon":0,"cond_shown":"equaldotanddens","ratio_trial":900,"smaller_num":"18","larger_num":"20","correct_side":1,"subjID":"LauraValentinaCoteSanchez8","gender":"1","age":"11","school":"6"},{"start_time":1551901183591,"click_time":1551901184869,"finger_time":1551901184468,"fix_duration":1122.7251559665815,"trial":7,"RT":877,"MT":401,"sideResp":2,"stimulus":"img/250/randomdotsizeEA/R/12_Ratio_250_L_5_R_20.png","xmouse":[793,793,793,793,793,793,793,793,793,793,793,793,793,793,793,793,793,793,793,793,793,793,793,793,793,793,793,793,793,793,793,793,793,793,793,793,793,793,793,793,793,798,803,818,856,903,967,1003,1005,1006,1004,1004,1004,1004,1004,1004,1004,1004,1006,1014,1025,1039,1057,1076],"ymouse":[581,581,581,581,581,581,581,581,581,581,581,581,581,581,581,581,581,581,581,581,581,581,581,581,581,581,581,581,581,581,581,581,581,581,581,581,581,581,581,581,581,578,575,562,481,413,311,250,234,206,201,197,195,192,185,181,179,178,175,161,141,119,99,85],"timestamp_mouse":[17,45,58,77,98,118,138,158,177,198,217,238,257,277,297,317,337,358,378,399,418,437,458,477,497,518,537,558,577,598,617,637,658,678,698,717,737,757,778,797,817,837,858,877,897,917,937,958,977,997,1017,1038,1058,1077,1097,1118,1137,1158,1178,1197,1217,1238,1258,1278],"xSR":741.5,"ySR":573.95,"xT1":424.9,"yT1":0,"xT2":1058.1,"yT2":0,"toosoon":0,"cond_shown":"randomdotsizeEA","ratio_trial":250,"smaller_num":"5","larger_num":"20","correct_side":2,"subjID":"LauraValentinaCoteSanchez8","gender":"1","age":"11","school":"6"},{"start_time":1551901187400,"click_time":1551901188408,"finger_time":1551901188168,"fix_duration":1350.4628854861778,"trial":8,"RT":768,"MT":240,"sideResp":2,"stimulus":"img/750/equaldotanddens/R/15_Ratio_750_L_9_R_12.png","xmouse":[817,817,817,817,817,817,817,817,817,817,817,817,817,817,817,817,817,817,817,817,817,817,817,817,817,817,817,817,817,817,817,817,817,817,817,816,815,815,823,877,918,951,968,978,978,979,983,994,1018,1099,1133],"ymouse":[597,597,597,597,597,597,597,597,597,597,597,597,597,597,597,597,597,597,597,597,597,597,597,597,597,597,597,597,597,597,597,597,597,597,597,597,596,582,557,421,372,344,331,325,324,324,310,284,247,141,94],"timestamp_mouse":[10,34,48,68,89,108,130,149,170,189,208,228,248,268,288,309,328,348,369,388,408,429,448,469,488,509,528,548,569,588,608,628,648,668,689,708,729,748,768,788,808,828,849,869,889,909,928,949,968,988,1008],"xSR":741.5,"ySR":573.95,"xT1":424.9,"yT1":0,"xT2":1058.1,"yT2":0,"toosoon":0,"cond_shown":"equaldotanddens","ratio_trial":750,"smaller_num":"9","larger_num":"12","correct_side":2,"subjID":"LauraValentinaCoteSanchez8","gender":"1","age":"11","school":"6"},{"start_time":1551901189702,"click_time":1551901190428,"finger_time":1551901190288,"fix_duration":250,"trial":9,"RT":586,"MT":140,"sideResp":2,"stimulus":"img/250/randomdotsizeEA/R/12_Ratio_250_L_5_R_20.png","xmouse":[817,817,817,817,817,817,817,817,817,817,817,817,817,817,817,817,817,817,817,817,817,817,817,817,817,817,817,817,817,832,853,893,917,941,998,1040,1076],"ymouse":[641,641,641,641,641,641,641,641,641,641,641,641,641,641,641,641,641,641,641,641,641,641,641,641,641,641,641,636,627,570,511,419,360,305,195,131,81],"timestamp_mouse":[10,35,46,66,86,107,126,146,166,187,206,226,246,266,287,306,326,346,367,386,406,428,446,466,487,507,526,546,567,586,607,626,646,667,686,706,726],"xSR":741.5,"ySR":573.95,"xT1":424.9,"yT1":0,"xT2":1058.1,"yT2":0,"toosoon":0,"cond_shown":"randomdotsizeEA","ratio_trial":250,"smaller_num":"5","larger_num":"20","correct_side":2,"subjID":"LauraValentinaCoteSanchez8","gender":"1","age":"11","school":"6"},{"start_time":1551901193413,"click_time":1551901194608,"finger_time":1551901194128,"fix_duration":262.7296427850246,"trial":10,"RT":715,"MT":480,"sideResp":1,"stimulus":"img/500/equaldotanddens/L/5_Ratio_500_L_4_R_2.png","xmouse":[796,796,796,796,796,796,796,796,796,796,796,796,796,796,796,796,796,796,796,796,796,796,796,796,796,796,796,796,796,796,796,796,796,792,764,734,690,645,617,599,597,597,597,596,587,577,564,557,554,549,545,541,530,521,509,509,510,514,517,518],"ymouse":[632,632,632,632,632,632,632,632,632,632,632,632,632,632,631,630,629,627,626,626,626,626,626,626,626,626,626,626,626,626,626,626,625,624,612,595,562,517,478,430,415,403,388,375,346,326,308,293,282,258,243,230,208,191,160,146,130,116,105,97],"timestamp_mouse":[15,40,56,76,96,115,136,157,176,195,215,235,256,275,295,315,335,356,377,395,416,435,456,475,495,515,536,555,576,595,615,635,657,676,695,715,736,755,776,795,815,835,856,876,895,915,935,955,975,995,1015,1035,1055,1075,1095,1115,1136,1155,1175,1195],"xSR":741.5,"ySR":573.95,"xT1":424.9,"yT1":0,"xT2":1058.1,"yT2":0,"toosoon":0,"cond_shown":"equaldotanddens","ratio_trial":500,"smaller_num":"2","larger_num":"4","correct_side":1,"subjID":"LauraValentinaCoteSanchez8","gender":"1","age":"11","school":"6"},{"start_time":1551901196399,"click_time":1551901197748,"finger_time":1551901197248,"fix_duration":710.5112340682014,"trial":11,"RT":849,"MT":500,"sideResp":1,"stimulus":"img/900/equaldotanddens/L/1_Ratio_900_L_10_R_9.png","xmouse":[797,797,797,797,797,797,797,797,797,797,797,797,797,797,797,797,797,797,797,797,797,797,797,797,797,797,797,797,797,797,797,797,797,797,797,797,797,797,796,794,770,759,733,717,700,668,652,635,623,613,602,598,594,591,588,585,585,585,586,587,580,575,565,558,548,529,521,512],"ymouse":[646,646,646,646,646,646,646,646,646,646,646,646,646,646,646,646,646,646,646,646,646,646,646,646,646,646,646,646,646,646,646,646,646,646,646,646,646,646,646,646,638,634,615,600,581,531,502,475,453,429,393,381,367,360,352,334,320,304,288,277,244,226,197,176,157,127,114,99],"timestamp_mouse":[10,40,49,70,89,109,129,150,171,189,210,230,250,269,290,309,329,349,370,391,409,429,449,469,489,509,530,550,569,589,609,630,649,669,689,709,730,749,769,790,810,829,849,869,889,909,929,950,969,989,1010,1030,1049,1069,1089,1109,1129,1149,1169,1189,1209,1229,1249,1270,1289,1310,1329,1349],"xSR":741.5,"ySR":573.95,"xT1":424.9,"yT1":0,"xT2":1058.1,"yT2":0,"toosoon":0,"cond_shown":"equaldotanddens","ratio_trial":900,"smaller_num":"9","larger_num":"10","correct_side":1,"subjID":"LauraValentinaCoteSanchez8","gender":"1","age":"11","school":"6"},{"start_time":1551901201013,"click_time":1551901201988,"finger_time":1551901201629,"fix_duration":921.7460558913538,"trial":12,"RT":616,"MT":359,"sideResp":1,"stimulus":"img/500/equaldotanddens/L/11_Ratio_500_L_12_R_6.png","xmouse":[791,791,791,791,791,791,791,791,791,791,791,791,791,791,791,791,791,791,791,791,791,792,792,792,792,792,792,791,791,781,767,754,736,716,696,662,650,640,631,623,605,599,592,582,568,536,528,517,510],"ymouse":[618,618,618,618,618,618,618,618,618,618,618,618,618,618,618,618,618,618,618,618,618,618,618,618,618,618,618,617,613,589,540,506,465,419,368,283,253,230,210,195,165,152,141,132,126,114,109,104,99],"timestamp_mouse":[16,36,55,75,95,115,135,155,176,195,217,235,255,275,295,316,335,356,375,397,416,436,456,476,495,515,536,555,576,596,616,636,655,675,695,715,735,755,776,795,815,835,855,875,896,915,935,956,975],"xSR":741.5,"ySR":573.95,"xT1":424.9,"yT1":0,"xT2":1058.1,"yT2":0,"toosoon":0,"cond_shown":"equaldotanddens","ratio_trial":500,"smaller_num":"6","larger_num":"12","correct_side":1,"subjID":"LauraValentinaCoteSanchez8","gender":"1","age":"11","school":"6"},{"start_time":1551901204223,"click_time":1551901205848,"finger_time":1551901205228,"fix_duration":1453.4738760127984,"trial":13,"RT":1005,"MT":620,"sideResp":1,"stimulus":"img/900/equaldotsize/L/4_Ratio_900_L_20_R_18.png","xmouse":[800,800,800,800,800,800,800,800,800,800,800,800,800,800,800,800,800,800,800,800,800,800,800,800,800,800,800,800,800,800,800,800,800,800,800,800,800,800,800,800,800,800,800,800,799,796,796,795,794,793,790,786,781,776,768,748,733,716,707,700,691,689,685,682,679,660,646,621,605,591,559,547,537,526,517,509,509,509,509,509,503,495],"ymouse":[589,589,589,589,589,589,589,589,589,589,589,589,589,589,589,589,589,589,589,589,589,589,589,589,589,589,589,589,589,589,589,589,589,589,589,589,589,589,589,589,589,589,589,588,588,586,585,585,584,582,573,565,556,546,536,514,490,463,448,433,398,377,351,328,307,265,248,227,217,204,176,165,157,150,145,138,134,127,122,117,105,94],"timestamp_mouse":[10,37,45,66,86,105,125,145,166,186,205,225,245,266,285,306,326,346,366,386,405,425,447,465,485,507,526,546,566,585,605,626,647,666,685,706,726,746,766,786,805,826,845,865,886,906,926,946,965,986,1005,1025,1045,1065,1086,1105,1125,1145,1166,1186,1206,1225,1245,1266,1286,1305,1325,1346,1365,1386,1405,1425,1445,1466,1486,1505,1526,1545,1566,1586,1605,1625],"xSR":741.5,"ySR":573.95,"xT1":424.9,"yT1":0,"xT2":1058.1,"yT2":0,"toosoon":0,"cond_shown":"equaldotsize","ratio_trial":900,"smaller_num":"18","larger_num":"20","correct_side":1,"subjID":"LauraValentinaCoteSanchez8","gender":"1","age":"11","school":"6"},{"start_time":1551901207000,"click_time":1551901208229,"finger_time":1551901207768,"fix_duration":250,"trial":14,"RT":768,"MT":461,"sideResp":1,"stimulus":"img/500/randomdotsizeEA/L/8_Ratio_500_L_8_R_4.png","xmouse":[816,816,816,816,816,816,816,816,816,816,816,816,816,816,816,816,816,816,816,816,816,816,816,816,816,816,816,816,816,816,816,816,816,816,816,815,811,799,772,733,689,554,479,416,378,364,353,341,336,331,326,321,321,321,321,321,328,363,394,407,419,426],"ymouse":[619,619,619,619,619,619,619,619,619,619,619,619,619,619,619,619,619,619,619,619,619,619,619,619,619,619,619,619,619,619,619,619,619,619,619,619,616,599,565,520,469,326,263,220,186,169,145,124,112,103,93,84,83,82,82,81,81,81,80,80,80,78],"timestamp_mouse":[12,41,48,69,89,108,128,148,170,188,209,229,248,269,289,309,329,349,369,390,409,429,449,468,488,509,529,549,568,590,608,628,649,669,689,710,728,748,768,788,809,828,848,869,888,909,928,948,968,989,1008,1029,1048,1068,1088,1108,1128,1149,1168,1189,1219,1229],"xSR":741.5,"ySR":573.95,"xT1":424.9,"yT1":0,"xT2":1058.1,"yT2":0,"toosoon":0,"cond_shown":"randomdotsizeEA","ratio_trial":500,"smaller_num":"4","larger_num":"8","correct_side":1,"subjID":"LauraValentinaCoteSanchez8","gender":"1","age":"11","school":"6"},{"start_time":1551901209480,"click_time":1551901211728,"finger_time":1551901210328,"fix_duration":250,"trial":15,"RT":848,"MT":1400,"sideResp":2,"stimulus":"img/750/equaldotanddens/R/4_Ratio_750_L_15_R_20.png","xmouse":[803,803,803,803,803,803,803,802,802,802,802,802,802,802,802,802,802,802,802,802,802,802,802,802,802,802,802,802,802,802,802,802,802,802,802,802,802,802,802,803,805,810,835,868,890,908,922,946,998,1024,1051,1073,1091,1094,1095,1095,1095,1095,1094,1092,1086,1083,1074,1071,1068,1067,1067,1067,1067,1067,1066,1065,1047,1039,1033,1033,1033,1033,1034,1035,1037,1038,1038,1038,1036,1026,1008,947,909,873,840,817,803,792,786,780,776,772,766,762,758,753,742,742,742,751,772,828,873,932,1006,1071,1136],"ymouse":[603,603,603,603,603,603,603,604,604,604,604,604,604,604,604,604,604,604,604,604,604,604,604,604,604,604,604,604,604,604,604,604,604,604,604,604,604,604,604,603,602,596,559,510,471,428,391,355,298,276,261,247,239,236,236,236,236,234,230,226,217,207,187,177,168,161,156,153,153,153,153,153,164,169,173,173,173,173,171,170,168,167,167,167,167,170,175,185,191,192,192,190,183,173,166,159,153,148,144,141,140,139,140,140,142,150,154,154,143,127,116,106,96],"timestamp_mouse":[11,36,48,69,88,108,129,148,168,189,209,228,248,269,288,308,328,348,369,388,408,429,449,468,488,508,528,548,569,588,609,629,648,668,688,708,728,749,768,788,808,828,848,868,887,908,928,949,968,989,1009,1029,1048,1068,1089,1109,1128,1148,1168,1189,1208,1228,1248,1268,1288,1308,1328,1349,1368,1388,1408,1428,1449,1468,1489,1509,1528,1548,1568,1589,1609,1628,1649,1668,1689,1708,1728,1749,1768,1788,1808,1828,1848,1869,1888,1909,1928,1949,1968,1988,2009,2028,2049,2067,2088,2109,2128,2149,2168,2188,2208,2229,2248],"xSR":741.5,"ySR":573.95,"xT1":424.9,"yT1":0,"xT2":1058.1,"yT2":0,"toosoon":0,"cond_shown":"equaldotanddens","ratio_trial":750,"smaller_num":"15","larger_num":"20","correct_side":2,"subjID":"LauraValentinaCoteSanchez8","gender":"1","age":"11","school":"6"},{"start_time":1551901220039,"click_time":1551901221389,"finger_time":1551901220848,"fix_duration":1489.4869898197508,"trial":16,"RT":809,"MT":541,"sideResp":2,"stimulus":"img/500/equaldotanddens/R/14_Ratio_500_L_5_R_10.png","xmouse":[793,793,793,793,793,793,793,793,793,793,793,793,793,793,793,793,793,793,793,793,793,793,793,793,793,793,793,793,793,793,793,793,793,793,793,793,795,797,798,801,803,809,832,853,872,893,917,921,925,928,935,954,963,979,989,994,994,994,994,998,1001,1002,1002,1002,1003,1012,1047,1066],"ymouse":[596,596,596,596,596,596,596,596,596,596,596,596,596,596,596,596,596,596,596,596,596,596,596,596,596,596,596,596,596,596,596,596,596,596,596,596,593,591,589,583,570,532,444,385,357,333,298,287,274,249,233,193,174,148,124,100,95,90,85,79,73,70,69,69,68,68,68,68],"timestamp_mouse":[10,39,49,69,90,110,129,150,169,189,209,230,249,269,290,310,329,349,370,390,409,430,449,469,490,509,529,549,569,589,610,629,649,669,689,709,729,749,769,789,809,829,849,871,890,909,929,949,969,989,1009,1029,1049,1069,1089,1109,1129,1149,1169,1190,1209,1229,1249,1269,1289,1309,1329,1350],"xSR":741.5,"ySR":573.95,"xT1":424.9,"yT1":0,"xT2":1058.1,"yT2":0,"toosoon":0,"cond_shown":"equaldotanddens","ratio_trial":500,"smaller_num":"5","larger_num":"10","correct_side":2,"subjID":"LauraValentinaCoteSanchez8","gender":"1","age":"11","school":"6"},{"start_time":1551901223006,"click_time":1551901224288,"finger_time":1551901223808,"fix_duration":276.8418357130417,"trial":17,"RT":802,"MT":480,"sideResp":1,"stimulus":"img/900/randomdotsizeEA/R/13_Ratio_900_L_18_R_20.png","xmouse":[792,792,792,792,792,792,792,792,792,792,792,792,792,792,792,792,792,792,792,792,792,792,792,792,792,792,792,792,792,792,792,792,792,792,792,792,792,792,792,792,797,803,805,807,803,793,770,749,715,699,680,652,625,607,600,595,592,586,566,554,543,532,523,513,509],"ymouse":[617,617,617,617,617,617,617,617,617,617,617,617,617,617,617,617,617,617,617,617,617,617,617,617,617,617,617,617,617,617,617,617,617,617,617,617,614,612,601,590,559,523,507,470,451,425,393,360,316,293,273,243,210,190,183,179,175,169,155,145,137,125,118,104,98],"timestamp_mouse":[10,23,44,62,82,103,123,143,163,182,203,222,243,262,282,302,323,342,363,382,402,422,443,463,482,503,522,542,562,582,602,623,643,662,683,704,722,743,762,782,802,822,842,862,882,903,922,942,962,982,1003,1022,1043,1063,1082,1102,1122,1142,1162,1182,1202,1222,1243,1262,1282],"xSR":741.5,"ySR":573.95,"xT1":424.9,"yT1":0,"xT2":1058.1,"yT2":0,"toosoon":0,"cond_shown":"randomdotsizeEA","ratio_trial":900,"smaller_num":"18","larger_num":"20","correct_side":2,"subjID":"LauraValentinaCoteSanchez8","gender":"1","age":"11","school":"6"},{"start_time":1551901231798,"click_time":1551901233748,"finger_time":1551901233268,"fix_duration":1468.257338473975,"trial":18,"RT":1470,"MT":480,"sideResp":1,"stimulus":"img/900/equaldotsize/R/11_Ratio_900_L_18_R_20.png","xmouse":[799,799,799,799,799,799,799,799,799,799,799,799,799,799,799,799,799,799,799,799,799,799,799,799,799,799,799,799,799,799,799,799,799,799,799,799,799,799,799,799,799,799,799,799,799,799,799,799,799,796,792,790,789,789,789,789,788,788,788,788,788,788,788,788,788,788,788,788,787,783,780,776,772,766,740,722,693,644,569,440,416,398,385,376,367,364,361,358,356,356,360,365,371,380,398,409,423,441],"ymouse":[620,620,620,620,620,620,620,620,620,620,620,620,620,620,620,620,620,620,620,620,620,620,620,620,620,620,620,620,620,620,620,620,620,620,620,620,620,620,620,620,620,620,620,620,620,620,620,620,619,618,616,615,614,614,614,614,613,613,613,613,613,613,613,613,613,613,613,613,612,605,600,592,585,572,536,514,490,450,393,282,261,244,226,212,186,177,166,151,129,108,102,96,89,79,57,53,52,52],"timestamp_mouse":[13,35,50,71,91,110,130,150,170,191,210,231,251,270,290,311,330,350,370,391,411,430,450,471,491,511,530,551,571,590,610,630,650,670,691,711,730,751,770,791,811,831,851,871,890,910,931,951,970,991,1010,1030,1050,1070,1092,1110,1131,1150,1170,1190,1211,1230,1251,1271,1290,1310,1330,1350,1370,1390,1410,1430,1450,1470,1490,1511,1530,1550,1571,1590,1610,1631,1650,1670,1690,1710,1729,1751,1770,1790,1810,1830,1850,1870,1890,1910,1930,1950],"xSR":741.5,"ySR":573.95,"xT1":424.9,"yT1":0,"xT2":1058.1,"yT2":0,"toosoon":0,"cond_shown":"equaldotsize","ratio_trial":900,"smaller_num":"18","larger_num":"20","correct_side":2,"subjID":"LauraValentinaCoteSanchez8","gender":"1","age":"11","school":"6"},{"start_time":1551901238479,"click_time":1551901239569,"finger_time":1551901239269,"fix_duration":329.7136227874011,"trial":19,"RT":790,"MT":300,"sideResp":1,"stimulus":"img/500/randomdotsizeEA/L/13_Ratio_500_L_12_R_6.png","xmouse":[798,798,798,798,798,798,798,798,798,798,798,798,798,798,798,798,798,800,800,800,800,800,800,800,800,800,800,800,800,800,800,800,800,800,800,798,790,772,750,731,698,683,680,680,684,695,698,699,695,682,611,575,538,501,471],"ymouse":[615,615,615,615,615,615,615,615,615,615,615,615,615,615,615,615,615,615,615,615,615,615,615,615,615,615,615,615,615,615,615,615,615,615,615,615,611,601,596,590,573,562,556,552,544,533,527,512,487,459,339,280,221,157,94],"timestamp_mouse":[10,41,49,70,89,109,129,150,170,189,210,229,249,269,290,310,329,349,369,390,410,430,450,469,489,509,529,549,570,590,609,629,650,669,689,710,729,749,769,790,809,829,849,869,889,909,929,950,970,989,1009,1029,1049,1069,1090],"xSR":741.5,"ySR":573.95,"xT1":424.9,"yT1":0,"xT2":1058.1,"yT2":0,"toosoon":0,"cond_shown":"randomdotsizeEA","ratio_trial":500,"smaller_num":"6","larger_num":"12","correct_side":1,"subjID":"LauraValentinaCoteSanchez8","gender":"1","age":"11","school":"6"},{"start_time":1551901240859,"click_time":1551901242169,"finger_time":1551901241748,"fix_duration":250,"trial":20,"RT":889,"MT":421,"sideResp":2,"stimulus":"img/900/randomdotsizeEA/R/13_Ratio_900_L_18_R_20.png","xmouse":[777,777,777,777,777,777,777,777,777,777,777,777,777,777,777,777,777,777,777,777,777,777,777,777,777,777,777,777,777,777,777,777,777,777,777,777,777,777,777,777,779,782,806,815,817,819,819,842,874,887,892,892,892,892,899,912,932,978,994,1000,1000,1003,1008,1030,1045,1061],"ymouse":[650,650,650,649,649,649,649,649,649,649,649,649,649,649,649,649,649,649,649,649,649,649,649,649,649,649,649,649,649,649,650,650,651,651,651,651,651,651,651,651,650,650,620,578,502,420,333,218,171,134,118,111,104,100,90,80,73,70,71,75,76,78,78,78,78,78],"timestamp_mouse":[10,33,50,69,90,109,129,150,169,190,210,229,249,269,290,309,329,350,370,389,409,430,450,469,489,510,529,550,570,589,609,629,650,670,690,710,730,749,769,790,810,829,849,869,889,910,930,949,970,989,1010,1030,1049,1069,1089,1110,1130,1149,1170,1189,1209,1229,1249,1270,1290,1310],"xSR":741.5,"ySR":573.95,"xT1":424.9,"yT1":0,"xT2":1058.1,"yT2":0,"toosoon":0,"cond_shown":"randomdotsizeEA","ratio_trial":900,"smaller_num":"18","larger_num":"20","correct_side":2,"subjID":"LauraValentinaCoteSanchez8","gender":"1","age":"11","school":"6"},{"start_time":1551901245113,"click_time":1551901247669,"finger_time":1551901247369,"fix_duration":702.912685821725,"trial":21,"RT":2256,"MT":300,"sideResp":1,"stimulus":"img/250/randomdotsizeEA/L/1_Ratio_250_L_8_R_2.png","xmouse":[795,795,795,795,795,795,795,795,795,795,795,795,795,795,795,795,795,795,795,795,795,795,795,795,795,795,795,795,795,795,795,795,795,795,795,795,795,795,795,795,795,795,795,795,795,795,795,795,795,795,795,795,795,795,795,795,795,795,795,795,795,795,795,795,795,795,795,795,795,795,795,795,795,795,795,795,795,795,795,795,794,794,794,794,794,793,793,793,793,793,793,793,793,793,793,793,793,793,793,793,793,793,792,791,789,782,774,766,761,758,753,752,749,745,741,730,722,717,710,698,690,677,651,598,560,534,525,517],"ymouse":[641,641,641,641,641,641,641,641,641,641,641,641,641,641,641,641,641,641,641,641,641,641,641,641,641,641,641,641,641,641,641,641,641,641,641,641,641,641,641,641,641,641,641,641,641,641,641,641,641,641,641,641,641,641,641,641,641,641,641,641,641,641,641,641,641,641,641,641,641,641,641,641,641,641,641,641,641,641,641,641,641,641,641,641,641,641,641,641,641,641,641,641,641,641,641,641,641,641,641,641,641,641,640,639,633,620,610,602,593,588,581,577,573,565,556,530,512,492,466,408,376,335,285,192,132,95,84,79],"timestamp_mouse":[20,44,55,76,95,115,136,156,175,195,215,235,255,275,296,315,335,356,375,395,415,435,455,475,496,515,535,555,575,595,615,636,656,675,695,715,735,756,776,795,816,835,855,875,896,915,935,955,975,995,1014,1035,1055,1076,1096,1116,1135,1155,1176,1195,1215,1235,1256,1276,1295,1316,1335,1356,1375,1395,1416,1435,1455,1475,1495,1515,1535,1556,1575,1595,1616,1635,1655,1676,1695,1715,1735,1755,1775,1795,1816,1835,1855,1875,1895,1915,1935,1956,1977,1995,2015,2036,2055,2075,2096,2115,2135,2155,2176,2195,2214,2235,2256,2275,2295,2314,2336,2355,2375,2396,2415,2435,2455,2476,2495,2516,2535,2556],"xSR":741.5,"ySR":573.95,"xT1":424.9,"yT1":0,"xT2":1058.1,"yT2":0,"toosoon":0,"cond_shown":"randomdotsizeEA","ratio_trial":250,"smaller_num":"2","larger_num":"8","correct_side":1,"subjID":"LauraValentinaCoteSanchez8","gender":"1","age":"11","school":"6"},{"start_time":1551901249273,"click_time":1551901250188,"finger_time":1551901249348,"fix_duration":684.6472260655281,"trial":22,"RT":75,"MT":840,"sideResp":1,"stimulus":"img/750/randomdotsizeEA/L/14_Ratio_750_L_8_R_6.png","xmouse":[814,817,819,819,820,820,820,820,820,820,820,820,820,820,820,820,820,820,820,820,820,820,820,820,820,820,820,820,820,820,820,818,802,790,728,683,649,591,562,533,507,492,478,476,475,474],"ymouse":[589,583,576,573,571,569,568,566,566,566,565,565,565,565,565,565,565,565,565,565,565,565,565,565,565,565,565,565,565,565,565,565,557,546,490,445,404,322,274,230,190,163,126,107,100,96],"timestamp_mouse":[16,35,55,75,95,115,135,155,176,195,216,235,255,275,295,315,336,356,375,396,415,436,456,475,495,515,535,555,575,595,615,636,655,676,695,715,735,756,775,795,815,835,855,875,895,915],"xSR":741.5,"ySR":573.95,"xT1":424.9,"yT1":0,"xT2":1058.1,"yT2":0,"toosoon":0,"cond_shown":"randomdotsizeEA","ratio_trial":750,"smaller_num":"6","larger_num":"8","correct_side":1,"subjID":"LauraValentinaCoteSanchez8","gender":"1","age":"11","school":"6"},{"start_time":1551901251728,"click_time":1551901253148,"finger_time":1551901252508,"fix_duration":436.5746297450007,"trial":23,"RT":780,"MT":640,"sideResp":1,"stimulus":"img/900/randomdotsizeEA/L/10_Ratio_900_L_20_R_18.png","xmouse":[817,817,817,817,817,817,817,817,817,817,817,817,817,817,817,817,817,817,817,817,817,817,817,817,817,817,817,817,817,817,817,817,817,817,816,815,814,810,803,794,779,766,751,736,722,704,698,690,677,660,624,605,585,575,568,565,565,565,565,564,556,551,549,549,549,549,549,547,542,537,532,518],"ymouse":[607,606,606,606,606,606,606,606,606,606,606,606,606,606,606,606,606,606,606,606,606,606,606,606,606,606,606,606,606,606,606,606,606,606,606,604,603,590,575,554,524,507,496,485,473,449,435,419,402,380,338,315,286,266,245,229,197,179,159,138,104,91,88,88,88,88,88,88,88,88,88,88],"timestamp_mouse":[10,35,40,61,80,100,120,140,161,181,200,221,241,260,281,301,320,341,360,381,400,420,441,460,481,500,520,541,561,580,600,620,640,661,680,701,720,740,761,780,800,820,840,862,880,900,920,940,960,980,1000,1021,1040,1060,1081,1100,1120,1140,1160,1180,1200,1220,1240,1260,1280,1300,1320,1341,1360,1380,1400,1420],"xSR":741.5,"ySR":573.95,"xT1":424.9,"yT1":0,"xT2":1058.1,"yT2":0,"toosoon":0,"cond_shown":"randomdotsizeEA","ratio_trial":900,"smaller_num":"18","larger_num":"20","correct_side":1,"subjID":"LauraValentinaCoteSanchez8","gender":"1","age":"11","school":"6"},{"start_time":1551901254659,"click_time":1551901255409,"finger_time":1551901255288,"fix_duration":250,"trial":24,"RT":629,"MT":121,"sideResp":2,"stimulus":"img/900/equaldotanddens/R/11_Ratio_900_L_18_R_20.png","xmouse":[769,769,769,769,769,769,773,775,779,782,782,782,782,782,782,782,783,785,786,789,791,793,794,794,794,794,795,795,795,795,795,799,812,844,914,963,1025,1094],"ymouse":[642,642,642,642,642,642,642,642,638,636,636,636,636,636,636,636,634,632,630,623,618,615,613,613,613,613,612,610,601,591,575,553,518,441,280,189,112,54],"timestamp_mouse":[9,40,49,70,89,110,128,149,169,190,209,229,250,269,289,309,330,349,370,389,409,430,449,470,489,509,530,549,570,589,609,629,649,670,689,709,730,749],"xSR":741.5,"ySR":573.95,"xT1":424.9,"yT1":0,"xT2":1058.1,"yT2":0,"toosoon":0,"cond_shown":"equaldotanddens","ratio_trial":900,"smaller_num":"18","larger_num":"20","correct_side":2,"subjID":"LauraValentinaCoteSanchez8","gender":"1","age":"11","school":"6"},{"start_time":1551901258420,"click_time":1551901260048,"finger_time":1551901259688,"fix_duration":250,"trial":25,"RT":1268,"MT":360,"sideResp":1,"stimulus":"img/500/randomdotsizeEA/L/8_Ratio_500_L_8_R_4.png","xmouse":[818,818,818,818,818,818,818,818,818,818,818,818,818,818,818,818,818,818,817,817,817,816,816,816,815,814,814,814,814,814,814,814,814,814,814,814,814,814,814,814,814,814,810,805,798,787,760,750,749,749,749,753,761,763,763,764,765,765,765,765,765,757,745,734,719,704,667,653,643,635,629,622,605,600,598,595,592,577,565,548,528,489],"ymouse":[661,661,661,661,661,661,661,661,661,661,661,661,661,661,661,661,661,661,661,661,660,659,658,658,657,657,657,657,657,657,657,657,657,657,657,657,657,657,657,657,657,657,655,655,654,650,642,640,640,640,640,640,640,640,640,639,638,636,633,631,625,603,576,548,511,473,390,353,319,289,269,249,215,203,194,185,177,151,136,119,103,72],"timestamp_mouse":[13,44,49,68,88,109,128,148,168,188,209,229,248,268,288,309,328,348,368,388,408,428,448,468,489,509,528,548,568,588,608,628,649,668,688,708,728,748,769,788,808,828,849,868,888,909,928,948,968,989,1008,1028,1048,1068,1088,1109,1128,1148,1168,1188,1209,1228,1248,1268,1288,1308,1328,1348,1368,1388,1408,1428,1449,1468,1488,1508,1529,1548,1568,1589,1609,1627],"xSR":741.5,"ySR":573.95,"xT1":424.9,"yT1":0,"xT2":1058.1,"yT2":0,"toosoon":0,"cond_shown":"randomdotsizeEA","ratio_trial":500,"smaller_num":"4","larger_num":"8","correct_side":1,"subjID":"LauraValentinaCoteSanchez8","gender":"1","age":"11","school":"6"},{"start_time":1551901261926,"click_time":1551901263949,"finger_time":1551901263028,"fix_duration":1156.4561858527006,"trial":26,"RT":1102,"MT":921,"sideResp":2,"stimulus":"img/900/equaldotanddens/R/3_Ratio_900_L_9_R_10.png","xmouse":[774,774,774,774,774,774,774,774,774,774,774,774,774,774,774,774,774,774,774,774,774,774,774,774,774,774,774,774,774,774,774,774,774,774,774,774,774,774,774,774,774,774,774,774,774,774,774,774,779,784,788,792,803,809,818,842,865,933,953,963,967,970,972,977,984,994,1007,1016,1017,1017,1017,1020,1023,1024,1024,1024,1024,1026,1027,1028,1029,1031,1034,1036,1037,1038,1041,1045,1048,1050,1051,1057,1057,1057,1057,1057,1057,1058,1058,1058,1058,1059],"ymouse":[624,624,624,624,624,624,624,624,624,624,624,624,624,624,624,624,624,624,624,624,624,624,624,624,624,624,624,624,624,624,624,624,624,624,624,624,624,624,624,624,624,624,624,624,624,624,624,623,620,615,611,605,595,591,580,537,499,441,429,420,414,403,395,387,378,368,350,323,307,293,278,248,235,222,208,191,179,154,143,133,123,114,101,97,96,95,95,95,95,95,95,94,94,94,94,94,94,94,94,94,94,94],"timestamp_mouse":[10,35,42,62,82,102,122,142,162,183,202,222,242,262,283,302,322,342,362,382,402,423,442,462,482,502,523,543,562,583,602,623,642,662,683,702,722,742,762,782,803,823,842,862,882,902,923,942,962,983,1003,1022,1042,1062,1082,1102,1122,1142,1162,1182,1203,1223,1242,1263,1282,1302,1322,1343,1362,1382,1402,1423,1442,1462,1482,1502,1522,1543,1562,1582,1603,1623,1642,1662,1682,1702,1722,1742,1762,1782,1802,1823,1841,1862,1882,1903,1922,1943,1962,1982,2002,2023],"xSR":741.5,"ySR":573.95,"xT1":424.9,"yT1":0,"xT2":1058.1,"yT2":0,"toosoon":0,"cond_shown":"equaldotanddens","ratio_trial":900,"smaller_num":"9","larger_num":"10","correct_side":2,"subjID":"LauraValentinaCoteSanchez8","gender":"1","age":"11","school":"6"},{"start_time":1551901266108,"click_time":1551901267170,"finger_time":1551901266849,"fix_duration":1139.098767764244,"trial":27,"RT":741,"MT":321,"sideResp":1,"stimulus":"img/500/equaldotanddens/L/11_Ratio_500_L_12_R_6.png","xmouse":[815,815,815,815,815,815,815,815,815,815,815,815,815,815,815,815,815,815,815,815,815,815,815,815,815,815,815,815,815,815,814,813,812,809,801,784,772,760,731,713,685,645,598,512,485,465,460,456,452,452,452,452,452,452],"ymouse":[609,609,609,609,609,609,609,609,609,609,609,609,609,609,609,609,609,609,609,609,609,609,609,609,609,609,609,609,609,609,609,609,608,605,600,589,574,550,483,449,410,360,299,199,165,135,122,111,100,100,100,100,100,99],"timestamp_mouse":[9,20,40,61,80,101,120,140,160,181,200,220,240,260,280,301,322,341,361,381,400,420,440,460,480,501,520,541,560,580,600,620,640,660,681,700,720,741,760,780,801,820,841,860,880,900,921,941,960,980,1000,1020,1040,1061],"xSR":741.5,"ySR":573.95,"xT1":424.9,"yT1":0,"xT2":1058.1,"yT2":0,"toosoon":0,"cond_shown":"equaldotanddens","ratio_trial":500,"smaller_num":"6","larger_num":"12","correct_side":1,"subjID":"LauraValentinaCoteSanchez8","gender":"1","age":"11","school":"6"},{"start_time":1551901270048,"click_time":1551901271667,"finger_time":1551901270927,"fix_duration":1358.3146116507453,"trial":28,"RT":879,"MT":740,"sideResp":2,"stimulus":"img/500/equaldotanddens/R/2_Ratio_500_L_3_R_6.png","xmouse":[788,788,788,788,788,788,788,788,788,788,788,788,788,788,788,788,788,788,788,788,788,788,788,788,788,788,788,788,788,788,788,788,788,788,788,788,788,789,793,796,798,803,806,810,813,821,840,850,859,864,868,907,950,975,980,984,992,995,997,999,1004,1014,1020,1024,1024,1024,1024,1024,1024,1024,1024,1026,1029,1032,1033,1035,1037,1042,1044,1051,1057,1060],"ymouse":[627,627,627,627,627,627,627,627,627,627,627,627,627,627,627,627,627,627,627,627,627,627,627,627,627,627,627,627,627,627,627,627,627,627,627,627,627,625,620,615,614,604,596,582,569,547,505,489,474,458,441,385,336,298,281,262,219,202,185,166,147,106,90,77,72,70,70,70,70,70,70,69,69,70,70,70,71,73,73,74,74,74],"timestamp_mouse":[1,19,39,59,80,100,120,140,161,180,200,220,239,259,279,300,319,339,360,381,400,419,440,461,479,500,519,539,559,579,599,620,640,659,680,701,719,739,759,780,800,820,839,859,879,900,919,940,960,980,1000,1020,1039,1060,1079,1100,1120,1140,1159,1180,1200,1220,1239,1259,1279,1300,1320,1340,1361,1380,1400,1419,1439,1459,1480,1499,1519,1539,1559,1580,1599,1619],"xSR":741.5,"ySR":573.95,"xT1":424.9,"yT1":0,"xT2":1058.1,"yT2":0,"toosoon":0,"cond_shown":"equaldotanddens","ratio_trial":500,"smaller_num":"3","larger_num":"6","correct_side":2,"subjID":"LauraValentinaCoteSanchez8","gender":"1","age":"11","school":"6"},{"start_time":1551901273635,"click_time":1551901274928,"finger_time":1551901274447,"fix_duration":787.1909094500368,"trial":29,"RT":812,"MT":481,"sideResp":2,"stimulus":"img/250/equaldotsize/R/11_Ratio_250_L_3_R_12.png","xmouse":[795,795,795,795,795,795,795,795,795,795,795,795,795,795,795,795,795,795,795,795,795,795,795,795,795,795,795,795,795,795,795,795,795,795,795,795,795,799,806,817,844,880,924,937,951,983,1026,1105,1120,1136,1153,1166,1178,1180,1180,1180,1179,1173,1171,1170,1169,1167,1163,1160,1158],"ymouse":[659,659,659,659,659,659,659,659,659,659,659,659,659,659,659,659,659,659,659,659,659,659,659,658,658,658,658,658,658,658,658,658,658,658,658,658,657,643,619,578,506,425,286,249,226,203,176,142,137,131,121,112,86,77,73,71,67,66,66,66,66,66,66,67,67],"timestamp_mouse":[13,34,52,73,93,112,133,154,172,192,212,232,252,272,294,313,332,352,372,392,412,432,452,473,493,514,533,552,572,593,612,633,652,672,693,712,732,753,772,793,812,832,852,873,892,913,932,953,972,993,1012,1032,1052,1072,1092,1114,1133,1152,1172,1192,1212,1233,1252,1274,1293],"xSR":741.5,"ySR":573.95,"xT1":424.9,"yT1":0,"xT2":1058.1,"yT2":0,"toosoon":0,"cond_shown":"equaldotsize","ratio_trial":250,"smaller_num":"3","larger_num":"12","correct_side":2,"subjID":"LauraValentinaCoteSanchez8","gender":"1","age":"11","school":"6"},{"start_time":1551901277203,"click_time":1551901278588,"finger_time":1551901277987,"fix_duration":1274.977097336621,"trial":30,"RT":784,"MT":601,"sideResp":2,"stimulus":"img/250/equaldotanddens/R/6_Ratio_250_L_6_R_24.png","xmouse":[799,801,802,802,802,803,804,805,806,806,806,806,806,806,806,806,807,810,811,813,813,813,813,813,813,813,813,813,813,813,813,813,813,813,813,816,819,826,832,848,857,869,883,899,937,962,977,989,1001,1022,1032,1040,1046,1051,1067,1071,1072,1074,1074,1082,1084,1087,1088,1088,1088,1087,1088,1088,1089,1089],"ymouse":[623,623,623,623,623,623,623,623,623,623,623,623,623,623,623,623,623,622,622,622,622,622,622,622,622,622,622,622,622,622,622,622,622,622,622,620,617,614,611,604,600,590,578,559,513,475,449,427,403,356,333,316,302,289,260,242,234,227,222,204,195,186,179,173,160,153,141,132,118,85],"timestamp_mouse":[9,25,48,65,84,105,125,145,165,186,205,224,244,265,286,305,325,345,364,385,405,425,444,465,485,504,524,546,564,585,604,624,644,664,684,705,724,746,765,784,804,825,845,864,884,904,924,945,964,984,1004,1025,1044,1065,1084,1105,1124,1146,1165,1184,1204,1224,1244,1264,1284,1305,1324,1345,1365,1385],"xSR":741.5,"ySR":573.95,"xT1":424.9,"yT1":0,"xT2":1058.1,"yT2":0,"toosoon":0,"cond_shown":"equaldotanddens","ratio_trial":250,"smaller_num":"6","larger_num":"24","correct_side":2,"subjID":"LauraValentinaCoteSanchez8","gender":"1","age":"11","school":"6"},{"start_time":1551901280343,"click_time":1551901281387,"finger_time":1551901280727,"fix_duration":1054.5215468544195,"trial":31,"RT":384,"MT":660,"sideResp":2,"stimulus":"img/250/equaldotanddens/R/8_Ratio_250_L_1_R_4.png","xmouse":[777,777,777,777,777,777,777,777,777,777,777,777,777,777,777,777,778,781,823,848,862,872,881,898,906,917,932,1008,1038,1058,1073,1084,1094,1094,1088,1082,1077,1064,1060,1057,1057,1057,1057,1057,1059,1063,1079,1084,1104,1106,1107,1107,1107],"ymouse":[635,635,635,635,635,635,635,635,635,635,635,635,635,635,635,634,633,632,601,577,560,546,533,503,486,465,444,366,339,315,293,270,236,217,198,178,162,133,129,126,125,125,125,125,125,124,119,116,103,101,100,100,99],"timestamp_mouse":[11,26,44,65,84,105,124,144,164,186,205,226,245,264,284,306,325,344,365,384,404,425,444,464,484,504,525,545,564,584,605,624,645,664,685,704,724,745,765,784,804,824,844,865,885,905,925,944,964,984,1004,1024,1044],"xSR":741.5,"ySR":573.95,"xT1":424.9,"yT1":0,"xT2":1058.1,"yT2":0,"toosoon":0,"cond_shown":"equaldotanddens","ratio_trial":250,"smaller_num":"1","larger_num":"4","correct_side":2,"subjID":"LauraValentinaCoteSanchez8","gender":"1","age":"11","school":"6"},{"start_time":1551901282756,"click_time":1551901283927,"finger_time":1551901283568,"fix_duration":447.74171386833183,"trial":32,"RT":812,"MT":359,"sideResp":2,"stimulus":"img/750/randomdotsizeEA/R/11_Ratio_750_L_12_R_16.png","xmouse":[795,795,795,795,795,795,795,795,795,795,795,795,795,795,795,795,795,795,795,795,795,795,795,795,795,795,795,795,795,795,795,795,795,795,795,795,795,796,797,801,811,872,926,985,1048,1091,1112,1117,1117,1117,1117,1116,1110,1107,1105,1099,1094,1080,1077],"ymouse":[602,602,602,602,602,602,602,602,602,602,602,602,602,602,602,602,602,602,602,602,602,602,602,602,602,602,602,602,602,602,602,602,602,602,602,601,600,596,592,584,566,470,399,329,266,227,210,204,204,204,202,197,179,168,160,146,135,103,96],"timestamp_mouse":[11,31,52,71,91,112,133,151,171,192,212,231,251,271,292,311,332,351,371,391,412,431,452,473,491,511,531,551,572,592,612,633,652,671,691,712,732,752,771,792,812,833,852,871,891,912,932,952,971,992,1012,1031,1051,1071,1092,1111,1131,1152,1171],"xSR":741.5,"ySR":573.95,"xT1":424.9,"yT1":0,"xT2":1058.1,"yT2":0,"toosoon":0,"cond_shown":"randomdotsizeEA","ratio_trial":750,"smaller_num":"12","larger_num":"16","correct_side":2,"subjID":"LauraValentinaCoteSanchez8","gender":"1","age":"11","school":"6"},{"start_time":1551901286223,"click_time":1551901287227,"finger_time":1551901286907,"fix_duration":1295.9897760782655,"trial":33,"RT":684,"MT":320,"sideResp":2,"stimulus":"img/900/equaldotsize/L/8_Ratio_900_L_20_R_18.png","xmouse":[800,800,800,800,800,800,800,800,800,800,800,800,800,800,800,800,800,800,800,800,800,800,800,800,800,800,800,800,800,800,800,800,805,825,924,982,1035,1071,1085,1105,1120,1124,1137,1140,1141,1139,1133,1121,1114,1106,1105],"ymouse":[608,608,608,608,608,608,608,608,608,608,608,608,608,608,608,608,608,608,608,608,608,608,608,608,608,608,608,608,608,608,608,608,607,594,499,420,346,296,272,234,207,199,171,157,139,131,124,114,107,100,97],"timestamp_mouse":[10,35,44,65,85,106,124,144,166,185,206,225,245,264,284,304,325,344,365,384,404,425,446,464,484,505,525,545,565,585,604,624,645,664,684,704,725,744,765,784,804,824,844,864,884,904,925,944,964,984,1004],"xSR":741.5,"ySR":573.95,"xT1":424.9,"yT1":0,"xT2":1058.1,"yT2":0,"toosoon":0,"cond_shown":"equaldotsize","ratio_trial":900,"smaller_num":"18","larger_num":"20","correct_side":1,"subjID":"LauraValentinaCoteSanchez8","gender":"1","age":"11","school":"6"},{"start_time":1551901288618,"click_time":1551901289927,"finger_time":1551901289667,"fix_duration":250,"trial":34,"RT":1049,"MT":260,"sideResp":1,"stimulus":"img/900/randomdotsizeEA/L/10_Ratio_900_L_20_R_18.png","xmouse":[815,815,815,815,815,815,817,817,817,818,818,819,819,819,819,819,819,819,819,819,819,819,819,819,819,819,819,819,819,819,819,819,819,819,819,819,819,819,819,819,819,820,820,820,822,824,827,831,833,834,832,829,823,816,773,739,698,679,663,642,579,547,519,495,482,469],"ymouse":[648,648,648,648,648,647,645,645,644,643,642,642,642,642,642,642,642,642,642,642,642,642,642,642,642,642,642,642,642,642,642,642,642,642,642,642,642,642,640,636,631,629,628,628,624,620,611,602,593,582,579,574,568,563,538,519,488,471,460,436,347,308,275,240,205,81],"timestamp_mouse":[14,37,49,69,89,110,129,149,169,189,209,229,249,270,290,309,329,349,370,389,409,430,449,469,489,509,530,550,570,589,609,629,650,671,689,709,729,751,769,789,809,829,849,869,889,909,929,950,969,989,1009,1029,1049,1069,1089,1110,1130,1150,1169,1189,1209,1229,1249,1269,1289,1309],"xSR":741.5,"ySR":573.95,"xT1":424.9,"yT1":0,"xT2":1058.1,"yT2":0,"toosoon":0,"cond_shown":"randomdotsizeEA","ratio_trial":900,"smaller_num":"18","larger_num":"20","correct_side":1,"subjID":"LauraValentinaCoteSanchez8","gender":"1","age":"11","school":"6"},{"start_time":1551901293151,"click_time":1551901295087,"finger_time":1551901293847,"fix_duration":602.3337434713694,"trial":35,"RT":696,"MT":1240,"sideResp":1,"stimulus":"img/250/randomdotsizeEA/L/5_Ratio_250_L_24_R_6.png","xmouse":[829,829,829,829,829,829,829,829,829,829,828,828,827,827,826,826,825,824,824,824,824,824,824,824,823,823,823,821,818,816,812,806,793,779,716,660,612,558,426,360,341,332,326,321,321,321,324,332,343,347,349,350,351,352,357,359,361,361,375,384,394,411,424,440,446,451,453,454,454,454,454,454,454,454,454,454,454,454,454,454,454,454,454,454,454,454,454,454,454,454,454,454,454,454,456,456,456],"ymouse":[641,641,641,641,641,641,641,641,640,640,639,639,638,638,637,637,636,635,635,635,635,633,633,632,632,632,630,628,625,623,619,612,599,584,519,472,424,379,280,241,228,216,203,184,176,168,155,140,118,110,106,104,103,103,103,103,103,103,103,103,103,103,104,104,105,105,105,106,106,106,106,106,106,106,106,106,106,106,106,106,106,106,106,106,106,106,106,106,106,106,106,106,106,106,103,100,94],"timestamp_mouse":[16,41,56,77,97,117,137,157,178,196,216,237,256,277,296,317,336,356,376,397,416,436,456,477,496,516,536,557,577,597,616,636,657,676,696,716,737,756,776,796,816,837,856,876,896,917,936,957,976,996,1017,1037,1056,1077,1096,1117,1136,1157,1176,1198,1216,1236,1257,1277,1296,1318,1336,1356,1376,1396,1416,1436,1458,1477,1497,1518,1536,1557,1576,1596,1616,1636,1656,1677,1697,1716,1736,1758,1776,1797,1816,1836,1857,1876,1896,1916,1936],"xSR":741.5,"ySR":573.95,"xT1":424.9,"yT1":0,"xT2":1058.1,"yT2":0,"toosoon":0,"cond_shown":"randomdotsizeEA","ratio_trial":250,"smaller_num":"6","larger_num":"24","correct_side":1,"subjID":"LauraValentinaCoteSanchez8","gender":"1","age":"11","school":"6"},{"start_time":1551901297874,"click_time":1551901299109,"finger_time":1551901298647,"fix_duration":1043.047054034377,"trial":36,"RT":773,"MT":462,"sideResp":1,"stimulus":"img/500/randomdotsizeEA/L/13_Ratio_500_L_12_R_6.png","xmouse":[799,799,799,799,799,799,799,799,799,799,799,799,799,799,799,799,799,799,799,799,799,799,799,798,797,796,796,796,796,796,796,796,795,795,795,792,789,752,718,680,631,564,531,488,464,440,399,340,297,295,295,295,295,295,295,298,308,323,366,390,419,433],"ymouse":[603,603,603,603,603,603,603,603,603,603,603,603,603,603,603,603,603,603,603,603,603,603,603,603,603,603,603,603,603,603,603,603,603,603,603,603,603,591,577,560,538,504,483,436,396,337,240,118,17,10,9,8,8,7,5,3,2,1,1,2,8,12],"timestamp_mouse":[19,35,54,73,93,115,135,153,174,194,213,234,254,273,295,313,334,353,373,395,414,434,453,474,493,514,533,554,573,593,614,635,655,674,693,714,734,754,773,793,813,834,853,874,893,914,934,954,973,993,1013,1033,1054,1074,1093,1114,1133,1153,1173,1194,1213,1235],"xSR":741.5,"ySR":573.95,"xT1":424.9,"yT1":0,"xT2":1058.1,"yT2":0,"toosoon":0,"cond_shown":"randomdotsizeEA","ratio_trial":500,"smaller_num":"6","larger_num":"12","correct_side":1,"subjID":"LauraValentinaCoteSanchez8","gender":"1","age":"11","school":"6"},{"start_time":1551901301346,"click_time":1551901302667,"finger_time":1551901302047,"fix_duration":1278.5031900219797,"trial":37,"RT":701,"MT":620,"sideResp":1,"stimulus":"img/500/equaldotanddens/L/13_Ratio_500_L_12_R_6.png","xmouse":[786,786,786,786,786,786,786,786,786,786,786,786,785,785,785,784,784,784,784,784,784,784,784,784,784,784,784,784,784,784,783,782,778,767,749,715,684,649,627,595,537,510,487,467,454,443,442,442,442,442,442,442,443,446,451,461,465,467,469,471,471,471,471,471,471,471,471],"ymouse":[620,620,620,620,620,620,620,620,620,620,620,620,620,620,620,619,619,619,619,619,619,619,619,619,619,619,619,619,619,619,619,619,619,619,614,575,520,468,414,349,268,238,217,203,192,176,170,164,158,151,140,138,136,134,133,129,126,124,120,117,111,110,108,106,104,101,97],"timestamp_mouse":[8,34,41,63,82,102,121,141,161,181,201,221,242,262,281,302,321,342,361,381,403,423,441,462,482,502,522,541,562,581,602,621,641,661,681,701,721,741,762,781,801,821,842,861,881,901,922,941,961,982,1002,1021,1042,1061,1081,1101,1122,1141,1163,1181,1201,1221,1242,1262,1281,1301,1321],"xSR":741.5,"ySR":573.95,"xT1":424.9,"yT1":0,"xT2":1058.1,"yT2":0,"toosoon":0,"cond_shown":"equaldotanddens","ratio_trial":500,"smaller_num":"6","larger_num":"12","correct_side":1,"subjID":"LauraValentinaCoteSanchez8","gender":"1","age":"11","school":"6"},{"start_time":1551901303799,"click_time":1551901304507,"finger_time":1551901304429,"fix_duration":250,"trial":38,"RT":630,"MT":78,"sideResp":2,"stimulus":"img/500/equaldotanddens/R/9_Ratio_500_L_2_R_4.png","xmouse":[811,811,811,811,811,811,811,811,811,811,811,811,811,811,811,811,811,811,811,811,811,811,811,811,811,811,811,811,811,818,833,864,1002,1058,1099,1125],"ymouse":[627,627,627,627,627,627,627,627,627,627,627,627,627,627,627,627,627,627,627,627,627,627,627,627,627,627,627,627,626,617,592,537,273,180,115,75],"timestamp_mouse":[13,34,49,68,88,108,129,148,168,188,209,228,248,268,288,308,329,348,368,389,409,430,448,468,488,509,529,548,568,589,608,630,649,668,688,708],"xSR":741.5,"ySR":573.95,"xT1":424.9,"yT1":0,"xT2":1058.1,"yT2":0,"toosoon":0,"cond_shown":"equaldotanddens","ratio_trial":500,"smaller_num":"2","larger_num":"4","correct_side":2,"subjID":"LauraValentinaCoteSanchez8","gender":"1","age":"11","school":"6"},{"start_time":1551901307767,"click_time":1551901308828,"finger_time":1551901308367,"fix_duration":696.1286871064399,"trial":39,"RT":600,"MT":461,"sideResp":2,"stimulus":"img/750/equaldotanddens/R/5_Ratio_750_L_15_R_20.png","xmouse":[822,822,822,822,822,822,822,821,821,821,821,821,821,821,821,821,821,821,821,821,821,821,809,806,806,806,806,808,814,820,836,844,860,872,882,900,912,920,927,927,937,946,949,950,950,950,952,958,970,989,1025,1041,1057,1062],"ymouse":[636,636,636,636,636,636,636,636,636,636,636,636,636,636,636,636,636,636,636,636,636,633,622,615,610,602,599,593,586,576,553,539,509,480,450,370,321,261,189,121,43,26,19,18,18,18,18,18,18,18,18,18,18,18],"timestamp_mouse":[8,34,41,60,81,100,120,142,162,181,200,221,241,261,280,300,321,341,360,380,400,420,440,461,480,500,520,541,560,580,600,620,640,661,681,700,720,740,760,780,800,821,840,860,881,902,920,940,961,980,1000,1021,1040,1061],"xSR":741.5,"ySR":573.95,"xT1":424.9,"yT1":0,"xT2":1058.1,"yT2":0,"toosoon":0,"cond_shown":"equaldotanddens","ratio_trial":750,"smaller_num":"15","larger_num":"20","correct_side":2,"subjID":"LauraValentinaCoteSanchez8","gender":"1","age":"11","school":"6"},{"start_time":1551901313169,"click_time":1551901314528,"finger_time":1551901313887,"fix_duration":578.9102329149762,"trial":40,"RT":718,"MT":641,"sideResp":2,"stimulus":"img/500/equaldotsize/R/14_Ratio_500_L_5_R_10.png","xmouse":[818,818,818,818,818,818,818,817,817,816,816,816,816,816,816,816,816,816,816,816,816,816,816,816,816,816,816,816,816,816,816,816,816,816,816,818,821,826,831,840,868,875,882,890,902,914,941,953,963,971,989,999,1011,1023,1034,1051,1056,1059,1061,1061,1058,1055,1055,1055,1055,1055,1066,1104,1149],"ymouse":[634,634,634,634,634,633,633,633,633,632,632,632,632,632,632,632,632,632,632,632,632,632,632,632,632,632,632,632,632,632,632,632,629,623,613,583,569,559,548,533,492,477,465,450,430,410,380,365,354,345,323,310,294,280,267,246,239,234,228,222,208,182,173,164,156,149,126,105,80],"timestamp_mouse":[1,31,38,59,78,98,118,139,158,178,199,218,238,259,279,298,318,339,360,378,399,420,438,459,480,499,519,538,558,579,600,618,638,659,678,699,718,739,758,780,799,818,839,859,879,898,919,938,959,978,999,1019,1038,1059,1079,1099,1118,1138,1158,1179,1198,1220,1238,1258,1278,1298,1318,1339,1359],"xSR":741.5,"ySR":573.95,"xT1":424.9,"yT1":0,"xT2":1058.1,"yT2":0,"toosoon":0,"cond_shown":"equaldotsize","ratio_trial":500,"smaller_num":"5","larger_num":"10","correct_side":2,"subjID":"LauraValentinaCoteSanchez8","gender":"1","age":"11","school":"6"},{"start_time":1551901317079,"click_time":1551901318447,"finger_time":1551901317788,"fix_duration":1090.6529504496048,"trial":41,"RT":709,"MT":659,"sideResp":1,"stimulus":"img/500/randomdotsizeEA/L/10_Ratio_500_L_4_R_2.png","xmouse":[788,788,788,788,788,788,788,788,788,788,788,788,788,788,788,788,788,789,791,791,791,791,791,791,791,791,791,791,791,791,791,791,791,788,784,768,760,755,748,741,726,720,714,706,700,681,668,654,642,633,615,608,596,591,586,586,586,583,582,579,577,577,575,570,568,552,542,532,523],"ymouse":[655,655,655,655,655,655,655,655,654,654,654,654,654,654,654,651,647,641,634,628,627,627,627,626,626,626,626,626,626,626,626,626,626,620,609,560,505,470,438,413,363,341,323,302,290,260,246,232,221,213,203,200,195,193,191,190,187,181,174,161,135,119,112,106,104,99,96,94,93],"timestamp_mouse":[10,39,49,68,88,108,128,149,169,188,209,229,249,268,288,308,328,348,368,390,408,428,448,468,489,508,530,549,568,588,608,628,648,668,689,709,728,748,768,789,808,828,848,869,888,908,928,950,968,989,1008,1028,1048,1069,1089,1108,1128,1148,1168,1188,1208,1229,1248,1269,1289,1308,1328,1348,1368],"xSR":741.5,"ySR":573.95,"xT1":424.9,"yT1":0,"xT2":1058.1,"yT2":0,"toosoon":0,"cond_shown":"randomdotsizeEA","ratio_trial":500,"smaller_num":"2","larger_num":"4","correct_side":1,"subjID":"LauraValentinaCoteSanchez8","gender":"1","age":"11","school":"6"},{"start_time":1551901319940,"click_time":1551901321888,"finger_time":1551901320927,"fix_duration":291.80930447890387,"trial":42,"RT":987,"MT":961,"sideResp":2,"stimulus":"img/750/randomdotsizeEA/L/13_Ratio_750_L_8_R_6.png","xmouse":[768,768,768,768,768,768,768,768,769,769,769,769,769,769,769,769,769,769,769,769,769,769,769,769,769,769,769,769,769,769,769,769,769,769,769,769,769,769,769,769,770,770,770,770,770,770,774,796,826,861,901,937,968,971,973,973,973,972,972,971,971,971,971,971,971,971,973,973,974,974,974,974,978,981,986,990,993,1002,1005,1009,1012,1014,1018,1019,1021,1022,1023,1026,1028,1030,1032,1034,1042,1049,1058,1069,1076,1085],"ymouse":[658,658,658,658,658,658,658,658,658,658,658,658,658,658,658,658,658,658,658,658,659,659,659,659,659,659,659,659,659,659,659,659,659,659,659,659,659,659,659,659,659,659,659,659,659,659,659,633,600,562,521,484,445,431,418,405,394,379,372,363,354,343,324,312,302,293,281,275,268,266,265,261,244,237,227,218,208,184,177,171,167,165,162,161,158,156,153,148,146,144,141,138,127,120,112,106,100,92],"timestamp_mouse":[10,32,47,68,88,107,128,147,168,187,207,227,247,268,287,308,328,348,367,387,408,428,447,467,487,507,528,548,568,587,607,628,647,667,687,707,728,748,769,787,807,829,847,867,887,907,927,947,967,987,1007,1027,1047,1067,1088,1107,1127,1147,1167,1187,1208,1228,1248,1267,1288,1307,1327,1347,1367,1387,1407,1428,1448,1467,1489,1508,1527,1547,1567,1588,1607,1627,1648,1667,1688,1707,1728,1747,1767,1787,1807,1828,1848,1867,1888,1907,1928,1947],"xSR":741.5,"ySR":573.95,"xT1":424.9,"yT1":0,"xT2":1058.1,"yT2":0,"toosoon":0,"cond_shown":"randomdotsizeEA","ratio_trial":750,"smaller_num":"6","larger_num":"8","correct_side":1,"subjID":"LauraValentinaCoteSanchez8","gender":"1","age":"11","school":"6"},{"start_time":1551901325495,"click_time":1551901329007,"finger_time":1551901328749,"fix_duration":1046.676652471667,"trial":43,"RT":3254,"MT":258,"sideResp":2,"stimulus":"img/750/equaldotanddens/R/7_Ratio_750_L_3_R_4.png","xmouse":[782,782,782,782,782,782,782,782,782,782,782,782,782,782,782,782,782,782,782,782,782,782,782,782,782,782,782,782,782,782,782,782,782,782,782,782,782,782,782,782,782,782,782,782,782,782,782,782,782,782,782,782,782,782,782,782,782,782,782,782,782,782,782,782,782,782,782,782,782,782,782,782,782,782,782,782,782,782,782,782,782,782,782,782,782,782,782,782,782,782,782,782,782,782,782,782,782,782,782,782,782,782,782,782,782,782,782,782,782,782,782,782,782,782,782,782,782,782,782,782,782,782,782,782,782,782,782,782,782,782,782,782,782,782,782,782,782,782,782,782,782,782,782,782,782,782,782,782,782,782,782,782,782,782,782,782,782,782,782,795,828,837,844,854,863,895,951,987,1019,1036,1045,1054,1060,1065,1068,1067],"ymouse":[652,652,652,652,652,652,652,652,652,652,652,652,652,652,652,652,652,652,652,652,652,652,652,652,652,652,652,652,652,652,652,652,652,652,652,652,652,652,652,652,652,652,652,652,652,652,652,652,652,652,652,652,652,652,652,652,652,652,652,652,652,652,652,652,652,652,652,652,652,652,652,652,652,652,652,652,652,652,652,652,652,652,652,652,652,652,652,652,652,652,652,652,652,652,652,652,652,652,652,652,652,652,652,651,651,651,651,651,651,651,651,651,651,651,651,651,651,651,651,651,651,651,651,651,651,651,651,651,651,651,651,651,651,651,651,651,651,651,651,651,651,651,651,651,651,651,651,651,651,651,651,651,651,651,651,651,651,651,650,649,640,637,631,619,589,450,347,306,273,246,221,171,144,120,101,80],"timestamp_mouse":[12,40,52,72,93,112,133,154,172,193,212,233,254,273,294,312,333,353,372,392,413,433,452,474,493,513,533,552,573,593,613,632,653,673,692,713,733,752,772,793,814,833,853,872,892,912,934,953,973,992,1013,1032,1052,1072,1093,1112,1133,1152,1173,1193,1213,1232,1253,1273,1294,1312,1333,1352,1372,1392,1412,1433,1452,1473,1493,1512,1533,1552,1572,1594,1614,1634,1652,1672,1693,1712,1732,1752,1772,1793,1814,1832,1852,1873,1892,1912,1934,1953,1973,1992,2013,2033,2053,2074,2093,2112,2133,2154,2172,2192,2212,2232,2254,2272,2293,2313,2333,2352,2372,2392,2413,2432,2452,2473,2492,2512,2534,2553,2572,2593,2614,2633,2652,2673,2694,2714,2732,2753,2773,2792,2812,2833,2853,2873,2892,2913,2932,2952,2972,2993,3012,3033,3052,3072,3093,3112,3133,3154,3173,3193,3212,3232,3254,3273,3292,3312,3332,3352,3372,3392,3412,3432,3452,3473,3494,3512],"xSR":741.5,"ySR":573.95,"xT1":424.9,"yT1":0,"xT2":1058.1,"yT2":0,"toosoon":0,"cond_shown":"equaldotanddens","ratio_trial":750,"smaller_num":"3","larger_num":"4","correct_side":2,"subjID":"LauraValentinaCoteSanchez8","gender":"1","age":"11","school":"6"},{"start_time":1551901329966,"click_time":1551901332608,"finger_time":1551901331308,"fix_duration":257.6229668605367,"trial":44,"RT":1342,"MT":1300,"sideResp":2,"stimulus":"img/250/equaldotsize/R/8_Ratio_250_L_1_R_4.png","xmouse":[795,795,795,795,795,795,795,795,795,795,795,795,795,795,795,795,795,795,795,795,795,795,795,795,795,795,795,795,795,795,795,795,795,795,795,795,795,795,795,795,795,795,795,795,795,795,795,795,795,795,795,795,795,797,798,800,802,805,806,806,807,809,815,817,823,833,841,851,858,869,884,900,915,951,965,981,997,1012,1014,1015,1017,1018,1017,1011,1008,1007,1006,1006,1006,1012,1016,1018,1020,1027,1027,1027,1027,1027,1027,1027,1027,1027,1027,1027,1027,1027,1027,1030,1034,1039,1046,1050,1051,1053,1053,1053,1053,1053,1053,1053,1054,1054,1056,1056,1056,1056,1056,1056,1057,1057,1057,1058,1060],"ymouse":[646,646,646,646,646,646,646,646,646,646,646,646,646,646,646,646,646,646,646,646,646,646,646,646,646,646,646,646,646,646,646,646,646,646,646,646,646,646,646,646,646,646,646,646,646,646,646,646,646,646,646,646,646,646,644,641,637,632,630,628,627,624,611,608,598,586,581,576,570,559,542,521,504,459,436,407,378,331,307,288,272,259,244,227,217,208,200,181,170,156,146,140,135,123,122,119,117,116,116,116,116,116,116,116,116,116,114,110,108,105,103,101,101,101,101,101,101,101,101,101,101,101,100,100,100,100,100,100,99,99,99,98,95],"timestamp_mouse":[6,22,42,62,81,102,123,142,163,183,203,222,243,262,282,302,322,342,363,383,402,422,442,463,482,502,522,543,562,582,603,623,643,662,683,703,722,742,763,782,802,823,843,863,884,902,922,942,962,981,1003,1023,1042,1063,1081,1102,1122,1142,1162,1182,1202,1222,1242,1262,1283,1303,1322,1342,1362,1382,1402,1422,1442,1463,1482,1502,1522,1542,1562,1582,1602,1623,1642,1662,1682,1701,1722,1742,1763,1782,1801,1821,1841,1861,1881,1902,1922,1943,1963,1982,2003,2022,2042,2063,2082,2103,2122,2142,2161,2182,2202,2222,2242,2262,2283,2302,2323,2342,2362,2382,2403,2423,2442,2462,2483,2503,2523,2542,2562,2582,2602,2622,2642],"xSR":741.5,"ySR":573.95,"xT1":424.9,"yT1":0,"xT2":1058.1,"yT2":0,"toosoon":0,"cond_shown":"equaldotsize","ratio_trial":250,"smaller_num":"1","larger_num":"4","correct_side":2,"subjID":"LauraValentinaCoteSanchez8","gender":"1","age":"11","school":"6"},{"start_time":1551901334984,"click_time":1551901336209,"finger_time":1551901335908,"fix_duration":1355.793802681963,"trial":45,"RT":924,"MT":301,"sideResp":1,"stimulus":"img/900/equaldotsize/L/2_Ratio_900_L_20_R_18.png","xmouse":[782,784,788,788,788,788,788,788,788,788,788,788,788,788,788,788,788,788,788,788,788,788,788,788,788,788,788,788,788,788,788,788,788,788,788,788,788,788,788,788,788,788,787,778,767,752,737,712,705,695,675,644,614,594,573,551,537,528,527,525,525,524],"ymouse":[643,642,639,639,639,639,639,639,639,639,639,639,639,639,639,639,639,639,639,639,639,639,639,639,639,639,639,639,639,639,639,639,639,639,639,639,639,639,639,639,639,639,639,634,625,610,592,559,546,515,437,347,248,202,174,149,134,121,118,113,105,99],"timestamp_mouse":[4,31,44,64,83,104,124,145,164,185,204,225,244,264,284,303,324,344,365,383,404,423,444,463,484,504,525,545,565,584,604,624,645,664,685,705,725,744,765,784,805,824,844,863,884,904,924,944,964,983,1005,1024,1044,1063,1084,1104,1125,1145,1164,1184,1204,1225],"xSR":741.5,"ySR":573.95,"xT1":424.9,"yT1":0,"xT2":1058.1,"yT2":0,"toosoon":0,"cond_shown":"equaldotsize","ratio_trial":900,"smaller_num":"18","larger_num":"20","correct_side":1,"subjID":"LauraValentinaCoteSanchez8","gender":"1","age":"11","school":"6"},{"start_time":1551901337540,"click_time":1551901338529,"finger_time":1551901338328,"fix_duration":250,"trial":46,"RT":788,"MT":201,"sideResp":2,"stimulus":"img/500/equaldotanddens/R/15_Ratio_500_L_1_R_2.png","xmouse":[811,811,811,811,811,811,811,811,811,811,811,811,811,811,811,811,811,811,811,811,811,811,811,811,811,811,811,811,811,811,811,811,811,811,811,811,811,814,818,844,850,868,881,898,945,980,1019,1059,1094,1123],"ymouse":[601,601,601,601,601,601,601,601,601,601,601,601,601,601,601,601,601,601,601,601,601,601,601,601,601,601,601,601,601,601,601,601,601,601,601,601,601,596,591,567,558,530,512,488,426,390,351,272,173,25],"timestamp_mouse":[20,37,48,68,88,108,128,149,168,189,208,229,248,269,289,308,329,348,369,388,408,428,449,467,488,509,529,549,569,589,609,627,648,668,689,708,729,748,769,788,807,827,849,868,888,907,928,948,969,989],"xSR":741.5,"ySR":573.95,"xT1":424.9,"yT1":0,"xT2":1058.1,"yT2":0,"toosoon":0,"cond_shown":"equaldotanddens","ratio_trial":500,"smaller_num":"1","larger_num":"2","correct_side":2,"subjID":"LauraValentinaCoteSanchez8","gender":"1","age":"11","school":"6"},{"start_time":1551901340160,"click_time":1551901341429,"finger_time":1551901341047,"fix_duration":250,"trial":47,"RT":887,"MT":382,"sideResp":1,"stimulus":"img/250/randomdotsizeEA/L/7_Ratio_250_L_8_R_2.png","xmouse":[810,810,810,810,810,810,810,810,810,810,810,810,810,810,810,810,810,810,810,810,810,810,810,810,810,810,810,810,810,810,810,810,810,810,810,810,809,806,804,794,789,784,773,762,746,734,712,688,677,669,663,658,650,642,628,620,610,598,588,562,550,537,526,511],"ymouse":[621,621,621,621,621,621,621,621,621,621,621,621,621,621,621,621,621,621,621,621,621,621,621,621,621,621,621,621,621,621,621,621,621,621,621,621,621,621,621,621,620,616,607,597,571,547,464,380,324,254,218,182,147,123,97,89,84,78,76,76,76,76,76,76],"timestamp_mouse":[10,36,48,67,89,108,128,149,168,188,208,229,248,269,289,308,328,348,368,389,407,429,448,469,489,509,528,548,569,589,608,628,648,667,689,708,727,748,768,788,807,829,848,868,887,908,928,948,968,989,1007,1028,1048,1069,1087,1108,1128,1149,1167,1189,1208,1229,1248,1269],"xSR":741.5,"ySR":573.95,"xT1":424.9,"yT1":0,"xT2":1058.1,"yT2":0,"toosoon":0,"cond_shown":"randomdotsizeEA","ratio_trial":250,"smaller_num":"2","larger_num":"8","correct_side":1,"subjID":"LauraValentinaCoteSanchez8","gender":"1","age":"11","school":"6"},{"start_time":1551901343221,"click_time":1551901344228,"finger_time":1551901344069,"fix_duration":831.4554106626756,"trial":48,"RT":848,"MT":159,"sideResp":1,"stimulus":"img/750/randomdotsizeEA/L/1_Ratio_750_L_20_R_15.png","xmouse":[805,805,805,805,805,805,805,804,804,803,803,803,803,803,803,803,803,803,803,803,803,803,803,803,803,803,803,803,803,803,803,803,803,803,803,803,803,803,803,803,803,797,785,745,683,602,495,470,452,435,425],"ymouse":[591,591,591,591,591,591,591,591,591,590,590,590,590,590,590,590,590,590,590,590,590,590,590,590,590,590,590,590,590,590,590,590,590,590,590,590,590,590,589,589,587,576,560,514,427,333,234,198,162,124,98],"timestamp_mouse":[15,39,47,67,87,107,127,148,167,188,207,226,247,267,287,307,327,347,367,387,407,427,447,468,487,508,527,548,567,587,607,628,647,668,688,707,727,747,768,786,808,826,848,866,887,906,927,948,967,987,1007],"xSR":741.5,"ySR":573.95,"xT1":424.9,"yT1":0,"xT2":1058.1,"yT2":0,"toosoon":0,"cond_shown":"randomdotsizeEA","ratio_trial":750,"smaller_num":"15","larger_num":"20","correct_side":1,"subjID":"LauraValentinaCoteSanchez8","gender":"1","age":"11","school":"6"},{"start_time":1551901349181,"click_time":1551901350228,"finger_time":1551901349687,"fix_duration":951.2345518347728,"trial":49,"RT":506,"MT":541,"sideResp":2,"stimulus":"img/900/equaldotsize/R/3_Ratio_900_L_9_R_10.png","xmouse":[775,775,775,775,775,775,775,775,775,775,775,775,775,775,775,774,774,774,774,774,774,774,774,774,768,762,755,754,754,754,754,754,755,756,756,756,759,763,770,789,806,826,838,842,854,863,880,905,947,1027,1045,1058,1067],"ymouse":[590,591,591,593,593,593,593,593,593,593,593,593,593,593,593,593,593,593,593,593,593,593,593,593,576,550,532,528,528,528,537,546,555,557,557,557,555,543,524,473,433,385,337,324,259,231,200,168,137,98,89,85,84],"timestamp_mouse":[10,35,47,68,88,107,126,147,167,187,207,227,247,268,287,307,327,348,368,386,407,428,448,467,488,506,527,547,567,587,607,627,648,667,687,707,727,747,768,787,806,827,848,867,888,907,927,947,967,986,1008,1028,1047],"xSR":741.5,"ySR":573.95,"xT1":424.9,"yT1":0,"xT2":1058.1,"yT2":0,"toosoon":0,"cond_shown":"equaldotsize","ratio_trial":900,"smaller_num":"9","larger_num":"10","correct_side":2,"subjID":"LauraValentinaCoteSanchez8","gender":"1","age":"11","school":"6"},{"start_time":1551901352146,"click_time":1551901353568,"finger_time":1551901352948,"fix_duration":1035.8522456147246,"trial":50,"RT":802,"MT":620,"sideResp":2,"stimulus":"img/750/equaldotanddens/L/1_Ratio_750_L_20_R_15.png","xmouse":[789,789,789,789,789,789,789,789,789,789,789,789,789,789,789,789,789,789,789,789,789,789,789,789,789,789,789,789,789,789,789,789,789,788,783,777,767,761,755,749,743,735,732,732,732,735,754,802,867,922,980,1064,1083,1096,1099,1099,1100,1100,1100,1100,1100,1100,1100,1098,1093,1090,1084,1082,1080,1077,1074,1069],"ymouse":[612,612,612,612,612,612,612,612,612,612,612,612,612,612,612,612,612,612,612,612,612,612,612,612,612,612,612,612,612,612,612,612,612,612,610,607,599,593,585,575,565,548,538,529,523,516,507,488,470,454,435,398,386,364,344,325,299,283,266,245,225,198,188,174,160,148,133,128,124,118,111,92],"timestamp_mouse":[10,34,43,63,82,102,122,143,162,182,203,223,242,263,282,301,323,342,362,383,402,422,443,462,482,502,523,542,561,582,601,622,642,661,682,702,722,742,763,782,802,822,842,861,883,903,922,941,963,982,1003,1021,1043,1061,1083,1102,1122,1142,1162,1182,1202,1221,1242,1262,1283,1303,1322,1341,1362,1382,1403,1421],"xSR":741.5,"ySR":573.95,"xT1":424.9,"yT1":0,"xT2":1058.1,"yT2":0,"toosoon":0,"cond_shown":"equaldotanddens","ratio_trial":750,"smaller_num":"15","larger_num":"20","correct_side":1,"subjID":"LauraValentinaCoteSanchez8","gender":"1","age":"11","school":"6"},{"start_time":1551901355018,"click_time":1551901356509,"finger_time":1551901355788,"fix_duration":449.8415652185278,"trial":51,"RT":770,"MT":721,"sideResp":1,"stimulus":"img/900/randomdotsizeEA/L/8_Ratio_900_L_20_R_18.png","xmouse":[772,772,772,772,772,772,772,772,772,772,772,772,772,772,772,772,772,772,772,772,772,772,772,772,772,772,772,772,772,772,772,772,772,772,772,771,764,744,732,730,732,739,762,771,775,779,782,787,788,789,791,792,784,771,748,691,605,396,263,202,176,167,166,166,171,189,217,300,325,347,367,383,403,417,428],"ymouse":[660,660,660,660,660,660,660,660,660,660,660,660,659,659,659,659,659,659,659,659,659,659,659,659,659,659,659,659,659,659,659,659,659,658,652,645,629,581,544,522,508,498,478,472,469,464,461,451,447,444,438,425,388,366,342,304,254,148,78,43,28,21,20,18,14,7,0,0,0,0,3,10,37,61,91],"timestamp_mouse":[10,34,50,71,89,110,130,151,171,190,210,229,250,271,289,310,331,351,370,389,410,431,450,470,490,511,530,550,571,591,609,630,650,670,690,710,731,750,770,789,810,830,850,869,890,910,930,949,969,990,1010,1030,1050,1070,1090,1110,1131,1149,1170,1190,1210,1230,1250,1269,1290,1310,1331,1350,1370,1390,1410,1430,1451,1470,1491],"xSR":741.5,"ySR":573.95,"xT1":424.9,"yT1":0,"xT2":1058.1,"yT2":0,"toosoon":0,"cond_shown":"randomdotsizeEA","ratio_trial":900,"smaller_num":"18","larger_num":"20","correct_side":1,"subjID":"LauraValentinaCoteSanchez8","gender":"1","age":"11","school":"6"},{"start_time":1551901357922,"click_time":1551901359288,"finger_time":1551901358007,"fix_duration":573.314419364415,"trial":52,"RT":85,"MT":1281,"sideResp":2,"stimulus":"img/250/equaldotsize/R/6_Ratio_250_L_6_R_24.png","xmouse":[767,761,761,744,740,732,728,719,718,718,718,718,718,718,718,718,718,718,720,722,726,734,739,748,749,751,751,751,751,751,751,751,751,752,752,752,752,752,752,752,752,752,752,755,759,768,783,799,863,900,918,980,1012,1045,1055,1063,1067,1070,1071,1071,1069,1069,1070,1078,1085,1094,1102,1108,1111],"ymouse":[623,622,622,615,613,609,606,601,601,601,601,601,601,601,601,601,601,601,601,601,601,604,607,611,612,612,612,612,612,612,612,612,612,612,612,612,612,612,612,612,612,612,612,612,609,602,591,578,514,445,411,328,300,274,268,262,259,253,241,235,228,225,215,198,185,169,148,129,90],"timestamp_mouse":[9,36,45,66,85,106,126,147,166,186,206,227,247,267,286,307,326,345,366,386,407,426,446,467,485,507,526,547,566,586,606,625,645,667,685,706,726,746,766,786,806,826,845,867,885,907,926,945,965,987,1006,1027,1046,1067,1086,1106,1126,1146,1166,1186,1205,1227,1247,1266,1286,1306,1325,1347,1366],"xSR":741.5,"ySR":573.95,"xT1":424.9,"yT1":0,"xT2":1058.1,"yT2":0,"toosoon":0,"cond_shown":"equaldotsize","ratio_trial":250,"smaller_num":"6","larger_num":"24","correct_side":2,"subjID":"LauraValentinaCoteSanchez8","gender":"1","age":"11","school":"6"},{"start_time":1551901360431,"click_time":1551901361888,"finger_time":1551901361527,"fix_duration":442.0073747953507,"trial":53,"RT":1096,"MT":361,"sideResp":1,"stimulus":"img/500/equaldotsize/L/11_Ratio_500_L_12_R_6.png","xmouse":[792,792,792,792,792,792,792,792,792,792,792,792,792,792,792,792,792,792,792,792,792,792,792,792,792,792,792,792,792,792,792,792,792,792,792,792,792,792,792,792,792,792,792,792,792,792,792,792,792,790,788,781,768,758,743,729,709,670,649,634,625,619,613,609,606,605,603,594,584,572,557,538,490],"ymouse":[625,625,625,625,625,625,625,625,625,625,625,625,625,625,625,625,625,625,625,625,625,625,625,625,625,625,625,625,625,625,625,625,625,625,625,625,625,625,625,625,625,625,625,625,625,625,625,625,625,625,624,617,594,580,548,516,473,316,245,203,166,137,99,88,81,78,76,69,66,65,65,65,72],"timestamp_mouse":[17,38,57,77,97,116,137,157,177,198,216,237,258,277,297,317,337,358,378,397,417,438,458,478,498,517,537,557,578,597,617,638,656,677,697,717,737,757,777,797,816,837,857,878,898,918,937,958,978,998,1017,1038,1056,1077,1096,1117,1137,1157,1177,1197,1217,1238,1256,1276,1297,1316,1337,1357,1377,1397,1416,1438,1457],"xSR":741.5,"ySR":573.95,"xT1":424.9,"yT1":0,"xT2":1058.1,"yT2":0,"toosoon":0,"cond_shown":"equaldotsize","ratio_trial":500,"smaller_num":"6","larger_num":"12","correct_side":1,"subjID":"LauraValentinaCoteSanchez8","gender":"1","age":"11","school":"6"},{"start_time":1551901366088,"click_time":1551901367429,"finger_time":1551901366748,"fix_duration":1378.4466099101471,"trial":54,"RT":660,"MT":681,"sideResp":1,"stimulus":"img/250/equaldotsize/L/14_Ratio_250_L_12_R_3.png","xmouse":[780,780,780,780,780,780,780,780,780,780,780,780,780,780,780,780,780,780,780,780,780,780,780,780,780,780,780,780,780,780,780,780,780,780,772,756,732,727,722,717,712,711,711,711,706,688,637,617,600,574,557,537,536,535,535,534,534,534,534,532,531,526,522,515,505,485,474,465],"ymouse":[613,613,613,613,613,613,613,613,613,613,613,613,613,613,613,613,613,613,613,613,613,613,613,613,613,613,613,613,613,613,613,613,604,560,520,495,484,484,484,486,490,493,493,493,487,464,409,387,364,330,307,269,258,246,234,213,205,199,193,189,186,179,174,166,155,133,115,97],"timestamp_mouse":[8,31,40,61,80,100,120,140,160,180,200,221,240,260,280,299,321,340,361,381,400,420,440,460,479,501,520,541,561,580,601,620,639,660,680,700,720,740,760,780,799,821,840,860,880,899,919,941,960,981,1000,1021,1040,1061,1080,1101,1120,1140,1160,1180,1200,1221,1240,1260,1280,1301,1319,1341],"xSR":741.5,"ySR":573.95,"xT1":424.9,"yT1":0,"xT2":1058.1,"yT2":0,"toosoon":0,"cond_shown":"equaldotsize","ratio_trial":250,"smaller_num":"3","larger_num":"12","correct_side":1,"subjID":"LauraValentinaCoteSanchez8","gender":"1","age":"11","school":"6"},{"start_time":1551901374023,"click_time":1551901375888,"finger_time":1551901374847,"fix_duration":1452.8486419833048,"trial":55,"RT":824,"MT":1041,"sideResp":2,"stimulus":"img/250/randomdotsizeEA/R/10_Ratio_250_L_4_R_16.png","xmouse":[781,781,781,781,781,781,781,781,781,781,781,781,781,781,781,781,781,781,781,781,781,781,781,781,781,781,781,781,781,781,781,781,781,781,781,781,781,783,788,820,837,857,876,892,919,957,984,1004,1028,1066,1069,1069,1065,1060,1054,1052,1050,1049,1049,1047,1047,1047,1047,1047,1047,1047,1047,1047,1047,1045,1045,1045,1045,1045,1045,1045,1045,1044,1044,1044,1044,1044,1044,1044,1044,1044,1044,1044,1044,1044,1048,1052,1057,1061],"ymouse":[612,612,612,612,612,612,612,612,612,612,612,612,612,612,612,612,612,612,612,612,612,612,612,612,612,612,612,612,612,612,612,612,612,612,612,612,612,611,611,604,600,596,592,585,554,497,452,406,357,293,269,253,234,216,183,170,158,153,151,148,148,148,147,144,140,137,134,129,124,113,97,89,83,80,79,79,79,79,79,79,79,79,79,79,79,79,79,79,79,79,79,81,84,88],"timestamp_mouse":[9,34,46,66,86,104,126,145,165,184,206,226,245,266,285,305,325,345,365,386,406,426,445,465,485,506,524,546,566,584,606,625,645,666,685,706,725,745,765,785,805,824,845,865,885,904,925,945,965,985,1005,1025,1046,1065,1085,1105,1126,1145,1165,1185,1206,1225,1246,1265,1285,1304,1325,1345,1364,1385,1405,1425,1446,1466,1485,1505,1526,1546,1566,1585,1606,1625,1644,1665,1686,1706,1725,1745,1765,1786,1805,1825,1846,1865],"xSR":741.5,"ySR":573.95,"xT1":424.9,"yT1":0,"xT2":1058.1,"yT2":0,"toosoon":0,"cond_shown":"randomdotsizeEA","ratio_trial":250,"smaller_num":"4","larger_num":"16","correct_side":2,"subjID":"LauraValentinaCoteSanchez8","gender":"1","age":"11","school":"6"},{"start_time":1551901378420,"click_time":1551901379828,"finger_time":1551901379408,"fix_duration":1489.532049045503,"trial":56,"RT":988,"MT":420,"sideResp":1,"stimulus":"img/250/equaldotanddens/L/2_Ratio_250_L_16_R_4.png","xmouse":[787,787,787,787,787,787,787,787,787,787,787,787,787,787,787,787,787,787,787,787,787,787,787,787,787,787,787,787,787,787,787,787,787,787,787,787,787,787,787,787,787,787,787,787,785,780,779,779,774,765,736,721,705,686,655,619,609,599,583,576,564,560,555,549,543,541,539,536,532,520,500],"ymouse":[607,607,607,607,607,607,607,607,607,607,607,607,607,607,607,607,607,607,607,607,607,607,607,607,607,607,607,607,607,607,607,607,607,607,607,607,607,607,607,607,607,607,607,607,606,603,602,599,587,572,532,511,486,450,392,329,314,298,276,263,227,211,195,183,171,166,161,155,143,107,73],"timestamp_mouse":[10,34,48,68,89,108,128,148,169,188,208,229,249,269,288,308,328,348,368,387,409,429,448,468,488,509,528,549,569,588,608,627,648,667,689,708,728,748,768,788,808,829,848,869,888,907,928,948,968,988,1008,1028,1048,1068,1088,1107,1128,1148,1168,1187,1209,1227,1248,1268,1289,1309,1329,1347,1368,1388,1408],"xSR":741.5,"ySR":573.95,"xT1":424.9,"yT1":0,"xT2":1058.1,"yT2":0,"toosoon":0,"cond_shown":"equaldotanddens","ratio_trial":250,"smaller_num":"4","larger_num":"16","correct_side":1,"subjID":"LauraValentinaCoteSanchez8","gender":"1","age":"11","school":"6"},{"start_time":1551901381749,"click_time":1551901383348,"finger_time":1551901382528,"fix_duration":820.8502869734692,"trial":57,"RT":779,"MT":820,"sideResp":1,"stimulus":"img/250/equaldotanddens/L/1_Ratio_250_L_8_R_2.png","xmouse":[796,796,796,796,796,796,796,796,796,796,796,796,796,796,796,796,796,796,796,796,796,796,796,796,796,796,796,796,794,789,785,782,776,769,764,758,753,746,733,728,724,721,715,698,682,668,662,655,637,626,618,606,594,582,562,555,552,547,543,542,539,538,537,536,536,536,536,536,536,536,536,536,536,535,531,526,519,508,477,469],"ymouse":[641,641,641,641,641,641,641,641,641,641,641,641,641,641,641,641,641,641,641,641,641,641,641,641,641,641,641,641,641,642,643,643,643,638,634,630,626,620,605,593,580,569,560,533,504,481,471,464,451,446,441,431,418,402,361,336,306,275,238,199,184,176,170,168,168,168,168,168,168,168,168,168,167,163,160,153,144,133,104,92],"timestamp_mouse":[33,40,59,80,98,119,139,160,179,199,219,240,258,279,300,320,339,360,379,399,418,439,460,479,499,519,540,559,579,599,618,640,659,679,698,720,739,759,779,799,819,840,859,879,898,920,939,960,979,999,1019,1039,1059,1079,1098,1120,1139,1159,1179,1199,1219,1239,1259,1279,1299,1319,1339,1359,1380,1399,1419,1440,1458,1479,1499,1519,1539,1559,1579,1599],"xSR":741.5,"ySR":573.95,"xT1":424.9,"yT1":0,"xT2":1058.1,"yT2":0,"toosoon":0,"cond_shown":"equaldotanddens","ratio_trial":250,"smaller_num":"2","larger_num":"8","correct_side":1,"subjID":"LauraValentinaCoteSanchez8","gender":"1","age":"11","school":"6"},{"start_time":1551901389066,"click_time":1551901390788,"finger_time":1551901389769,"fix_duration":597.9530376200606,"trial":58,"RT":703,"MT":1019,"sideResp":2,"stimulus":"img/750/equaldotanddens/R/12_Ratio_750_L_3_R_4.png","xmouse":[755,755,755,755,755,755,755,755,755,755,755,755,755,755,755,755,755,755,755,755,755,755,755,755,755,755,755,755,755,755,756,758,761,767,780,815,831,853,878,920,935,940,943,944,945,946,949,956,968,999,1003,1012,1015,1018,1024,1027,1029,1032,1036,1037,1037,1039,1042,1047,1056,1058,1058,1058,1058,1058,1058,1058,1058,1058,1058,1058,1058,1058,1058,1058,1058,1058,1058,1058,1058,1058,1059],"ymouse":[665,665,665,665,665,665,665,665,665,665,665,665,665,665,665,665,665,665,665,665,665,665,665,665,665,665,665,665,665,665,664,658,652,642,611,543,515,487,460,422,398,387,373,358,323,307,288,267,240,170,160,140,134,129,122,118,117,113,109,108,108,107,103,98,91,91,91,91,91,91,91,91,91,91,91,91,91,91,91,91,91,91,91,91,91,91,91],"timestamp_mouse":[10,32,42,61,82,103,122,142,163,183,202,222,242,262,283,302,322,342,362,382,402,422,442,462,482,502,523,542,562,583,603,622,642,662,682,703,722,742,763,781,802,822,843,862,882,902,922,942,963,982,1003,1022,1043,1062,1082,1101,1122,1142,1162,1183,1203,1221,1243,1262,1282,1303,1322,1342,1362,1383,1402,1422,1442,1462,1482,1502,1522,1542,1561,1583,1602,1622,1642,1662,1682,1702,1722],"xSR":741.5,"ySR":573.95,"xT1":424.9,"yT1":0,"xT2":1058.1,"yT2":0,"toosoon":0,"cond_shown":"equaldotanddens","ratio_trial":750,"smaller_num":"3","larger_num":"4","correct_side":2,"subjID":"LauraValentinaCoteSanchez8","gender":"1","age":"11","school":"6"},{"start_time":1551901391981,"click_time":1551901394488,"finger_time":1551901393448,"fix_duration":250,"trial":59,"RT":1467,"MT":1040,"sideResp":2,"stimulus":"img/900/equaldotsize/R/12_Ratio_900_L_18_R_20.png","xmouse":[787,787,787,787,787,787,787,787,787,787,787,787,787,787,787,787,787,787,787,787,787,787,787,787,787,787,787,787,787,787,787,787,787,787,787,787,787,787,787,787,787,787,787,787,787,787,787,787,787,787,787,787,787,787,787,787,787,787,787,787,787,787,787,787,787,787,787,787,789,792,795,805,818,869,898,933,969,1000,1031,1050,1065,1077,1082,1083,1078,1068,1061,1061,1062,1066,1069,1069,1072,1076,1117,1121,1127,1129,1129,1129,1130,1130,1130,1130,1130,1129,1127,1127,1123,1122,1121,1119,1118,1115,1114,1111,1110,1109,1109,1109,1109,1109,1109,1109,1109,1109],"ymouse":[602,602,602,602,602,602,602,602,602,602,602,602,602,602,602,602,602,602,602,602,602,602,602,602,602,602,603,603,603,603,603,603,603,603,603,603,603,603,603,603,603,603,603,603,603,603,603,603,603,603,603,603,603,603,603,603,603,603,603,603,603,603,603,603,603,603,602,601,598,596,593,585,574,537,520,496,470,449,420,398,377,359,343,300,279,257,231,219,209,194,190,186,183,177,163,162,161,161,161,161,160,158,156,155,155,152,150,148,141,139,136,131,128,123,115,108,102,101,101,101,101,101,101,100,100,98],"timestamp_mouse":[6,32,46,67,86,107,128,146,168,187,208,227,247,267,288,307,327,347,367,387,408,427,448,467,487,508,528,547,568,587,606,627,648,667,688,706,727,747,767,787,807,828,847,868,886,907,927,948,967,987,1008,1027,1048,1068,1086,1107,1128,1147,1168,1187,1206,1227,1246,1268,1288,1307,1327,1347,1367,1386,1406,1427,1448,1467,1487,1507,1527,1547,1567,1587,1606,1627,1648,1667,1687,1706,1727,1747,1767,1787,1807,1827,1847,1867,1887,1906,1928,1948,1966,1987,2007,2027,2048,2067,2088,2107,2128,2147,2168,2187,2207,2227,2247,2267,2287,2307,2327,2347,2367,2387,2406,2428,2447,2468,2487,2507],"xSR":741.5,"ySR":573.95,"xT1":424.9,"yT1":0,"xT2":1058.1,"yT2":0,"toosoon":0,"cond_shown":"equaldotsize","ratio_trial":900,"smaller_num":"18","larger_num":"20","correct_side":2,"subjID":"LauraValentinaCoteSanchez8","gender":"1","age":"11","school":"6"},{"start_time":1551901396294,"click_time":1551901400488,"finger_time":1551901396928,"fix_duration":865.0399126778128,"trial":60,"RT":634,"MT":3560,"sideResp":2,"stimulus":"img/250/equaldotsize/R/10_Ratio_250_L_4_R_16.png","xmouse":[805,805,805,805,805,805,805,805,805,805,805,805,805,805,805,805,805,805,805,805,805,805,805,805,805,805,805,804,806,811,819,835,852,873,907,940,998,1007,1029,1032,1033,1034,1034,1034,1034,1034,1034,1036,1045,1047,1048,1050,1050,1050,1050,1050,1050,1050,1050,1052,1053,1053,1055,1056,1058,1059,1062,1063,1063,1063,1063,1063,1063,1063,1063,1063,1063,1063,1063,1063,1063,1064,1064,1065,1066,1066,1066,1066,1066,1066,1066,1066,1066,1066,1066,1066,1066