[{"start_time":1551882428772,"click_time":1551882433397,"finger_time":1551882428783,"fix_duration":250,"trial":0,"RT":11,"MT":4614,"sideResp":2,"stimulus":[],"xmouse":[825,825,825,825,825,825,825,825,825,825,825,825,825,825,825,825,825,825,825,825,824,824,824,824,824,824,823,823,822,822,822,822,822,822,823,825,825,825,825,825,825,825,825,826,826,826,826,826,826,826,826,826,826,826,826,826,826,826,825,823,823,823,823,823,822,822,822,821,821,821,821,821,821,821,821,821,821,821,821,821,820,820,820,820,820,818,815,812,809,806,805,804,804,804,804,804,804,804,804,804,804,804,804,804,804,804,804,804,804,804,804,804,804,804,804,804,804,804,804,804,804,804,804,804,804,804,804,804,804,804,801,799,793,783,768,767,766,765,764,764,764,764,764,764,764,764,764,764,764,764,764,764,764,764,764,764,767,772,776,776,776,776,776,776,776,776,776,776,776,776,776,776,776,776,776,776,776,776,776,776,776,776,776,776,776,776,776,776,776,776,776,776,776,776,776,776,776,776,776,781,785,791,796,804,817,825,834,841,847,866,884,901,917,930,956,963,971,979,985,1001,1008,1013,1015,1016,1018,1020,1020,1021,1022,1025,1034,1061],"ymouse":[499,499,499,499,499,499,499,499,499,499,499,499,499,499,499,499,499,499,499,499,499,499,499,499,499,499,499,501,504,506,512,513,516,518,528,534,537,539,541,545,547,549,551,553,554,555,555,555,555,555,555,555,555,555,556,562,567,571,575,581,586,588,592,595,606,610,614,618,621,624,624,624,624,624,624,624,624,624,624,624,624,624,624,624,624,626,628,631,633,636,637,638,638,638,638,638,638,638,638,638,638,638,638,638,638,638,638,638,638,638,638,638,638,638,638,638,638,638,638,638,638,638,638,638,638,638,638,638,638,638,635,632,625,617,607,605,604,604,603,603,603,603,603,603,603,603,603,603,603,603,603,603,603,603,602,601,601,601,601,602,602,602,602,602,602,602,602,602,602,602,602,602,602,602,602,602,602,602,602,602,602,602,602,602,602,602,602,602,602,602,602,602,602,602,602,602,602,602,602,593,582,570,558,539,512,500,484,466,449,405,375,343,319,299,261,249,233,215,197,154,135,113,98,91,84,81,80,79,78,74,71,65],"timestamp_mouse":[11,26,45,66,86,106,126,145,166,186,205,225,246,267,286,305,325,345,366,386,405,426,445,465,485,505,526,545,566,585,605,625,645,666,686,705,725,745,767,786,805,826,845,865,885,906,926,945,965,987,1006,1026,1045,1065,1085,1105,1126,1147,1167,1186,1205,1226,1246,1266,1285,1306,1325,1346,1366,1385,1406,1425,1446,1467,1485,1506,1526,1545,1567,1585,1606,1625,1647,1666,1686,1705,1725,1745,1766,1785,1805,1827,1846,1865,1886,1905,1925,1946,1966,1987,2006,2027,2047,2066,2086,2106,2126,2145,2165,2185,2206,2226,2246,2265,2287,2306,2326,2346,2366,2385,2407,2426,2446,2466,2485,2506,2526,2545,2567,2585,2606,2626,2645,2665,2685,2707,2726,2746,2767,2786,2806,2827,2845,2866,2886,2907,2925,2945,2967,2986,3005,3026,3045,3067,3085,3105,3126,3145,3166,3185,3206,3227,3245,3267,3286,3305,3326,3347,3366,3385,3406,3425,3446,3467,3486,3506,3525,3547,3565,3586,3607,3625,3646,3666,3685,3706,3727,3747,3765,3786,3805,3825,3845,3865,3887,3905,3925,3946,3967,3986,4005,4025,4045,4065,4085,4105,4125,4145,4165,4186,4205,4226,4246,4265,4285,4305,4326,4345,4365,4385,4405,4425,4446,4466,4485,4505,4526,4545,4566,4585,4605,4625],"xSR":741.5,"ySR":469.95,"xT1":424.9,"yT1":0,"xT2":1058.1,"yT2":0,"toosoon":0,"cond_shown":"Congruent","ratio_trial":200,"L_num":6,"L_den":20,"R_num":11,"R_den":22,"correct_side":2,"subjID":"leidysofiacharcas26","gender":"1","age":"11","school":"6","test":{"fix_dur":[250,1500],"timestim":1000,"targets_dim":[100,100],"targets_relative_coord":[0.3,0.7],"size_stim":[880,420],"start_dim":[100,100],"size_start":[300,300],"size_fix":60,"samplingrate":20,"img_types":["Congruent","Incongruent"],"ratios":[100,200,300],"rep_conds":19,"nTrials":120,"trials_to_rest":500,"Trials_order":[62,32,110,117,27,119,10,74,30,105,84,79,59,58,118,31,85,34,83,87,93,26,0,106,40,5,46,33,16,47,109,77,89,42,95,91,114,98,52,38,1,66,56,2,4,65,39,35,48,82,76,17,29,75,86,6,104,63,99,49,94,41,64,9,37,7,112,13,54,14,3,60,67,25,24,80,22,36,72,19,101,45,68,115,18,71,103,97,15,55,108,88,43,44,21,8,102,73,70,51,107,69,12,11,96,90,20,113,57,53,23,61,111,100,50,78,81,92,28,116],"cond_shown":["Congruent","Congruent","Congruent","Incongruent","Incongruent","Incongruent","Congruent","Congruent","Congruent","Incongruent","Congruent","Incongruent","Incongruent","Congruent","Congruent","Incongruent","Incongruent","Congruent","Incongruent","Incongruent","Incongruent","Congruent","Congruent","Congruent","Congruent","Incongruent","Congruent","Incongruent","Congruent","Incongruent","Incongruent","Incongruent","Incongruent","Congruent","Incongruent","Incongruent","Congruent","Congruent","Congruent","Congruent","Incongruent","Congruent","Congruent","Congruent","Congruent","Incongruent","Incongruent","Incongruent","Congruent","Congruent","Congruent","Incongruent","Incongruent","Incongruent","Congruent","Congruent","Congruent","Incongruent","Incongruent","Incongruent","Congruent","Incongruent","Congruent","Incongruent","Incongruent","Incongruent","Congruent","Incongruent","Congruent","Congruent","Incongruent","Congruent","Incongruent","Incongruent","Congruent","Congruent","Congruent","Congruent","Congruent","Incongruent","Incongruent","Incongruent","Congruent","Incongruent","Congruent","Incongruent","Incongruent","Incongruent","Incongruent","Incongruent","Congruent","Congruent","Incongruent","Congruent","Incongruent","Congruent","Congruent","Incongruent","Congruent","Incongruent","Incongruent","Incongruent","Congruent","Incongruent","Congruent","Congruent","Congruent","Incongruent","Incongruent","Incongruent","Incongruent","Incongruent","Incongruent","Congruent","Congruent","Congruent","Incongruent","Congruent","Congruent","Congruent"],"ratio_trial":[200,200,200,200,200,300,300,200,100,200,100,100,300,300,300,100,100,300,300,200,200,200,100,300,300,300,300,200,300,300,100,300,300,100,300,100,100,200,300,200,100,100,200,200,300,300,200,300,100,300,300,300,300,200,200,100,200,200,200,100,300,300,300,200,100,100,300,100,100,200,200,100,100,100,100,200,300,100,100,100,300,200,200,100,100,300,100,100,200,100,100,300,100,200,200,200,100,100,300,200,300,200,100,300,100,100,200,300,200,300,300,100,200,300,200,100,200,200,300,200],"left_num":[6,3,9,7,7,7,3,16,4,4,15,12,4,20,8,4,13,11,4,7,11,12,10,8,8,7,11,7,11,1,3,4,13,11,4,3,11,6,20,5,6,9,9,13,24,2,7,3,1,20,4,4,7,7,12,3,8,3,14,3,3,13,5,6,10,9,20,13,8,7,4,6,10,13,1,16,4,6,12,6,13,3,9,12,15,8,3,3,7,17,10,11,10,3,3,9,10,8,8,4,4,14,8,1,6,10,4,1,14,1,8,11,7,12,6,10,7,12,1,15],"right_num":[11,9,4,4,14,8,2,12,15,6,13,9,2,9,10,8,12,1,2,8,3,6,3,10,1,8,4,4,4,2,4,2,12,4,2,11,6,7,13,14,3,8,13,14,8,6,6,4,18,9,1,2,8,14,6,2,3,11,12,11,4,12,6,3,8,20,14,6,2,18,14,5,9,12,3,9,13,15,13,3,12,11,4,9,13,9,7,11,14,10,3,1,8,9,1,4,3,1,1,14,2,6,2,2,15,3,3,2,12,3,14,9,12,2,7,3,12,6,8,4],"left_den":[20,12,20,15,10,10,6,20,10,5,25,24,20,25,15,8,26,22,20,10,20,20,25,15,16,10,22,15,22,2,6,20,26,22,20,5,22,12,25,10,12,15,30,26,30,4,15,6,2,25,10,20,10,10,15,6,15,4,30,5,6,26,25,20,25,10,25,26,16,15,6,20,25,26,2,30,20,12,30,12,26,4,20,24,25,10,9,5,10,30,25,22,25,12,10,20,25,20,16,6,20,30,16,2,12,25,8,2,30,2,10,22,10,24,12,25,10,20,30,25],"right_den":[22,20,16,6,28,20,10,20,30,10,26,15,4,18,12,20,20,5,4,16,4,15,10,12,5,20,20,6,20,10,10,4,15,10,4,22,15,10,26,20,5,16,26,20,16,30,9,20,30,18,10,4,20,28,10,5,9,20,18,22,5,15,12,6,16,25,28,10,5,27,30,25,18,20,5,27,26,25,26,5,15,20,16,15,26,18,30,22,28,15,10,5,16,20,2,16,10,2,5,30,4,9,5,10,25,10,10,10,18,15,28,15,24,10,10,10,24,15,24,10],"correct_side":[2,2,1,2,1,1,1,1,2,1,1,2,2,1,2,1,2,1,2,1,2,1,1,2,1,1,1,2,1,1,1,2,2,1,2,1,1,2,1,2,2,1,2,2,1,1,2,1,2,1,1,2,1,1,1,1,1,1,2,1,2,2,2,2,2,1,1,2,1,2,1,1,2,2,2,1,2,2,2,2,2,1,1,2,1,1,1,1,1,2,1,1,2,2,2,1,1,2,1,1,2,2,1,1,2,1,1,1,2,1,1,2,1,1,2,1,1,1,2,1],"img_shown":["img2/200/Congruent/R/C_Dist_200_LN_6_LD_20_RN_11_RD_22_1.png","img2/200/Congruent/R/C_Dist_200_LN_3_LD_12_RN_9_RD_20_1.png","img2/200/Congruent/L/C_Dist_200_LN_9_LD_20_RN_4_RD_16_0.png","img2/200/Incongruent/R/I_Dist_200_LN_7_LD_15_RN_4_RD_6_1.png","img2/200/Incongruent/L/I_Dist_200_LN_7_LD_10_RN_14_RD_28_0.png","img2/300/Incongruent/L/I_Dist_300_LN_7_LD_10_RN_8_RD_20_0.png","img2/300/Congruent/L/C_Dist_300_LN_3_LD_6_RN_2_RD_10_0.png","img2/200/Congruent/L/C_Dist_200_LN_16_LD_20_RN_12_RD_20_0.png","img2/100/Congruent/R/C_Dist_100_LN_4_LD_10_RN_15_RD_30_1.png","img2/200/Incongruent/L/I_Dist_200_LN_4_LD_5_RN_6_RD_10_0.png","img2/100/Congruent/L/C_Dist_100_LN_15_LD_25_RN_13_RD_26_0.png","img2/100/Incongruent/R/I_Dist_100_LN_12_LD_24_RN_9_RD_15_1.png","img2/300/Incongruent/R/I_Dist_300_LN_4_LD_20_RN_2_RD_4_1.png","img2/300/Congruent/L/C_Dist_300_LN_20_LD_25_RN_9_RD_18_0.png","img2/300/Congruent/R/C_Dist_300_LN_8_LD_15_RN_10_RD_12_1.png","img2/100/Incongruent/L/I_Dist_100_LN_4_LD_8_RN_8_RD_20_0.png","img2/100/Incongruent/R/I_Dist_100_LN_13_LD_26_RN_12_RD_20_1.png","img2/300/Congruent/L/C_Dist_300_LN_11_LD_22_RN_1_RD_5_0.png","img2/300/Incongruent/R/I_Dist_300_LN_4_LD_20_RN_2_RD_4_1.png","img2/200/Incongruent/L/I_Dist_200_LN_7_LD_10_RN_8_RD_16_0.png","img2/200/Incongruent/R/I_Dist_200_LN_11_LD_20_RN_3_RD_4_1.png","img2/200/Congruent/L/C_Dist_200_LN_12_LD_20_RN_6_RD_15_0.png","img2/100/Congruent/L/C_Dist_100_LN_10_LD_25_RN_3_RD_10_0.png","img2/300/Congruent/R/C_Dist_300_LN_8_LD_15_RN_10_RD_12_1.png","img2/300/Congruent/L/C_Dist_300_LN_8_LD_16_RN_1_RD_5_0.png","img2/300/Incongruent/L/I_Dist_300_LN_7_LD_10_RN_8_RD_20_0.png","img2/300/Congruent/L/C_Dist_300_LN_11_LD_22_RN_4_RD_20_0.png","img2/200/Incongruent/R/I_Dist_200_LN_7_LD_15_RN_4_RD_6_1.png","img2/300/Congruent/L/C_Dist_300_LN_11_LD_22_RN_4_RD_20_0.png","img2/300/Incongruent/L/I_Dist_300_LN_1_LD_2_RN_2_RD_10_0.png","img2/100/Incongruent/L/I_Dist_100_LN_3_LD_6_RN_4_RD_10_0.png","img2/300/Incongruent/R/I_Dist_300_LN_4_LD_20_RN_2_RD_4_1.png","img2/300/Incongruent/R/I_Dist_300_LN_13_LD_26_RN_12_RD_15_1.png","img2/100/Congruent/L/C_Dist_100_LN_11_LD_22_RN_4_RD_10_0.png","img2/300/Incongruent/R/I_Dist_300_LN_4_LD_20_RN_2_RD_4_1.png","img2/100/Incongruent/L/I_Dist_100_LN_3_LD_5_RN_11_RD_22_0.png","img2/100/Congruent/L/C_Dist_100_LN_11_LD_22_RN_6_RD_15_0.png","img2/200/Congruent/R/C_Dist_200_LN_6_LD_12_RN_7_RD_10_1.png","img2/300/Congruent/L/C_Dist_300_LN_20_LD_25_RN_13_RD_26_0.png","img2/200/Congruent/R/C_Dist_200_LN_5_LD_10_RN_14_RD_20_1.png","img2/100/Incongruent/R/I_Dist_100_LN_6_LD_12_RN_3_RD_5_1.png","img2/100/Congruent/L/C_Dist_100_LN_9_LD_15_RN_8_RD_16_0.png","img2/200/Congruent/R/C_Dist_200_LN_9_LD_30_RN_13_RD_26_1.png","img2/200/Congruent/R/C_Dist_200_LN_13_LD_26_RN_14_RD_20_1.png","img2/300/Congruent/L/C_Dist_300_LN_24_LD_30_RN_8_RD_16_0.png","img2/300/Incongruent/L/I_Dist_300_LN_2_LD_4_RN_6_RD_30_0.png","img2/200/Incongruent/R/I_Dist_200_LN_7_LD_15_RN_6_RD_9_1.png","img2/300/Incongruent/L/I_Dist_300_LN_3_LD_6_RN_4_RD_20_0.png","img2/100/Congruent/R/C_Dist_100_LN_1_LD_2_RN_18_RD_30_1.png","img2/300/Congruent/L/C_Dist_300_LN_20_LD_25_RN_9_RD_18_0.png","img2/300/Congruent/L/C_Dist_300_LN_4_LD_10_RN_1_RD_10_0.png","img2/300/Incongruent/R/I_Dist_300_LN_4_LD_20_RN_2_RD_4_1.png","img2/300/Incongruent/L/I_Dist_300_LN_7_LD_10_RN_8_RD_20_0.png","img2/200/Incongruent/L/I_Dist_200_LN_7_LD_10_RN_14_RD_28_0.png","img2/200/Congruent/L/C_Dist_200_LN_12_LD_15_RN_6_RD_10_0.png","img2/100/Congruent/L/C_Dist_100_LN_3_LD_6_RN_2_RD_5_0.png","img2/200/Congruent/L/C_Dist_200_LN_8_LD_15_RN_3_RD_9_0.png","img2/200/Incongruent/L/I_Dist_200_LN_3_LD_4_RN_11_RD_20_0.png","img2/200/Incongruent/R/I_Dist_200_LN_14_LD_30_RN_12_RD_18_1.png","img2/100/Incongruent/L/I_Dist_100_LN_3_LD_5_RN_11_RD_22_0.png","img2/300/Congruent/R/C_Dist_300_LN_3_LD_6_RN_4_RD_5_1.png","img2/300/Incongruent/R/I_Dist_300_LN_13_LD_26_RN_12_RD_15_1.png","img2/300/Congruent/R/C_Dist_300_LN_5_LD_25_RN_6_RD_12_1.png","img2/200/Incongruent/R/I_Dist_200_LN_6_LD_20_RN_3_RD_6_1.png","img2/100/Incongruent/R/I_Dist_100_LN_10_LD_25_RN_8_RD_16_1.png","img2/100/Incongruent/L/I_Dist_100_LN_9_LD_10_RN_20_RD_25_0.png","img2/300/Congruent/L/C_Dist_300_LN_20_LD_25_RN_14_RD_28_0.png","img2/100/Incongruent/R/I_Dist_100_LN_13_LD_26_RN_6_RD_10_1.png","img2/100/Congruent/L/C_Dist_100_LN_8_LD_16_RN_2_RD_5_0.png","img2/200/Congruent/R/C_Dist_200_LN_7_LD_15_RN_18_RD_27_1.png","img2/200/Incongruent/L/I_Dist_200_LN_4_LD_6_RN_14_RD_30_0.png","img2/100/Congruent/L/C_Dist_100_LN_6_LD_20_RN_5_RD_25_0.png","img2/100/Incongruent/R/I_Dist_100_LN_10_LD_25_RN_9_RD_18_1.png","img2/100/Incongruent/R/I_Dist_100_LN_13_LD_26_RN_12_RD_20_1.png","img2/100/Congruent/R/C_Dist_100_LN_1_LD_2_RN_3_RD_5_1.png","img2/200/Congruent/L/C_Dist_200_LN_16_LD_30_RN_9_RD_27_0.png","img2/300/Congruent/R/C_Dist_300_LN_4_LD_20_RN_13_RD_26_1.png","img2/100/Congruent/R/C_Dist_100_LN_6_LD_12_RN_15_RD_25_1.png","img2/100/Congruent/R/C_Dist_100_LN_12_LD_30_RN_13_RD_26_1.png","img2/100/Incongruent/R/I_Dist_100_LN_6_LD_12_RN_3_RD_5_1.png","img2/300/Incongruent/R/I_Dist_300_LN_13_LD_26_RN_12_RD_15_1.png","img2/200/Incongruent/L/I_Dist_200_LN_3_LD_4_RN_11_RD_20_0.png","img2/200/Congruent/L/C_Dist_200_LN_9_LD_20_RN_4_RD_16_0.png","img2/100/Incongruent/R/I_Dist_100_LN_12_LD_24_RN_9_RD_15_1.png","img2/100/Congruent/L/C_Dist_100_LN_15_LD_25_RN_13_RD_26_0.png","img2/300/Incongruent/L/I_Dist_300_LN_8_LD_10_RN_9_RD_18_0.png","img2/100/Incongruent/L/I_Dist_100_LN_3_LD_9_RN_7_RD_30_0.png","img2/100/Incongruent/L/I_Dist_100_LN_3_LD_5_RN_11_RD_22_0.png","img2/200/Incongruent/L/I_Dist_200_LN_7_LD_10_RN_14_RD_28_0.png","img2/100/Incongruent/R/I_Dist_100_LN_17_LD_30_RN_10_RD_15_1.png","img2/100/Congruent/L/C_Dist_100_LN_10_LD_25_RN_3_RD_10_0.png","img2/300/Congruent/L/C_Dist_300_LN_11_LD_22_RN_1_RD_5_0.png","img2/100/Incongruent/R/I_Dist_100_LN_10_LD_25_RN_8_RD_16_1.png","img2/200/Congruent/R/C_Dist_200_LN_3_LD_12_RN_9_RD_20_1.png","img2/200/Incongruent/R/I_Dist_200_LN_3_LD_10_RN_1_RD_2_1.png","img2/200/Congruent/L/C_Dist_200_LN_9_LD_20_RN_4_RD_16_0.png","img2/100/Congruent/L/C_Dist_100_LN_10_LD_25_RN_3_RD_10_0.png","img2/100/Incongruent/R/I_Dist_100_LN_8_LD_20_RN_1_RD_2_1.png","img2/300/Congruent/L/C_Dist_300_LN_8_LD_16_RN_1_RD_5_0.png","img2/200/Incongruent/L/I_Dist_200_LN_4_LD_6_RN_14_RD_30_0.png","img2/300/Incongruent/R/I_Dist_300_LN_4_LD_20_RN_2_RD_4_1.png","img2/200/Incongruent/R/I_Dist_200_LN_14_LD_30_RN_6_RD_9_1.png","img2/100/Congruent/L/C_Dist_100_LN_8_LD_16_RN_2_RD_5_0.png","img2/300/Incongruent/L/I_Dist_300_LN_1_LD_2_RN_2_RD_10_0.png","img2/100/Congruent/R/C_Dist_100_LN_6_LD_12_RN_15_RD_25_1.png","img2/100/Congruent/L/C_Dist_100_LN_10_LD_25_RN_3_RD_10_0.png","img2/200/Congruent/L/C_Dist_200_LN_4_LD_8_RN_3_RD_10_0.png","img2/300/Incongruent/L/I_Dist_300_LN_1_LD_2_RN_2_RD_10_0.png","img2/200/Incongruent/R/I_Dist_200_LN_14_LD_30_RN_12_RD_18_1.png","img2/300/Incongruent/L/I_Dist_300_LN_1_LD_2_RN_3_RD_15_0.png","img2/300/Incongruent/L/I_Dist_300_LN_8_LD_10_RN_14_RD_28_0.png","img2/100/Incongruent/R/I_Dist_100_LN_11_LD_22_RN_9_RD_15_1.png","img2/200/Incongruent/L/I_Dist_200_LN_7_LD_10_RN_12_RD_24_0.png","img2/300/Congruent/L/C_Dist_300_LN_12_LD_24_RN_2_RD_10_0.png","img2/200/Congruent/R/C_Dist_200_LN_6_LD_12_RN_7_RD_10_1.png","img2/100/Congruent/L/C_Dist_100_LN_10_LD_25_RN_3_RD_10_0.png","img2/200/Incongruent/L/I_Dist_200_LN_7_LD_10_RN_12_RD_24_0.png","img2/200/Congruent/L/C_Dist_200_LN_12_LD_20_RN_6_RD_15_0.png","img2/300/Congruent/R/C_Dist_300_LN_1_LD_30_RN_8_RD_24_1.png","img2/200/Congruent/L/C_Dist_200_LN_15_LD_25_RN_4_RD_10_0.png"],"dist100_C":[["C_Dist_100_LN_10_LD_25_RN_3_RD_10_0.png","C_Dist_100_LN_11_LD_22_RN_4_RD_10_0.png","C_Dist_100_LN_11_LD_22_RN_6_RD_15_0.png","C_Dist_100_LN_15_LD_25_RN_13_RD_26_0.png","C_Dist_100_LN_3_LD_6_RN_2_RD_5_0.png","C_Dist_100_LN_6_LD_20_RN_5_RD_25_0.png","C_Dist_100_LN_8_LD_16_RN_2_RD_5_0.png","C_Dist_100_LN_9_LD_15_RN_8_RD_16_0.png"],["C_Dist_100_LN_1_LD_2_RN_18_RD_30_1.png","C_Dist_100_LN_1_LD_2_RN_3_RD_5_1.png","C_Dist_100_LN_12_LD_30_RN_13_RD_26_1.png","C_Dist_100_LN_2_LD_5_RN_11_RD_22_1.png","C_Dist_100_LN_2_LD_5_RN_6_RD_12_1.png","C_Dist_100_LN_3_LD_20_RN_4_RD_16_1.png","C_Dist_100_LN_4_LD_10_RN_15_RD_30_1.png","C_Dist_100_LN_4_LD_8_RN_6_RD_10_1.png","C_Dist_100_LN_6_LD_12_RN_15_RD_25_1.png","C_Dist_100_LN_7_LD_14_RN_15_RD_25_1.png","C_Dist_100_LN_7_LD_14_RN_9_RD_15_1.png"]],"dist100_I":[["I_Dist_100_LN_1_LD_2_RN_8_RD_20_0.png","I_Dist_100_LN_2_LD_4_RN_6_RD_15_0.png","I_Dist_100_LN_2_LD_4_RN_8_RD_20_0.png","I_Dist_100_LN_3_LD_5_RN_11_RD_22_0.png","I_Dist_100_LN_3_LD_5_RN_8_RD_16_0.png","I_Dist_100_LN_3_LD_6_RN_4_RD_10_0.png","I_Dist_100_LN_3_LD_9_RN_7_RD_30_0.png","I_Dist_100_LN_4_LD_8_RN_8_RD_20_0.png","I_Dist_100_LN_6_LD_10_RN_11_RD_22_0.png","I_Dist_100_LN_6_LD_10_RN_13_RD_26_0.png","I_Dist_100_LN_6_LD_10_RN_7_RD_14_0.png","I_Dist_100_LN_9_LD_10_RN_20_RD_25_0.png","I_Dist_100_LN_9_LD_15_RN_13_RD_26_0.png","I_Dist_100_LN_9_LD_15_RN_14_RD_28_0.png"],["I_Dist_100_LN_10_LD_25_RN_8_RD_16_1.png","I_Dist_100_LN_10_LD_25_RN_9_RD_18_1.png","I_Dist_100_LN_11_LD_22_RN_9_RD_15_1.png","I_Dist_100_LN_12_LD_24_RN_9_RD_15_1.png","I_Dist_100_LN_12_LD_30_RN_2_RD_4_1.png","I_Dist_100_LN_13_LD_26_RN_12_RD_20_1.png","I_Dist_100_LN_13_LD_26_RN_6_RD_10_1.png","I_Dist_100_LN_17_LD_30_RN_10_RD_15_1.png","I_Dist_100_LN_6_LD_12_RN_3_RD_5_1.png","I_Dist_100_LN_8_LD_16_RN_6_RD_10_1.png","I_Dist_100_LN_8_LD_20_RN_1_RD_2_1.png","I_Dist_100_LN_9_LD_18_RN_6_RD_10_1.png"]],"dist100_S":[["E_Dist_100_LN_2_LD_12_RN_2_RD_30_0.png","E_Dist_100_LN_6_LD_10_RN_6_RD_12_0.png"],["E_Dist_100_LN_6_LD_12_RN_6_RD_10_1.png"]],"dist200_C":[["C_Dist_200_LN_11_LD_22_RN_3_RD_10_0.png","C_Dist_200_LN_12_LD_15_RN_6_RD_10_0.png","C_Dist_200_LN_12_LD_20_RN_6_RD_15_0.png","C_Dist_200_LN_14_LD_28_RN_6_RD_20_0.png","C_Dist_200_LN_15_LD_25_RN_4_RD_10_0.png","C_Dist_200_LN_16_LD_20_RN_12_RD_20_0.png","C_Dist_200_LN_16_LD_30_RN_9_RD_27_0.png","C_Dist_200_LN_20_LD_25_RN_9_RD_15_0.png","C_Dist_200_LN_21_LD_30_RN_2_RD_4_0.png","C_Dist_200_LN_4_LD_10_RN_3_RD_15_0.png","C_Dist_200_LN_4_LD_8_RN_3_RD_10_0.png","C_Dist_200_LN_6_LD_15_RN_3_RD_15_0.png","C_Dist_200_LN_7_LD_21_RN_2_RD_15_0.png","C_Dist_200_LN_8_LD_15_RN_2_RD_6_0.png","C_Dist_200_LN_8_LD_15_RN_3_RD_9_0.png","C_Dist_200_LN_8_LD_15_RN_7_RD_21_0.png","C_Dist_200_LN_9_LD_20_RN_4_RD_16_0.png"],["C_Dist_200_LN_1_LD_2_RN_21_RD_30_1.png","C_Dist_200_LN_13_LD_26_RN_14_RD_20_1.png","C_Dist_200_LN_3_LD_10_RN_11_RD_22_1.png","C_Dist_200_LN_3_LD_10_RN_14_RD_28_1.png","C_Dist_200_LN_3_LD_10_RN_7_RD_14_1.png","C_Dist_200_LN_3_LD_12_RN_9_RD_20_1.png","C_Dist_200_LN_3_LD_6_RN_14_RD_20_1.png","C_Dist_200_LN_5_LD_10_RN_14_RD_20_1.png","C_Dist_200_LN_6_LD_12_RN_7_RD_10_1.png","C_Dist_200_LN_6_LD_20_RN_11_RD_22_1.png","C_Dist_200_LN_7_LD_15_RN_18_RD_27_1.png","C_Dist_200_LN_9_LD_30_RN_13_RD_26_1.png"]],"dist200_I":[["I_Dist_200_LN_1_LD_2_RN_3_RD_10_0.png","I_Dist_200_LN_1_LD_3_RN_2_RD_15_0.png","I_Dist_200_LN_3_LD_4_RN_11_RD_20_0.png","I_Dist_200_LN_4_LD_5_RN_6_RD_10_0.png","I_Dist_200_LN_4_LD_6_RN_14_RD_30_0.png","I_Dist_200_LN_7_LD_10_RN_12_RD_24_0.png","I_Dist_200_LN_7_LD_10_RN_14_RD_28_0.png","I_Dist_200_LN_7_LD_10_RN_8_RD_16_0.png"],["I_Dist_200_LN_11_LD_20_RN_3_RD_4_1.png","I_Dist_200_LN_14_LD_30_RN_12_RD_18_1.png","I_Dist_200_LN_14_LD_30_RN_6_RD_9_1.png","I_Dist_200_LN_3_LD_10_RN_1_RD_2_1.png","I_Dist_200_LN_4_LD_30_RN_1_RD_3_1.png","I_Dist_200_LN_6_LD_20_RN_3_RD_6_1.png","I_Dist_200_LN_7_LD_15_RN_4_RD_6_1.png","I_Dist_200_LN_7_LD_15_RN_6_RD_9_1.png","I_Dist_200_LN_9_LD_15_RN_8_RD_10_1.png"]],"dist200_S":[["E_Dist_200_LN_3_LD_6_RN_3_RD_10_0.png"],["E_Dist_200_LN_3_LD_10_RN_3_RD_6_1.png"]],"dist300_C":[["C_Dist_300_LN_11_LD_22_RN_1_RD_5_0.png","C_Dist_300_LN_11_LD_22_RN_2_RD_10_0.png","C_Dist_300_LN_11_LD_22_RN_4_RD_20_0.png","C_Dist_300_LN_12_LD_24_RN_2_RD_10_0.png","C_Dist_300_LN_18_LD_20_RN_9_RD_15_0.png","C_Dist_300_LN_20_LD_25_RN_13_RD_26_0.png","C_Dist_300_LN_20_LD_25_RN_14_RD_28_0.png","C_Dist_300_LN_20_LD_25_RN_5_RD_10_0.png","C_Dist_300_LN_20_LD_25_RN_8_RD_16_0.png","C_Dist_300_LN_20_LD_25_RN_9_RD_18_0.png","C_Dist_300_LN_24_LD_30_RN_2_RD_4_0.png","C_Dist_300_LN_24_LD_30_RN_8_RD_16_0.png","C_Dist_300_LN_3_LD_6_RN_2_RD_10_0.png","C_Dist_300_LN_4_LD_10_RN_1_RD_10_0.png","C_Dist_300_LN_4_LD_5_RN_2_RD_4_0.png","C_Dist_300_LN_8_LD_16_RN_1_RD_5_0.png","C_Dist_300_LN_9_LD_10_RN_3_RD_5_0.png"],["C_Dist_300_LN_1_LD_20_RN_7_RD_20_1.png","C_Dist_300_LN_1_LD_3_RN_19_RD_30_1.png","C_Dist_300_LN_1_LD_30_RN_8_RD_24_1.png","C_Dist_300_LN_1_LD_5_RN_11_RD_22_1.png","C_Dist_300_LN_1_LD_5_RN_3_RD_6_1.png","C_Dist_300_LN_1_LD_5_RN_6_RD_12_1.png","C_Dist_300_LN_2_LD_10_RN_12_RD_24_1.png","C_Dist_300_LN_2_LD_20_RN_10_RD_25_1.png","C_Dist_300_LN_3_LD_12_RN_11_RD_20_1.png","C_Dist_300_LN_3_LD_6_RN_4_RD_5_1.png","C_Dist_300_LN_4_LD_20_RN_13_RD_26_1.png","C_Dist_300_LN_5_LD_25_RN_6_RD_12_1.png","C_Dist_300_LN_5_LD_25_RN_7_RD_14_1.png","C_Dist_300_LN_7_LD_14_RN_20_RD_25_1.png","C_Dist_300_LN_8_LD_15_RN_10_RD_12_1.png"]],"dist300_I":[["I_Dist_300_LN_1_LD_2_RN_2_RD_10_0.png","I_Dist_300_LN_1_LD_2_RN_3_RD_15_0.png","I_Dist_300_LN_2_LD_4_RN_6_RD_30_0.png","I_Dist_300_LN_3_LD_6_RN_4_RD_20_0.png","I_Dist_300_LN_4_LD_5_RN_6_RD_12_0.png","I_Dist_300_LN_4_LD_5_RN_8_RD_16_0.png","I_Dist_300_LN_7_LD_10_RN_8_RD_20_0.png","I_Dist_300_LN_8_LD_10_RN_14_RD_28_0.png","I_Dist_300_LN_8_LD_10_RN_9_RD_18_0.png"],["I_Dist_300_LN_13_LD_26_RN_12_RD_15_1.png","I_Dist_300_LN_4_LD_20_RN_2_RD_4_1.png"]],"dist300_S":[["E_Dist_300_LN_9_LD_12_RN_9_RD_20_0.png"],["E_Dist_300_LN_18_LD_30_RN_18_RD_20_1.png","E_Dist_300_LN_3_LD_10_RN_3_RD_5_1.png","E_Dist_300_LN_9_LD_20_RN_9_RD_12_1.png"]],"dist500_C":[["C_Dist_500_LN_10_LD_13_RN_7_RD_26_0.png","C_Dist_500_LN_10_LD_15_RN_4_RD_24_0.png","C_Dist_500_LN_12_LD_16_RN_3_RD_12_0.png","C_Dist_500_LN_12_LD_18_RN_4_RD_24_0.png","C_Dist_500_LN_15_LD_18_RN_5_RD_15_0.png","C_Dist_500_LN_15_LD_20_RN_1_RD_4_0.png","C_Dist_500_LN_18_LD_27_RN_1_RD_6_0.png","C_Dist_500_LN_20_LD_24_RN_1_RD_3_0.png","C_Dist_500_LN_20_LD_24_RN_3_RD_9_0.png","C_Dist_500_LN_20_LD_24_RN_7_RD_21_0.png","C_Dist_500_LN_20_LD_28_RN_3_RD_14_0.png","C_Dist_500_LN_21_LD_28_RN_6_RD_24_0.png","C_Dist_500_LN_22_LD_28_RN_2_RD_7_0.png","C_Dist_500_LN_25_LD_30_RN_9_RD_27_0.png","C_Dist_500_LN_4_LD_6_RN_1_RD_6_0.png","C_Dist_500_LN_5_LD_6_RN_2_RD_6_0.png","C_Dist_500_LN_6_LD_9_RN_1_RD_6_0.png","C_Dist_500_LN_7_LD_10_RN_1_RD_5_0.png","C_Dist_500_LN_8_LD_12_RN_1_RD_6_0.png","C_Dist_500_LN_8_LD_12_RN_4_RD_24_0.png"],["C_Dist_500_LN_1_LD_4_RN_12_RD_16_1.png","C_Dist_500_LN_1_LD_4_RN_9_RD_12_1.png","C_Dist_500_LN_1_LD_9_RN_11_RD_18_1.png","C_Dist_500_LN_10_LD_24_RN_22_RD_24_1.png","C_Dist_500_LN_2_LD_12_RN_10_RD_15_1.png","C_Dist_500_LN_2_LD_12_RN_12_RD_18_1.png","C_Dist_500_LN_2_LD_12_RN_4_RD_6_1.png","C_Dist_500_LN_2_LD_24_RN_7_RD_12_1.png","C_Dist_500_LN_2_LD_5_RN_18_RD_20_1.png","C_Dist_500_LN_2_LD_5_RN_9_RD_10_1.png","C_Dist_500_LN_2_LD_8_RN_12_RD_16_1.png","C_Dist_500_LN_2_LD_8_RN_21_RD_28_1.png","C_Dist_500_LN_3_LD_10_RN_4_RD_5_1.png","C_Dist_500_LN_3_LD_12_RN_15_RD_20_1.png","C_Dist_500_LN_3_LD_30_RN_6_RD_10_1.png","C_Dist_500_LN_3_LD_8_RN_14_RD_16_1.png","C_Dist_500_LN_4_LD_16_RN_15_RD_20_1.png","C_Dist_500_LN_4_LD_24_RN_12_RD_18_1.png","C_Dist_500_LN_5_LD_14_RN_6_RD_7_1.png","C_Dist_500_LN_7_LD_21_RN_20_RD_24_1.png","C_Dist_500_LN_7_LD_28_RN_12_RD_16_1.png","C_Dist_500_LN_7_LD_28_RN_9_RD_12_1.png","C_Dist_500_LN_9_LD_27_RN_20_RD_24_1.png"]],"dist500_I":[["I_Dist_500_LN_2_LD_3_RN_4_RD_24_0.png","I_Dist_500_LN_5_LD_6_RN_6_RD_18_0.png","I_Dist_500_LN_7_LD_8_RN_9_RD_24_0.png"],["I_Dist_500_LN_7_LD_21_RN_5_RD_6_1.png"]],"dist500_S":[["E_Dist_500_LN_6_LD_8_RN_6_RD_24_0.png"],["E_Dist_500_LN_2_LD_12_RN_2_RD_3_1.png","E_Dist_500_LN_6_LD_24_RN_6_RD_8_1.png"]]}},{"start_time":1551882434861,"click_time":1551882437438,"finger_time":1551882437318,"fix_duration":781.2979763412393,"trial":1,"RT":2457,"MT":120,"sideResp":1,"stimulus":[],"xmouse":[789,789,789,789,789,789,789,789,789,789,789,789,789,789,789,789,789,789,789,789,789,789,789,789,789,789,789,789,789,789,789,789,789,789,789,789,789,789,789,789,789,789,789,789,789,789,789,789,789,789,789,789,789,789,789,789,789,789,789,789,789,789,789,789,789,789,789,789,789,789,789,789,789,789,789,789,789,789,789,789,789,789,789,789,789,789,789,789,789,789,789,789,789,789,789,789,789,789,789,789,789,789,789,789,789,789,789,789,789,789,789,789,789,789,789,789,789,789,789,789,789,769,720,689,675,622,580,515,491],"ymouse":[620,620,620,620,620,620,620,620,620,620,620,620,620,620,620,620,620,620,620,620,620,620,620,620,620,620,620,620,620,620,620,620,620,620,620,620,620,620,620,620,620,620,620,620,620,620,620,620,620,620,620,620,620,620,620,620,620,620,620,620,620,620,620,620,620,620,620,620,620,620,620,620,620,620,620,620,620,621,621,621,621,621,621,621,621,621,621,621,621,621,621,621,621,621,621,621,621,621,621,621,621,621,621,621,621,621,621,621,621,621,621,621,621,621,621,621,621,621,621,621,621,616,594,570,554,439,337,175,91],"timestamp_mouse":[32,37,56,76,96,117,136,156,176,198,216,236,256,276,296,317,336,358,377,396,418,438,456,477,497,517,536,556,576,596,617,637,657,677,696,718,736,756,777,796,817,838,858,878,897,917,936,957,977,996,1016,1036,1058,1077,1097,1116,1136,1157,1177,1196,1217,1237,1258,1276,1296,1316,1338,1357,1376,1396,1416,1436,1457,1478,1497,1516,1537,1556,1577,1598,1616,1638,1656,1677,1696,1718,1737,1756,1776,1797,1816,1837,1856,1878,1897,1917,1937,1956,1976,1996,2016,2038,2056,2077,2097,2116,2137,2156,2177,2197,2217,2238,2258,2278,2297,2318,2336,2356,2376,2397,2417,2436,2457,2477,2496,2516,2536,2556,2577],"xSR":741.5,"ySR":573.95,"xT1":424.9,"yT1":0,"xT2":1058.1,"yT2":0,"toosoon":0,"cond_shown":"Congruent","ratio_trial":200,"L_num":3,"L_den":12,"R_num":9,"R_den":20,"correct_side":2,"subjID":"leidysofiacharcas26","gender":"1","school":"6","age":"11"},{"start_time":1551882440149,"click_time":1551882441937,"finger_time":1551882441559,"fix_duration":250.34805906353952,"trial":2,"RT":1410,"MT":378,"sideResp":1,"stimulus":[],"xmouse":[811,811,811,811,811,811,811,811,811,811,811,811,811,811,811,811,811,811,811,811,811,811,811,811,811,811,811,811,811,811,811,811,811,811,811,811,811,811,811,811,811,811,811,811,811,811,811,811,811,811,811,811,811,811,811,811,811,811,811,811,811,811,811,811,811,811,811,808,802,792,769,726,702,669,635,609,598,595,595,595,595,595,595,595,595,595,589,576,539,511],"ymouse":[663,663,663,663,662,661,657,657,657,657,657,657,657,657,657,657,657,657,657,657,657,657,657,657,656,656,656,656,655,655,655,655,655,655,655,655,655,655,655,655,655,655,655,655,655,655,655,655,655,655,655,655,655,655,655,655,655,655,655,655,655,655,655,655,655,655,655,651,646,626,567,351,267,197,147,117,106,104,104,104,104,104,104,104,104,104,101,93,72,59],"timestamp_mouse":[8,41,49,68,88,108,129,149,168,189,208,228,248,268,288,308,328,348,369,390,408,428,449,470,488,508,529,548,569,588,608,628,649,668,689,710,728,748,769,789,808,830,849,868,890,908,928,949,968,988,1009,1028,1048,1068,1090,1108,1128,1148,1169,1188,1208,1229,1248,1268,1288,1310,1328,1348,1369,1389,1410,1429,1449,1469,1488,1508,1529,1549,1569,1589,1609,1629,1649,1669,1688,1709,1729,1749,1768,1788],"xSR":741.5,"ySR":573.95,"xT1":424.9,"yT1":0,"xT2":1058.1,"yT2":0,"toosoon":0,"cond_shown":"Congruent","ratio_trial":200,"L_num":9,"L_den":20,"R_num":4,"R_den":16,"correct_side":1,"subjID":"leidysofiacharcas26","gender":"1","school":"6","age":"11"},{"start_time":1551882443540,"click_time":1551882444877,"finger_time":1551882444398,"fix_duration":461.7537438178422,"trial":3,"RT":858,"MT":479,"sideResp":2,"stimulus":[],"xmouse":[780,780,780,780,780,780,780,780,780,780,780,780,780,780,780,780,780,780,780,780,780,780,780,780,780,780,780,780,780,780,780,780,780,780,780,780,780,780,780,781,785,796,825,839,851,860,868,907,916,944,964,980,1014,1029,1041,1050,1057,1062,1065,1068,1069,1070,1072,1075,1078,1082,1088],"ymouse":[611,611,611,611,611,611,611,611,611,611,611,611,611,611,611,611,611,611,611,611,611,611,611,611,611,611,611,611,611,611,611,611,611,611,611,611,611,611,611,611,609,589,533,504,485,470,456,408,398,373,356,341,301,277,256,239,222,188,170,143,135,130,122,116,111,106,99],"timestamp_mouse":[20,37,58,78,97,118,137,157,177,197,218,237,257,279,298,318,338,357,378,398,419,438,459,479,498,517,538,558,579,599,618,637,658,679,697,718,737,758,778,797,817,837,858,878,898,917,937,957,977,998,1018,1037,1057,1077,1099,1117,1138,1157,1177,1197,1219,1238,1257,1278,1297,1317,1337],"xSR":741.5,"ySR":573.95,"xT1":424.9,"yT1":0,"xT2":1058.1,"yT2":0,"toosoon":0,"cond_shown":"Incongruent","ratio_trial":200,"L_num":7,"L_den":15,"R_num":4,"R_den":6,"correct_side":2,"subjID":"leidysofiacharcas26","gender":"1","school":"6","age":"11"},{"start_time":1551882447913,"click_time":1551882449397,"finger_time":1551882448839,"fix_duration":913.314313772785,"trial":4,"RT":926,"MT":558,"sideResp":1,"stimulus":[],"xmouse":[771,771,771,771,771,771,771,771,771,771,771,771,771,771,771,771,771,771,771,771,771,771,771,771,771,771,771,771,771,771,771,771,771,771,771,771,771,771,771,771,771,771,771,771,771,760,734,689,627,533,526,523,522,522,522,522,523,526,529,534,537,540,540,540,540,540,540,540,540,540,540,540,540,529,479],"ymouse":[616,617,617,617,617,617,617,617,617,617,617,617,617,617,617,617,617,617,617,617,617,617,617,617,617,617,617,617,617,617,617,617,617,617,617,617,617,617,617,617,617,617,617,617,617,607,566,501,435,331,314,304,298,295,289,284,274,261,237,196,172,148,130,117,112,112,112,112,112,112,112,111,108,88,27],"timestamp_mouse":[9,24,52,65,85,105,124,145,165,184,206,225,244,264,285,304,324,344,364,385,405,424,444,464,484,504,525,544,565,584,605,625,644,666,684,704,725,744,764,784,805,825,844,864,884,904,926,944,964,984,1004,1024,1044,1064,1084,1104,1124,1144,1165,1184,1206,1226,1244,1264,1284,1304,1325,1345,1365,1386,1405,1424,1444,1464,1484],"xSR":741.5,"ySR":573.95,"xT1":424.9,"yT1":0,"xT2":1058.1,"yT2":0,"toosoon":0,"cond_shown":"Incongruent","ratio_trial":200,"L_num":7,"L_den":10,"R_num":14,"R_den":28,"correct_side":1,"subjID":"leidysofiacharcas26","gender":"1","school":"6","age":"11"},{"start_time":1551882453090,"click_time":1551882454438,"finger_time":1551882453999,"fix_duration":1371.3434619836955,"trial":5,"RT":909,"MT":439,"sideResp":1,"stimulus":[],"xmouse":[792,792,792,792,792,792,792,792,792,792,792,792,792,792,792,792,792,792,792,792,792,792,792,792,792,792,792,792,792,792,792,792,792,792,792,792,792,792,792,792,792,792,791,791,782,775,759,753,751,750,749,741,734,727,718,707,677,657,645,633,626,600,586,576,569,563,543,521],"ymouse":[611,611,611,611,611,611,611,611,611,611,611,611,611,611,611,611,611,611,611,611,611,611,611,611,611,611,611,611,611,611,611,611,611,611,611,611,611,611,611,611,611,611,612,611,592,572,543,533,529,528,525,511,499,487,470,448,383,341,319,290,267,212,190,174,161,148,111,79],"timestamp_mouse":[9,39,49,67,87,107,128,149,167,188,207,227,247,268,289,307,328,347,369,387,407,428,447,467,488,508,528,548,569,587,607,628,649,669,688,707,728,749,769,787,807,829,847,867,887,909,927,947,967,987,1007,1027,1048,1068,1087,1109,1128,1148,1167,1187,1207,1227,1247,1267,1287,1308,1328,1348],"xSR":741.5,"ySR":573.95,"xT1":424.9,"yT1":0,"xT2":1058.1,"yT2":0,"toosoon":0,"cond_shown":"Incongruent","ratio_trial":300,"L_num":7,"L_den":10,"R_num":8,"R_den":20,"correct_side":1,"subjID":"leidysofiacharcas26","gender":"1","school":"6","age":"11"},{"start_time":1551882457010,"click_time":1551882459038,"finger_time":1551882458277,"fix_duration":1011.5925000673906,"trial":6,"RT":1267,"MT":761,"sideResp":1,"stimulus":[],"xmouse":[776,776,776,776,776,776,776,776,776,776,776,776,776,776,776,776,776,776,776,776,776,776,776,776,776,776,776,776,776,776,776,776,776,776,776,776,776,776,776,776,776,776,776,776,776,776,776,776,776,776,776,776,775,774,774,771,769,768,768,768,767,761,753,741,728,700,666,611,530,505,382,335,287,243,199,143,141,143,155,174,178,178,178,178,179,190,227,251,256,261,261,261,261,262,262,264,279,305,335,379,417,436],"ymouse":[623,623,623,623,623,623,623,623,623,623,624,624,624,624,624,624,624,624,624,624,624,624,624,624,624,624,624,624,624,624,624,624,624,624,624,624,624,624,624,624,624,624,624,624,624,624,624,624,624,624,624,624,625,626,626,627,629,630,630,630,630,628,623,612,598,562,527,471,410,392,272,225,175,133,82,0,0,0,0,0,0,0,0,0,0,1,13,19,21,22,22,22,22,22,22,22,22,24,27,33,39,42],"timestamp_mouse":[11,40,48,67,88,108,128,148,168,187,207,228,248,268,287,308,329,348,367,389,407,427,447,468,487,507,529,547,568,587,607,629,648,668,688,707,729,747,767,787,807,827,847,867,887,908,927,947,967,989,1007,1028,1047,1068,1087,1108,1127,1147,1167,1188,1207,1228,1247,1267,1287,1308,1327,1348,1367,1388,1408,1428,1447,1468,1487,1508,1527,1547,1569,1588,1609,1628,1648,1668,1689,1708,1727,1747,1767,1787,1807,1827,1847,1868,1889,1908,1928,1947,1968,1987,2008,2028],"xSR":741.5,"ySR":573.95,"xT1":424.9,"yT1":0,"xT2":1058.1,"yT2":0,"toosoon":0,"cond_shown":"Congruent","ratio_trial":300,"L_num":3,"L_den":6,"R_num":2,"R_den":10,"correct_side":1,"subjID":"leidysofiacharcas26","gender":"1","school":"6","age":"11"},{"start_time":1551882460249,"click_time":1551882462337,"finger_time":1551882461777,"fix_duration":250,"trial":7,"RT":1528,"MT":560,"sideResp":1,"stimulus":[],"xmouse":[802,802,802,802,802,802,802,802,802,802,802,802,802,802,802,802,802,802,802,802,801,801,799,798,797,797,797,797,797,797,797,797,797,797,797,797,797,797,797,797,797,797,797,797,797,797,797,797,797,797,797,797,797,797,797,797,797,797,797,797,797,797,797,797,797,797,797,797,797,797,797,797,797,797,802,802,802,796,789,763,743,725,711,694,656,648,627,616,601,555,519,487,466,452,430,428,425,424,424,424,424,424,426,430,439],"ymouse":[620,620,620,620,620,620,620,620,620,620,620,620,620,620,620,620,620,620,620,620,621,621,621,620,620,620,620,620,620,620,620,620,620,620,620,620,620,620,620,620,620,620,620,620,620,620,620,620,620,620,620,620,620,620,620,620,620,620,620,620,620,620,620,620,620,620,620,620,620,620,620,620,618,614,592,586,567,549,529,477,447,421,403,384,348,343,327,320,307,276,250,223,201,179,134,128,116,112,110,110,109,108,104,100,88],"timestamp_mouse":[8,33,48,68,88,108,130,149,170,188,209,229,248,268,289,308,329,349,368,389,408,429,449,469,488,509,530,550,568,589,608,630,649,668,688,708,729,749,768,789,808,830,849,870,888,908,930,948,968,989,1009,1030,1049,1069,1088,1108,1128,1150,1169,1188,1208,1228,1250,1270,1288,1309,1330,1348,1369,1388,1409,1430,1448,1468,1488,1509,1528,1549,1568,1588,1608,1628,1648,1669,1688,1708,1728,1749,1768,1788,1808,1829,1848,1868,1888,1910,1929,1949,1968,1989,2008,2029,2049,2068,2088],"xSR":741.5,"ySR":573.95,"xT1":424.9,"yT1":0,"xT2":1058.1,"yT2":0,"toosoon":0,"cond_shown":"Congruent","ratio_trial":200,"L_num":16,"L_den":20,"R_num":12,"R_den":20,"correct_side":1,"subjID":"leidysofiacharcas26","gender":"1","school":"6","age":"11"},{"start_time":1551882464413,"click_time":1551882466718,"finger_time":1551882466157,"fix_duration":1234.3909275420626,"trial":8,"RT":1744,"MT":561,"sideResp":1,"stimulus":[],"xmouse":[792,792,792,792,792,792,792,792,792,792,792,792,792,792,792,792,792,792,792,792,792,792,792,792,792,792,792,792,792,792,792,792,792,792,792,792,792,792,792,792,792,792,792,792,792,792,792,792,792,792,792,792,792,792,792,792,792,792,792,792,792,792,792,792,792,792,792,792,793,794,796,801,805,806,806,807,807,807,807,807,807,807,807,807,807,807,807,799,783,751,692,566,505,449,419,408,404,402,402,402,402,403,401,399,398,398,399,400,402,403,405,407,409,414,424,443],"ymouse":[631,631,631,631,631,631,631,631,631,631,631,631,631,631,631,631,631,631,631,631,631,631,631,631,631,631,631,631,631,631,631,631,631,631,631,631,631,631,631,631,631,631,631,631,631,631,631,631,631,631,631,631,631,631,631,631,631,631,631,631,631,631,631,631,631,631,631,631,630,628,625,612,601,594,589,586,583,578,577,576,575,575,575,575,575,575,574,557,537,506,460,352,291,244,218,207,198,187,180,168,149,104,82,69,59,55,53,53,53,53,53,53,53,53,53,55],"timestamp_mouse":[11,40,44,65,85,104,125,144,165,184,204,224,244,264,284,304,325,345,365,385,404,426,445,465,485,505,524,545,566,585,604,624,645,664,684,704,724,744,764,784,804,824,844,864,885,904,924,946,964,984,1004,1024,1044,1066,1084,1106,1124,1145,1164,1184,1205,1226,1245,1264,1285,1306,1326,1344,1364,1384,1404,1424,1445,1465,1484,1504,1524,1546,1564,1584,1605,1624,1644,1665,1684,1705,1724,1744,1765,1784,1804,1824,1844,1864,1885,1904,1924,1945,1964,1984,2004,2025,2044,2064,2085,2106,2125,2145,2164,2184,2204,2225,2245,2264,2284,2304],"xSR":741.5,"ySR":573.95,"xT1":424.9,"yT1":0,"xT2":1058.1,"yT2":0,"toosoon":0,"cond_shown":"Congruent","ratio_trial":100,"L_num":4,"L_den":10,"R_num":15,"R_den":30,"correct_side":2,"subjID":"leidysofiacharcas26","gender":"1","school":"6","age":"11"},{"start_time":1551882468569,"click_time":1551882470697,"finger_time":1551882470217,"fix_duration":931.6067134258928,"trial":9,"RT":1648,"MT":480,"sideResp":2,"stimulus":[],"xmouse":[781,781,781,781,781,781,781,781,781,781,781,781,781,781,781,781,781,781,781,781,781,781,781,781,781,781,781,781,781,781,781,781,781,781,781,781,781,781,781,781,781,781,781,781,781,781,781,781,781,781,781,781,781,781,781,781,781,781,781,781,781,781,781,781,781,781,777,765,751,750,750,750,750,750,750,750,750,750,750,750,747,743,729,707,660,644,630,623,620,620,630,695,791,871,928,929,929,934,949,998,1015,1020,1020,1024,1043,1052,1065],"ymouse":[657,657,657,657,657,657,657,657,657,657,657,657,657,657,657,657,657,657,657,657,657,657,657,657,657,657,657,657,657,657,657,657,657,657,657,657,657,657,657,657,657,657,657,657,657,657,657,657,657,657,657,657,657,657,657,657,657,657,657,657,657,657,657,657,657,658,657,649,640,639,639,639,639,639,639,639,639,639,639,639,636,627,607,591,575,571,569,569,569,569,565,538,499,458,350,289,228,191,146,87,73,69,69,69,64,61,53],"timestamp_mouse":[10,34,49,70,90,108,129,148,168,188,208,229,250,268,288,308,329,348,368,389,408,429,449,469,488,509,528,549,569,588,609,629,650,669,690,709,729,748,769,788,808,830,849,868,889,909,929,949,970,988,1009,1029,1049,1068,1089,1109,1128,1150,1169,1188,1209,1229,1249,1270,1289,1309,1328,1349,1368,1389,1409,1429,1448,1470,1488,1509,1530,1548,1568,1588,1608,1629,1648,1669,1688,1710,1729,1748,1768,1789,1808,1828,1848,1869,1888,1908,1928,1949,1968,1989,2009,2028,2050,2068,2088,2108,2128],"xSR":741.5,"ySR":573.95,"xT1":424.9,"yT1":0,"xT2":1058.1,"yT2":0,"toosoon":0,"cond_shown":"Incongruent","ratio_trial":200,"L_num":4,"L_den":5,"R_num":6,"R_den":10,"correct_side":1,"subjID":"leidysofiacharcas26","gender":"1","school":"6","age":"11"},{"start_time":1551882472308,"click_time":1551882473877,"finger_time":1551882473417,"fix_duration":789.4228922221199,"trial":10,"RT":1109,"MT":460,"sideResp":1,"stimulus":[],"xmouse":[788,788,788,788,788,788,788,788,788,788,788,788,788,788,788,788,788,788,788,788,788,788,788,788,788,788,788,788,788,788,788,788,788,788,788,788,788,788,788,788,788,788,788,788,788,788,788,788,788,788,788,788,788,782,768,752,725,680,646,624,607,599,594,593,593,593,591,590,590,588,579,565,539,533,528,527,527,527,523],"ymouse":[636,636,636,636,636,636,636,636,636,636,636,636,636,636,636,636,636,636,636,636,636,636,636,636,636,636,636,636,636,636,636,636,636,636,636,636,636,636,636,636,636,636,636,636,636,636,636,636,636,636,636,636,636,628,603,566,503,359,245,184,148,135,127,126,126,123,122,120,120,118,112,104,88,83,80,80,80,79,78],"timestamp_mouse":[10,35,49,69,89,110,131,151,169,190,210,229,249,271,291,310,330,351,370,390,410,431,450,471,489,509,530,550,570,590,609,631,649,670,690,710,729,750,770,790,809,829,849,870,889,911,929,950,970,990,1009,1030,1049,1069,1089,1109,1130,1149,1170,1190,1209,1229,1249,1269,1289,1309,1330,1349,1370,1390,1409,1429,1449,1470,1489,1509,1529,1549,1569],"xSR":741.5,"ySR":573.95,"xT1":424.9,"yT1":0,"xT2":1058.1,"yT2":0,"toosoon":0,"cond_shown":"Congruent","ratio_trial":100,"L_num":15,"L_den":25,"R_num":13,"R_den":26,"correct_side":1,"subjID":"leidysofiacharcas26","gender":"1","school":"6","age":"11"},{"start_time":1551882477402,"click_time":1551882479177,"finger_time":1551882478718,"fix_duration":1022.085563508165,"trial":11,"RT":1316,"MT":459,"sideResp":2,"stimulus":[],"xmouse":[806,806,806,806,806,806,806,806,806,806,806,806,806,806,806,806,806,806,806,806,806,806,806,804,803,803,803,803,803,803,803,803,803,803,803,803,803,803,803,803,803,803,803,803,803,803,803,803,803,803,803,803,803,803,803,803,803,803,803,803,803,803,802,808,818,831,844,868,875,883,894,915,931,962,971,975,977,980,983,986,988,988,988,988,988,988,990,1018,1081],"ymouse":[629,629,629,629,629,629,629,629,629,629,629,629,629,629,629,629,629,629,629,629,629,629,629,629,629,629,629,629,629,629,629,629,629,629,629,629,629,629,629,629,629,629,629,629,629,629,629,629,629,629,629,629,629,629,629,629,629,629,629,629,629,629,625,604,586,562,538,468,423,366,305,217,167,96,75,66,60,55,50,46,43,43,43,43,43,43,43,38,30],"timestamp_mouse":[15,36,56,77,96,116,136,155,176,195,216,235,256,276,295,316,336,356,375,396,415,435,456,475,497,515,537,556,575,595,616,637,656,675,696,716,735,755,775,796,816,836,856,876,895,916,937,956,975,995,1015,1036,1055,1076,1096,1116,1135,1156,1176,1196,1215,1235,1255,1275,1295,1315,1335,1356,1375,1396,1415,1435,1455,1475,1495,1516,1535,1556,1575,1595,1617,1635,1656,1675,1697,1716,1735,1756,1775],"xSR":741.5,"ySR":573.95,"xT1":424.9,"yT1":0,"xT2":1058.1,"yT2":0,"toosoon":0,"cond_shown":"Incongruent","ratio_trial":100,"L_num":12,"L_den":24,"R_num":9,"R_den":15,"correct_side":2,"subjID":"leidysofiacharcas26","gender":"1","school":"6","age":"11"},{"start_time":1551882480509,"click_time":1551882482697,"finger_time":1551882482178,"fix_duration":250,"trial":12,"RT":1669,"MT":519,"sideResp":2,"stimulus":[],"xmouse":[792,792,792,792,792,792,792,792,792,792,792,792,792,792,792,792,792,792,792,792,792,792,792,792,792,792,792,792,792,792,792,792,792,792,792,792,792,792,792,792,792,792,792,792,792,792,792,792,792,792,792,792,792,792,792,792,792,792,792,792,792,792,792,792,792,792,792,792,792,792,792,792,792,792,792,792,792,792,792,792,792,799,803,838,862,885,909,922,937,971,995,1024,1043,1080,1089,1095,1098,1098,1100,1102,1103,1103,1103,1103,1103,1103,1103,1104,1105,1108],"ymouse":[605,605,605,605,605,605,605,605,605,605,605,605,605,605,605,605,605,605,605,605,605,605,605,605,605,605,605,605,605,605,605,605,605,605,605,605,605,605,605,605,605,605,605,605,605,605,605,605,605,605,605,605,605,605,605,605,605,605,605,605,605,605,605,605,605,605,605,605,605,605,605,605,605,605,605,605,605,605,605,605,605,593,587,536,503,469,436,408,378,311,275,245,221,185,172,162,156,152,148,143,141,139,138,137,133,127,122,114,104,86],"timestamp_mouse":[10,34,49,69,89,109,129,150,170,189,209,229,249,268,288,308,329,350,368,389,408,429,448,468,489,508,530,548,568,588,609,630,649,669,688,709,730,748,768,788,808,830,848,869,888,908,928,948,968,988,1009,1029,1048,1068,1089,1109,1128,1149,1168,1188,1208,1228,1249,1268,1288,1310,1328,1349,1369,1388,1409,1428,1449,1469,1490,1509,1528,1548,1569,1588,1608,1628,1649,1669,1688,1708,1728,1748,1769,1789,1808,1828,1849,1869,1889,1908,1929,1948,1968,1988,2009,2028,2049,2069,2089,2109,2128,2148,2168,2188],"xSR":741.5,"ySR":573.95,"xT1":424.9,"yT1":0,"xT2":1058.1,"yT2":0,"toosoon":0,"cond_shown":"Incongruent","ratio_trial":300,"L_num":4,"L_den":20,"R_num":2,"R_den":4,"correct_side":2,"subjID":"leidysofiacharcas26","gender":"1","school":"6","age":"11"},{"start_time":1551882484435,"click_time":1551882486159,"finger_time":1551882485579,"fix_duration":577.9148152544238,"trial":13,"RT":1144,"MT":580,"sideResp":1,"stimulus":[],"xmouse":[790,790,790,790,790,790,790,790,790,790,790,790,790,790,790,790,790,790,790,790,790,790,790,790,790,790,790,790,790,790,790,790,790,790,790,790,790,790,790,790,790,790,790,790,790,790,790,790,790,790,790,790,790,790,789,789,780,759,744,732,718,707,693,659,642,641,638,638,634,624,614,607,605,602,599,592,586,581,574,573,571,565,556,542,538,535,521],"ymouse":[611,611,611,611,611,611,611,611,611,611,611,611,611,611,611,611,611,611,611,611,611,611,611,611,611,611,611,611,611,611,611,611,611,611,611,611,611,611,611,611,611,611,611,611,611,611,611,611,611,611,611,611,611,611,612,610,583,508,451,409,363,322,276,191,148,140,122,104,86,60,36,22,15,11,9,7,6,6,6,6,6,7,8,12,14,14,20],"timestamp_mouse":[9,23,42,64,82,102,124,142,162,182,203,223,242,262,283,303,323,343,364,382,403,423,443,463,482,504,522,542,562,582,604,622,644,663,682,702,723,743,763,783,804,822,842,864,884,902,923,944,962,982,1003,1022,1043,1063,1083,1102,1122,1144,1162,1183,1202,1222,1242,1262,1283,1302,1323,1343,1362,1382,1403,1422,1442,1462,1482,1502,1524,1544,1563,1582,1603,1622,1643,1662,1683,1703,1724],"xSR":741.5,"ySR":573.95,"xT1":424.9,"yT1":0,"xT2":1058.1,"yT2":0,"toosoon":0,"cond_shown":"Congruent","ratio_trial":300,"L_num":20,"L_den":25,"R_num":9,"R_den":18,"correct_side":1,"subjID":"leidysofiacharcas26","gender":"1","school":"6","age":"11"},{"start_time":1551882487979,"click_time":1551882489537,"finger_time":1551882489278,"fix_duration":801.3181264155999,"trial":14,"RT":1299,"MT":259,"sideResp":2,"stimulus":[],"xmouse":[777,777,777,777,777,777,777,777,777,777,777,777,777,777,777,777,777,777,777,777,777,777,777,777,777,777,777,777,777,777,777,777,777,777,777,777,777,777,777,777,777,777,777,777,777,777,777,777,777,777,777,777,777,777,777,777,777,777,777,777,777,777,785,793,807,840,847,872,896,925,989,1024,1055,1081,1100,1112,1115,1116],"ymouse":[596,596,596,596,596,596,596,596,596,596,596,596,596,596,596,596,596,596,596,596,596,596,596,596,596,596,596,596,596,596,596,596,596,596,596,596,596,596,596,596,596,596,596,596,596,596,596,596,596,596,596,596,596,596,596,596,596,596,596,596,596,596,588,581,569,532,523,488,455,413,320,271,227,191,159,121,100,89],"timestamp_mouse":[34,38,59,78,99,118,138,159,179,199,219,239,259,279,298,318,338,358,380,400,418,440,459,478,498,519,538,559,578,598,619,639,658,678,699,719,739,759,778,800,818,839,859,879,899,918,939,959,979,999,1020,1039,1060,1080,1099,1119,1139,1160,1178,1199,1219,1238,1258,1279,1299,1319,1339,1358,1379,1400,1419,1440,1459,1480,1499,1519,1538,1558],"xSR":741.5,"ySR":573.95,"xT1":424.9,"yT1":0,"xT2":1058.1,"yT2":0,"toosoon":0,"cond_shown":"Congruent","ratio_trial":300,"L_num":8,"L_den":15,"R_num":10,"R_den":12,"correct_side":2,"subjID":"leidysofiacharcas26","gender":"1","school":"6","age":"11"},{"start_time":1551882490909,"click_time":1551882492218,"finger_time":1551882491778,"fix_duration":527.0495476876131,"trial":15,"RT":869,"MT":440,"sideResp":1,"stimulus":[],"xmouse":[824,824,824,824,824,824,824,824,824,824,824,824,824,824,824,824,824,824,824,824,824,824,824,824,824,824,824,824,824,824,824,824,824,824,824,824,824,824,824,824,824,820,811,797,768,753,737,720,702,658,650,645,638,635,630,630,630,630,630,616,606,593,583,571,534,515],"ymouse":[626,626,626,626,626,626,626,626,626,626,626,626,626,626,626,626,626,626,626,626,626,626,626,626,626,626,626,626,626,626,626,626,626,626,626,626,626,626,626,626,623,611,591,565,514,492,469,446,414,334,316,295,275,261,240,234,223,205,188,137,122,108,98,88,67,59],"timestamp_mouse":[10,36,49,68,90,110,129,149,168,189,208,229,249,269,289,309,329,348,369,389,409,429,450,469,488,510,528,550,568,588,609,629,649,670,690,710,729,750,770,790,809,828,850,869,888,908,929,949,968,989,1009,1029,1049,1068,1090,1109,1129,1150,1170,1189,1208,1229,1249,1269,1289,1309],"xSR":741.5,"ySR":573.95,"xT1":424.9,"yT1":0,"xT2":1058.1,"yT2":0,"toosoon":0,"cond_shown":"Incongruent","ratio_trial":100,"L_num":4,"L_den":8,"R_num":8,"R_den":20,"correct_side":1,"subjID":"leidysofiacharcas26","gender":"1","school":"6","age":"11"},{"start_time":1551882494431,"click_time":1551882495498,"finger_time":1551882494998,"fix_duration":1352.8878482768505,"trial":16,"RT":567,"MT":500,"sideResp":2,"stimulus":[],"xmouse":[808,808,808,808,808,808,808,809,809,809,809,809,808,808,808,808,808,808,808,808,808,808,808,808,808,809,811,813,823,832,844,859,888,913,964,992,1023,1053,1092,1108,1121,1135,1150,1159,1169,1171,1171,1171,1171,1170,1167,1165,1160,1156],"ymouse":[601,601,601,601,601,601,601,601,601,601,601,601,600,600,600,600,600,600,600,600,600,600,600,599,595,593,587,581,559,539,517,496,459,427,368,336,300,268,214,193,169,146,113,91,51,37,29,26,26,24,24,24,24,24],"timestamp_mouse":[9,27,47,68,88,107,127,147,168,188,207,227,247,268,288,306,328,348,366,388,407,426,448,467,488,506,527,547,567,586,607,627,646,667,687,706,726,746,768,787,807,827,846,867,887,907,926,948,967,987,1007,1027,1047,1067],"xSR":741.5,"ySR":573.95,"xT1":424.9,"yT1":0,"xT2":1058.1,"yT2":0,"toosoon":0,"cond_shown":"Incongruent","ratio_trial":100,"L_num":13,"L_den":26,"R_num":12,"R_den":20,"correct_side":2,"subjID":"leidysofiacharcas26","gender":"1","school":"6","age":"11"},{"start_time":1551882496936,"click_time":1551882498179,"finger_time":1551882497398,"fix_duration":456.36410975884667,"trial":17,"RT":462,"MT":781,"sideResp":2,"stimulus":[],"xmouse":[791,791,791,791,791,791,791,791,791,791,791,791,791,791,791,791,791,791,791,791,791,790,787,778,751,733,708,688,669,647,642,642,642,642,642,642,642,642,642,642,642,642,642,641,641,641,659,692,763,922,986,1011,1021,1023,1026,1027,1028,1032,1037,1055,1066,1080,1103],"ymouse":[582,582,582,582,582,582,582,582,582,582,582,582,582,582,582,582,582,582,582,582,582,582,580,569,538,517,484,456,428,397,390,390,390,390,390,390,390,390,390,389,384,379,376,375,375,374,372,366,354,302,274,254,242,237,228,226,223,215,206,174,153,128,97],"timestamp_mouse":[8,35,42,61,82,101,122,142,161,182,202,223,242,262,282,303,322,341,362,383,402,423,442,462,482,503,521,542,562,582,603,622,642,663,682,702,723,743,762,782,802,822,841,863,882,902,923,943,961,982,1002,1021,1041,1062,1081,1102,1123,1141,1163,1182,1202,1223,1243],"xSR":741.5,"ySR":573.95,"xT1":424.9,"yT1":0,"xT2":1058.1,"yT2":0,"toosoon":0,"cond_shown":"Congruent","ratio_trial":300,"L_num":11,"L_den":22,"R_num":1,"R_den":5,"correct_side":1,"subjID":"leidysofiacharcas26","gender":"1","school":"6","age":"11"},{"start_time":1551882499796,"click_time":1551882500998,"finger_time":1551882500737,"fix_duration":597.3142308420656,"trial":18,"RT":941,"MT":261,"sideResp":2,"stimulus":[],"xmouse":[802,802,802,802,802,802,802,802,802,802,802,802,802,802,802,802,802,802,802,802,802,802,802,802,802,802,802,802,802,802,802,802,802,802,802,802,802,802,802,802,802,802,807,812,817,822,836,845,853,864,877,879,906,919,934,950,966,998,1027,1053,1079],"ymouse":[621,621,621,621,621,621,621,621,621,621,621,621,621,621,621,621,621,621,621,621,621,621,621,621,621,621,621,621,621,621,621,621,621,621,621,621,621,621,621,621,621,621,614,608,604,598,581,571,560,548,528,522,474,448,414,371,324,217,148,86,31],"timestamp_mouse":[10,22,43,62,83,102,122,142,161,183,202,222,242,262,283,302,321,343,362,383,402,423,443,463,482,503,523,542,563,583,602,623,643,663,683,703,722,742,762,782,803,822,843,863,883,902,922,941,962,982,1001,1022,1043,1062,1081,1101,1121,1143,1161,1182,1201],"xSR":741.5,"ySR":573.95,"xT1":424.9,"yT1":0,"xT2":1058.1,"yT2":0,"toosoon":0,"cond_shown":"Incongruent","ratio_trial":300,"L_num":4,"L_den":20,"R_num":2,"R_den":4,"correct_side":2,"subjID":"leidysofiacharcas26","gender":"1","school":"6","age":"11"},{"start_time":1551882502934,"click_time":1551882504359,"finger_time":1551882504118,"fix_duration":993.287713445138,"trial":19,"RT":1184,"MT":241,"sideResp":2,"stimulus":[],"xmouse":[770,770,770,770,770,770,770,770,770,770,770,770,770,770,770,770,770,770,770,770,770,770,770,770,770,770,770,770,770,770,770,770,770,770,770,770,770,770,770,770,770,770,770,770,770,770,770,770,770,770,770,770,770,770,770,770,778,783,795,807,833,858,883,917,990,1025,1053,1074,1089,1100,1108,1111],"ymouse":[618,618,618,618,618,618,618,618,618,618,618,618,618,618,618,618,618,618,618,618,618,618,618,618,618,618,618,618,618,618,618,618,618,618,618,618,618,618,618,618,618,618,618,618,618,618,618,618,618,618,618,618,618,618,618,618,610,605,591,573,532,495,460,413,302,253,207,170,144,124,101,93],"timestamp_mouse":[9,33,44,64,83,104,124,144,164,185,204,225,245,263,285,305,323,345,364,383,405,423,445,464,484,504,525,543,565,584,604,623,645,664,685,704,725,744,764,784,804,823,845,863,885,904,924,944,965,985,1005,1023,1044,1065,1084,1105,1124,1144,1164,1184,1204,1225,1244,1264,1286,1304,1324,1345,1364,1383,1403,1425],"xSR":741.5,"ySR":573.95,"xT1":424.9,"yT1":0,"xT2":1058.1,"yT2":0,"toosoon":0,"cond_shown":"Incongruent","ratio_trial":200,"L_num":7,"L_den":10,"R_num":8,"R_den":16,"correct_side":1,"subjID":"leidysofiacharcas26","gender":"1","school":"6","age":"11"},{"start_time":1551882506700,"click_time":1551882508098,"finger_time":1551882507878,"fix_duration":1000.4908563825902,"trial":20,"RT":1178,"MT":220,"sideResp":2,"stimulus":[],"xmouse":[809,809,809,809,809,809,809,809,809,809,809,809,809,809,809,809,809,809,809,809,809,809,809,809,809,809,809,809,809,809,809,809,809,809,809,809,809,809,809,809,809,809,809,809,809,809,809,809,809,809,809,809,809,809,809,813,817,823,831,844,861,941,984,1027,1066,1102,1145,1152,1152,1152],"ymouse":[625,625,625,625,625,625,625,625,625,625,625,625,625,625,625,625,625,625,625,625,625,625,625,625,625,625,625,625,625,625,625,625,625,625,625,625,625,625,625,625,625,625,625,625,625,625,625,625,625,625,625,625,625,623,621,615,593,576,559,541,522,449,412,374,328,274,179,142,114,97],"timestamp_mouse":[19,40,59,79,99,118,137,159,179,198,218,239,259,279,298,318,337,359,378,399,419,437,459,479,499,519,539,558,578,598,618,639,658,678,698,718,737,758,779,797,818,839,858,878,898,919,938,958,977,998,1019,1038,1059,1078,1098,1119,1137,1158,1178,1198,1219,1238,1258,1279,1297,1318,1338,1358,1378,1397],"xSR":741.5,"ySR":573.95,"xT1":424.9,"yT1":0,"xT2":1058.1,"yT2":0,"toosoon":0,"cond_shown":"Incongruent","ratio_trial":200,"L_num":11,"L_den":20,"R_num":3,"R_den":4,"correct_side":2,"subjID":"leidysofiacharcas26","gender":"1","school":"6","age":"11"},{"start_time":1551882509492,"click_time":1551882511398,"finger_time":1551882511119,"fix_duration":513.5390159311609,"trial":21,"RT":1627,"MT":279,"sideResp":2,"stimulus":[],"xmouse":[796,796,796,797,797,797,797,797,797,797,797,798,798,798,798,798,798,798,798,798,798,799,799,799,799,799,799,799,799,799,799,799,799,799,799,799,799,799,799,799,799,799,799,799,799,799,799,799,799,799,799,799,799,799,799,799,799,799,799,799,799,799,799,799,799,799,799,799,799,799,799,799,799,799,799,799,799,801,806,812,822,838,851,876,887,899,907,916,920,926,933,947,984,1026,1043,1062],"ymouse":[607,607,607,607,607,607,607,607,607,607,607,607,607,607,607,607,607,607,607,607,607,607,607,607,607,607,607,607,607,607,607,607,607,607,607,607,607,607,607,607,607,607,607,607,607,607,607,607,607,607,607,607,607,607,607,607,607,607,607,607,607,607,607,607,607,607,607,607,607,607,607,607,607,607,607,607,607,606,602,596,589,573,558,523,505,484,463,428,409,389,363,331,241,147,115,81],"timestamp_mouse":[9,33,46,67,86,105,127,146,167,185,207,227,247,266,285,306,326,346,366,387,406,426,446,467,486,506,525,547,565,586,606,626,645,666,686,707,727,745,766,786,807,826,846,865,887,905,926,946,966,986,1006,1025,1046,1066,1086,1107,1126,1147,1167,1187,1205,1226,1246,1267,1286,1306,1327,1346,1367,1386,1406,1425,1447,1466,1487,1506,1525,1547,1566,1587,1606,1627,1647,1666,1686,1706,1726,1746,1766,1787,1806,1826,1845,1866,1886,1906],"xSR":741.5,"ySR":573.95,"xT1":424.9,"yT1":0,"xT2":1058.1,"yT2":0,"toosoon":0,"cond_shown":"Congruent","ratio_trial":200,"L_num":12,"L_den":20,"R_num":6,"R_den":15,"correct_side":1,"subjID":"leidysofiacharcas26","gender":"1","school":"6","age":"11"},{"start_time":1551882514682,"click_time":1551882516538,"finger_time":1551882516258,"fix_duration":782.422222240236,"trial":22,"RT":1576,"MT":280,"sideResp":2,"stimulus":[],"xmouse":[798,798,798,798,798,798,798,798,798,798,798,798,798,798,798,798,798,798,798,798,798,798,798,798,798,798,798,798,798,798,798,798,798,798,798,798,798,798,798,798,798,798,798,798,798,798,798,798,798,798,798,798,798,798,798,798,798,798,798,798,798,798,798,798,798,798,798,798,798,798,798,798,798,798,798,799,801,804,828,858,877,896,913,945,958,972,993,1012,1045,1053,1058,1064,1073],"ymouse":[625,625,625,625,625,625,625,625,625,625,625,625,625,625,625,625,625,625,625,625,625,625,625,625,625,625,625,625,625,625,625,625,625,625,625,625,625,625,625,625,625,625,625,625,625,625,625,625,625,625,625,625,625,625,625,625,625,625,625,625,625,625,625,625,625,625,625,625,625,625,625,625,625,625,625,609,599,577,507,452,420,386,359,314,298,282,261,242,181,156,132,106,81],"timestamp_mouse":[17,42,57,76,96,115,136,156,177,196,215,237,256,277,296,315,337,356,375,395,416,437,456,477,497,516,537,557,577,596,615,637,657,676,696,715,736,755,776,795,815,836,857,875,896,916,937,957,976,996,1016,1036,1055,1077,1097,1116,1137,1157,1177,1197,1215,1237,1257,1275,1297,1317,1337,1357,1376,1396,1415,1437,1457,1475,1496,1516,1536,1556,1576,1595,1615,1636,1656,1675,1696,1717,1736,1757,1776,1796,1816,1836,1855],"xSR":741.5,"ySR":573.95,"xT1":424.9,"yT1":0,"xT2":1058.1,"yT2":0,"toosoon":0,"cond_shown":"Congruent","ratio_trial":100,"L_num":10,"L_den":25,"R_num":3,"R_den":10,"correct_side":1,"subjID":"leidysofiacharcas26","gender":"1","school":"6","age":"11"},{"start_time":1551882518821,"click_time":1551882520657,"finger_time":1551882520258,"fix_duration":1381.3931706837368,"trial":23,"RT":1437,"MT":399,"sideResp":2,"stimulus":[],"xmouse":[797,797,797,797,797,797,797,797,797,797,797,797,797,797,797,797,797,797,797,797,797,797,797,797,797,797,797,797,797,797,797,797,797,797,797,797,797,797,797,797,797,797,797,797,797,797,797,797,797,797,797,797,797,797,797,797,797,797,797,797,797,797,797,797,797,797,797,801,807,825,836,848,872,890,910,933,950,981,991,1006,1012,1016,1022,1028,1033,1040,1042,1043,1043,1045,1054,1065],"ymouse":[646,646,646,646,646,646,646,646,646,646,646,646,646,646,646,646,646,646,646,646,646,646,646,646,646,646,646,646,646,646,646,646,646,646,646,646,646,646,646,646,646,646,646,646,646,646,646,646,646,646,646,646,646,646,646,646,646,646,646,646,646,646,646,646,646,646,646,642,637,624,616,605,570,534,486,434,394,319,281,226,196,173,143,131,120,110,104,100,100,98,91,83],"timestamp_mouse":[20,37,57,77,98,118,137,158,178,197,218,237,257,278,298,317,337,357,377,397,418,437,457,477,497,517,538,558,576,597,616,637,657,678,696,718,738,758,777,797,817,837,857,878,896,918,937,957,977,996,1018,1037,1058,1076,1097,1118,1137,1158,1176,1197,1216,1237,1257,1278,1298,1316,1336,1357,1376,1396,1418,1437,1457,1477,1497,1517,1536,1556,1578,1596,1617,1637,1657,1676,1698,1718,1736,1758,1777,1797,1818,1836],"xSR":741.5,"ySR":573.95,"xT1":424.9,"yT1":0,"xT2":1058.1,"yT2":0,"toosoon":0,"cond_shown":"Congruent","ratio_trial":300,"L_num":8,"L_den":15,"R_num":10,"R_den":12,"correct_side":2,"subjID":"leidysofiacharcas26","gender":"1","school":"6","age":"11"},{"start_time":1551882521672,"click_time":1551882524078,"finger_time":1551882523278,"fix_duration":250,"trial":24,"RT":1606,"MT":800,"sideResp":1,"stimulus":[],"xmouse":[781,781,781,781,781,781,781,781,781,781,781,781,781,781,781,781,781,781,781,781,781,781,781,781,781,781,781,781,781,781,781,781,781,781,781,781,781,781,781,781,781,781,781,781,781,781,781,781,781,781,781,781,781,781,781,781,781,781,781,781,781,781,781,781,781,781,781,781,781,781,781,781,781,781,781,786,799,811,822,829,834,836,839,840,841,841,841,841,841,841,841,841,841,841,841,819,785,749,708,653,570,546,536,531,529,521,519,519,519,519,519,519,519,519,519,519,519,519,519,519,511],"ymouse":[614,614,614,614,614,614,614,614,614,614,614,614,614,614,614,614,614,614,614,614,614,614,614,614,614,614,614,614,614,614,614,614,614,614,614,614,614,614,614,614,614,614,614,614,614,614,614,614,614,614,614,614,614,614,614,614,614,614,614,614,614,614,614,614,614,614,614,614,614,614,614,614,614,614,614,613,601,590,581,575,567,563,559,556,555,554,554,554,554,554,554,554,554,552,546,495,422,341,252,163,41,7,0,0,0,0,0,0,0,0,0,0,0,0,0,0,0,0,0,0,5],"timestamp_mouse":[8,38,47,66,86,106,127,146,166,186,206,226,247,266,287,305,326,345,367,385,406,426,446,466,486,506,526,546,567,586,606,626,647,666,687,706,726,745,766,785,806,827,846,866,886,906,927,946,966,986,1005,1026,1047,1065,1086,1106,1126,1146,1167,1186,1207,1227,1246,1266,1287,1305,1325,1347,1366,1386,1406,1427,1447,1465,1486,1506,1527,1546,1565,1585,1606,1626,1646,1665,1686,1706,1726,1747,1766,1786,1806,1826,1846,1866,1887,1905,1926,1946,1966,1986,2006,2026,2045,2066,2087,2106,2126,2146,2166,2187,2206,2225,2246,2266,2286,2306,2326,2347,2366,2385,2406],"xSR":741.5,"ySR":573.95,"xT1":424.9,"yT1":0,"xT2":1058.1,"yT2":0,"toosoon":0,"cond_shown":"Congruent","ratio_trial":300,"L_num":8,"L_den":16,"R_num":1,"R_den":5,"correct_side":1,"subjID":"leidysofiacharcas26","gender":"1","school":"6","age":"11"},{"start_time":1551882525380,"click_time":1551882527539,"finger_time":1551882526938,"fix_duration":481.8053368861349,"trial":25,"RT":1558,"MT":601,"sideResp":2,"stimulus":[],"xmouse":[824,824,819,809,800,795,795,795,795,795,795,795,795,795,795,795,795,795,795,795,795,795,795,795,795,795,795,795,795,795,795,795,795,795,795,795,795,795,795,795,795,795,795,795,795,795,795,795,795,795,795,795,795,795,795,795,795,795,795,795,795,795,795,795,795,795,795,795,795,795,795,795,795,795,795,801,807,816,819,835,844,851,857,863,871,892,902,913,927,952,956,956,956,951,947,945,945,945,945,945,949,954,966,979,1013,1031,1051,1070],"ymouse":[646,646,642,637,634,633,633,633,633,633,633,633,633,633,633,633,633,633,633,633,633,633,633,633,633,633,633,633,633,633,633,633,633,633,633,633,633,633,633,633,633,633,633,633,633,633,633,633,633,633,633,633,633,633,633,633,633,633,633,633,633,633,633,633,633,633,633,633,633,633,633,633,633,630,624,593,575,555,547,519,502,486,472,455,437,388,356,313,267,152,109,68,38,18,5,2,2,2,0,0,1,5,13,20,30,36,41,43],"timestamp_mouse":[33,38,57,78,98,118,138,159,179,199,218,239,258,278,299,318,337,359,378,398,418,438,457,478,498,518,538,558,578,597,619,638,658,679,697,718,738,757,778,797,819,837,859,878,898,917,939,957,977,998,1019,1038,1058,1078,1098,1119,1137,1159,1179,1199,1219,1238,1259,1278,1298,1318,1337,1359,1379,1399,1418,1438,1457,1478,1498,1517,1537,1558,1579,1598,1618,1638,1657,1678,1697,1719,1738,1759,1779,1798,1818,1837,1857,1877,1897,1917,1938,1958,1978,1998,2018,2039,2058,2077,2099,2118,2138,2159],"xSR":741.5,"ySR":573.95,"xT1":424.9,"yT1":0,"xT2":1058.1,"yT2":0,"toosoon":0,"cond_shown":"Incongruent","ratio_trial":300,"L_num":7,"L_den":10,"R_num":8,"R_den":20,"correct_side":1,"subjID":"leidysofiacharcas26","gender":"1","school":"6","age":"11"},{"start_time":1551882530031,"click_time":1551882531738,"finger_time":1551882530998,"fix_duration":1351.5214369851208,"trial":26,"RT":967,"MT":740,"sideResp":1,"stimulus":[],"xmouse":[814,814,814,814,814,814,814,814,812,809,805,802,798,797,797,797,797,797,797,797,797,797,797,797,797,797,797,797,797,797,797,797,797,797,795,784,772,758,747,747,747,747,747,747,747,747,747,746,737,728,716,705,692,654,632,612,594,579,561,556,556,556,555,549,546,543,542,541,541,540,534,524,508,482,481,481,481,481,481,481,481,481,481,481,481,481],"ymouse":[636,636,636,636,636,637,638,639,640,642,646,649,652,653,653,653,653,653,653,653,653,653,653,653,653,653,653,653,653,653,653,653,653,653,653,646,636,622,607,607,607,607,607,607,607,607,605,598,571,553,533,514,493,438,412,389,374,361,346,342,342,341,335,309,286,270,259,250,228,210,189,164,138,101,100,100,100,100,100,100,100,100,100,100,100,99],"timestamp_mouse":[9,26,55,67,88,106,128,148,168,186,207,228,248,268,288,306,328,347,367,388,406,427,447,468,488,508,527,547,567,587,607,627,647,667,687,708,727,747,766,788,808,827,846,866,888,908,927,947,967,987,1007,1026,1047,1067,1087,1107,1126,1146,1166,1187,1208,1228,1248,1268,1287,1307,1328,1347,1367,1387,1407,1427,1448,1468,1487,1507,1527,1548,1567,1587,1608,1626,1647,1668,1687,1707],"xSR":741.5,"ySR":573.95,"xT1":424.9,"yT1":0,"xT2":1058.1,"yT2":0,"toosoon":0,"cond_shown":"Congruent","ratio_trial":300,"L_num":11,"L_den":22,"R_num":4,"R_den":20,"correct_side":1,"subjID":"leidysofiacharcas26","gender":"1","school":"6","age":"11"},{"start_time":1551882533318,"click_time":1551882534618,"finger_time":1551882534377,"fix_duration":718.2798036510569,"trial":27,"RT":1059,"MT":241,"sideResp":2,"stimulus":[],"xmouse":[773,773,773,773,773,773,773,773,773,773,773,773,773,773,773,773,773,773,773,773,773,773,773,773,773,773,773,773,773,773,773,773,773,773,773,773,773,773,773,773,773,773,773,773,773,773,773,773,773,773,773,778,792,836,938,980,1008,1022,1028,1041,1048,1060,1076,1100,1144,1157],"ymouse":[607,607,607,607,607,607,607,607,607,607,607,607,607,607,607,607,607,607,607,607,607,607,607,607,607,607,607,607,607,607,607,607,607,607,607,607,607,607,607,607,607,607,607,607,607,607,607,607,607,607,607,603,589,551,472,443,423,410,398,367,352,329,296,247,122,81],"timestamp_mouse":[4,23,43,60,80,101,121,139,161,181,201,221,239,260,280,301,321,340,361,381,401,419,440,461,480,499,520,541,559,581,600,619,640,661,681,700,720,741,761,781,801,821,841,859,881,901,921,941,960,981,1000,1020,1041,1059,1079,1101,1120,1140,1160,1179,1200,1219,1240,1260,1280,1300],"xSR":741.5,"ySR":573.95,"xT1":424.9,"yT1":0,"xT2":1058.1,"yT2":0,"toosoon":0,"cond_shown":"Incongruent","ratio_trial":200,"L_num":7,"L_den":15,"R_num":4,"R_den":6,"correct_side":2,"subjID":"leidysofiacharcas26","gender":"1","school":"6","age":"11"},{"start_time":1551882536606,"click_time":1551882538418,"finger_time":1551882538018,"fix_duration":906.2336729315945,"trial":28,"RT":1412,"MT":400,"sideResp":1,"stimulus":[],"xmouse":[801,801,801,801,803,803,803,803,803,803,803,803,804,804,804,804,804,804,804,804,804,804,804,804,804,804,804,804,804,804,804,804,804,804,804,804,804,804,804,804,804,804,804,804,804,804,804,804,804,804,804,804,804,804,804,804,804,804,804,804,804,804,804,804,804,804,804,804,804,799,783,763,723,694,643,620,607,599,590,579,550,533,528,526,526,526,526,526,526,526,524],"ymouse":[636,636,636,635,633,627,627,627,627,627,627,627,626,625,625,625,624,624,624,624,624,624,624,624,624,624,624,624,624,624,624,624,624,624,624,624,624,624,624,624,624,624,624,624,624,624,624,624,624,624,624,624,624,624,624,624,624,624,624,624,624,624,624,624,624,624,624,618,611,593,535,490,411,361,252,205,180,160,142,121,74,47,36,34,34,34,34,34,34,34,34],"timestamp_mouse":[13,43,52,72,91,113,132,152,172,193,212,231,252,272,292,312,332,352,371,393,411,431,451,473,493,512,532,552,572,592,611,633,652,672,692,713,731,751,773,792,812,832,852,872,892,912,932,952,973,992,1011,1032,1052,1072,1091,1111,1133,1152,1172,1193,1211,1232,1252,1272,1291,1313,1333,1352,1371,1392,1412,1433,1451,1472,1493,1512,1531,1552,1572,1592,1612,1632,1651,1672,1692,1712,1732,1753,1771,1792,1812],"xSR":741.5,"ySR":573.95,"xT1":424.9,"yT1":0,"xT2":1058.1,"yT2":0,"toosoon":0,"cond_shown":"Congruent","ratio_trial":300,"L_num":11,"L_den":22,"R_num":4,"R_den":20,"correct_side":1,"subjID":"leidysofiacharcas26","gender":"1","school":"6","age":"11"},{"start_time":1551882540751,"click_time":1551882542537,"finger_time":1551882542198,"fix_duration":1491.2118530471214,"trial":29,"RT":1447,"MT":339,"sideResp":1,"stimulus":[],"xmouse":[758,758,758,758,758,758,758,758,758,758,758,758,758,758,758,758,758,758,758,758,758,758,758,758,758,758,758,758,758,758,758,760,761,762,762,762,762,762,762,762,762,762,762,762,762,762,762,762,762,762,762,762,762,762,762,762,762,762,762,762,762,762,762,762,762,762,762,762,762,762,762,760,732,684,657,635,618,607,601,599,598,596,594,580,573,568,563,558,536,524],"ymouse":[627,627,627,627,627,627,627,627,627,627,627,627,627,627,627,627,627,627,627,627,627,627,627,627,627,627,627,627,627,627,627,627,626,626,626,626,626,626,626,626,626,626,626,626,626,626,626,626,626,626,626,626,626,626,626,626,626,626,626,626,626,626,626,626,626,626,626,626,626,626,623,617,581,472,387,306,242,203,171,162,153,142,126,74,62,56,53,50,39,31],"timestamp_mouse":[14,36,47,68,88,107,128,147,168,188,207,227,248,267,287,308,328,348,368,387,406,427,447,466,488,507,527,546,567,588,606,627,648,667,687,708,727,746,768,787,808,827,847,868,886,906,928,947,967,987,1006,1027,1047,1066,1087,1106,1127,1146,1167,1187,1207,1227,1248,1267,1288,1307,1327,1346,1368,1387,1407,1427,1447,1467,1487,1507,1527,1546,1566,1588,1607,1627,1646,1666,1687,1707,1727,1746,1766,1786],"xSR":741.5,"ySR":573.95,"xT1":424.9,"yT1":0,"xT2":1058.1,"yT2":0,"toosoon":0,"cond_shown":"Incongruent","ratio_trial":300,"L_num":1,"L_den":2,"R_num":2,"R_den":10,"correct_side":1,"subjID":"leidysofiacharcas26","gender":"1","school":"6","age":"11"},{"start_time":1551882543409,"click_time":1551882545078,"finger_time":1551882544937,"fix_duration":250,"trial":30,"RT":1528,"MT":141,"sideResp":1,"stimulus":[],"xmouse":[823,823,823,823,823,823,823,823,823,823,823,823,823,823,823,823,823,823,823,823,823,823,823,823,823,823,823,823,823,823,823,823,823,823,823,823,823,823,823,823,823,823,823,823,823,823,823,823,823,823,823,823,823,823,823,823,823,823,823,823,823,823,823,823,823,823,823,823,823,823,823,823,819,815,806,785,774,763,735,705,638,599,556,518],"ymouse":[632,632,632,632,632,632,632,632,632,632,632,632,632,632,632,632,632,632,632,632,632,632,632,632,632,632,632,632,632,632,632,632,632,632,632,632,632,632,632,632,632,632,632,632,632,632,632,632,632,632,632,632,632,632,632,632,632,632,632,632,632,632,632,632,632,632,632,632,632,632,632,632,629,625,614,587,564,534,448,376,222,148,71,14],"timestamp_mouse":[10,29,48,69,89,110,128,149,170,189,209,229,248,270,288,309,330,350,370,389,410,429,448,470,490,509,530,549,569,590,609,629,649,670,688,710,730,750,768,789,809,828,849,870,888,909,930,949,970,990,1009,1030,1050,1070,1090,1110,1130,1150,1169,1190,1208,1230,1248,1269,1290,1308,1329,1349,1369,1389,1410,1429,1449,1469,1489,1509,1528,1549,1570,1589,1609,1629,1650,1669],"xSR":741.5,"ySR":573.95,"xT1":424.9,"yT1":0,"xT2":1058.1,"yT2":0,"toosoon":0,"cond_shown":"Incongruent","ratio_trial":100,"L_num":3,"L_den":6,"R_num":4,"R_den":10,"correct_side":1,"subjID":"leidysofiacharcas26","gender":"1","school":"6","age":"11"},{"start_time":1551882546863,"click_time":1551882547938,"finger_time":1551882547678,"fix_duration":601.5573465635788,"trial":31,"RT":815,"MT":260,"sideResp":2,"stimulus":[],"xmouse":[782,782,782,782,782,782,782,782,782,782,782,782,782,782,782,782,782,782,782,782,782,782,782,782,782,782,782,782,782,782,782,778,776,772,772,772,772,772,772,774,785,800,824,901,953,978,999,1011,1019,1023,1031,1042,1054,1066],"ymouse":[600,600,600,600,600,600,600,600,600,600,600,600,600,600,600,600,600,600,600,600,600,600,600,600,600,600,600,600,600,600,600,600,600,600,600,600,600,600,599,591,573,549,507,374,274,219,166,130,106,102,93,86,75,66],"timestamp_mouse":[15,37,56,75,96,115,135,154,175,196,215,234,255,276,295,315,336,355,375,396,415,435,455,475,495,515,535,555,574,596,616,634,656,675,696,716,736,755,775,795,815,836,855,874,895,915,936,954,975,995,1015,1035,1055,1075],"xSR":741.5,"ySR":573.95,"xT1":424.9,"yT1":0,"xT2":1058.1,"yT2":0,"toosoon":0,"cond_shown":"Incongruent","ratio_trial":300,"L_num":4,"L_den":20,"R_num":2,"R_den":4,"correct_side":2,"subjID":"leidysofiacharcas26","gender":"1","school":"6","age":"11"},{"start_time":1551882549050,"click_time":1551882550537,"finger_time":1551882549917,"fix_duration":250,"trial":32,"RT":867,"MT":620,"sideResp":2,"stimulus":[],"xmouse":[784,784,784,784,784,784,784,784,784,784,784,784,786,788,792,793,793,793,793,793,793,793,793,793,793,793,793,793,793,793,793,793,793,793,793,793,793,793,793,793,795,798,808,821,852,855,855,855,855,855,855,855,855,857,870,881,894,920,946,982,989,997,1000,1002,1005,1008,1011,1017,1027,1043,1047,1052,1056,1065,1080],"ymouse":[607,607,607,607,607,607,607,607,607,607,607,607,608,607,602,600,600,600,600,600,600,600,600,600,600,600,600,600,600,600,600,600,600,600,600,600,600,600,600,600,596,593,582,567,532,527,525,525,525,525,525,525,525,523,500,483,459,416,369,305,285,268,260,257,247,242,234,222,207,176,166,156,145,127,83],"timestamp_mouse":[10,37,47,68,87,107,127,147,168,187,207,227,248,267,287,307,327,347,366,387,407,427,447,468,487,507,527,547,568,588,607,627,647,668,687,707,728,748,767,788,808,828,847,867,887,907,927,948,967,987,1008,1027,1047,1067,1087,1107,1127,1147,1167,1188,1208,1227,1247,1268,1288,1307,1327,1347,1367,1387,1406,1427,1448,1467,1486],"xSR":741.5,"ySR":573.95,"xT1":424.9,"yT1":0,"xT2":1058.1,"yT2":0,"toosoon":0,"cond_shown":"Incongruent","ratio_trial":300,"L_num":13,"L_den":26,"R_num":12,"R_den":15,"correct_side":2,"subjID":"leidysofiacharcas26","gender":"1","school":"6","age":"11"},{"start_time":1551882551930,"click_time":1551882553838,"finger_time":1551882552717,"fix_duration":250,"trial":33,"RT":787,"MT":1121,"sideResp":2,"stimulus":[],"xmouse":[786,786,786,786,786,786,786,786,786,786,786,786,786,786,786,786,786,786,786,786,786,786,786,786,786,786,786,786,786,786,774,763,753,749,749,747,747,747,747,749,749,749,749,749,749,749,749,749,749,749,749,749,749,749,749,749,749,749,749,749,749,749,749,749,749,749,749,749,749,749,774,814,855,892,917,925,926,927,927,929,940,947,954,966,976,995,1000,1004,1006,1007,1011,1012,1015,1023,1038,1074],"ymouse":[625,625,625,625,625,625,625,625,625,625,625,625,625,625,625,625,625,625,625,625,625,625,625,625,625,625,625,625,625,625,617,607,599,595,593,590,586,581,576,570,570,570,570,570,570,570,570,570,570,570,570,570,570,570,570,570,570,570,570,570,570,570,570,570,570,570,570,570,570,570,544,493,434,370,325,294,289,285,283,273,238,215,190,165,145,117,111,107,105,103,98,98,95,90,80,59],"timestamp_mouse":[10,37,47,68,88,107,127,147,168,188,207,228,247,267,287,307,327,347,368,388,407,427,448,468,487,507,527,547,567,587,607,628,647,668,688,707,727,748,767,787,807,828,847,868,887,908,927,947,967,988,1008,1028,1047,1067,1087,1108,1127,1148,1167,1187,1208,1227,1247,1268,1287,1308,1327,1348,1367,1388,1408,1427,1448,1467,1487,1507,1527,1548,1567,1588,1608,1627,1647,1668,1687,1707,1727,1748,1768,1787,1807,1827,1847,1867,1887,1908],"xSR":741.5,"ySR":573.95,"xT1":424.9,"yT1":0,"xT2":1058.1,"yT2":0,"toosoon":0,"cond_shown":"Congruent","ratio_trial":100,"L_num":11,"L_den":22,"R_num":4,"R_den":10,"correct_side":1,"subjID":"leidysofiacharcas26","gender":"1","school":"6","age":"11"},{"start_time":1551882555729,"click_time":1551882557118,"finger_time":1551882556717,"fix_duration":410.3977118755465,"trial":34,"RT":988,"MT":401,"sideResp":2,"stimulus":[],"xmouse":[777,777,777,777,777,777,777,777,777,777,777,777,777,777,777,777,777,777,777,777,777,777,777,777,777,777,777,777,777,777,777,777,777,777,777,777,777,777,777,777,777,777,777,777,777,777,777,784,789,795,801,822,833,847,857,872,887,893,908,916,932,942,951,961,973,983,1007,1042,1067,1088],"ymouse":[610,610,610,610,610,610,610,610,610,610,610,610,610,610,610,610,610,610,610,610,610,610,610,610,610,610,610,610,610,610,610,610,610,610,610,610,610,610,610,610,610,610,610,610,610,610,604,589,578,567,553,510,487,463,439,388,341,326,288,269,237,220,204,189,173,159,133,114,104,95],"timestamp_mouse":[9,41,48,68,88,109,128,148,167,188,209,228,248,269,288,309,328,349,368,389,408,428,449,468,489,509,528,549,568,588,608,628,648,669,689,709,729,749,768,789,809,828,849,868,889,908,928,949,968,988,1008,1028,1048,1069,1089,1109,1128,1148,1168,1188,1209,1227,1249,1268,1289,1308,1328,1348,1369,1388],"xSR":741.5,"ySR":573.95,"xT1":424.9,"yT1":0,"xT2":1058.1,"yT2":0,"toosoon":0,"cond_shown":"Incongruent","ratio_trial":300,"L_num":4,"L_den":20,"R_num":2,"R_den":4,"correct_side":2,"subjID":"leidysofiacharcas26","gender":"1","school":"6","age":"11"},{"start_time":1551882560884,"click_time":1551882562157,"finger_time":1551882561697,"fix_duration":965.4202999493011,"trial":35,"RT":813,"MT":460,"sideResp":1,"stimulus":[],"xmouse":[794,794,794,794,794,794,794,794,794,794,794,794,794,794,794,794,794,794,794,794,794,794,794,794,794,794,794,794,794,794,794,794,794,794,794,794,794,794,794,794,791,783,773,765,761,758,757,755,744,734,721,710,701,696,694,689,679,670,657,647,629,610,584,466],"ymouse":[629,629,629,629,629,629,629,629,629,629,629,629,629,629,629,629,629,629,629,629,629,629,629,629,629,629,629,629,629,629,629,629,629,629,629,629,629,629,626,602,560,500,435,362,340,325,314,304,267,249,231,214,202,194,192,191,188,186,183,182,177,171,159,97],"timestamp_mouse":[13,36,54,73,93,113,133,153,173,193,213,233,254,273,293,313,333,354,373,393,413,433,453,473,493,513,533,553,573,593,613,633,654,674,694,713,734,754,773,794,813,833,853,873,893,913,934,953,973,994,1013,1033,1053,1073,1092,1113,1133,1154,1173,1194,1213,1233,1253,1273],"xSR":741.5,"ySR":573.95,"xT1":424.9,"yT1":0,"xT2":1058.1,"yT2":0,"toosoon":0,"cond_shown":"Incongruent","ratio_trial":100,"L_num":3,"L_den":5,"R_num":11,"R_den":22,"correct_side":1,"subjID":"leidysofiacharcas26","gender":"1","school":"6","age":"11"},{"start_time":1551882564808,"click_time":1551882566437,"finger_time":1551882566198,"fix_duration":1410.2187897768356,"trial":36,"RT":1390,"MT":239,"sideResp":2,"stimulus":[],"xmouse":[753,753,753,753,753,753,753,753,753,753,753,753,753,753,753,753,753,753,753,753,753,753,753,753,753,753,753,753,753,753,753,753,753,753,753,753,753,753,753,753,753,753,753,753,753,753,753,753,753,753,753,753,753,753,753,753,753,753,753,753,753,753,753,753,753,753,754,755,770,797,826,858,881,912,928,947,965,987,1045,1099,1122,1135],"ymouse":[602,602,602,602,602,602,602,602,602,602,602,602,602,602,602,602,602,602,602,602,602,602,602,602,602,602,602,602,602,602,602,602,602,602,602,602,602,602,602,602,602,602,602,602,602,602,602,602,602,602,602,602,602,602,602,602,602,602,602,602,602,602,602,602,602,602,601,600,580,543,502,446,402,353,330,303,274,243,181,137,113,94],"timestamp_mouse":[9,40,49,69,89,109,130,150,170,189,210,230,249,270,290,309,329,350,369,390,409,429,450,470,490,509,529,549,569,590,609,629,650,669,690,709,730,750,769,790,809,830,850,870,890,910,929,950,969,990,1009,1029,1048,1069,1089,1109,1129,1149,1169,1190,1210,1229,1249,1269,1290,1310,1329,1350,1369,1390,1409,1430,1449,1469,1490,1516,1530,1549,1570,1589,1609,1629],"xSR":741.5,"ySR":573.95,"xT1":424.9,"yT1":0,"xT2":1058.1,"yT2":0,"toosoon":0,"cond_shown":"Congruent","ratio_trial":100,"L_num":11,"L_den":22,"R_num":6,"R_den":15,"correct_side":1,"subjID":"leidysofiacharcas26","gender":"1","school":"6","age":"11"},{"start_time":1551882568239,"click_time":1551882570058,"finger_time":1551882569638,"fix_duration":939.4335068507601,"trial":37,"RT":1399,"MT":420,"sideResp":2,"stimulus":[],"xmouse":[809,809,809,809,809,809,809,809,809,809,809,809,809,809,809,809,809,809,809,809,809,809,809,809,809,809,809,809,809,809,809,809,809,809,809,809,809,809,809,809,809,809,809,809,809,809,809,809,809,809,809,809,809,809,809,809,809,809,809,809,809,809,809,809,809,809,809,815,818,826,834,843,874,889,899,920,943,952,961,969,981,1014,1035,1050,1062,1069,1075,1078,1079,1084,1089],"ymouse":[650,650,650,650,650,650,650,650,650,650,650,650,650,650,650,650,650,650,650,650,650,650,650,650,650,650,650,650,650,650,650,650,650,650,650,650,650,650,650,650,650,650,650,650,650,650,650,650,650,650,650,650,650,650,650,650,650,650,650,650,650,650,650,650,650,646,638,600,578,555,528,495,418,383,356,307,258,238,222,206,190,157,142,130,120,114,108,106,104,100,95],"timestamp_mouse":[18,39,58,78,98,119,139,158,179,198,218,238,258,279,299,318,338,358,379,398,418,439,458,478,498,518,538,558,578,598,618,638,658,678,698,719,738,759,778,798,819,838,858,879,898,918,938,958,977,999,1019,1038,1058,1078,1099,1119,1138,1159,1179,1198,1219,1238,1258,1280,1299,1319,1338,1358,1378,1399,1418,1438,1458,1478,1498,1519,1538,1558,1578,1598,1618,1638,1657,1678,1698,1718,1738,1758,1778,1798,1819],"xSR":741.5,"ySR":573.95,"xT1":424.9,"yT1":0,"xT2":1058.1,"yT2":0,"toosoon":0,"cond_shown":"Congruent","ratio_trial":200,"L_num":6,"L_den":12,"R_num":7,"R_den":10,"correct_side":2,"subjID":"leidysofiacharcas26","gender":"1","school":"6","age":"11"},{"start_time":1551882571734,"click_time":1551882573157,"finger_time":1551882572678,"fix_duration":496.39338555869296,"trial":38,"RT":944,"MT":479,"sideResp":1,"stimulus":[],"xmouse":[777,777,777,777,777,777,777,777,777,777,777,777,777,777,777,777,777,777,777,777,777,777,777,777,777,777,777,777,777,777,777,777,777,777,777,777,777,777,777,777,777,777,776,775,773,768,758,745,703,685,666,636,621,603,596,588,583,577,574,573,573,566,543,511,494,477,461,447,445,445,444,444],"ymouse":[636,636,636,636,636,636,636,636,636,636,636,636,636,636,636,636,636,636,636,636,636,636,636,636,636,636,636,636,636,636,636,636,636,636,636,636,636,636,636,636,636,636,634,628,618,604,585,564,510,485,459,423,402,372,355,336,315,266,234,201,168,102,16,0,0,0,0,0,0,0,0,5],"timestamp_mouse":[8,23,44,63,84,104,124,144,163,183,204,223,244,264,283,304,324,343,364,384,404,423,444,464,484,503,524,544,563,584,604,623,643,663,683,703,723,744,764,784,803,824,843,863,883,903,924,944,963,984,1004,1023,1043,1063,1083,1104,1123,1144,1163,1183,1204,1224,1244,1263,1284,1303,1324,1344,1363,1383,1403,1423],"xSR":741.5,"ySR":573.95,"xT1":424.9,"yT1":0,"xT2":1058.1,"yT2":0,"toosoon":0,"cond_shown":"Congruent","ratio_trial":300,"L_num":20,"L_den":25,"R_num":13,"R_den":26,"correct_side":1,"subjID":"leidysofiacharcas26","gender":"1","school":"6","age":"11"},{"start_time":1551882576056,"click_time":1551882578257,"finger_time":1551882577497,"fix_duration":758.654917671097,"trial":39,"RT":1441,"MT":760,"sideResp":2,"stimulus":[],"xmouse":[785,785,785,785,785,785,785,785,785,785,785,785,785,785,785,785,785,785,785,785,785,785,785,785,785,785,785,785,785,785,785,785,785,785,785,785,785,785,785,785,785,785,785,785,785,785,785,785,785,785,785,785,785,785,785,785,785,785,785,785,785,785,785,785,785,785,785,785,785,785,786,790,812,822,832,840,847,856,863,869,874,884,894,903,916,937,961,1007,1027,1052,1091,1131,1196,1203,1203,1203,1203,1203,1203,1201,1200,1197,1195,1195,1195,1195,1195,1195,1193,1187,1154],"ymouse":[612,612,612,612,612,612,612,612,612,612,612,612,612,612,612,612,612,612,612,612,612,612,612,612,612,612,612,612,612,612,612,612,612,612,612,612,612,612,612,612,612,612,612,612,612,612,612,612,612,612,612,612,612,612,612,612,612,612,612,612,612,612,612,612,612,612,612,612,612,612,612,605,552,529,505,486,468,432,413,392,373,351,327,306,277,229,162,71,45,15,0,0,0,0,0,0,0,0,3,7,9,13,15,15,16,16,16,16,17,19,29],"timestamp_mouse":[8,21,41,61,81,101,122,141,162,181,202,221,241,262,281,301,321,341,361,381,402,422,441,461,481,501,521,541,562,581,602,621,642,661,681,701,721,741,761,780,801,821,841,861,881,902,921,942,961,981,1002,1021,1041,1062,1082,1101,1121,1141,1162,1182,1201,1221,1242,1261,1281,1301,1321,1341,1362,1381,1401,1422,1441,1462,1481,1501,1521,1541,1562,1581,1601,1621,1641,1661,1681,1702,1721,1741,1760,1782,1802,1821,1841,1861,1881,1901,1921,1942,1962,1982,2001,2021,2042,2060,2081,2101,2121,2141,2161,2180,2200],"xSR":741.5,"ySR":573.95,"xT1":424.9,"yT1":0,"xT2":1058.1,"yT2":0,"toosoon":0,"cond_shown":"Congruent","ratio_trial":200,"L_num":5,"L_den":10,"R_num":14,"R_den":20,"correct_side":2,"subjID":"leidysofiacharcas26","gender":"1","school":"6","age":"11"},{"start_time":1551882579654,"click_time":1551882580838,"finger_time":1551882580317,"fix_duration":496.3296904181727,"trial":40,"RT":663,"MT":521,"sideResp":2,"stimulus":[],"xmouse":[828,828,828,828,828,828,828,828,828,828,828,828,828,828,828,828,828,828,828,828,828,828,828,828,828,828,828,828,828,828,828,828,833,843,855,872,892,915,927,930,935,939,942,949,952,955,962,969,985,993,1005,1014,1018,1019,1019,1019,1021,1030,1036,1067],"ymouse":[619,619,619,619,619,619,619,619,619,619,619,619,619,619,619,619,619,619,619,619,619,619,619,619,619,619,619,619,619,619,619,619,601,578,551,513,467,408,367,349,330,301,278,233,213,191,168,145,105,88,70,60,55,53,53,53,53,49,47,40],"timestamp_mouse":[11,23,44,63,83,103,122,144,163,183,203,224,243,263,283,303,324,344,364,383,404,423,443,463,483,504,523,543,563,584,604,624,644,663,683,703,723,744,763,784,803,824,843,864,883,904,923,943,964,984,1003,1023,1043,1063,1083,1104,1124,1145,1163,1184],"xSR":741.5,"ySR":573.95,"xT1":424.9,"yT1":0,"xT2":1058.1,"yT2":0,"toosoon":0,"cond_shown":"Incongruent","ratio_trial":100,"L_num":6,"L_den":12,"R_num":3,"R_den":5,"correct_side":2,"subjID":"leidysofiacharcas26","gender":"1","school":"6","age":"11"},{"start_time":1551882583068,"click_time":1551882584817,"finger_time":1551882584158,"fix_duration":1230.3373246967087,"trial":41,"RT":1090,"MT":659,"sideResp":1,"stimulus":[],"xmouse":[821,821,821,821,821,821,821,821,821,821,821,821,821,821,821,821,821,821,821,821,821,821,821,821,821,821,821,821,821,821,821,821,821,821,821,821,821,821,821,821,821,821,821,821,821,821,821,821,821,821,821,821,817,792,733,662,600,558,553,552,549,546,535,523,504,487,469,441,428,414,401,394,392,392,392,392,399,455,474,488,491,491,491,490,487,480,474,468],"ymouse":[647,647,647,647,647,647,647,647,647,647,647,647,647,647,647,647,647,647,647,647,647,647,647,647,647,647,647,647,647,647,647,647,647,647,647,647,647,647,647,647,647,647,647,647,647,647,647,647,647,647,647,647,647,645,639,629,614,592,582,575,566,555,514,471,421,380,347,282,258,237,217,204,195,194,194,194,188,140,123,111,108,108,108,108,108,106,104,97],"timestamp_mouse":[10,31,50,69,89,110,129,149,169,189,209,230,249,269,289,310,330,350,369,389,410,430,449,469,488,510,529,549,569,589,609,630,649,670,690,709,729,749,769,789,809,829,849,870,890,909,929,949,970,990,1009,1029,1050,1069,1090,1110,1130,1149,1169,1189,1209,1229,1249,1268,1290,1309,1330,1349,1368,1389,1409,1430,1449,1469,1489,1509,1530,1550,1569,1589,1609,1630,1649,1669,1689,1710,1729,1748],"xSR":741.5,"ySR":573.95,"xT1":424.9,"yT1":0,"xT2":1058.1,"yT2":0,"toosoon":0,"cond_shown":"Congruent","ratio_trial":100,"L_num":9,"L_den":15,"R_num":8,"R_den":16,"correct_side":1,"subjID":"leidysofiacharcas26","gender":"1","school":"6","age":"11"},{"start_time":1551882586937,"click_time":1551882588417,"finger_time":1551882588077,"fix_duration":1337.0667780973777,"trial":42,"RT":1140,"MT":340,"sideResp":2,"stimulus":[],"xmouse":[812,812,812,812,812,812,812,812,812,812,812,812,812,812,812,812,812,812,812,812,812,812,812,812,812,812,812,812,812,812,812,812,812,812,812,812,812,812,812,812,812,812,812,812,812,812,812,812,812,812,812,812,812,812,812,812,821,855,898,1009,1067,1121,1160,1185,1209,1222,1225,1225,1225,1222,1218,1212,1202,1179,1156],"ymouse":[594,594,594,594,594,594,594,594,594,594,594,594,594,594,594,594,594,594,594,594,594,594,594,594,594,594,594,594,594,594,594,594,594,594,594,594,594,594,594,594,594,594,594,594,594,594,594,594,594,594,594,594,594,594,594,594,577,520,465,333,257,175,99,25,0,0,0,0,0,0,0,0,0,2,10],"timestamp_mouse":[10,21,40,59,80,101,120,140,160,180,200,221,240,261,281,300,321,341,361,380,400,421,441,460,481,501,521,540,560,581,601,620,640,660,681,701,721,741,760,781,801,822,841,861,880,900,921,940,961,980,1001,1021,1040,1061,1080,1101,1120,1140,1161,1181,1200,1220,1239,1260,1280,1301,1320,1340,1361,1381,1399,1420,1440,1460,1480],"xSR":741.5,"ySR":573.95,"xT1":424.9,"yT1":0,"xT2":1058.1,"yT2":0,"toosoon":0,"cond_shown":"Congruent","ratio_trial":200,"L_num":9,"L_den":30,"R_num":13,"R_den":26,"correct_side":2,"subjID":"leidysofiacharcas26","gender":"1","school":"6","age":"11"},{"start_time":1551882589988,"click_time":1551882591438,"finger_time":1551882591017,"fix_duration":250,"trial":43,"RT":1029,"MT":421,"sideResp":2,"stimulus":[],"xmouse":[755,755,755,755,755,755,755,755,755,755,755,757,763,765,765,765,765,765,765,765,765,765,765,765,765,765,765,765,765,765,765,765,765,765,765,765,765,765,765,765,765,765,765,765,765,765,765,763,763,763,768,788,850,886,919,947,975,1011,1027,1032,1036,1037,1037,1037,1037,1037,1037,1037,1037,1037,1037,1039,1059],"ymouse":[628,628,628,628,628,628,628,628,628,628,628,627,626,625,625,625,625,625,625,625,625,625,625,625,625,625,625,625,625,625,625,625,625,625,625,625,625,625,625,625,625,625,625,625,625,624,623,619,612,596,575,535,436,382,330,280,232,146,94,68,45,28,19,19,19,19,19,19,19,19,19,19,29],"timestamp_mouse":[10,32,49,69,89,109,130,149,170,189,210,229,249,269,289,309,330,349,370,390,409,430,449,470,490,509,530,549,569,590,608,630,650,669,690,710,729,749,769,790,810,829,850,869,889,909,929,950,970,989,1009,1029,1049,1070,1089,1109,1129,1149,1169,1189,1209,1230,1250,1270,1289,1310,1328,1349,1369,1389,1409,1429,1449],"xSR":741.5,"ySR":573.95,"xT1":424.9,"yT1":0,"xT2":1058.1,"yT2":0,"toosoon":0,"cond_shown":"Congruent","ratio_trial":200,"L_num":13,"L_den":26,"R_num":14,"R_den":20,"correct_side":2,"subjID":"leidysofiacharcas26","gender":"1","school":"6","age":"11"},{"start_time":1551882592499,"click_time":1551882593758,"finger_time":1551882593357,"fix_duration":439.04089219214006,"trial":44,"RT":858,"MT":401,"sideResp":2,"stimulus":[],"xmouse":[770,770,770,770,770,770,770,770,770,770,770,770,770,770,770,770,770,770,770,770,770,770,770,770,770,770,770,770,770,770,770,770,770,770,770,770,770,770,774,781,812,831,851,873,892,917,920,922,923,924,943,956,969,978,986,1008,1022,1045,1072,1095,1123,1151],"ymouse":[627,627,627,627,627,627,627,627,627,627,627,627,627,627,627,627,627,627,627,627,627,627,627,627,627,627,627,627,627,627,627,627,627,627,627,627,627,627,622,615,582,564,548,530,514,490,485,482,480,476,452,433,414,395,374,325,298,258,220,182,135,77],"timestamp_mouse":[38,59,78,98,119,138,158,178,198,218,238,258,279,298,318,339,358,378,398,419,438,458,478,498,518,539,558,579,598,618,638,659,678,699,719,738,758,778,798,818,838,858,878,898,919,938,958,979,998,1018,1038,1058,1078,1099,1118,1138,1159,1178,1199,1219,1238,1259],"xSR":741.5,"ySR":573.95,"xT1":424.9,"yT1":0,"xT2":1058.1,"yT2":0,"toosoon":0,"cond_shown":"Congruent","ratio_trial":300,"L_num":24,"L_den":30,"R_num":8,"R_den":16,"correct_side":1,"subjID":"leidysofiacharcas26","gender":"1","school":"6","age":"11"},{"start_time":1551882596581,"click_time":1551882597858,"finger_time":1551882597378,"fix_duration":322.6523798072227,"trial":45,"RT":797,"MT":480,"sideResp":1,"stimulus":[],"xmouse":[782,782,782,782,782,782,782,782,782,782,782,782,782,782,782,782,782,782,782,782,782,782,782,782,782,782,782,782,782,782,782,782,780,773,762,759,755,753,748,743,736,731,715,707,688,676,632,607,575,568,563,558,550,535,529,527,527,527,527,527,527,527,526,513],"ymouse":[633,633,633,633,633,633,633,633,633,633,633,633,633,633,633,633,633,633,633,633,633,633,633,633,633,633,633,633,633,633,633,633,631,622,605,602,593,589,578,569,556,543,500,469,396,366,264,190,64,10,0,0,0,0,0,0,0,0,5,12,17,20,24,34],"timestamp_mouse":[16,39,57,76,96,116,137,156,177,197,217,236,256,276,296,316,336,356,377,396,417,436,456,476,496,517,537,557,576,596,616,636,657,676,696,717,736,756,777,797,816,836,857,876,896,916,936,956,976,996,1017,1037,1056,1076,1097,1117,1136,1156,1176,1197,1217,1236,1256,1277],"xSR":741.5,"ySR":573.95,"xT1":424.9,"yT1":0,"xT2":1058.1,"yT2":0,"toosoon":0,"cond_shown":"Incongruent","ratio_trial":300,"L_num":2,"L_den":4,"R_num":6,"R_den":30,"correct_side":1,"subjID":"leidysofiacharcas26","gender":"1","school":"6","age":"11"},{"start_time":1551882599656,"click_time":1551882600677,"finger_time":1551882600318,"fix_duration":858.6067975426555,"trial":46,"RT":662,"MT":359,"sideResp":2,"stimulus":[],"xmouse":[766,766,766,766,766,766,766,766,766,766,766,766,766,766,766,766,766,766,766,766,766,766,766,766,766,766,768,770,772,773,778,783,788,794,806,847,876,906,936,959,988,1007,1018,1029,1041,1061,1065,1068,1069,1069,1069,1072],"ymouse":[669,669,669,669,669,669,669,669,669,669,669,669,669,669,669,669,669,669,669,669,669,669,669,669,669,669,665,658,652,644,629,609,591,568,537,438,368,285,203,144,79,50,37,25,11,0,0,0,0,0,0,2],"timestamp_mouse":[8,33,41,60,82,101,123,141,162,181,202,221,241,262,282,301,321,341,362,381,401,421,442,461,481,501,521,541,561,582,601,621,641,662,681,702,721,741,762,782,801,822,841,861,882,902,921,941,961,980,1002,1021],"xSR":741.5,"ySR":573.95,"xT1":424.9,"yT1":0,"xT2":1058.1,"yT2":0,"toosoon":0,"cond_shown":"Incongruent","ratio_trial":200,"L_num":7,"L_den":15,"R_num":6,"R_den":9,"correct_side":2,"subjID":"leidysofiacharcas26","gender":"1","school":"6","age":"11"},{"start_time":1551882603508,"click_time":1551882604597,"finger_time":1551882604477,"fix_duration":689.7562773132189,"trial":47,"RT":969,"MT":120,"sideResp":1,"stimulus":[],"xmouse":[811,811,811,811,811,811,811,811,811,811,811,811,811,811,811,811,811,811,811,811,811,811,811,811,811,811,811,811,811,811,811,811,811,811,811,811,811,811,811,811,811,811,811,811,811,811,811,807,790,762,722,666,543,501,483],"ymouse":[612,612,612,612,612,612,612,612,612,612,612,612,612,612,612,612,612,612,612,612,612,612,612,612,612,612,612,612,612,612,612,612,612,612,612,612,612,612,612,612,612,612,612,612,612,612,612,604,573,511,421,313,143,103,90],"timestamp_mouse":[14,36,49,69,89,110,129,149,169,188,209,229,249,269,291,309,329,350,370,389,409,429,449,469,489,509,529,550,569,589,610,629,649,669,689,710,730,749,769,789,809,829,849,869,890,909,929,949,969,989,1010,1029,1049,1069,1089],"xSR":741.5,"ySR":573.95,"xT1":424.9,"yT1":0,"xT2":1058.1,"yT2":0,"toosoon":0,"cond_shown":"Incongruent","ratio_trial":300,"L_num":3,"L_den":6,"R_num":4,"R_den":20,"correct_side":1,"subjID":"leidysofiacharcas26","gender":"1","school":"6","age":"11"},{"start_time":1551882608180,"click_time":1551882609499,"finger_time":1551882609178,"fix_duration":1460.7279483380592,"trial":48,"RT":998,"MT":321,"sideResp":1,"stimulus":[],"xmouse":[762,762,762,762,762,762,762,762,762,762,762,762,762,762,762,762,762,762,762,762,762,762,762,762,762,762,762,762,762,762,762,762,762,762,762,762,762,762,762,762,762,762,762,762,762,762,762,762,762,736,716,680,663,652,643,638,631,621,612,589,586,572,560,545,514,504],"ymouse":[617,617,617,617,617,617,617,617,617,617,617,617,617,617,617,617,617,617,617,617,617,617,617,617,617,617,617,617,617,617,617,617,617,617,617,617,617,617,617,617,617,617,617,617,617,617,617,609,594,519,473,410,381,360,339,327,312,293,278,226,218,189,168,145,106,95],"timestamp_mouse":[17,37,57,77,97,118,137,157,177,197,217,237,258,277,297,317,337,358,377,397,418,437,457,477,497,517,537,557,577,598,617,638,657,678,697,717,737,757,778,797,817,837,857,878,897,917,939,959,978,998,1017,1038,1058,1078,1098,1118,1139,1158,1178,1197,1218,1238,1259,1278,1299,1319],"xSR":741.5,"ySR":573.95,"xT1":424.9,"yT1":0,"xT2":1058.1,"yT2":0,"toosoon":0,"cond_shown":"Congruent","ratio_trial":100,"L_num":1,"L_den":2,"R_num":18,"R_den":30,"correct_side":2,"subjID":"leidysofiacharcas26","gender":"1","school":"6","age":"11"},{"start_time":1551882611338,"click_time":1551882612978,"finger_time":1551882612778,"fix_duration":998.6148746110591,"trial":49,"RT":1440,"MT":200,"sideResp":1,"stimulus":[],"xmouse":[782,782,782,782,782,782,782,782,782,782,782,782,782,782,782,782,782,782,782,782,782,782,782,782,782,782,782,782,782,782,782,782,782,782,782,782,782,782,782,782,782,782,782,782,782,782,782,782,782,782,782,782,782,782,782,782,782,782,782,782,782,782,782,782,782,782,782,782,782,783,783,783,750,712,674,639,616,590,580,570,558,542,477],"ymouse":[639,639,639,639,639,639,639,639,639,639,639,639,639,639,639,639,639,639,639,639,639,639,639,639,639,639,639,639,639,639,639,639,639,639,639,639,639,639,639,639,639,639,639,639,639,639,639,639,639,639,639,639,639,639,639,639,639,639,639,639,639,639,639,639,639,639,639,639,639,635,627,600,515,437,384,333,291,227,200,175,151,129,63],"timestamp_mouse":[1,21,40,59,81,101,120,139,160,179,200,220,240,260,280,301,319,340,360,379,401,420,441,460,479,500,520,540,559,580,601,620,639,661,680,700,719,740,759,780,800,820,839,859,880,901,920,940,960,980,1000,1019,1040,1060,1079,1100,1120,1141,1159,1180,1199,1221,1240,1260,1280,1299,1320,1341,1359,1380,1401,1419,1440,1461,1480,1501,1520,1540,1560,1579,1600,1620,1640],"xSR":741.5,"ySR":573.95,"xT1":424.9,"yT1":0,"xT2":1058.1,"yT2":0,"toosoon":0,"cond_shown":"Congruent","ratio_trial":300,"L_num":20,"L_den":25,"R_num":9,"R_den":18,"correct_side":1,"subjID":"leidysofiacharcas26","gender":"1","school":"6","age":"11"},{"start_time":1551882614366,"click_time":1551882616197,"finger_time":1551882615899,"fix_duration":627.6117360072678,"trial":50,"RT":1533,"MT":298,"sideResp":1,"stimulus":[],"xmouse":[762,762,762,762,762,762,762,762,762,762,762,762,762,762,762,762,762,762,762,762,762,762,762,762,762,762,762,762,762,762,762,762,762,762,762,762,762,762,762,762,762,762,762,762,762,762,762,762,762,762,762,762,762,762,762,762,762,762,762,762,762,762,762,762,762,762,762,762,762,762,762,762,762,762,762,762,731,692,662,629,613,602,601,600,598,596,594,587,584,567,544,493],"ymouse":[646,646,646,646,646,646,646,646,646,646,646,646,646,646,646,646,646,646,646,646,646,646,646,646,646,646,646,646,646,646,646,646,646,646,646,646,646,646,646,646,646,646,646,646,646,646,646,646,646,646,646,646,646,646,646,646,646,646,646,646,646,646,646,646,646,646,646,646,646,646,646,646,646,646,646,644,569,505,440,344,287,225,211,203,196,186,176,155,147,112,76,9],"timestamp_mouse":[13,33,52,73,92,113,132,153,172,191,213,232,251,273,291,312,332,352,373,393,412,432,452,471,493,513,531,553,572,591,612,632,651,673,692,713,733,751,771,793,813,832,853,873,891,912,932,953,972,991,1011,1032,1053,1071,1093,1113,1132,1152,1172,1193,1212,1233,1253,1272,1293,1313,1332,1353,1373,1392,1413,1432,1452,1472,1493,1512,1533,1552,1573,1592,1611,1632,1653,1672,1692,1712,1731,1752,1773,1791,1812,1831],"xSR":741.5,"ySR":573.95,"xT1":424.9,"yT1":0,"xT2":1058.1,"yT2":0,"toosoon":0,"cond_shown":"Congruent","ratio_trial":300,"L_num":4,"L_den":10,"R_num":1,"R_den":10,"correct_side":1,"subjID":"leidysofiacharcas26","gender":"1","school":"6","age":"11"},{"start_time":1551882618276,"click_time":1551882619819,"finger_time":1551882619278,"fix_duration":515.8080338446744,"trial":51,"RT":1002,"MT":541,"sideResp":2,"stimulus":[],"xmouse":[814,814,814,814,814,814,814,814,814,814,814,814,814,814,814,814,814,814,814,814,814,814,814,814,814,814,814,814,814,814,814,814,814,814,814,814,814,814,814,814,814,814,814,814,814,814,814,815,818,822,828,845,852,857,862,870,891,906,920,935,947,978,990,1002,1015,1028,1051,1056,1059,1060,1060,1074,1084,1095,1103,1110,1121,1124],"ymouse":[618,618,618,618,618,618,618,618,618,618,618,618,618,618,618,618,618,618,618,618,618,618,618,618,618,618,618,618,618,618,618,618,618,618,618,618,618,618,618,618,618,618,618,618,618,618,617,608,597,583,566,525,509,497,485,472,442,426,410,394,379,343,329,316,299,286,256,248,243,242,242,230,218,200,179,157,114,93],"timestamp_mouse":[10,36,42,63,81,101,123,143,161,181,203,223,243,262,282,301,322,343,362,381,402,421,442,461,482,502,522,542,563,582,602,622,642,662,682,702,722,742,761,783,802,822,843,862,883,902,923,942,962,982,1002,1022,1042,1061,1082,1103,1122,1142,1161,1183,1203,1222,1243,1263,1283,1302,1322,1342,1361,1382,1402,1422,1441,1463,1483,1502,1522,1543],"xSR":741.5,"ySR":573.95,"xT1":424.9,"yT1":0,"xT2":1058.1,"yT2":0,"toosoon":0,"cond_shown":"Incongruent","ratio_trial":300,"L_num":4,"L_den":20,"R_num":2,"R_den":4,"correct_side":2,"subjID":"leidysofiacharcas26","gender":"1","school":"6","age":"11"},{"start_time":1551882621089,"click_time":1551882622578,"finger_time":1551882622459,"fix_duration":549.4010626659574,"trial":52,"RT":1370,"MT":119,"sideResp":1,"stimulus":[],"xmouse":[792,792,792,792,792,792,792,792,792,792,792,792,792,792,792,792,792,792,792,792,792,792,792,792,792,792,792,792,792,792,792,792,792,792,792,792,792,792,792,792,792,792,792,792,792,792,792,792,792,792,792,792,792,792,792,792,792,792,791,791,790,788,787,785,782,768,756,743,726,688,658,602,570,537,508],"ymouse":[644,644,644,644,644,644,644,644,644,644,644,644,644,644,644,644,644,644,644,644,644,644,644,644,644,644,644,644,644,644,644,644,644,644,644,644,644,644,644,644,644,644,644,644,644,644,644,644,644,644,644,644,644,644,644,644,644,644,644,644,644,643,641,639,633,613,597,580,549,475,410,263,178,87,15],"timestamp_mouse":[10,42,49,69,89,109,129,150,169,188,210,228,250,269,289,310,329,349,369,388,410,429,448,468,489,508,530,550,568,590,610,628,649,669,689,708,728,750,768,790,808,828,849,870,888,909,929,949,969,989,1010,1028,1049,1068,1088,1109,1129,1150,1168,1188,1208,1229,1249,1270,1290,1309,1328,1349,1370,1388,1409,1429,1450,1469,1489],"xSR":741.5,"ySR":573.95,"xT1":424.9,"yT1":0,"xT2":1058.1,"yT2":0,"toosoon":0,"cond_shown":"Incongruent","ratio_trial":300,"L_num":7,"L_den":10,"R_num":8,"R_den":20,"correct_side":1,"subjID":"leidysofiacharcas26","gender":"1","school":"6","age":"11"},{"start_time":1551882623824,"click_time":1551882625658,"finger_time":1551882625358,"fix_duration":285.829283097969,"trial":53,"RT":1534,"MT":300,"si