[{"start_time":1551881555258,"click_time":1551881556529,"finger_time":1551881556469,"fix_duration":307.67661665974435,"trial":0,"RT":1211,"MT":60,"sideResp":2,"stimulus":"img/250/equaldotanddens/R/8_Ratio_250_L_1_R_4.png","xmouse":[780,780,783,783,783,783,783,783,783,783,783,783,783,783,783,784,785,785,785,785,786,786,786,786,786,786,786,786,786,786,786,786,786,786,786,786,786,786,786,786,786,786,786,786,786,786,786,786,786,786,786,786,786,786,786,786,786,788,795,896,983,1092,1149],"ymouse":[540,540,528,526,526,526,526,526,526,526,526,526,526,526,526,528,528,529,530,530,532,532,532,532,532,532,532,532,532,532,532,532,532,532,532,532,532,532,532,532,532,532,532,532,532,532,532,532,532,532,532,532,532,532,532,532,532,532,526,367,255,126,58],"timestamp_mouse":[42,49,69,89,110,130,149,169,190,210,229,251,270,289,310,329,349,370,389,410,430,449,469,489,509,530,550,570,589,611,631,650,670,691,710,729,750,770,790,811,830,849,870,890,910,930,951,969,989,1010,1031,1050,1070,1090,1110,1131,1150,1170,1189,1211,1229,1250,1270],"xSR":741.5,"ySR":500.5,"xT1":424.9,"yT1":0,"xT2":1058.1,"yT2":0,"toosoon":0,"cond_shown":"equaldotanddens","ratio_trial":250,"smaller_num":"1","larger_num":"4","correct_side":2,"subjID":"leidysofiacharcasrodriguez26","gender":"0","age":"11","school":"6","test":{"fix_dur":[250,1500],"timestim":300,"targets_dim":[100,100],"targets_relative_coord":[0.3,0.7],"size_stim":[880,420],"start_dim":[100,100],"size_start":[300,300],"size_fix":60,"samplingrate":20,"img_types":["equaldotsize","equaldotanddens","randomdotsizeEA"],"ratios":[250,500,750,900],"rep_conds":9,"nTrials":120,"trials_to_rest":500,"Trials_order":[13,10,26,68,9,73,16,47,34,92,100,88,53,110,96,71,59,94,112,95,36,54,67,35,93,41,102,46,14,0,106,20,69,74,78,24,109,31,119,97,1,43,101,80,114,21,111,52,49,84,58,17,48,70,15,51,90,27,42,76,4,91,50,25,55,44,98,86,30,8,2,60,22,104,3,77,99,75,82,19,107,118,81,115,116,85,56,40,11,87,5,72,37,32,6,29,23,45,103,18,38,105,12,79,63,65,39,108,28,61,33,66,83,57,113,64,117,89,62,7],"cond_shown":["equaldotanddens","equaldotanddens","randomdotsizeEA","randomdotsizeEA","equaldotsize","equaldotanddens","equaldotanddens","randomdotsizeEA","equaldotanddens","randomdotsizeEA","equaldotanddens","equaldotanddens","randomdotsizeEA","randomdotsizeEA","equaldotsize","randomdotsizeEA","randomdotsizeEA","equaldotanddens","equaldotanddens","randomdotsizeEA","equaldotsize","equaldotsize","equaldotanddens","randomdotsizeEA","equaldotsize","randomdotsizeEA","equaldotsize","equaldotanddens","randomdotsizeEA","equaldotsize","equaldotanddens","randomdotsizeEA","equaldotsize","randomdotsizeEA","equaldotsize","equaldotsize","equaldotanddens","equaldotanddens","randomdotsizeEA","equaldotanddens","equaldotanddens","equaldotanddens","randomdotsizeEA","randomdotsizeEA","equaldotsize","equaldotsize","equaldotsize","equaldotanddens","equaldotanddens","equaldotsize","equaldotanddens","randomdotsizeEA","equaldotsize","equaldotanddens","equaldotsize","equaldotsize","equaldotsize","equaldotsize","equaldotsize","equaldotanddens","equaldotanddens","equaldotanddens","randomdotsizeEA","equaldotanddens","equaldotanddens","randomdotsizeEA","randomdotsizeEA","randomdotsizeEA","equaldotsize","randomdotsizeEA","randomdotsizeEA","equaldotsize","equaldotanddens","randomdotsizeEA","equaldotsize","randomdotsizeEA","equaldotsize","equaldotsize","equaldotanddens","equaldotanddens","randomdotsizeEA","equaldotanddens","equaldotsize","equaldotanddens","randomdotsizeEA","equaldotanddens","randomdotsizeEA","equaldotanddens","randomdotsizeEA","equaldotsize","randomdotsizeEA","equaldotsize","equaldotanddens","randomdotsizeEA","equaldotsize","randomdotsizeEA","randomdotsizeEA","equaldotsize","equaldotanddens","equaldotsize","randomdotsizeEA","equaldotsize","equaldotsize","equaldotanddens","equaldotsize","randomdotsizeEA","equaldotsize","equaldotsize","equaldotanddens","equaldotanddens","equaldotsize","equaldotsize","randomdotsizeEA","equaldotsize","randomdotsizeEA","equaldotanddens","equaldotsize","randomdotsizeEA","randomdotsizeEA","equaldotanddens"],"ratio_trial":[250,900,250,750,900,250,500,900,900,750,500,500,500,250,250,900,900,900,500,900,250,750,750,900,900,500,750,900,250,250,900,750,900,250,750,250,250,750,900,250,250,750,500,750,750,900,500,500,250,250,900,500,250,900,500,500,750,500,750,500,500,750,250,250,750,750,250,250,750,750,250,250,900,750,500,500,500,500,900,750,900,900,900,750,750,250,750,500,900,500,500,250,250,750,750,500,900,900,750,750,250,900,250,750,500,500,500,250,500,250,900,750,900,900,500,500,900,500,250,750],"smaller_num":["1","18","2","6","9","2","2","18","9","12","1","2","2","3","3","9","18","9","4","9","3","6","12","9","18","9","18","9","2","2","18","3","18","6","15","2","2","3","18","6","3","3","1","6","18","18","2","1","2","2","18","10","3","9","9","6","18","1","3","3","1","9","3","6","15","6","4","6","12","3","4","6","18","3","9","9","2","9","18","3","9","18","18","15","3","3","12","6","9","1","2","3","4","15","9","2","9","9","15","18","2","18","3","3","1","6","9","3","6","4","18","3","18","18","6","2","18","4","6","6"],"larger_num":["4","20","8","8","10","8","4","20","10","16","2","4","4","12","12","10","20","10","8","10","12","8","16","10","20","18","24","10","8","8","20","4","20","24","20","8","8","4","20","24","12","4","2","8","24","20","4","2","8","8","20","20","12","10","18","12","24","2","4","6","2","12","12","24","20","8","16","24","16","4","16","24","20","4","18","18","4","18","20","4","10","20","20","20","4","12","16","12","10","2","4","12","16","20","12","4","10","10","20","24","8","20","12","4","2","12","18","12","12","16","20","4","20","20","12","4","20","8","24","8"],"correct_side":[2,1,1,1,1,1,1,2,1,2,2,1,1,2,2,2,1,2,1,1,2,2,2,2,1,2,1,1,1,1,2,1,1,2,2,1,2,2,2,1,2,1,2,2,1,2,2,2,1,1,2,2,1,1,1,1,1,2,2,2,2,2,1,2,1,2,2,2,2,1,1,1,1,2,2,1,1,1,2,1,2,1,1,1,1,1,2,1,2,2,2,1,2,1,2,1,2,2,2,1,1,2,2,1,2,1,1,1,1,1,2,2,1,1,1,2,2,1,1,1],"img_shown":["img/250/equaldotanddens/R/8_Ratio_250_L_1_R_4.png","img/900/equaldotanddens/L/2_Ratio_900_L_20_R_18.png","img/250/randomdotsizeEA/L/1_Ratio_250_L_8_R_2.png","img/750/randomdotsizeEA/L/14_Ratio_750_L_8_R_6.png","img/900/equaldotsize/L/1_Ratio_900_L_10_R_9.png","img/250/equaldotanddens/L/1_Ratio_250_L_8_R_2.png","img/500/equaldotanddens/L/5_Ratio_500_L_4_R_2.png","img/900/randomdotsizeEA/R/9_Ratio_900_L_18_R_20.png","img/900/equaldotanddens/L/1_Ratio_900_L_10_R_9.png","img/750/randomdotsizeEA/R/11_Ratio_750_L_12_R_16.png","img/500/equaldotanddens/R/12_Ratio_500_L_1_R_2.png","img/500/equaldotanddens/L/10_Ratio_500_L_4_R_2.png","img/500/randomdotsizeEA/L/5_Ratio_500_L_4_R_2.png","img/250/randomdotsizeEA/R/9_Ratio_250_L_3_R_12.png","img/250/equaldotsize/R/9_Ratio_250_L_3_R_12.png","img/900/randomdotsizeEA/R/7_Ratio_900_L_9_R_10.png","img/900/randomdotsizeEA/L/2_Ratio_900_L_20_R_18.png","img/900/equaldotanddens/R/7_Ratio_900_L_9_R_10.png","img/500/equaldotanddens/L/8_Ratio_500_L_8_R_4.png","img/900/randomdotsizeEA/L/1_Ratio_900_L_10_R_9.png","img/250/equaldotsize/R/11_Ratio_250_L_3_R_12.png","img/750/equaldotsize/R/2_Ratio_750_L_6_R_8.png","img/750/equaldotanddens/R/11_Ratio_750_L_12_R_16.png","img/900/randomdotsizeEA/R/3_Ratio_900_L_9_R_10.png","img/900/equaldotsize/L/4_Ratio_900_L_20_R_18.png","img/500/randomdotsizeEA/R/1_Ratio_500_L_9_R_18.png","img/750/equaldotsize/L/6_Ratio_750_L_24_R_18.png","img/900/equaldotanddens/L/1_Ratio_900_L_10_R_9.png","img/250/randomdotsizeEA/L/3_Ratio_250_L_8_R_2.png","img/250/equaldotsize/L/7_Ratio_250_L_8_R_2.png","img/900/equaldotanddens/R/13_Ratio_900_L_18_R_20.png","img/750/randomdotsizeEA/L/8_Ratio_750_L_4_R_3.png","img/900/equaldotsize/L/10_Ratio_900_L_20_R_18.png","img/250/randomdotsizeEA/R/6_Ratio_250_L_6_R_24.png","img/750/equaldotsize/R/4_Ratio_750_L_15_R_20.png","img/250/equaldotsize/L/1_Ratio_250_L_8_R_2.png","img/250/equaldotanddens/R/13_Ratio_250_L_2_R_8.png","img/750/equaldotanddens/R/12_Ratio_750_L_3_R_4.png","img/900/randomdotsizeEA/R/12_Ratio_900_L_18_R_20.png","img/250/equaldotanddens/L/5_Ratio_250_L_24_R_6.png","img/250/equaldotanddens/R/9_Ratio_250_L_3_R_12.png","img/750/equaldotanddens/L/8_Ratio_750_L_4_R_3.png","img/500/randomdotsizeEA/R/15_Ratio_500_L_1_R_2.png","img/750/randomdotsizeEA/R/2_Ratio_750_L_6_R_8.png","img/750/equaldotsize/L/6_Ratio_750_L_24_R_18.png","img/900/equaldotsize/R/11_Ratio_900_L_18_R_20.png","img/500/equaldotsize/R/9_Ratio_500_L_2_R_4.png","img/500/equaldotanddens/R/15_Ratio_500_L_1_R_2.png","img/250/equaldotanddens/L/1_Ratio_250_L_8_R_2.png","img/250/equaldotsize/L/7_Ratio_250_L_8_R_2.png","img/900/equaldotanddens/R/11_Ratio_900_L_18_R_20.png","img/500/randomdotsizeEA/R/3_Ratio_500_L_10_R_20.png","img/250/equaldotsize/L/14_Ratio_250_L_12_R_3.png","img/900/equaldotanddens/L/1_Ratio_900_L_10_R_9.png","img/500/equaldotsize/L/4_Ratio_500_L_18_R_9.png","img/500/equaldotsize/L/11_Ratio_500_L_12_R_6.png","img/750/equaldotsize/L/6_Ratio_750_L_24_R_18.png","img/500/equaldotsize/R/15_Ratio_500_L_1_R_2.png","img/750/equaldotsize/R/7_Ratio_750_L_3_R_4.png","img/500/equaldotanddens/R/2_Ratio_500_L_3_R_6.png","img/500/equaldotanddens/R/15_Ratio_500_L_1_R_2.png","img/750/equaldotanddens/R/15_Ratio_750_L_9_R_12.png","img/250/randomdotsizeEA/L/14_Ratio_250_L_12_R_3.png","img/250/equaldotanddens/R/6_Ratio_250_L_6_R_24.png","img/750/equaldotanddens/L/1_Ratio_750_L_20_R_15.png","img/750/randomdotsizeEA/R/2_Ratio_750_L_6_R_8.png","img/250/randomdotsizeEA/R/10_Ratio_250_L_4_R_16.png","img/250/randomdotsizeEA/R/6_Ratio_250_L_6_R_24.png","img/750/equaldotsize/R/11_Ratio_750_L_12_R_16.png","img/750/randomdotsizeEA/L/10_Ratio_750_L_4_R_3.png","img/250/randomdotsizeEA/L/2_Ratio_250_L_16_R_4.png","img/250/equaldotsize/L/5_Ratio_250_L_24_R_6.png","img/900/equaldotanddens/L/2_Ratio_900_L_20_R_18.png","img/750/randomdotsizeEA/R/12_Ratio_750_L_3_R_4.png","img/500/equaldotsize/R/1_Ratio_500_L_9_R_18.png","img/500/randomdotsizeEA/L/4_Ratio_500_L_18_R_9.png","img/500/equaldotsize/L/5_Ratio_500_L_4_R_2.png","img/500/equaldotsize/L/4_Ratio_500_L_18_R_9.png","img/900/equaldotanddens/R/14_Ratio_900_L_18_R_20.png","img/750/equaldotanddens/L/8_Ratio_750_L_4_R_3.png","img/900/randomdotsizeEA/R/15_Ratio_900_L_9_R_10.png","img/900/equaldotanddens/L/4_Ratio_900_L_20_R_18.png","img/900/equaldotsize/L/2_Ratio_900_L_20_R_18.png","img/750/equaldotanddens/L/1_Ratio_750_L_20_R_15.png","img/750/randomdotsizeEA/L/9_Ratio_750_L_4_R_3.png","img/250/equaldotanddens/L/14_Ratio_250_L_12_R_3.png","img/750/randomdotsizeEA/R/11_Ratio_750_L_12_R_16.png","img/500/equaldotanddens/L/11_Ratio_500_L_12_R_6.png","img/900/randomdotsizeEA/R/7_Ratio_900_L_9_R_10.png","img/500/equaldotsize/R/15_Ratio_500_L_1_R_2.png","img/500/randomdotsizeEA/R/9_Ratio_500_L_2_R_4.png","img/250/equaldotsize/L/14_Ratio_250_L_12_R_3.png","img/250/equaldotanddens/R/10_Ratio_250_L_4_R_16.png","img/750/randomdotsizeEA/L/1_Ratio_750_L_20_R_15.png","img/750/equaldotsize/R/15_Ratio_750_L_9_R_12.png","img/500/randomdotsizeEA/L/5_Ratio_500_L_4_R_2.png","img/900/randomdotsizeEA/R/3_Ratio_900_L_9_R_10.png","img/900/equaldotsize/R/5_Ratio_900_L_9_R_10.png","img/750/equaldotanddens/R/5_Ratio_750_L_15_R_20.png","img/750/equaldotsize/L/6_Ratio_750_L_24_R_18.png","img/250/randomdotsizeEA/L/3_Ratio_250_L_8_R_2.png","img/900/equaldotsize/R/13_Ratio_900_L_18_R_20.png","img/250/equaldotsize/R/11_Ratio_250_L_3_R_12.png","img/750/equaldotanddens/L/9_Ratio_750_L_4_R_3.png","img/500/equaldotsize/R/12_Ratio_500_L_1_R_2.png","img/500/randomdotsizeEA/L/13_Ratio_500_L_12_R_6.png","img/500/equaldotsize/L/4_Ratio_500_L_18_R_9.png","img/250/equaldotsize/L/15_Ratio_250_L_12_R_3.png","img/500/equaldotanddens/L/11_Ratio_500_L_12_R_6.png","img/250/equaldotanddens/L/2_Ratio_250_L_16_R_4.png","img/900/equaldotsize/R/14_Ratio_900_L_18_R_20.png","img/750/equaldotsize/R/12_Ratio_750_L_3_R_4.png","img/900/randomdotsizeEA/L/4_Ratio_900_L_20_R_18.png","img/900/equaldotsize/L/10_Ratio_900_L_20_R_18.png","img/500/randomdotsizeEA/L/11_Ratio_500_L_12_R_6.png","img/500/equaldotanddens/R/9_Ratio_500_L_2_R_4.png","img/900/equaldotsize/R/9_Ratio_900_L_18_R_20.png","img/500/randomdotsizeEA/L/8_Ratio_500_L_8_R_4.png","img/250/randomdotsizeEA/L/5_Ratio_250_L_24_R_6.png","img/750/equaldotanddens/L/13_Ratio_750_L_8_R_6.png"],"Rat0":[["12_Ratio_0_L_9_R_0.png","13_Ratio_0_L_6_R_0.png","5_Ratio_0_L_2_R_0.png","6_Ratio_0_L_4_R_0.png","8_Ratio_0_L_6_R_0.png"],["1_Ratio_0_L_0_R_17.png","10_Ratio_0_L_0_R_22.png","11_Ratio_0_L_0_R_1.png","14_Ratio_0_L_0_R_24.png","15_Ratio_0_L_0_R_4.png","2_Ratio_0_L_0_R_5.png","3_Ratio_0_L_0_R_17.png","4_Ratio_0_L_0_R_7.png","7_Ratio_0_L_0_R_19.png","9_Ratio_0_L_0_R_15.png"]],"Rat250":[["1_Ratio_250_L_8_R_2.png","14_Ratio_250_L_12_R_3.png","15_Ratio_250_L_12_R_3.png","2_Ratio_250_L_16_R_4.png","3_Ratio_250_L_8_R_2.png","5_Ratio_250_L_24_R_6.png","7_Ratio_250_L_8_R_2.png"],["10_Ratio_250_L_4_R_16.png","11_Ratio_250_L_3_R_12.png","12_Ratio_250_L_5_R_20.png","13_Ratio_250_L_2_R_8.png","4_Ratio_250_L_3_R_12.png","6_Ratio_250_L_6_R_24.png","8_Ratio_250_L_1_R_4.png","9_Ratio_250_L_3_R_12.png"]],"Rat500":[["10_Ratio_500_L_4_R_2.png","11_Ratio_500_L_12_R_6.png","13_Ratio_500_L_12_R_6.png","4_Ratio_500_L_18_R_9.png","5_Ratio_500_L_4_R_2.png","7_Ratio_500_L_10_R_5.png","8_Ratio_500_L_8_R_4.png"],["1_Ratio_500_L_9_R_18.png","12_Ratio_500_L_1_R_2.png","14_Ratio_500_L_5_R_10.png","15_Ratio_500_L_1_R_2.png","2_Ratio_500_L_3_R_6.png","3_Ratio_500_L_10_R_20.png","6_Ratio_500_L_9_R_18.png","9_Ratio_500_L_2_R_4.png"]],"Rat750":[["1_Ratio_750_L_20_R_15.png","10_Ratio_750_L_4_R_3.png","13_Ratio_750_L_8_R_6.png","14_Ratio_750_L_8_R_6.png","6_Ratio_750_L_24_R_18.png","8_Ratio_750_L_4_R_3.png","9_Ratio_750_L_4_R_3.png"],["11_Ratio_750_L_12_R_16.png","12_Ratio_750_L_3_R_4.png","15_Ratio_750_L_9_R_12.png","2_Ratio_750_L_6_R_8.png","3_Ratio_750_L_15_R_20.png","4_Ratio_750_L_15_R_20.png","5_Ratio_750_L_15_R_20.png","7_Ratio_750_L_3_R_4.png"]],"Rat900":[["1_Ratio_900_L_10_R_9.png","10_Ratio_900_L_20_R_18.png","2_Ratio_900_L_20_R_18.png","4_Ratio_900_L_20_R_18.png","8_Ratio_900_L_20_R_18.png"],["11_Ratio_900_L_18_R_20.png","12_Ratio_900_L_18_R_20.png","13_Ratio_900_L_18_R_20.png","14_Ratio_900_L_18_R_20.png","15_Ratio_900_L_9_R_10.png","3_Ratio_900_L_9_R_10.png","5_Ratio_900_L_9_R_10.png","6_Ratio_900_L_9_R_10.png","7_Ratio_900_L_9_R_10.png","9_Ratio_900_L_18_R_20.png"]],"Rat1000":[["10_Ratio_1000_L_16_R_16.png","11_Ratio_1000_L_6_R_6.png","12_Ratio_1000_L_14_R_14.png","13_Ratio_1000_L_20_R_20.png","15_Ratio_1000_L_15_R_15.png","2_Ratio_1000_L_17_R_17.png","4_Ratio_1000_L_9_R_9.png","5_Ratio_1000_L_6_R_6.png","6_Ratio_1000_L_19_R_19.png","8_Ratio_1000_L_14_R_14.png","9_Ratio_1000_L_25_R_25.png"],["1_Ratio_1000_L_1_R_1.png","14_Ratio_1000_L_17_R_17.png","3_Ratio_1000_L_17_R_17.png","7_Ratio_1000_L_6_R_6.png"]]}},{"start_time":1551881558941,"click_time":1551881559947,"finger_time":1551881559387,"fix_duration":991.6577323417536,"trial":1,"RT":446,"MT":560,"sideResp":2,"stimulus":"img/900/equaldotanddens/L/2_Ratio_900_L_20_R_18.png","xmouse":[798,798,798,798,798,798,798,798,798,798,798,798,798,798,798,798,798,798,798,798,797,802,831,859,894,937,971,1035,1035,1035,1035,1035,1035,1035,1035,1035,1035,1035,1035,1035,1035,1035,1035,1035,1035,1035,1035,1035,1035,1035,1119],"ymouse":[520,520,520,520,520,520,520,520,520,520,520,520,520,520,520,520,520,520,520,520,520,510,460,410,346,271,193,17,17,17,17,17,17,17,17,17,17,17,17,17,17,17,17,17,17,17,17,17,17,17,2],"timestamp_mouse":[9,38,46,68,86,106,127,147,167,186,207,227,247,268,287,306,326,347,367,386,407,426,446,466,487,507,528,547,568,587,606,627,646,666,686,707,727,746,766,786,807,827,847,867,887,907,928,947,968,986,1006],"xSR":741.5,"ySR":470.6,"xT1":424.9,"yT1":0,"xT2":1058.1,"yT2":0,"toosoon":0,"cond_shown":"equaldotanddens","ratio_trial":900,"smaller_num":"18","larger_num":"20","correct_side":1,"subjID":"leidysofiacharcasrodriguez26","gender":"0","age":"11","school":"6"},{"start_time":1551881562239,"click_time":1551881564089,"finger_time":1551881563507,"fix_duration":250.66328943838712,"trial":2,"RT":1268,"MT":582,"sideResp":1,"stimulus":"img/250/randomdotsizeEA/L/1_Ratio_250_L_8_R_2.png","xmouse":[795,795,795,795,795,795,795,795,795,795,795,795,795,795,795,795,795,795,787,772,763,760,759,759,759,759,759,758,758,758,758,758,758,758,758,758,758,758,758,758,758,758,758,758,758,758,758,758,758,758,758,758,758,758,758,758,758,758,758,758,758,758,758,756,737,711,698,698,698,698,698,698,698,698,698,698,302,296,301,308,313,315,319,325,334,345,354,357,357,363,374,392,435],"ymouse":[522,522,522,522,522,522,522,522,522,522,522,522,522,522,522,522,522,522,523,522,522,522,522,522,522,522,522,522,522,522,522,522,522,522,522,522,522,522,522,522,522,522,522,522,522,522,522,522,522,522,522,522,522,522,522,522,522,522,522,522,522,522,520,452,317,152,62,62,62,62,62,62,62,62,62,62,29,111,140,156,161,161,161,153,144,127,108,94,75,62,51,41,37],"timestamp_mouse":[10,37,48,70,89,109,128,149,168,190,209,229,250,270,289,309,330,349,368,389,409,428,449,470,488,509,528,549,568,588,610,629,648,670,690,709,730,750,770,788,808,829,848,868,889,908,929,949,970,990,1010,1029,1049,1068,1088,1109,1129,1148,1168,1189,1208,1229,1248,1268,1290,1310,1329,1349,1368,1389,1410,1429,1449,1468,1490,1509,1528,1549,1568,1588,1610,1629,1649,1668,1689,1709,1728,1749,1769,1789,1808,1829,1850],"xSR":741.5,"ySR":470.6,"xT1":424.9,"yT1":0,"xT2":1058.1,"yT2":0,"toosoon":0,"cond_shown":"randomdotsizeEA","ratio_trial":250,"smaller_num":"2","larger_num":"8","correct_side":1,"subjID":"leidysofiacharcasrodriguez26","gender":"0","age":"11","school":"6"},{"start_time":1551881569370,"click_time":1551881569908,"finger_time":1551881569749,"fix_duration":781.4665962409194,"trial":3,"RT":379,"MT":159,"sideResp":1,"stimulus":"img/750/randomdotsizeEA/L/14_Ratio_750_L_8_R_6.png","xmouse":[797,797,797,797,797,797,797,797,797,797,797,797,797,797,796,794,786,778,770,759,745,705,663,616,567,517,466],"ymouse":[498,498,498,498,498,498,498,498,498,498,498,498,498,497,496,494,484,477,470,462,452,422,373,310,241,173,81],"timestamp_mouse":[18,39,58,78,98,119,139,158,178,197,219,238,259,277,297,318,338,357,379,398,417,438,457,477,498,518,538],"xSR":741.5,"ySR":470.6,"xT1":424.9,"yT1":0,"xT2":1058.1,"yT2":0,"toosoon":0,"cond_shown":"randomdotsizeEA","ratio_trial":750,"smaller_num":"6","larger_num":"8","correct_side":1,"subjID":"leidysofiacharcasrodriguez26","gender":"0","age":"11","school":"6"},{"start_time":1551881582216,"click_time":1551881584988,"finger_time":1551881584487,"fix_duration":806.0538779990707,"trial":4,"RT":2271,"MT":501,"sideResp":1,"stimulus":"img/900/equaldotsize/L/1_Ratio_900_L_10_R_9.png","xmouse":[808,808,808,808,808,808,808,808,808,808,808,808,808,808,808,808,808,808,808,808,808,808,808,808,808,808,808,808,808,808,808,808,808,808,808,808,808,808,808,808,808,808,808,808,808,808,808,808,808,808,808,808,808,808,808,808,808,808,808,808,807,799,797,796,796,796,796,796,796,795,794,793,793,792,790,790,787,787,787,787,787,787,787,787,787,787,787,787,787,787,787,787,787,787,787,787,787,787,787,787,787,787,787,787,787,787,787,787,787,785,783,771,754,740,716,672,579,523,458,415,378,358,358,358,358,358,358,358,358,358,358,358,358,358,352,363,393,417,440],"ymouse":[529,529,529,529,529,529,529,529,529,529,529,529,529,529,529,529,529,529,529,529,529,529,529,529,529,529,529,529,529,529,529,529,529,529,529,529,529,529,529,529,529,529,529,529,529,529,529,529,529,529,529,529,529,529,529,529,529,529,529,529,529,529,529,528,528,528,528,528,528,525,523,522,522,521,519,518,514,514,514,514,514,514,514,514,514,514,514,514,514,514,514,514,514,514,514,514,514,514,514,514,514,514,514,514,514,514,514,514,514,512,511,498,481,469,447,404,299,239,182,135,59,1,1,1,1,1,1,1,1,1,1,1,1,1,9,26,51,57,60],"timestamp_mouse":[12,41,51,73,91,113,132,152,172,193,213,232,252,272,292,313,332,352,371,392,412,432,451,473,492,512,531,552,572,592,611,631,651,672,693,713,732,752,771,792,812,832,853,872,892,912,932,951,972,991,1012,1031,1052,1072,1093,1111,1133,1151,1173,1191,1212,1231,1252,1272,1293,1311,1332,1351,1372,1392,1411,1432,1452,1472,1491,1512,1532,1552,1572,1592,1613,1631,1652,1673,1691,1711,1733,1751,1772,1792,1812,1832,1852,1873,1892,1911,1931,1953,1973,1992,2012,2033,2052,2072,2091,2112,2133,2153,2173,2192,2212,2232,2252,2271,2292,2312,2332,2351,2372,2392,2411,2431,2452,2471,2492,2512,2532,2552,2572,2592,2612,2632,2651,2672,2692,2712,2733,2752,2772],"xSR":741.5,"ySR":470.6,"xT1":424.9,"yT1":0,"xT2":1058.1,"yT2":0,"toosoon":0,"cond_shown":"equaldotsize","ratio_trial":900,"smaller_num":"9","larger_num":"10","correct_side":1,"subjID":"leidysofiacharcasrodriguez26","gender":"0","age":"11","school":"6"},{"start_time":1551881587569,"click_time":1551881588148,"finger_time":1551881588069,"fix_duration":1320.4892567941756,"trial":5,"RT":500,"MT":79,"sideResp":1,"stimulus":"img/250/equaldotanddens/L/1_Ratio_250_L_8_R_2.png","xmouse":[806,806,806,806,806,806,806,806,806,806,806,806,806,806,806,806,806,806,806,806,806,806,806,802,776,746,690,620,501],"ymouse":[497,497,497,497,497,497,497,497,497,497,497,497,497,497,497,497,497,497,497,497,497,497,497,492,463,417,335,230,51],"timestamp_mouse":[18,39,58,79,99,120,138,160,180,198,218,240,259,278,300,320,338,360,379,399,418,439,458,478,500,518,538,558,579],"xSR":741.5,"ySR":470.6,"xT1":424.9,"yT1":0,"xT2":1058.1,"yT2":0,"toosoon":0,"cond_shown":"equaldotanddens","ratio_trial":250,"smaller_num":"2","larger_num":"8","correct_side":1,"subjID":"leidysofiacharcasrodriguez26","gender":"0","age":"11","school":"6"},{"start_time":1551881596067,"click_time":1551881600247,"finger_time":1551881599067,"fix_duration":638.6934854192924,"trial":6,"RT":3000,"MT":1180,"sideResp":1,"stimulus":"img/500/equaldotanddens/L/5_Ratio_500_L_4_R_2.png","xmouse":[799,799,799,799,799,799,799,799,799,799,799,799,799,799,799,799,799,799,799,799,799,799,799,799,799,799,799,799,799,799,799,799,799,799,799,799,799,799,799,799,799,799,799,799,799,799,799,799,799,799,799,799,799,799,799,800,801,801,802,802,802,802,802,802,801,797,796,796,795,795,795,795,795,795,795,795,795,795,795,795,795,795,795,795,796,796,796,796,796,796,796,796,796,796,796,796,796,796,794,793,791,790,790,790,790,790,790,788,788,788,787,787,787,787,787,787,787,787,787,787,787,787,787,786,785,785,785,785,785,785,785,785,785,785,785,785,785,785,785,784,784,784,784,784,784,784,781,778,772,761,747,675,632,597,584,589,596,603,605,605,605,605,605,605,605,605,605,605,604,591,574,538,526,524,524,524,524,524,524,524,524,524,524,524,524,524,524,523,523,522,522,521,521,521,521,521,521,521,520,520,515,511,504,490,483,470,464,458,452,444],"ymouse":[495,493,492,492,490,490,490,490,490,490,490,490,490,490,489,488,488,488,488,488,488,488,488,488,488,488,488,488,488,488,488,488,488,488,488,488,488,488,488,488,488,488,488,488,488,488,488,488,488,488,488,488,488,488,488,488,488,488,488,488,488,488,488,489,490,493,495,497,498,498,498,498,498,498,498,498,498,498,498,499,499,500,502,502,502,502,502,502,502,502,502,502,502,502,502,502,502,502,502,502,501,501,501,501,501,501,501,501,501,501,501,501,501,501,501,501,501,501,501,501,501,501,501,501,501,501,501,501,501,501,501,501,501,501,501,501,501,501,501,501,501,501,501,501,501,500,498,496,490,479,462,378,339,309,293,265,256,253,252,252,252,252,252,252,252,252,252,252,252,251,248,238,234,234,234,234,234,234,234,234,234,234,234,234,234,234,234,233,233,233,233,233,233,233,233,233,233,233,232,232,225,218,205,181,167,145,132,118,102,82],"timestamp_mouse":[9,21,50,60,81,100,122,140,160,180,201,221,242,261,280,300,320,340,361,381,400,421,440,460,481,501,520,540,561,580,601,621,640,662,682,701,722,740,761,781,801,821,840,860,881,902,921,942,961,981,1002,1021,1041,1062,1080,1100,1122,1142,1162,1181,1201,1221,1241,1261,1281,1301,1320,1342,1361,1381,1401,1422,1440,1462,1480,1502,1521,1542,1562,1580,1600,1621,1641,1660,1681,1702,1721,1741,1762,1781,1800,1821,1842,1860,1881,1900,1921,1942,1961,1981,2002,2021,2040,2060,2082,2100,2121,2141,2161,2182,2202,2222,2241,2261,2282,2301,2321,2342,2361,2381,2402,2422,2442,2461,2480,2501,2520,2541,2561,2581,2601,2621,2642,2660,2681,2702,2721,2741,2762,2780,2801,2821,2842,2861,2881,2901,2922,2940,2961,2981,3000,3020,3040,3060,3081,3102,3121,3141,3160,3180,3201,3222,3241,3260,3280,3302,3320,3340,3361,3381,3401,3422,3441,3460,3480,3501,3521,3541,3561,3580,3602,3620,3641,3660,3680,3702,3721,3741,3761,3780,3800,3820,3841,3860,3880,3901,3922,3941,3961,3980,4001,4021,4041,4060,4081,4102,4120,4140,4161,4180],"xSR":741.5,"ySR":470.6,"xT1":424.9,"yT1":0,"xT2":1058.1,"yT2":0,"toosoon":0,"cond_shown":"equaldotanddens","ratio_trial":500,"smaller_num":"2","larger_num":"4","correct_side":1,"subjID":"leidysofiacharcasrodriguez26","gender":"0","age":"11","school":"6"},{"start_time":1551881602842,"click_time":1551881603907,"finger_time":1551881603807,"fix_duration":552.0147796089839,"trial":7,"RT":965,"MT":100,"sideResp":2,"stimulus":"img/900/randomdotsizeEA/R/9_Ratio_900_L_18_R_20.png","xmouse":[785,785,785,785,785,785,785,785,786,786,786,786,786,786,786,786,786,786,786,786,786,786,786,786,786,786,786,786,786,786,786,786,786,786,786,786,786,786,786,786,786,786,786,786,786,786,787,799,828,873,928,1001,1113,1118],"ymouse":[535,535,535,535,535,535,535,534,533,533,533,533,533,533,533,533,533,533,533,533,533,533,533,533,533,533,533,533,533,533,533,533,533,533,533,533,533,533,533,533,533,533,533,533,533,533,528,493,433,370,308,234,103,82],"timestamp_mouse":[9,25,45,65,87,105,125,146,166,187,207,227,246,267,285,305,327,345,367,386,407,426,446,465,485,507,526,547,566,585,607,626,646,666,685,706,727,747,765,787,807,826,847,865,885,905,926,945,965,986,1006,1026,1046,1065],"xSR":741.5,"ySR":470.6,"xT1":424.9,"yT1":0,"xT2":1058.1,"yT2":0,"toosoon":0,"cond_shown":"randomdotsizeEA","ratio_trial":900,"smaller_num":"18","larger_num":"20","correct_side":2,"subjID":"leidysofiacharcasrodriguez26","gender":"0","age":"11","school":"6"},{"start_time":1551881605520,"click_time":1551881606389,"finger_time":1551881606267,"fix_duration":250,"trial":8,"RT":747,"MT":122,"sideResp":2,"stimulus":"img/900/equaldotanddens/L/1_Ratio_900_L_10_R_9.png","xmouse":[763,763,763,763,763,763,763,763,763,763,763,763,763,763,763,763,763,763,764,763,763,763,763,763,763,763,763,763,763,763,763,763,763,763,771,781,813,843,982,1051,1095,1106,1106,1106],"ymouse":[536,536,536,536,536,536,536,536,536,536,536,536,536,536,536,536,536,536,543,543,543,543,543,543,543,543,543,543,543,543,543,543,543,543,526,513,476,440,275,192,136,111,101,98],"timestamp_mouse":[9,31,47,67,89,109,128,148,168,188,209,227,249,269,288,307,327,349,368,389,407,427,449,469,489,509,527,549,567,588,608,627,647,668,687,707,728,747,767,787,807,828,847,868],"xSR":741.5,"ySR":470.6,"xT1":424.9,"yT1":0,"xT2":1058.1,"yT2":0,"toosoon":0,"cond_shown":"equaldotanddens","ratio_trial":900,"smaller_num":"9","larger_num":"10","correct_side":1,"subjID":"leidysofiacharcasrodriguez26","gender":"0","age":"11","school":"6"},{"start_time":1551881608346,"click_time":1551881609707,"finger_time":1551881609168,"fix_duration":635.9646458663879,"trial":9,"RT":822,"MT":539,"sideResp":2,"stimulus":"img/750/randomdotsizeEA/R/11_Ratio_750_L_12_R_16.png","xmouse":[793,793,793,793,793,793,793,793,793,793,793,793,793,793,793,793,793,793,793,793,793,793,793,793,793,793,793,793,793,793,793,793,793,793,793,793,793,793,793,793,793,805,864,911,958,992,1010,1011,1011,1014,1019,1027,1036,1047,1050,1051,1052,1052,1052,1052,1052,1052,1052,1052,1052,1052,1053,1055,1062],"ymouse":[518,518,518,518,518,518,518,518,518,518,518,518,518,518,518,518,518,518,518,518,518,518,518,518,518,518,518,518,518,518,518,518,518,518,518,518,518,518,505,490,473,449,386,343,253,204,144,104,93,86,76,66,52,25,15,11,9,9,9,9,9,9,9,9,9,10,12,16,31],"timestamp_mouse":[10,21,41,62,82,102,123,141,161,181,201,222,241,262,282,301,322,342,362,382,401,422,442,462,482,502,522,542,562,582,603,623,641,663,681,701,723,741,762,782,802,822,843,862,881,902,922,943,961,981,1002,1021,1042,1061,1082,1102,1122,1142,1162,1182,1202,1222,1242,1261,1281,1302,1322,1342,1361],"xSR":741.5,"ySR":470.6,"xT1":424.9,"yT1":0,"xT2":1058.1,"yT2":0,"toosoon":0,"cond_shown":"randomdotsizeEA","ratio_trial":750,"smaller_num":"12","larger_num":"16","correct_side":2,"subjID":"leidysofiacharcasrodriguez26","gender":"0","age":"11","school":"6"},{"start_time":1551881616079,"click_time":1551881617009,"finger_time":1551881616808,"fix_duration":250,"trial":10,"RT":729,"MT":201,"sideResp":2,"stimulus":"img/500/equaldotanddens/R/12_Ratio_500_L_1_R_2.png","xmouse":[803,803,803,803,803,803,803,803,803,803,803,803,803,803,803,803,803,803,803,803,803,803,803,803,803,803,803,803,803,803,803,803,801,799,799,804,831,921,986,1044,1078,1097,1129,1146,1157,1160,1157],"ymouse":[539,539,539,539,539,539,539,539,539,539,539,539,539,539,539,539,539,539,539,539,539,539,539,539,539,539,539,539,539,539,539,539,533,519,490,476,417,330,286,244,217,200,156,135,115,103,74],"timestamp_mouse":[19,48,60,69,90,108,129,148,170,190,208,229,248,269,289,310,329,349,368,389,410,429,448,469,489,509,529,550,570,589,609,629,648,669,689,708,729,749,768,789,809,830,848,869,888,909,930],"xSR":741.5,"ySR":470.6,"xT1":424.9,"yT1":0,"xT2":1058.1,"yT2":0,"toosoon":0,"cond_shown":"equaldotanddens","ratio_trial":500,"smaller_num":"1","larger_num":"2","correct_side":2,"subjID":"leidysofiacharcasrodriguez26","gender":"0","age":"11","school":"6"},{"start_time":1551881619374,"click_time":1551881620527,"finger_time":1551881620008,"fix_duration":885.0658225244184,"trial":11,"RT":634,"MT":519,"sideResp":1,"stimulus":"img/500/equaldotanddens/L/10_Ratio_500_L_4_R_2.png","xmouse":[778,778,778,778,778,778,778,778,778,778,778,778,778,778,778,778,778,778,778,778,778,778,778,778,778,778,778,778,778,776,771,762,739,725,709,700,693,678,673,668,665,660,634,617,598,576,556,512,476,463,459,457,457,457,468,482,486,490],"ymouse":[512,512,512,512,512,512,512,512,512,512,512,512,512,512,512,512,512,512,512,512,512,512,512,512,512,512,512,512,512,504,483,443,357,324,299,282,268,233,227,219,215,209,188,181,175,166,158,144,136,133,131,130,129,126,118,110,105,98],"timestamp_mouse":[13,35,54,75,93,114,135,155,174,193,215,233,254,273,295,314,333,353,374,394,414,433,454,474,494,515,533,555,574,594,613,634,653,673,694,714,734,754,774,794,813,833,854,873,895,914,933,953,973,994,1014,1035,1053,1074,1094,1114,1135,1153],"xSR":741.5,"ySR":470.6,"xT1":424.9,"yT1":0,"xT2":1058.1,"yT2":0,"toosoon":0,"cond_shown":"equaldotanddens","ratio_trial":500,"smaller_num":"2","larger_num":"4","correct_side":1,"subjID":"leidysofiacharcasrodriguez26","gender":"0","age":"11","school":"6"},{"start_time":1551881622362,"click_time":1551881623528,"finger_time":1551881623369,"fix_duration":571.3212376712366,"trial":12,"RT":1007,"MT":159,"sideResp":1,"stimulus":"img/500/randomdotsizeEA/L/5_Ratio_500_L_4_R_2.png","xmouse":[781,781,781,781,781,781,781,781,781,781,781,781,781,781,781,781,781,781,781,781,781,781,781,781,781,781,781,781,781,781,781,781,786,789,789,790,790,791,791,791,791,791,791,791,791,791,791,791,791,791,784,762,725,647,614,583,549,515,465],"ymouse":[488,488,488,488,488,488,488,488,488,488,488,488,488,488,488,488,488,488,488,488,488,488,488,488,488,488,488,488,488,488,488,488,483,478,477,474,471,471,471,471,471,471,471,471,471,471,471,471,471,471,468,460,434,363,305,242,173,119,48],"timestamp_mouse":[6,25,47,66,87,106,126,145,167,186,206,227,246,267,286,305,325,346,365,386,406,425,445,466,485,505,527,547,566,585,605,627,646,666,686,706,726,746,767,787,806,826,847,865,885,907,925,946,965,987,1007,1026,1046,1066,1086,1105,1125,1146,1166],"xSR":741.5,"ySR":470.6,"xT1":424.9,"yT1":0,"xT2":1058.1,"yT2":0,"toosoon":0,"cond_shown":"randomdotsizeEA","ratio_trial":500,"smaller_num":"2","larger_num":"4","correct_side":1,"subjID":"leidysofiacharcasrodriguez26","gender":"0","age":"11","school":"6"},{"start_time":1551881624800,"click_time":1551881625628,"finger_time":1551881625528,"fix_duration":250,"trial":13,"RT":728,"MT":100,"sideResp":2,"stimulus":"img/250/randomdotsizeEA/R/9_Ratio_250_L_3_R_12.png","xmouse":[795,795,795,795,795,795,795,795,795,795,795,795,795,795,795,795,795,795,795,795,795,795,795,795,795,795,795,795,795,795,795,795,795,795,797,800,812,851,893,955,1034,1105],"ymouse":[507,507,507,507,507,507,507,507,507,507,507,507,507,507,507,507,507,507,507,507,507,507,507,507,507,507,507,507,507,507,507,507,507,507,502,496,469,392,327,247,156,77],"timestamp_mouse":[9,36,48,69,89,109,128,148,168,188,208,228,248,269,288,308,329,348,368,388,407,427,448,468,488,509,528,549,568,588,608,629,647,668,687,708,728,748,768,788,808,828],"xSR":741.5,"ySR":470.6,"xT1":424.9,"yT1":0,"xT2":1058.1,"yT2":0,"toosoon":0,"cond_shown":"randomdotsizeEA","ratio_trial":250,"smaller_num":"3","larger_num":"12","correct_side":2,"subjID":"leidysofiacharcasrodriguez26","gender":"0","age":"11","school":"6"},{"start_time":1551881627756,"click_time":1551881628687,"finger_time":1551881628348,"fix_duration":765.5167430200071,"trial":14,"RT":592,"MT":339,"sideResp":2,"stimulus":"img/250/equaldotsize/R/9_Ratio_250_L_3_R_12.png","xmouse":[799,799,799,799,799,799,799,799,799,799,799,799,799,799,799,799,799,799,799,799,799,799,799,799,799,799,799,799,799,843,908,1004,1104,1188,1238,1238,1238,1238,1238,1237,1235,1230,1220,1209,1176,1162,1139],"ymouse":[493,493,493,493,493,493,493,493,493,493,493,493,493,493,493,493,493,493,493,493,493,493,493,493,493,493,493,490,485,422,337,239,145,72,27,25,24,24,24,24,24,24,25,28,43,51,62],"timestamp_mouse":[12,32,54,73,92,111,132,153,173,191,213,233,251,273,291,312,333,353,372,392,412,433,451,473,492,513,532,552,572,592,612,632,652,671,691,712,732,752,772,792,813,832,851,872,892,911,931],"xSR":741.5,"ySR":470.6,"xT1":424.9,"yT1":0,"xT2":1058.1,"yT2":0,"toosoon":0,"cond_shown":"equaldotsize","ratio_trial":250,"smaller_num":"3","larger_num":"12","correct_side":2,"subjID":"leidysofiacharcasrodriguez26","gender":"0","age":"11","school":"6"},{"start_time":1551881631105,"click_time":1551881632048,"finger_time":1551881631728,"fix_duration":1376.4931051565688,"trial":15,"RT":623,"MT":320,"sideResp":2,"stimulus":"img/900/randomdotsizeEA/R/7_Ratio_900_L_9_R_10.png","xmouse":[804,804,804,804,804,804,804,804,804,804,804,804,804,804,804,804,804,804,804,804,803,803,803,803,803,803,803,803,803,807,817,836,890,906,919,928,933,944,950,957,964,970,988,996,1004,1015,1038,1129],"ymouse":[526,526,526,526,526,526,526,526,526,526,526,526,526,526,526,526,526,526,526,526,526,526,526,526,526,526,526,526,523,504,480,444,371,349,331,315,304,278,271,262,255,248,226,215,199,178,142,18],"timestamp_mouse":[4,23,42,62,84,103,122,143,164,182,204,222,243,263,282,302,324,342,363,384,403,422,442,463,483,504,522,543,563,583,604,623,643,663,682,703,723,743,762,782,802,823,843,863,883,903,922,943],"xSR":741.5,"ySR":470.6,"xT1":424.9,"yT1":0,"xT2":1058.1,"yT2":0,"toosoon":0,"cond_shown":"randomdotsizeEA","ratio_trial":900,"smaller_num":"9","larger_num":"10","correct_side":2,"subjID":"leidysofiacharcasrodriguez26","gender":"0","age":"11","school":"6"},{"start_time":1551881633339,"click_time":1551881634509,"finger_time":1551881634128,"fix_duration":250,"trial":16,"RT":789,"MT":381,"sideResp":1,"stimulus":"img/900/randomdotsizeEA/L/2_Ratio_900_L_20_R_18.png","xmouse":[794,794,794,794,794,794,794,794,794,794,794,794,794,794,794,794,794,794,794,794,794,794,794,794,794,794,794,794,794,794,794,794,794,794,794,794,794,794,793,790,787,779,772,760,735,716,676,657,638,626,614,590,579,568,560,555,548,538,524],"ymouse":[502,502,502,502,502,502,502,501,501,500,500,500,500,500,500,500,500,500,500,500,500,500,500,500,500,500,500,500,500,500,500,500,500,500,500,500,496,492,481,460,436,381,342,288,219,182,132,114,103,96,93,90,90,90,90,90,90,90,88],"timestamp_mouse":[15,37,49,69,90,109,129,149,169,189,209,230,249,268,290,310,329,349,369,388,408,430,449,469,490,508,530,549,568,590,608,630,649,670,690,708,729,749,769,789,810,829,850,869,889,909,929,948,969,989,1009,1029,1049,1069,1089,1108,1129,1150,1170],"xSR":741.5,"ySR":470.6,"xT1":424.9,"yT1":0,"xT2":1058.1,"yT2":0,"toosoon":0,"cond_shown":"randomdotsizeEA","ratio_trial":900,"smaller_num":"18","larger_num":"20","correct_side":1,"subjID":"leidysofiacharcasrodriguez26","gender":"0","age":"11","school":"6"},{"start_time":1551881636589,"click_time":1551881637788,"finger_time":1551881637208,"fix_duration":1237.8745337816965,"trial":17,"RT":619,"MT":580,"sideResp":2,"stimulus":"img/900/equaldotanddens/R/7_Ratio_900_L_9_R_10.png","xmouse":[786,786,786,786,786,786,786,786,786,786,786,786,786,786,786,786,786,786,786,786,786,786,786,786,786,786,786,786,786,786,788,796,808,820,863,881,893,898,900,903,914,927,939,950,965,968,973,980,992,1015,1023,1024,1024,1026,1044,1050,1053,1054,1055,1056,1060],"ymouse":[488,488,488,488,488,488,488,488,488,488,488,488,488,488,488,488,488,488,488,488,488,488,488,488,488,488,488,488,488,488,484,469,447,420,308,263,231,210,198,185,159,134,114,97,82,80,80,78,76,68,65,64,64,64,61,59,58,57,57,56,54],"timestamp_mouse":[1,19,40,60,79,99,120,138,160,180,199,218,239,259,279,298,318,339,360,379,398,420,440,458,479,499,520,538,560,580,599,619,639,660,679,698,719,739,759,778,799,819,840,859,879,900,919,939,959,979,1000,1020,1040,1060,1078,1099,1119,1138,1158,1178,1199],"xSR":741.5,"ySR":470.6,"xT1":424.9,"yT1":0,"xT2":1058.1,"yT2":0,"toosoon":0,"cond_shown":"equaldotanddens","ratio_trial":900,"smaller_num":"9","larger_num":"10","correct_side":2,"subjID":"leidysofiacharcasrodriguez26","gender":"0","age":"11","school":"6"},{"start_time":1551881638920,"click_time":1551881640168,"finger_time":1551881639568,"fix_duration":410.0649661831439,"trial":18,"RT":648,"MT":600,"sideResp":1,"stimulus":"img/500/equaldotanddens/L/8_Ratio_500_L_8_R_4.png","xmouse":[765,765,765,765,765,765,765,765,765,765,765,765,765,765,765,765,765,765,765,765,765,765,765,765,765,765,765,765,765,761,759,749,701,681,660,636,622,593,584,579,576,574,574,568,566,562,558,528,481,422,348,304,284,285,296,312,327,348,356,363,377,393,446],"ymouse":[528,528,528,528,528,528,528,528,528,528,528,528,528,528,528,528,528,528,528,528,528,528,528,528,528,528,528,528,528,520,509,476,359,311,269,225,202,165,154,147,143,141,140,134,133,130,128,113,100,83,45,27,6,4,2,1,1,9,14,16,21,25,46],"timestamp_mouse":[9,39,47,69,88,108,128,148,168,188,207,228,247,267,288,308,327,348,368,387,409,428,449,467,489,508,528,548,568,588,607,628,648,668,687,708,728,748,767,787,807,828,848,868,887,907,928,948,969,988,1008,1027,1048,1068,1087,1109,1128,1148,1169,1188,1207,1228,1247],"xSR":741.5,"ySR":470.6,"xT1":424.9,"yT1":0,"xT2":1058.1,"yT2":0,"toosoon":0,"cond_shown":"equaldotanddens","ratio_trial":500,"smaller_num":"4","larger_num":"8","correct_side":1,"subjID":"leidysofiacharcasrodriguez26","gender":"0","age":"11","school":"6"},{"start_time":1551881643500,"click_time":1551881646348,"finger_time":1551881646028,"fix_duration":630.5013149059716,"trial":19,"RT":2528,"MT":320,"sideResp":1,"stimulus":"img/900/randomdotsizeEA/L/1_Ratio_900_L_10_R_9.png","xmouse":[816,816,816,816,816,816,816,816,816,816,816,816,816,816,816,816,816,816,816,816,816,816,816,816,816,816,816,816,815,815,815,815,815,815,815,815,815,815,815,815,815,815,815,815,815,815,815,815,815,815,815,815,815,815,815,815,815,815,815,815,815,815,815,815,815,815,815,815,815,815,815,815,815,815,815,815,812,811,809,806,806,806,805,805,805,805,805,805,805,805,805,805,805,805,805,805,805,805,805,805,805,805,805,805,805,805,805,805,805,805,805,805,805,805,805,805,805,805,805,805,805,805,805,800,775,757,742,721,705,677,663,638,596,549,504,498,495,493,489,488,488,488,488],"ymouse":[519,519,519,519,519,519,519,519,519,519,519,519,519,519,519,519,519,519,519,519,519,519,519,519,519,519,519,519,519,519,519,519,519,519,519,519,519,519,519,519,518,518,518,518,518,518,518,518,518,518,518,518,518,518,518,518,518,518,518,518,518,518,518,518,518,518,518,518,518,518,518,518,518,518,518,518,521,522,523,525,525,525,525,525,525,525,525,525,525,525,525,525,525,525,525,525,525,525,525,525,525,525,525,525,525,525,525,525,525,525,525,525,525,525,525,525,525,525,525,525,525,525,525,522,498,480,460,434,413,374,357,340,325,312,292,287,284,276,259,214,178,105,53],"timestamp_mouse":[9,39,49,68,89,107,129,148,169,189,207,228,248,267,289,309,328,348,369,388,409,428,448,468,487,508,527,549,569,589,607,628,648,668,687,708,728,748,768,787,808,827,848,868,889,909,927,948,967,989,1008,1028,1047,1069,1089,1107,1128,1149,1168,1189,1208,1229,1248,1267,1289,1307,1329,1349,1368,1389,1408,1427,1449,1467,1488,1508,1528,1548,1569,1587,1608,1629,1647,1669,1689,1709,1728,1749,1767,1789,1809,1828,1848,1868,1888,1909,1928,1949,1968,1989,2008,2028,2047,2069,2089,2108,2127,2148,2167,2189,2207,2228,2248,2268,2288,2309,2327,2347,2367,2388,2408,2427,2447,2468,2488,2508,2528,2548,2568,2588,2607,2627,2648,2668,2689,2708,2728,2748,2769,2788,2808,2828,2848],"xSR":741.5,"ySR":470.6,"xT1":424.9,"yT1":0,"xT2":1058.1,"yT2":0,"toosoon":0,"cond_shown":"randomdotsizeEA","ratio_trial":900,"smaller_num":"9","larger_num":"10","correct_side":1,"subjID":"leidysofiacharcasrodriguez26","gender":"0","age":"11","school":"6"},{"start_time":1551881648323,"click_time":1551881649028,"finger_time":1551881648827,"fix_duration":874.6962954093074,"trial":20,"RT":504,"MT":201,"sideResp":2,"stimulus":"img/250/equaldotsize/R/11_Ratio_250_L_3_R_12.png","xmouse":[786,786,786,786,786,786,786,786,786,786,786,786,786,786,786,786,786,786,786,786,786,786,785,786,796,814,831,859,930,983,1006,1020,1031,1051,1056,1065],"ymouse":[532,532,532,532,532,532,532,532,532,532,532,532,532,532,532,532,532,532,532,532,532,532,531,516,495,464,433,380,269,195,160,134,115,90,85,80],"timestamp_mouse":[10,35,44,65,85,105,126,144,166,186,206,226,246,264,286,306,326,344,365,386,406,424,444,465,485,504,525,545,565,584,604,626,645,666,685,705],"xSR":741.5,"ySR":470.6,"xT1":424.9,"yT1":0,"xT2":1058.1,"yT2":0,"toosoon":0,"cond_shown":"equaldotsize","ratio_trial":250,"smaller_num":"3","larger_num":"12","correct_side":2,"subjID":"leidysofiacharcasrodriguez26","gender":"0","age":"11","school":"6"},{"start_time":1551881649999,"click_time":1551881651069,"finger_time":1551881650468,"fix_duration":250,"trial":21,"RT":469,"MT":601,"sideResp":2,"stimulus":"img/750/equaldotsize/R/2_Ratio_750_L_6_R_8.png","xmouse":[812,812,812,812,809,808,806,805,804,804,804,804,804,804,804,804,804,804,804,804,804,806,813,826,841,846,849,850,850,850,850,850,851,853,867,900,928,972,1032,1127,1149,1153,1154,1154,1154,1154,1154,1153,1149,1144,1139,1138,1137,1137],"ymouse":[528,528,528,528,527,526,524,523,522,521,521,521,521,521,521,521,521,521,521,521,518,515,499,460,404,385,372,368,366,366,366,366,364,356,336,306,286,255,214,137,119,114,112,110,106,105,104,103,103,103,103,103,102,99],"timestamp_mouse":[8,37,48,70,89,109,129,150,170,189,209,229,249,270,290,310,330,349,370,390,409,429,449,469,490,508,528,549,568,590,610,629,649,669,690,709,729,750,769,789,809,828,848,869,890,909,928,949,969,989,1009,1029,1049,1069],"xSR":741.5,"ySR":470.6,"xT1":424.9,"yT1":0,"xT2":1058.1,"yT2":0,"toosoon":0,"cond_shown":"equaldotsize","ratio_trial":750,"smaller_num":"6","larger_num":"8","correct_side":2,"subjID":"leidysofiacharcasrodriguez26","gender":"0","age":"11","school":"6"},{"start_time":1551881654353,"click_time":1551881654908,"finger_time":1551881654829,"fix_duration":742.8866795694559,"trial":22,"RT":476,"MT":79,"sideResp":2,"stimulus":"img/750/equaldotanddens/R/11_Ratio_750_L_12_R_16.png","xmouse":[803,803,803,803,803,803,803,803,803,803,803,803,803,803,803,803,803,803,803,803,803,803,804,822,852,893,950,1099],"ymouse":[522,522,522,522,522,522,522,522,522,522,522,522,522,522,522,522,522,522,522,522,522,522,510,469,407,330,249,79],"timestamp_mouse":[15,46,56,75,95,115,135,156,174,195,215,235,255,276,295,314,335,354,374,396,415,435,455,476,495,515,534,555],"xSR":741.5,"ySR":470.6,"xT1":424.9,"yT1":0,"xT2":1058.1,"yT2":0,"toosoon":0,"cond_shown":"equaldotanddens","ratio_trial":750,"smaller_num":"12","larger_num":"16","correct_side":2,"subjID":"leidysofiacharcasrodriguez26","gender":"0","age":"11","school":"6"},{"start_time":1551881657118,"click_time":1551881657828,"finger_time":1551881657688,"fix_duration":1110.2982486259664,"trial":23,"RT":570,"MT":140,"sideResp":2,"stimulus":"img/900/randomdotsizeEA/R/3_Ratio_900_L_9_R_10.png","xmouse":[772,772,772,772,772,771,771,771,771,771,771,771,771,771,771,771,771,771,771,771,771,771,771,771,771,771,771,771,771,779,825,868,923,977,1025,1081],"ymouse":[503,503,503,503,503,501,501,501,501,501,501,501,501,501,501,501,501,501,501,501,501,501,501,501,501,496,488,473,452,424,338,275,213,162,123,79],"timestamp_mouse":[10,37,50,71,90,110,130,151,170,189,211,231,250,270,289,311,330,351,370,391,411,429,450,470,491,510,530,551,570,589,610,630,650,670,689,709],"xSR":741.5,"ySR":470.6,"xT1":424.9,"yT1":0,"xT2":1058.1,"yT2":0,"toosoon":0,"cond_shown":"randomdotsizeEA","ratio_trial":900,"smaller_num":"9","larger_num":"10","correct_side":2,"subjID":"leidysofiacharcasrodriguez26","gender":"0","age":"11","school":"6"},{"start_time":1551881659134,"click_time":1551881659928,"finger_time":1551881659608,"fix_duration":543.5579936763619,"trial":24,"RT":474,"MT":320,"sideResp":1,"stimulus":"img/900/equaldotsize/L/4_Ratio_900_L_20_R_18.png","xmouse":[765,765,765,766,766,766,766,766,766,766,766,766,766,766,766,766,766,766,766,766,766,766,766,763,754,748,742,738,728,703,679,663,651,648,646,638,620,594,564,500],"ymouse":[481,481,481,481,481,481,481,481,481,481,481,481,480,480,480,480,480,480,480,480,480,480,476,465,432,411,392,363,298,116,52,24,9,7,6,6,6,6,6,10],"timestamp_mouse":[17,41,54,74,95,114,135,155,175,194,214,234,254,273,293,315,335,353,374,394,413,434,454,474,495,514,534,554,574,594,614,634,654,675,693,714,734,754,775,794],"xSR":741.5,"ySR":470.6,"xT1":424.9,"yT1":0,"xT2":1058.1,"yT2":0,"toosoon":0,"cond_shown":"equaldotsize","ratio_trial":900,"smaller_num":"18","larger_num":"20","correct_side":1,"subjID":"leidysofiacharcasrodriguez26","gender":"0","age":"11","school":"6"},{"start_time":1551881663861,"click_time":1551881664668,"finger_time":1551881664528,"fix_duration":1251.3740291172574,"trial":25,"RT":667,"MT":140,"sideResp":2,"stimulus":"img/500/randomdotsizeEA/R/1_Ratio_500_L_9_R_18.png","xmouse":[782,782,782,782,782,782,782,782,782,782,782,782,782,782,782,782,782,782,782,782,782,782,782,782,782,782,782,782,782,782,782,782,783,802,819,845,880,928,1027,1063,1087],"ymouse":[501,501,501,501,501,501,501,501,501,501,501,501,501,501,501,501,501,501,501,501,501,501,501,501,501,501,501,501,501,501,501,499,495,460,435,397,347,286,154,107,71],"timestamp_mouse":[11,34,47,68,87,107,128,148,166,188,207,227,247,267,287,307,327,347,368,387,407,427,448,466,488,507,526,548,567,587,606,627,647,667,686,707,727,746,768,788,807],"xSR":741.5,"ySR":470.6,"xT1":424.9,"yT1":0,"xT2":1058.1,"yT2":0,"toosoon":0,"cond_shown":"randomdotsizeEA","ratio_trial":500,"smaller_num":"9","larger_num":"18","correct_side":2,"subjID":"leidysofiacharcasrodriguez26","gender":"0","age":"11","school":"6"},{"start_time":1551881665618,"click_time":1551881669828,"finger_time":1551881669508,"fix_duration":368.4199444125845,"trial":26,"RT":3890,"MT":320,"sideResp":1,"stimulus":"img/750/equaldotsize/L/6_Ratio_750_L_24_R_18.png","xmouse":[797,797,797,797,797,797,797,797,797,797,797,797,797,797,797,797,797,797,797,797,797,797,797,797,797,797,797,797,797,797,797,797,797,797,797,797,797,797,797,797,797,797,797,797,797,797,797,797,797,797,797,797,797,797,797,797,797,797,797,797,797,797,797,797,797,797,797,797,797,797,797,797,797,797,797,796,796,796,796,796,795,794,794,793,793,793,793,793,793,793,793,793,793,793,793,793,793,793,793,793,793,793,793,793,793,793,793,793,793,793,793,793,793,793,794,799,802,804,806,808,809,813,815,816,817,818,818,818,818,818,818,818,818,818,818,818,818,818,818,818,816,815,815,814,814,812,811,811,809,809,808,807,806,806,805,803,798,797,795,795,795,795,795,795,795,795,795,795,795,795,795,795,795,795,795,795,795,795,795,795,795,795,795,795,795,795,795,795,795,795,795,795,794,794,784,780,761,735,700,659,614,614,614,614,614,614,614,539,532,527,523],"ymouse":[538,538,538,538,538,538,538,538,538,538,538,538,538,538,538,538,538,538,538,538,538,538,538,538,538,538,538,538,538,538,538,538,538,538,538,538,538,538,538,538,538,538,538,538,538,538,538,538,538,538,538,538,538,538,538,538,538,538,538,538,538,538,538,538,538,538,538,538,538,538,538,538,538,538,538,538,539,539,539,539,539,540,541,541,541,541,541,541,541,541,541,541,541,541,541,541,541,541,541,541,541,541,541,541,541,541,541,541,541,541,541,541,541,538,536,522,513,504,499,494,491,483,480,477,476,473,473,473,473,473,473,473,473,473,473,473,473,473,473,478,483,488,489,491,492,497,501,503,507,508,510,512,514,515,515,517,521,522,524,525,525,525,525,525,525,525,525,525,525,525,525,525,525,525,525,525,525,525,525,525,525,525,525,525,525,525,525,525,525,525,525,525,522,514,468,415,276,197,118,63,6,6,6,6,6,6,6,3,5,8,11],"timestamp_mouse":[10,35,49,70,91,111,130,151,170,190,209,231,250,270,290,309,330,351,370,390,411,430,451,471,490,510,529,550,569,591,610,630,651,671,691,710,729,751,771,789,811,830,851,870,890,911,929,950,971,991,1010,1030,1051,1071,1090,1110,1130,1150,1171,1190,1210,1231,1250,1271,1290,1309,1331,1350,1370,1390,1409,1431,1449,1470,1490,1510,1531,1549,1570,1590,1610,1630,1651,1670,1691,1709,1729,1750,1769,1790,1811,1830,1850,1871,1889,1910,1929,1951,1971,1990,2009,2030,2051,2071,2090,2111,2130,2151,2169,2191,2210,2230,2250,2270,2290,2310,2330,2350,2369,2389,2411,2430,2450,2471,2490,2510,2530,2550,2570,2591,2609,2629,2650,2670,2689,2711,2730,2751,2771,2790,2811,2831,2849,2870,2891,2910,2930,2950,2971,2990,3010,3029,3051,3070,3090,3110,3130,3150,3170,3190,3211,3231,3249,3269,3290,3310,3331,3350,3371,3390,3410,3429,3449,3470,3490,3510,3531,3549,3570,3590,3609,3630,3650,3670,3689,3710,3729,3751,3769,3790,3810,3830,3849,3870,3890,3911,3930,3951,3970,3990,4011,4030,4049,4069,4090,4111,4130,4151,4171,4191,4210],"xSR":741.5,"ySR":470.6,"xT1":424.9,"yT1":0,"xT2":1058.1,"yT2":0,"toosoon":0,"cond_shown":"equaldotsize","ratio_trial":750,"smaller_num":"18","larger_num":"24","correct_side":1,"subjID":"leidysofiacharcasrodriguez26","gender":"0","age":"11","school":"6"},{"start_time":1551881671563,"click_time":1551881672488,"finger_time":1551881672247,"fix_duration":673.4741806316391,"trial":27,"RT":684,"MT":241,"sideResp":2,"stimulus":"img/900/equaldotanddens/L/1_Ratio_900_L_10_R_9.png","xmouse":[769,769,769,769,769,769,769,769,769,769,769,769,769,769,769,769,769,769,769,769,769,769,769,769,769,769,769,769,769,769,769,769,768,768,778,785,795,799,804,819,832,848,868,901,997,1037,1074],"ymouse":[494,494,494,494,494,494,494,494,494,494,494,494,494,494,494,494,494,494,494,494,494,494,494,494,494,494,494,494,494,494,494,494,494,492,458,438,417,408,396,362,340,314,286,248,120,72,35],"timestamp_mouse":[11,32,45,66,84,105,125,145,166,185,205,225,245,266,285,304,325,345,365,385,405,424,445,465,485,504,525,545,564,585,604,626,645,665,684,705,725,744,765,784,805,825,845,864,885,905,925],"xSR":741.5,"ySR":470.6,"xT1":424.9,"yT1":0,"xT2":1058.1,"yT2":0,"toosoon":0,"cond_shown":"equaldotanddens","ratio_trial":900,"smaller_num":"9","larger_num":"10","correct_side":1,"subjID":"leidysofiacharcasrodriguez26","gender":"0","age":"11","school":"6"},{"start_time":1551881673698,"click_time":1551881675328,"finger_time":1551881675248,"fix_duration":489.6850209984892,"trial":28,"RT":1550,"MT":80,"sideResp":1,"stimulus":"img/250/randomdotsizeEA/L/3_Ratio_250_L_8_R_2.png","xmouse":[789,789,789,789,789,789,789,789,789,789,789,789,789,789,789,789,789,789,789,789,789,789,789,789,789,789,789,789,789,788,788,788,786,786,784,784,781,775,774,773,773,773,773,773,773,773,773,773,773,773,773,773,773,773,773,773,773,773,772,771,770,770,769,769,769,769,769,769,769,769,769,769,769,769,769,769,766,722,677,612,541,488],"ymouse":[520,520,520,520,520,520,520,520,520,520,520,520,520,520,520,520,520,520,520,520,520,520,520,520,520,520,520,520,520,520,520,520,518,518,517,516,512,506,504,503,503,503,503,503,503,503,503,503,503,503,503,503,503,503,503,503,503,503,502,501,500,499,498,498,497,496,495,493,493,491,490,490,489,489,489,488,479,363,273,176,78,7],"timestamp_mouse":[10,29,49,69,90,111,130,151,171,189,210,231,250,270,290,310,329,350,370,390,410,431,450,471,490,509,530,550,571,589,610,630,650,670,689,709,730,750,770,791,810,831,851,869,891,909,929,951,970,989,1011,1030,1050,1070,1090,1111,1129,1149,1170,1191,1210,1230,1250,1270,1290,1310,1330,1350,1371,1390,1410,1431,1450,1470,1489,1510,1531,1550,1569,1590,1610,1630],"xSR":741.5,"ySR":470.6,"xT1":424.9,"yT1":0,"xT2":1058.1,"yT2":0,"toosoon":0,"cond_shown":"randomdotsizeEA","ratio_trial":250,"smaller_num":"2","larger_num":"8","correct_side":1,"subjID":"leidysofiacharcasrodriguez26","gender":"0","age":"11","school":"6"},{"start_time":1551881678730,"click_time":1551881679848,"finger_time":1551881679509,"fix_duration":281.7358483316288,"trial":29,"RT":779,"MT":339,"sideResp":1,"stimulus":"img/250/equaldotsize/L/7_Ratio_250_L_8_R_2.png","xmouse":[789,789,789,789,789,789,789,789,789,789,789,789,789,789,789,789,789,789,789,789,789,789,789,789,789,789,789,789,789,789,789,789,789,789,789,787,771,761,746,722,683,619,598,573,566,563,549,538,530,525,522,516,512,504,497,491],"ymouse":[539,539,539,539,539,539,539,539,539,539,539,539,539,539,539,539,539,539,539,539,539,539,539,539,539,539,539,539,539,539,539,539,539,539,539,539,501,478,443,392,330,256,243,229,225,222,212,205,199,193,187,167,149,125,111,98],"timestamp_mouse":[18,38,58,78,98,118,139,159,178,198,218,237,258,277,297,319,339,357,379,399,417,438,459,477,499,519,537,558,579,597,617,639,657,678,697,717,738,758,779,797,818,837,859,878,897,917,938,958,977,998,1019,1037,1057,1078,1098,1118],"xSR":741.5,"ySR":470.6,"xT1":424.9,"yT1":0,"xT2":1058.1,"yT2":0,"toosoon":0,"cond_shown":"equaldotsize","ratio_trial":250,"smaller_num":"2","larger_num":"8","correct_side":1,"subjID":"leidysofiacharcasrodriguez26","gender":"0","age":"11","school":"6"},{"start_time":1551881682334,"click_time":1551881683448,"finger_time":1551881683208,"fix_duration":265.49588244436393,"trial":30,"RT":874,"MT":240,"sideResp":2,"stimulus":"img/900/equaldotanddens/R/13_Ratio_900_L_18_R_20.png","xmouse":[787,787,787,787,787,787,787,787,787,787,787,787,787,787,787,787,787,787,787,787,787,787,787,787,787,787,787,787,787,787,787,787,787,787,787,787,787,787,787,787,787,797,809,825,843,863,903,928,951,966,980,1022,1041,1061,1077,1087],"ymouse":[518,518,518,518,518,518,518,518,518,518,518,518,518,518,518,518,518,518,518,518,518,518,518,518,518,518,518,518,518,518,518,518,518,518,518,518,518,518,518,518,518,495,474,453,428,399,334,296,265,240,218,170,148,126,106,93],"timestamp_mouse":[15,33,66,75,94,115,134,154,174,195,215,234,255,274,294,314,335,355,374,395,415,434,454,475,495,513,534,553,575,594,615,634,653,674,694,714,734,754,773,794,814,834,854,874,894,914,934,954,974,994,1014,1034,1055,1074,1094,1114],"xSR":741.5,"ySR":470.6,"xT1":424.9,"yT1":0,"xT2":1058.1,"yT2":0,"toosoon":0,"cond_shown":"equaldotanddens","ratio_trial":900,"smaller_num":"18","larger_num":"20","correct_side":2,"subjID":"leidysofiacharcasrodriguez26","gender":"0","age":"11","school":"6"},{"start_time":1551881687090,"click_time":1551881688588,"finger_time":1551881688328,"fix_duration":1219.5640680825675,"trial":31,"RT":1238,"MT":260,"sideResp":1,"stimulus":"img/750/randomdotsizeEA/L/8_Ratio_750_L_4_R_3.png","xmouse":[782,782,782,782,782,782,782,782,782,782,782,782,782,782,782,782,782,782,782,782,782,782,782,782,782,782,782,782,782,782,782,782,782,782,782,782,782,782,782,782,782,782,782,782,782,782,782,782,782,782,782,782,782,782,782,782,782,781,774,765,748,690,655,623,620,616,605,584,580,573,562,556,550,507],"ymouse":[512,512,512,512,512,512,512,512,512,512,512,512,512,512,512,512,512,512,512,512,512,512,512,512,512,512,512,512,512,512,512,512,512,512,512,512,512,512,512,512,512,512,512,512,512,512,512,512,512,512,512,512,512,512,512,512,512,512,499,478,450,386,341,281,263,249,229,203,198,187,167,155,141,95],"timestamp_mouse":[40,59,77,97,118,139,159,179,198,219,239,258,277,298,318,339,359,379,398,419,437,458,479,499,517,539,558,578,598,618,637,659,678,699,717,738,759,778,799,817,838,858,878,898,918,939,959,978,998,1018,1039,1058,1078,1099,1118,1138,1158,1178,1198,1218,1238,1258,1278,1298,1318,1338,1358,1382,1397,1418,1438,1458,1478,1498],"xSR":741.5,"ySR":470.6,"xT1":424.9,"yT1":0,"xT2":1058.1,"yT2":0,"toosoon":0,"cond_shown":"randomdotsizeEA","ratio_trial":750,"smaller_num":"3","larger_num":"4","correct_side":1,"subjID":"leidysofiacharcasrodriguez26","gender":"0","age":"11","school":"6"},{"start_time":1551881690611,"click_time":1551881691968,"finger_time":1551881691028,"fix_duration":1341.3498966552324,"trial":32,"RT":417,"MT":940,"sideResp":1,"stimulus":"img/900/equaldotsize/L/10_Ratio_900_L_20_R_18.png","xmouse":[809,809,809,809,809,809,809,809,810,811,811,811,811,811,811,811,811,811,813,815,818,821,822,824,824,824,824,824,824,824,824,824,824,824,824,824,824,824,824,824,824,824,824,824,824,824,824,824,824,824,824,824,824,758,670,562,451,348,234,225,225,232,246,288,337,378,408,431],"ymouse":[532,532,532,532,532,532,528,526,514,511,507,505,504,504,504,504,503,501,490,478,464,452,445,440,440,440,440,440,440,440,440,440,440,440,440,440,440,440,440,440,440,440,440,440,440,440,440,440,440,440,440,440,439,382,334,280,229,181,111,103,99,97,95,88,74,63,54,48],"timestamp_mouse":[16,44,58,76,97,117,138,157,177,197,218,237,257,276,298,318,337,357,377,397,417,437,457,477,497,517,537,558,577,597,617,638,657,676,697,717,738,758,777,797,817,838,857,877,897,918,937,956,978,997,1018,1037,1057,1077,1097,1117,1137,1157,1177,1197,1217,1237,1257,1276,1297,1316,1337,1357],"xSR":741.5,"ySR":470.6,"xT1":424.9,"yT1":0,"xT2":1058.1,"yT2":0,"toosoon":0,"cond_shown":"equaldotsize","ratio_trial":900,"smaller_num":"18","larger_num":"20","correct_side":1,"subjID":"leidysofiacharcasrodriguez26","gender":"0","age":"11","school":"6"},{"start_time":1551881694834,"click_time":1551881695948,"finger_time":1551881695628,"fix_duration":664.0089089121161,"trial":33,"RT":794,"MT":320,"sideResp":2,"stimulus":"img/250/randomdotsizeEA/R/6_Ratio_250_L_6_R_24.png","xmouse":[775,775,775,775,775,775,775,775,775,775,775,775,775,775,775,775,775,775,775,775,775,775,775,775,775,775,775,775,775,775,775,775,775,775,775,775,775,775,777,780,782,786,787,794,801,810,824,864,895,953,969,1011,1026,1058,1074,1086],"ymouse":[482,482,482,482,482,482,482,482,482,482,482,482,482,482,482,482,482,482,482,482,482,482,482,482,482,482,482,482,482,482,482,482,482,482,482,482,482,482,476,468,465,458,454,439,428,412,392,341,299,227,209,159,142,112,102,96],"timestamp_mouse":[14,39,54,74,94,115,134,154,175,195,214,234,254,274,295,314,334,355,373,395,415,434,455,473,495,515,534,554,574,594,614,633,655,673,695,714,733,754,774,794,814,834,854,874,894,914,934,955,974,994,1014,1034,1054,1074,1094,1114],"xSR":741.5,"ySR":470.6,"xT1":424.9,"yT1":0,"xT2":1058.1,"yT2":0,"toosoon":0,"cond_shown":"randomdotsizeEA","ratio_trial":250,"smaller_num":"6","larger_num":"24","correct_side":2,"subjID":"leidysofiacharcasrodriguez26","gender":"0","age":"11","school":"6"},{"start_time":1551881697517,"click_time":1551881698348,"finger_time":1551881698208,"fix_duration":788.382872569741,"trial":34,"RT":691,"MT":140,"sideResp":2,"stimulus":"img/750/equaldotsize/R/4_Ratio_750_L_15_R_20.png","xmouse":[795,795,795,795,795,795,795,795,795,795,795,795,795,795,795,795,795,795,795,795,795,795,795,795,795,796,796,796,796,796,796,796,797,801,844,914,967,1012,1046,1071,1077,1079],"ymouse":[518,518,518,518,518,518,518,518,518,518,518,518,518,518,518,518,518,518,518,518,518,518,518,516,512,509,509,509,508,508,508,508,506,501,445,354,287,224,177,121,102,88],"timestamp_mouse":[11,31,52,72,91,111,131,152,172,191,212,232,251,272,291,311,331,351,372,391,412,431,450,472,491,511,532,551,571,591,611,631,651,670,691,711,731,752,770,790,812,831],"xSR":741.5,"ySR":470.6,"xT1":424.9,"yT1":0,"xT2":1058.1,"yT2":0,"toosoon":0,"cond_shown":"equaldotsize","ratio_trial":750,"smaller_num":"15","larger_num":"20","correct_side":2,"subjID":"leidysofiacharcasrodriguez26","gender":"0","age":"11","school":"6"},{"start_time":1551881699439,"click_time":1551881700728,"finger_time":1551881700188,"fix_duration":250,"trial":35,"RT":749,"MT":540,"sideResp":1,"stimulus":"img/250/equaldotsize/L/1_Ratio_250_L_8_R_2.png","xmouse":[763,774,779,781,781,781,781,781,781,781,781,781,781,781,781,781,781,781,781,781,781,781,781,781,781,781,781,781,781,781,781,781,781,781,781,779,771,760,713,696,676,660,646,621,613,609,605,602,593,585,568,537,511,480,468,455,443,437,432,432,432,444,458,470,473],"ymouse":[504,504,504,504,504,504,504,504,504,504,504,504,504,504,504,504,504,504,504,504,504,504,504,504,504,504,504,504,504,504,504,504,504,504,498,495,481,463,402,384,364,339,314,279,267,261,255,250,237,230,223,212,205,184,170,157,144,136,121,121,119,115,109,101,99],"timestamp_mouse":[10,32,49,69,90,108,130,150,168,189,209,229,250,269,289,309,329,350,368,389,410,429,449,470,490,510,530,549,568,588,609,629,649,669,689,709,729,749,770,790,809,830,849,869,889,909,929,948,969,989,1008,1030,1049,1069,1089,1109,1129,1150,1170,1189,1209,1229,1249,1269,1289],"xSR":741.5,"ySR":470.6,"xT1":424.9,"yT1":0,"xT2":1058.1,"yT2":0,"toosoon":0,"cond_shown":"equaldotsize","ratio_trial":250,"smaller_num":"2","larger_num":"8","correct_side":1,"subjID":"leidysofiacharcasrodriguez26","gender":"0","age":"11","school":"6"},{"start_time":1551881702636,"click_time":1551881703509,"finger_time":1551881703148,"fix_duration":1045.367577342257,"trial":36,"RT":512,"MT":361,"sideResp":2,"stimulus":"img/250/equaldotanddens/R/13_Ratio_250_L_2_R_8.png","xmouse":[790,790,790,790,790,790,790,790,790,790,790,790,790,790,790,790,790,790,790,790,790,790,790,790,801,817,837,859,870,912,952,1013,1082,1178,1187,1188,1188,1188,1188,1188,1187,1183,1167,1133],"ymouse":[505,504,504,504,504,504,504,504,504,504,504,504,504,504,504,504,504,504,504,504,504,504,504,504,488,464,438,403,376,296,236,175,125,67,61,61,61,61,61,61,61,62,70,83],"timestamp_mouse":[17,32,55,73,91,112,133,153,173,192,211,232,253,271,293,313,333,353,372,392,411,433,453,473,492,512,531,552,572,592,612,633,651,673,692,713,733,752,772,793,813,832,852,873],"xSR":741.5,"ySR":470.6,"xT1":424.9,"yT1":0,"xT2":1058.1,"yT2":0,"toosoon":0,"cond_shown":"equaldotanddens","ratio_trial":250,"smaller_num":"2","larger_num":"8","correct_side":2,"subjID":"leidysofiacharcasrodriguez26","gender":"0","age":"11","school":"6"},{"start_time":1551881707395,"click_time":1551881708308,"finger_time":1551881708149,"fix_duration":1386.9913323496737,"trial":37,"RT":754,"MT":159,"sideResp":2,"stimulus":"img/750/equaldotanddens/R/12_Ratio_750_L_3_R_4.png","xmouse":[784,784,784,784,784,784,784,784,784,784,784,784,784,784,784,784,784,784,784,784,784,784,784,784,784,784,784,784,784,784,784,784,784,784,784,788,804,846,910,970,1027,1099,1124,1135,1140,1146],"ymouse":[524,524,524,524,524,524,524,524,524,524,524,524,524,524,524,524,524,524,524,524,524,524,524,524,524,524,524,524,524,524,524,524,524,524,524,520,507,482,443,398,347,255,214,176,137,94],"timestamp_mouse":[13,41,52,73,93,114,134,153,173,193,214,234,253,273,294,313,333,353,373,393,412,434,453,474,493,513,533,553,574,594,613,633,652,674,693,714,733,754,773,794,813,833,853,873,893,913],"xSR":741.5,"ySR":470.6,"xT1":424.9,"yT1":0,"xT2":1058.1,"yT2":0,"toosoon":0,"cond_shown":"equaldotanddens","ratio_trial":750,"smaller_num":"3","larger_num":"4","correct_side":2,"subjID":"leidysofiacharcasrodriguez26","gender":"0","age":"11","school":"6"},{"start_time":1551881710185,"click_time":1551881711648,"finger_time":1551881711368,"fix_duration":1015.5913799601758,"trial":38,"RT":1183,"MT":280,"sideResp":1,"stimulus":"img/900/randomdotsizeEA/R/12_Ratio_900_L_18_R_20.png","xmouse":[795,795,795,795,795,795,795,795,795,795,795,795,795,795,795,795,795,795,795,795,795,795,795,795,795,795,795,795,795,795,795,795,795,795,795,795,795,795,795,795,795,795,795,795,795,795,795,795,795,795,795,795,795,795,795,795,795,795,789,763,724,677,631,627,627,626,625,618,608,589,557,527,503,459],"ymouse":[543,542,538,535,534,533,532,530,530,529,528,528,528,528,528,528,528,528,528,528,528,528,528,528,528,528,528,528,528,528,528,528,528,528,528,528,528,528,528,528,528,528,528,528,528,528,528,528,528,528,528,528,528,528,528,528,528,528,499,434,350,275,211,204,203,202,199,188,180,171,157,143,127,90],"timestamp_mouse":[3,22,43,63,84,103,123,143,162,183,204,224,243,263,283,303,324,343,364,384,403,422,443,463,483,503,523,544,564,583,604,624,643,664,683,704,723,743,763,783,803,824,843,864,884,902,923,944,962,984,1003,1023,1043,1063,1084,1102,1124,1143,1163,1183,1203,1223,1244,1262,1283,1303,1323,1344,1363,1383,1403,1423,1444,1463],"xSR":741.5,"ySR":470.6,"xT1":424.9,"yT1":0,"xT2":1058.1,"yT2":0,"toosoon":0,"cond_shown":"randomdotsizeEA","ratio_trial":900,"smaller_num":"18","larger_num":"20","correct_side":2,"subjID":"leidysofiacharcasrodriguez26","gender":"0","age":"11","school":"6"},{"start_time":1551881714916,"click_time":1551881716148,"finger_time":1551881715428,"fix_duration":366.32102111835195,"trial":39,"RT":512,"MT":720,"sideResp":1,"stimulus":"img/250/equaldotanddens/L/5_Ratio_250_L_24_R_6.png","xmouse":[778,778,778,778,778,778,778,778,778,778,778,778,778,778,778,778,778,778,778,778,778,778,778,779,778,769,723,675,650,636,630,626,624,623,623,623,619,611,603,590,577,558,545,530,512,497,482,479,476,471,466,460,460,460,460,460,460,460,460,460,461,477],"ymouse":[507,507,507,507,507,507,507,507,507,507,507,507,507,507,507,507,507,507,507,507,507,507,507,503,493,464,340,230,174,149,135,125,123,122,122,122,120,116,114,114,114,113,111,109,109,109,109,108,107,105,104,102,102,102,102,102,102,102,102,101,100,95],"timestamp_mouse":[11,32,52,72,92,112,133,153,172,192,213,232,252,273,292,312,333,353,372,392,412,433,452,472,492,512,531,552,572,593,611,632,652,672,692,712,732,753,772,792,812,833,853,872,892,912,931,952,972,992,1012,1032,1051,1072,1093,1112,1132,1151,1173,1192,1213,1232],"xSR":741.5,"ySR":470.6,"xT1":424.9,"yT1":0,"xT2":1058.1,"yT2":0,"toosoon":0,"cond_shown":"equaldotanddens","ratio_trial":250,"smaller_num":"6","larger_num":"24","correct_side":1,"subjID":"leidysofiacharcasrodriguez26","gender":"0","age":"11","school":"6"},{"start_time":1551881717617,"click_time":1551881718449,"finger_time":1551881718048,"fix_duration":607.6420102592253,"trial":40,"RT":431,"MT":401,"sideResp":2,"stimulus":"img/250/equaldotanddens/R/9_Ratio_250_L_3_R_12.png","xmouse":[788,788,788,788,788,788,788,788,788,788,788,788,788,788,788,788,788,788,788,788,789,794,802,812,824,834,857,873,890,905,916,940,948,953,956,958,971,989,1019,1042,1063,1144],"ymouse":[510,510,510,510,510,510,510,510,510,510,510,510,510,510,510,510,510,510,510,510,509,462,433,403,373,350,299,271,243,221,203,175,168,164,161,159,149,140,131,120,109,76],"timestamp_mouse":[12,39,52,71,92,110,132,151,171,191,211,231,251,271,291,311,332,351,372,391,411,431,450,471,491,511,532,552,571,591,612,631,652,670,691,710,731,751,771,791,811,832],"xSR":741.5,"ySR":470.6,"xT1":424.9,"yT1":0,"xT2":1058.1,"yT2":0,"toosoon":0,"cond_shown":"equaldotanddens","ratio_trial":250,"smaller_num":"3","larger_num":"12","correct_side":2,"subjID":"leidysofiacharcasrodriguez26","gender":"0","age":"11","school":"6"},{"start_time":1551881720598,"click_time":1551881721728,"finger_time":1551881721168,"fix_duration":1369.0734547028048,"trial":41,"RT":570,"MT":560,"sideResp":1,"stimulus":"img/750/equaldotanddens/L/8_Ratio_750_L_4_R_3.png","xmouse":[807,807,807,807,807,807,807,807,807,807,807,807,807,807,807,807,807,807,807,807,807,807,807,802,794,782,766,749,732,731,731,731,731,731,731,731,731,731,731,731,729,722,705,660,633,606,585,548,535,533,533,532,530,527,526,526,523],"ymouse":[514,514,514,514,514,514,514,514,514,514,514,514,514,514,514,514,514,514,514,514,514,514,514,509,503,494,485,478,470,469,469,469,469,469,469,469,469,469,469,468,465,451,412,328,278,239,198,133,106,99,97,93,91,88,87,87,85],"timestamp_mouse":[10,30,50,70,90,109,130,150,169,190,211,230,250,269,290,311,330,351,370,390,411,430,450,470,490,510,530,551,570,590,611,630,650,670,690,711,730,749,770,790,810,830,849,869,890,910,931,951,970,990,1010,1030,1050,1069,1091,1110,1130],"xSR":741.5,"ySR":470.6,"xT1":424.9,"yT1":0,"xT2":1058.1,"yT2":0,"toosoon":0,"cond_shown":"equaldotanddens","ratio_trial":750,"smaller_num":"3","larger_num":"4","correct_side":1,"subjID":"leidysofiacharcasrodriguez26","gender":"0","age":"11","school":"6"},{"start_time":1551881722987,"click_time":1551881723908,"finger_time":1551881723628,"fix_duration":378.7110699529609,"trial":42,"RT":641,"MT":280,"sideResp":2,"stimulus":"img/500/randomdotsizeEA/R/15_Ratio_500_L_1_R_2.png","xmouse":[770,770,770,770,770,770,770,770,770,770,770,770,770,770,770,770,770,770,770,770,770,770,770,770,770,770,770,770,770,773,779,786,796,808,825,838,855,872,890,934,970,991,1006,1016,1035,1050,1069],"ymouse":[508,508,508,508,508,508,508,508,508,508,508,508,508,508,508,508,508,508,508,508,508,508,508,508,508,508,508,508,508,505,494,482,464,444,409,389,368,345,323,262,212,184,161,146,121,105,87],"timestamp_mouse":[9,21,41,66,81,101,121,142,161,182,202,221,241,262,280,301,321,341,362,381,402,421,442,461,481,501,521,541,561,581,602,621,641,661,682,701,721,741,761,781,802,821,842,861,881,902,921],"xSR":741.5,"ySR":470.6,"xT1":424.9,"yT1":0,"xT2":1058.1,"yT2":0,"toosoon":0,"cond_shown":"randomdotsizeEA","ratio_trial":500,"smaller_num":"1","larger_num":"2","correct_side":2,"subjID":"leidysofiacharcasrodriguez26","gender":"0","age":"11","school":"6"},{"start_time":1551881725722,"click_time":1551881726769,"finger_time":1551881726568,"fix_duration":1133.9911952739292,"trial":43,"RT":846,"MT":201,"sideResp":2,"stimulus":"img/750/randomdotsizeEA/R/2_Ratio_750_L_6_R_8.png","xmouse":[796,796,796,796,796,796,796,796,796,796,796,796,796,796,796,796,796,796,796,796,796,796,796,796,796,796,796,796,796,796,796,796,796,796,796,796,798,800,804,806,806,806,811,824,844,869,886,910,922,934,954,999,1091],"ymouse":[539,540,540,540,540,540,540,540,540,540,540,540,540,540,540,540,540,540,540,540,540,540,540,540,540,540,540,540,540,540,540,540,540,540,541,544,548,548,535,520,501,479,422,391,352,307,266,216,199,183,162,137,79],"timestamp_mouse":[9,26,46,66,86,106,126,146,167,186,206,225,247,265,286,307,326,346,366,386,406,427,446,467,486,506,526,546,566,586,606,625,646,666,686,706,726,745,766,786,806,826,846,865,886,906,926,947,965,986,1006,1027,1046],"xSR":741.5,"ySR":470.6,"xT1":424.9,"yT1":0,"xT2":1058.1,"yT2":0,"toosoon":0,"cond_shown":"randomdotsizeEA","ratio_trial":750,"smaller_num":"6","larger_num":"8","correct_side":2,"subjID":"leidysofiacharcasrodriguez26","gender":"0","age":"11","school":"6"},{"start_time":1551881728734,"click_time":1551881729988,"finger_time":1551881729528,"fix_duration":1145.7846630256022,"trial":44,"RT":794,"MT":460,"sideResp":1,"stimulus":"img/750/equaldotsize/L/6_Ratio_750_L_24_R_18.png","xmouse":[770,770,770,770,770,770,770,770,770,770,770,770,770,770,770,770,770,770,770,769,768,767,766,766,765,765,765,765,765,765,765,765,764,764,763,761,759,753,748,740,720,681,653,632,618,599,558,538,521,510,505,500,497,495,493,492,492,490,489,489,488,487,487],"ymouse":[540,540,540,540,540,540,540,540,540,540,540,540,540,540,540,540,540,540,540,540,540,540,540,540,540,540,540,540,540,540,540,540,540,540,538,533,527,507,491,467,430,383,350,322,298,266,220,203,189,179,170,156,152,149,147,143,141,136,130,122,110,103,84],"timestamp_mouse":[15,36,55,74,95,114,134,155,175,194,215,234,254,274,294,315,335,354,374,394,413,435,455,474,495,514,534,555,575,595,614,634,655,674,695,714,734,754,774,794,815,835,854,874,894,914,936,954,975,994,1014,1036,1054,1074,1095,1114,1135,1153,1175,1194,1215,1234,1254],"xSR":741.5,"ySR":470.6,"xT1":424.9,"yT1":0,"xT2":1058.1,"yT2":0,"toosoon":0,"cond_shown":"equaldotsize","ratio_trial":750,"smaller_num":"18","larger_num":"24","correct_side":1,"subjID":"leidysofiacharcasrodriguez26","gender":"0","age":"11","school":"6"},{"start_time":1551881731039,"click_time":1551881731888,"finger_time":1551881731728,"fix_duration":250,"trial":45,"RT":689,"MT":160,"sideResp":2,"stimulus":"img/900/equaldotsize/R/11_Ratio_900_L_18_R_20.png","xmouse":[815,814,814,814,814,814,813,812,812,812,812,812,812,812,812,812,812,812,812,812,812,812,812,812,812,812,812,812,812,812,812,812,813,820,838,855,876,931,964,1002,1033,1056,1072],"ymouse":[499,501,501,501,501,501,503,503,503,503,503,503,503,503,503,503,503,503,503,503,503,503,503,503,503,503,503,503,503,503,503,502,494,478,447,423,392,304,240,174,132,105,68],"timestamp_mouse":[10,31,62,68,89,109,129,150,168,189,209,229,250,269,289,309,330,349,370,390,408,430,450,469,490,510,530,550,568,590,609,629,648,669,689,710,729,750,770,789,809,830,848],"xSR":741.5,"ySR":470.6,"xT1":424.9,"yT1":0,"xT2":1058.1,"yT2":0,"toosoon":0,"cond_shown":"equaldotsize","ratio_trial":900,"smaller_num":"18","larger_num":"20","correct_side":2,"subjID":"leidysofiacharcasrodriguez26","gender":"0","age":"11","school":"6"},{"start_time":1551881733590,"click_time":1551881734428,"finger_time":1551881734288,"fix_duration":501.96318833135103,"trial":46,"RT":698,"MT":140,"sideResp":2,"stimulus":"img/500/equaldotsize/R/9_Ratio_500_L_2_R_4.png","xmouse":[785,785,785,785,785,785,785,786,787,787,787,787,787,787,787,787,787,787,787,787,787,787,787,787,787,787,787,786,784,780,780,786,793,800,812,828,864,922,993,1097,1113,1114],"ymouse":[555,555,555,555,555,555,546,542,541,540,540,540,540,540,540,540,540,540,540,540,540,540,540,540,540,540,539,538,536,524,516,506,500,493,466,449,422,382,313,151,104,79],"timestamp_mouse":[21,39,58,79,98,118,138,159,178,199,219,238,259,279,299,318,337,359,378,398,419,438,458,479,499,518,538,559,578,598,618,639,658,679,698,718,738,758,778,799,819,838],"xSR":741.5,"ySR":470.6,"xT1":424.9,"yT1":0,"xT2":1058.1,"yT2":0,"toosoon":0,"cond_shown":"equaldotsize","ratio_trial":500,"smaller_num":"2","larger_num":"4","correct_side":2,"subjID":"leidysofiacharcasrodriguez26","gender":"0","age":"11","school":"6"},{"start_time":1551881740065,"click_time":1551881741108,"finger_time":1551881740708,"fix_duration":1194.0354847390668,"trial":47,"RT":643,"MT":400,"sideResp":2,"stimulus":"img/500/equaldotanddens/R/15_Ratio_500_L_1_R_2.png","xmouse":[801,801,801,801,801,801,801,801,801,801,801,801,801,801,801,801,801,801,801,801,801,801,801,801,801,801,801,801,801,804,807,814,826,831,835,841,852,894,894,894,894,894,894,894,894,894,894,894,894,894,894,894,1132],"ymouse":[494,494,494,494,494,494,494,494,494,494,494,494,494,494,494,494,494,494,494,494,494,494,494,494,494,494,494,494,494,492,491,486,466,446,418,369,295,72,72,72,72,72,72,72,72,72,72,72,72,72,72,72,7],"timestamp_mouse":[9,24,43,63,84,104,122,143,163,183,204,222,243,263,284,303,323,343,362,384,404,423,444,463,483,504,523,543,563,583,604,623,643,663,683,703,724,743,762,782,803,823,844,863,883,904,923,943,964,983,1004,1023,1043],"xSR":741.5,"ySR":470.6,"xT1":424.9,"yT1":0,"xT2":1058.1,"yT2":0,"toosoon":0,"cond_shown":"equaldotanddens","ratio_trial":500,"smaller_num":"1","larger_num":"2","correct_side":2,"subjID":"leidysofiacharcasrodriguez26","gender":"0","age":"11","school":"6"},{"start_time":1551881742479,"click_time":1551881743107,"finger_time":1551881743007,"fix_duration":650.3525407567876,"trial":48,"RT":528,"MT":100,"sideResp":1,"stimulus":"img/250/equaldotanddens/L/1_Ratio_250_L_8_R_2.png","xmouse":[789,789,789,789,789,789,789,788,786,786,786,785,785,785,784,784,784,784,784,784,784,784,784,784,780,777,750,705,661,621,576,504],"ymouse":[532,532,532,532,532,532,530,530,529,529,529,528,528,528,528,528,528,528,528,528,528,528,528,528,523,516,433,344,274,207,151,66],"timestamp_mouse":[11,44,48,69,89,108,129,148,168,190,208,228,249,268,289,308,329,348,370,390,409,428,449,468,488,508,528,550,568,589,608,628],"xSR":741.5,"ySR":470.6,"xT1":424.9,"yT1":0,"xT2":1058.1,"yT2":0,"toosoon":0,"cond_shown":"equaldotanddens","ratio_trial":250,"smaller_num":"2","larger_num":"8","correct_side":1,"subjID":"leidysofiacharcasrodriguez26","gender":"0","age":"11","school":"6"},{"start_time":1551881745607,"click_time":1551881746748,"finger_time":1551881746227,"fix_duration":1337.8125886007074,"trial":49,"RT":620,"MT":521,"sideResp":1,"stimulus":"img/250/equaldotsize/L/7_Ratio_250_L_8_R_2.png","xmouse":[795,795,795,795,795,795,795,795,795,795,795,795,795,795,795,795,795,795,795,795,795,795,795,795,795,795,795,795,795,794,785,761,746,725,695,670,655,652,650,648,639,633,628,625,623,621,596,580,569,556,545,545,545,545,545,545,545,506],"ymouse":[495,495,495,495,495,495,495,495,495,495,495,495,495,495,495,495,495,495,495,495,495,495,495,495,495,495,495,495,495,494,487,460,439,404,358,324,300,290,281,270,233,215,202,192,182,167,81,48,30,12,1,1,1,1,1,1,1,4],"timestamp_mouse":[9,31,40,60,80,101,120,142,161,182,201,221,240,261,281,301,320,341,361,382,400,421,440,460,480,500,521,540,561,581,600,620,641,660,680,701,720,740,760,781,801,820,840,860,880,900,920,941,960,980,1000,1020,1040,1061,1080,1101,1120,1141],"xSR":741.5,"ySR":470.6,"xT1":424.9,"yT1":0,"xT2":1058.1,"yT2":0,"toosoon":0,"cond_shown":"equaldotsize","ratio_trial":250,"smaller_num":"2","larger_num":"8","correct_side":1,"subjID":"leidysofiacharcasrodriguez26","gender":"0","age":"11","school":"6"},{"start_time":1551881748036,"click_time":1551881748708,"finger_time":1551881748527,"fix_duration":588.3386014805036,"trial":50,"RT":491,"MT":181,"sideResp":2,"stimulus":"img/900/equaldotanddens/R/11_Ratio_900_L_18_R_20.png","xmouse":[798,798,798,798,798,798,798,798,798,798,798,798,798,798,798,798,798,798,798,798,798,798,806,819,855,888,945,987,1014,1034,1040,1047,1058,1075],"ymouse":[527,527,527,527,527,527,527,527,527,527,527,527,527,527,527,527,527,527,527,527,523,519,502,480,423,383,313,262,214,164,149,133,113,82],"timestamp_mouse":[11,31,54,72,92,112,132,151,172,191,212,232,253,271,291,311,332,351,372,392,411,432,451,472,491,511,531,552,571,591,611,631,651,671],"xSR":741.5,"ySR":470.6,"xT1":424.9,"yT1":0,"xT2":1058.1,"yT2":0,"toosoon":0,"cond_shown":"equaldotanddens","ratio_trial":900,"smaller_num":"18","larger_num":"20","correct_side":2,"subjID":"leidysofiacharcasrodriguez26","gender":"0","age":"11","school":"6"},{"start_time":1551881752107,"click_time":1551881753127,"finger_time":1551881752727,"fix_duration":1237.2024862405208,"trial":51,"RT":620,"MT":400,"sideResp":2,"stimulus":"img/500/randomdotsizeEA/R/3_Ratio_500_L_10_R_20.png","xmouse":[789,789,789,789,789,789,789,789,789,789,789,789,789,789,789,789,789,789,789,789,789,789,789,789,789,789,789,789,790,794,798,815,825,848,885,914,941,966,971,975,976,980,983,988,991,996,1008,1015,1020,1027,1048,1116],"ymouse":[511,511,511,511,511,511,511,511,511,511,511,511,511,511,511,511,511,511,511,511,511,511,511,511,511,511,511,511,498,489,474,421,397,368,337,315,292,264,252,243,235,205,189,171,152,131,93,79,69,61,50,22],"timestamp_mouse":[9,34,40,61,80,100,120,141,160,181,201,221,242,261,280,300,322,340,361,381,400,420,440,461,481,500,520,541,560,580,601,620,641,660,681,700,720,741,760,780,802,820,840,860,881,900,920,940,960,980,1001,1020],"xSR":741.5,"ySR":470.6,"xT1":424.9,"yT1":0,"xT2":1058.1,"yT2":0,"toosoon":0,"cond_shown":"randomdotsizeEA","ratio_trial":500,"smaller_num":"10","larger_num":"20","correct_side":2,"subjID":"leidysofiacharcasrodriguez26","gender":"0","age":"11","school":"6"},{"start_time":1551881755181,"click_time":1551881755949,"finger_time":1551881755687,"fix_duration":1273.5077367377269,"trial":52,"RT":506,"MT":262,"sideResp":1,"stimulus":"img/250/equaldotsize/L/14_Ratio_250_L_12_R_3.png","xmouse":[799,799,799,799,799,799,799,799,799,799,799,798,798,798,798,798,798,798,798,798,798,797,796,780,765,738,693,611,530,507,487,470,456,441,434,430,427,426,426],"ymouse":[530,530,530,530,530,530,530,530,530,530,530,530,530,530,530,530,530,530,530,530,530,530,530,512,492,461,423,365,297,274,251,229,212,182,166,148,132,110,88],"timestamp_mouse":[9,38,46,67,86,106,127,147,167,188,208,226,248,266,286,307,327,346,367,387,406,426,446,466,487,506,527,546,566,586,606,626,646,666,686,706,726,746,767],"xSR":741.5,"ySR":470.6,"xT1":424.9,"yT1":0,"xT2":1058.1,"yT2":0,"toosoon":0,"cond_shown":"equaldotsize","ratio_trial":250,"smaller_num":"3","larger_num":"12","correct_side":1,"subjID":"leidysofiacharcasrodriguez26","gender":"0","age":"11","school":"6"},{"start_time":1551881757490,"click_time":1551881758448,"finger_time":1551881757987,"fix_duration":581.25926459013,"trial":53,"RT":497,"MT":461,"sideResp":2,"stimulus":"img/900/equaldotanddens/L/1_Ratio_900_L_10_R_9.png","xmouse":[818,818,818,818,818,818,818,818,818,818,818,818,818,818,818,818,818,818,818,818,818,816,815,815,815,821,831,858,892,914,934,948,973,988,1002,1012,1016,1017,1017,1017,1018,1020,1025,1027,1032,1043,1055,1074],"ymouse":[527,527,527,527,527,527,527,527,527,527,527,527,527,527,527,527,527,527,527,527,527,525,501,475,437,396,358,287,217,175,145,124,100,94,89,86,84,84,84,84,84,84,83,83,83,81,78,75],"timestamp_mouse":[18,37,57,77,98,119,137,158,177,198,217,237,258,279,298,318,337,359,378,397,419,437,457,477,497,517,538,557,578,598,618,637,657,677,697,718,739,758,788,797,817,837,857,877,897,919,937,958],"xSR":741.5,"ySR":470.6,"xT1":424.9,"yT1":0,"xT2":1058.1,"yT2":0,"toosoon":0,"cond_shown":"equaldotanddens","ratio_trial":900,"smaller_num":"9","larger_num":"10","correct_side":1,"subjID":"leidysofiacharcasrodriguez26","gender":"0","age":"11","school":"6"},{"start_time":1551881759591,"click_time":1551881760707,"finger_time":1551881760247,"fix_duration":302.9961952935807,"trial":54,"RT":656,"MT":460,"sideResp":1,"stimulus":"img/500/equaldotsize/L/4_Ratio_500_L_18_R_9.png","xmouse":[782,782,782,782,782,782,782,782,782,782,782,782,782,782,782,782,782,782,782,782,782,782,782,782,782,782,782,782,782,782,777,772,745,722,669,618,565,471,432,408,392,385,378,378,378,378,378,378,378,378,378,378,378,378,422,435],"ymouse":[523,521,518,514,513,512,512,512,512,512,512,512,512,512,512,512,512,512,512,512,512,512,512,512,512,512,512,512,512,512,507,502,467,435,371,309,252,144,101,75,56,35,7,7,7,7,7,7,7,7,7,7,7,7,9,26],"timestamp_mouse":[17,36,56,76,96,116,137,156,176,198,216,236,256,276,296,317,336,357,378,396,416,436,456,478,496,516,537,557,577,596,616,636,656,677,697,717,736,757,777,797,816,838,857,877,896,917,937,956,977,997,1016,1036,1058,1076,1096,1116],"xSR":741.5,"ySR":470.6,"xT1":424.9,"yT1":0,"xT2":1058.1,"yT2":0,"toosoon":0,"cond_shown":"equaldotsize","ratio_trial":500,"smaller_num":"9","larger_num":"18","correct_side":1,"subjID":"leidysofiacharcasrodriguez26","gender":"0","age":"11","school":"6"},{"start_time":1551881763581,"click_time":1551881764347,"finger_time":1551881764048,"fix_duration":512.9050518879035,"trial":55,"RT":467,"MT":299,"sideResp":1,"stimulus":"img/500/equaldotsize/L/11_Ratio_500_L_12_R_6.png","xmouse":[798,798,798,798,798,798,798,798,798,798,798,798,798,798,798,798,798,798,798,797,797,795,791,749,708,661,616,583,566,546,541,536,533,531,531,530,530,526,524],"ymouse":[532,532,532,532,532,532,532,532,532,532,532,532,532,532,531,531,531,531,531,531,531,531,527,452,372,287,207,146,108,54,35,22,14,11,11,10,10,16,20],"timestamp_mouse":[12,27,47,67,87,107,126,146,166,186,206,228,246,266,287,306,326,348,366,386,406,426,447,467,486,506,526,546,566,586,606,626,646,667,686,706,726,747,766],"xSR":741.5,"ySR":470.6,"xT1":424.9,"yT1":0,"xT2":1058.1,"yT2":0,"toosoon":0,"cond_shown":"equaldotsize","ratio_trial":500,"smaller_num":"6","larger_num":"12","correct_side":1,"subjID":"leidysofiacharcasrodriguez26","gender":"0","age":"11","school":"6"},{"start_time":1551881766266,"click_time":1551881767149,"finger_time":1551881766867,"fix_duration":897.1916457148944,"trial":56,"RT":601,"MT":282,"sideResp":2,"stimulus":"img/750/equaldotsize/L/6_Ratio_750_L_24_R_18.png","xmouse":[776,776,776,776,776,776,776,776,776,776,776,776,776,776,776,776,776,776,776,776,776,776,776,776,776,776,776,776,776,781,794,802,809,823,849,964,1000,1023,1036,1044,1049,1050,1051,1055,1060],"ymouse":[494,494,494,494,494,494,494,494,494,494,494,494,494,494,494,494,494,494,494,494,494,494,494,494,494,494,494,494,491,473,425,399,375,341,289,152,120,97,82,71,63,62,57,51,43],"timestamp_mouse":[9,35,41,62,82,101,121,143,161,182,201,221,243,261,281,301,322,341,361,381,401,421,442,461,481,502,521,543,561,581,601,621,641,662,681,701,721,741,762,782,802,822,841,861,883],"xSR":741.5,"ySR":470.6,"xT1":424.9,"yT1":0,"xT2":1058.1,"yT2":0,"toosoon":0,"cond_shown":"equaldotsize","ratio_trial":750,"smaller_num":"18","larger_num":"24","correct_side":1,"subjID":"leidysofiacharcasrodriguez26","gender":"0","age":"11","school":"6"},{"start_time":1551881768637,"click_time":1551881769527,"finger_time":1551881769188,"fix_duration":607.8634251599348,"trial":57,"RT":551,"MT":339,"sideResp":2,"stimulus":"img/500/equaldotsize/R/15_Ratio_500_L_1_R_2.png","xmouse":[781,781,781,781,781,781,781,781,781,781,781,781,781,781,781,781,781,781,781,781,781,781,781,781,781,781,791,811,830,847,865,909,934,954,966,976,994,1008,1017,1026,1032,1044,1052,1063,1074],"ymouse":[507,507,507,507,507,507,507,507,507,507,507,507,507,507,507,507,507,507,507,507,507,507,507,507,507,504,483,454,432,412,391,342,318,294,272,249,212,189,177,166,159,139,122,103,86],"timestamp_mouse":[10,38,51,71,90,110,131,151,172,191,211,231,251,271,290,310,331,351,370,390,410,431,451,472,490,510,530,551,570,591,611,630,650,670,690,712,730,751,770,791,810,830,850,870,890],"xSR":741.5,"ySR":470.6,"xT1":424.9,"yT1":0,"xT2":1058.1,"yT2":0,"toosoon":0,"cond_shown":"equaldotsize","ratio_trial":500,"smaller_num":"1","larger_num":"2","correct_side":2,"subjID":"leidysofiacharcasrodriguez26","gender":"0","age":"11","school":"6"},{"start_time":1551881770406,"click_time":1551881771628,"finger_time":1551881771167,"fix_duration":255.1506458499837,"trial":58,"RT":761,"MT":461,"sideResp":2,"stimulus":"img/750/equaldotsize/R/7_Ratio_750_L_3_R_4.png","xmouse":[762,762,762,762,762,762,762,762,762,762,762,762,762,762,762,762,762,762,762,762,762,762,762,762,762,762,762,762,762,762,762,762,762,765,775,787,797,808,815,815,815,815,815,815,815,815,816,822,832,860,876,903,938,1002,1019,1032,1042,1052,1071,1075,1083,1088],"ymouse":[550,550,550,550,550,550,550,550,550,550,550,550,550,550,550,550,550,550,550,550,550,550,550,550,550,550,550,550,550,550,550,550,550,547,528,510,492,474,459,458,458,458,458,458,458,458,455,448,435,401,377,340,295,225,204,189,174,161,129,117,103,90],"timestamp_mouse":[5,21,41,63,81,101,123,142,161,181,201,221,241,261,281,301,322,342,361,383,401,422,442,462,482,503,522,542,561,582,602,622,642,662,681,702,721,742,761,781,801,822,841,862,881,901,921,941,961,982,1001,1021,1041,1061,1081,1102,1121,1142,1161,1181,1201,1222],"xSR":741.5,"ySR":470.6,"xT1":424.9,"yT1":0,"xT2":1058.1,"yT2":0,"toosoon":0,"cond_shown":"equaldotsize","ratio_trial":750,"smaller_num":"3","larger_num":"4","correct_side":2,"subjID":"leidysofiacharcasrodriguez26","gender":"0","age":"11","school":"6"},{"start_time":1551881774617,"click_time":1551881775488,"finger_time":1551881775227,"fix_duration":546.5836788910068,"trial":59,"RT":610,"MT":261,"sideResp":2,"stimulus":"img/500/equaldotanddens/R/2_Ratio_500_L_3_R_6.png","xmouse":[771,771,771,771,771,771,771,771,771,771,771,771,771,771,771,771,771,771,771,771,771,771,771,771,771,771,771,771,771,771,771,771,776,810,828,847,851,855,877,896,930,962,996,1085],"ymouse":[495,495,495,495,495,495,495,495,495,495,495,495,495,495,495,495,495,495,495,495,495,495,495,495,495,495,495,495,495,486,465,439,404,309,264,220,205,191,159,140,110,84,60,11],"timestamp_mouse":[10,36,50,70,91,110,131,150,170,191,211,230,251,272,290,310,331,350,370,390,410,430,451,470,490,510,531,550,571,590,610,630,650,670,691,710,731,750,770,790,810,830,851,870],"xSR":741.5,"ySR":470.6,"xT1":424.9,"yT1":0,"xT2":1058.1,"yT2":0,"toosoon":0,"cond_shown":"equaldotanddens","ratio_trial":500,"smaller_num":"3","larger_num":"6","correct_side":2,"subjID":"leidysofiacharcasrodriguez26","gender":"0","age":"11","school":"6"},{"start_time":1551881780423,"click_time":1551881781607,"finger_time":1551881781088,"fix_duration":735.6115043793164,"trial":60,"RT":665,"MT":519,"sideResp":2,"stimulus":"img/500/equaldotanddens/R/15_Ratio_500_L_1_R_2.png","xmouse":[774,774,774,774,774,774,774,774,774,774,774,774,774,774,774,774,774,774,774,774,774,774,774,774,774,774,774,774,774,774,774,774,783,806,815,826,840,860,881,935,965,987,999,999,999,999,999,999,999,999,999,999,999,999,999,999,999,999,999,1080],"ymouse":[554,554,554,554,554,554,554,554,554,554,554,554,554,554,554,554,554,554,554,554,554,554,554,554,554,554,554,554,554,554,551,545,516,434,399,366,324,278,234,132,79,34,6,6,6,6,6,6,6,6,6,6,6,6,6,6,6,6,6,3],"timestamp_mouse":[11,35,44,64,86,104,124,145,164,184,205,226,245,264,285,304,325,345,364,386,404,424,444,464,485,504,524,545,564,584,605,624,644,665,684,705,724,744,764,784,804,825,846,864,884,905,925,944,965,984,1005,1026,1044,1065,1084,1104,1124,1144,1166,1184],"xSR":741.5,"ySR":470.6,"xT1":424.9,"yT1":0,"xT2":1058.1,"yT2":0,"toosoon":0,"cond_shown":"equaldotanddens","ratio_trial":500,"smaller_num":"1","larger_num":"2","correct_side":2,"subjID":"leidysofiacharcasrodriguez26","gender":"0","age":"11","school":"6"},{"start_time":1551881783217,"click_time":1551881784167,"finger_time":1551881783707,"fix_duration":768.2832858160431,"trial":61,"RT":490,"MT":460,"sideResp":2,"stimulus":"img/750/equaldotanddens/R/15_Ratio_750_L_9_R_12.png","xmouse":[781,781,781,781,781,781,781,781,781,781,781,781,781,781,781,781,781,781,781,781,781,783,790,805,828,834,841,844,852,859,863,875,886,902,948,961,970,974,977,989,1006,1015,1022,1029,1038,1047,1063,1098],"ymouse":[513,513,513,513,513,513,513,513,512,509,509,509,509,509,509,509,509,509,509,509,509,505,499,486,460,448,437,430,417,405,398,379,362,342,278,259,246,238,230,208,185,171,160,151,135,124,109,84],"timestamp_mouse":[10,38,50,71,90,112,132,150,170,191,210,231,251,271,291,310,331,351,370,391,410,430,451,470,490,511,530,550,572,591,612,630,651,670,690,711,731,750,771,790,811,830,850,870,890,910,930,950],"xSR":741.5,"ySR":470.6,"xT1":424.9,"yT1":0,"xT2":1058.1,"yT2":0,"toosoon":0,"cond_shown":"equaldotanddens","ratio_trial":750,"smaller_num":"9","larger_num":"12","correct_side":2,"subjID":"leidysofiacharcasrodriguez26","gender":"0","age":"11","school":"6"},{"start_time":1551881785539,"click_time":1551881786528,"finger_time":1551881786228,"fix_duration":250,"trial":62,"RT":689,"MT":300,"sideResp":1,"stimulus":"img/250/randomdotsizeEA/L/14_Ratio_250_L_12_R_3.png","xmouse":[807,807,807,798,791,784,781,778,776,776,776,776,776,776,776,776,776,776,776,776,776,776,776,776,776,776,776,776,776,776,774,772,770,757,742,721,687,646,571,551,540,533,528,516,507,500,499,499,501,502],"ymouse":[500,500,500,505,509,511,513,513,514,514,514,514,514,514,514,514,514,514,514,514,514,514,514,514,514,514,514,514,514,514,513,510,504,477,451,421,381,337,263,241,223,210,201,168,149,133,123,116,105,94],"timestamp_mouse":[8,38,49,68,89,109,128,148,168,189,209,228,248,269,290,308,329,349,368,389,408,429,449,470,488,508,528,549,569,588,609,628,648,668,689,708,729,748,769,788,808,828,850,868,888,908,929,948,968,989],"xSR":741.5,"ySR":470.6,"xT1":424.9,"yT1":0,"xT2":1058.1,"yT2":0,"toosoon":0,"cond_shown":"randomdotsizeEA","ratio_trial":250,"smaller_num":"3","larger_num":"12","correct_side":1,"subjID":"leidysofiacharcasrodriguez26","gender":"0","age":"11","school":"6"},{"start_time":1551881788479,"click_time":1551881789288,"finger_time":1551881789027,"fix_duration":990.5696810636114,"trial":63,"RT":548,"MT":261,"sideResp":2,"stimulus":"img/250/equaldotanddens/R/6_Ratio_250_L_6_R_24.png","xmouse":[786,786,786,786,786,786,786,786,786,786,786,786,786,786,786,787,785,785,785,785,785,785,785,785,785,785,792,820,844,887,940,1008,1097,1125,1142,1151,1151,1151,1150,1149,1147],"ymouse":[501,501,501,501,501,501,501,501,501,501,501,501,501,501,501,502,503,503,503,503,503,503,503,503,503,500,486,447,424,390,349,301,209,173,146,122,115,105,103,100,96],"timestamp_mouse":[8,35,48,69,89,108,129,149,170,188,208,229,248,269,288,308,329,348,369,389,408,429,449,468,488,509,528,548,568,588,608,629,648,669,689,709,728,749,768,789,809],"xSR":741.5,"ySR":470.6,"xT1":424.9,"yT1":0,"xT2":1058.1,"yT2":0,"toosoon":0,"cond_shown":"equaldotanddens","ratio_trial":250,"smaller_num":"6","larger_num":"24","correct_side":2,"subjID":"leidysofiacharcasrodriguez26","gender":"0","age":"11","school":"6"},{"start_time":1551881790179,"click_time":1551881791027,"finger_time":1551881790908,"fix_duration":250,"trial":64,"RT":729,"MT":119,"sideResp":1,"stimulus":"img/750/equaldotanddens/L/1_Ratio_750_L_20_R_15.png","xmouse":[805,804,804,804,804,804,804,804,804,804,804,804,804,804,804,804,804,804,804,804,804,804,799,791,787,787,787,787,787,787,787,787,787,784,780,769,708,665,624,590,537,504,460],"ymouse":[549,549,549,549,549,549,549,549,549,549,549,549,549,549,549,549,549,549,549,549,549,549,550,553,553,553,553,553,553,553,553,553,553,547,530,505,408,348,292,248,171,122,50],"timestamp_mouse":[8,45,48,68,89,108,128,148,168,188,209,229,248,270,289,308,330,349,369,388,409,430,449,469,489,508,528,548,569,588,609,628,648,668,689,708,729,748,769,788,809,828,848],"xSR":741.5,"ySR":470.6,"xT1":424.9,"yT1":0,"xT2":1058.1,"yT2":0,"toosoon":0,"cond_shown":"equaldotanddens","ratio_trial":750,"smaller_num":"15","larger_num":"20","correct_side":1,"subjID":"leidysofiacharcasrodriguez26","gender":"0","age":"11","school":"6"},{"start_time":1551881793718,"click_time":1551881794427,"finger_time":1551881794327,"fix_duration":250,"trial":65,"RT":609,"MT":100,"sideResp":2,"stimulus":"img/750/randomdotsizeEA/R/2_Ratio_750_L_6_R_8.png","xmouse":[773,773,773,773,773,773,773,773,773,773,773,773,773,773,773,773,773,773,773,773,773,773,773,773,773,773,773,773,775,777,804,841,894,953,1013,1071],"ymouse":[511,511,511,511,511,511,511,511,511,511,511,511,511,511,511,511,511,511,511,511,511,511,511,511,511,511,511,511,511,510,459,400,324,235,128,34],"timestamp_mouse":[11,38,50,69,89,110,130,149,171,189,210,229,249,270,289,309,330,349,370,390,410,430,450,471,489,509,530,549,569,589,609,630,649,670,689,709],"xSR":741.5,"ySR":470.6,"xT1":424.9,"yT1":0,"xT2":1058.1,"yT2":0,"toosoon":0,"cond_shown":"randomdotsizeEA","ratio_trial":750,"smaller_num":"6","larger_num":"8","correct_side":2,"subjID":"leidysofiacharcasrodriguez26","gender":"0","age":"11","school":"6"},{"start_time":1551881797981,"click_time":1551881798908,"finger_time":1551881798547,"fix_duration":250,"trial":66,"RT":566,"MT":361,"sideResp":2,"stimulus":"img/250/randomdotsizeEA/R/10_Ratio_250_L_4_R_16.png","xmouse":[788,788,788,788,788,788,788,788,788,788,788,788,788,788,788,788,788,788,788,788,788,788,788,788,788,788,790,814,929,995,1050,1090,1107,1119,1123,1125,1125,1131,1142,1149,1151,1151,1148,1147,1144,1142,1130],"ymouse":[519,519,519,519,519,519,519,519,519,519,519,519,519,519,519,519,519,519,519,519,519,519,519,519,519,518,513,493,394,330,275,241,222,206,201,200,200,194,186,174,162,156,146,136,121,103,67],"timestamp_mouse":[9,37,46,67,86,107,127,147,167,187,207,226,246,267,286,307,326,346,366,386,406,427,447,466,487,506,526,546,566,586,606,627,646,666,686,708,727,747,766,787,806,826,848,867,887,906,927],"xSR":741.5,"ySR":470.6,"xT1":424.9,"yT1":0,"xT2":1058.1,"yT2":0,"toosoon":0,"cond_shown":"randomdotsizeEA","ratio_trial":250,"smaller_num":"4","larger_num":"16","correct_side":2,"subjID":"leidysofiacharcasrodriguez26","gender":"0","age":"11","school":"6"},{"start_time":1551881800001,"click_time":1551881800867,"finger_time":1551881800507,"fix_duration":250,"trial":67,"RT":506,"MT":360,"sideResp":2,"stimulus":"img/250/randomdotsizeEA/R/6_Ratio_250_L_6_R_24.png","xmouse":[781,781,781,781,781,781,781,781,781,781,781,781,781,781,781,781,781,781,781,781,781,781,783,788,806,820,833,869,895,918,945,968,999,1009,1018,1021,1024,1032,1033,1036,1037,1040,1069,1081],"ymouse":[501,501,501,501,501,501,501,501,501,501,501,501,501,501,501,501,501,501,501,501,501,501,499,497,482,470,451,395,359,332,309,292,267,257,247,241,236,209,196,182,173,162,115,94],"timestamp_mouse":[11,26,47,66,86,108,126,146,166,187,207,227,247,266,286,306,327,347,366,386,407,426,446,466,486,506,526,546,567,586,606,627,646,667,686,706,726,747,767,786,807,826,846,866],"xSR":741.5,"ySR":470.6,"xT1":424.9,"yT1":0,"xT2":1058.1,"yT2":0,"toosoon":0,"cond_shown":"randomdotsizeEA","ratio_trial":250,"smaller_num":"6","larger_num":"24","correct_side":2,"subjID":"leidysofiacharcasrodriguez26","gender":"0","age":"11","school":"6"},{"start_time":1551881802893,"click_time":1551881803687,"finger_time":1551881803488,"fix_duration":1424.0559005778591,"trial":68,"RT":595,"MT":199,"sideResp":2,"stimulus":"img/750/equaldotsize/R/11_Ratio_750_L_12_R_16.png","xmouse":[793,793,793,793,793,793,793,793,793,793,793,793,793,793,793,793,793,793,793,793,793,793,793,793,793,793,793,793,795,802,816,840,919,967,1016,1060,1094,1129,1133,1135],"ymouse":[516,516,516,516,516,516,516,516,516,516,516,516,516,516,516,516,516,516,516,516,516,516,516,516,515,513,512,500,485,463,431,388,285,236,194,160,135,105,100,95],"timestamp_mouse":[15,36,55,75,96,114,134,154,176,194,214,234,254,274,296,314,334,356,374,394,414,434,455,474,494,514,534,554,574,595,614,634,654,674,695,716,735,754,775,794],"xSR":741.5,"ySR":470.6,"xT1":424.9,"yT1":0,"xT2":1058.1,"yT2":0,"toosoon":0,"cond_shown":"equaldotsize","ratio_trial":750,"smaller_num":"12","larger_num":"16","correct_side":2,"subjID":"leidysofiacharcasrodriguez26","gender":"0","age":"11","school":"6"},{"start_time":1551881805778,"click_time":1551881806828,"finger_time":1551881806408,"fix_duration":1448.9856639427667,"trial":69,"RT":630,"MT":420,"sideResp":1,"stimulus":"img/750/randomdotsizeEA/L/10_Ratio_750_L_4_R_3.png","xmouse":[782,782,782,782,782,782,782,782,782,782,782,782,782,782,782,782,782,782,782,782,782,782,782,782,782,782,782,777,775,764,751,734,700,649,633,622,614,607,603,601,601,600,600,600,595,591,589,585,578,560,544,538,521],"ymouse":[507,507,507,507,507,507,507,507,507,507,507,507,507,507,507,507,507,507,507,507,507,507,507,507,507,507,507,506,505,498,489,476,447,398,375,357,341,329,322,317,317,317,314,304,267,242,218,195,177,143,118,109,85],"timestamp_mouse":[9,41,49,69,90,109,130,149,171,190,209,229,249,269,289,309,329,349,371,390,410,430,449,470,490,510,529,549,569,589,609,630,650,670,690,710,729,750,770,789,810,829,850,869,890,909,930,949,970,989,1010,1030,1050],"xSR":741.5,"ySR":470.6,"xT1":424.9,"yT1":0,"xT2":1058.1,"yT2":0,"toosoon":0,"cond_shown":"randomdotsizeEA","ratio_trial":750,"smaller_num":"3","larger_num":"4","correct_side":1,"subjID":"leidysofiacharcasrodriguez26","gender":"0","age":"11","school":"6"},{"start_time":1551881810363,"click_time":1551881811328,"finger_time":1551881811007,"fix_duration":914.8206130536219,"trial":70,"RT":644,"MT":321,"sideResp":1,"stimulus":"img/250/randomdotsizeEA/L/2_Ratio_250_L_16_R_4.png","xmouse":[773,773,773,773,773,773,773,773,773,773,773,773,773,773,773,773,773,773,773,773,773,774,774,774,774,774,774,774,774,775,771,757,744,723,701,663,654,649,648,645,625,601,587,579,577,562,537,488,439],"ymouse":[541,541,541,541,541,541,541,541,541,541,541,541,541,541,541,541,541,541,540,540,540,539,539,539,539,539,539,539,539,539,527,492,451,397,351,283,266,254,244,233,212,205,202,198,196,177,156,123,89],"timestamp_mouse":[9,37,44,66,84,104,126,145,165,184,204,224,245,266,284,304,324,344,364,385,404,424,444,465,484,504,526,544,565,585,604,625,644,664,684,704,726,745,764,785,804,826,844,864,884,904,925,944,964],"xSR":741.5,"ySR":470.6,"xT1":424.9,"yT1":0,"xT2":1058.1,"yT2":0,"toosoon":0,"cond_shown":"randomdotsizeEA","ratio_trial":250,"smaller_num":"4","larger_num":"16","correct_side":1,"subjID":"leidysofiacharcasrodriguez26","gender":"0","age":"11","school":"6"},{"start_time":1551881812513,"click_time":1551881815127,"finger_time":1551881813089,"fix_duration":285.8911907025,"trial":71,"RT":576,"MT":2038,"sideResp":1,"stimulus":"img/250/equaldotsize/L/5_Ratio_250_L_24_R_6.png","xmouse":[790,790,790,790,790,790,790,790,790,790,790,790,790,790,790,790,790,790,790,790,790,790,790,790,790,790,788,775,763,750,739,734,730,730,730,730,730,730,730,730,730,729,729,730,732,734,736,741,743,743,744,7