[{"start_time":1551900533834,"click_time":1551900535217,"finger_time":1551900534956,"fix_duration":973.1091294631628,"trial":0,"RT":1122,"MT":261,"sideResp":2,"stimulus":"img/250/equaldotsize/R/6_Ratio_250_L_6_R_24.png","xmouse":[770,770,770,770,770,770,770,770,770,770,770,770,770,770,770,770,770,770,770,770,770,770,770,770,770,770,770,770,770,770,770,770,770,770,770,770,770,770,770,770,770,770,770,770,770,770,770,770,770,770,770,770,770,770,776,789,850,871,899,914,958,1001,1010,1017,1019,1019,1023,1033,1049,1073],"ymouse":[510,510,510,510,510,510,510,510,510,510,510,510,510,510,510,510,510,510,510,510,510,510,510,510,510,510,510,510,510,510,510,510,510,510,510,510,510,510,510,510,510,510,510,510,510,510,510,510,510,510,510,510,510,510,505,492,408,376,326,297,212,136,114,93,77,65,51,45,37,27],"timestamp_mouse":[9,23,42,62,82,103,122,143,163,183,202,222,242,262,282,303,323,342,362,383,402,423,443,462,483,502,522,543,562,582,602,623,642,663,683,702,722,743,762,783,803,823,842,862,883,902,923,943,963,982,1002,1022,1043,1063,1083,1103,1122,1142,1163,1182,1203,1222,1242,1262,1283,1302,1323,1343,1363,1383],"xSR":741.5,"ySR":469.95,"xT1":424.9,"yT1":0,"xT2":1058.1,"yT2":0,"toosoon":0,"cond_shown":"equaldotsize","ratio_trial":250,"smaller_num":"6","larger_num":"24","correct_side":2,"subjID":"LennyAndresRodriguezOtalora31","gender":"0","age":"11","school":"6","test":{"fix_dur":[250,1500],"timestim":300,"targets_dim":[100,100],"targets_relative_coord":[0.3,0.7],"size_stim":[880,420],"start_dim":[100,100],"size_start":[300,300],"size_fix":60,"samplingrate":20,"img_types":["equaldotsize","equaldotanddens","randomdotsizeEA"],"ratios":[250,500,750,900],"rep_conds":9,"nTrials":120,"trials_to_rest":500,"Trials_order":[24,57,1,36,76,78,90,53,6,22,26,11,7,95,114,25,62,85,64,93,5,71,105,106,30,113,98,92,13,103,86,80,33,104,102,108,56,54,101,68,15,40,10,46,2,96,77,29,94,21,32,39,119,65,116,37,82,48,51,99,34,12,4,72,66,45,109,69,8,23,38,17,67,31,88,35,27,87,9,100,81,83,111,50,60,61,117,91,75,115,70,43,58,107,20,79,73,41,74,63,14,19,3,112,0,16,84,59,118,89,55,44,52,42,28,97,110,47,49,18],"cond_shown":["equaldotsize","equaldotsize","equaldotanddens","equaldotsize","equaldotanddens","equaldotsize","equaldotsize","randomdotsizeEA","equaldotsize","equaldotanddens","randomdotsizeEA","randomdotsizeEA","equaldotanddens","randomdotsizeEA","equaldotsize","equaldotanddens","randomdotsizeEA","equaldotanddens","equaldotanddens","equaldotsize","randomdotsizeEA","randomdotsizeEA","equaldotsize","equaldotanddens","equaldotsize","randomdotsizeEA","randomdotsizeEA","randomdotsizeEA","equaldotanddens","equaldotanddens","randomdotsizeEA","randomdotsizeEA","equaldotsize","randomdotsizeEA","equaldotsize","equaldotsize","randomdotsizeEA","equaldotsize","randomdotsizeEA","randomdotsizeEA","equaldotsize","equaldotanddens","equaldotanddens","equaldotanddens","randomdotsizeEA","equaldotsize","randomdotsizeEA","randomdotsizeEA","equaldotanddens","equaldotsize","randomdotsizeEA","equaldotsize","randomdotsizeEA","randomdotsizeEA","randomdotsizeEA","equaldotanddens","equaldotanddens","equaldotsize","equaldotsize","equaldotsize","equaldotanddens","equaldotsize","equaldotanddens","equaldotsize","equaldotsize","equaldotsize","equaldotanddens","equaldotsize","randomdotsizeEA","randomdotsizeEA","randomdotsizeEA","randomdotsizeEA","equaldotanddens","equaldotanddens","equaldotanddens","randomdotsizeEA","equaldotsize","equaldotsize","equaldotsize","equaldotanddens","equaldotsize","randomdotsizeEA","equaldotsize","randomdotsizeEA","equaldotsize","equaldotanddens","equaldotsize","equaldotanddens","equaldotsize","equaldotanddens","equaldotanddens","equaldotanddens","equaldotanddens","randomdotsizeEA","randomdotsizeEA","equaldotanddens","equaldotanddens","randomdotsizeEA","randomdotsizeEA","equaldotsize","randomdotsizeEA","equaldotanddens","equaldotsize","equaldotanddens","equaldotsize","equaldotanddens","equaldotsize","randomdotsizeEA","equaldotanddens","randomdotsizeEA","equaldotanddens","randomdotsizeEA","equaldotanddens","equaldotsize","equaldotanddens","equaldotanddens","randomdotsizeEA","randomdotsizeEA","equaldotanddens","equaldotsize"],"ratio_trial":[250,900,250,250,500,750,750,500,750,900,250,900,750,900,750,250,250,250,500,900,500,900,900,900,750,500,250,750,250,750,250,750,900,750,750,250,750,750,500,750,500,500,900,900,250,250,500,500,900,900,750,500,900,500,750,250,900,250,500,500,900,250,500,250,750,900,250,900,750,900,250,500,750,750,500,900,500,500,900,500,900,900,500,250,250,250,900,750,500,750,900,750,900,900,750,750,250,500,250,500,250,750,500,500,250,500,250,900,900,500,750,750,500,750,500,250,250,900,250,750],"smaller_num":["6","9","1","3","2","18","6","6","3","18","3","18","9","18","15","4","4","4","6","18","4","18","9","9","9","2","3","3","1","6","4","6","18","12","6","3","3","3","9","18","9","1","18","18","2","2","2","3","18","9","18","9","18","9","15","4","9","2","4","1","18","6","9","3","3","18","3","9","15","9","2","4","3","6","9","18","6","10","18","10","18","9","5","4","1","4","18","15","2","15","18","15","18","18","15","18","6","1","6","1","4","3","4","9","4","2","4","18","9","5","3","15","2","3","2","2","5","9","3","15"],"larger_num":["24","10","4","12","4","24","8","12","4","20","12","20","12","20","20","16","16","16","12","20","8","20","10","10","12","4","12","4","4","8","16","8","20","16","8","12","4","4","18","24","18","2","20","20","8","8","4","6","20","10","24","18","20","18","20","16","10","8","8","2","20","24","18","12","4","20","12","10","20","10","8","8","4","8","18","20","12","20","20","20","20","10","10","16","4","16","20","20","4","20","20","20","20","20","20","24","24","2","24","2","16","4","8","18","16","4","16","20","10","10","4","20","4","4","4","8","20","10","12","20"],"correct_side":[2,2,2,2,2,1,2,1,1,1,2,1,2,1,2,2,1,1,1,2,1,1,2,2,2,1,2,2,2,1,1,2,2,2,1,1,1,1,1,1,2,2,2,1,1,2,1,2,1,2,1,2,1,2,2,2,2,2,1,2,2,1,1,2,2,1,2,2,2,2,2,1,1,2,1,2,1,2,1,2,2,1,2,2,2,2,2,2,1,1,1,2,1,1,2,1,2,2,2,2,1,1,1,2,2,1,1,1,1,1,1,2,1,1,2,2,2,1,1,1],"img_shown":["img/250/equaldotsize/R/6_Ratio_250_L_6_R_24.png","img/900/equaldotsize/R/15_Ratio_900_L_9_R_10.png","img/250/equaldotanddens/R/8_Ratio_250_L_1_R_4.png","img/250/equaldotsize/R/11_Ratio_250_L_3_R_12.png","img/500/equaldotanddens/R/9_Ratio_500_L_2_R_4.png","img/750/equaldotsize/L/6_Ratio_750_L_24_R_18.png","img/750/equaldotsize/R/2_Ratio_750_L_6_R_8.png","img/500/randomdotsizeEA/L/13_Ratio_500_L_12_R_6.png","img/750/equaldotsize/L/10_Ratio_750_L_4_R_3.png","img/900/equaldotanddens/L/8_Ratio_900_L_20_R_18.png","img/250/randomdotsizeEA/R/4_Ratio_250_L_3_R_12.png","img/900/randomdotsizeEA/L/2_Ratio_900_L_20_R_18.png","img/750/equaldotanddens/R/15_Ratio_750_L_9_R_12.png","img/900/randomdotsizeEA/L/8_Ratio_900_L_20_R_18.png","img/750/equaldotsize/R/5_Ratio_750_L_15_R_20.png","img/250/equaldotanddens/R/10_Ratio_250_L_4_R_16.png","img/250/randomdotsizeEA/L/2_Ratio_250_L_16_R_4.png","img/250/equaldotanddens/L/2_Ratio_250_L_16_R_4.png","img/500/equaldotanddens/L/13_Ratio_500_L_12_R_6.png","img/900/equaldotsize/R/11_Ratio_900_L_18_R_20.png","img/500/randomdotsizeEA/L/8_Ratio_500_L_8_R_4.png","img/900/randomdotsizeEA/L/4_Ratio_900_L_20_R_18.png","img/900/equaldotsize/R/3_Ratio_900_L_9_R_10.png","img/900/equaldotanddens/R/7_Ratio_900_L_9_R_10.png","img/750/equaldotsize/R/15_Ratio_750_L_9_R_12.png","img/500/randomdotsizeEA/L/5_Ratio_500_L_4_R_2.png","img/250/randomdotsizeEA/R/9_Ratio_250_L_3_R_12.png","img/750/randomdotsizeEA/R/12_Ratio_750_L_3_R_4.png","img/250/equaldotanddens/R/8_Ratio_250_L_1_R_4.png","img/750/equaldotanddens/L/13_Ratio_750_L_8_R_6.png","img/250/randomdotsizeEA/L/2_Ratio_250_L_16_R_4.png","img/750/randomdotsizeEA/R/2_Ratio_750_L_6_R_8.png","img/900/equaldotsize/R/13_Ratio_900_L_18_R_20.png","img/750/randomdotsizeEA/R/11_Ratio_750_L_12_R_16.png","img/750/equaldotsize/L/14_Ratio_750_L_8_R_6.png","img/250/equaldotsize/L/15_Ratio_250_L_12_R_3.png","img/750/randomdotsizeEA/L/10_Ratio_750_L_4_R_3.png","img/750/equaldotsize/L/9_Ratio_750_L_4_R_3.png","img/500/randomdotsizeEA/L/4_Ratio_500_L_18_R_9.png","img/750/randomdotsizeEA/L/6_Ratio_750_L_24_R_18.png","img/500/equaldotsize/R/6_Ratio_500_L_9_R_18.png","img/500/equaldotanddens/R/12_Ratio_500_L_1_R_2.png","img/900/equaldotanddens/R/14_Ratio_900_L_18_R_20.png","img/900/equaldotanddens/L/8_Ratio_900_L_20_R_18.png","img/250/randomdotsizeEA/L/3_Ratio_250_L_8_R_2.png","img/250/equaldotsize/R/13_Ratio_250_L_2_R_8.png","img/500/randomdotsizeEA/L/10_Ratio_500_L_4_R_2.png","img/500/randomdotsizeEA/R/2_Ratio_500_L_3_R_6.png","img/900/equaldotanddens/L/4_Ratio_900_L_20_R_18.png","img/900/equaldotsize/R/7_Ratio_900_L_9_R_10.png","img/750/randomdotsizeEA/L/6_Ratio_750_L_24_R_18.png","img/500/equaldotsize/R/1_Ratio_500_L_9_R_18.png","img/900/randomdotsizeEA/L/8_Ratio_900_L_20_R_18.png","img/500/randomdotsizeEA/R/6_Ratio_500_L_9_R_18.png","img/750/randomdotsizeEA/R/4_Ratio_750_L_15_R_20.png","img/250/equaldotanddens/R/10_Ratio_250_L_4_R_16.png","img/900/equaldotanddens/R/15_Ratio_900_L_9_R_10.png","img/250/equaldotsize/R/13_Ratio_250_L_2_R_8.png","img/500/equaldotsize/L/8_Ratio_500_L_8_R_4.png","img/500/equaldotsize/R/12_Ratio_500_L_1_R_2.png","img/900/equaldotanddens/R/13_Ratio_900_L_18_R_20.png","img/250/equaldotsize/L/5_Ratio_250_L_24_R_6.png","img/500/equaldotanddens/L/4_Ratio_500_L_18_R_9.png","img/250/equaldotsize/R/11_Ratio_250_L_3_R_12.png","img/750/equaldotsize/R/12_Ratio_750_L_3_R_4.png","img/900/equaldotsize/L/10_Ratio_900_L_20_R_18.png","img/250/equaldotanddens/R/11_Ratio_250_L_3_R_12.png","img/900/equaldotsize/R/6_Ratio_900_L_9_R_10.png","img/750/randomdotsizeEA/R/4_Ratio_750_L_15_R_20.png","img/900/randomdotsizeEA/R/15_Ratio_900_L_9_R_10.png","img/250/randomdotsizeEA/R/13_Ratio_250_L_2_R_8.png","img/500/randomdotsizeEA/L/8_Ratio_500_L_8_R_4.png","img/750/equaldotanddens/L/10_Ratio_750_L_4_R_3.png","img/750/equaldotanddens/R/2_Ratio_750_L_6_R_8.png","img/500/equaldotanddens/L/4_Ratio_500_L_18_R_9.png","img/900/randomdotsizeEA/R/12_Ratio_900_L_18_R_20.png","img/500/equaldotsize/L/11_Ratio_500_L_12_R_6.png","img/500/equaldotsize/R/3_Ratio_500_L_10_R_20.png","img/900/equaldotsize/L/8_Ratio_900_L_20_R_18.png","img/500/equaldotanddens/R/3_Ratio_500_L_10_R_20.png","img/900/equaldotsize/R/9_Ratio_900_L_18_R_20.png","img/900/randomdotsizeEA/L/1_Ratio_900_L_10_R_9.png","img/500/equaldotsize/R/14_Ratio_500_L_5_R_10.png","img/250/randomdotsizeEA/R/10_Ratio_250_L_4_R_16.png","img/250/equaldotsize/R/8_Ratio_250_L_1_R_4.png","img/250/equaldotanddens/R/10_Ratio_250_L_4_R_16.png","img/900/equaldotsize/R/14_Ratio_900_L_18_R_20.png","img/750/equaldotanddens/R/5_Ratio_750_L_15_R_20.png","img/500/equaldotsize/L/10_Ratio_500_L_4_R_2.png","img/750/equaldotanddens/L/1_Ratio_750_L_20_R_15.png","img/900/equaldotanddens/L/8_Ratio_900_L_20_R_18.png","img/750/equaldotanddens/R/4_Ratio_750_L_15_R_20.png","img/900/equaldotanddens/L/10_Ratio_900_L_20_R_18.png","img/900/randomdotsizeEA/L/4_Ratio_900_L_20_R_18.png","img/750/randomdotsizeEA/R/5_Ratio_750_L_15_R_20.png","img/750/equaldotanddens/L/6_Ratio_750_L_24_R_18.png","img/250/equaldotanddens/R/6_Ratio_250_L_6_R_24.png","img/500/randomdotsizeEA/R/12_Ratio_500_L_1_R_2.png","img/250/randomdotsizeEA/R/6_Ratio_250_L_6_R_24.png","img/500/equaldotsize/R/12_Ratio_500_L_1_R_2.png","img/250/randomdotsizeEA/L/2_Ratio_250_L_16_R_4.png","img/750/equaldotanddens/L/10_Ratio_750_L_4_R_3.png","img/500/equaldotsize/L/8_Ratio_500_L_8_R_4.png","img/500/equaldotanddens/R/1_Ratio_500_L_9_R_18.png","img/250/equaldotsize/R/10_Ratio_250_L_4_R_16.png","img/500/equaldotanddens/L/5_Ratio_500_L_4_R_2.png","img/250/equaldotsize/L/2_Ratio_250_L_16_R_4.png","img/900/randomdotsizeEA/L/8_Ratio_900_L_20_R_18.png","img/900/equaldotanddens/L/1_Ratio_900_L_10_R_9.png","img/500/randomdotsizeEA/L/7_Ratio_500_L_10_R_5.png","img/750/equaldotanddens/L/10_Ratio_750_L_4_R_3.png","img/750/randomdotsizeEA/R/5_Ratio_750_L_15_R_20.png","img/500/equaldotanddens/L/5_Ratio_500_L_4_R_2.png","img/750/equaldotsize/L/10_Ratio_750_L_4_R_3.png","img/500/equaldotanddens/R/9_Ratio_500_L_2_R_4.png","img/250/equaldotanddens/R/13_Ratio_250_L_2_R_8.png","img/250/randomdotsizeEA/R/12_Ratio_250_L_5_R_20.png","img/900/randomdotsizeEA/L/1_Ratio_900_L_10_R_9.png","img/250/equaldotanddens/L/15_Ratio_250_L_12_R_3.png","img/750/equaldotsize/L/1_Ratio_750_L_20_R_15.png"],"Rat0":[["12_Ratio_0_L_9_R_0.png","13_Ratio_0_L_6_R_0.png","5_Ratio_0_L_2_R_0.png","6_Ratio_0_L_4_R_0.png","8_Ratio_0_L_6_R_0.png"],["1_Ratio_0_L_0_R_17.png","10_Ratio_0_L_0_R_22.png","11_Ratio_0_L_0_R_1.png","14_Ratio_0_L_0_R_24.png","15_Ratio_0_L_0_R_4.png","2_Ratio_0_L_0_R_5.png","3_Ratio_0_L_0_R_17.png","4_Ratio_0_L_0_R_7.png","7_Ratio_0_L_0_R_19.png","9_Ratio_0_L_0_R_15.png"]],"Rat250":[["1_Ratio_250_L_8_R_2.png","14_Ratio_250_L_12_R_3.png","15_Ratio_250_L_12_R_3.png","2_Ratio_250_L_16_R_4.png","3_Ratio_250_L_8_R_2.png","5_Ratio_250_L_24_R_6.png","7_Ratio_250_L_8_R_2.png"],["10_Ratio_250_L_4_R_16.png","11_Ratio_250_L_3_R_12.png","12_Ratio_250_L_5_R_20.png","13_Ratio_250_L_2_R_8.png","4_Ratio_250_L_3_R_12.png","6_Ratio_250_L_6_R_24.png","8_Ratio_250_L_1_R_4.png","9_Ratio_250_L_3_R_12.png"]],"Rat500":[["10_Ratio_500_L_4_R_2.png","11_Ratio_500_L_12_R_6.png","13_Ratio_500_L_12_R_6.png","4_Ratio_500_L_18_R_9.png","5_Ratio_500_L_4_R_2.png","7_Ratio_500_L_10_R_5.png","8_Ratio_500_L_8_R_4.png"],["1_Ratio_500_L_9_R_18.png","12_Ratio_500_L_1_R_2.png","14_Ratio_500_L_5_R_10.png","15_Ratio_500_L_1_R_2.png","2_Ratio_500_L_3_R_6.png","3_Ratio_500_L_10_R_20.png","6_Ratio_500_L_9_R_18.png","9_Ratio_500_L_2_R_4.png"]],"Rat750":[["1_Ratio_750_L_20_R_15.png","10_Ratio_750_L_4_R_3.png","13_Ratio_750_L_8_R_6.png","14_Ratio_750_L_8_R_6.png","6_Ratio_750_L_24_R_18.png","8_Ratio_750_L_4_R_3.png","9_Ratio_750_L_4_R_3.png"],["11_Ratio_750_L_12_R_16.png","12_Ratio_750_L_3_R_4.png","15_Ratio_750_L_9_R_12.png","2_Ratio_750_L_6_R_8.png","3_Ratio_750_L_15_R_20.png","4_Ratio_750_L_15_R_20.png","5_Ratio_750_L_15_R_20.png","7_Ratio_750_L_3_R_4.png"]],"Rat900":[["1_Ratio_900_L_10_R_9.png","10_Ratio_900_L_20_R_18.png","2_Ratio_900_L_20_R_18.png","4_Ratio_900_L_20_R_18.png","8_Ratio_900_L_20_R_18.png"],["11_Ratio_900_L_18_R_20.png","12_Ratio_900_L_18_R_20.png","13_Ratio_900_L_18_R_20.png","14_Ratio_900_L_18_R_20.png","15_Ratio_900_L_9_R_10.png","3_Ratio_900_L_9_R_10.png","5_Ratio_900_L_9_R_10.png","6_Ratio_900_L_9_R_10.png","7_Ratio_900_L_9_R_10.png","9_Ratio_900_L_18_R_20.png"]],"Rat1000":[["10_Ratio_1000_L_16_R_16.png","11_Ratio_1000_L_6_R_6.png","12_Ratio_1000_L_14_R_14.png","13_Ratio_1000_L_20_R_20.png","15_Ratio_1000_L_15_R_15.png","2_Ratio_1000_L_17_R_17.png","4_Ratio_1000_L_9_R_9.png","5_Ratio_1000_L_6_R_6.png","6_Ratio_1000_L_19_R_19.png","8_Ratio_1000_L_14_R_14.png","9_Ratio_1000_L_25_R_25.png"],["1_Ratio_1000_L_1_R_1.png","14_Ratio_1000_L_17_R_17.png","3_Ratio_1000_L_17_R_17.png","7_Ratio_1000_L_6_R_6.png"]]}},{"start_time":1551900537522,"click_time":1551900539336,"finger_time":1551900538617,"fix_duration":1405.079546330061,"trial":1,"RT":1095,"MT":719,"sideResp":1,"stimulus":"img/900/equaldotsize/R/15_Ratio_900_L_9_R_10.png","xmouse":[791,791,791,791,791,791,791,791,791,791,791,791,791,791,791,791,791,791,791,791,791,791,791,791,791,791,791,791,791,791,791,791,791,791,791,791,791,789,786,786,786,786,786,786,786,786,786,786,786,786,786,786,786,780,734,635,506,333,333,333,333,333,333,333,333,333,333,333,333,333,333,333,263,281,294,298,300,302,303,307,317,330,350,350,353,360,369,397,411,423,427],"ymouse":[531,531,531,531,531,531,531,531,531,531,531,531,531,531,531,531,531,531,531,531,531,531,531,531,531,531,531,531,531,531,531,531,531,531,531,531,531,533,534,534,534,534,534,534,534,534,534,534,534,534,534,534,534,528,442,306,168,38,38,38,38,38,38,38,38,38,38,38,38,38,38,38,20,33,45,53,58,60,60,60,57,50,37,37,34,28,24,17,15,15,15],"timestamp_mouse":[15,44,54,74,95,114,135,155,175,195,214,235,255,275,294,314,335,355,375,395,415,434,455,475,495,515,535,555,575,594,615,635,655,675,694,716,735,754,775,795,815,835,855,874,895,915,935,955,975,994,1015,1035,1056,1074,1095,1115,1134,1154,1175,1195,1214,1234,1254,1275,1296,1315,1335,1355,1375,1395,1415,1434,1455,1474,1495,1515,1534,1554,1575,1594,1614,1635,1654,1675,1695,1715,1734,1754,1775,1794,1814],"xSR":741.5,"ySR":469.95,"xT1":424.9,"yT1":0,"xT2":1058.1,"yT2":0,"toosoon":0,"cond_shown":"equaldotsize","ratio_trial":900,"smaller_num":"9","larger_num":"10","correct_side":2,"subjID":"LennyAndresRodriguezOtalora31","gender":"0","age":"11","school":"6"},{"start_time":1551900541483,"click_time":1551900542857,"finger_time":1551900542337,"fix_duration":1406.326483372321,"trial":2,"RT":854,"MT":520,"sideResp":2,"stimulus":"img/250/equaldotanddens/R/8_Ratio_250_L_1_R_4.png","xmouse":[795,795,795,795,795,795,795,795,795,795,795,795,795,795,795,795,795,795,795,795,795,795,795,795,795,795,795,795,795,795,795,795,795,792,772,770,770,770,770,770,776,793,860,975,1035,1136,1186,1203,1203,1203,1203,1203,1203,1203,1203,1203,1187,1187,1187,1184,1182,1179,1177,1172,1165,1163,1162,1160,1158],"ymouse":[525,525,525,525,525,525,525,525,525,525,525,525,525,525,525,525,525,525,525,525,525,525,525,525,525,525,525,525,525,525,525,525,526,528,543,543,543,543,543,543,536,516,446,341,273,129,48,12,12,12,12,12,12,12,12,12,4,9,19,32,39,44,47,48,48,48,48,48,49],"timestamp_mouse":[13,42,55,73,93,113,134,153,173,193,213,233,254,273,294,313,334,354,373,394,414,433,455,473,493,514,533,553,575,594,614,634,653,674,693,713,734,753,774,794,813,834,854,874,893,914,933,953,974,994,1013,1033,1053,1074,1093,1113,1134,1154,1173,1193,1213,1234,1254,1273,1293,1313,1335,1354,1373],"xSR":741.5,"ySR":469.95,"xT1":424.9,"yT1":0,"xT2":1058.1,"yT2":0,"toosoon":0,"cond_shown":"equaldotanddens","ratio_trial":250,"smaller_num":"1","larger_num":"4","correct_side":2,"subjID":"LennyAndresRodriguezOtalora31","gender":"0","age":"11","school":"6"},{"start_time":1551900543898,"click_time":1551900544878,"finger_time":1551900544156,"fix_duration":299.2957547719426,"trial":3,"RT":258,"MT":722,"sideResp":2,"stimulus":"img/250/equaldotsize/R/11_Ratio_250_L_3_R_12.png","xmouse":[805,805,805,805,805,808,810,811,822,826,831,840,842,842,842,842,842,842,842,842,842,842,842,842,842,835,828,814,797,796,795,795,812,896,951,1001,1028,1044,1044,1044,1044,1044,1044,1044,1044,1044,1044,1044,1094],"ymouse":[516,516,516,516,516,516,516,516,516,516,516,516,516,516,516,516,516,516,516,516,516,516,516,516,516,517,520,523,526,526,520,477,430,283,192,109,54,9,9,9,9,9,9,9,9,9,9,9,2],"timestamp_mouse":[18,38,58,78,98,118,138,159,178,198,218,239,258,278,298,318,339,358,379,398,418,438,458,478,498,519,538,559,578,599,618,639,659,678,698,719,739,758,779,798,818,838,858,878,899,918,939,959,979],"xSR":741.5,"ySR":469.95,"xT1":424.9,"yT1":0,"xT2":1058.1,"yT2":0,"toosoon":0,"cond_shown":"equaldotsize","ratio_trial":250,"smaller_num":"3","larger_num":"12","correct_side":2,"subjID":"LennyAndresRodriguezOtalora31","gender":"0","age":"11","school":"6"},{"start_time":1551900546946,"click_time":1551900547716,"finger_time":1551900547596,"fix_duration":1268.656451889455,"trial":4,"RT":650,"MT":120,"sideResp":2,"stimulus":"img/500/equaldotanddens/R/9_Ratio_500_L_2_R_4.png","xmouse":[812,812,810,799,791,789,788,788,788,788,788,788,788,788,788,788,788,788,788,788,788,788,788,788,788,788,788,788,788,788,787,792,853,893,920,944,974,1032,1073],"ymouse":[533,533,533,533,533,533,533,533,533,533,533,533,533,533,533,533,533,533,533,533,533,533,533,533,533,533,533,533,533,533,532,523,438,388,349,305,249,146,94],"timestamp_mouse":[10,41,50,71,90,111,130,152,170,190,211,230,251,271,291,310,331,350,370,390,412,430,450,470,491,510,530,550,570,590,611,630,650,671,691,711,730,750,770],"xSR":741.5,"ySR":469.95,"xT1":424.9,"yT1":0,"xT2":1058.1,"yT2":0,"toosoon":0,"cond_shown":"equaldotanddens","ratio_trial":500,"smaller_num":"2","larger_num":"4","correct_side":2,"subjID":"LennyAndresRodriguezOtalora31","gender":"0","age":"11","school":"6"},{"start_time":1551900549427,"click_time":1551900551956,"finger_time":1551900551537,"fix_duration":730.5224402155096,"trial":5,"RT":2110,"MT":419,"sideResp":2,"stimulus":"img/750/equaldotsize/L/6_Ratio_750_L_24_R_18.png","xmouse":[766,767,767,767,769,770,770,771,771,771,771,772,772,772,772,772,772,772,772,772,772,772,772,772,772,772,772,772,772,772,772,773,774,774,774,774,774,774,774,774,774,774,774,774,774,774,774,774,774,774,774,774,774,774,774,774,774,774,774,774,774,774,774,774,774,774,774,774,774,774,774,774,774,774,774,774,774,774,774,774,774,774,774,774,774,774,774,774,774,774,774,774,774,774,774,773,773,773,773,773,773,773,773,773,778,801,843,894,952,962,970,977,982,993,998,1002,1005,1010,1011,1016,1025,1040,1052,1057,1058,1058,1059],"ymouse":[500,500,500,500,500,500,500,500,500,500,500,500,500,500,500,500,500,500,500,500,500,500,500,500,500,500,500,500,500,500,499,498,498,498,498,498,498,498,498,498,498,498,498,498,498,498,498,498,498,498,498,498,498,498,498,497,496,496,496,496,496,496,496,496,496,496,496,496,496,496,496,496,496,496,496,496,496,496,496,496,496,496,496,496,496,496,496,496,496,496,496,496,496,496,496,496,496,496,496,496,496,496,496,495,471,414,345,283,219,206,194,180,167,144,137,132,128,124,122,119,111,101,92,87,86,84,83],"timestamp_mouse":[9,42,49,69,90,111,129,150,170,190,209,230,249,269,289,309,329,350,369,389,410,430,450,469,489,509,531,549,569,590,610,629,649,669,689,709,729,749,769,789,810,830,849,869,889,910,929,949,969,990,1010,1030,1050,1070,1089,1110,1129,1149,1170,1189,1209,1230,1250,1269,1289,1310,1330,1349,1369,1389,1409,1430,1449,1469,1490,1510,1530,1549,1570,1590,1610,1630,1650,1670,1689,1710,1729,1750,1769,1790,1810,1829,1850,1870,1889,1909,1930,1950,1969,1990,2011,2030,2050,2069,2090,2110,2129,2150,2169,2189,2209,2230,2250,2269,2289,2309,2330,2349,2370,2390,2409,2430,2449,2470,2489,2510,2529],"xSR":741.5,"ySR":469.95,"xT1":424.9,"yT1":0,"xT2":1058.1,"yT2":0,"toosoon":0,"cond_shown":"equaldotsize","ratio_trial":750,"smaller_num":"18","larger_num":"24","correct_side":1,"subjID":"LennyAndresRodriguezOtalora31","gender":"0","age":"11","school":"6"},{"start_time":1551900553152,"click_time":1551900554618,"finger_time":1551900554056,"fix_duration":475.61144061245,"trial":6,"RT":904,"MT":562,"sideResp":2,"stimulus":"img/750/equaldotsize/R/2_Ratio_750_L_6_R_8.png","xmouse":[754,754,754,754,754,754,754,754,754,754,754,754,754,754,754,754,754,754,754,754,754,754,754,754,754,754,754,754,754,754,754,754,754,754,754,754,754,754,754,754,754,754,754,761,782,810,834,864,873,885,906,923,944,947,948,948,948,963,984,1002,1019,1026,1032,1038,1042,1046,1050,1053,1053,1053,1053,1055,1055,1086],"ymouse":[521,521,521,521,521,521,521,521,521,521,521,521,521,521,521,521,521,521,521,521,521,521,521,521,521,521,521,521,521,521,521,521,521,521,521,521,521,521,521,521,521,521,521,512,480,448,419,380,363,343,313,291,257,250,243,240,233,198,168,143,120,106,86,78,76,74,72,72,72,72,72,72,72,67],"timestamp_mouse":[9,25,44,64,86,104,124,145,164,185,204,225,244,265,284,304,324,344,364,385,405,425,444,464,485,506,524,544,565,584,604,624,644,664,684,704,725,744,766,786,804,825,844,864,885,904,924,945,964,985,1004,1025,1045,1064,1085,1106,1125,1145,1164,1184,1204,1224,1245,1264,1284,1305,1324,1345,1365,1384,1405,1424,1445,1466],"xSR":741.5,"ySR":469.95,"xT1":424.9,"yT1":0,"xT2":1058.1,"yT2":0,"toosoon":0,"cond_shown":"equaldotsize","ratio_trial":750,"smaller_num":"6","larger_num":"8","correct_side":2,"subjID":"LennyAndresRodriguezOtalora31","gender":"0","age":"11","school":"6"},{"start_time":1551900555649,"click_time":1551900557416,"finger_time":1551900557118,"fix_duration":250,"trial":7,"RT":1469,"MT":298,"sideResp":1,"stimulus":"img/500/randomdotsizeEA/L/13_Ratio_500_L_12_R_6.png","xmouse":[799,799,799,799,799,799,799,799,799,799,799,799,799,799,799,799,799,799,799,799,799,799,799,799,799,799,799,799,799,799,799,799,799,799,799,799,799,799,799,799,799,799,799,799,799,799,799,799,799,799,799,799,799,799,799,799,799,799,799,799,799,799,799,799,799,799,799,799,799,799,799,798,790,756,728,694,657,631,607,604,600,596,587,551,525,503,490,483,480],"ymouse":[521,521,521,521,521,521,521,521,521,521,521,521,521,521,521,521,521,521,521,521,521,521,521,521,521,521,521,521,521,521,521,521,521,521,521,521,521,521,521,521,521,521,521,521,521,521,521,521,521,521,521,521,521,521,521,521,521,521,521,521,521,521,521,521,521,521,521,521,521,521,519,514,501,459,426,380,334,294,197,178,165,159,152,140,131,121,113,105,98],"timestamp_mouse":[10,35,48,67,87,107,128,148,168,188,208,228,247,268,287,308,328,348,367,388,409,428,447,468,487,507,527,547,567,589,608,628,647,668,688,707,728,747,768,788,808,828,848,867,888,907,927,949,968,988,1007,1027,1047,1067,1087,1108,1127,1148,1167,1188,1207,1227,1248,1267,1287,1307,1328,1347,1367,1388,1408,1428,1449,1469,1487,1508,1527,1547,1567,1587,1607,1628,1648,1667,1688,1708,1728,1748,1767],"xSR":741.5,"ySR":469.95,"xT1":424.9,"yT1":0,"xT2":1058.1,"yT2":0,"toosoon":0,"cond_shown":"randomdotsizeEA","ratio_trial":500,"smaller_num":"6","larger_num":"12","correct_side":1,"subjID":"LennyAndresRodriguezOtalora31","gender":"0","age":"11","school":"6"},{"start_time":1551900558522,"click_time":1551900560038,"finger_time":1551900559837,"fix_duration":264.3827373486631,"trial":8,"RT":1315,"MT":201,"sideResp":1,"stimulus":"img/750/equaldotsize/L/10_Ratio_750_L_4_R_3.png","xmouse":[813,813,813,813,813,813,813,813,813,814,814,813,812,811,811,811,811,811,811,811,811,811,811,811,811,811,811,811,811,811,811,811,811,811,811,811,811,811,811,811,811,811,811,811,811,811,811,811,811,811,811,811,811,811,811,811,811,811,811,811,811,811,801,785,750,721,693,660,618,533,495,463,444,430,427,433],"ymouse":[553,553,553,553,553,553,553,553,553,553,551,547,544,542,542,542,542,542,542,542,542,542,542,542,542,542,542,542,542,542,542,542,542,542,542,542,542,542,542,542,542,542,542,542,542,542,542,542,542,542,542,542,542,542,542,542,542,542,542,542,541,541,539,529,486,440,394,350,304,220,186,160,141,118,100,90],"timestamp_mouse":[15,42,55,75,94,114,134,155,175,195,215,234,254,275,294,314,334,354,374,395,414,435,454,474,494,514,534,554,574,594,615,636,655,675,694,715,735,754,774,795,815,835,855,875,895,914,935,955,975,995,1015,1036,1054,1074,1095,1114,1134,1155,1174,1194,1215,1234,1255,1274,1294,1315,1335,1354,1375,1395,1414,1434,1454,1474,1494,1515],"xSR":741.5,"ySR":469.95,"xT1":424.9,"yT1":0,"xT2":1058.1,"yT2":0,"toosoon":0,"cond_shown":"equaldotsize","ratio_trial":750,"smaller_num":"3","larger_num":"4","correct_side":1,"subjID":"LennyAndresRodriguezOtalora31","gender":"0","age":"11","school":"6"},{"start_time":1551900561453,"click_time":1551900562336,"finger_time":1551900562197,"fix_duration":376.68523143380185,"trial":9,"RT":744,"MT":139,"sideResp":2,"stimulus":"img/900/equaldotanddens/L/8_Ratio_900_L_20_R_18.png","xmouse":[765,765,766,766,766,767,767,767,767,768,768,768,768,768,768,768,768,768,768,768,768,768,768,768,768,768,768,768,768,768,768,768,768,768,768,776,795,828,958,1018,1064,1093,1112,1124,1124],"ymouse":[499,499,499,499,499,499,499,499,499,499,499,499,499,499,499,499,499,499,499,499,499,499,499,499,499,499,499,499,499,499,499,499,499,499,499,490,470,438,324,270,220,179,142,100,90],"timestamp_mouse":[9,24,44,64,83,103,127,143,163,183,203,224,244,263,283,303,324,344,363,383,403,423,443,464,483,504,523,543,563,583,603,623,643,663,683,703,724,744,764,783,803,824,845,864,883],"xSR":741.5,"ySR":469.95,"xT1":424.9,"yT1":0,"xT2":1058.1,"yT2":0,"toosoon":0,"cond_shown":"equaldotanddens","ratio_trial":900,"smaller_num":"18","larger_num":"20","correct_side":1,"subjID":"LennyAndresRodriguezOtalora31","gender":"0","age":"11","school":"6"},{"start_time":1551900564082,"click_time":1551900565057,"finger_time":1551900564937,"fix_duration":924.0263594996435,"trial":10,"RT":855,"MT":120,"sideResp":2,"stimulus":"img/250/randomdotsizeEA/R/4_Ratio_250_L_3_R_12.png","xmouse":[771,771,771,771,771,771,771,771,771,771,771,771,771,771,771,771,771,771,771,771,771,771,771,771,771,771,771,771,771,771,771,771,771,771,771,771,771,771,772,773,775,777,807,862,905,952,995,1054,1078],"ymouse":[497,495,495,495,495,495,495,495,495,495,495,495,495,495,495,495,495,495,495,495,495,495,495,495,495,495,495,495,495,495,495,495,495,495,495,495,495,495,495,495,495,494,457,380,317,254,189,85,45],"timestamp_mouse":[15,35,54,74,94,114,134,156,175,194,216,234,254,274,294,314,335,356,375,394,416,434,454,474,494,515,534,554,574,594,615,634,654,674,694,714,735,754,775,795,815,834,855,875,894,915,935,954,974],"xSR":741.5,"ySR":469.95,"xT1":424.9,"yT1":0,"xT2":1058.1,"yT2":0,"toosoon":0,"cond_shown":"randomdotsizeEA","ratio_trial":250,"smaller_num":"3","larger_num":"12","correct_side":2,"subjID":"LennyAndresRodriguezOtalora31","gender":"0","age":"11","school":"6"},{"start_time":1551900567580,"click_time":1551900568856,"finger_time":1551900568636,"fix_duration":1461.7220418649758,"trial":11,"RT":1056,"MT":220,"sideResp":1,"stimulus":"img/900/randomdotsizeEA/L/2_Ratio_900_L_20_R_18.png","xmouse":[800,800,800,800,800,800,800,800,800,800,800,800,800,800,800,800,800,800,800,800,800,800,800,800,800,800,800,800,800,800,800,800,800,800,800,800,800,800,800,800,800,800,800,800,800,800,800,800,800,796,791,785,767,755,737,719,677,603,576,561,556,551,534,511],"ymouse":[507,507,507,507,507,507,507,507,507,507,507,507,507,507,507,507,507,507,507,507,507,507,507,507,507,507,507,507,507,507,507,507,507,507,507,507,507,507,507,507,507,507,507,507,507,507,507,507,508,507,499,488,451,422,382,322,226,119,85,68,58,51,33,20],"timestamp_mouse":[17,44,57,76,96,116,138,157,176,196,218,237,256,276,296,316,336,357,376,396,417,436,456,476,496,516,536,557,576,596,616,636,656,676,696,717,736,756,776,796,817,838,857,877,896,917,936,956,976,996,1018,1037,1056,1076,1097,1116,1136,1156,1177,1197,1218,1237,1256,1276],"xSR":741.5,"ySR":469.95,"xT1":424.9,"yT1":0,"xT2":1058.1,"yT2":0,"toosoon":0,"cond_shown":"randomdotsizeEA","ratio_trial":900,"smaller_num":"18","larger_num":"20","correct_side":1,"subjID":"LennyAndresRodriguezOtalora31","gender":"0","age":"11","school":"6"},{"start_time":1551900570953,"click_time":1551900571997,"finger_time":1551900571776,"fix_duration":1115.483675135965,"trial":12,"RT":823,"MT":221,"sideResp":2,"stimulus":"img/750/equaldotanddens/R/15_Ratio_750_L_9_R_12.png","xmouse":[790,790,790,790,790,790,790,790,790,791,791,791,791,791,791,791,791,791,791,791,791,791,791,791,791,791,791,791,791,791,791,791,791,791,791,791,791,791,791,795,815,845,889,932,973,980,987,989,993,999,1023,1046,1075],"ymouse":[523,523,523,523,523,523,523,523,523,523,523,523,523,523,523,523,523,523,523,523,523,523,523,523,523,523,523,523,523,523,523,523,523,523,523,523,523,523,523,510,473,429,366,304,206,174,139,121,106,91,59,40,20],"timestamp_mouse":[8,33,44,64,84,103,124,144,163,184,203,223,243,263,284,304,324,343,363,383,404,424,444,464,483,503,523,544,563,584,604,623,643,665,683,703,724,743,764,783,804,823,844,863,884,903,924,943,963,983,1003,1024,1044],"xSR":741.5,"ySR":469.95,"xT1":424.9,"yT1":0,"xT2":1058.1,"yT2":0,"toosoon":0,"cond_shown":"equaldotanddens","ratio_trial":750,"smaller_num":"9","larger_num":"12","correct_side":2,"subjID":"LennyAndresRodriguezOtalora31","gender":"0","age":"11","school":"6"},{"start_time":1551900575289,"click_time":1551900576178,"finger_time":1551900576117,"fix_duration":1111.1607098538962,"trial":13,"RT":828,"MT":61,"sideResp":1,"stimulus":"img/900/randomdotsizeEA/L/8_Ratio_900_L_20_R_18.png","xmouse":[813,813,813,813,813,813,813,813,813,813,813,813,813,813,813,813,813,813,813,813,813,813,813,813,813,813,813,813,813,813,813,813,813,813,813,813,813,813,813,813,802,765,711,569,487],"ymouse":[521,521,521,521,521,521,521,521,521,521,521,521,521,521,521,521,521,521,521,521,521,521,521,521,521,521,521,521,521,521,521,521,521,521,521,521,521,521,521,518,493,441,360,142,30],"timestamp_mouse":[8,38,47,68,88,107,128,148,167,188,208,228,247,268,287,307,328,347,367,387,408,427,447,467,487,508,527,547,568,589,609,627,647,667,688,708,727,747,767,787,809,828,847,867,888],"xSR":741.5,"ySR":469.95,"xT1":424.9,"yT1":0,"xT2":1058.1,"yT2":0,"toosoon":0,"cond_shown":"randomdotsizeEA","ratio_trial":900,"smaller_num":"18","larger_num":"20","correct_side":1,"subjID":"LennyAndresRodriguezOtalora31","gender":"0","age":"11","school":"6"},{"start_time":1551900577407,"click_time":1551900579216,"finger_time":1551900578756,"fix_duration":250,"trial":14,"RT":1349,"MT":460,"sideResp":1,"stimulus":"img/750/equaldotsize/R/5_Ratio_750_L_15_R_20.png","xmouse":[808,808,808,808,808,808,808,808,808,808,808,808,808,808,808,808,808,808,808,808,808,808,804,800,795,793,791,791,791,791,791,791,791,791,791,791,791,791,791,791,791,791,791,791,791,791,791,791,791,791,791,791,791,791,791,791,791,791,791,791,791,791,791,791,791,789,786,757,725,655,599,548,446,424,414,413,415,417,421,422,422,422,422,422,422,422,422,422,422,422,440],"ymouse":[507,508,509,509,509,510,510,510,510,510,510,510,510,510,510,510,510,510,510,510,510,510,507,502,497,494,493,493,493,493,493,493,493,493,493,493,493,493,493,493,493,493,493,493,493,493,493,493,493,493,493,493,493,493,493,493,493,493,493,493,493,493,493,493,493,485,479,443,406,337,279,225,109,78,62,50,40,33,12,2,2,2,2,2,2,2,2,2,2,2,9],"timestamp_mouse":[10,29,49,69,90,109,130,149,170,189,209,230,249,274,289,310,329,349,369,389,409,430,449,470,489,510,529,550,570,590,609,630,649,670,691,709,729,749,769,790,809,829,849,869,889,909,929,949,969,989,1009,1031,1049,1070,1089,1109,1130,1150,1170,1189,1210,1229,1250,1270,1289,1310,1329,1349,1369,1390,1410,1429,1449,1469,1490,1509,1530,1549,1570,1589,1610,1629,1650,1670,1690,1710,1730,1750,1770,1790,1809],"xSR":741.5,"ySR":469.95,"xT1":424.9,"yT1":0,"xT2":1058.1,"yT2":0,"toosoon":0,"cond_shown":"equaldotsize","ratio_trial":750,"smaller_num":"15","larger_num":"20","correct_side":2,"subjID":"LennyAndresRodriguezOtalora31","gender":"0","age":"11","school":"6"},{"start_time":1551900580642,"click_time":1551900581798,"finger_time":1551900581457,"fix_duration":704.8959306056302,"trial":15,"RT":815,"MT":341,"sideResp":2,"stimulus":"img/250/equaldotanddens/R/10_Ratio_250_L_4_R_16.png","xmouse":[794,794,794,794,794,794,794,795,797,798,799,801,801,801,802,802,802,802,802,802,802,802,802,802,802,802,802,802,802,802,802,802,803,803,803,803,803,803,810,822,841,897,921,946,970,970,970,970,970,970,970,970,970,970,970,970,970,1082],"ymouse":[502,502,502,502,502,502,502,502,502,502,502,502,502,502,501,501,501,501,501,501,501,501,501,501,501,501,501,501,501,501,501,501,501,501,501,501,501,501,491,472,437,295,208,122,20,20,20,20,20,20,20,20,20,20,20,20,20,13],"timestamp_mouse":[15,34,54,75,94,115,134,154,174,194,215,235,254,275,294,315,335,354,374,395,415,434,455,475,494,514,534,555,575,595,614,634,655,675,695,714,735,756,775,795,815,834,854,874,894,916,935,956,976,994,1014,1035,1054,1074,1094,1115,1135,1155],"xSR":741.5,"ySR":469.95,"xT1":424.9,"yT1":0,"xT2":1058.1,"yT2":0,"toosoon":0,"cond_shown":"equaldotanddens","ratio_trial":250,"smaller_num":"4","larger_num":"16","correct_side":2,"subjID":"LennyAndresRodriguezOtalora31","gender":"0","age":"11","school":"6"},{"start_time":1551900583902,"click_time":1551900585176,"finger_time":1551900584757,"fix_duration":1103.1596233771033,"trial":16,"RT":855,"MT":419,"sideResp":1,"stimulus":"img/250/randomdotsizeEA/L/2_Ratio_250_L_16_R_4.png","xmouse":[804,804,804,804,804,804,804,804,804,801,798,798,798,798,798,798,798,798,798,798,798,798,798,798,798,798,798,798,798,798,798,798,798,798,798,798,798,798,798,798,786,775,740,591,541,514,495,483,475,472,472,472,476,503,520,531,538,539,538,534,527,507,496,436],"ymouse":[500,500,500,500,500,500,500,500,500,502,504,504,504,504,504,504,504,504,504,504,504,504,504,504,504,504,504,504,504,504,504,504,504,504,504,504,504,504,504,504,498,490,467,373,334,310,285,267,247,240,234,224,213,185,176,167,162,158,148,141,130,113,106,79],"timestamp_mouse":[33,34,54,75,94,114,135,154,174,195,215,235,254,274,294,314,334,354,374,394,414,434,455,474,494,514,535,555,574,594,614,635,654,675,694,714,735,755,774,796,814,835,855,874,894,915,934,954,974,995,1014,1035,1054,1074,1095,1114,1135,1154,1174,1194,1214,1234,1255,1274],"xSR":741.5,"ySR":469.95,"xT1":424.9,"yT1":0,"xT2":1058.1,"yT2":0,"toosoon":0,"cond_shown":"randomdotsizeEA","ratio_trial":250,"smaller_num":"4","larger_num":"16","correct_side":1,"subjID":"LennyAndresRodriguezOtalora31","gender":"0","age":"11","school":"6"},{"start_time":1551900586128,"click_time":1551900587236,"finger_time":1551900586976,"fix_duration":250,"trial":17,"RT":848,"MT":260,"sideResp":1,"stimulus":"img/250/equaldotanddens/L/2_Ratio_250_L_16_R_4.png","xmouse":[772,772,772,772,772,772,772,772,772,772,772,772,772,772,772,772,772,772,772,772,772,772,772,772,772,772,772,772,772,772,772,772,772,772,772,772,772,772,772,772,772,756,652,580,508,451,420,413,417,422,426,430,445,456,471,493],"ymouse":[496,496,496,496,496,496,496,496,496,496,496,496,496,496,496,496,496,496,496,496,496,496,496,496,496,496,496,496,496,496,496,496,496,496,496,496,496,496,496,496,494,483,411,358,298,244,202,170,162,156,153,149,133,120,106,89],"timestamp_mouse":[9,34,50,68,89,108,128,148,168,188,208,228,248,268,289,308,329,348,368,389,408,428,449,470,488,508,528,548,568,588,608,628,649,668,689,708,728,749,768,788,808,829,848,869,889,908,928,948,969,990,1009,1029,1048,1068,1089,1108],"xSR":741.5,"ySR":469.95,"xT1":424.9,"yT1":0,"xT2":1058.1,"yT2":0,"toosoon":0,"cond_shown":"equaldotanddens","ratio_trial":250,"smaller_num":"4","larger_num":"16","correct_side":1,"subjID":"LennyAndresRodriguezOtalora31","gender":"0","age":"11","school":"6"},{"start_time":1551900589807,"click_time":1551900590895,"finger_time":1551900590555,"fix_duration":250,"trial":18,"RT":748,"MT":340,"sideResp":1,"stimulus":"img/500/equaldotanddens/L/13_Ratio_500_L_12_R_6.png","xmouse":[793,793,793,793,793,793,793,793,793,793,793,793,793,793,793,793,793,793,793,793,793,793,793,793,793,793,793,793,793,793,793,793,793,793,793,779,762,739,717,683,665,638,608,590,569,561,558,557,557,557,554,545,532,518,480],"ymouse":[521,521,521,521,521,521,521,521,521,521,521,521,521,521,521,521,521,521,521,521,521,521,521,521,521,521,521,521,521,521,521,521,521,521,521,518,512,506,498,464,432,384,331,295,248,229,224,220,217,203,189,172,155,136,85],"timestamp_mouse":[8,40,48,69,88,108,128,149,169,189,208,228,249,268,288,309,330,348,370,389,410,429,450,468,488,509,528,548,569,589,609,629,648,668,689,709,729,748,768,790,809,829,848,869,888,909,928,949,968,989,1009,1030,1049,1069,1088],"xSR":741.5,"ySR":469.95,"xT1":424.9,"yT1":0,"xT2":1058.1,"yT2":0,"toosoon":0,"cond_shown":"equaldotanddens","ratio_trial":500,"smaller_num":"6","larger_num":"12","correct_side":1,"subjID":"LennyAndresRodriguezOtalora31","gender":"0","age":"11","school":"6"},{"start_time":1551900592961,"click_time":1551900593996,"finger_time":1551900593656,"fix_duration":1424.4762399157541,"trial":19,"RT":695,"MT":340,"sideResp":1,"stimulus":"img/900/equaldotsize/R/11_Ratio_900_L_18_R_20.png","xmouse":[792,792,792,792,792,792,792,792,792,792,793,793,793,793,793,793,793,793,793,793,793,793,794,794,794,794,794,794,794,794,794,791,778,759,738,707,673,666,664,662,662,660,652,642,632,608,561,544,531,520,509,484],"ymouse":[537,537,537,537,537,537,537,537,537,537,537,537,537,537,537,537,537,537,537,537,537,537,537,537,537,537,537,537,537,537,537,531,517,495,473,431,376,362,356,350,339,312,299,283,269,239,197,178,157,134,110,71],"timestamp_mouse":[15,39,55,76,94,116,134,154,176,195,215,235,254,274,295,315,334,356,375,394,415,435,454,475,494,514,535,556,574,594,616,634,655,675,695,716,734,755,775,795,814,835,855,874,894,916,934,954,975,996,1015,1035],"xSR":741.5,"ySR":469.95,"xT1":424.9,"yT1":0,"xT2":1058.1,"yT2":0,"toosoon":0,"cond_shown":"equaldotsize","ratio_trial":900,"smaller_num":"18","larger_num":"20","correct_side":2,"subjID":"LennyAndresRodriguezOtalora31","gender":"0","age":"11","school":"6"},{"start_time":1551900595460,"click_time":1551900596776,"finger_time":1551900596476,"fix_duration":363.1780387504904,"trial":20,"RT":1016,"MT":300,"sideResp":1,"stimulus":"img/500/randomdotsizeEA/L/8_Ratio_500_L_8_R_4.png","xmouse":[798,798,798,798,798,798,798,798,798,798,798,798,798,798,798,798,798,798,798,798,798,798,798,798,798,798,798,798,798,798,798,798,798,798,798,798,798,799,804,814,818,819,819,819,819,819,819,820,814,804,786,675,599,525,463,415,383,383,384,386,386,386,394,405,420,438],"ymouse":[519,519,519,519,519,519,519,519,519,519,519,519,519,519,519,519,519,519,519,519,519,519,519,519,519,519,519,519,519,519,519,519,519,519,519,519,519,519,513,505,502,502,502,502,502,502,502,497,489,473,446,351,302,259,222,195,171,161,150,128,112,92,51,33,15,2],"timestamp_mouse":[15,36,55,76,96,115,135,156,175,195,217,235,255,276,297,315,335,355,375,396,417,435,455,476,496,516,535,556,576,596,616,635,656,676,695,716,735,755,776,796,816,837,856,877,895,916,937,955,975,996,1016,1036,1055,1076,1095,1116,1136,1156,1177,1196,1216,1236,1255,1276,1295,1315],"xSR":741.5,"ySR":469.95,"xT1":424.9,"yT1":0,"xT2":1058.1,"yT2":0,"toosoon":0,"cond_shown":"randomdotsizeEA","ratio_trial":500,"smaller_num":"4","larger_num":"8","correct_side":1,"subjID":"LennyAndresRodriguezOtalora31","gender":"0","age":"11","school":"6"},{"start_time":1551900598272,"click_time":1551900599477,"finger_time":1551900599216,"fix_duration":635.1301854785218,"trial":21,"RT":944,"MT":261,"sideResp":2,"stimulus":"img/900/randomdotsizeEA/L/4_Ratio_900_L_20_R_18.png","xmouse":[778,778,778,778,778,778,778,778,778,778,778,778,778,778,778,778,778,778,778,778,778,778,778,778,778,778,778,778,778,778,778,778,778,778,778,778,778,778,778,778,778,778,778,778,786,793,809,849,886,907,922,932,944,952,962,967,994,1030,1050,1058,1069],"ymouse":[527,527,527,527,527,527,527,527,527,527,527,527,527,527,527,527,527,527,527,527,527,527,527,527,527,527,527,527,527,527,527,527,527,527,527,527,527,527,527,527,527,527,527,527,515,507,488,434,373,331,294,261,208,183,165,150,114,88,77,71,65],"timestamp_mouse":[18,38,43,64,83,103,125,144,163,185,203,224,244,264,283,304,323,344,365,383,404,423,443,464,485,503,524,544,563,585,604,624,644,664,685,703,723,743,764,784,804,825,844,863,883,905,923,944,963,984,1005,1024,1045,1065,1083,1104,1125,1143,1164,1183,1204],"xSR":741.5,"ySR":469.95,"xT1":424.9,"yT1":0,"xT2":1058.1,"yT2":0,"toosoon":0,"cond_shown":"randomdotsizeEA","ratio_trial":900,"smaller_num":"18","larger_num":"20","correct_side":1,"subjID":"LennyAndresRodriguezOtalora31","gender":"0","age":"11","school":"6"},{"start_time":1551900602706,"click_time":1551900604195,"finger_time":1551900603816,"fix_duration":888.5792921259986,"trial":22,"RT":1110,"MT":379,"sideResp":1,"stimulus":"img/900/equaldotsize/R/3_Ratio_900_L_9_R_10.png","xmouse":[766,766,766,766,766,766,766,766,766,766,766,766,766,766,766,766,766,766,766,766,766,766,766,766,766,766,766,766,766,766,766,766,766,766,766,766,766,766,766,766,766,766,766,766,766,766,766,766,766,766,766,766,766,766,762,746,726,693,654,595,496,452,413,384,375,371,371,374,383,395,416,420,421,421,425],"ymouse":[501,501,501,501,501,501,501,501,501,501,501,501,501,501,501,501,501,501,501,501,501,501,501,501,501,501,501,501,501,501,501,501,501,501,501,501,501,501,501,501,501,501,501,501,501,501,501,501,501,501,501,501,500,498,492,464,432,388,342,292,197,156,128,104,97,84,75,66,58,51,39,37,37,37,37],"timestamp_mouse":[9,41,51,69,89,109,130,150,169,190,210,230,250,270,290,309,329,350,371,389,411,430,449,471,490,509,530,549,570,590,609,631,650,671,689,709,729,749,770,789,809,829,850,870,891,910,929,949,970,989,1009,1030,1051,1069,1089,1110,1131,1150,1169,1191,1209,1229,1249,1269,1289,1310,1330,1350,1371,1390,1409,1431,1450,1470,1489],"xSR":741.5,"ySR":469.95,"xT1":424.9,"yT1":0,"xT2":1058.1,"yT2":0,"toosoon":0,"cond_shown":"equaldotsize","ratio_trial":900,"smaller_num":"9","larger_num":"10","correct_side":2,"subjID":"LennyAndresRodriguezOtalora31","gender":"0","age":"11","school":"6"},{"start_time":1551900606285,"click_time":1551900607535,"finger_time":1551900607136,"fix_duration":1248.76466485863,"trial":23,"RT":851,"MT":399,"sideResp":2,"stimulus":"img/900/equaldotanddens/R/7_Ratio_900_L_9_R_10.png","xmouse":[793,793,793,793,793,793,793,793,793,793,793,793,793,793,793,793,793,793,793,793,793,793,793,793,793,793,793,793,793,793,793,793,793,793,793,793,793,793,793,793,797,805,831,842,852,861,870,888,899,908,918,943,967,983,998,1008,1013,1020,1024,1029,1038,1053,1078],"ymouse":[527,527,527,527,527,527,527,527,527,527,527,527,527,527,527,527,527,527,527,527,527,527,527,527,527,527,527,527,527,527,527,527,527,527,527,527,527,527,527,517,507,489,427,402,378,358,338,301,285,272,257,221,189,166,144,127,114,100,95,89,81,71,56],"timestamp_mouse":[12,30,62,71,91,110,132,150,171,190,212,230,250,270,292,311,331,351,372,392,410,430,451,471,490,511,531,552,572,591,610,631,651,672,690,710,731,751,772,790,810,830,850,872,891,912,930,952,971,990,1010,1032,1051,1072,1091,1110,1131,1150,1171,1191,1211,1231,1250],"xSR":741.5,"ySR":469.95,"xT1":424.9,"yT1":0,"xT2":1058.1,"yT2":0,"toosoon":0,"cond_shown":"equaldotanddens","ratio_trial":900,"smaller_num":"9","larger_num":"10","correct_side":2,"subjID":"LennyAndresRodriguezOtalora31","gender":"0","age":"11","school":"6"},{"start_time":1551900610835,"click_time":1551900612036,"finger_time":1551900611735,"fix_duration":997.9983352135107,"trial":24,"RT":900,"MT":301,"sideResp":2,"stimulus":"img/750/equaldotsize/R/15_Ratio_750_L_9_R_12.png","xmouse":[784,784,784,784,784,785,786,786,787,787,787,787,787,787,787,787,787,787,787,787,787,787,787,787,787,787,787,787,787,787,787,787,787,787,787,787,787,787,787,787,787,789,792,801,811,857,876,891,900,909,921,925,938,945,973,1008,1019,1028,1038,1053,1097],"ymouse":[524,524,524,524,524,523,523,523,522,522,522,522,522,522,522,522,522,522,522,522,522,522,522,522,522,522,522,522,522,522,522,522,522,522,522,522,522,522,522,522,522,517,512,500,485,438,418,395,370,336,261,234,193,180,139,101,91,82,73,64,45],"timestamp_mouse":[8,21,42,60,81,100,122,140,160,181,201,221,242,260,282,301,321,341,360,381,401,420,441,461,480,502,521,541,561,581,600,620,642,661,681,701,722,741,761,781,800,821,841,860,881,900,922,941,962,980,1001,1020,1040,1061,1081,1100,1120,1141,1160,1181,1201],"xSR":741.5,"ySR":469.95,"xT1":424.9,"yT1":0,"xT2":1058.1,"yT2":0,"toosoon":0,"cond_shown":"equaldotsize","ratio_trial":750,"smaller_num":"9","larger_num":"12","correct_side":2,"subjID":"LennyAndresRodriguezOtalora31","gender":"0","age":"11","school":"6"},{"start_time":1551900614210,"click_time":1551900615336,"finger_time":1551900614536,"fix_duration":1232.45290376992,"trial":25,"RT":326,"MT":800,"sideResp":1,"stimulus":"img/500/randomdotsizeEA/L/5_Ratio_500_L_4_R_2.png","xmouse":[785,785,785,785,785,785,785,785,785,785,785,785,785,785,785,782,772,742,727,716,707,696,689,683,681,681,681,681,681,681,681,678,674,668,664,661,654,639,634,633,632,624,611,597,575,552,542,542,542,542,542,542,542,542,542,542,499],"ymouse":[516,516,516,516,516,516,516,516,516,516,516,516,512,505,493,478,456,417,402,388,379,367,361,355,350,350,350,350,349,348,345,333,325,312,305,298,289,269,261,253,243,205,158,123,74,30,9,9,9,9,9,9,9,9,9,9,24],"timestamp_mouse":[11,37,46,65,85,106,125,146,166,186,206,225,246,266,286,306,326,345,365,386,406,426,445,465,486,505,526,546,566,586,606,626,645,666,685,705,725,747,765,786,805,827,845,865,887,906,926,947,965,986,1005,1026,1045,1065,1086,1105,1126],"xSR":741.5,"ySR":469.95,"xT1":424.9,"yT1":0,"xT2":1058.1,"yT2":0,"toosoon":0,"cond_shown":"randomdotsizeEA","ratio_trial":500,"smaller_num":"2","larger_num":"4","correct_side":1,"subjID":"LennyAndresRodriguezOtalora31","gender":"0","age":"11","school":"6"},{"start_time":1551900618446,"click_time":1551900619856,"finger_time":1551900619435,"fix_duration":349.80963546739474,"trial":26,"RT":989,"MT":421,"sideResp":2,"stimulus":"img/250/randomdotsizeEA/R/9_Ratio_250_L_3_R_12.png","xmouse":[750,750,750,750,750,750,750,750,750,750,751,753,755,755,757,757,758,759,761,762,762,762,762,762,762,762,762,762,762,762,762,762,762,762,762,762,762,762,762,763,763,763,763,763,763,763,763,767,799,909,961,999,1007,1010,1018,1018,1018,1018,1018,1018,1018,1018,1018,1018,1018,1018,1018,1018,1018,1084],"ymouse":[550,550,550,550,550,550,550,550,550,550,550,549,548,547,546,546,545,544,543,542,542,542,542,542,542,542,542,542,542,542,542,542,542,542,542,542,542,542,542,541,541,541,541,541,541,541,541,523,447,192,91,34,20,14,3,3,3,3,3,3,3,3,3,3,3,3,3,3,3,1],"timestamp_mouse":[30,49,70,90,123,130,150,170,190,210,229,250,271,289,310,331,350,370,390,409,431,449,471,490,509,529,550,571,590,611,629,649,669,689,709,729,749,769,790,809,829,849,870,889,909,930,949,971,989,1009,1029,1051,1071,1091,1109,1129,1149,1170,1189,1210,1230,1250,1270,1291,1310,1330,1350,1369,1389,1409],"xSR":741.5,"ySR":469.95,"xT1":424.9,"yT1":0,"xT2":1058.1,"yT2":0,"toosoon":0,"cond_shown":"randomdotsizeEA","ratio_trial":250,"smaller_num":"3","larger_num":"12","correct_side":2,"subjID":"LennyAndresRodriguezOtalora31","gender":"0","age":"11","school":"6"},{"start_time":1551900622465,"click_time":1551900623855,"finger_time":1551900623336,"fix_duration":429.62405718923367,"trial":27,"RT":871,"MT":519,"sideResp":2,"stimulus":"img/750/randomdotsizeEA/R/12_Ratio_750_L_3_R_4.png","xmouse":[795,795,795,795,795,795,795,795,795,795,795,795,795,795,795,795,795,795,795,795,795,795,795,795,795,795,795,795,795,795,795,795,795,795,795,795,795,795,795,794,797,798,798,795,785,775,775,777,786,804,842,858,878,916,1023,1071,1087,1093,1099,1101,1101,1102,1104,1108,1116,1116,1116,1116,1116,1116],"ymouse":[545,545,545,545,545,545,545,545,545,545,545,545,545,545,545,545,545,544,544,544,544,544,544,544,543,543,542,542,542,542,542,541,538,538,538,538,538,538,538,526,512,493,473,454,438,423,418,410,399,379,346,329,312,287,224,190,177,169,160,150,146,140,133,125,110,107,107,106,105,98],"timestamp_mouse":[15,38,51,71,90,111,130,151,172,190,210,231,250,272,290,311,331,350,370,391,410,430,450,471,490,512,531,551,570,590,610,630,650,672,690,710,730,750,771,790,811,831,851,871,890,910,932,950,970,991,1011,1031,1051,1071,1091,1110,1131,1150,1171,1192,1212,1230,1251,1271,1290,1310,1331,1351,1371,1390],"xSR":741.5,"ySR":469.95,"xT1":424.9,"yT1":0,"xT2":1058.1,"yT2":0,"toosoon":0,"cond_shown":"randomdotsizeEA","ratio_trial":750,"smaller_num":"3","larger_num":"4","correct_side":2,"subjID":"LennyAndresRodriguezOtalora31","gender":"0","age":"11","school":"6"},{"start_time":1551900625819,"click_time":1551900626936,"finger_time":1551900626616,"fix_duration":1042.6786712411606,"trial":28,"RT":797,"MT":320,"sideResp":2,"stimulus":"img/250/equaldotanddens/R/8_Ratio_250_L_1_R_4.png","xmouse":[767,767,767,767,767,767,767,767,767,767,767,767,767,767,767,767,767,767,767,767,767,767,767,767,767,767,767,767,767,767,767,767,767,767,767,767,767,780,815,868,924,965,999,1005,1011,1017,1024,1031,1031,1031,1034,1044,1088,1106,1113,1115],"ymouse":[517,517,517,517,517,517,517,517,517,517,517,517,517,517,517,517,517,517,517,517,517,517,517,517,517,517,517,517,517,517,517,517,517,517,517,517,517,504,480,452,431,412,390,380,365,352,335,305,293,278,258,231,166,136,116,99],"timestamp_mouse":[17,39,57,76,96,118,137,156,177,196,216,237,257,276,296,317,337,356,377,397,417,436,457,476,497,516,537,557,577,597,616,636,658,676,696,716,737,758,778,797,816,837,858,877,896,917,938,957,976,996,1017,1037,1056,1076,1096,1117],"xSR":741.5,"ySR":469.95,"xT1":424.9,"yT1":0,"xT2":1058.1,"yT2":0,"toosoon":0,"cond_shown":"equaldotanddens","ratio_trial":250,"smaller_num":"1","larger_num":"4","correct_side":2,"subjID":"LennyAndresRodriguezOtalora31","gender":"0","age":"11","school":"6"},{"start_time":1551900628479,"click_time":1551900630655,"finger_time":1551900629997,"fix_duration":420.5084587899878,"trial":29,"RT":1518,"MT":658,"sideResp":1,"stimulus":"img/750/equaldotanddens/L/13_Ratio_750_L_8_R_6.png","xmouse":[838,838,838,838,838,838,838,838,838,838,838,838,838,838,838,838,838,838,838,838,838,838,838,838,838,838,838,838,838,838,838,838,838,838,838,838,838,838,838,838,838,838,838,838,838,838,838,838,838,838,838,837,837,837,837,837,837,837,837,837,837,837,837,837,835,835,834,833,833,833,833,833,833,833,827,818,803,791,777,755,745,733,712,692,676,658,649,638,624,592,544,519,409,342,284,277,276,278,290,290,290,290,290,290,290,367,388,414,436],"ymouse":[504,504,504,504,504,504,504,504,504,504,504,504,504,504,504,504,504,504,504,504,504,504,504,504,504,504,503,503,503,503,503,503,501,500,500,500,500,500,500,500,500,500,500,500,500,500,500,500,500,500,500,500,500,500,500,500,500,500,500,500,500,500,500,500,500,500,500,497,495,490,490,489,489,486,475,465,454,444,433,413,402,388,366,346,333,312,298,283,264,227,175,155,89,61,34,28,21,16,2,2,2,2,2,2,2,20,37,52,62],"timestamp_mouse":[17,37,57,77,97,118,137,157,178,197,217,237,257,276,297,317,338,357,376,397,418,436,456,477,496,516,538,557,577,596,616,636,658,676,697,718,737,756,777,797,817,836,858,877,896,918,937,956,977,997,1017,1037,1056,1077,1096,1117,1136,1158,1176,1196,1217,1236,1257,1277,1297,1317,1337,1357,1378,1396,1416,1436,1456,1476,1496,1518,1537,1558,1577,1596,1616,1637,1657,1678,1697,1717,1736,1757,1776,1796,1816,1837,1857,1877,1896,1916,1937,1958,1978,1996,2016,2037,2057,2078,2097,2116,2138,2156,2176],"xSR":741.5,"ySR":469.95,"xT1":424.9,"yT1":0,"xT2":1058.1,"yT2":0,"toosoon":0,"cond_shown":"equaldotanddens","ratio_trial":750,"smaller_num":"6","larger_num":"8","correct_side":1,"subjID":"LennyAndresRodriguezOtalora31","gender":"0","age":"11","school":"6"},{"start_time":1551900632469,"click_time":1551900633695,"finger_time":1551900633295,"fix_duration":892.1973880746473,"trial":30,"RT":826,"MT":400,"sideResp":1,"stimulus":"img/250/randomdotsizeEA/L/2_Ratio_250_L_16_R_4.png","xmouse":[815,815,815,815,815,815,815,815,815,815,815,815,815,815,815,815,815,815,815,815,815,815,815,815,815,815,815,815,815,815,815,815,815,815,815,815,815,813,803,777,744,670,656,643,631,618,568,534,512,506,505,521,526,526,525,523,520,518,515,509,487,469],"ymouse":[519,519,519,519,519,519,519,519,519,519,519,519,519,519,519,519,519,519,519,519,519,519,519,519,519,519,519,519,519,519,519,519,519,519,519,519,519,519,519,514,500,430,409,391,370,347,295,269,251,235,222,188,179,174,167,160,144,136,127,118,102,92],"timestamp_mouse":[10,41,46,67,86,106,126,147,167,187,206,227,246,266,286,306,326,346,367,388,406,427,447,467,486,506,526,547,567,587,606,626,646,667,686,706,728,747,767,788,807,826,847,867,886,907,926,946,967,987,1007,1027,1047,1066,1088,1107,1126,1146,1166,1187,1208,1226],"xSR":741.5,"ySR":469.95,"xT1":424.9,"yT1":0,"xT2":1058.1,"yT2":0,"toosoon":0,"cond_shown":"randomdotsizeEA","ratio_trial":250,"smaller_num":"4","larger_num":"16","correct_side":1,"subjID":"LennyAndresRodriguezOtalora31","gender":"0","age":"11","school":"6"},{"start_time":1551900635080,"click_time":1551900636195,"finger_time":1551900635916,"fix_duration":503.03462870621706,"trial":31,"RT":836,"MT":279,"sideResp":2,"stimulus":"img/750/randomdotsizeEA/R/2_Ratio_750_L_6_R_8.png","xmouse":[776,776,775,775,775,775,775,775,775,775,775,775,775,775,775,774,772,772,772,772,772,772,772,772,772,772,772,772,772,772,772,772,772,772,772,772,772,772,773,780,803,818,834,851,868,905,921,936,950,954,990,1005,1025,1046,1063,1074],"ymouse":[515,515,516,516,516,516,516,516,516,516,516,516,516,516,516,516,518,518,518,518,518,518,518,518,518,518,518,518,518,518,518,518,518,518,518,518,518,518,517,509,482,464,444,420,391,321,285,252,218,207,157,141,127,114,105,98],"timestamp_mouse":[16,37,55,75,97,115,135,156,176,195,215,235,256,275,295,316,336,355,375,395,416,435,455,476,495,515,535,555,576,595,615,635,655,675,696,715,735,756,776,797,816,836,855,877,896,916,935,955,976,995,1015,1035,1057,1076,1095,1115],"xSR":741.5,"ySR":469.95,"xT1":424.9,"yT1":0,"xT2":1058.1,"yT2":0,"toosoon":0,"cond_shown":"randomdotsizeEA","ratio_trial":750,"smaller_num":"6","larger_num":"8","correct_side":2,"subjID":"LennyAndresRodriguezOtalora31","gender":"0","age":"11","school":"6"},{"start_time":1551900638289,"click_time":1551900639455,"finger_time":1551900639076,"fix_duration":1112.449664815137,"trial":32,"RT":787,"MT":379,"sideResp":1,"stimulus":"img/900/equaldotsize/R/13_Ratio_900_L_18_R_20.png","xmouse":[796,796,796,796,796,796,796,796,796,796,797,799,801,802,803,805,806,806,806,806,806,806,806,806,806,806,806,806,806,806,806,806,806,806,806,806,792,783,761,702,595,555,522,489,451,414,356,343,341,353,372,401,404,404,404,407,411,420,426],"ymouse":[524,524,524,524,524,524,524,524,524,524,523,521,518,516,516,512,511,511,511,511,511,511,511,511,511,511,511,511,511,511,511,511,511,511,511,511,503,496,477,434,359,327,295,265,234,203,152,136,110,93,74,57,57,57,57,57,57,57,57],"timestamp_mouse":[11,26,46,66,86,106,127,146,168,187,206,227,247,268,287,307,326,346,367,387,406,426,447,466,487,506,526,547,567,586,606,627,647,666,688,708,726,746,766,787,807,828,847,868,887,907,926,946,967,988,1007,1027,1047,1066,1087,1107,1126,1147,1166],"xSR":741.5,"ySR":469.95,"xT1":424.9,"yT1":0,"xT2":1058.1,"yT2":0,"toosoon":0,"cond_shown":"equaldotsize","ratio_trial":900,"smaller_num":"18","larger_num":"20","correct_side":2,"subjID":"LennyAndresRodriguezOtalora31","gender":"0","age":"11","school":"6"},{"start_time":1551900641612,"click_time":1551900642956,"finger_time":1551900642436,"fix_duration":1034.9892400884153,"trial":33,"RT":824,"MT":520,"sideResp":2,"stimulus":"img/750/randomdotsizeEA/R/11_Ratio_750_L_12_R_16.png","xmouse":[790,790,790,790,790,790,790,790,790,790,790,790,790,790,790,790,790,790,790,790,790,790,790,790,790,790,790,790,790,790,790,790,790,790,790,790,790,790,791,794,813,841,863,885,921,944,964,977,987,996,1006,1009,1016,1027,1043,1045,1046,1046,1046,1046,1046,1046,1046,1047,1047,1051,1056,1064],"ymouse":[507,507,507,507,507,507,507,507,507,507,507,507,507,507,507,507,507,507,507,507,507,507,507,507,507,507,507,507,507,507,507,507,507,507,507,507,507,507,507,504,482,443,411,374,290,234,188,156,133,114,82,72,59,44,26,25,25,25,25,25,30,32,32,33,33,33,33,33],"timestamp_mouse":[10,31,43,64,84,104,124,145,163,184,204,224,243,264,285,303,323,343,363,384,403,423,445,464,484,505,524,544,565,584,604,623,644,665,683,704,724,744,764,783,804,824,844,865,885,903,924,943,963,983,1004,1024,1043,1064,1085,1103,1124,1144,1163,1184,1204,1224,1243,1263,1284,1304,1323,1343],"xSR":741.5,"ySR":469.95,"xT1":424.9,"yT1":0,"xT2":1058.1,"yT2":0,"toosoon":0,"cond_shown":"randomdotsizeEA","ratio_trial":750,"smaller_num":"12","larger_num":"16","correct_side":2,"subjID":"LennyAndresRodriguezOtalora31","gender":"0","age":"11","school":"6"},{"start_time":1551900646394,"click_time":1551900647556,"finger_time":1551900647236,"fix_duration":996.9774289035159,"trial":34,"RT":842,"MT":320,"sideResp":1,"stimulus":"img/750/equaldotsize/L/14_Ratio_750_L_8_R_6.png","xmouse":[779,779,779,779,779,779,779,779,779,779,779,779,779,779,779,779,779,779,779,779,779,779,779,779,779,779,779,779,779,779,779,779,779,779,779,779,779,779,779,779,779,779,762,735,698,661,632,629,626,624,622,616,610,602,588,569,535,527,519],"ymouse":[557,557,557,557,557,557,557,557,557,557,557,557,557,557,557,557,557,557,557,557,557,557,557,557,557,557,557,557,557,557,557,557,557,557,557,557,557,557,557,556,543,473,408,324,242,181,129,120,115,111,109,108,108,108,106,104,97,97,96],"timestamp_mouse":[11,37,42,61,81,102,121,142,161,181,202,223,241,262,282,301,322,342,362,381,402,421,442,463,482,501,521,541,561,582,603,622,642,662,681,701,721,741,761,782,803,821,842,862,882,901,922,941,962,981,1001,1021,1041,1061,1083,1102,1123,1141,1162],"xSR":741.5,"ySR":469.95,"xT1":424.9,"yT1":0,"xT2":1058.1,"yT2":0,"toosoon":0,"cond_shown":"equaldotsize","ratio_trial":750,"smaller_num":"6","larger_num":"8","correct_side":1,"subjID":"LennyAndresRodriguezOtalora31","gender":"0","age":"11","school":"6"},{"start_time":1551900649853,"click_time":1551900651055,"finger_time":1551900650656,"fix_duration":1315.3566777200479,"trial":35,"RT":803,"MT":399,"sideResp":1,"stimulus":"img/250/equaldotsize/L/15_Ratio_250_L_12_R_3.png","xmouse":[785,785,785,785,785,785,785,785,785,785,785,785,785,785,785,785,785,785,785,785,785,785,785,785,785,785,785,785,785,785,785,785,785,785,785,785,785,785,773,756,741,726,710,695,663,634,608,585,563,538,533,531,527,521,518,518,521,531,538,532,518],"ymouse":[514,514,514,514,514,514,514,514,514,514,514,514,514,514,514,514,514,514,514,514,514,514,514,514,514,514,514,514,514,514,514,514,514,514,514,514,514,514,511,503,494,479,462,436,366,318,284,257,228,184,169,159,148,134,129,127,122,115,105,80,66],"timestamp_mouse":[8,23,41,62,82,102,122,142,161,183,201,221,242,263,283,301,322,342,362,383,402,421,443,463,483,502,522,542,562,582,603,621,643,662,683,703,722,742,763,782,803,822,842,861,883,903,922,942,962,982,1002,1023,1042,1063,1082,1102,1121,1142,1163,1183,1202],"xSR":741.5,"ySR":469.95,"xT1":424.9,"yT1":0,"xT2":1058.1,"yT2":0,"toosoon":0,"cond_shown":"equaldotsize","ratio_trial":250,"smaller_num":"3","larger_num":"12","correct_side":1,"subjID":"LennyAndresRodriguezOtalora31","gender":"0","age":"11","school":"6"},{"start_time":1551900673245,"click_time":1551900674476,"finger_time":1551900673894,"fix_duration":1446.5655037870404,"trial":36,"RT":649,"MT":582,"sideResp":1,"stimulus":"img/750/randomdotsizeEA/L/10_Ratio_750_L_4_R_3.png","xmouse":[795,795,795,795,795,795,795,795,795,795,795,795,795,795,795,795,795,795,795,795,795,795,795,795,795,795,795,795,795,795,788,758,733,699,684,674,658,642,618,575,508,410,398,397,418,424,424,424,424,424,424,424,424,424,424,424,424,424,424,424,456,465],"ymouse":[547,547,547,547,547,547,547,547,547,547,547,547,544,538,535,532,529,526,525,525,525,525,525,523,520,518,517,516,516,516,509,488,467,433,411,391,355,328,299,263,207,73,41,23,4,0,0,0,0,0,0,0,0,0,0,0,0,0,0,0,0,8],"timestamp_mouse":[10,29,51,70,89,110,130,151,170,190,210,231,250,269,291,310,330,351,371,390,410,430,451,471,491,510,529,549,571,591,610,630,649,671,691,710,730,750,770,790,810,829,849,871,890,910,930,950,969,991,1010,1030,1050,1070,1091,1111,1130,1150,1169,1190,1210,1230],"xSR":741.5,"ySR":469.95,"xT1":424.9,"yT1":0,"xT2":1058.1,"yT2":0,"toosoon":0,"cond_shown":"randomdotsizeEA","ratio_trial":750,"smaller_num":"3","larger_num":"4","correct_side":1,"subjID":"LennyAndresRodriguezOtalora31","gender":"0","age":"11","school":"6"},{"start_time":1551900676107,"click_time":1551900677115,"finger_time":1551900676635,"fix_duration":710.9930326300656,"trial":37,"RT":528,"MT":480,"sideResp":1,"stimulus":"img/750/equaldotsize/L/9_Ratio_750_L_4_R_3.png","xmouse":[810,810,810,810,810,810,810,810,807,794,788,782,779,776,776,776,776,776,776,776,776,776,776,776,775,754,703,655,616,615,615,615,615,615,598,579,564,547,534,572,628,664,681,682,662,648,630,611,591,532,509],"ymouse":[512,512,512,512,512,512,512,512,513,515,515,516,516,517,517,517,517,517,517,517,517,517,517,517,518,527,548,568,577,577,577,577,577,577,571,563,557,549,521,414,302,199,136,107,56,48,45,38,33,22,19],"timestamp_mouse":[8,35,47,69,89,107,128,148,169,188,209,227,248,267,287,307,328,347,368,389,407,428,448,468,489,509,528,549,569,588,608,628,649,668,688,708,729,748,770,788,808,828,847,868,888,909,928,949,968,988,1008],"xSR":741.5,"ySR":469.95,"xT1":424.9,"yT1":0,"xT2":1058.1,"yT2":0,"toosoon":0,"cond_shown":"equaldotsize","ratio_trial":750,"smaller_num":"3","larger_num":"4","correct_side":1,"subjID":"LennyAndresRodriguezOtalora31","gender":"0","age":"11","school":"6"},{"start_time":1551900679803,"click_time":1551900680735,"finger_time":1551900680455,"fix_duration":505.162812520833,"trial":38,"RT":652,"MT":280,"sideResp":1,"stimulus":"img/500/randomdotsizeEA/L/4_Ratio_500_L_18_R_9.png","xmouse":[785,785,785,785,785,785,785,785,785,785,785,785,785,785,785,785,785,785,785,785,785,785,785,785,785,785,785,785,785,782,773,747,737,700,659,649,645,645,649,671,688,697,697,681,615,548,462],"ymouse":[526,526,526,526,526,526,526,526,526,526,526,526,526,526,526,526,526,526,526,526,526,526,526,526,526,526,526,526,526,522,512,497,492,471,452,446,443,439,427,375,347,323,299,264,177,120,65],"timestamp_mouse":[12,49,52,71,91,112,133,152,171,192,213,232,251,273,292,312,333,352,373,392,412,432,451,473,492,513,532,552,573,592,612,633,652,672,691,712,732,752,772,793,811,832,852,872,892,911,931],"xSR":741.5,"ySR":469.95,"xT1":424.9,"yT1":0,"xT2":1058.1,"yT2":0,"toosoon":0,"cond_shown":"randomdotsizeEA","ratio_trial":500,"smaller_num":"9","larger_num":"18","correct_side":1,"subjID":"LennyAndresRodriguezOtalora31","gender":"0","age":"11","school":"6"},{"start_time":1551900682386,"click_time":1551900683195,"finger_time":1551900683116,"fix_duration":689.4702706663971,"trial":39,"RT":730,"MT":79,"sideResp":1,"stimulus":"img/750/randomdotsizeEA/L/6_Ratio_750_L_24_R_18.png","xmouse":[779,779,779,779,779,779,779,779,779,779,779,779,779,779,779,779,779,779,779,779,779,779,779,779,779,779,779,779,779,779,779,779,779,779,776,767,735,699,648,588,504],"ymouse":[517,517,517,517,517,517,517,517,517,517,517,517,517,517,517,517,517,517,517,517,517,517,517,517,517,517,517,517,517,517,517,517,517,515,505,476,361,263,170,102,21],"timestamp_mouse":[8,41,49,70,88,109,130,148,170,189,208,230,248,268,290,309,329,349,369,390,409,429,449,468,489,509,529,548,569,588,609,629,649,669,689,709,730,749,770,790,809],"xSR":741.5,"ySR":469.95,"xT1":424.9,"yT1":0,"xT2":1058.1,"yT2":0,"toosoon":0,"cond_shown":"randomdotsizeEA","ratio_trial":750,"smaller_num":"18","larger_num":"24","correct_side":1,"subjID":"LennyAndresRodriguezOtalora31","gender":"0","age":"11","school":"6"},{"start_time":1551900686689,"click_time":1551900687934,"finger_time":1551900687455,"fix_duration":1032.6022330194196,"trial":40,"RT":766,"MT":479,"sideResp":2,"stimulus":"img/500/equaldotsize/R/6_Ratio_500_L_9_R_18.png","xmouse":[775,775,775,775,775,775,775,775,775,775,775,775,775,775,775,775,775,775,775,775,775,775,775,775,775,775,775,775,775,775,775,775,775,775,775,775,781,798,826,866,913,963,978,993,1009,1024,1052,1055,1055,1055,1055,1055,1055,1055,1055,1055,1055,1055,1055,1055,1055,1081,1083],"ymouse":[518,518,518,518,518,518,518,518,518,518,518,518,518,518,518,518,518,518,518,518,518,518,518,518,518,518,518,518,518,518,518,518,518,518,518,518,503,480,448,385,310,223,185,150,115,77,14,2,2,2,2,2,2,2,2,2,2,2,2,2,2,0,8],"timestamp_mouse":[5,42,46,66,85,106,127,146,166,187,206,226,246,265,287,305,327,346,365,387,407,425,447,467,487,506,526,546,566,586,606,625,647,665,687,707,727,745,766,786,806,825,846,866,885,907,926,947,965,986,1005,1025,1045,1065,1086,1107,1127,1145,1165,1185,1205,1225,1245],"xSR":741.5,"ySR":469.95,"xT1":424.9,"yT1":0,"xT2":1058.1,"yT2":0,"toosoon":0,"cond_shown":"equaldotsize","ratio_trial":500,"smaller_num":"9","larger_num":"18","correct_side":2,"subjID":"LennyAndresRodriguezOtalora31","gender":"0","age":"11","school":"6"},{"start_time":1551900690284,"click_time":1551900691135,"finger_time":1551900691016,"fix_duration":1467.035419149528,"trial":41,"RT":732,"MT":119,"sideResp":2,"stimulus":"img/500/equaldotanddens/R/12_Ratio_500_L_1_R_2.png","xmouse":[786,786,786,786,786,786,786,786,786,786,786,786,786,786,786,786,786,786,786,786,786,786,786,786,786,786,786,786,786,786,786,786,786,786,786,788,835,886,945,1008,1051,1087,1091],"ymouse":[525,525,525,525,525,525,525,525,525,525,525,525,525,525,525,525,525,525,525,525,525,525,525,525,525,525,525,525,525,525,525,525,525,525,521,513,423,352,280,207,154,101,93],"timestamp_mouse":[10,31,51,70,91,110,132,151,172,191,212,230,251,271,292,311,331,350,372,392,411,431,452,470,491,511,530,552,571,590,612,631,651,670,691,711,732,752,771,792,812,830,850],"xSR":741.5,"ySR":469.95,"xT1":424.9,"yT1":0,"xT2":1058.1,"yT2":0,"toosoon":0,"cond_shown":"equaldotanddens","ratio_trial":500,"smaller_num":"1","larger_num":"2","correct_side":2,"subjID":"LennyAndresRodriguezOtalora31","gender":"0","age":"11","school":"6"},{"start_time":1551900693037,"click_time":1551900693956,"finger_time":1551900693914,"fix_duration":1240.145194641284,"trial":42,"RT":877,"MT":42,"sideResp":1,"stimulus":"img/900/equaldotanddens/R/14_Ratio_900_L_18_R_20.png","xmouse":[815,815,815,815,815,815,815,815,815,815,815,815,815,815,815,815,815,815,815,815,815,815,815,815,815,815,815,815,815,815,815,815,815,815,815,815,815,815,815,815,810,806,791,754,571,493],"ymouse":[553,553,553,553,553,553,553,553,553,553,553,553,553,553,553,553,553,553,553,553,553,553,553,553,553,553,553,553,553,553,553,553,553,553,553,553,553,553,553,553,546,540,510,437,151,50],"timestamp_mouse":[17,39,61,78,98,119,137,158,179,197,219,239,259,278,298,319,337,357,379,399,419,439,459,478,497,519,539,559,578,598,619,639,659,678,698,719,738,759,778,799,818,839,858,877,898,919],"xSR":741.5,"ySR":469.95,"xT1":424.9,"yT1":0,"xT2":1058.1,"yT2":0,"toosoon":0,"cond_shown":"equaldotanddens","ratio_trial":900,"smaller_num":"18","larger_num":"20","correct_side":2,"subjID":"LennyAndresRodriguezOtalora31","gender":"0","age":"11","school":"6"},{"start_time":1551900695209,"click_time":1551900696255,"finger_time":1551900696195,"fix_duration":250,"trial":43,"RT":986,"MT":60,"sideResp":1,"stimulus":"img/900/equaldotanddens/L/8_Ratio_900_L_20_R_18.png","xmouse":[803,803,803,803,803,803,803,803,803,803,803,803,803,803,803,803,803,803,803,803,803,803,803,803,803,803,803,803,803,803,803,803,803,803,803,803,803,803,803,803,803,803,803,803,803,803,803,802,792,774,736,599,504],"ymouse":[515,515,515,515,515,515,515,515,515,515,515,515,515,515,515,515,515,515,515,515,515,515,515,515,515,515,515,515,515,515,515,515,515,515,515,515,515,515,515,515,515,515,515,515,515,515,515,515,499,468,399,201,74],"timestamp_mouse":[10,36,46,67,85,106,126,145,167,185,206,226,246,266,285,306,327,347,367,386,406,425,445,465,486,507,526,547,565,587,606,626,646,666,687,705,725,746,766,786,806,826,845,866,886,907,925,947,966,986,1006,1027,1046],"xSR":741.5,"ySR":469.95,"xT1":424.9,"yT1":0,"xT2":1058.1,"yT2":0,"toosoon":0,"cond_shown":"equaldotanddens","ratio_trial":900,"smaller_num":"18","larger_num":"20","correct_side":1,"subjID":"LennyAndresRodriguezOtalora31","gender":"0","age":"11","school":"6"},{"start_time":1551900698217,"click_time":1551900699035,"finger_time":1551900698935,"fix_duration":1080.5269013784673,"trial":44,"RT":718,"MT":100,"sideResp":1,"stimulus":"img/250/randomdotsizeEA/L/3_Ratio_250_L_8_R_2.png","xmouse":[766,766,766,766,766,766,766,766,766,766,766,766,766,766,766,766,766,766,766,766,766,766,766,766,766,766,766,766,766,766,766,766,766,766,766,718,675,615,550,502,458],"ymouse":[509,509,509,509,509,509,509,509,509,509,509,509,509,509,509,509,509,509,509,509,509,509,509,509,509,509,509,509,509,509,509,509,509,509,508,452,405,326,231,146,49],"timestamp_mouse":[21,38,58,77,98,118,137,158,178,198,218,238,257,278,299,318,339,358,378,397,418,439,458,478,498,518,537,559,579,598,618,638,657,678,697,718,738,757,778,798,818],"xSR":741.5,"ySR":469.95,"xT1":424.9,"yT1":0,"xT2":1058.1,"yT2":0,"toosoon":0,"cond_shown":"randomdotsizeEA","ratio_trial":250,"smaller_num":"2","larger_num":"8","correct_side":1,"subjID":"LennyAndresRodriguezOtalora31","gender":"0","age":"11","school":"6"},{"start_time":1551900701038,"click_time":1551900702037,"finger_time":1551900701736,"fix_duration":1141.445958017461,"trial":45,"RT":698,"MT":301,"sideResp":2,"stimulus":"img/250/equaldotsize/R/13_Ratio_250_L_2_R_8.png","xmouse":[768,768,768,769,769,769,769,769,769,769,769,769,769,769,769,769,769,769,769,769,769,769,769,769,769,769,769,769,769,769,769,769,779,798,875,919,962,1007,1033,1045,1051,1051,1052,1060,1087,1096,1101,1101,1101,1101],"ymouse":[518,518,518,521,522,522,523,523,523,523,523,523,523,523,523,523,523,523,523,523,523,523,523,523,523,523,523,523,523,523,523,523,507,476,383,338,292,238,202,181,160,156,151,142,124,115,107,105,101,96],"timestamp_mouse":[16,37,57,78,97,116,137,158,176,196,217,237,256,276,297,318,337,357,378,397,417,437,458,477,497,518,538,556,577,598,617,636,657,678,698,716,737,757,777,796,817,837,857,877,898,916,937,957,978,999],"xSR":741.5,"ySR":469.95,"xT1":424.9,"yT1":0,"xT2":1058.1,"yT2":0,"toosoon":0,"cond_shown":"equaldotsize","ratio_trial":250,"smaller_num":"2","larger_num":"8","correct_side":2,"subjID":"LennyAndresRodriguezOtalora31","gender":"0","age":"11","school":"6"},{"start_time":1551900703573,"click_time":1551900705455,"finger_time":1551900705296,"fix_duration":695.7947100290057,"trial":46,"RT":1723,"MT":159,"sideResp":1,"stimulus":"img/500/randomdotsizeEA/L/10_Ratio_500_L_4_R_2.png","xmouse":[786,789,789,790,790,790,790,790,790,790,790,790,790,790,790,790,790,790,790,790,790,790,790,790,790,790,790,790,790,790,790,790,790,790,790,790,790,790,790,790,790,790,790,790,790,790,790,790,790,790,790,790,790,790,790,790,790,790,790,790,790,790,790,790,790,790,790,790,790,790,790,790,790,790,790,790,790,790,790,790,790,790,788,783,760,746,731,718,706,675,653,631,602,544,445],"ymouse":[562,566,566,568,568,568,568,568,568,568,568,568,568,568,568,568,568,568,568,568,568,568,568,568,568,568,568,568,568,568,568,568,568,568,568,568,568,568,568,568,568,568,568,568,568,568,568,568,568,568,568,568,568,568,568,568,568,568,568,568,568,568,568,568,568,568,568,568,568,568,568,568,568,568,568,568,568,568,568,568,568,563,561,553,535,525,511,492,467,405,373,342,300,169,35],"timestamp_mouse":[1,40,42,63,83,102,123,142,161,183,201,223,242,261,282,302,322,342,362,381,402,423,443,461,481,502,521,543,561,581,603,622,643,662,681,701,723,741,762,781,802,821,843,862,883,903,922,943,961,982,1003,1022,1042,1063,1082,1103,1122,1142,1162,1183,1202,1222,1243,1263,1281,1303,1321,1343,1363,1382,1402,1423,1442,1461,1482,1503,1523,1543,1563,1582,1603,1622,1641,1661,1682,1702,1723,1742,1763,1782,1802,1823,1841,1863,1882],"xSR":741.5,"ySR":469.95,"xT1":424.9,"yT1":0,"xT2":1058.1,"yT2":0,"toosoon":0,"cond_shown":"randomdotsizeEA","ratio_trial":500,"smaller_num":"2","larger_num":"4","correct_side":1,"subjID":"LennyAndresRodriguezOtalora31","gender":"0","age":"11","school":"6"},{"start_time":1551900706850,"click_time":1551900707855,"finger_time":1551900707595,"fix_duration":774.3559221379857,"trial":47,"RT":745,"MT":260,"sideResp":2,"stimulus":"img/500/randomdotsizeEA/R/2_Ratio_500_L_3_R_6.png","xmouse":[771,771,771,771,771,771,771,771,771,771,771,771,771,771,771,771,771,771,771,771,771,771,771,771,771,771,771,771,771,771,771,771,771,771,776,797,833,872,938,983,1063,1082,1091,1094,1095,1096,1097,1099,1102,1106,1112],"ymouse":[516,516,516,516,516,516,516,516,516,516,516,516,516,516,516,516,516,516,516,516,516,516,516,516,516,516,516,516,516,516,516,516,516,516,515,504,481,459,416,381,281,247,225,212,202,192,186,179,155,127,47],"timestamp_mouse":[8,34,45,66,84,104,125,146,166,185,206,224,245,264,286,305,325,345,366,386,405,425,445,465,485,504,525,546,564,584,605,626,644,666,685,705,724,745,766,785,805,824,844,865,885,905,924,946,966,985,1005],"xSR":741.5,"ySR":469.95,"xT1":424.9,"yT1":0,"xT2":1058.1,"yT2":0,"toosoon":0,"cond_shown":"randomdotsizeEA","ratio_trial":500,"smaller_num":"3","larger_num":"6","correct_side":2,"subjID":"LennyAndresRodriguezOtalora31","gender":"0","age":"11","school":"6"},{"start_time":1551900710059,"click_time":1551900711077,"finger_time":1551900710835,"fix_duration":1162.8243696563004,"trial":48,"RT":776,"MT":242,"sideResp":1,"stimulus":"img/900/equaldotanddens/L/4_Ratio_900_L_20_R_18.png","xmouse":[810,810,810,810,810,810,810,810,810,810,810,810,810,810,810,810,810,810,810,810,810,810,810,810,810,810,810,810,810,810,810,810,810,809,804,788,782,770,753,692,669,655,644,637,626,588,563,546,526,510,494],"ymouse":[545,545,545,545,545,545,545,545,545,545,545,545,545,545,545,545,545,545,545,545,545,545,545,545,545,545,545,545,545,545,545,545,545,545,543,522,510,488,467,425,411,400,392,385,376,346,314,278,218,140,20],"timestamp_mouse":[16,36,56,76,97,118,136,156,178,197,216,237,256,276,296,316,336,356,377,396,416,436,457,476,497,516,538,557,576,598,616,637,656,676,696,717,736,756,776,797,816,836,857,876,896,917,938,957,977,997,1018],"xSR":741.5,"ySR":469.95,"xT1":424.9,"yT1":0,"xT2":1058.1,"yT2":0,"toosoon":0,"cond_shown":"equaldotanddens","ratio_trial":900,"smaller_num":"18","larger_num":"20","correct_side":1,"subjID":"LennyAndresRodriguezOtalora31","gender":"0","age":"11","school":"6"},{"start_time":1551900713057,"click_time":1551900714275,"finger_time":1551900713895,"fix_duration":1300.895442496122,"trial":49,"RT":838,"MT":380,"sideResp":2,"stimulus":"img/900/equaldotsize/R/7_Ratio_900_L_9_R_10.png","xmouse":[808,808,808,808,808,808,808,808,809,810,811,812,812,812,812,812,812,812,812,812,812,812,812,812,812,812,812,812,812,812,813,813,813,813,814,814,814,814,814,818,837,849,859,867,878,962,1011,1048,1084,1102,1116,1116,1116,1117,1117,1115,1114,1114,1114,1114,1124],"ymouse":[529,529,529,529,529,529,529,529,529,528,527,526,526,526,526,526,526,526,526,526,526,526,526,526,526,526,526,526,526,526,525,524,524,523,521,520,520,519,517,511,489,475,463,451,434,335,279,236,189,157,132,130,126,122,119,108,108,108,108,104,51],"timestamp_mouse":[37,38,59,78,98,119,140,158,178,199,218,238,258,279,299,318,339,358,379,400,418,438,458,478,498,520,538,559,578,598,618,639,659,678,698,720,738,758,779,798,818,838,859,878,899,918,938,958,978,1000,1018,1038,1058,1079,1099,1119,1139,1160,1179,1198,1218],"xSR":741.5,"ySR":469.95,"xT1":424.9,"yT1":0,"xT2":1058.1,"yT2":0,"toosoon":0,"cond_shown":"equaldotsize","ratio_trial":900,"smaller_num":"9","larger_num":"10","correct_side":2,"subjID":"LennyAndresRodriguezOtalora31","gender":"0","age":"11","school":"6"},{"start_time":1551900715408,"click_time":1551900716657,"finger_time":1551900716316,"fix_duration":250,"trial":50,"RT":908,"MT":341,"sideResp":1,"stimulus":"img/750/randomdotsizeEA/L/6_Ratio_750_L_24_R_18.png","xmouse":[766,766,766,766,766,766,766,766,766,766,766,766,766,766,765,764,763,760,759,759,759,759,759,759,759,759,759,759,759,759,759,759,759,759,759,759,759,759,759,759,759,759,757,752,746,736,731,711,668,640,611,582,560,530,527,527,527,527,527,527,526,525,522],"ymouse":[506,506,506,506,506,506,506,506,506,506,506,506,506,506,505,503,501,498,496,496,496,496,496,496,496,496,496,496,496,496,496,496,496,496,496,496,496,496,496,496,496,496,494,487,474,438,420,349,218,153,100,67,45,22,20,20,20,20,20,20,20,20,21],"timestamp_mouse":[11,35,47,68,88,107,128,147,168,188,207,228,249,267,288,308,327,347,367,387,409,427,447,469,488,508,529,547,567,587,607,628,648,668,688,707,727,748,769,787,808,828,847,867,888,908,928,947,967,989,1008,1029,1047,1067,1087,1108,1128,1148,1168,1187,1207,1228,1249],"xSR":741.5,"ySR":469.95,"xT1":424.9,"yT1":0,"xT2":1058.1,"yT2":0,"toosoon":0,"cond_shown":"randomdotsizeEA","ratio_trial":750,"smaller_num":"18","larger_num":"24","correct_side":1,"subjID":"LennyAndresRodriguezOtalora31","gender":"0","age":"11","school":"6"},{"start_time":1551900717827,"click_time":1551900718815,"finger_time":1551900718535,"fix_duration":250,"trial":51,"RT":708,"MT":280,"sideResp":2,"stimulus":"img/500/equaldotsize/R/1_Ratio_500_L_9_R_18.png","xmouse":[789,791,792,794,794,795,797,801,802,803,803,804,807,807,808,808,808,808,808,808,808,808,808,808,808,808,808,808,808,808,808,808,808,809,812,818,832,849,899,921,945,967,981,1012,1040,1059,1074,1092,1093,1095],"ymouse":[510,508,507,506,506,505,504,501,500,499,499,497,496,495,494,494,494,494,494,494,494,494,494,494,494,494,494,494,494,494,494,493,488,482,470,454,434,413,365,348,326,307,291,249,215,191,166,122,106,91],"timestamp_mouse":[8,29,48,68,90,110,128,149,168,190,210,228,249,269,288,308,328,349,370,390,409,429,448,468,489,510,528,548,568,588,608,628,649,669,689,708,728,749,768,789,808,828,848,868,888,908,928,950,968,988],"xSR":741.5,"ySR":469.95,"xT1":424.9,"yT1":0,"xT2":1058.1,"yT2":0,"toosoon":0,"cond_shown":"equaldotsize","ratio_trial":500,"smaller_num":"9","larger_num":"18","correct_side":2,"subjID":"LennyAndresRodriguezOtalora31","gender":"0","age":"11","school":"6"},{"start_time":1551900720062,"click_time":1551900721396,"finger_time":1551900721175,"fix_duration":385.005769613291,"trial":52,"RT":1113,"MT":221,"sideResp":1,"stimulus":"img/900/randomdotsizeEA/L/8_Ratio_900_L_20_R_18.png","xmouse":[789,789,789,789,789,789,789,789,789,789,789,789,789,789,789,789,789,789,789,789,789,789,789,789,789,789,789,789,789,789,789,789,789,789,789,789,789,789,789,789,789,789,789,789,789,789,788,788,788,788,788,788,786,783,778,772,764,760,755,753,748,727,710,688,643,589,488],"ymouse":[519,519,519,519,519,519,519,519,519,519,519,519,519,519,519,519,519,519,519,519,519,519,519,519,519,519,519,519,519,519,519,519,519,519,519,519,519,519,519,519,519,519,519,519,519,519,517,517,517,516,515,507,497,488,478,463,444,435,424,419,410,376,357,326,263,194,80],"timestamp_mouse":[13,34,53,73,93,113,133,153,174,193,214,234,254,273,294,313,334,353,375,394,413,434,455,473,494,513,534,553,573,593,614,634,654,673,693,713,734,755,773,793,813,834,853,873,893,913,934,953,973,994,1013,1034,1053,1073,1094,1113,1134,1153,1173,1194,1214,1234,1254,1273,1294,1313,1334],"xSR":741.5,"ySR":469.95,"xT1":424.9,"yT1":0,"xT2":1058.1,"yT2":0,"toosoon":0,"cond_shown":"randomdotsizeEA","ratio_trial":900,"smaller_num":"18","larger_num":"20","correct_side":1,"subjID":"LennyAndresRodriguezOtalora31","gender":"0","age":"11","school":"6"},{"start_time":1551900722630,"click_time":1551900723595,"finger_time":1551900723315,"fix_duration":254.78042764207854,"trial":53,"RT":685,"MT":280,"sideResp":2,"stimulus":"img/500/randomdotsizeEA/R/6_Ratio_500_L_9_R_18.png","xmouse":[799,799,799,799,799,799,799,799,799,799,799,799,799,799,799,799,799,799,799,799,799,799,799,799,799,799,799,799,799,799,799,799,799,800,810,828,850,877,919,933,944,955,981,1022,1042,1061,1077,1087,1095],"ymouse":[524,524,524,524,524,524,524,524,524,524,524,524,524,524,524,524,524,524,524,524,524,524,524,524,524,524,524,524,524,524,524,524,521,494,468,438,410,371,314,296,284,272,241,193,167,145,122,106,81],"timestamp_mouse":[9,33,46,65,85,105,127,146,165,187,205,225,246,265,285,305,325,346,365,385,406,425,445,466,485,505,525,545,567,585,606,625,646,665,685,705,725,747,765,786,805,826,846,865,885,905,925,946,965],"xSR":741.5,"ySR":469.95,"xT1":424.9,"yT1":0,"xT2":1058.1,"yT2":0,"toosoon":0,"cond_shown":"randomdotsizeEA","ratio_trial":500,"smaller_num":"9","larger_num":"18","correct_side":2,"subjID":"LennyAndresRodriguezOtalora31","gender":"0","age":"11","school":"6"},{"start_time":1551900726727,"click_time":1551900728596,"finger_time":1551900727555,"fix_duration":1051.7943795990604,"trial":54,"RT":828,"MT":1041,"sideResp":2,"stimulus":"img/750/randomdotsizeEA/R/4_Ratio_750_L_15_R_20.png","xmouse":[767,767,767,767,767,767,767,767,767,767,767,767,767,767,767,767,767,767,767,767,767,767,767,767,767,767,767,767,767,767,767,767,767,767,767,767,767,767,767,763,751,732,701,605,549,531,519,512,500,487,464,424,383,349,347,347,347,347,347,347,347,347,347,348,351,352,353,353,353,353,353,356,361,372,414,429,442,449,452,454,456,466,494,539,720,759,860,908,943,1002,1023,1038,1047,1059],"ymouse":[507,507,507,507,507,507,507,507,507,507,507,507,507,507,507,507,507,507,507,507,507,507,507,507,507,507,507,507,507,507,507,507,507,507,507,507,507,507,507,503,491,476,442,332,262,234,211,197,177,165,145,121,102,83,81,81,81,81,81,81,82,83,87,93,103,112,117,122,125,138,151,164,180,202,260,276,289,294,296,297,297,297,290,270,197,183,138,118,104,87,79,70,62,47],"timestamp_mouse":[8,28,49,68,89,109,130,149,169,190,208,228,249,268,289,308,328,350,369,388,408,428,448,468,489,510,529,548,568,589,608,629,648,668,688,710,729,749,768,789,809,828,849,870,888,909,929,949,969,988,1008,1028,1048,1069,1088,1108,1128,1149,1169,1189,1208,1228,1249,1268,1289,1308,1328,1348,1368,1388,1408,1428,1449,1468,1488,1508,1529,1549,1568,1588,1608,1628,1648,1669,1688,1709,1730,1748,1768,1788,1808,1828,1848,1869],"xSR":741.5,"ySR":469.95,"xT1":424.9,"yT1":0,"xT2":1058.1,"yT2":0,"toosoon":0,"cond_shown":"randomdotsizeEA","ratio_trial":750,"smaller_num":"15","larger_num":"20","correct_side":2,"subjID":"LennyAndresRodriguezOtalora31","gender":"0","age":"11","school":"6"},{"start_time":1551900730859,"click_time":1551900731816,"finger_time":1551900731636,"fix_duration":1222.895714938347,"trial":55,"RT":777,"MT":180,"sideResp":2,"stimulus":"img/250/equaldotanddens/R/10_Ratio_250_L_4_R_16.png","xmouse":[799,799,797,794,791,788,788,788,788,788,788,788,788,788,788,788,788,788,788,788,788,788,788,788,788,788,788,788,788,788,788,788,788,788,788,789,792,811,830,854,874,903,971,1004,1031,1052,1082,1112],"ymouse":[539,539,539,539,537,535,535,535,535,535,535,535,535,535,535,535,535,535,535,535,535,535,535,535,535,535,535,535,535,535,535,535,535,535,535,534,528,481,440,391,340,292,205,173,152,136,117,99],"timestamp_mouse":[16,37,56,77,96,117,136,156,176,197,216,236,256,276,296,316,336,357,377,396,417,438,457,477,498,516,537,557,577,597,616,637,656,676,697,717,737,756,777,796,817,837,857,878,896,916,936,957],"xSR":741.5,"ySR":469.95,"xT1":424.9,"yT1":0,"xT2":1058.1,"yT2":0,"toosoon":0,"cond_shown":"equaldotanddens","ratio_trial":250,"smaller_num":"4","larger_num":"16","correct_side":2,"subjID":"LennyAndresRodriguezOtalora31","gender":"0","age":"11","school":"6"},{"start_time":1551900733827,"click_time":1551900735015,"finger_time":1551900734615,"fix_duration":1109.1457967409526,"trial":56,"RT":788,"MT":400,"sideResp":1,"stimulus":"img/900/equaldotanddens/R/15_Ratio_900_L_9_R_10.png","xmouse":[805,805,805,805,805,806,808,809,810,811,812,812,812,812,812,812,812,812,812,812,812,812,812,812,812,812,812,812,812,812,812,812,812,812,812,812,806,786,767,731,722,707,666,611,476,405,344,344,344,344,344,344,344,344,344,344,344,344,344,497],"ymouse":[522,522,522,522,522,522,522,522,522,521,521,521,521,521,521,521,521,521,521,521,521,521,521,521,521,521,521,521,521,521,521,521,521,521,521,519,513,496,480,444,434,421,386,324,175,82,0,0,0,0,0,0,0,0,0,0,0,0,0,7],"timestamp_mouse":[8,28,48,69,88,108,129,149,169,188,208,229,249,268,290,309,328,348,368,388,408,428,448,468,488,508,529,548,569,588,608,628,649,668,689,708,728,749,769,788,808,828,849,868,889,908,928,948,968,989,1008,1029,1049,1069,1089,1109,1128,1148,1168,1188],"xSR":741.5,"ySR":469.95,"xT1":424.9,"yT1":0,"xT2":1058.1,"yT2":0,"toosoon":0,"cond_shown":"equaldotanddens","ratio_trial":900,"smaller_num":"9","larger_num":"10","correct_side":2,"subjID":"LennyAndresRodriguezOtalora31","gender":"0","age":"11","school":"6"},{"start_time":1551900736960,"click_time":1551900738196,"finger_time":1551900737295,"fix_duration":622.3080808721065,"trial":57,"RT":335,"MT":901,"sideResp":2,"stimulus":"img/250/equaldotsize/R/13_Ratio_250_L_2_R_8.png","xmouse":[766,766,766,766,766,766,766,766,766,766,766,766,766,762,756,748,741,736,735,735,735,734,734,734,734,733,733,733,733,733,733,733,733,733,733,733,733,733,740,769,857,994,1203,1203,1203,1203,1203,1203,1203,1203,1203,1203,1203,1203,1203,1276,1268,1236,1212,1194,1176,1156],"ymouse":[550,550,550,550,550,550,550,550,550,550,550,550,550,546,541,537,533,530,530,530,530,529,529,526,525,523,523,523,523,523,523,523,522,521,521,521,521,520,503,458,353,207,14,14,14,14,14,14,14,14,14,14,14,14,14,0,5,26,37,45,50,53],"timestamp_mouse":[16,36,57,76,96,117,135,156,176,196,215,236,256,276,296,317,335,355,375,396,417,435,457,476,495,515,535,555,575,597,615,635,655,675,695,716,735,756,775,796,817,836,856,876,895,916,935,955,975,996,1016,1035,1057,1076,1096,1115,1135,1157,1175,1196,1215,1236],"xSR":741.5,"ySR":469.95,"xT1":424.9,"yT1":0,"xT2":1058.1,"yT2":0,"toosoon":0,"cond_shown":"equaldotsize","ratio_trial":250,"smaller_num":"2","larger_num":"8","correct_side":2,"subjID":"LennyAndresRodriguezOtalora31","gender":"0","age":"11","school":"6"},{"start_time":1551900739348,"click_time":1551900740435,"finger_time":1551900740215,"fix_duration":250,"trial":58,"RT":867,"MT":220,"sideResp":1,"stimulus":"img/500/equaldotsize/L/8_Ratio_500_L_8_R_4.png","xmouse":[774,774,774,774,774,774,774,774,774,774,774,774,774,774,774,774,774,774,774,774,774,774,774,774,774,774,774,774,774,774,774,774,774,774,774,774,774,774,774,774,774,774,775,771,707,660,624,606,600,600,597,587,566,528,464],"ymouse":[517,517,517,517,517,517,517,517,517,517,517,517,517,517,517,517,517,517,517,517,517,517,517,517,517,517,517,517,517,517,517,517,517,517,517,517,517,517,517,515,508,499,485,463,380,333,294,271,253,243,236,220,198,165,74],"timestamp_mouse":[11,33,47,67,88,109,128,148,168,188,207,228,247,267,287,307,328,348,368,387,407,427,447,467,488,507,527,548,567,587,608,627,648,668,688,707,728,748,768,787,808,828,848,867,887,907,927,948,968,987,1008,1027,1048,1069,1087],"xSR":741.5,"ySR":469.95,"xT1":424.9,"yT1":0,"xT2":1058.1,"yT2":0,"toosoon":0,"cond_shown":"equaldotsize","ratio_trial":500,"smaller_num":"4","larger_num":"8","correct_side":1,"subjID":"LennyAndresRodriguezOtalora31","gender":"0","age":"11","school":"6"},{"start_time":1551900741858,"click_time":1551900742755,"finger_time":1551900742535,"fix_duration":581.0975750759178,"trial":59,"RT":677,"MT":220,"sideResp":2,"stimulus":"img/500/equaldotsize/R/12_Ratio_500_L_1_R_2.png","xmouse":[810,810,810,810,810,810,810,810,810,810,810,810,810,810,810,810,810,810,810,810,810,810,810,810,810,810,810,810,810,811,812,813,817,835,848,867,903,953,1065,1101,1113,1118,1118,1114,1105],"ymouse":[517,517,517,517,517,517,517,517,517,517,518,519,519,519,519,519,519,519,519,519,519,519,519,519,519,519,519,519,519,516,510,503,495,469,450,421,378,330,227,184,170,160,151,118,94],"timestamp_mouse":[18,40,58,77,97,118,138,158,177,197,218,237,257,278,297,318,338,357,378,397,417,439,458,477,497,518,537,557,577,598,617,637,659,677,697,718,737,757,779,797,817,837,857,877,897],"xSR":741.5,"ySR":469.95,"xT1":424.9,"yT1":0,"xT2":1058.1,"yT2":0,"toosoon":0,"cond_shown":"equaldotsize","ratio_trial":500,"smaller_num":"1","larger_num":"2","correct_side":2,"subjID":"LennyAndresRodriguezOtalora31","gender":"0","age":"11","school":"6"},{"start_time":1551900744593,"click_time":1551900745717,"finger_time":1551900745396,"fix_duration":1135.4072436723272,"trial":60,"RT":803,"MT":321,"sideResp":1,"stimulus":"img/900/equaldotanddens/R/13_Ratio_900_L_18_R_20.png","xmouse":[790,790,790,790,790,790,790,790,790,790,790,790,790,790,790,790,790,790,790,790,790,790,790,790,790,790,790,790,790,790,790,790,790,790,790,790,790,790,788,775,752,720,680,606,569,558,553,550,549,546,542,539,538,538,538,534,519],"ymouse":[518,518,518,518,518,518,518,518,518,518,518,518,518,518,518,518,518,518,518,518,518,518,518,518,518,518,518,518,518,518,518,518,518,518,518,518,518,518,512,493,461,417,369,271,184,139,103,60,44,29,17,9,5,4,4,3,2],"timestamp_mouse":[8,22,44,63,82,102,122,142,163,182,202,223,242,262,282,302,322,342,363,382,403,423,442,462,482,503,522,542,562,582,602,623,643,662,684,702,722,743,762,783,803,822,842,863,883,903,922,943,962,982,1002,1023,1042,1062,1083,1102,1124],"xSR":741.5,"ySR":469.95,"xT1":424.9,"yT1":0,"xT2":1058.1,"yT2":0,"toosoon":0,"cond_shown":"equaldotanddens","ratio_trial":900,"smaller_num":"18","larger_num":"20","correct_side":2,"subjID":"LennyAndresRodriguezOtalora31","gender":"0","age":"11","school":"6"},{"start_time":1551900746928,"click_time":1551900747755,"finger_time":1551900747555,"fix_duration":250,"trial":61,"RT":627,"MT":200,"sideResp":1,"stimulus":"img/250/equaldotsize/L/5_Ratio_250_L_24_R_6.png","xmouse":[801,792,791,791,790,790,790,790,790,790,790,790,790,790,790,790,790,790,790,790,790,790,790,790,793,796,802,802,802,802,802,795,788,783,779,775,745,710,656,588,531,465],"ymouse":[519,519,519,519,519,519,518,518,518,518,516,516,516,516,515,515,513,511,511,511,511,511,511,511,506,500,484,484,484,483,481,460,450,441,433,425,376,326,267,207,155,99],"timestamp_mouse":[7,27,56,68,88,108,127,147,167,188,208,228,247,268,287,308,329,347,368,387,407,428,447,467,487,507,527,548,568,587,608,627,647,667,687,708,728,748,768,787,807,827],"xSR":741.5,"ySR":469.95,"xT1":424.9,"yT1":0,"xT2":1058.1,"yT2":0,"toosoon":0,"cond_shown":"equaldotsize","ratio_trial":250,"smaller_num":"6","larger_num":"24","correct_side":1,"subjID":"LennyAndresRodriguezOtalora31","gender":"0","age":"11","school":"6"},{"start_time":1551900749689,"click_time":1551900750556,"finger_time":1551900750315,"fix_duration":972.5461705751329,"trial":62,"RT":626,"MT":241,"sideResp":1,"stimulus":"img/500/equaldotanddens/L/4_Ratio_500_L_18_R_9.png","xmouse":[792,792,792,792,792,792,792,792,792,792,792,792,792,792,792,792,792,792,792,792,792,792,792,792,792,792,792,792,792,781,754,707,651,546,510,492,480,476,469,468,468,468,468,467],"ymouse":[519,519,519,519,519,519,519,519,519,519,519,519,519,519,519,519,519,519,519,519,519,519,519,519,519,519,519,519,519,509,486,438,371,236,182,146,119,110,102,102,102,102,102,96],"timestamp_mouse":[8,37,46,66,87,108,127,146,167,187,208,227,247,267,286,307,326,346,367,386,406,426,446,467,486,506,527,546,567,587,607,626,646,668,687,706,726,747,766,786,806,828,846,866],"xSR":741.5,"ySR":469.95,"xT1":424.9,"yT1":0,"xT2":1058.1,"yT2":0,"toosoon":0,"cond_shown":"equaldotanddens","ratio_trial":500,"smaller_num":"9","larger_num":"18","correct_side":1,"subjID":"LennyAndresRodriguezOtalora31","gender":"0","age":"11","school":"6"},{"start_time":1551900752758,"click_time":1551900753495,"finger_time":1551900753415,"fix_duration":1402.521424020212,"trial":63,"RT":657,"MT":80,"sideResp":2,"stimulus":"img/250/equaldotsize/R/11_Ratio_250_L_3_R_12.png","xmouse":[793,793,793,793,793,793,793,793,793,793,793,793,793,793,793,793,793,793,793,793,793,793,793,793,793,793,793,793,793,793,796,811,839,887,1013,1059,1088],"ymouse":[522,522,522,522,522,522,522,522,522,522,522,522,522,522,522,522,522,522,522,522,522,522,522,522,522,522,522,522,522,522,517,491,436,355,183,127,86],"timestamp_mouse":[18,39,58,77,98,117,137,157,177,197,218,237,257,277,297,318,338,358,377,397,418,437,458,477,498,518,537,557,577,597,618,638,657,678,699,717,737],"xSR":741.5,"ySR":469.95,"xT1":424.9,"yT1":0,"xT2":1058.1,"yT2":0,"toosoon":0,"cond_shown":"equaldotsize","ratio_trial":250,"smaller_num":"3","larger_num":"12","correct_side":2,"subjID":"LennyAndresRodriguezOtalora31","gender":"0","age":"11","school":"6"},{"start_time":1551900754474,"click_time":1551900755717,"finger_time":1551900755196,"fix_duration":297.9922540183937,"trial":64,"RT":722,"MT":521,"sideResp":1,"stimulus":"img/750/equaldotsize/R/12_Ratio_750_L_3_R_4.png","xmouse":[777,777,777,777,777,778,778,778,778,778,778,778,778,778,778,778,779,779,779,779,779,779,779,779,779,779,779,779,779,779,779,779,779,778,775,759,750,740,726,706,634,595,534,459,349,308,308,308,308,308,308,308,308,308,388,399,406,410,410,411,411,412,425],"ymouse":[510,510,510,510,510,510,510,510,510,510,510,510,510,510,510,510,511,511,511,511,511,511,511,511,511,511,511,511,511,511,511,511,511,509,506,479,458,435,409,383,315,283,241,175,71,1,1,1,1,1,1,1,1,1,9,52,74,87,91,92,92,93,96],"timestamp_mouse":[5,35,42,62,81,102,122,142,161,181,201,222,242,262,282,302,321,341,361,381,402,422,442,462,482,501,521,541,561,582,601,621,641,661,681,701,722,741,761,781,801,821,842,862,881,901,921,941,961,981,1002,1022,1042,1061,1082,1102,1121,1142,1161,1183,1202,1221,1243],"xSR":741.5,"ySR":469.95,"xT1":424.9,"yT1":0,"xT2":1058.1,"yT2":0,"toosoon":0,"cond_shown":"equaldotsize","ratio_trial":750,"smaller_num":"3","larger_num":"4","correct_side":2,"subjID":"LennyAndresRodriguezOtalora31","gender":"0","age":"11","school":"6"},{"start_time":1551900760146,"click_time":1551900761735,"finger_time":1551900760216,"fix_duration":250,"trial":65,"RT":70,"MT":1519,"sideResp":1,"stimulus":"img/900/equaldotsize/L/10_Ratio_900_L_20_R_18.png","xmouse":[761,748,748,740,740,741,742,741,739,738,737,736,735,735,735,735,735,736,738,743,748,759,763,766,770,772,773,773,774,774,776,781,783,785,786,788,789,792,794,794,794,794,794,794,792,784,779,775,770,761,746,730,703,696,694,694,698,697,694,690,685,680,679,674,659,630,594,589,583,581,578,572,565,561,557,556,549,536,527,515],"ymouse":[516,543,543,579,591,599,610,614,618,621,624,629,629,629,629,629,629,626,623,615,608,595,589,583,578,574,570,568,567,564,561,554,552,551,549,546,545,543,541,540,539,537,533,532,528,520,517,511,506,500,490,482,456,438,421,411,396,386,381,375,368,361,359,343,293,237,189,180,171,165,156,142,131,126,121,120,113,106,102,96],"timestamp_mouse":[9,43,49,70,89,110,129,149,169,189,209,229,249,269,289,310,330,349,369,390,409,430,449,470,489,510,530,549,569,590,609,629,650,671,690,709,729,749,770,789,809,829,850,869,890,910,929,949,969,989,1009,1029,1049,1069,1091,1110,1130,1151,1169,1190,1211,1229,1250,1269,1289,1310,1330,1349,1369,1390,1410,1429,1450,1469,1491,1509,1529,1551,1570,1589],"xSR":741.5,"ySR":469.95,"xT1":424.9,"yT1":0,"xT2":1058.1,"yT2":0,"toosoon":0,"cond_shown":"equaldotsize","ratio_trial":900,"smaller_num":"18","larger_num":"20","correct_side":1,"subjID":"LennyAndresRodriguezOtalora31","gender":"0","age":"11","school":"6"},{"start_time":1551900763598,"click_time":1551900764895,"finger_time":1551900764295,"fix_duration":961.2681716606746,"trial":66,"RT":697,"MT":600,"sideResp":2,"stimulus":"img/250/equaldotanddens/R/11_Ratio_250_L_3_R_12.png","xmouse":[780,780,780,780,780,780,780,780,780,780,780,780,780,780,780,780,780,780,780,780,780,780,780,780,780,780,780,780,780,780,780,780,780,780,802,818,834,845,856,884,902,920,939,953,982,1005,1031,1060,1121,1268,1305,1314,1314,1314,1314,1314,1314,1314,1314,1314,1314,1314,1314,1314,1118],"ymouse":[507,507,507,507,507,507,507,507,507,507,507,507,507,507,507,507,507,507,507,507,507,507,507,507,507,507,507,507,507,507,507,507,504,494,438,412,394,379,366,336,325,315,308,304,295,293,289,280,257,140,72,22,7,7,7,7,7,7,7,7,7,7,7,7,27],"timestamp_mouse":[34,37,58,77,98,118,138,158,177,197,217,238,258,277,297,317,337,358,377,397,417,437,458,477,499,517,538,558,579,598,618,637,658,677,697,719,737,758,777,798,818,839,857,877,897,917,937,957,977,998,1018,1037,1057,1078,1098,1117,1137,1158,1179,1198,1217,1237,1257,1278,1297],"xSR":741.5,"ySR":469.95,"xT1":424.9,"yT1":0,"xT2":1058.1,"yT2":0,"toosoon":0,"cond_shown":"equaldotanddens","ratio_trial":250,"smaller_num":"3","larger_num":"12","correct_side":2,"subjID":"LennyAndresRodriguezOtalora31","gender":"0","age":"11","school":"6"},{"start_time":1551900766049,"click_time":1551900769636,"finger_time":1551900769495,"fix_duration":250,"trial":67,"RT":3446,"MT":141,"sideResp":1,"stimulus":"img/900/equaldotsize/R/6_Ratio_900_L_9_R_10.png","xmouse":[795,795,796,796,796,796,796,796,796,793,787,782,778,776,774,772,770,769,769,769,769,770,771,771,771,771,771,771,771,768,767,767,767,767,767,767,767,767,767,767,767,767,767,767,767,767,767,767,767,767,767,767,767,767,767,767,767,767,768,768,768,768,768,769,770,771,771,773,774,774,774,774,774,775,777,778,778,779,779,779,779,779,779,779,779,779,779,779,779,779,779,779,779,779,779,779,779,779,779,779,779,779,779,779,779,779,779,779,779,779,779,779,779,779,779,779,779,779,779,779,779,779,779,779,779,779,779,779,779,779,779,779,779,779,779,779,779,778,777,777,777,777,777,777,777,777,777,777,777,777,778,786,818,824,824,824,824,824,825,825,825,825,825,825,824,823,822,819,817,814,805,793,769,695,639,598,569,539,525,517],"ymouse":[525,525,523,522,521,521,521,521,521,521,521,521,521,521,521,523,524,525,525,525,525,524,522,520,520,520,520,520,519,519,519,519,519,519,519,519,519,519,519,519,519,519,519,519,519,519,518,517,517,517,517,517,517,517,517,517,517,517,516,516,516,516,516,515,515,514,514,512,512,512,512,512,511,510,510,509,508,508,508,508,508,508,508,508,508,508,508,508,508,508,508,508,508,508,508,508,508,508,508,508,508,508,508,508,508,508,508,508,508,508,508,508,508,508,508,508,508,508,508,508,508,508,508,508,508,508,508,508,508,508,508,508,505,503,500,498,495,490,490,490,490,489,489,489,489,489,489,489,489,489,489,489,494,495,495,495,495,495,496,496,496,496,497,497,497,497,497,497,497,496,485,470,442,356,298,245,197,124,99,84],"timestamp_mouse":[9,26,46,67,86,106,127,146,166,188,207,226,246,275,286,307,327,346,366,387,406,427,446,467,486,507,526,547,567,587,606,626,646,667,687,706,727,746,766,787,807,826,846,866,887,908,926,946,966,987,1006,1026,1046,1067,1087,1107,1127,1146,1167,1187,1206,1226,1247,1266,1286,1306,1326,1346,1367,1386,1407,1428,1446,1466,1486,1506,1527,1546,1566,1586,1606,1626,1647,1666,1686,1707,1727,1747,1766,1786,1806,1826,1846,1866,1886,1908,1927,1946,1966,1986,2006,2027,2046,2066,2086,2107,2127,2147,2166,2186,2206,2227,2248,2267,2287,2307,2327,2346,2367,2386,2408,2426,2447,2466,24