[{"start_time":1551899779028,"click_time":1551899787955,"finger_time":1551899779034,"fix_duration":668.6699618642006,"trial":0,"RT":6,"MT":8921,"sideResp":2,"stimulus":[],"xmouse":[760,755,755,754,754,754,754,754,755,758,779,816,829,833,833,833,834,834,834,835,835,835,832,829,826,820,799,787,777,768,747,727,727,727,728,728,728,728,728,728,728,728,728,729,732,738,753,789,791,791,791,791,791,791,791,792,792,792,792,792,792,792,792,792,792,792,781,774,772,772,772,772,772,775,778,784,799,815,815,815,815,815,815,815,816,816,798,794,793,792,792,791,789,789,789,789,789,789,788,788,788,788,788,779,766,754,752,752,752,752,752,751,755,758,758,758,760,767,771,773,775,776,776,776,777,777,777,769,765,760,752,740,728,717,712,709,708,708,708,710,713,717,725,736,756,781,804,804,804,804,804,804,804,804,806,809,812,820,820,820,820,820,820,820,821,821,821,821,821,821,821,821,819,819,819,819,819,819,819,819,819,819,819,819,819,819,819,819,819,819,819,819,819,819,819,819,819,819,819,819,819,819,819,819,819,819,819,819,819,819,819,819,819,819,819,819,819,819,819,817,809,788,785,785,785,785,785,785,785,785,785,785,785,785,785,785,785,785,785,785,785,785,785,785,785,785,785,785,785,785,785,785,785,785,785,785,785,785,785,785,785,785,785,785,785,785,785,785,785,785,785,785,785,785,785,785,785,785,785,785,785,785,785,785,785,785,785,785,785,785,785,785,785,785,785,785,785,785,785,785,785,785,785,785,785,785,785,785,785,785,785,785,785,785,785,785,785,785,785,785,785,785,785,785,785,785,785,785,785,785,785,785,785,785,785,785,785,785,785,785,785,785,785,785,785,785,785,785,785,785,785,785,785,785,785,785,785,785,785,785,785,785,785,785,785,785,785,785,785,785,785,785,785,785,785,785,785,785,785,785,785,785,785,785,785,800,823,832,873,880,883,884,884,884,881,866,840,704,668,655,654,654,714,825,959,1078,1157,1103,979,824,660,535,502,536,652,814,1050,1143,1128,1049,895,722,579,560,687,892,1083,1265,1250,1205,1159,1099,980,959,957,957,978,1056,1120,1172,1202,1232,1216,1192,1162,1136,1111],"ymouse":[472,459,459,459,461,464,466,466,467,467,472,488,495,497,498,498,498,499,499,500,507,518,543,552,557,561,568,569,569,566,562,579,584,586,586,586,586,586,586,586,586,586,586,586,584,583,582,582,582,582,582,582,582,582,582,583,583,583,583,583,584,586,587,587,587,588,626,650,662,663,663,663,663,660,656,649,641,639,639,639,639,639,639,639,638,635,618,617,616,616,616,616,615,615,615,615,615,615,615,615,615,615,615,618,623,627,627,627,627,627,627,628,631,632,632,632,632,630,627,627,626,626,626,626,620,616,613,619,622,627,630,627,618,611,607,605,604,604,604,604,604,604,604,604,607,611,617,617,617,617,617,617,617,617,617,617,617,618,618,618,618,618,618,618,619,620,620,620,620,621,621,621,623,626,627,627,627,627,627,627,627,627,627,627,627,627,627,627,627,627,627,627,627,627,627,627,627,627,627,627,627,627,627,627,627,627,627,627,627,627,627,627,627,627,627,627,627,627,627,627,627,627,627,627,627,627,627,627,627,627,627,627,627,627,627,627,627,627,627,627,627,627,627,627,627,627,627,627,627,627,627,627,627,627,627,627,627,627,627,627,627,627,627,627,627,627,627,627,627,627,627,627,627,627,627,627,627,627,627,627,627,627,627,627,627,627,627,627,627,627,627,627,627,627,627,627,627,627,627,627,627,627,627,627,627,627,627,627,627,627,627,627,627,627,627,627,627,627,627,627,627,627,627,627,627,627,627,627,627,627,627,627,627,627,627,627,627,627,627,627,627,627,627,627,627,627,627,627,627,627,627,627,627,627,627,627,627,627,627,627,627,627,627,627,627,627,627,627,627,627,627,627,627,627,627,627,627,627,627,627,627,627,627,627,627,621,616,615,609,609,608,608,608,608,608,610,618,638,640,640,640,640,630,614,604,604,611,615,615,610,592,574,574,578,594,616,642,652,652,652,651,622,601,590,590,590,609,635,623,579,527,485,409,402,401,401,406,410,406,392,371,327,249,211,158,106,73],"timestamp_mouse":[6,27,48,67,88,106,127,146,167,187,207,227,247,266,287,306,326,346,367,387,407,427,448,467,487,507,527,546,566,587,606,626,647,667,686,706,726,746,767,787,807,826,847,867,886,907,926,947,967,987,1007,1026,1047,1068,1087,1108,1127,1147,1167,1187,1206,1227,1247,1267,1287,1307,1327,1346,1368,1387,1408,1427,1447,1466,1487,1507,1526,1548,1568,1587,1607,1627,1648,1667,1687,1708,1727,1747,1766,1787,1807,1828,1846,1868,1886,1908,1927,1946,1967,1987,2007,2026,2046,2068,2087,2107,2127,2147,2166,2186,2207,2226,2248,2266,2286,2307,2328,2348,2367,2386,2407,2427,2448,2466,2486,2508,2526,2546,2567,2586,2608,2627,2647,2668,2688,2706,2727,2748,2767,2787,2806,2826,2848,2867,2887,2906,2927,2947,2967,2988,3006,3026,3047,3066,3087,3107,3127,3146,3167,3186,3207,3226,3246,3267,3287,3308,3327,3347,3367,3386,3408,3427,3446,3468,3486,3507,3526,3547,3566,3587,3607,3627,3647,3667,3686,3707,3726,3746,3767,3787,3806,3827,3848,3866,3887,3907,3927,3947,3967,3987,4006,4026,4046,4067,4086,4106,4126,4148,4167,4187,4206,4226,4248,4266,4286,4307,4327,4346,4366,4386,4407,4428,4447,4466,4487,4507,4526,4547,4568,4587,4607,4627,4647,4668,4686,4706,4728,4746,4768,4788,4808,4827,4847,4866,4887,4908,4926,4948,4968,4987,5007,5027,5046,5067,5086,5108,5126,5146,5168,5187,5207,5227,5247,5266,5288,5308,5326,5348,5367,5386,5407,5426,5447,5466,5486,5507,5526,5547,5568,5588,5606,5626,5647,5668,5687,5706,5727,5746,5766,5787,5808,5828,5847,5866,5886,5907,5926,5946,5967,5986,6007,6027,6047,6067,6087,6106,6126,6146,6168,6186,6206,6227,6247,6268,6287,6307,6326,6348,6366,6386,6407,6427,6446,6467,6486,6506,6526,6547,6566,6586,6606,6626,6646,6667,6687,6708,6726,6746,6767,6788,6806,6826,6848,6866,6888,6906,6927,6946,6966,6986,7007,7028,7048,7068,7087,7107,7126,7148,7167,7188,7208,7226,7247,7266,7287,7307,7328,7346,7366,7388,7407,7426,7446,7468,7486,7507,7528,7546,7566,7588,7608,7627,7647,7667,7687,7707,7727,7746,7766,7787,7807,7826,7846,7867,7887,7908,7928,7947,7968,7987,8008,8028,8047,8067,8087,8108,8128,8146,8167,8188,8208,8228,8246,8266,8286,8308,8327,8347,8367,8387,8407,8426,8446,8468,8487,8506,8526,8546,8567,8587,8607,8627,8646,8667,8687,8707,8726,8746,8768,8788,8808,8828,8847,8868,8887,8906,8926],"xSR":741.5,"ySR":501.8,"xT1":424.9,"yT1":0,"xT2":1058.1,"yT2":0,"toosoon":0,"cond_shown":"Congruent","ratio_trial":200,"L_num":13,"L_den":26,"R_num":14,"R_den":20,"correct_side":2,"subjID":"LennyAndresRodriguezOtalora31","gender":"0","age":"11","school":"6","test":{"fix_dur":[250,1500],"timestim":1000,"targets_dim":[100,100],"targets_relative_coord":[0.3,0.7],"size_stim":[880,420],"start_dim":[100,100],"size_start":[300,300],"size_fix":60,"samplingrate":20,"img_types":["Congruent","Incongruent"],"ratios":[100,200,300],"rep_conds":19,"nTrials":120,"trials_to_rest":500,"Trials_order":[80,94,15,57,89,83,85,119,36,112,49,55,21,113,67,103,20,104,108,52,73,35,28,41,42,114,95,10,24,51,34,60,29,72,110,37,109,106,47,62,64,78,1,86,90,96,31,98,39,27,75,30,82,12,118,102,56,7,115,87,17,9,54,97,22,117,70,84,14,88,6,61,105,68,38,23,92,59,3,77,76,66,58,19,43,40,50,116,48,99,101,45,11,13,8,93,33,18,2,65,44,25,32,4,111,81,63,0,69,16,91,46,107,79,74,26,53,100,71,5],"cond_shown":["Congruent","Congruent","Incongruent","Incongruent","Incongruent","Incongruent","Incongruent","Incongruent","Congruent","Congruent","Incongruent","Incongruent","Incongruent","Incongruent","Incongruent","Incongruent","Congruent","Congruent","Congruent","Congruent","Incongruent","Incongruent","Congruent","Incongruent","Congruent","Congruent","Incongruent","Congruent","Congruent","Incongruent","Congruent","Congruent","Incongruent","Congruent","Congruent","Incongruent","Incongruent","Congruent","Incongruent","Congruent","Congruent","Congruent","Incongruent","Congruent","Congruent","Congruent","Incongruent","Congruent","Incongruent","Incongruent","Incongruent","Congruent","Congruent","Congruent","Congruent","Congruent","Congruent","Incongruent","Incongruent","Incongruent","Incongruent","Incongruent","Congruent","Incongruent","Congruent","Incongruent","Congruent","Congruent","Congruent","Congruent","Congruent","Incongruent","Incongruent","Congruent","Congruent","Incongruent","Congruent","Incongruent","Incongruent","Incongruent","Congruent","Congruent","Congruent","Incongruent","Incongruent","Congruent","Congruent","Congruent","Congruent","Incongruent","Incongruent","Incongruent","Incongruent","Incongruent","Congruent","Incongruent","Incongruent","Congruent","Congruent","Incongruent","Congruent","Incongruent","Congruent","Congruent","Incongruent","Incongruent","Incongruent","Congruent","Incongruent","Congruent","Incongruent","Congruent","Incongruent","Incongruent","Congruent","Congruent","Incongruent","Congruent","Incongruent","Incongruent"],"ratio_trial":[200,300,200,200,300,300,100,300,100,300,100,100,200,300,100,100,200,200,100,300,100,300,300,300,100,100,300,300,100,200,300,100,300,100,200,100,100,300,300,200,300,100,100,200,100,100,100,200,200,200,200,100,300,100,300,100,200,100,100,200,300,200,100,100,300,200,300,100,200,300,100,100,200,200,200,300,200,300,200,300,300,100,300,100,100,300,200,200,100,200,300,200,300,100,200,200,200,100,200,300,200,100,200,300,200,200,200,100,200,300,100,300,300,100,200,200,300,300,300,300],"left_num":[13,3,6,4,4,3,6,4,9,7,10,9,11,4,17,6,3,5,12,8,2,3,8,8,8,12,2,18,1,7,4,1,2,11,4,13,9,2,1,12,20,11,3,7,12,1,3,20,14,7,4,15,1,10,24,11,13,2,2,4,4,7,10,13,3,3,11,4,4,5,6,13,7,9,3,8,7,13,7,7,20,12,3,4,13,2,15,6,2,11,8,7,1,8,3,11,3,9,3,4,8,9,6,11,11,7,4,10,14,24,13,9,4,6,15,6,1,18,4,8],"right_num":[14,2,3,14,2,4,7,6,8,20,9,20,3,6,10,11,7,14,13,10,6,4,1,14,2,13,6,9,3,14,2,18,6,4,3,6,20,10,2,6,9,6,11,18,13,18,8,9,6,12,6,13,7,3,2,6,14,8,8,1,8,6,3,12,11,1,1,15,3,7,5,6,4,13,11,9,18,12,4,8,13,13,2,8,12,12,4,11,6,3,14,14,3,6,11,3,1,8,14,8,2,6,7,2,3,14,6,3,6,2,6,3,2,3,4,7,3,9,2,9],"left_den":[26,6,20,6,20,6,10,5,15,14,25,10,20,5,30,10,10,10,30,15,4,6,16,10,16,30,4,20,2,10,5,2,4,22,8,26,10,20,2,20,25,22,5,15,30,2,5,25,30,10,5,25,20,25,30,22,26,4,4,30,5,15,25,26,12,10,22,10,8,25,20,26,15,30,10,10,15,26,15,10,25,30,6,8,26,10,25,20,5,20,10,10,2,16,10,20,10,15,10,5,15,18,12,22,20,10,5,25,30,30,26,10,20,12,25,12,2,20,20,10],"right_den":[20,10,6,30,4,20,14,12,16,25,18,25,4,12,15,22,14,20,26,12,15,20,5,28,5,26,30,15,5,28,4,30,30,10,10,10,25,25,10,15,18,15,22,27,26,30,16,15,9,24,10,26,20,10,4,15,20,20,20,3,16,9,10,20,20,2,5,30,10,14,25,10,6,26,22,18,27,15,6,20,26,26,10,20,20,24,10,22,12,4,28,28,15,10,22,4,2,16,28,16,6,10,10,10,4,28,10,10,9,4,10,5,4,5,10,10,15,15,4,18],"correct_side":[2,1,2,1,2,1,1,1,1,2,2,1,2,1,2,1,2,2,2,2,1,1,1,1,1,2,1,1,2,1,1,2,1,1,1,2,1,2,1,1,1,1,1,2,2,2,1,1,2,1,1,1,2,1,1,1,2,1,1,2,1,2,1,2,2,2,1,2,1,2,1,2,2,2,2,1,2,2,2,1,1,2,1,1,2,2,1,2,2,2,1,1,1,2,2,2,2,1,2,1,1,2,2,1,2,1,1,1,2,1,2,1,2,2,1,2,1,1,2,1],"img_shown":["img2/200/Congruent/R/C_Dist_200_LN_13_LD_26_RN_14_RD_20_1.png","img2/300/Congruent/L/C_Dist_300_LN_3_LD_6_RN_2_RD_10_0.png","img2/200/Incongruent/R/I_Dist_200_LN_6_LD_20_RN_3_RD_6_1.png","img2/200/Incongruent/L/I_Dist_200_LN_4_LD_6_RN_14_RD_30_0.png","img2/300/Incongruent/R/I_Dist_300_LN_4_LD_20_RN_2_RD_4_1.png","img2/300/Incongruent/L/I_Dist_300_LN_3_LD_6_RN_4_RD_20_0.png","img2/100/Incongruent/L/I_Dist_100_LN_6_LD_10_RN_7_RD_14_0.png","img2/300/Incongruent/L/I_Dist_300_LN_4_LD_5_RN_6_RD_12_0.png","img2/100/Congruent/L/C_Dist_100_LN_9_LD_15_RN_8_RD_16_0.png","img2/300/Congruent/R/C_Dist_300_LN_7_LD_14_RN_20_RD_25_1.png","img2/100/Incongruent/R/I_Dist_100_LN_10_LD_25_RN_9_RD_18_1.png","img2/100/Incongruent/L/I_Dist_100_LN_9_LD_10_RN_20_RD_25_0.png","img2/200/Incongruent/R/I_Dist_200_LN_11_LD_20_RN_3_RD_4_1.png","img2/300/Incongruent/L/I_Dist_300_LN_4_LD_5_RN_6_RD_12_0.png","img2/100/Incongruent/R/I_Dist_100_LN_17_LD_30_RN_10_RD_15_1.png","img2/100/Incongruent/L/I_Dist_100_LN_6_LD_10_RN_11_RD_22_0.png","img2/200/Congruent/R/C_Dist_200_LN_3_LD_10_RN_7_RD_14_1.png","img2/200/Congruent/R/C_Dist_200_LN_5_LD_10_RN_14_RD_20_1.png","img2/100/Congruent/R/C_Dist_100_LN_12_LD_30_RN_13_RD_26_1.png","img2/300/Congruent/R/C_Dist_300_LN_8_LD_15_RN_10_RD_12_1.png","img2/100/Incongruent/L/I_Dist_100_LN_2_LD_4_RN_6_RD_15_0.png","img2/300/Incongruent/L/I_Dist_300_LN_3_LD_6_RN_4_RD_20_0.png","img2/300/Congruent/L/C_Dist_300_LN_8_LD_16_RN_1_RD_5_0.png","img2/300/Incongruent/L/I_Dist_300_LN_8_LD_10_RN_14_RD_28_0.png","img2/100/Congruent/L/C_Dist_100_LN_8_LD_16_RN_2_RD_5_0.png","img2/100/Congruent/R/C_Dist_100_LN_12_LD_30_RN_13_RD_26_1.png","img2/300/Incongruent/L/I_Dist_300_LN_2_LD_4_RN_6_RD_30_0.png","img2/300/Congruent/L/C_Dist_300_LN_18_LD_20_RN_9_RD_15_0.png","img2/100/Congruent/R/C_Dist_100_LN_1_LD_2_RN_3_RD_5_1.png","img2/200/Incongruent/L/I_Dist_200_LN_7_LD_10_RN_14_RD_28_0.png","img2/300/Congruent/L/C_Dist_300_LN_4_LD_5_RN_2_RD_4_0.png","img2/100/Congruent/R/C_Dist_100_LN_1_LD_2_RN_18_RD_30_1.png","img2/300/Incongruent/L/I_Dist_300_LN_2_LD_4_RN_6_RD_30_0.png","img2/100/Congruent/L/C_Dist_100_LN_11_LD_22_RN_4_RD_10_0.png","img2/200/Congruent/L/C_Dist_200_LN_4_LD_8_RN_3_RD_10_0.png","img2/100/Incongruent/R/I_Dist_100_LN_13_LD_26_RN_6_RD_10_1.png","img2/100/Incongruent/L/I_Dist_100_LN_9_LD_10_RN_20_RD_25_0.png","img2/300/Congruent/R/C_Dist_300_LN_2_LD_20_RN_10_RD_25_1.png","img2/300/Incongruent/L/I_Dist_300_LN_1_LD_2_RN_2_RD_10_0.png","img2/200/Congruent/L/C_Dist_200_LN_12_LD_20_RN_6_RD_15_0.png","img2/300/Congruent/L/C_Dist_300_LN_20_LD_25_RN_9_RD_18_0.png","img2/100/Congruent/L/C_Dist_100_LN_11_LD_22_RN_6_RD_15_0.png","img2/100/Incongruent/L/I_Dist_100_LN_3_LD_5_RN_11_RD_22_0.png","img2/200/Congruent/R/C_Dist_200_LN_7_LD_15_RN_18_RD_27_1.png","img2/100/Congruent/R/C_Dist_100_LN_12_LD_30_RN_13_RD_26_1.png","img2/100/Congruent/R/C_Dist_100_LN_1_LD_2_RN_18_RD_30_1.png","img2/100/Incongruent/L/I_Dist_100_LN_3_LD_5_RN_8_RD_16_0.png","img2/200/Congruent/L/C_Dist_200_LN_20_LD_25_RN_9_RD_15_0.png","img2/200/Incongruent/R/I_Dist_200_LN_14_LD_30_RN_6_RD_9_1.png","img2/200/Incongruent/L/I_Dist_200_LN_7_LD_10_RN_12_RD_24_0.png","img2/200/Incongruent/L/I_Dist_200_LN_4_LD_5_RN_6_RD_10_0.png","img2/100/Congruent/L/C_Dist_100_LN_15_LD_25_RN_13_RD_26_0.png","img2/300/Congruent/R/C_Dist_300_LN_1_LD_20_RN_7_RD_20_1.png","img2/100/Congruent/L/C_Dist_100_LN_10_LD_25_RN_3_RD_10_0.png","img2/300/Congruent/L/C_Dist_300_LN_24_LD_30_RN_2_RD_4_0.png","img2/100/Congruent/L/C_Dist_100_LN_11_LD_22_RN_6_RD_15_0.png","img2/200/Congruent/R/C_Dist_200_LN_13_LD_26_RN_14_RD_20_1.png","img2/100/Incongruent/L/I_Dist_100_LN_2_LD_4_RN_8_RD_20_0.png","img2/100/Incongruent/L/I_Dist_100_LN_2_LD_4_RN_8_RD_20_0.png","img2/200/Incongruent/R/I_Dist_200_LN_4_LD_30_RN_1_RD_3_1.png","img2/300/Incongruent/L/I_Dist_300_LN_4_LD_5_RN_8_RD_16_0.png","img2/200/Incongruent/R/I_Dist_200_LN_7_LD_15_RN_6_RD_9_1.png","img2/100/Congruent/L/C_Dist_100_LN_10_LD_25_RN_3_RD_10_0.png","img2/100/Incongruent/R/I_Dist_100_LN_13_LD_26_RN_12_RD_20_1.png","img2/300/Congruent/R/C_Dist_300_LN_3_LD_12_RN_11_RD_20_1.png","img2/200/Incongruent/R/I_Dist_200_LN_3_LD_10_RN_1_RD_2_1.png","img2/300/Congruent/L/C_Dist_300_LN_11_LD_22_RN_1_RD_5_0.png","img2/100/Congruent/R/C_Dist_100_LN_4_LD_10_RN_15_RD_30_1.png","img2/200/Congruent/L/C_Dist_200_LN_4_LD_8_RN_3_RD_10_0.png","img2/300/Congruent/R/C_Dist_300_LN_5_LD_25_RN_7_RD_14_1.png","img2/100/Congruent/L/C_Dist_100_LN_6_LD_20_RN_5_RD_25_0.png","img2/100/Incongruent/R/I_Dist_100_LN_13_LD_26_RN_6_RD_10_1.png","img2/200/Incongruent/R/I_Dist_200_LN_7_LD_15_RN_4_RD_6_1.png","img2/200/Congruent/R/C_Dist_200_LN_9_LD_30_RN_13_RD_26_1.png","img2/200/Congruent/R/C_Dist_200_LN_3_LD_10_RN_11_RD_22_1.png","img2/300/Incongruent/L/I_Dist_300_LN_8_LD_10_RN_9_RD_18_0.png","img2/200/Congruent/R/C_Dist_200_LN_7_LD_15_RN_18_RD_27_1.png","img2/300/Incongruent/R/I_Dist_300_LN_13_LD_26_RN_12_RD_15_1.png","img2/200/Incongruent/R/I_Dist_200_LN_7_LD_15_RN_4_RD_6_1.png","img2/300/Incongruent/L/I_Dist_300_LN_7_LD_10_RN_8_RD_20_0.png","img2/300/Congruent/L/C_Dist_300_LN_20_LD_25_RN_13_RD_26_0.png","img2/100/Congruent/R/C_Dist_100_LN_12_LD_30_RN_13_RD_26_1.png","img2/300/Congruent/L/C_Dist_300_LN_3_LD_6_RN_2_RD_10_0.png","img2/100/Incongruent/L/I_Dist_100_LN_4_LD_8_RN_8_RD_20_0.png","img2/100/Incongruent/R/I_Dist_100_LN_13_LD_26_RN_12_RD_20_1.png","img2/300/Congruent/R/C_Dist_300_LN_2_LD_10_RN_12_RD_24_1.png","img2/200/Congruent/L/C_Dist_200_LN_15_LD_25_RN_4_RD_10_0.png","img2/200/Congruent/R/C_Dist_200_LN_6_LD_20_RN_11_RD_22_1.png","img2/100/Congruent/R/C_Dist_100_LN_2_LD_5_RN_6_RD_12_1.png","img2/200/Incongruent/R/I_Dist_200_LN_11_LD_20_RN_3_RD_4_1.png","img2/300/Incongruent/L/I_Dist_300_LN_8_LD_10_RN_14_RD_28_0.png","img2/200/Incongruent/L/I_Dist_200_LN_7_LD_10_RN_14_RD_28_0.png","img2/300/Incongruent/L/I_Dist_300_LN_1_LD_2_RN_3_RD_15_0.png","img2/100/Incongruent/R/I_Dist_100_LN_8_LD_16_RN_6_RD_10_1.png","img2/200/Congruent/R/C_Dist_200_LN_3_LD_10_RN_11_RD_22_1.png","img2/200/Incongruent/R/I_Dist_200_LN_11_LD_20_RN_3_RD_4_1.png","img2/200/Incongruent/R/I_Dist_200_LN_3_LD_10_RN_1_RD_2_1.png","img2/100/Congruent/L/C_Dist_100_LN_9_LD_15_RN_8_RD_16_0.png","img2/200/Congruent/R/C_Dist_200_LN_3_LD_10_RN_14_RD_28_1.png","img2/300/Incongruent/L/I_Dist_300_LN_4_LD_5_RN_8_RD_16_0.png","img2/200/Congruent/L/C_Dist_200_LN_8_LD_15_RN_2_RD_6_0.png","img2/100/Incongruent/R/I_Dist_100_LN_9_LD_18_RN_6_RD_10_1.png","img2/200/Congruent/R/C_Dist_200_LN_6_LD_12_RN_7_RD_10_1.png","img2/300/Congruent/L/C_Dist_300_LN_11_LD_22_RN_2_RD_10_0.png","img2/200/Incongruent/R/I_Dist_200_LN_11_LD_20_RN_3_RD_4_1.png","img2/200/Incongruent/L/I_Dist_200_LN_7_LD_10_RN_14_RD_28_0.png","img2/200/Incongruent/L/I_Dist_200_LN_4_LD_5_RN_6_RD_10_0.png","img2/100/Congruent/L/C_Dist_100_LN_10_LD_25_RN_3_RD_10_0.png","img2/200/Incongruent/R/I_Dist_200_LN_14_LD_30_RN_6_RD_9_1.png","img2/300/Congruent/L/C_Dist_300_LN_24_LD_30_RN_2_RD_4_0.png","img2/100/Incongruent/R/I_Dist_100_LN_13_LD_26_RN_6_RD_10_1.png","img2/300/Congruent/L/C_Dist_300_LN_9_LD_10_RN_3_RD_5_0.png","img2/300/Incongruent/R/I_Dist_300_LN_4_LD_20_RN_2_RD_4_1.png","img2/100/Incongruent/R/I_Dist_100_LN_6_LD_12_RN_3_RD_5_1.png","img2/200/Congruent/L/C_Dist_200_LN_15_LD_25_RN_4_RD_10_0.png","img2/200/Congruent/R/C_Dist_200_LN_6_LD_12_RN_7_RD_10_1.png","img2/300/Incongruent/L/I_Dist_300_LN_1_LD_2_RN_3_RD_15_0.png","img2/300/Congruent/L/C_Dist_300_LN_18_LD_20_RN_9_RD_15_0.png","img2/300/Incongruent/R/I_Dist_300_LN_4_LD_20_RN_2_RD_4_1.png","img2/300/Incongruent/L/I_Dist_300_LN_8_LD_10_RN_9_RD_18_0.png"],"dist100_C":[["C_Dist_100_LN_10_LD_25_RN_3_RD_10_0.png","C_Dist_100_LN_11_LD_22_RN_4_RD_10_0.png","C_Dist_100_LN_11_LD_22_RN_6_RD_15_0.png","C_Dist_100_LN_15_LD_25_RN_13_RD_26_0.png","C_Dist_100_LN_3_LD_6_RN_2_RD_5_0.png","C_Dist_100_LN_6_LD_20_RN_5_RD_25_0.png","C_Dist_100_LN_8_LD_16_RN_2_RD_5_0.png","C_Dist_100_LN_9_LD_15_RN_8_RD_16_0.png"],["C_Dist_100_LN_1_LD_2_RN_18_RD_30_1.png","C_Dist_100_LN_1_LD_2_RN_3_RD_5_1.png","C_Dist_100_LN_12_LD_30_RN_13_RD_26_1.png","C_Dist_100_LN_2_LD_5_RN_11_RD_22_1.png","C_Dist_100_LN_2_LD_5_RN_6_RD_12_1.png","C_Dist_100_LN_3_LD_20_RN_4_RD_16_1.png","C_Dist_100_LN_4_LD_10_RN_15_RD_30_1.png","C_Dist_100_LN_4_LD_8_RN_6_RD_10_1.png","C_Dist_100_LN_6_LD_12_RN_15_RD_25_1.png","C_Dist_100_LN_7_LD_14_RN_15_RD_25_1.png","C_Dist_100_LN_7_LD_14_RN_9_RD_15_1.png"]],"dist100_I":[["I_Dist_100_LN_1_LD_2_RN_8_RD_20_0.png","I_Dist_100_LN_2_LD_4_RN_6_RD_15_0.png","I_Dist_100_LN_2_LD_4_RN_8_RD_20_0.png","I_Dist_100_LN_3_LD_5_RN_11_RD_22_0.png","I_Dist_100_LN_3_LD_5_RN_8_RD_16_0.png","I_Dist_100_LN_3_LD_6_RN_4_RD_10_0.png","I_Dist_100_LN_3_LD_9_RN_7_RD_30_0.png","I_Dist_100_LN_4_LD_8_RN_8_RD_20_0.png","I_Dist_100_LN_6_LD_10_RN_11_RD_22_0.png","I_Dist_100_LN_6_LD_10_RN_13_RD_26_0.png","I_Dist_100_LN_6_LD_10_RN_7_RD_14_0.png","I_Dist_100_LN_9_LD_10_RN_20_RD_25_0.png","I_Dist_100_LN_9_LD_15_RN_13_RD_26_0.png","I_Dist_100_LN_9_LD_15_RN_14_RD_28_0.png"],["I_Dist_100_LN_10_LD_25_RN_8_RD_16_1.png","I_Dist_100_LN_10_LD_25_RN_9_RD_18_1.png","I_Dist_100_LN_11_LD_22_RN_9_RD_15_1.png","I_Dist_100_LN_12_LD_24_RN_9_RD_15_1.png","I_Dist_100_LN_12_LD_30_RN_2_RD_4_1.png","I_Dist_100_LN_13_LD_26_RN_12_RD_20_1.png","I_Dist_100_LN_13_LD_26_RN_6_RD_10_1.png","I_Dist_100_LN_17_LD_30_RN_10_RD_15_1.png","I_Dist_100_LN_6_LD_12_RN_3_RD_5_1.png","I_Dist_100_LN_8_LD_16_RN_6_RD_10_1.png","I_Dist_100_LN_8_LD_20_RN_1_RD_2_1.png","I_Dist_100_LN_9_LD_18_RN_6_RD_10_1.png"]],"dist100_S":[["E_Dist_100_LN_2_LD_12_RN_2_RD_30_0.png","E_Dist_100_LN_6_LD_10_RN_6_RD_12_0.png"],["E_Dist_100_LN_6_LD_12_RN_6_RD_10_1.png"]],"dist200_C":[["C_Dist_200_LN_11_LD_22_RN_3_RD_10_0.png","C_Dist_200_LN_12_LD_15_RN_6_RD_10_0.png","C_Dist_200_LN_12_LD_20_RN_6_RD_15_0.png","C_Dist_200_LN_14_LD_28_RN_6_RD_20_0.png","C_Dist_200_LN_15_LD_25_RN_4_RD_10_0.png","C_Dist_200_LN_16_LD_20_RN_12_RD_20_0.png","C_Dist_200_LN_16_LD_30_RN_9_RD_27_0.png","C_Dist_200_LN_20_LD_25_RN_9_RD_15_0.png","C_Dist_200_LN_21_LD_30_RN_2_RD_4_0.png","C_Dist_200_LN_4_LD_10_RN_3_RD_15_0.png","C_Dist_200_LN_4_LD_8_RN_3_RD_10_0.png","C_Dist_200_LN_6_LD_15_RN_3_RD_15_0.png","C_Dist_200_LN_7_LD_21_RN_2_RD_15_0.png","C_Dist_200_LN_8_LD_15_RN_2_RD_6_0.png","C_Dist_200_LN_8_LD_15_RN_3_RD_9_0.png","C_Dist_200_LN_8_LD_15_RN_7_RD_21_0.png","C_Dist_200_LN_9_LD_20_RN_4_RD_16_0.png"],["C_Dist_200_LN_1_LD_2_RN_21_RD_30_1.png","C_Dist_200_LN_13_LD_26_RN_14_RD_20_1.png","C_Dist_200_LN_3_LD_10_RN_11_RD_22_1.png","C_Dist_200_LN_3_LD_10_RN_14_RD_28_1.png","C_Dist_200_LN_3_LD_10_RN_7_RD_14_1.png","C_Dist_200_LN_3_LD_12_RN_9_RD_20_1.png","C_Dist_200_LN_3_LD_6_RN_14_RD_20_1.png","C_Dist_200_LN_5_LD_10_RN_14_RD_20_1.png","C_Dist_200_LN_6_LD_12_RN_7_RD_10_1.png","C_Dist_200_LN_6_LD_20_RN_11_RD_22_1.png","C_Dist_200_LN_7_LD_15_RN_18_RD_27_1.png","C_Dist_200_LN_9_LD_30_RN_13_RD_26_1.png"]],"dist200_I":[["I_Dist_200_LN_1_LD_2_RN_3_RD_10_0.png","I_Dist_200_LN_1_LD_3_RN_2_RD_15_0.png","I_Dist_200_LN_3_LD_4_RN_11_RD_20_0.png","I_Dist_200_LN_4_LD_5_RN_6_RD_10_0.png","I_Dist_200_LN_4_LD_6_RN_14_RD_30_0.png","I_Dist_200_LN_7_LD_10_RN_12_RD_24_0.png","I_Dist_200_LN_7_LD_10_RN_14_RD_28_0.png","I_Dist_200_LN_7_LD_10_RN_8_RD_16_0.png"],["I_Dist_200_LN_11_LD_20_RN_3_RD_4_1.png","I_Dist_200_LN_14_LD_30_RN_12_RD_18_1.png","I_Dist_200_LN_14_LD_30_RN_6_RD_9_1.png","I_Dist_200_LN_3_LD_10_RN_1_RD_2_1.png","I_Dist_200_LN_4_LD_30_RN_1_RD_3_1.png","I_Dist_200_LN_6_LD_20_RN_3_RD_6_1.png","I_Dist_200_LN_7_LD_15_RN_4_RD_6_1.png","I_Dist_200_LN_7_LD_15_RN_6_RD_9_1.png","I_Dist_200_LN_9_LD_15_RN_8_RD_10_1.png"]],"dist200_S":[["E_Dist_200_LN_3_LD_6_RN_3_RD_10_0.png"],["E_Dist_200_LN_3_LD_10_RN_3_RD_6_1.png"]],"dist300_C":[["C_Dist_300_LN_11_LD_22_RN_1_RD_5_0.png","C_Dist_300_LN_11_LD_22_RN_2_RD_10_0.png","C_Dist_300_LN_11_LD_22_RN_4_RD_20_0.png","C_Dist_300_LN_12_LD_24_RN_2_RD_10_0.png","C_Dist_300_LN_18_LD_20_RN_9_RD_15_0.png","C_Dist_300_LN_20_LD_25_RN_13_RD_26_0.png","C_Dist_300_LN_20_LD_25_RN_14_RD_28_0.png","C_Dist_300_LN_20_LD_25_RN_5_RD_10_0.png","C_Dist_300_LN_20_LD_25_RN_8_RD_16_0.png","C_Dist_300_LN_20_LD_25_RN_9_RD_18_0.png","C_Dist_300_LN_24_LD_30_RN_2_RD_4_0.png","C_Dist_300_LN_24_LD_30_RN_8_RD_16_0.png","C_Dist_300_LN_3_LD_6_RN_2_RD_10_0.png","C_Dist_300_LN_4_LD_10_RN_1_RD_10_0.png","C_Dist_300_LN_4_LD_5_RN_2_RD_4_0.png","C_Dist_300_LN_8_LD_16_RN_1_RD_5_0.png","C_Dist_300_LN_9_LD_10_RN_3_RD_5_0.png"],["C_Dist_300_LN_1_LD_20_RN_7_RD_20_1.png","C_Dist_300_LN_1_LD_3_RN_19_RD_30_1.png","C_Dist_300_LN_1_LD_30_RN_8_RD_24_1.png","C_Dist_300_LN_1_LD_5_RN_11_RD_22_1.png","C_Dist_300_LN_1_LD_5_RN_3_RD_6_1.png","C_Dist_300_LN_1_LD_5_RN_6_RD_12_1.png","C_Dist_300_LN_2_LD_10_RN_12_RD_24_1.png","C_Dist_300_LN_2_LD_20_RN_10_RD_25_1.png","C_Dist_300_LN_3_LD_12_RN_11_RD_20_1.png","C_Dist_300_LN_3_LD_6_RN_4_RD_5_1.png","C_Dist_300_LN_4_LD_20_RN_13_RD_26_1.png","C_Dist_300_LN_5_LD_25_RN_6_RD_12_1.png","C_Dist_300_LN_5_LD_25_RN_7_RD_14_1.png","C_Dist_300_LN_7_LD_14_RN_20_RD_25_1.png","C_Dist_300_LN_8_LD_15_RN_10_RD_12_1.png"]],"dist300_I":[["I_Dist_300_LN_1_LD_2_RN_2_RD_10_0.png","I_Dist_300_LN_1_LD_2_RN_3_RD_15_0.png","I_Dist_300_LN_2_LD_4_RN_6_RD_30_0.png","I_Dist_300_LN_3_LD_6_RN_4_RD_20_0.png","I_Dist_300_LN_4_LD_5_RN_6_RD_12_0.png","I_Dist_300_LN_4_LD_5_RN_8_RD_16_0.png","I_Dist_300_LN_7_LD_10_RN_8_RD_20_0.png","I_Dist_300_LN_8_LD_10_RN_14_RD_28_0.png","I_Dist_300_LN_8_LD_10_RN_9_RD_18_0.png"],["I_Dist_300_LN_13_LD_26_RN_12_RD_15_1.png","I_Dist_300_LN_4_LD_20_RN_2_RD_4_1.png"]],"dist300_S":[["E_Dist_300_LN_9_LD_12_RN_9_RD_20_0.png"],["E_Dist_300_LN_18_LD_30_RN_18_RD_20_1.png","E_Dist_300_LN_3_LD_10_RN_3_RD_5_1.png","E_Dist_300_LN_9_LD_20_RN_9_RD_12_1.png"]],"dist500_C":[["C_Dist_500_LN_10_LD_13_RN_7_RD_26_0.png","C_Dist_500_LN_10_LD_15_RN_4_RD_24_0.png","C_Dist_500_LN_12_LD_16_RN_3_RD_12_0.png","C_Dist_500_LN_12_LD_18_RN_4_RD_24_0.png","C_Dist_500_LN_15_LD_18_RN_5_RD_15_0.png","C_Dist_500_LN_15_LD_20_RN_1_RD_4_0.png","C_Dist_500_LN_18_LD_27_RN_1_RD_6_0.png","C_Dist_500_LN_20_LD_24_RN_1_RD_3_0.png","C_Dist_500_LN_20_LD_24_RN_3_RD_9_0.png","C_Dist_500_LN_20_LD_24_RN_7_RD_21_0.png","C_Dist_500_LN_20_LD_28_RN_3_RD_14_0.png","C_Dist_500_LN_21_LD_28_RN_6_RD_24_0.png","C_Dist_500_LN_22_LD_28_RN_2_RD_7_0.png","C_Dist_500_LN_25_LD_30_RN_9_RD_27_0.png","C_Dist_500_LN_4_LD_6_RN_1_RD_6_0.png","C_Dist_500_LN_5_LD_6_RN_2_RD_6_0.png","C_Dist_500_LN_6_LD_9_RN_1_RD_6_0.png","C_Dist_500_LN_7_LD_10_RN_1_RD_5_0.png","C_Dist_500_LN_8_LD_12_RN_1_RD_6_0.png","C_Dist_500_LN_8_LD_12_RN_4_RD_24_0.png"],["C_Dist_500_LN_1_LD_4_RN_12_RD_16_1.png","C_Dist_500_LN_1_LD_4_RN_9_RD_12_1.png","C_Dist_500_LN_1_LD_9_RN_11_RD_18_1.png","C_Dist_500_LN_10_LD_24_RN_22_RD_24_1.png","C_Dist_500_LN_2_LD_12_RN_10_RD_15_1.png","C_Dist_500_LN_2_LD_12_RN_12_RD_18_1.png","C_Dist_500_LN_2_LD_12_RN_4_RD_6_1.png","C_Dist_500_LN_2_LD_24_RN_7_RD_12_1.png","C_Dist_500_LN_2_LD_5_RN_18_RD_20_1.png","C_Dist_500_LN_2_LD_5_RN_9_RD_10_1.png","C_Dist_500_LN_2_LD_8_RN_12_RD_16_1.png","C_Dist_500_LN_2_LD_8_RN_21_RD_28_1.png","C_Dist_500_LN_3_LD_10_RN_4_RD_5_1.png","C_Dist_500_LN_3_LD_12_RN_15_RD_20_1.png","C_Dist_500_LN_3_LD_30_RN_6_RD_10_1.png","C_Dist_500_LN_3_LD_8_RN_14_RD_16_1.png","C_Dist_500_LN_4_LD_16_RN_15_RD_20_1.png","C_Dist_500_LN_4_LD_24_RN_12_RD_18_1.png","C_Dist_500_LN_5_LD_14_RN_6_RD_7_1.png","C_Dist_500_LN_7_LD_21_RN_20_RD_24_1.png","C_Dist_500_LN_7_LD_28_RN_12_RD_16_1.png","C_Dist_500_LN_7_LD_28_RN_9_RD_12_1.png","C_Dist_500_LN_9_LD_27_RN_20_RD_24_1.png"]],"dist500_I":[["I_Dist_500_LN_2_LD_3_RN_4_RD_24_0.png","I_Dist_500_LN_5_LD_6_RN_6_RD_18_0.png","I_Dist_500_LN_7_LD_8_RN_9_RD_24_0.png"],["I_Dist_500_LN_7_LD_21_RN_5_RD_6_1.png"]],"dist500_S":[["E_Dist_500_LN_6_LD_8_RN_6_RD_24_0.png"],["E_Dist_500_LN_2_LD_12_RN_2_RD_3_1.png","E_Dist_500_LN_6_LD_24_RN_6_RD_8_1.png"]]}},{"start_time":1551899790487,"click_time":1551899792095,"finger_time":1551899791976,"fix_duration":250,"trial":1,"RT":1489,"MT":119,"sideResp":1,"stimulus":[],"xmouse":[806,806,806,805,804,802,801,801,801,801,801,801,801,801,801,801,801,800,799,799,799,799,799,799,799,799,799,799,799,799,799,799,799,799,799,799,799,799,799,799,799,799,799,799,799,799,799,799,799,799,799,799,799,799,799,799,799,799,799,799,799,799,799,799,799,799,799,799,799,799,799,799,798,798,787,771,734,672,583,501,451],"ymouse":[623,623,623,623,622,621,620,620,620,620,620,620,620,620,620,620,620,620,620,620,620,620,620,620,620,620,620,620,620,620,620,620,620,620,620,620,620,620,620,620,620,620,620,620,620,620,620,620,620,620,620,620,620,620,620,620,620,620,620,620,620,620,620,620,620,620,620,620,620,620,620,620,618,611,541,486,412,323,211,114,21],"timestamp_mouse":[15,40,48,68,87,107,129,149,169,187,208,229,249,267,288,308,329,348,368,388,408,429,447,467,488,508,529,547,568,588,608,628,649,669,688,709,727,748,768,789,807,829,847,868,887,907,928,948,969,988,1007,1027,1048,1068,1088,1107,1127,1148,1167,1189,1209,1228,1248,1268,1288,1308,1328,1349,1368,1389,1408,1428,1447,1468,1489,1508,1528,1548,1569,1588,1607],"xSR":741.5,"ySR":573.95,"xT1":424.9,"yT1":0,"xT2":1058.1,"yT2":0,"toosoon":0,"cond_shown":"Congruent","ratio_trial":300,"L_num":3,"L_den":6,"R_num":2,"R_den":10,"correct_side":1,"subjID":"LennyAndresRodriguezOtalora31","gender":"0","school":"6","age":"11"},{"start_time":1551899793770,"click_time":1551899796215,"finger_time":1551899795916,"fix_duration":673.9280381007233,"trial":2,"RT":2146,"MT":299,"sideResp":1,"stimulus":[],"xmouse":[807,807,807,807,808,808,809,809,809,809,809,809,809,809,809,809,809,809,809,809,809,809,809,809,809,809,809,809,809,809,809,809,809,809,809,809,809,809,809,809,809,809,809,809,809,809,809,809,809,809,809,809,809,809,809,809,809,809,809,809,809,809,809,809,809,809,809,809,809,809,809,809,809,809,809,809,809,809,809,809,809,809,809,809,809,809,809,809,809,809,809,809,809,809,809,809,809,809,809,809,809,809,809,809,809,809,805,794,769,733,683,595,565,543,535,535,535,535,535,533,531,526,524],"ymouse":[595,595,595,595,596,596,596,596,596,596,596,596,596,596,596,596,596,596,596,596,596,596,596,596,596,596,596,596,596,596,596,596,596,596,596,596,596,596,596,596,596,596,596,596,596,596,596,596,596,596,596,596,596,596,596,596,596,596,596,596,596,596,596,596,596,596,596,596,596,596,596,596,596,596,596,596,596,596,596,596,596,596,596,596,596,596,596,596,596,596,596,596,596,596,596,596,596,596,596,596,596,596,596,596,596,596,591,572,522,439,320,28,0,0,0,0,0,0,0,1,5,15,19],"timestamp_mouse":[8,37,46,64,84,104,125,144,164,184,206,224,244,265,284,304,325,345,365,386,406,425,446,466,485,505,526,544,564,586,606,625,644,665,685,705,725,746,765,784,806,825,845,864,885,905,925,946,965,986,1005,1024,1044,1066,1085,1105,1125,1144,1165,1185,1204,1225,1245,1266,1284,1305,1324,1346,1366,1385,1405,1425,1445,1464,1486,1505,1525,1544,1564,1584,1605,1624,1645,1666,1686,1704,1725,1746,1764,1785,1804,1825,1845,1866,1884,1906,1925,1945,1966,1985,2005,2025,2044,2065,2086,2106,2125,2146,2165,2186,2205,2224,2244,2265,2285,2306,2325,2346,2366,2385,2405,2426,2445],"xSR":741.5,"ySR":573.95,"xT1":424.9,"yT1":0,"xT2":1058.1,"yT2":0,"toosoon":0,"cond_shown":"Incongruent","ratio_trial":200,"L_num":6,"L_den":20,"R_num":3,"R_den":6,"correct_side":2,"subjID":"LennyAndresRodriguezOtalora31","gender":"0","school":"6","age":"11"},{"start_time":1551899798331,"click_time":1551899800096,"finger_time":1551899799676,"fix_duration":915.3919751723038,"trial":3,"RT":1345,"MT":420,"sideResp":1,"stimulus":[],"xmouse":[804,804,804,804,801,801,801,801,801,801,801,801,801,801,801,801,801,801,801,801,801,801,801,801,801,801,801,801,801,801,801,801,801,801,801,801,801,801,801,801,801,801,801,801,801,801,801,801,801,801,801,801,801,801,801,801,801,801,801,801,801,801,801,801,801,800,790,777,760,711,672,640,615,602,594,593,591,587,583,580,580,580,580,579,561,541,525,525,524],"ymouse":[614,614,614,614,614,614,614,614,614,614,614,614,614,614,614,614,614,614,614,614,614,614,614,614,614,614,614,614,614,614,614,614,614,614,614,614,614,614,614,614,614,614,614,614,614,614,614,614,614,614,614,614,614,614,614,614,614,614,614,614,614,614,614,614,614,613,594,571,542,443,372,306,247,213,164,142,112,97,85,77,77,77,77,77,77,77,77,77,77],"timestamp_mouse":[10,25,44,65,83,103,124,143,164,184,203,225,243,263,284,304,324,343,364,383,404,424,443,463,483,503,524,544,563,583,604,624,644,663,683,703,725,745,763,784,804,825,844,864,884,904,924,944,963,984,1003,1024,1044,1063,1084,1103,1125,1143,1164,1185,1204,1224,1245,1265,1283,1304,1324,1345,1365,1385,1405,1424,1445,1465,1484,1503,1523,1545,1564,1585,1604,1623,1645,1664,1684,1703,1723,1744,1765],"xSR":741.5,"ySR":573.95,"xT1":424.9,"yT1":0,"xT2":1058.1,"yT2":0,"toosoon":0,"cond_shown":"Incongruent","ratio_trial":200,"L_num":4,"L_den":6,"R_num":14,"R_den":30,"correct_side":1,"subjID":"LennyAndresRodriguezOtalora31","gender":"0","school":"6","age":"11"},{"start_time":1551899801444,"click_time":1551899803415,"finger_time":1551899803035,"fix_duration":349.6509487074967,"trial":4,"RT":1591,"MT":380,"sideResp":2,"stimulus":[],"xmouse":[793,793,793,793,793,793,793,793,793,793,793,793,793,793,793,793,793,793,793,793,793,793,793,793,793,793,793,793,793,793,793,793,793,793,793,793,793,793,793,793,793,793,793,793,793,793,793,793,793,793,793,793,793,793,793,793,793,793,793,793,793,793,793,793,793,793,793,793,793,793,793,793,793,793,793,793,793,794,803,826,866,917,959,987,989,989,989,989,989,989,990,992,995,1005,1013,1023,1036,1045,1063],"ymouse":[601,601,601,601,604,606,610,610,610,610,610,610,610,610,610,610,610,610,610,610,610,610,610,610,610,610,610,610,610,610,610,610,610,610,610,610,610,610,610,610,610,610,610,610,610,610,610,610,610,610,610,610,610,610,610,610,610,610,610,610,610,610,610,610,610,610,610,610,610,610,610,610,610,610,610,610,610,610,591,556,496,425,344,195,137,112,106,106,104,101,96,90,83,71,68,62,58,56,47],"timestamp_mouse":[11,33,51,72,90,111,131,151,171,191,210,232,252,271,291,310,331,351,371,390,411,431,451,472,491,510,531,550,571,592,611,632,651,671,690,711,732,751,771,790,811,830,852,872,890,910,931,950,972,990,1011,1031,1051,1071,1090,1111,1131,1150,1170,1190,1211,1231,1252,1271,1291,1310,1332,1350,1370,1392,1410,1431,1450,1470,1491,1512,1530,1552,1571,1591,1610,1630,1651,1671,1692,1711,1732,1752,1771,1792,1810,1831,1852,1871,1892,1910,1931,1952,1971],"xSR":741.5,"ySR":573.95,"xT1":424.9,"yT1":0,"xT2":1058.1,"yT2":0,"toosoon":0,"cond_shown":"Incongruent","ratio_trial":300,"L_num":4,"L_den":20,"R_num":2,"R_den":4,"correct_side":2,"subjID":"LennyAndresRodriguezOtalora31","gender":"0","school":"6","age":"11"},{"start_time":1551899805298,"click_time":1551899806915,"finger_time":1551899806595,"fix_duration":842.3493786238915,"trial":5,"RT":1297,"MT":320,"sideResp":1,"stimulus":[],"xmouse":[792,792,792,792,792,792,792,792,792,792,792,792,792,792,792,792,792,792,792,792,792,792,792,792,792,792,792,792,792,792,792,792,792,792,792,792,792,792,792,792,792,792,792,792,792,792,792,792,792,792,792,792,792,792,792,792,792,792,792,792,792,791,779,762,728,669,650,635,627,618,608,598,593,586,582,579,568,562,555,546,518],"ymouse":[628,628,628,628,628,628,628,628,628,628,628,628,628,628,628,628,628,628,628,628,628,628,628,628,628,628,628,628,628,628,628,628,628,628,628,628,628,628,628,628,628,628,628,628,628,628,628,628,628,628,628,628,628,628,628,628,628,628,628,628,628,627,611,588,544,440,392,330,273,215,175,141,131,115,101,90,64,55,51,50,48],"timestamp_mouse":[35,37,57,77,96,117,138,158,176,197,218,237,257,277,296,318,338,357,378,398,417,437,457,477,498,517,537,556,578,597,616,636,657,676,698,717,737,758,778,797,817,838,856,878,896,918,938,957,976,997,1017,1038,1057,1077,1096,1116,1137,1157,1176,1197,1216,1236,1258,1278,1297,1317,1336,1356,1377,1398,1416,1436,1457,1478,1496,1518,1537,1557,1576,1596,1617],"xSR":741.5,"ySR":573.95,"xT1":424.9,"yT1":0,"xT2":1058.1,"yT2":0,"toosoon":0,"cond_shown":"Incongruent","ratio_trial":300,"L_num":3,"L_den":6,"R_num":4,"R_den":20,"correct_side":1,"subjID":"LennyAndresRodriguezOtalora31","gender":"0","school":"6","age":"11"},{"start_time":1551899809541,"click_time":1551899811716,"finger_time":1551899811456,"fix_duration":1225.5301586887958,"trial":6,"RT":1915,"MT":260,"sideResp":1,"stimulus":[],"xmouse":[785,785,785,785,785,785,785,785,785,785,785,785,785,785,785,785,785,785,785,785,785,785,785,785,785,785,785,785,785,785,785,785,785,785,785,785,785,785,785,785,785,785,785,785,785,785,785,785,785,785,785,785,785,785,785,785,785,785,785,785,785,785,785,785,785,785,785,785,785,785,785,785,784,782,781,781,781,781,781,781,781,781,781,781,781,781,781,781,781,781,781,781,777,774,757,749,740,724,696,625,611,604,600,596,577,563,544,525,511],"ymouse":[604,605,605,605,605,605,605,605,605,605,605,605,605,605,605,605,605,605,605,605,605,605,605,605,605,605,605,605,605,605,605,605,605,605,605,605,605,605,605,605,605,605,605,605,605,605,605,605,605,605,605,605,605,605,605,605,605,605,605,605,605,605,605,605,605,605,605,605,605,605,605,605,603,603,602,602,602,602,602,602,602,602,602,602,602,602,602,602,602,602,602,602,599,595,574,561,543,504,440,254,205,180,158,141,117,102,81,62,48],"timestamp_mouse":[14,39,54,75,94,114,134,153,175,194,213,233,253,274,294,313,333,354,373,393,414,434,455,473,494,514,535,553,575,593,613,635,654,675,693,715,734,754,774,794,814,835,853,873,894,913,934,954,973,995,1015,1034,1054,1074,1093,1113,1135,1153,1175,1194,1213,1234,1253,1274,1293,1313,1334,1355,1375,1393,1414,1435,1455,1473,1494,1515,1533,1555,1573,1594,1614,1635,1653,1675,1693,1714,1734,1754,1775,1795,1815,1834,1855,1875,1893,1915,1935,1954,1974,1993,2015,2034,2054,2073,2093,2114,2134,2153,2175],"xSR":741.5,"ySR":573.95,"xT1":424.9,"yT1":0,"xT2":1058.1,"yT2":0,"toosoon":0,"cond_shown":"Incongruent","ratio_trial":100,"L_num":6,"L_den":10,"R_num":7,"R_den":14,"correct_side":1,"subjID":"LennyAndresRodriguezOtalora31","gender":"0","school":"6","age":"11"},{"start_time":1551899812746,"click_time":1551899814275,"finger_time":1551899813935,"fix_duration":250,"trial":7,"RT":1189,"MT":340,"sideResp":1,"stimulus":[],"xmouse":[810,810,810,810,810,810,810,810,810,810,810,810,810,810,810,810,810,810,810,810,810,810,808,806,800,798,796,796,796,795,794,792,790,789,789,789,789,789,789,789,789,789,789,789,789,789,789,789,789,789,789,789,789,789,789,789,787,784,777,731,683,632,581,553,547,547,547,547,547,547,546,542,539,536,522,514,510],"ymouse":[615,615,615,615,615,615,615,615,615,615,615,615,615,615,615,615,615,615,615,615,615,615,615,615,615,615,615,615,615,614,612,608,606,605,605,605,605,605,605,605,605,605,605,605,605,605,605,605,605,605,605,605,605,605,605,604,604,595,575,460,364,256,145,68,12,7,5,5,5,5,0,0,0,0,0,0,1],"timestamp_mouse":[11,33,50,68,88,110,129,148,170,189,210,230,249,269,290,310,328,349,369,389,410,430,448,470,488,510,528,550,568,589,609,629,649,670,689,708,729,750,769,789,808,830,850,869,889,909,928,950,970,989,1008,1029,1050,1068,1089,1108,1130,1149,1168,1189,1208,1229,1249,1270,1289,1309,1328,1348,1369,1389,1409,1430,1450,1469,1489,1509,1529],"xSR":741.5,"ySR":573.95,"xT1":424.9,"yT1":0,"xT2":1058.1,"yT2":0,"toosoon":0,"cond_shown":"Incongruent","ratio_trial":300,"L_num":4,"L_den":5,"R_num":6,"R_den":12,"correct_side":1,"subjID":"LennyAndresRodriguezOtalora31","gender":"0","school":"6","age":"11"},{"start_time":1551899815668,"click_time":1551899817376,"finger_time":1551899816995,"fix_duration":250,"trial":8,"RT":1327,"MT":381,"sideResp":1,"stimulus":[],"xmouse":[794,794,794,794,794,794,794,794,794,794,794,794,794,794,794,794,794,794,794,794,794,794,794,794,794,794,794,794,794,794,794,794,794,794,794,794,794,794,794,794,794,794,794,794,794,794,794,794,794,794,794,794,794,794,794,794,794,794,794,794,794,794,794,794,794,790,781,772,760,733,714,669,634,602,572,560,551,545,545,545,546,548,548,545,526,518],"ymouse":[644,644,644,644,644,644,644,644,644,644,644,644,644,644,644,644,644,644,644,644,644,644,644,644,644,644,644,644,644,644,644,644,644,644,644,644,644,644,644,644,644,644,644,644,644,644,644,644,644,644,644,644,644,644,644,644,644,644,644,644,644,644,644,643,628,607,570,523,469,388,358,316,299,282,266,253,239,225,221,219,214,204,181,159,110,93],"timestamp_mouse":[10,32,47,66,88,107,127,147,167,186,206,226,247,266,287,306,327,347,366,388,407,426,448,466,486,508,528,547,566,588,606,627,646,667,686,707,727,747,766,788,806,827,846,868,888,907,927,947,966,986,1008,1028,1046,1067,1086,1106,1126,1146,1168,1186,1206,1227,1247,1266,1287,1307,1327,1347,1367,1387,1407,1426,1447,1466,1487,1508,1528,1548,1568,1587,1606,1626,1648,1668,1688,1707],"xSR":741.5,"ySR":573.95,"xT1":424.9,"yT1":0,"xT2":1058.1,"yT2":0,"toosoon":0,"cond_shown":"Congruent","ratio_trial":100,"L_num":9,"L_den":15,"R_num":8,"R_den":16,"correct_side":1,"subjID":"LennyAndresRodriguezOtalora31","gender":"0","school":"6","age":"11"},{"start_time":1551899819790,"click_time":1551899821594,"finger_time":1551899820935,"fix_duration":1432.1867525475554,"trial":9,"RT":1145,"MT":659,"sideResp":2,"stimulus":[],"xmouse":[794,794,794,794,794,794,794,794,794,794,794,794,794,794,794,794,794,794,794,794,794,794,794,794,794,794,794,794,794,794,794,794,794,794,794,794,794,794,794,794,794,794,794,794,794,794,794,794,794,794,794,794,794,799,809,818,828,837,855,870,894,921,947,1035,1064,1085,1095,1097,1097,1097,1097,1097,1098,1052,1021,1007,1004,1004,1007,1009,1012,1014,1017,1020,1024,1027,1032,1037,1051,1057,1060],"ymouse":[627,627,627,627,627,627,627,627,627,627,627,627,627,627,627,627,627,627,627,627,627,627,627,627,627,627,627,627,627,627,627,627,627,627,627,627,627,627,627,627,627,627,627,627,627,627,627,627,627,627,627,627,627,618,606,593,580,571,550,531,505,471,437,331,297,270,249,240,226,223,218,212,200,138,107,91,83,80,70,65,59,56,54,54,53,53,51,51,49,49,49],"timestamp_mouse":[5,24,51,64,85,105,125,145,165,185,204,225,245,264,284,304,324,344,365,385,405,424,446,466,484,504,524,546,566,584,604,624,645,664,684,704,725,745,764,784,805,824,844,865,884,904,925,944,964,984,1004,1025,1044,1064,1085,1106,1124,1145,1164,1186,1204,1225,1245,1265,1284,1304,1324,1346,1365,1386,1404,1424,1444,1464,1484,1504,1524,1546,1564,1584,1605,1624,1645,1664,1686,1706,1724,1746,1765,1784,1804],"xSR":741.5,"ySR":573.95,"xT1":424.9,"yT1":0,"xT2":1058.1,"yT2":0,"toosoon":0,"cond_shown":"Congruent","ratio_trial":300,"L_num":7,"L_den":14,"R_num":20,"R_den":25,"correct_side":2,"subjID":"LennyAndresRodriguezOtalora31","gender":"0","school":"6","age":"11"},{"start_time":1551899823968,"click_time":1551899825696,"finger_time":1551899825355,"fix_duration":1272.8487315410518,"trial":10,"RT":1387,"MT":341,"sideResp":2,"stimulus":[],"xmouse":[794,794,794,794,794,794,794,794,794,794,794,794,794,794,794,794,794,794,794,794,794,794,794,794,794,794,794,794,794,794,794,794,794,794,794,794,794,794,794,794,794,794,794,794,794,794,794,794,794,794,794,794,794,794,794,794,794,794,794,794,794,794,794,794,794,794,794,795,798,809,823,861,879,925,945,963,967,967,970,1002,1020,1044,1054,1058,1059,1060,1068],"ymouse":[622,622,622,622,622,622,622,622,622,622,622,622,622,622,622,622,622,622,622,622,622,622,622,622,622,622,622,622,622,622,622,622,622,622,622,622,622,622,622,622,622,622,622,622,622,622,622,622,622,622,622,622,622,622,622,622,622,622,622,622,622,622,622,622,621,618,613,607,598,570,543,479,444,357,312,234,191,126,65,0,0,0,0,0,0,0,2],"timestamp_mouse":[8,41,46,66,86,106,127,148,167,186,206,226,246,267,286,306,328,347,366,387,406,427,448,466,487,507,526,546,566,587,607,627,646,667,686,708,726,747,766,787,808,826,846,866,887,906,926,946,967,987,1007,1026,1046,1067,1098,1107,1126,1147,1167,1186,1207,1226,1247,1267,1287,1307,1326,1346,1367,1387,1406,1426,1446,1466,1487,1506,1527,1547,1566,1587,1606,1626,1647,1666,1686,1706,1727],"xSR":741.5,"ySR":573.95,"xT1":424.9,"yT1":0,"xT2":1058.1,"yT2":0,"toosoon":0,"cond_shown":"Incongruent","ratio_trial":100,"L_num":10,"L_den":25,"R_num":9,"R_den":18,"correct_side":2,"subjID":"LennyAndresRodriguezOtalora31","gender":"0","school":"6","age":"11"},{"start_time":1551899828918,"click_time":1551899830214,"finger_time":1551899829614,"fix_duration":881.512563191746,"trial":11,"RT":696,"MT":600,"sideResp":1,"stimulus":[],"xmouse":[800,800,800,800,800,800,800,800,800,800,800,800,800,800,800,800,800,800,800,800,800,800,800,800,800,800,800,800,800,800,800,800,798,795,791,783,771,751,738,711,663,604,519,498,483,478,478,477,477,477,477,477,482,490,496,498,498,498,498,498,498,495,486,485,484],"ymouse":[623,623,623,623,623,623,623,623,623,623,623,623,623,623,623,623,623,623,623,623,623,623,623,623,623,623,623,623,623,623,620,616,598,578,550,507,463,419,394,358,319,282,221,203,190,186,185,181,179,178,174,169,156,150,146,143,142,141,138,136,131,127,110,100,89],"timestamp_mouse":[17,41,56,77,96,117,136,156,178,196,216,237,256,276,296,316,337,356,376,398,417,437,458,477,496,518,537,557,578,597,616,638,656,676,696,716,737,756,777,798,817,837,856,876,896,917,937,957,977,997,1016,1036,1056,1076,1097,1116,1137,1157,1177,1197,1216,1236,1257,1277,1296],"xSR":741.5,"ySR":573.95,"xT1":424.9,"yT1":0,"xT2":1058.1,"yT2":0,"toosoon":0,"cond_shown":"Incongruent","ratio_trial":100,"L_num":9,"L_den":10,"R_num":20,"R_den":25,"correct_side":1,"subjID":"LennyAndresRodriguezOtalora31","gender":"0","school":"6","age":"11"},{"start_time":1551899831710,"click_time":1551899833055,"finger_time":1551899832515,"fix_duration":633.8972260850147,"trial":12,"RT":805,"MT":540,"sideResp":2,"stimulus":[],"xmouse":[791,791,791,791,791,791,791,791,791,791,791,791,792,792,792,794,794,794,794,794,795,795,796,796,796,796,796,796,797,797,797,797,797,797,797,797,797,798,799,810,827,885,946,1043,1070,1087,1107,1133,1167,1241,1273,1278,1278,1278,1278,1273,1260,1247,1237,1226,1220,1217,1199,1173,1169,1167,1164,1157],"ymouse":[626,626,626,626,626,626,626,626,626,626,626,626,626,626,626,625,625,625,625,625,624,624,624,624,624,624,624,624,623,623,623,623,623,623,623,623,623,622,621,599,570,491,432,317,265,227,194,162,135,92,83,82,82,82,82,82,82,81,81,81,80,80,77,73,73,73,72,69],"timestamp_mouse":[8,35,44,66,85,104,125,144,164,186,205,224,245,264,284,305,324,344,365,385,404,424,445,465,484,506,524,544,565,585,604,624,644,665,685,705,724,745,765,784,804,824,845,865,885,904,926,945,965,984,1004,1024,1044,1064,1084,1104,1125,1144,1165,1184,1204,1224,1245,1265,1284,1305,1324,1345],"xSR":741.5,"ySR":573.95,"xT1":424.9,"yT1":0,"xT2":1058.1,"yT2":0,"toosoon":0,"cond_shown":"Incongruent","ratio_trial":200,"L_num":11,"L_den":20,"R_num":3,"R_den":4,"correct_side":2,"subjID":"LennyAndresRodriguezOtalora31","gender":"0","school":"6","age":"11"},{"start_time":1551899836719,"click_time":1551899837634,"finger_time":1551899837435,"fix_duration":1163.1410305838076,"trial":13,"RT":716,"MT":199,"sideResp":1,"stimulus":[],"xmouse":[792,793,793,793,793,793,793,793,793,793,793,793,793,793,793,793,793,793,793,793,793,793,793,793,793,793,793,793,793,793,793,793,793,793,789,772,745,715,655,645,639,633,622,580,551,519],"ymouse":[636,637,637,637,637,637,637,637,637,637,637,637,637,637,637,637,637,637,637,637,637,637,637,637,637,637,637,637,637,637,637,637,633,616,586,521,424,319,137,117,107,101,96,76,60,42],"timestamp_mouse":[16,45,55,75,97,116,137,155,176,195,215,235,256,277,295,315,336,357,377,395,415,435,457,476,496,516,537,555,576,596,615,636,655,676,695,716,735,756,776,795,815,836,855,876,895,915],"xSR":741.5,"ySR":573.95,"xT1":424.9,"yT1":0,"xT2":1058.1,"yT2":0,"toosoon":0,"cond_shown":"Incongruent","ratio_trial":300,"L_num":4,"L_den":5,"R_num":6,"R_den":12,"correct_side":1,"subjID":"LennyAndresRodriguezOtalora31","gender":"0","school":"6","age":"11"},{"start_time":1551899839516,"click_time":1551899840875,"finger_time":1551899840795,"fix_duration":1081.54567628983,"trial":14,"RT":1279,"MT":80,"sideResp":2,"stimulus":[],"xmouse":[806,806,806,806,806,806,806,806,806,806,806,806,806,806,806,806,806,806,806,806,806,806,806,806,806,806,806,806,806,806,806,806,806,806,806,806,806,806,806,806,806,806,806,806,806,806,806,806,806,806,806,806,806,806,806,806,806,806,806,806,806,806,810,852,905,975,1050,1146],"ymouse":[649,649,649,649,648,648,647,646,645,645,645,645,645,645,645,645,645,645,645,645,645,645,645,645,645,645,645,645,645,645,645,645,645,645,645,645,645,645,645,645,645,645,645,645,645,645,645,645,645,645,645,645,645,645,645,645,645,645,645,645,645,644,637,579,506,400,269,78],"timestamp_mouse":[20,44,58,79,99,119,138,159,179,198,218,240,258,279,298,318,340,359,378,399,418,438,458,479,499,519,538,558,579,598,619,638,658,679,698,718,740,758,779,799,818,840,859,878,898,918,938,960,979,998,1018,1038,1059,1078,1098,1118,1139,1158,1178,1198,1219,1239,1258,1279,1298,1318,1338,1358],"xSR":741.5,"ySR":573.95,"xT1":424.9,"yT1":0,"xT2":1058.1,"yT2":0,"toosoon":0,"cond_shown":"Incongruent","ratio_trial":100,"L_num":17,"L_den":30,"R_num":10,"R_den":15,"correct_side":2,"subjID":"LennyAndresRodriguezOtalora31","gender":"0","school":"6","age":"11"},{"start_time":1551899843133,"click_time":1551899844475,"finger_time":1551899844234,"fix_duration":1177.4864878154276,"trial":15,"RT":1101,"MT":241,"sideResp":1,"stimulus":[],"xmouse":[810,810,810,810,810,810,810,810,810,810,810,810,810,810,810,810,810,810,810,810,810,810,810,810,810,810,810,810,810,810,810,810,810,810,810,810,810,810,810,810,810,810,810,810,810,810,810,810,810,810,810,810,810,807,794,779,768,752,730,654,589,526,485,468,468,468,468,467],"ymouse":[623,623,623,623,623,623,623,623,623,623,623,623,623,623,623,623,623,623,623,623,623,623,623,623,623,623,623,623,623,623,623,623,623,623,623,623,623,623,623,623,623,623,623,623,623,623,623,623,623,623,623,623,623,618,588,551,510,453,372,169,57,0,0,0,0,0,0,1],"timestamp_mouse":[8,22,44,63,82,102,122,142,163,183,202,222,242,261,283,301,321,342,361,381,402,422,441,461,482,501,521,541,561,583,602,623,643,661,681,702,722,742,761,783,801,823,841,861,883,901,921,941,961,982,1001,1021,1041,1062,1081,1101,1121,1143,1161,1181,1202,1222,1242,1262,1281,1302,1321,1342],"xSR":741.5,"ySR":573.95,"xT1":424.9,"yT1":0,"xT2":1058.1,"yT2":0,"toosoon":0,"cond_shown":"Incongruent","ratio_trial":100,"L_num":6,"L_den":10,"R_num":11,"R_den":22,"correct_side":1,"subjID":"LennyAndresRodriguezOtalora31","gender":"0","school":"6","age":"11"},{"start_time":1551899845726,"click_time":1551899847354,"finger_time":1551899847035,"fix_duration":250,"trial":16,"RT":1309,"MT":319,"sideResp":2,"stimulus":[],"xmouse":[775,775,775,775,776,776,776,776,776,776,776,776,776,776,776,776,776,776,776,776,776,776,776,776,776,776,776,776,776,776,776,776,776,776,776,776,776,776,776,776,776,776,776,776,776,776,776,776,776,776,776,776,776,776,777,777,777,777,777,777,778,778,779,781,798,816,846,878,906,944,952,963,974,990,1039,1059,1076,1088,1093,1095,1099,1104],"ymouse":[616,616,616,619,620,621,621,621,621,621,621,621,621,621,621,621,621,621,621,621,621,621,621,621,621,621,621,621,621,621,621,621,621,621,621,621,621,621,621,621,621,621,621,621,621,621,622,622,622,622,622,622,622,622,622,622,622,622,622,622,622,622,621,619,576,533,460,385,315,180,125,75,41,15,0,0,0,0,0,0,0,2],"timestamp_mouse":[17,38,48,70,88,108,129,149,168,188,208,230,250,268,288,308,328,348,368,388,408,430,449,468,489,509,528,548,569,588,610,629,648,668,688,708,730,749,769,788,809,829,848,869,890,908,928,948,970,990,1010,1029,1048,1069,1088,1108,1130,1148,1168,1188,1210,1228,1248,1269,1289,1309,1328,1349,1369,1388,1409,1428,1450,1469,1488,1508,1528,1549,1569,1588,1608,1628],"xSR":741.5,"ySR":573.95,"xT1":424.9,"yT1":0,"xT2":1058.1,"yT2":0,"toosoon":0,"cond_shown":"Congruent","ratio_trial":200,"L_num":3,"L_den":10,"R_num":7,"R_den":14,"correct_side":2,"subjID":"LennyAndresRodriguezOtalora31","gender":"0","school":"6","age":"11"},{"start_time":1551899851071,"click_time":1551899853095,"finger_time":1551899852636,"fix_duration":1294.7731027853079,"trial":17,"RT":1565,"MT":459,"sideResp":2,"stimulus":[],"xmouse":[784,784,784,784,784,784,784,784,785,785,785,785,785,785,785,785,785,785,785,785,785,785,786,786,786,786,786,787,787,787,787,787,787,787,787,787,787,787,787,787,787,787,787,787,787,787,787,787,787,787,787,787,787,787,787,787,787,787,787,787,787,787,787,784,782,781,781,781,781,781,781,781,781,781,781,781,781,781,807,841,882,915,953,1026,1062,1084,1099,1111,1131,1143,1150,1155,1157,1160,1162,1162,1162,1162,1162,1161,1161,1157],"ymouse":[652,652,652,652,652,652,652,652,652,652,652,652,652,652,652,652,652,652,652,652,652,652,651,651,649,649,649,648,648,648,648,648,648,648,648,648,648,648,648,647,647,647,647,647,647,647,647,647,647,647,647,647,647,647,647,647,647,647,647,647,647,646,645,641,637,636,636,636,636,635,635,635,635,633,630,624,611,586,487,411,332,257,175,45,0,0,0,0,0,0,0,0,0,0,1,1,1,1,1,2,2,4],"timestamp_mouse":[8,24,44,64,83,104,125,145,163,184,204,223,244,265,284,303,323,343,363,383,403,424,444,463,484,505,523,543,565,584,604,623,644,664,683,703,724,743,764,784,804,824,844,863,885,903,923,943,963,983,1003,1023,1044,1063,1085,1105,1124,1144,1165,1184,1204,1223,1244,1263,1284,1304,1324,1343,1363,1384,1404,1423,1443,1463,1484,1504,1523,1544,1565,1584,1603,1623,1643,1663,1685,1704,1724,1745,1765,1784,1804,1825,1844,1864,1884,1904,1924,1944,1963,1983,2004,2024],"xSR":741.5,"ySR":573.95,"xT1":424.9,"yT1":0,"xT2":1058.1,"yT2":0,"toosoon":0,"cond_shown":"Congruent","ratio_trial":200,"L_num":5,"L_den":10,"R_num":14,"R_den":20,"correct_side":2,"subjID":"LennyAndresRodriguezOtalora31","gender":"0","school":"6","age":"11"},{"start_time":1551899854386,"click_time":1551899856556,"finger_time":1551899856095,"fix_duration":250,"trial":18,"RT":1709,"MT":461,"sideResp":2,"stimulus":[],"xmouse":[767,767,767,767,767,767,767,767,767,767,767,767,767,767,767,767,767,767,767,767,767,767,767,767,767,767,767,767,767,767,767,767,767,767,767,768,768,768,768,769,769,769,769,769,769,769,769,770,770,770,770,770,771,771,771,771,771,771,771,771,771,772,772,772,772,771,771,771,771,771,771,771,771,771,771,771,771,771,771,771,771,771,781,790,800,818,849,943,992,1040,1078,1101,1120,1124,1135,1153,1175,1195,1198,1198,1195,1193,1187,1182,1175,1171,1168,1160,1152],"ymouse":[644,644,644,644,644,644,644,644,644,644,644,644,644,644,644,644,644,644,644,644,644,644,644,644,644,644,644,644,644,644,644,644,644,644,644,644,644,644,644,644,644,644,644,644,644,644,644,644,644,644,644,644,644,644,644,644,644,644,644,644,644,644,643,643,641,640,640,640,640,640,640,640,640,640,640,640,640,640,640,640,639,636,620,604,582,545,487,351,296,256,230,216,202,199,192,179,161,135,109,100,95,93,90,88,86,85,85,83,83],"timestamp_mouse":[9,37,48,68,89,109,129,148,170,188,208,229,250,268,288,310,329,349,368,388,410,429,449,470,488,509,529,548,570,588,609,630,649,668,688,708,728,748,768,788,808,830,849,869,888,908,929,948,968,988,1008,1029,1048,1068,1088,1109,1129,1148,1170,1189,1209,1228,1249,1268,1289,1308,1328,1348,1370,1388,1408,1429,1448,1468,1488,1510,1528,1548,1568,1589,1609,1629,1648,1670,1688,1709,1729,1749,1770,1788,1808,1830,1849,1868,1888,1909,1929,1948,1968,1988,2008,2028,2049,2070,2090,2109,2128,2148,2169],"xSR":741.5,"ySR":573.95,"xT1":424.9,"yT1":0,"xT2":1058.1,"yT2":0,"toosoon":0,"cond_shown":"Congruent","ratio_trial":100,"L_num":12,"L_den":30,"R_num":13,"R_den":26,"correct_side":2,"subjID":"LennyAndresRodriguezOtalora31","gender":"0","school":"6","age":"11"},{"start_time":1551899860218,"click_time":1551899861716,"finger_time":1551899861295,"fix_duration":1001.2300172182684,"trial":19,"RT":1077,"MT":421,"sideResp":2,"stimulus":[],"xmouse":[793,793,793,793,793,793,793,793,793,793,793,793,793,793,793,793,793,793,793,793,793,793,793,793,793,793,793,793,793,793,793,793,793,793,793,793,793,793,793,793,793,793,793,793,793,793,793,793,793,793,793,804,811,854,898,966,997,1025,1048,1071,1091,1115,1126,1130,1135,1136,1134,1131,1130,1129,1127,1113,1109,1109,1112],"ymouse":[632,631,631,630,630,630,630,630,630,630,630,630,630,630,630,630,630,630,630,630,630,630,630,630,630,630,630,630,630,630,630,630,630,630,630,630,630,630,630,630,630,630,630,630,630,630,630,630,630,630,630,618,608,550,497,412,375,344,323,303,285,253,227,211,193,178,159,154,151,150,148,135,119,103,88],"timestamp_mouse":[18,50,57,76,96,117,137,156,178,197,218,236,256,276,296,316,336,356,377,397,416,437,457,477,496,516,536,557,576,598,617,636,656,677,697,716,737,757,778,796,817,837,856,878,896,917,937,957,978,997,1016,1037,1056,1077,1096,1118,1136,1156,1177,1197,1216,1236,1257,1278,1296,1316,1336,1356,1376,1398,1417,1436,1456,1478,1497],"xSR":741.5,"ySR":573.95,"xT1":424.9,"yT1":0,"xT2":1058.1,"yT2":0,"toosoon":0,"cond_shown":"Congruent","ratio_trial":300,"L_num":8,"L_den":15,"R_num":10,"R_den":12,"correct_side":2,"subjID":"LennyAndresRodriguezOtalora31","gender":"0","school":"6","age":"11"},{"start_time":1551899864466,"click_time":1551899865516,"finger_time":1551899865374,"fix_duration":250,"trial":20,"RT":908,"MT":142,"sideResp":1,"stimulus":[],"xmouse":[795,795,795,795,795,795,795,795,795,795,795,795,795,795,795,795,795,795,795,795,795,795,795,795,795,795,795,795,795,795,795,795,795,795,795,795,795,795,795,795,795,793,791,788,784,781,775,764,741,619,556,510,493],"ymouse":[630,630,630,630,630,630,630,630,630,630,630,630,630,630,630,630,630,630,630,630,630,630,630,630,630,630,630,630,630,630,630,630,630,630,630,630,630,630,630,630,630,626,618,608,576,554,523,485,429,235,163,111,85],"timestamp_mouse":[9,30,48,68,89,109,128,149,170,188,209,228,248,270,289,309,329,348,368,388,408,428,448,469,488,508,528,549,570,588,608,628,650,668,688,708,729,749,770,788,808,828,849,868,889,908,928,948,968,988,1009,1028,1049],"xSR":741.5,"ySR":573.95,"xT1":424.9,"yT1":0,"xT2":1058.1,"yT2":0,"toosoon":0,"cond_shown":"Incongruent","ratio_trial":100,"L_num":2,"L_den":4,"R_num":6,"R_den":15,"correct_side":1,"subjID":"LennyAndresRodriguezOtalora31","gender":"0","school":"6","age":"11"},{"start_time":1551899867439,"click_time":1551899868494,"finger_time":1551899868275,"fix_duration":922.2502534232258,"trial":21,"RT":836,"MT":219,"sideResp":1,"stimulus":[],"xmouse":[779,779,779,779,779,779,779,779,779,779,779,779,779,779,779,779,779,779,779,779,779,779,779,779,779,779,779,779,779,779,779,779,779,779,779,779,779,779,779,779,774,732,710,695,680,644,620,596,563,547,532,526,524],"ymouse":[600,600,600,600,600,600,600,600,600,600,600,600,600,600,600,600,600,600,600,600,600,600,600,600,600,600,600,600,600,600,600,600,600,600,600,600,600,600,600,598,583,509,467,432,400,316,255,196,124,91,62,52,49],"timestamp_mouse":[16,35,56,75,95,116,135,155,175,196,216,235,256,275,296,315,335,355,375,395,415,436,457,476,496,515,536,555,576,595,615,636,655,676,697,716,735,756,777,795,815,836,856,876,896,916,935,955,977,995,1016,1035,1055],"xSR":741.5,"ySR":573.95,"xT1":424.9,"yT1":0,"xT2":1058.1,"yT2":0,"toosoon":0,"cond_shown":"Incongruent","ratio_trial":300,"L_num":3,"L_den":6,"R_num":4,"R_den":20,"correct_side":1,"subjID":"LennyAndresRodriguezOtalora31","gender":"0","school":"6","age":"11"},{"start_time":1551899872220,"click_time":1551899874215,"finger_time":1551899873995,"fix_duration":1285.3312096744328,"trial":22,"RT":1775,"MT":220,"sideResp":1,"stimulus":[],"xmouse":[781,781,781,781,781,781,781,781,781,781,781,781,781,781,781,781,781,781,781,781,781,781,781,781,781,781,781,781,781,781,781,781,781,781,781,781,781,781,781,781,781,781,781,781,781,780,779,777,777,777,777,777,777,777,777,777,777,777,777,777,777,777,777,777,777,777,777,777,777,777,777,777,777,777,777,777,777,777,777,777,777,777,777,777,777,777,776,756,738,712,684,653,605,577,549,527,514,486,477,472],"ymouse":[614,614,614,614,614,614,614,614,614,614,614,614,614,614,614,614,614,614,614,614,614,614,614,614,614,614,614,614,614,614,614,614,614,614,614,614,614,614,614,614,614,614,614,614,614,614,612,610,610,610,610,610,610,610,610,610,610,610,610,610,610,610,610,610,610,610,610,610,610,610,610,610,610,610,610,610,610,610,610,610,610,610,610,610,610,610,609,599,587,568,541,481,379,336,297,264,232,155,125,91],"timestamp_mouse":[18,46,54,74,94,115,135,154,176,196,214,234,254,274,294,315,335,355,374,395,414,434,456,474,494,515,534,556,574,595,614,634,655,676,694,714,734,754,775,794,814,835,854,875,895,914,936,954,974,994,1014,1034,1054,1074,1095,1114,1135,1155,1174,1194,1214,1235,1254,1275,1294,1315,1334,1355,1374,1395,1415,1435,1454,1476,1495,1515,1535,1556,1575,1595,1615,1635,1655,1674,1694,1714,1734,1754,1775,1794,1814,1834,1854,1875,1896,1914,1934,1954,1975,1995],"xSR":741.5,"ySR":573.95,"xT1":424.9,"yT1":0,"xT2":1058.1,"yT2":0,"toosoon":0,"cond_shown":"Congruent","ratio_trial":300,"L_num":8,"L_den":16,"R_num":1,"R_den":5,"correct_side":1,"subjID":"LennyAndresRodriguezOtalora31","gender":"0","school":"6","age":"11"},{"start_time":1551899875943,"click_time":1551899877035,"finger_time":1551899876616,"fix_duration":568.8932915900928,"trial":23,"RT":673,"MT":419,"sideResp":1,"stimulus":[],"xmouse":[806,806,806,806,806,806,806,806,806,806,806,806,806,806,806,806,806,806,806,806,806,806,806,806,806,806,806,806,806,806,806,794,784,773,759,738,699,681,667,655,638,626,623,622,621,620,617,615,613,608,601,575,561,540,505],"ymouse":[630,630,630,630,630,630,630,630,630,630,630,630,630,630,630,630,630,630,630,630,630,630,630,630,630,630,630,630,630,630,628,606,588,563,511,441,312,267,234,208,174,154,151,149,147,145,143,141,139,135,128,105,87,66,28],"timestamp_mouse":[12,38,52,71,91,112,132,152,173,192,211,231,251,273,291,312,331,353,372,392,412,431,451,472,492,512,532,551,572,591,612,632,652,673,693,711,731,751,772,792,811,831,851,871,891,911,938,951,972,991,1011,1031,1052,1071,1091],"xSR":741.5,"ySR":573.95,"xT1":424.9,"yT1":0,"xT2":1058.1,"yT2":0,"toosoon":0,"cond_shown":"Incongruent","ratio_trial":300,"L_num":8,"L_den":10,"R_num":14,"R_den":28,"correct_side":1,"subjID":"LennyAndresRodriguezOtalora31","gender":"0","school":"6","age":"11"},{"start_time":1551899877987,"click_time":1551899879235,"finger_time":1551899878895,"fix_duration":250,"trial":24,"RT":908,"MT":340,"sideResp":1,"stimulus":[],"xmouse":[812,812,812,812,812,812,814,814,814,814,814,814,814,814,814,814,814,814,814,814,814,814,814,814,814,814,814,814,814,814,814,814,814,814,814,814,814,814,814,814,814,814,814,814,809,779,751,739,734,727,715,709,700,692,681,659,639,625,601,571,519,494,474],"ymouse":[638,638,638,638,638,638,640,640,640,640,640,640,640,640,640,640,640,640,640,640,640,640,640,640,640,640,640,640,640,640,640,640,640,640,640,640,640,640,640,640,640,637,631,614,589,530,498,478,456,437,405,391,376,360,342,305,280,263,228,188,133,108,88],"timestamp_mouse":[8,28,47,69,88,108,128,149,167,188,207,227,247,267,287,308,327,349,368,387,408,427,448,468,489,507,527,547,567,587,607,627,648,668,688,707,728,747,767,787,807,827,848,867,887,908,928,947,969,987,1007,1027,1047,1068,1088,1109,1129,1148,1168,1188,1207,1227,1248],"xSR":741.5,"ySR":573.95,"xT1":424.9,"yT1":0,"xT2":1058.1,"yT2":0,"toosoon":0,"cond_shown":"Congruent","ratio_trial":100,"L_num":8,"L_den":16,"R_num":2,"R_den":5,"correct_side":1,"subjID":"LennyAndresRodriguezOtalora31","gender":"0","school":"6","age":"11"},{"start_time":1551899881570,"click_time":1551899883494,"finger_time":1551899882914,"fix_duration":1433.7776178866582,"trial":25,"RT":1344,"MT":580,"sideResp":1,"stimulus":[],"xmouse":[796,796,796,796,796,796,796,796,796,796,796,796,796,796,797,797,797,798,798,798,798,798,798,798,798,798,798,798,798,798,798,798,798,798,798,798,798,798,798,798,798,798,798,798,798,798,798,798,798,798,798,798,798,798,798,798,798,798,798,798,798,798,798,798,798,798,794,789,786,782,780,780,778,775,765,747,721,693,675,648,621,589,587,586,585,579,561,556,553,550,546,539,539,539,539,532,484],"ymouse":[629,629,629,629,629,629,629,629,629,629,629,629,629,629,630,630,630,631,631,631,631,631,631,631,631,631,631,631,631,631,631,631,631,631,631,631,631,631,631,631,631,631,631,631,631,631,631,631,631,631,631,631,631,631,631,631,631,631,631,631,631,631,631,630,628,623,586,568,558,551,548,548,546,538,519,471,403,337,301,254,206,143,132,125,119,109,89,81,77,72,67,64,64,64,64,63,56],"timestamp_mouse":[11,41,43,64,85,105,124,145,163,183,203,224,244,263,284,305,325,343,364,383,403,423,444,464,483,505,523,543,564,585,603,624,645,663,685,703,723,744,764,784,805,824,843,864,883,904,924,944,965,983,1004,1024,1043,1064,1085,1103,1124,1145,1163,1183,1205,1223,1243,1264,1283,1303,1323,1344,1363,1384,1404,1425,1444,1463,1484,1503,1523,1543,1564,1585,1604,1623,1645,1663,1683,1705,1724,1745,1763,1783,1803,1823,1844,1864,1883,1904,1924],"xSR":741.5,"ySR":573.95,"xT1":424.9,"yT1":0,"xT2":1058.1,"yT2":0,"toosoon":0,"cond_shown":"Congruent","ratio_trial":100,"L_num":12,"L_den":30,"R_num":13,"R_den":26,"correct_side":2,"subjID":"LennyAndresRodriguezOtalora31","gender":"0","school":"6","age":"11"},{"start_time":1551899885326,"click_time":1551899886235,"finger_time":1551899885493,"fix_duration":250,"trial":26,"RT":167,"MT":742,"sideResp":1,"stimulus":[],"xmouse":[838,838,838,838,839,839,839,840,842,843,843,843,843,843,843,843,843,843,843,843,843,843,843,843,843,843,843,843,843,843,843,843,843,843,843,843,843,843,824,808,790,769,731,602,509,425],"ymouse":[619,619,619,619,618,616,613,609,605,603,603,603,603,603,603,603,603,603,603,603,603,603,603,603,603,603,603,603,603,603,603,603,603,603,603,603,603,602,583,572,560,543,508,278,127,18],"timestamp_mouse":[15,36,48,68,87,108,128,148,167,187,208,229,247,268,287,309,329,348,368,388,407,427,449,468,487,507,528,548,568,587,609,628,648,667,687,708,728,748,768,787,807,828,847,868,887,909],"xSR":741.5,"ySR":573.95,"xT1":424.9,"yT1":0,"xT2":1058.1,"yT2":0,"toosoon":0,"cond_shown":"Incongruent","ratio_trial":300,"L_num":2,"L_den":4,"R_num":6,"R_den":30,"correct_side":1,"subjID":"LennyAndresRodriguezOtalora31","gender":"0","school":"6","age":"11"},{"start_time":1551899888939,"click_time":1551899890533,"finger_time":1551899890293,"fix_duration":1323.6705205794622,"trial":27,"RT":1354,"MT":240,"sideResp":1,"stimulus":[],"xmouse":[787,787,787,787,787,787,787,787,787,787,787,787,787,787,787,787,787,787,787,787,787,787,787,787,787,787,787,787,787,787,790,791,792,792,792,792,792,792,792,792,792,792,792,792,792,792,792,792,792,792,792,792,792,792,792,792,792,792,792,792,792,792,792,792,792,791,785,773,742,723,702,682,667,631,614,593,567,543,506,494],"ymouse":[608,608,608,608,608,608,608,608,608,608,608,608,608,608,608,608,608,608,608,608,608,608,608,608,608,608,608,608,608,608,604,602,600,600,600,600,600,600,600,600,600,600,600,600,600,600,600,600,600,600,600,600,600,600,600,600,600,600,600,600,600,600,600,600,600,594,577,553,492,464,436,412,390,340,319,289,237,185,117,96],"timestamp_mouse":[14,45,54,75,94,114,136,154,175,194,215,234,255,276,294,314,335,354,374,396,416,435,455,474,495,514,536,554,575,594,615,634,655,675,696,716,734,755,774,795,816,834,854,874,894,914,935,955,975,995,1014,1035,1055,1075,1095,1115,1134,1154,1174,1194,1214,1234,1255,1274,1296,1314,1335,1354,1374,1395,1414,1435,1455,1475,1494,1514,1536,1555,1574,1594],"xSR":741.5,"ySR":573.95,"xT1":424.9,"yT1":0,"xT2":1058.1,"yT2":0,"toosoon":0,"cond_shown":"Congruent","ratio_trial":300,"L_num":18,"L_den":20,"R_num":9,"R_den":15,"correct_side":1,"subjID":"LennyAndresRodriguezOtalora31","gender":"0","school":"6","age":"11"},{"start_time":1551899891863,"click_time":1551899893594,"finger_time":1551899893234,"fix_duration":448.0366722867363,"trial":28,"RT":1371,"MT":360,"sideResp":2,"stimulus":[],"xmouse":[787,787,787,787,787,787,787,787,787,787,787,787,787,787,787,787,787,787,787,787,787,787,787,787,787,787,787,787,787,787,787,787,787,787,787,787,787,787,787,787,787,787,787,787,787,787,787,787,787,787,787,787,787,787,787,787,787,787,787,787,787,787,787,787,787,787,789,798,990,1080,1154,1217,1289,1293,1288,1277,1270,1266,1256,1249,1238,1229,1217,1212,1199,1180,1152],"ymouse":[640,640,640,640,640,640,640,640,640,640,640,640,640,640,640,640,640,640,640,640,640,640,640,640,640,640,640,640,640,640,640,640,640,640,640,640,640,640,640,640,640,640,640,640,640,640,640,640,640,640,640,640,640,640,640,640,640,640,640,640,640,640,640,640,640,640,640,637,522,475,420,359,267,247,230,210,198,190,174,166,153,146,136,131,123,112,96],"timestamp_mouse":[12,39,50,72,91,110,132,150,172,191,211,230,250,270,291,311,331,350,371,390,411,432,451,471,491,510,530,551,571,591,611,630,650,670,692,710,730,751,772,791,810,832,850,871,891,911,930,951,971,990,1010,1030,1050,1072,1090,1111,1131,1152,1172,1191,1210,1231,1252,1270,1290,1310,1331,1350,1371,1391,1412,1432,1451,1470,1490,1511,1532,1551,1571,1590,1610,1631,1651,1670,1690,1711,1731],"xSR":741.5,"ySR":573.95,"xT1":424.9,"yT1":0,"xT2":1058.1,"yT2":0,"toosoon":0,"cond_shown":"Congruent","ratio_trial":100,"L_num":1,"L_den":2,"R_num":3,"R_den":5,"correct_side":2,"subjID":"LennyAndresRodriguezOtalora31","gender":"0","school":"6","age":"11"},{"start_time":1551899896242,"click_time":1551899897734,"finger_time":1551899897233,"fix_duration":1448.0474629021007,"trial":29,"RT":991,"MT":501,"sideResp":1,"stimulus":[],"xmouse":[795,795,795,795,795,795,795,795,795,795,795,795,795,795,793,791,791,791,791,791,791,791,791,791,791,791,791,791,791,791,791,791,791,791,791,791,791,791,791,791,791,791,791,791,791,791,791,791,788,770,741,705,648,586,468,411,363,340,334,334,334,334,336,339,341,341,341,342,347,376,392,408,417,422,426],"ymouse":[599,599,599,599,599,599,599,599,599,599,599,599,600,602,609,611,611,611,611,611,611,611,611,611,611,611,611,611,611,611,611,611,611,611,611,611,611,611,611,611,611,611,611,611,611,611,611,611,601,546,476,392,286,177,0,0,0,0,0,0,0,0,0,0,0,0,0,0,0,5,10,14,18,19,20],"timestamp_mouse":[14,40,52,71,91,111,131,152,171,193,213,232,252,272,292,311,332,352,371,393,411,432,452,472,492,511,531,552,571,593,611,631,652,671,691,713,731,753,772,791,811,832,853,871,891,912,932,951,972,991,1011,1031,1051,1072,1091,1111,1131,1152,1171,1192,1211,1231,1251,1271,1291,1311,1331,1353,1372,1392,1411,1432,1452,1471,1491],"xSR":741.5,"ySR":573.95,"xT1":424.9,"yT1":0,"xT2":1058.1,"yT2":0,"toosoon":0,"cond_shown":"Incongruent","ratio_trial":200,"L_num":7,"L_den":10,"R_num":14,"R_den":28,"correct_side":1,"subjID":"LennyAndresRodriguezOtalora31","gender":"0","school":"6","age":"11"},{"start_time":1551899899191,"click_time":1551899900655,"finger_time":1551899900513,"fix_duration":756.0162355612124,"trial":30,"RT":1322,"MT":142,"sideResp":1,"stimulus":[],"xmouse":[812,812,812,812,812,812,812,812,812,812,812,812,812,812,812,812,812,812,812,812,812,812,812,812,812,812,812,812,812,812,812,812,812,812,812,812,812,812,812,812,812,812,812,812,812,812,812,812,812,812,812,812,812,812,812,812,812,812,812,812,812,812,812,810,803,787,762,678,653,642,624,604,497,425],"ymouse":[638,638,638,638,638,638,638,638,638,638,638,638,638,638,638,638,638,638,638,638,638,638,638,638,638,638,638,638,638,638,638,638,638,638,638,638,638,638,638,638,638,638,638,638,638,638,638,638,638,638,638,638,638,638,638,638,638,638,638,638,638,638,638,631,620,597,570,493,457,428,368,287,108,45],"timestamp_mouse":[12,23,42,62,82,102,123,143,164,182,202,222,242,264,283,302,322,344,363,384,402,422,444,462,483,503,522,542,562,582,602,622,644,663,682,702,722,742,764,782,802,822,842,862,882,902,922,942,963,982,1002,1024,1043,1063,1082,1104,1123,1142,1164,1183,1202,1224,1244,1262,1283,1304,1322,1342,1362,1383,1403,1422,1443,1464],"xSR":741.5,"ySR":573.95,"xT1":424.9,"yT1":0,"xT2":1058.1,"yT2":0,"toosoon":0,"cond_shown":"Congruent","ratio_trial":300,"L_num":4,"L_den":5,"R_num":2,"R_den":4,"correct_side":1,"subjID":"LennyAndresRodriguezOtalora31","gender":"0","school":"6","age":"11"},{"start_time":1551899903794,"click_time":1551899905295,"finger_time":1551899904553,"fix_duration":818.3768102701331,"trial":31,"RT":759,"MT":742,"sideResp":2,"stimulus":[],"xmouse":[789,789,789,789,789,789,789,789,789,789,789,789,789,789,789,789,789,789,789,791,794,794,794,794,794,794,794,794,794,794,794,794,794,794,794,794,797,805,913,988,1043,1067,1075,1088,1089,1093,1094,1094,1093,1092,1092,1092,1091,1091,1091,1091,1091,1089,1089,1089,1089,1089,1093,1098,1107,1125,1148,1175,1205,1210,1211,1211,1209,1180,1160,1156],"ymouse":[636,636,636,636,636,636,636,636,636,636,636,636,636,636,636,636,636,636,636,635,635,635,635,635,635,635,635,635,635,635,635,635,635,635,635,635,635,631,582,551,523,499,475,396,361,332,312,299,293,292,290,285,276,250,238,225,216,201,196,191,187,182,168,163,155,145,131,109,63,48,46,46,47,73,82,83],"timestamp_mouse":[1,19,41,60,81,99,119,140,159,179,199,219,241,259,281,300,320,339,359,380,400,419,439,460,480,501,519,539,559,580,599,619,641,660,680,701,720,739,759,780,800,819,839,860,880,899,920,940,960,981,1001,1021,1039,1059,1080,1099,1120,1141,1160,1180,1199,1221,1241,1259,1279,1299,1320,1340,1359,1379,1399,1420,1439,1460,1481,1501],"xSR":741.5,"ySR":573.95,"xT1":424.9,"yT1":0,"xT2":1058.1,"yT2":0,"toosoon":0,"cond_shown":"Congruent","ratio_trial":100,"L_num":1,"L_den":2,"R_num":18,"R_den":30,"correct_side":2,"subjID":"LennyAndresRodriguezOtalora31","gender":"0","school":"6","age":"11"},{"start_time":1551899906804,"click_time":1551899908254,"finger_time":1551899907933,"fix_duration":569.5447706998426,"trial":32,"RT":1129,"MT":321,"sideResp":1,"stimulus":[],"xmouse":[797,797,798,798,799,800,802,807,808,809,809,809,810,811,812,812,813,813,813,813,813,813,813,813,813,813,813,813,813,813,813,813,813,813,813,813,813,813,813,813,813,813,813,813,813,813,813,803,796,790,783,770,757,752,747,743,737,724,721,718,716,713,699,693,687,675,662,598,562,536,514,507,496],"ymouse":[636,634,634,634,631,629,625,617,615,614,613,612,611,610,609,607,605,602,601,601,601,601,601,601,601,601,601,601,601,601,601,601,601,601,601,601,601,601,601,601,601,601,601,601,601,601,601,601,603,603,604,606,606,603,600,595,589,569,562,551,539,522,490,482,472,456,437,296,232,187,143,117,59],"timestamp_mouse":[9,37,49,70,90,110,129,149,170,191,209,229,250,269,290,309,331,350,370,389,409,430,449,469,489,510,530,549,570,589,610,629,650,669,689,710,730,749,769,789,809,829,849,871,890,911,931,949,971,989,1009,1030,1050,1070,1089,1110,1129,1150,1169,1189,1210,1230,1250,1270,1291,1310,1329,1349,1369,1389,1410,1429,1450],"xSR":741.5,"ySR":573.95,"xT1":424.9,"yT1":0,"xT2":1058.1,"yT2":0,"toosoon":0,"cond_shown":"Incongruent","ratio_trial":300,"L_num":2,"L_den":4,"R_num":6,"R_den":30,"correct_side":1,"subjID":"LennyAndresRodriguezOtalora31","gender":"0","school":"6","age":"11"},{"start_time":1551899911225,"click_time":1551899913434,"finger_time":1551899912894,"fix_duration":669.9727524416916,"trial":33,"RT":1669,"MT":540,"sideResp":1,"stimulus":[],"xmouse":[780,780,780,780,780,780,780,780,780,780,780,780,780,780,780,780,780,780,780,780,780,780,780,780,780,780,780,780,780,780,780,780,780,780,780,780,780,780,780,780,780,780,780,780,780,780,780,780,780,780,780,780,780,780,780,780,780,780,780,780,780,780,780,780,780,780,780,780,780,780,780,780,780,780,780,780,780,780,780,778,774,761,758,752,736,704,670,618,601,591,585,567,558,548,537,527,519,519,516,508,497,489,475,471,471,469,469,469,470,471,472],"ymouse":[641,641,641,641,641,641,641,641,641,641,641,641,641,641,641,641,641,641,641,641,641,641,641,641,641,641,641,641,641,641,641,641,641,641,641,641,641,641,641,641,641,641,641,641,641,641,641,641,641,641,641,641,641,641,641,641,641,641,641,641,641,641,641,641,641,641,641,641,641,641,641,641,641,641,641,641,641,641,641,641,640,617,599,569,526,470,414,327,280,255,236,202,185,170,155,146,140,140,138,134,127,120,108,106,105,104,104,104,103,100,97],"timestamp_mouse":[12,28,48,69,89,108,128,148,170,188,209,229,249,268,290,308,328,348,370,389,408,428,449,468,490,509,528,548,569,588,609,628,650,669,688,708,728,748,770,789,808,830,849,869,890,910,938,950,969,989,1008,1028,1050,1068,1090,1110,1128,1150,1170,1188,1208,1229,1250,1269,1289,1310,1330,1348,1369,1390,1408,1428,1450,1468,1488,1510,1528,1548,1570,1590,1608,1630,1648,1669,1688,1708,1728,1748,1768,1790,1808,1830,1848,1869,1888,1909,1929,1948,1969,1988,2008,2028,2049,2069,2088,2109,2128,2149,2170,2189,2209],"xSR":741.5,"ySR":573.95,"xT1":424.9,"yT1":0,"xT2":1058.1,"yT2":0,"toosoon":0,"cond_shown":"Congruent","ratio_trial":100,"L_num":11,"L_den":22,"R_num":4,"R_den":10,"correct_side":1,"subjID":"LennyAndresRodriguezOtalora31","gender":"0","school":"6","age":"11"},{"start_time":1551899916846,"click_time":1551899919074,"finger_time":1551899918473,"fix_duration":510.82228576454247,"trial":34,"RT":1627,"MT":601,"sideResp":2,"stimulus":[],"xmouse":[794,794,794,793,792,792,792,792,792,792,792,792,792,792,792,792,792,792,792,792,792,792,792,792,792,792,792,792,792,792,792,792,792,792,792,792,792,792,792,792,792,792,792,792,792,792,792,792,792,792,792,792,792,792,792,792,792,792,792,792,792,792,792,792,792,792,792,792,792,792,792,792,792,792,792,792,792,792,785,772,746,734,734,734,734,733,808,905,1006,1089,1138,1155,1166,1166,1160,1151,1120,1107,1099,1091,1080,1049,1038,1034,1033,1035,1035,1036,1036,1037,1043,1076],"ymouse":[648,648,645,644,643,643,643,643,643,643,643,643,643,643,643,643,643,643,643,643,643,643,643,643,643,643,643,643,643,643,643,643,643,643,643,643,643,643,643,643,643,643,643,643,643,643,643,643,643,643,643,643,643,643,643,643,643,643,643,643,643,643,643,643,643,643,643,643,643,643,643,643,643,643,643,643,643,643,648,656,664,664,664,664,664,664,626,585,534,482,441,414,346,311,286,263,211,194,182,167,151,111,92,78,69,64,63,63,63,61,58,55],"timestamp_mouse":[9,40,48,69,88,107,128,147,167,188,208,229,247,267,288,307,328,348,367,388,407,428,447,467,487,508,527,547,567,588,607,627,647,668,688,707,728,747,767,788,809,827,848,867,887,909,928,947,969,987,1007,1027,1049,1068,1089,1107,1127,1149,1168,1187,1207,1229,1247,1268,1288,1307,1327,1347,1369,1387,1407,1428,1448,1468,1489,1507,1528,1549,1568,1588,1607,1627,1647,1667,1687,1708,1727,1748,1767,1788,1807,1828,1848,1867,1888,1908,1927,1947,1967,1988,2009,2028,2047,2068,2087,2107,2128,2148,2168,2187,2207,2227],"xSR":741.5,"ySR":573.95,"xT1":424.9,"yT1":0,"xT2":1058.1,"yT2":0,"toosoon":0,"cond_shown":"Congruent","ratio_trial":200,"L_num":4,"L_den":8,"R_num":3,"R_den":10,"correct_side":1,"subjID":"LennyAndresRodriguezOtalora31","gender":"0","school":"6","age":"11"},{"start_time":1551899920384,"click_time":1551899927853,"finger_time":1551899920397,"fix_duration":308.8999990746285,"trial":35,"RT":13,"MT":7456,"sideResp":1,"stimulus":[],"xmouse":[703,686,686,675,674,674,668,656,655,655,655,655,655,655,655,661,680,697,705,715,718,720,721,721,721,721,721,721,721,721,721,721,721,721,721,721,721,721,721,721,721,726,745,767,803,813,818,818,818,818,818,818,818,817,811,809,809,809,809,809,809,809,809,809,809,809,809,809,809,809,809,809,809,809,809,809,809,809,809,809,809,809,809,809,809,809,809,809,809,809,809,809,809,809,809,809,809,809,809,809,809,809,809,809,809,809,809,809,809,809,809,809,809,809,809,809,809,809,809,809,809,809,809,809,809,809,809,809,809,809,809,809,809,809,809,809,809,809,809,809,809,809,809,809,809,809,809,809,809,809,809,809,809,809,809,809,809,809,809,809,809,809,809,809,809,809,809,809,809,809,809,809,809,809,808,806,806,805,804,804,803,802,802,802,802,802,802,802,802,802,802,802,802,801,801,800,800,799,799,799,798,798,798,798,798,798,798,798,798,798,798,798,798,798,798,798,798,798,798,798,798,798,798,799,799,801,802,802,802,802,802,802,802,802,802,802,802,802,802,802,802,802,802,802,802,802,802,802,802,802,802,802,802,802,802,802,802,802,802,802,802,802,802,802,802,802,802,802,802,802,802,802,802,802,802,802,802,802,802,802,802,802,802,802,802,802,802,802,802,802,802,802,802,802,802,802,802,802,802,802,802,802,802,802,802,802,802,802,802,802,802,802,802,802,802,802,802,802,802,802,802,802,802,802,802,802,802,802,802,802,802,802,802,802,802,802,802,802,802,802,802,802,802,802,802,834,835,830,821,789,771,778,779,771,755,751,743,729,699,675,651,614,601,583,537,532,531,529,524,523,523,522,516,494],"ymouse":[715,728,728,737,737,740,757,777,778,778,778,778,778,778,778,774,756,735,723,711,707,704,704,704,704,704,704,704,704,704,704,704,704,704,704,704,704,704,704,704,704,700,677,655,625,618,614,614,614,614,614,614,614,618,625,626,626,626,626,626,626,626,626,626,626,626,626,626,626,626,626,626,626,626,626,626,626,626,626,626,626,626,626,626,626,626,626,626,626,626,626,626,626,626,626,626,626,626,626,626,626,626,626,626,626,626,626,626,626,626,626,626,626,626,626,626,626,626,626,626,626,626,626,626,626,626,626,626,626,626,626,626,626,626,626,626,626,626,626,626,626,626,626,626,626,626,626,626,626,626,626,626,626,626,626,626,626,626,626,626,626,626,626,626,626,626,626,626,626,626,626,626,626,626,626,630,631,632,634,635,637,638,638,638,639,639,639,639,639,639,639,639,639,640,640,642,643,645,645,645,646,646,647,647,647,647,647,647,647,647,647,647,647,647,647,647,647,647,647,647,647,647,646,645,643,639,638,638,638,638,638,638,638,638,638,638,638,638,638,638,638,638,638,638,638,638,638,638,638,638,638,638,638,638,638,638,638,638,638,638,638,638,638,638,638,638,638,638,638,638,638,638,638,638,638,638,638,638,638,638,638,638,638,638,638,638,638,638,638,638,638,638,638,638,638,638,638,638,638,638,638,638,638,638,638,638,638,638,638,638,638,638,638,638,638,638,638,638,638,638,638,638,638,638,638,638,638,638,638,638,638,638,638,638,638,638,638,638,638,638,638,638,638,638,637,665,665,650,625,584,514,400,350,315,292,279,260,232,185,154,125,25,0,0,0,0,0,0,0,0,0,0,0,12],"timestamp_mouse":[13,41,49,69,90,110,129,149,170,191,211,229,249,270,290,310,329,349,370,390,410,430,450,470,490,510,530,550,569,590,609,630,650,670,689,710,730,751,770,790,809,829,849,870,890,911,929,949,970,991,1009,1029,1049,1070,1090,1110,1129,1149,1170,1189,1209,1230,1250,1271,1289,1311,1329,1349,1369,1389,1409,1429,1450,1469,1490,1510,1530,1551,1571,1590,1610,1631,1650,1670,1690,1711,1729,1749,1770,1791,1809,1830,1850,1869,1891,1909,1930,1951,1970,1989,2010,2029,2051,2070,2091,2110,2130,2149,2171,2189,2209,2230,2250,2269,2290,2310,2329,2349,2370,2390,2411,2429,2449,2470,2491,2509,2530,2549,2569,2589,2609,2629,2650,2669,2689,2710,2730,2749,2770,2789,2809,2831,2849,2869,2890,2910,2931,2949,2970,2990,3010,3029,3049,3069,3091,3109,3129,3150,3169,3189,3210,3230,3250,3270,3289,3310,3329,3349,3369,3389,3409,3429,3450,3470,3489,3509,3530,3550,3570,3589,3610,3630,3650,3670,3691,3710,3729,3749,3770,3791,3810,3829,3850,3870,3890,3909,3929,3949,3970,3989,4009,4029,4050,4069,4090,4109,4129,4151,4171,4190,4211,4229,4251,4271,4291,4310,4331,4350,4370,4391,4409,4430,4450,4470,4490,4510,4529,4550,4569,4590,4611,4630,4651,4670,4690,4711,4729,4749,4770,4789,4809,4831,4851,4870,4890,4909,4931,4951,4969,4989,5010,5029,5049,5071,5090,5110,5130,5149,5169,5191,5209,5229,5250,5269,5289,5309,5330,5351,5370,5390,5410,5431,5449,5469,5489,5511,5529,5549,5571,5590,5609,5629,5650,5670,5690,5711,5730,5750,5770,5790,5810,5830,5850,5870,5890,5909,5930,5949,5969,5990,6009,6029,6050,6071,6090,6111,6129,6150,6169,6189,6210,6231,6250,6269,6291,6309,6330,6351,6369,6389,6409,6430,6450,6469,6489,6511,6530,6551,6570,6589,6610,6631,6650,6670,6690,6710,6730,6751,6769,6790,6811,6831,6850,6869,6890,6910,6930,6950,6971,6990,7009,7029,7049,7069,7089,7109,7129,7149,7169,7189,7209,7229,7249,7271,7289,7309,7330,7350,7370,7391,7409,7430,7449,7469],"xSR":741.5,"ySR":573.95,"xT1":424.9,"yT1":0,"xT2":1058.1,"yT2":0,"toosoon":0,"cond_shown":"Incongruent","ratio_trial":100,"L_num":13,"L_den":26,"R_num":6,"R_den":10,"correct_side":2,"subjID":"LennyAndresRodriguezOtalora31","gender":"0","school":"6","age":"11"},{"start_time":1551899931972,"click_time":1551899933693,"finger_time":1551899932993,"fix_duration":377.4423106617423,"trial":36,"RT":1021,"MT":700,"sideResp":1,"stimulus":[],"xmouse":[796,796,796,796,796,796,796,796,796,796,796,796,796,796,796,796,796,796,796,796,796,798,800,800,801,801,801,801,801,801,801,801,801,801,801,801,801,801,801,801,801,801,801,795,792,791,791,791,784,781,773,769,761,758,755,754,754,754,754,754,754,754,752,744,734,724,719,718,718,718,718,718,718,718,718,717,716,710,709,705,699,689,657,635,597,546,503],"ymouse":[637,637,637,637,637,637,637,637,637,637,637,637,637,637,637,637,637,637,637,637,638,637,633,630,626,623,621,618,617,617,617,617,617,617,617,617,617,617,617,617,617,617,598,587,585,583,583,583,580,578,574,570,554,533,522,519,519,519,519,519,519,519,512,489,463,442,430,426,426,426,426,426,426,426,426,424,420,399,380,354,323,297,241,218,185,131,70],"timestamp_mouse":[8,22,42,62,82,101,123,141,162,182,201,223,241,261,281,303,322,343,361,382,402,422,441,462,481,502,522,542,561,581,602,622,643,662,681,702,723,741,761,783,801,821,841,862,881,902,923,942,961,982,1002,1021,1041,1061,1082,1102,1123,1142,1161,1181,1203,1221,1241,1263,1282,1301,1322,1341,1361,1381,1402,1422,1442,1462,1481,1501,1522,1541,1562,1581,1602,1622,1641,1662,1681,1702,1721],"xSR":741.5,"ySR":573.95,"xT1":424.9,"yT1":0,"xT2":1058.1,"yT2":0,"toosoon":0,"cond_shown":"Incongruent","ratio_trial":100,"L_num":9,"L_den":10,"R_num":20,"R_den":25,"correct_side":1,"subjID":"LennyAndresRodriguezOtalora31","gender":"0","school":"6","age":"11"},{"start_time":1551899935442,"click_time":1551899937733,"finger_time":1551899937314,"fix_duration":927.9269828281532,"trial":37,"RT":1872,"MT":419,"sideResp":2,"stimulus":[],"xmouse":[796,796,796,796,796,796,796,796,796,796,796,796,796,796,796,796,796,796,796,796,796,796,796,796,796,796,796,796,796,796,796,796,796,796,796,796,796,796,796,796,796,796,796,796,796,796,796,796,796,796,796,796,796,796,796,796,796,796,796,796,796,796,796,796,796,796,796,796,796,796,796,796,796,796,796,796,796,796,796,796,796,796,796,796,796,796,796,796,796,796,796,803,812,842,926,973,1038,1131,1290,1360,1391,1400,1407,1409,1408,1401,1381,1362,1293,1252,1220,1201,1193,1173,1153],"ymouse":[613,612,612,612,612,612,612,612,612,612,612,612,612,612,612,612,612,612,612,612,612,612,612,612,612,612,612,612,612,612,612,612,612,612,612,612,612,612,612,612,612,612,612,612,612,612,612,612,612,612,612,612,612,612,612,612,612,612,612,612,612,612,612,612,612,612,612,612,612,612,612,612,612,612,613,615,616,617,617,617,617,617,617,617,617,617,617,617,617,617,617,605,590,551,452,418,379,324,257,227,199,174,151,123,114,106,99,94,91,87,83,83,83,88,93],"timestamp_mouse":[11,31,56,71,93,112,131,153,171,191,213,231,251,273,292,311,333,351,371,391,413,432,452,471,492,513,531,552,571,592,612,631,653,672,692,711,732,752,773,792,811,832,851,872,891,912,933,951,973,993,1012,1031,1051,1073,1091,1111,1131,1152,1172,1193,1211,1232,1253,1273,1292,1311,1333,1351,1372,1391,1411,1431,1451,1473,1491,1512,1532,1551,1572,1592,1612,1633,1653,1671,1692,1713,1732,1751,1773,1792,1811,1832,1852,1872,1892,1911,1933,1953,1972,1991,2012,2031,2052,2072,2091,2111,2132,2151,2172,2191,2211,2231,2251,2271,2291],"xSR":741.5,"ySR":573.95,"xT1":424.9,"yT1":0,"xT2":1058.1,"yT2":0,"toosoon":0,"cond_shown":"Congruent","ratio_trial":300,"L_num":2,"L_den":20,"R_num":10,"R_den":25,"correct_side":2,"subjID":"LennyAndresRodriguezOtalora31","gender":"0","school":"6","age":"11"},{"start_time":1551899940118,"click_time":1551899941695,"finger_time":1551899941253,"fix_duration":1301.9313812396165,"trial":38,"RT":1135,"MT":442,"sideResp":1,"stimulus":[],"xmouse":[813,813,813,813,813,813,813,813,813,813,813,813,813,813,813,813,813,812,810,807,804,802,802,802,802,802,802,802,802,801,801,799,794,788,786,783,780,775,770,768,767,767,767,767,767,767,767,767,767,767,767,767,767,764,761,745,735,722,706,690,648,634,622,613,607,605,606,608,608,604,586,573,564,558,550,517,496,474,462],"ymouse":[630,630,630,630,630,630,630,630,630,630,630,630,630,630,630,630,630,630,629,628,626,625,625,625,625,625,625,625,625,625,625,625,625,625,625,625,625,625,625,626,626,626,626,626,626,626,626,626,626,626,626,626,626,617,610,582,572,561,540,524,476,454,433,412,390,349,326,307,285,243,199,181,169,161,152,131,119,107,99],"timestamp_mouse":[16,35,55,75,95,116,137,156,175,195,215,236,255,275,296,316,335,355,376,396,415,436,456,475,495,515,537,555,575,596,615,635,655,676,697,715,736,755,776,796,815,836,855,876,897,915,935,957,975,996,1017,1035,1056,1075,1096,1115,1135,1155,1175,1195,1215,1235,1256,1275,1295,1316,1336,1355,1376,1396,1416,1436,1456,1476,1497,1516,1537,1556,1577],"xSR":741.5,"ySR":573.95,"xT1":424.9,"yT1":0,"xT2":1058.1,"yT2":0,"toosoon":0,"cond_shown":"Incongruent","ratio_trial":300,"L_num":1,"L_den":2,"R_num":2,"R_den":10,"correct_side":1,"subjID":"LennyAndresRodriguezOtalora31","gender":"0","school":"6","age":"11"},{"start_time":1551899944151,"click_time":1551899946214,"finger_time":1551899945474,"fix_duration":1416.0721947636962,"trial":39,"RT":1323,"MT":740,"sideResp":1,"stimulus":[],"xmouse":[815,815,815,815,815,815,815,815,815,815,815,815,815,815,815,815,815,815,815,815,815,813,813,813,813,813,813,813,813,813,813,813,813,813,813,813,813,813,813,813,813,813,813,813,813,813,813,813,813,813,813,813,813,813,813,813,813,811,809,798,794,793,792,791,785,779,774,771,765,760,740,694,631,582,563,558,546,472,386,281,166,164,166,171,173,174,176,192,213,238,265,272,283,290,306,320,333,352,358,363,367,380,401,425],"ymouse":[638,638,638,638,638,638,638,638,638,638,638,638,638,638,638,638,638,638,638,638,638,635,635,635,635,635,635,635,635,635,635,635,635,635,635,635,635,635,635,635,635,635,635,635,635,635,635,635,635,635,635,635,635,635,635,635,635,632,629,617,614,613,612,611,601,587,571,543,463,297,218,151,91,48,31,16,0,0,0,0,0,0,0,5,8,11,13,16,22,29,37,40,43,43,43,43,43,43,43,43,42,41,41,41],"timestamp_mouse":[9,38,43,63,83,103,123,143,163,183,203,223,243,263,284,303,323,343,363,383,403,423,443,464,484,503,524,543,563,583,603,623,643,663,683,703,723,743,763,783,803,824,843,863,883,903,924,943,963,983,1003,1023,1043,1064,1083,1104,1123,1143,1163,1183,1204,1224,1243,1263,1283,1304,1323,1344,1363,1383,1403,1424,1443,1463,1483,1503,1525,1543,1563,1583,1603,1623,1644,1664,1683,1703,1724,1744,1763,1784,1803,1824,1844,1863,1884,1903,1924,1943,1963,1983,2003,2023,2043,2063],"xSR":741.5,"ySR":573.95,"xT1":424.9,"yT1":0,"xT2":1058.1,"yT2":0,"toosoon":0,"cond_shown":"Congruent","ratio_trial":200,"L_num":12,"L_den":20,"R_num":6,"R_den":15,"correct_side":1,"subjID":"LennyAndresRodriguezOtalora31","gender":"0","school":"6","age":"11"},{"start_time":1551899947686,"click_time":1551899949655,"finger_time":1551899949075,"fix_duration":250,"trial":40,"RT":1389,"MT":580,"sideResp":1,"stimulus":[],"xmouse":[781,781,781,781,781,781,781,781,781,781,781,781,781,781,781,781,781,781,781,781,781,781,781,780,780,780,780,780,780,780,780,780,780,780,780,780,780,779,779,779,779,779,779,778,777,774,766,756,747,746,746,746,746,746,746,746,746,746,746,746,746,746,746,746,746,746,746,745,742,738,733,730,722,687,673,661,649,637,574,555,542,534,532,532,532,532,532,532,532,532,532,532,532,532,532,531,531,527,506],"ymouse":[619,619,619,619,619,619,619,619,619,619,619,619,619,619,619,619,619,619,619,619,619,619,619,615,615,615,615,615,615,615,615,615,615,615,615,615,615,615,615,615,615,615,615,615,615,615,613,611,611,610,610,610,610,610,610,610,610,610,610,610,610,610,610,610,610,610,610,608,598,569,536,481,421,304,271,247,225,205,103,80,63,51,45,44,44,44,44,44,44,44,44,44,44,44,44,44,44,44,44],"timestamp_mouse":[9,36,49,69,89,108,128,148,169,188,209,228,249,268,288,308,328,349,369,388,408,429,448,468,489,508,529,549,568,588,608,628,649,668,688,708,728,748,768,788,808,828,849,868,889,909,930,948,968,988,1008,1029,1048,1068,1089,1108,1129,1149,1168,1188,1208,1228,1248,1269,1289,1308,1328,1348,1368,1389,1408,1429,1449,1469,1488,1509,1529,1549,1568,1588,1608,1629,1649,1668,1688,1710,1728,1748,1768,1788,1809,1829,1849,1868,1888,1908,1929,1948,1969],"xSR":741.5,"ySR":573.95,"xT1":424.9,"yT1":0,"xT2":1058.1,"yT2":0,"toosoon":0,"cond_shown":"Congruent","ratio_trial":300,"L_num":20,"L_den":25,"R_num":9,"R_den":18,"correct_side":1,"subjID":"LennyAndresRodriguezOtalora31","gender":"0","school":"6","age":"11"},{"start_time":1551899951965,"click_time":1551899955495,"finger_time":1551899954954,"fix_duration":1149.739111799945,"trial":41,"RT":2989,"MT":541,"sideResp":1,"stimulus":[],"xmouse":[806,806,806,806,806,806,806,806,806,806,806,806,806,806,806,806,806,806,806,806,806,806,806,806,806,806,806,806,806,806,806,806,806,806,806,806,806,806,806,806,806,806,806,806,806,806,806,806,806,806,806,806,806,806,806,806,806,806,806,806,806,806,806,806,806,806,806,806,806,806,806,806,806,806,805,793,781,778,777,777,777,777,777,777,777,777,777,777,777,777,777,777,777,777,777,777,777,777,777,777,777,777,777,777,777,777,777,777,777,777,777,777,777,777,777,777,777,777,777,777,777,777,777,777,777,777,777,777,777,777,777,777,777,777,777,777,777,777,777,777,777,777,777,777,777,777,777,774,769,733,687,641,559,518,494,480,480,480,480,480,480,480,480,480,480,480,480,480,480,480,480,480,480,480,480,480,479],"ymouse":[641,641,641,641,641,641,641,641,641,641,641,641,641,641,641,641,641,641,641,641,641,641,641,641,641,641,641,641,641,641,641,641,641,641,641,641,641,641,641,641,641,641,641,641,641,641,641,641,641,641,641,641,641,641,641,641,641,641,641,641,641,641,641,641,641,641,641,641,641,641,641,641,641,641,641,634,628,627,626,626,626,626,626,626,626,626,626,625,625,625,625,625,625,625,625,625,625,625,625,625,625,625,625,625,625,625,625,625,625,625,625,625,625,625,625,625,625,625,625,625,625,625,625,625,625,625,625,625,625,625,625,625,625,625,625,625,625,625,625,625,625,625,625,625,625,625,625,617,608,513,413,238,17,0,0,0,0,0,0,0,0,0,0,0,0,0,0,0,0,0,0,0,0,0,0,0,2],"timestamp_mouse":[10,39,49,69,90,109,129,150,170,190,209,229,250,270,289,309,329,349,369,390,409,429,449,470,490,509,530,550,570,589,609,630,649,670,690,709,730,750,769,790,809,829,850,870,890,911,930,949,969,990,1011,1029,1049,1070,1089,1110,1130,1150,1169,1189,1210,1230,1249,1270,1290,1310,1329,1349,1369,1390,1409,1429,1449,1469,1489,1509,1529,1549,1569,1590,1609,1629,1649,1669,1690,1709,1729,1749,1769,1790,1809,1830,1849,1870,1889,1909,1929,1950,1969,1989,2009,2029,2049,2069,2089,2109,2129,2149,2171,2189,2209,2230,2250,2269,2289,2310,2329,2350,2370,2389,2409,2429,2450,2469,2489,2510,2530,2550,2569,2590,2609,2629,2651,2669,2689,2709,2729,2750,2770,2790,2809,2830,2850,2869,2889,2909,2930,2950,2969,2989,3009,3029,3049,3069,3090,3109,3130,3150,3169,3190,3210,3230,3249,3269,3289,3310,3329,3350,3370,3389,3410,3430,3450,3470,3490,3509,3530],"xSR":741.5,"ySR":573.95,"xT1":424.9,"yT1":0,"xT2":1058.1,"yT2":0,"toosoon":0,"cond_shown":"Congruent","ratio_trial":100,"L_num":11,"L_den":22,"R_num":6,"R_den":15,"correct_side":1,"subjID":"LennyAndresRodriguezOtalora31","gender":"0","school":"6","age":"11"},{"start_time":1551899956741,"click_time":1551899970314,"finger_time":1551899969294,"fix_duration":585.6584988123614,"trial":42,"RT":12553,"MT":1020,"sideResp":1,"stimulus":[],"xmouse":[792,792,792,792,792,792,792,792,792,792,792,792,792,792,792,792,792,792,792,792,792,792,792,792,792,792,792,792,792,792,792,792,792,792,792,792,792,792,792,792,792,792,792,792,792,792,792,792,792,792,792,792,792,792,792,792,792,792,792,792,792,792,792,792,792,792,792,792,792,792,792,792,792,792,792,792,792,792,792,792,792,792,792,792,792,792,792,792,792,792,792,792,792,792,792,792,792,792,792,792,792,792,792,792,792,792,792,792,792,792,792,792,792,792,792,792,792,792,792,792,792,792,792,792,792,792,792,792,792,792,792,792,792,792,792,792,792,792,792,792,792,792,792,792,792,792,792,792,792,792,792,792,792,792,792,792,792,792,792,792,792,792,792,792,792,792,792,792,792,792,792,792,792,792,792,792,792,792,792,792,792,792,792,792,792,792,792,792,792,792,792,792,792,792,792,792,792,792,792,792,792,792,792,792,792,792,792,792,792,792,792,792,792,792,792,792,792,792,792,792,792,792,792,792,792,792,792,792,792,792,792,792,792,792,792,792,792,792,792,792,792,792,792,792,792,792,792,792,792,792,792,792,792,792,792,792,792,792,792,792,792,792,792,792,792,792,792,792,792,792,792,792,792,792,792,792,792,792,792,792,792,792,792,792,792,792,792,792,792,792,792,792,792,792,792,792,792,792,792,792,792,792,792,792,792,792,792,792,792,792,792,792,792,792,792,792,792,792,792,792,792,792,792,792,792,792,792,792,792,792,792,792,792,792,792,792,792,792,792,792,792,792,792,792,792,792,792,792,792,792,792,792,792,792,792,792,792,792,792,792,792,792,792,792,792,792,792,792,792,792,792,792,792,792,792,792,792,792,792,792,792,792,792,792,792,792,792,792,792,792,792,792,792,792,792,792,792,792,792,792,792,792,792,792,792,792,792,792,792,792,792,792,792,792,792,792,792,792,792,792,792,792,792,792,792,792,792,792,792,792,792,792,792,792,792,792,792,792,792,792,792,792,792,792,792,792,792,792,792,792,792,792,792,792,792,792,792,792,792,792,792,792,792,792,792,792,792,792,792,792,792,792,792,792,792,792,792,792,792,792,792,792,792,792,792,792,792,792,792,792,792,792,792,792,792,792,792,792,792,792,792,792,792,792,792,792,792,792,792,792,792,792,792,792,792,792,792,792,792,792,792,792,792,792,792,792,792,792,792,792,792,792,792,792,792,792,792,792,792,792,792,792,792,792,792,792,792,792,792,792,792,792,792,792,792,792,792,792,792,792,792,792,792,792,792,792,792,792,792,792,792,792,792,792,792,792,792,792,792,792,792,792,792,792,792,792,792,792,792,792,792,792,792,792,792,792,792,792,792,792,792,792,792,792,792,792,792,792,792,792,792,792,792,792,792,792,792,792,792,792,792,792,792,792,792,792,792,785,782,782,782,782,794,816,836,849,853,858,858,858,855,848,741,672,607,569,561,560,553,544,538,536,532,532,532,532,532,532,532,532,532,532,532,532,532,532,531,531,531,531,531,531,531,531,531,531,531,531,503],"ymouse":[618,618,618,618,618,618,618,618,618,618,618,618,618,618,618,618,618,618,618,618,618,618,618,618,618,618,618,618,618,618,618,618,618,618,618,618,618,618,618,618,618,618,618,618,618,618,618,618,618,618,618,618,618,618,618,618,618,618,618,618,618,618,618,618,618,618,618,618,618,618,618,618,618,618,618,618,618,618,618,618,618,618,618,618,618,618,618,618,618,618,618,618,618,618,618,618,618,618,618,618,618,618,618,618,618,618,618,618,618,618,618,618,618,618,618,618,618,618,618,618,618,618,618,618,618,618,618,618,618,618,618,618,618,618,618,618,618,618,618,618,618,618,618,618,618,618,618,618,618,618,618,618,618,618,618,618,618,618,618,618,618,618,618,618,618,618,618,618,618,618,618,618,618,618,618,618,618,618,618,618,618,618,618,618,618,618,618,618,618,618,618,618,618,618,618,618,618,618,618,618,618,618,618,618,618,618,618,618,618,618,618,618,618,618,618,618,618,618,618,618,618,618,618,618,618,618,618,618,618,618,618,618,618,618,618,618,618,618,618,618,618,618,618,618,618,618,618,618,618,618,618,618,618,618,618,618,618,618,618,618,618,618,618,618,618,618,618,618,618,618,618,618,618,618,618,618,618,618,618,618,618,618,618,618,618,618,618,618,618,618,618,618,618,618,618,618,618,618,618,618,618,618,618,618,618,618,618,618,618,618,618,618,618,618,618,618,618,618,618,618,618,618,618,618,618,618,618,618,618,618,618,618,618,618,618,618,618,618,618,618,618,618,618,618,618,618,618,618,618,618,618,618,618,618,618,618,618,618,618,618,618,618,618,618,618,618,618,618,618,618,618,618,618,618,618,618,618,618,618,618,618,618,618,618,618,618,618,618,618,618,618,618,618,618,618,618,618,618,618,618,618,618,618,618,618,618,618,618,618,618,618,618,618,618,618,618,618,618,618,618,618,618,618,618,618,618,618,618,618,618,618,618,618,618,618,618,618,618,618,618,618,618,618,618,618,618,618,618,618,618,618,618,618,618,618,618,618,618,618,618,618,618,618,618,618,618,618,618,618,618,618,618,618,618,618,618,618,618,618,618,618,618,618,618,618,618,618,618,618,618,618,618,618,618,618,618,618,618,618,618,618,618,618,618,618,618,618,618,618,618,618,618,618,618,618,618,618,618,618,618,618,618,618,618,618,618,618,618,618,618,618,618,618,618,618,618,618,618,618,618,618,618,618,618,618,618,618,618,618,618,618,618,618,618,618,618,618,618,618,618,618,618,618,618,618,618,618,618,618,618,618,618,618,618,618,618,618,618,618,618,618,618,618,618,618,618,618,618,618,618,618,618,618,618,618,618,618,618,618,618,618,618,618,618,618,618,618,618,618,618,618,618,618,618,618,618,618,618,618,618,618,618,618,618,618,618,617,572,558,556,556,556,536,490,432,388,357,263,209,149,80,40,0,0,0,0,0,3,18,39,52,58,64,65,65,65,65,65,65,65,65,65,65,65,65,65,66,66,66,66,66,66,66,66,66,66,66,66,64],"timestamp_mouse":[13,38,54,74,93,114,133,154,173,193,214,233,253,273,293,314,334,353,374,393,414,433,453,473,493,513,533,554,573,593,614,634,653,673,694,714,733,753,773,794,815,834,853,873,893,914,934,953,974,994,1013,1036,1053,1073,1093,1114,1133,1154,1173,1193,1214,1233,1253,1273,1294,1313,1333,1353,1373,1394,1413,1433,1453,1474,1493,1514,1533,1553,1573,1594,1613,1633,1654,1673,1695,1714,1734,1754,1773,1793,1814,1833,1853,1873,1893,1913,1933,1953,1973,1994,2014,2033,2054,2073,2093,2113,2133,2153,2174,2193,2213,2233,2253,2274,2294,2314,2334,2353,2374,2394,2413,2434,2454,2474,2493,2514,2533,2553,2573,2593,2613,2633,2654,2674,2693,2714,2733,2754,2773,2793,2814,2833,2853,2874,2893,2913,2934,2953,2974,2993,3014,3033,3053,3073,3093,3113,3134,3153,3174,3193,3214,3233,3253,3274,3294,3313,3334,3353,3373,3394,3413,3434,3454,3474,3493,3514,3533,3553,3573,3594,3613,3634,3653,3674,3694,3713,3734,3754,3773,3794,3815,3833,3854,3874,3894,3914,3934,3954,3974,3993,4014,4033,4053,4073,4094,4113,4133,4154,4174,4194,4213,4233,4254,4273,4294,4313,4334,4354,4374,4393,4414,4434,4453,4473,4494,4514,4533,4553,4574,4594,4614,4633,4654,4674,4694,4714,4734,4753,4773,4793,4814,4834,4854,4874,4893,4914,4933,4953,4975,4994,5014,5034,5053,5075,5094,5114,5134,5154,5173,5194,5214,5233,5253,5274,5293,5314,5334,5354,5375,5393,5413,5434,5453,5474,5494,5513,5534,5554,5574,5594,5613,5634,5653,5673,5693,5713,5733,5753,5773,5793,5813,5834,5853,5873,5894,5914,5933,5953,5973,5993,6013,6034,6053,6074,6093,6113,6133,6154,6174,6193,6214,6233,6253,6273,6293,6314,6334,6354,6373,6393,6414,6433,6453,6474,6493,6513,6534,6553,6573,6594,6613,6633,6653,6673,6694,6713,6733,6753,6773,6794,6814,6833,6854,6873,6894,6914,6934,6953,6974,6994,7014,7033,7054,7073,7093,7113,7133,7153,7174,7194,7214,7234,7254,7274,7293,7314,7334,7354,7374,7393,7413,7433,7453,7474,7493,7514,7534,7553,7573,7593,7614,7633,7653,7674,7693,7714,7