[{"start_time":1551801176191,"click_time":1551801180034,"finger_time":1551801179235,"fix_duration":912.0430677286848,"trial":0,"RT":3044,"MT":799,"sideResp":1,"stimulus":"img/750/equaldotanddens/L/9_Ratio_750_L_4_R_3.png","xmouse":[807,807,807,807,807,807,807,807,807,807,807,807,807,807,807,807,807,807,807,807,807,807,807,807,807,807,807,807,807,807,807,807,807,807,807,807,807,807,807,807,807,807,807,807,807,807,807,807,807,807,807,807,807,807,807,807,807,807,807,807,807,807,807,807,807,807,807,807,807,807,807,807,807,807,807,807,807,807,807,807,807,807,807,807,807,807,807,807,807,807,807,807,807,807,807,807,807,807,807,807,807,807,807,807,807,807,807,807,807,807,807,807,807,807,807,807,807,807,807,807,807,807,807,807,807,807,807,807,807,807,807,807,807,807,807,807,807,807,807,807,807,807,807,807,807,807,807,806,804,803,823,838,846,846,846,849,849,846,837,828,797,785,774,763,759,759,758,752,743,739,720,704,691,681,673,657,655,654,653,653,649,646,643,643,632,611,596,579,562,546,534,529,520],"ymouse":[520,520,520,520,520,520,520,520,520,520,520,520,520,520,520,520,520,520,520,520,520,520,520,520,520,520,520,520,520,520,520,520,520,520,520,520,520,520,520,520,520,520,520,520,520,520,520,520,520,520,520,520,520,520,520,520,520,520,520,520,520,520,520,520,520,520,520,520,520,520,520,520,520,520,520,520,520,520,520,520,520,520,520,520,520,520,520,520,520,520,520,520,520,520,520,520,520,520,520,520,520,520,520,520,520,520,520,520,520,520,520,520,520,520,520,520,520,520,520,520,520,520,520,520,520,520,520,520,520,520,520,520,520,520,520,520,520,520,520,520,520,520,520,520,520,520,520,518,516,510,484,473,469,468,466,449,440,428,413,398,359,342,327,308,288,278,273,255,240,233,205,184,176,168,163,157,156,154,151,149,144,137,134,134,127,109,102,89,75,61,53,44,36],"timestamp_mouse":[9,29,42,64,83,104,122,143,162,184,202,224,242,263,283,304,322,344,362,384,402,423,442,463,483,502,523,544,563,583,603,624,643,663,684,703,722,744,763,782,804,824,843,864,884,904,924,943,963,984,1002,1024,1043,1063,1082,1102,1122,1142,1164,1182,1202,1224,1244,1264,1283,1303,1323,1343,1363,1384,1403,1423,1443,1463,1483,1502,1522,1544,1563,1583,1603,1624,1643,1663,1684,1703,1723,1742,1762,1784,1803,1823,1842,1864,1882,1904,1922,1944,1964,1982,2004,2022,2044,2064,2083,2104,2122,2143,2163,2183,2203,2224,2242,2263,2282,2304,2324,2342,2364,2384,2403,2424,2444,2463,2482,2504,2523,2543,2563,2584,2603,2624,2642,2663,2683,2703,2723,2743,2764,2784,2803,2824,2843,2864,2882,2904,2922,2943,2963,2983,3002,3023,3044,3063,3083,3102,3123,3143,3164,3182,3203,3224,3242,3263,3284,3302,3323,3343,3364,3382,3403,3424,3444,3462,3483,3503,3523,3543,3563,3584,3603,3622,3643,3664,3682,3703,3723,3742,3763,3784,3803,3822,3843],"xSR":741.5,"ySR":469.95,"xT1":424.9,"yT1":0,"xT2":1058.1,"yT2":0,"toosoon":0,"cond_shown":"equaldotanddens","ratio_trial":750,"smaller_num":"3","larger_num":"4","correct_side":1,"subjID":"linavaleriameloguevara2","gender":"1","age":"10","school":"6","test":{"fix_dur":[250,1500],"timestim":300,"targets_dim":[100,100],"targets_relative_coord":[0.3,0.7],"size_stim":[880,420],"start_dim":[100,100],"size_start":[300,300],"size_fix":60,"samplingrate":20,"img_types":["equaldotsize","equaldotanddens","randomdotsizeEA"],"ratios":[250,500,750,900],"rep_conds":9,"nTrials":120,"trials_to_rest":500,"Trials_order":[103,41,7,81,57,47,9,76,71,14,63,110,112,72,22,10,40,117,48,61,104,87,27,52,118,116,111,15,25,30,18,65,58,84,62,24,102,38,82,89,59,98,106,55,17,33,101,77,51,3,44,68,90,6,49,46,114,109,115,99,56,53,4,50,45,83,94,74,13,43,21,31,34,16,1,78,8,39,93,100,23,92,75,88,91,107,54,73,64,42,12,119,36,108,95,80,11,70,28,32,97,0,86,5,35,29,26,19,60,20,66,113,105,67,96,85,2,79,69,37],"cond_shown":["equaldotanddens","randomdotsizeEA","equaldotanddens","equaldotsize","equaldotsize","randomdotsizeEA","equaldotsize","equaldotanddens","randomdotsizeEA","randomdotsizeEA","equaldotsize","randomdotsizeEA","equaldotanddens","equaldotsize","equaldotanddens","equaldotanddens","equaldotanddens","equaldotsize","equaldotsize","equaldotanddens","randomdotsizeEA","equaldotsize","equaldotsize","equaldotanddens","equaldotanddens","randomdotsizeEA","equaldotsize","equaldotsize","equaldotanddens","equaldotsize","equaldotsize","randomdotsizeEA","equaldotanddens","equaldotsize","randomdotsizeEA","equaldotsize","equaldotsize","randomdotsizeEA","equaldotanddens","randomdotsizeEA","randomdotsizeEA","randomdotsizeEA","equaldotanddens","equaldotanddens","randomdotsizeEA","equaldotsize","randomdotsizeEA","randomdotsizeEA","equaldotsize","equaldotsize","randomdotsizeEA","randomdotsizeEA","equaldotsize","equaldotsize","equaldotanddens","equaldotanddens","equaldotsize","equaldotanddens","equaldotanddens","equaldotsize","randomdotsizeEA","randomdotsizeEA","equaldotanddens","randomdotsizeEA","equaldotsize","randomdotsizeEA","equaldotanddens","randomdotsizeEA","equaldotanddens","equaldotanddens","equaldotsize","equaldotanddens","equaldotanddens","equaldotanddens","equaldotanddens","equaldotsize","randomdotsizeEA","equaldotsize","equaldotsize","equaldotanddens","randomdotsizeEA","randomdotsizeEA","equaldotsize","equaldotanddens","equaldotanddens","randomdotsizeEA","equaldotsize","equaldotanddens","equaldotanddens","equaldotsize","equaldotsize","randomdotsizeEA","equaldotsize","equaldotsize","randomdotsizeEA","randomdotsizeEA","randomdotsizeEA","equaldotanddens","equaldotanddens","randomdotsizeEA","equaldotanddens","equaldotsize","randomdotsizeEA","randomdotsizeEA","randomdotsizeEA","randomdotsizeEA","randomdotsizeEA","equaldotanddens","equaldotsize","randomdotsizeEA","equaldotsize","randomdotsizeEA","equaldotsize","equaldotanddens","equaldotsize","equaldotanddens","randomdotsizeEA","equaldotanddens","equaldotsize","equaldotanddens"],"ratio_trial":[750,500,750,900,900,900,900,500,900,250,500,250,500,250,900,900,500,900,250,250,750,500,500,500,900,750,500,500,250,750,750,500,900,250,250,250,750,250,900,500,900,250,900,750,500,900,500,500,500,500,750,750,750,750,250,900,750,250,750,500,750,500,500,250,900,900,900,250,250,750,900,750,900,500,250,750,750,500,900,500,900,750,500,500,750,900,750,250,500,750,250,900,250,250,900,750,900,900,500,750,250,250,250,500,900,500,250,750,250,750,750,500,900,750,250,250,250,750,900,250],"smaller_num":["3","1","3","18","18","18","18","5","18","2","9","3","9","4","9","18","4","9","6","4","15","6","9","6","18","6","6","9","4","15","3","6","18","2","3","1","6","3","18","6","18","2","18","6","2","18","2","6","5","2","3","18","15","3","4","9","3","4","18","1","18","9","9","5","9","18","18","2","3","3","9","6","18","10","2","6","3","1","18","1","18","9","1","5","6","18","3","3","6","15","2","9","3","2","9","15","18","18","9","3","2","4","2","5","9","6","4","3","2","3","6","1","18","15","2","3","4","9","18","3"],"larger_num":["4","2","4","20","20","20","20","10","20","8","18","12","18","16","10","20","8","10","24","16","20","12","18","12","20","8","12","18","16","20","4","12","20","8","12","4","8","12","20","12","20","8","20","8","4","20","4","12","10","4","4","24","20","4","16","10","4","16","24","2","24","18","18","20","10","20","20","8","12","4","10","8","20","20","8","8","4","2","20","2","20","12","2","10","8","20","4","12","12","20","8","10","12","8","10","20","20","20","18","4","8","16","8","10","10","12","16","4","8","4","8","2","20","20","8","12","16","12","20","12"],"correct_side":[1,2,2,2,2,2,1,2,2,1,2,1,2,2,1,1,1,2,1,2,2,1,2,1,2,1,1,1,2,1,2,1,1,2,2,2,1,2,2,1,2,2,1,2,1,2,1,1,1,2,1,1,2,1,2,1,1,2,1,2,1,1,2,2,2,1,1,1,2,1,2,2,2,2,1,1,1,2,2,2,1,2,2,1,1,2,1,1,1,2,1,2,2,1,2,2,1,1,2,2,1,1,1,1,2,1,1,1,1,1,1,2,1,2,1,1,2,2,2,2],"img_shown":["img/750/equaldotanddens/L/9_Ratio_750_L_4_R_3.png","img/500/randomdotsizeEA/R/12_Ratio_500_L_1_R_2.png","img/750/equaldotanddens/R/12_Ratio_750_L_3_R_4.png","img/900/equaldotsize/R/13_Ratio_900_L_18_R_20.png","img/900/equaldotsize/R/11_Ratio_900_L_18_R_20.png","img/900/randomdotsizeEA/R/12_Ratio_900_L_18_R_20.png","img/900/equaldotsize/L/8_Ratio_900_L_20_R_18.png","img/500/equaldotanddens/R/14_Ratio_500_L_5_R_10.png","img/900/randomdotsizeEA/R/13_Ratio_900_L_18_R_20.png","img/250/randomdotsizeEA/L/7_Ratio_250_L_8_R_2.png","img/500/equaldotsize/R/6_Ratio_500_L_9_R_18.png","img/250/randomdotsizeEA/L/14_Ratio_250_L_12_R_3.png","img/500/equaldotanddens/R/6_Ratio_500_L_9_R_18.png","img/250/equaldotsize/R/10_Ratio_250_L_4_R_16.png","img/900/equaldotanddens/L/1_Ratio_900_L_10_R_9.png","img/900/equaldotanddens/L/2_Ratio_900_L_20_R_18.png","img/500/equaldotanddens/L/8_Ratio_500_L_8_R_4.png","img/900/equaldotsize/R/7_Ratio_900_L_9_R_10.png","img/250/equaldotsize/L/5_Ratio_250_L_24_R_6.png","img/250/equaldotanddens/R/10_Ratio_250_L_4_R_16.png","img/750/randomdotsizeEA/R/5_Ratio_750_L_15_R_20.png","img/500/equaldotsize/L/13_Ratio_500_L_12_R_6.png","img/500/equaldotsize/R/6_Ratio_500_L_9_R_18.png","img/500/equaldotanddens/L/11_Ratio_500_L_12_R_6.png","img/900/equaldotanddens/R/9_Ratio_900_L_18_R_20.png","img/750/randomdotsizeEA/L/13_Ratio_750_L_8_R_6.png","img/500/equaldotsize/L/11_Ratio_500_L_12_R_6.png","img/500/equaldotsize/L/4_Ratio_500_L_18_R_9.png","img/250/equaldotanddens/R/10_Ratio_250_L_4_R_16.png","img/750/equaldotsize/L/1_Ratio_750_L_20_R_15.png","img/750/equaldotsize/R/12_Ratio_750_L_3_R_4.png","img/500/randomdotsizeEA/L/11_Ratio_500_L_12_R_6.png","img/900/equaldotanddens/L/10_Ratio_900_L_20_R_18.png","img/250/equaldotsize/R/13_Ratio_250_L_2_R_8.png","img/250/randomdotsizeEA/R/4_Ratio_250_L_3_R_12.png","img/250/equaldotsize/R/8_Ratio_250_L_1_R_4.png","img/750/equaldotsize/L/13_Ratio_750_L_8_R_6.png","img/250/randomdotsizeEA/R/4_Ratio_250_L_3_R_12.png","img/900/equaldotanddens/R/14_Ratio_900_L_18_R_20.png","img/500/randomdotsizeEA/L/13_Ratio_500_L_12_R_6.png","img/900/randomdotsizeEA/R/13_Ratio_900_L_18_R_20.png","img/250/randomdotsizeEA/R/13_Ratio_250_L_2_R_8.png","img/900/equaldotanddens/L/10_Ratio_900_L_20_R_18.png","img/750/equaldotanddens/R/2_Ratio_750_L_6_R_8.png","img/500/randomdotsizeEA/L/10_Ratio_500_L_4_R_2.png","img/900/equaldotsize/R/11_Ratio_900_L_18_R_20.png","img/500/randomdotsizeEA/L/10_Ratio_500_L_4_R_2.png","img/500/randomdotsizeEA/L/13_Ratio_500_L_12_R_6.png","img/500/equaldotsize/L/7_Ratio_500_L_10_R_5.png","img/500/equaldotsize/R/9_Ratio_500_L_2_R_4.png","img/750/randomdotsizeEA/L/9_Ratio_750_L_4_R_3.png","img/750/randomdotsizeEA/L/6_Ratio_750_L_24_R_18.png","img/750/equaldotsize/R/4_Ratio_750_L_15_R_20.png","img/750/equaldotsize/L/8_Ratio_750_L_4_R_3.png","img/250/equaldotanddens/R/10_Ratio_250_L_4_R_16.png","img/900/equaldotanddens/L/1_Ratio_900_L_10_R_9.png","img/750/equaldotsize/L/10_Ratio_750_L_4_R_3.png","img/250/equaldotanddens/R/10_Ratio_250_L_4_R_16.png","img/750/equaldotanddens/L/6_Ratio_750_L_24_R_18.png","img/500/equaldotsize/R/15_Ratio_500_L_1_R_2.png","img/750/randomdotsizeEA/L/6_Ratio_750_L_24_R_18.png","img/500/randomdotsizeEA/L/4_Ratio_500_L_18_R_9.png","img/500/equaldotanddens/R/6_Ratio_500_L_9_R_18.png","img/250/randomdotsizeEA/R/12_Ratio_250_L_5_R_20.png","img/900/equaldotsize/R/7_Ratio_900_L_9_R_10.png","img/900/randomdotsizeEA/L/8_Ratio_900_L_20_R_18.png","img/900/equaldotanddens/L/8_Ratio_900_L_20_R_18.png","img/250/randomdotsizeEA/L/7_Ratio_250_L_8_R_2.png","img/250/equaldotanddens/R/11_Ratio_250_L_3_R_12.png","img/750/equaldotanddens/L/8_Ratio_750_L_4_R_3.png","img/900/equaldotsize/R/6_Ratio_900_L_9_R_10.png","img/750/equaldotanddens/R/2_Ratio_750_L_6_R_8.png","img/900/equaldotanddens/R/13_Ratio_900_L_18_R_20.png","img/500/equaldotanddens/R/3_Ratio_500_L_10_R_20.png","img/250/equaldotanddens/L/7_Ratio_250_L_8_R_2.png","img/750/equaldotsize/L/14_Ratio_750_L_8_R_6.png","img/750/randomdotsizeEA/L/9_Ratio_750_L_4_R_3.png","img/500/equaldotsize/R/15_Ratio_500_L_1_R_2.png","img/900/equaldotsize/R/14_Ratio_900_L_18_R_20.png","img/500/equaldotanddens/R/15_Ratio_500_L_1_R_2.png","img/900/randomdotsizeEA/L/2_Ratio_900_L_20_R_18.png","img/750/randomdotsizeEA/R/15_Ratio_750_L_9_R_12.png","img/500/equaldotsize/R/15_Ratio_500_L_1_R_2.png","img/500/equaldotanddens/L/7_Ratio_500_L_10_R_5.png","img/750/equaldotanddens/L/13_Ratio_750_L_8_R_6.png","img/900/randomdotsizeEA/R/9_Ratio_900_L_18_R_20.png","img/750/equaldotsize/L/10_Ratio_750_L_4_R_3.png","img/250/equaldotanddens/L/14_Ratio_250_L_12_R_3.png","img/500/equaldotanddens/L/11_Ratio_500_L_12_R_6.png","img/750/equaldotsize/R/5_Ratio_750_L_15_R_20.png","img/250/equaldotsize/L/7_Ratio_250_L_8_R_2.png","img/900/randomdotsizeEA/R/3_Ratio_900_L_9_R_10.png","img/250/equaldotsize/R/4_Ratio_250_L_3_R_12.png","img/250/equaldotsize/L/1_Ratio_250_L_8_R_2.png","img/900/randomdotsizeEA/R/15_Ratio_900_L_9_R_10.png","img/750/randomdotsizeEA/R/5_Ratio_750_L_15_R_20.png","img/900/randomdotsizeEA/L/10_Ratio_900_L_20_R_18.png","img/900/equaldotanddens/L/10_Ratio_900_L_20_R_18.png","img/500/equaldotanddens/R/1_Ratio_500_L_9_R_18.png","img/750/randomdotsizeEA/R/12_Ratio_750_L_3_R_4.png","img/250/equaldotanddens/L/1_Ratio_250_L_8_R_2.png","img/250/equaldotsize/L/2_Ratio_250_L_16_R_4.png","img/250/randomdotsizeEA/L/3_Ratio_250_L_8_R_2.png","img/500/randomdotsizeEA/L/7_Ratio_500_L_10_R_5.png","img/900/randomdotsizeEA/R/3_Ratio_900_L_9_R_10.png","img/500/randomdotsizeEA/L/11_Ratio_500_L_12_R_6.png","img/250/randomdotsizeEA/L/2_Ratio_250_L_16_R_4.png","img/750/equaldotanddens/L/10_Ratio_750_L_4_R_3.png","img/250/equaldotsize/L/1_Ratio_250_L_8_R_2.png","img/750/randomdotsizeEA/L/9_Ratio_750_L_4_R_3.png","img/750/equaldotsize/L/13_Ratio_750_L_8_R_6.png","img/500/randomdotsizeEA/R/15_Ratio_500_L_1_R_2.png","img/900/equaldotsize/L/2_Ratio_900_L_20_R_18.png","img/750/equaldotanddens/R/5_Ratio_750_L_15_R_20.png","img/250/equaldotsize/L/1_Ratio_250_L_8_R_2.png","img/250/equaldotanddens/L/15_Ratio_250_L_12_R_3.png","img/250/randomdotsizeEA/R/10_Ratio_250_L_4_R_16.png","img/750/equaldotanddens/R/15_Ratio_750_L_9_R_12.png","img/900/equaldotsize/R/9_Ratio_900_L_18_R_20.png","img/250/equaldotanddens/R/9_Ratio_250_L_3_R_12.png"],"Rat0":[["12_Ratio_0_L_9_R_0.png","13_Ratio_0_L_6_R_0.png","5_Ratio_0_L_2_R_0.png","6_Ratio_0_L_4_R_0.png","8_Ratio_0_L_6_R_0.png"],["1_Ratio_0_L_0_R_17.png","10_Ratio_0_L_0_R_22.png","11_Ratio_0_L_0_R_1.png","14_Ratio_0_L_0_R_24.png","15_Ratio_0_L_0_R_4.png","2_Ratio_0_L_0_R_5.png","3_Ratio_0_L_0_R_17.png","4_Ratio_0_L_0_R_7.png","7_Ratio_0_L_0_R_19.png","9_Ratio_0_L_0_R_15.png"]],"Rat250":[["1_Ratio_250_L_8_R_2.png","14_Ratio_250_L_12_R_3.png","15_Ratio_250_L_12_R_3.png","2_Ratio_250_L_16_R_4.png","3_Ratio_250_L_8_R_2.png","5_Ratio_250_L_24_R_6.png","7_Ratio_250_L_8_R_2.png"],["10_Ratio_250_L_4_R_16.png","11_Ratio_250_L_3_R_12.png","12_Ratio_250_L_5_R_20.png","13_Ratio_250_L_2_R_8.png","4_Ratio_250_L_3_R_12.png","6_Ratio_250_L_6_R_24.png","8_Ratio_250_L_1_R_4.png","9_Ratio_250_L_3_R_12.png"]],"Rat500":[["10_Ratio_500_L_4_R_2.png","11_Ratio_500_L_12_R_6.png","13_Ratio_500_L_12_R_6.png","4_Ratio_500_L_18_R_9.png","5_Ratio_500_L_4_R_2.png","7_Ratio_500_L_10_R_5.png","8_Ratio_500_L_8_R_4.png"],["1_Ratio_500_L_9_R_18.png","12_Ratio_500_L_1_R_2.png","14_Ratio_500_L_5_R_10.png","15_Ratio_500_L_1_R_2.png","2_Ratio_500_L_3_R_6.png","3_Ratio_500_L_10_R_20.png","6_Ratio_500_L_9_R_18.png","9_Ratio_500_L_2_R_4.png"]],"Rat750":[["1_Ratio_750_L_20_R_15.png","10_Ratio_750_L_4_R_3.png","13_Ratio_750_L_8_R_6.png","14_Ratio_750_L_8_R_6.png","6_Ratio_750_L_24_R_18.png","8_Ratio_750_L_4_R_3.png","9_Ratio_750_L_4_R_3.png"],["11_Ratio_750_L_12_R_16.png","12_Ratio_750_L_3_R_4.png","15_Ratio_750_L_9_R_12.png","2_Ratio_750_L_6_R_8.png","3_Ratio_750_L_15_R_20.png","4_Ratio_750_L_15_R_20.png","5_Ratio_750_L_15_R_20.png","7_Ratio_750_L_3_R_4.png"]],"Rat900":[["1_Ratio_900_L_10_R_9.png","10_Ratio_900_L_20_R_18.png","2_Ratio_900_L_20_R_18.png","4_Ratio_900_L_20_R_18.png","8_Ratio_900_L_20_R_18.png"],["11_Ratio_900_L_18_R_20.png","12_Ratio_900_L_18_R_20.png","13_Ratio_900_L_18_R_20.png","14_Ratio_900_L_18_R_20.png","15_Ratio_900_L_9_R_10.png","3_Ratio_900_L_9_R_10.png","5_Ratio_900_L_9_R_10.png","6_Ratio_900_L_9_R_10.png","7_Ratio_900_L_9_R_10.png","9_Ratio_900_L_18_R_20.png"]],"Rat1000":[["10_Ratio_1000_L_16_R_16.png","11_Ratio_1000_L_6_R_6.png","12_Ratio_1000_L_14_R_14.png","13_Ratio_1000_L_20_R_20.png","15_Ratio_1000_L_15_R_15.png","2_Ratio_1000_L_17_R_17.png","4_Ratio_1000_L_9_R_9.png","5_Ratio_1000_L_6_R_6.png","6_Ratio_1000_L_19_R_19.png","8_Ratio_1000_L_14_R_14.png","9_Ratio_1000_L_25_R_25.png"],["1_Ratio_1000_L_1_R_1.png","14_Ratio_1000_L_17_R_17.png","3_Ratio_1000_L_17_R_17.png","7_Ratio_1000_L_6_R_6.png"]]}},{"start_time":1551801182267,"click_time":1551801183476,"finger_time":1551801182994,"fix_duration":250,"trial":1,"RT":727,"MT":482,"sideResp":2,"stimulus":"img/500/randomdotsizeEA/R/12_Ratio_500_L_1_R_2.png","xmouse":[797,797,797,797,797,797,797,797,797,797,797,797,797,797,797,797,797,797,797,797,797,797,797,797,797,797,797,797,797,797,797,797,797,800,805,831,853,864,870,875,879,889,897,906,916,924,947,966,979,980,981,993,1004,1013,1025,1038,1066,1089,1111,1127,1149],"ymouse":[553,553,553,553,553,553,553,553,553,553,553,552,552,552,552,552,552,552,552,552,552,552,552,552,552,552,552,552,552,552,552,552,548,546,537,504,484,474,470,464,458,445,432,417,406,394,358,326,304,298,294,262,247,230,214,197,162,143,124,108,64],"timestamp_mouse":[6,38,47,68,86,108,126,148,167,187,206,228,247,268,286,307,328,346,368,388,407,428,446,468,486,507,526,547,567,588,607,627,646,666,687,708,727,748,767,788,807,827,847,866,888,907,927,947,967,987,1008,1027,1047,1067,1087,1106,1127,1147,1166,1187,1208],"xSR":741.5,"ySR":469.95,"xT1":424.9,"yT1":0,"xT2":1058.1,"yT2":0,"toosoon":0,"cond_shown":"randomdotsizeEA","ratio_trial":500,"smaller_num":"1","larger_num":"2","correct_side":2,"subjID":"linavaleriameloguevara2","gender":"1","age":"10","school":"6"},{"start_time":1551801185324,"click_time":1551801186493,"finger_time":1551801185993,"fix_duration":529.009563049487,"trial":2,"RT":669,"MT":500,"sideResp":2,"stimulus":"img/750/equaldotanddens/R/12_Ratio_750_L_3_R_4.png","xmouse":[795,795,795,795,795,795,795,795,795,795,795,795,795,795,795,795,795,795,795,795,795,795,795,795,795,795,795,795,795,795,795,797,800,842,866,898,926,992,1014,1024,1033,1048,1057,1069,1079,1087,1097,1103,1109,1109,1110,1110,1110,1110,1110,1110,1110,1108,1108],"ymouse":[543,543,543,543,543,543,543,543,543,543,543,543,543,543,543,543,543,543,543,543,543,543,543,543,543,543,543,543,543,543,543,536,531,484,460,433,406,351,329,319,306,291,276,260,245,236,226,217,208,202,199,194,192,188,184,173,158,136,80],"timestamp_mouse":[11,40,51,70,91,111,131,150,171,189,210,229,251,269,290,310,331,351,371,390,411,429,451,471,489,511,530,551,571,589,610,629,650,669,691,709,730,751,770,791,809,831,851,870,889,910,931,951,970,990,1010,1031,1051,1070,1090,1111,1131,1150,1169],"xSR":741.5,"ySR":469.95,"xT1":424.9,"yT1":0,"xT2":1058.1,"yT2":0,"toosoon":0,"cond_shown":"equaldotanddens","ratio_trial":750,"smaller_num":"3","larger_num":"4","correct_side":2,"subjID":"linavaleriameloguevara2","gender":"1","age":"10","school":"6"},{"start_time":1551801189196,"click_time":1551801190514,"finger_time":1551801189895,"fix_duration":1101.8009941080288,"trial":3,"RT":699,"MT":619,"sideResp":1,"stimulus":"img/900/equaldotsize/R/13_Ratio_900_L_18_R_20.png","xmouse":[781,781,781,781,781,781,781,781,781,781,781,781,781,781,781,781,781,781,781,781,781,781,781,781,781,781,781,781,781,783,785,793,803,812,831,834,835,835,835,834,832,831,829,825,814,804,789,768,752,669,634,586,586,586,586,586,586,586,586,586,586,586,586,586,586,453],"ymouse":[532,532,532,532,532,532,532,532,532,532,532,532,532,532,532,532,532,532,532,532,532,532,532,532,532,532,532,532,532,528,523,515,500,487,461,454,444,431,423,413,409,407,403,397,373,348,314,277,238,103,57,5,5,5,5,5,5,5,5,5,5,5,5,5,5,14],"timestamp_mouse":[18,39,57,79,98,118,139,159,179,198,219,238,259,279,298,318,339,357,379,398,418,437,458,479,499,517,538,559,578,597,619,638,658,678,699,718,737,758,779,798,817,838,859,877,899,919,939,959,977,998,1018,1038,1058,1078,1098,1119,1138,1159,1178,1199,1218,1238,1258,1278,1299,1318],"xSR":741.5,"ySR":469.95,"xT1":424.9,"yT1":0,"xT2":1058.1,"yT2":0,"toosoon":0,"cond_shown":"equaldotsize","ratio_trial":900,"smaller_num":"18","larger_num":"20","correct_side":2,"subjID":"linavaleriameloguevara2","gender":"1","age":"10","school":"6"},{"start_time":1551801193460,"click_time":1551801194693,"finger_time":1551801194134,"fix_duration":1365.3956758366592,"trial":4,"RT":674,"MT":559,"sideResp":2,"stimulus":"img/900/equaldotsize/R/11_Ratio_900_L_18_R_20.png","xmouse":[800,800,800,800,800,800,800,800,800,800,800,800,800,800,800,800,800,800,800,800,800,800,800,800,800,800,800,800,801,802,803,811,817,825,836,855,874,884,887,891,897,909,920,932,942,963,979,995,1002,1004,1008,1013,1015,1015,1017,1018,1027,1031,1037,1040,1048,1062],"ymouse":[524,524,524,524,524,524,524,524,524,524,524,524,524,524,524,524,524,524,524,524,524,524,524,524,524,524,524,524,522,519,518,500,485,469,447,413,388,372,367,362,354,344,335,323,314,297,276,253,244,236,224,213,209,208,204,199,170,159,141,123,101,73],"timestamp_mouse":[14,34,55,75,95,113,135,155,175,193,215,235,255,275,294,314,334,353,374,393,415,435,454,474,493,515,533,555,573,594,614,634,654,674,694,716,733,754,774,795,814,834,854,873,893,915,934,954,973,994,1013,1033,1053,1074,1095,1114,1133,1154,1175,1194,1214,1233],"xSR":741.5,"ySR":469.95,"xT1":424.9,"yT1":0,"xT2":1058.1,"yT2":0,"toosoon":0,"cond_shown":"equaldotsize","ratio_trial":900,"smaller_num":"18","larger_num":"20","correct_side":2,"subjID":"linavaleriameloguevara2","gender":"1","age":"10","school":"6"},{"start_time":1551801196750,"click_time":1551801197734,"finger_time":1551801197414,"fix_duration":874.7189195826262,"trial":5,"RT":664,"MT":320,"sideResp":1,"stimulus":"img/900/randomdotsizeEA/R/12_Ratio_900_L_18_R_20.png","xmouse":[772,772,772,772,772,772,772,772,772,772,772,772,772,772,772,772,772,772,769,767,764,762,760,760,760,760,760,760,760,759,758,756,742,708,663,602,534,517,513,513,513,515,517,517,517,511,502,470,461,458],"ymouse":[514,514,514,514,514,514,514,514,514,514,514,514,514,514,514,514,514,514,512,509,507,506,505,505,505,505,505,505,505,504,504,501,486,452,405,348,259,234,223,218,215,212,202,196,186,172,153,115,104,98],"timestamp_mouse":[8,23,44,65,85,104,124,144,164,184,204,224,245,264,284,303,323,344,364,384,404,424,443,464,484,505,524,543,565,585,605,623,644,664,684,705,725,744,765,783,803,825,844,864,883,904,924,944,964,983],"xSR":741.5,"ySR":469.95,"xT1":424.9,"yT1":0,"xT2":1058.1,"yT2":0,"toosoon":0,"cond_shown":"randomdotsizeEA","ratio_trial":900,"smaller_num":"18","larger_num":"20","correct_side":2,"subjID":"linavaleriameloguevara2","gender":"1","age":"10","school":"6"},{"start_time":1551801199106,"click_time":1551801200294,"finger_time":1551801199755,"fix_duration":250,"trial":6,"RT":649,"MT":539,"sideResp":2,"stimulus":"img/900/equaldotsize/L/8_Ratio_900_L_20_R_18.png","xmouse":[785,785,785,785,785,785,785,785,785,785,785,785,785,785,785,785,785,785,785,785,785,785,785,785,785,787,789,792,795,802,806,812,824,844,876,886,888,899,906,936,944,957,962,973,990,994,994,994,994,995,995,996,999,1017,1034,1058,1076,1087,1098,1111],"ymouse":[502,502,502,502,502,502,502,502,502,502,502,502,502,502,502,502,502,502,502,502,502,502,502,502,502,500,498,495,492,482,479,472,458,442,404,395,393,379,372,338,328,307,299,274,229,208,204,198,192,189,188,187,185,177,169,152,138,121,103,83],"timestamp_mouse":[9,34,49,69,87,107,129,148,168,189,207,229,248,269,288,308,328,348,369,389,408,428,448,469,488,508,528,549,567,588,609,627,649,668,688,707,727,748,769,788,808,827,847,868,888,908,928,949,969,988,1007,1029,1049,1069,1088,1108,1128,1149,1168,1188],"xSR":741.5,"ySR":469.95,"xT1":424.9,"yT1":0,"xT2":1058.1,"yT2":0,"toosoon":0,"cond_shown":"equaldotsize","ratio_trial":900,"smaller_num":"18","larger_num":"20","correct_side":1,"subjID":"linavaleriameloguevara2","gender":"1","age":"10","school":"6"},{"start_time":1551801202533,"click_time":1551801203553,"finger_time":1551801203275,"fix_duration":1038.8973749333875,"trial":7,"RT":742,"MT":278,"sideResp":2,"stimulus":"img/500/equaldotanddens/R/14_Ratio_500_L_5_R_10.png","xmouse":[752,752,752,752,752,752,752,752,752,752,752,752,752,752,752,752,752,752,752,752,752,752,752,752,752,752,752,752,752,752,752,752,752,757,768,769,778,802,848,881,911,924,948,996,1011,1022,1034,1044,1067,1081,1097,1113],"ymouse":[528,528,528,528,528,528,528,528,528,528,528,528,528,528,528,528,528,528,528,528,528,528,528,528,528,528,528,528,528,528,528,528,528,519,504,503,491,460,417,381,346,329,298,225,206,189,173,162,133,118,100,80],"timestamp_mouse":[8,21,42,61,81,102,121,141,161,182,202,221,241,261,282,302,321,341,360,382,401,420,442,461,482,500,521,540,562,581,600,621,641,662,681,702,720,742,761,781,800,822,841,862,880,901,921,941,960,982,1001,1020],"xSR":741.5,"ySR":469.95,"xT1":424.9,"yT1":0,"xT2":1058.1,"yT2":0,"toosoon":0,"cond_shown":"equaldotanddens","ratio_trial":500,"smaller_num":"5","larger_num":"10","correct_side":2,"subjID":"linavaleriameloguevara2","gender":"1","age":"10","school":"6"},{"start_time":1551801205464,"click_time":1551801206654,"finger_time":1551801206333,"fix_duration":949.2196546361533,"trial":8,"RT":869,"MT":321,"sideResp":2,"stimulus":"img/900/randomdotsizeEA/R/13_Ratio_900_L_18_R_20.png","xmouse":[814,814,813,813,813,813,813,813,813,813,813,813,813,813,813,813,813,813,813,813,813,813,813,813,813,813,813,813,813,813,813,813,813,813,813,813,813,813,813,813,813,813,813,813,819,832,881,890,910,927,940,947,950,953,962,983,1008,1024,1041,1059],"ymouse":[475,475,475,475,475,475,475,475,475,475,475,475,475,475,475,475,475,475,475,475,475,475,475,475,475,475,475,475,475,475,475,475,475,475,475,475,475,475,475,475,475,473,473,467,440,413,345,329,303,284,270,263,257,250,236,198,164,141,117,96],"timestamp_mouse":[10,34,49,71,91,110,131,149,170,189,209,230,251,271,291,310,330,349,371,389,411,431,451,471,491,510,530,551,570,589,609,630,650,671,691,710,729,751,771,789,811,829,851,869,890,910,930,949,970,990,1010,1030,1050,1069,1091,1111,1129,1149,1170,1190],"xSR":741.5,"ySR":469.95,"xT1":424.9,"yT1":0,"xT2":1058.1,"yT2":0,"toosoon":0,"cond_shown":"randomdotsizeEA","ratio_trial":900,"smaller_num":"18","larger_num":"20","correct_side":2,"subjID":"linavaleriameloguevara2","gender":"1","age":"10","school":"6"},{"start_time":1551801208690,"click_time":1551801209694,"finger_time":1551801209454,"fix_duration":1094.236969443749,"trial":9,"RT":764,"MT":240,"sideResp":1,"stimulus":"img/250/randomdotsizeEA/L/7_Ratio_250_L_8_R_2.png","xmouse":[817,817,817,817,817,817,817,817,817,817,817,817,817,817,817,817,817,817,817,817,817,817,817,817,817,817,817,817,817,817,817,817,817,817,817,815,814,801,781,756,708,680,652,628,602,549,528,508,489,472,456],"ymouse":[484,484,484,484,484,484,484,484,484,484,484,484,484,484,484,484,484,484,484,484,484,484,484,484,484,484,484,484,484,484,484,484,484,484,484,484,483,471,453,432,397,371,348,322,296,222,193,165,137,116,78],"timestamp_mouse":[9,31,44,65,85,103,125,144,164,185,204,223,245,263,285,304,324,344,364,385,403,423,445,464,485,504,524,544,565,585,603,625,645,663,684,704,725,745,764,783,803,825,844,864,884,903,924,945,963,985,1004],"xSR":741.5,"ySR":469.95,"xT1":424.9,"yT1":0,"xT2":1058.1,"yT2":0,"toosoon":0,"cond_shown":"randomdotsizeEA","ratio_trial":250,"smaller_num":"2","larger_num":"8","correct_side":1,"subjID":"linavaleriameloguevara2","gender":"1","age":"10","school":"6"},{"start_time":1551801211743,"click_time":1551801212594,"finger_time":1551801212334,"fix_duration":546.0379013508183,"trial":10,"RT":591,"MT":260,"sideResp":2,"stimulus":"img/500/equaldotsize/R/6_Ratio_500_L_9_R_18.png","xmouse":[762,762,762,762,762,762,762,762,762,762,762,762,762,762,762,762,762,762,762,762,762,762,762,762,762,768,773,797,801,822,842,859,898,923,942,961,977,1007,1020,1030,1042,1053,1073],"ymouse":[545,545,545,545,545,545,545,545,545,545,545,545,545,545,545,545,545,545,545,545,545,545,545,545,539,528,516,481,473,445,412,374,307,258,226,197,167,116,95,82,65,40,6],"timestamp_mouse":[10,34,51,72,90,112,132,151,171,191,212,230,252,270,292,311,332,351,371,392,412,430,450,472,492,510,531,551,572,591,610,630,651,671,690,711,730,750,771,792,812,831,851],"xSR":741.5,"ySR":469.95,"xT1":424.9,"yT1":0,"xT2":1058.1,"yT2":0,"toosoon":0,"cond_shown":"equaldotsize","ratio_trial":500,"smaller_num":"9","larger_num":"18","correct_side":2,"subjID":"linavaleriameloguevara2","gender":"1","age":"10","school":"6"},{"start_time":1551801213938,"click_time":1551801214675,"finger_time":1551801214415,"fix_duration":442.6863798926559,"trial":11,"RT":477,"MT":260,"sideResp":1,"stimulus":"img/250/randomdotsizeEA/L/14_Ratio_250_L_12_R_3.png","xmouse":[765,765,765,765,765,765,765,765,765,765,765,765,765,765,765,765,765,764,762,759,755,751,743,737,732,732,725,712,704,690,671,634,590,563,544,532,524],"ymouse":[532,532,532,532,532,532,532,532,532,532,532,532,532,532,532,532,532,529,526,521,515,507,497,488,483,483,468,435,410,379,337,256,180,134,100,73,44],"timestamp_mouse":[16,37,56,75,96,117,136,157,176,197,215,237,256,275,297,316,337,356,377,395,416,437,456,477,496,515,536,556,576,596,616,637,656,676,697,716,737],"xSR":741.5,"ySR":469.95,"xT1":424.9,"yT1":0,"xT2":1058.1,"yT2":0,"toosoon":0,"cond_shown":"randomdotsizeEA","ratio_trial":250,"smaller_num":"3","larger_num":"12","correct_side":1,"subjID":"linavaleriameloguevara2","gender":"1","age":"10","school":"6"},{"start_time":1551801218264,"click_time":1551801219135,"finger_time":1551801218914,"fix_duration":1047.0757497896955,"trial":12,"RT":650,"MT":221,"sideResp":2,"stimulus":"img/500/equaldotanddens/R/6_Ratio_500_L_9_R_18.png","xmouse":[784,783,783,783,783,783,783,783,783,783,783,783,783,783,783,783,783,783,783,783,783,783,783,783,783,783,783,784,786,787,797,807,823,844,871,915,991,1020,1039,1055,1078,1079,1099,1119],"ymouse":[553,552,551,550,550,550,550,550,550,550,550,550,550,550,550,550,550,550,550,547,546,543,540,538,537,537,536,534,533,531,509,490,459,421,371,316,218,185,164,144,123,122,102,80],"timestamp_mouse":[10,30,55,70,91,109,131,150,169,191,209,231,250,269,291,311,329,351,371,389,411,430,449,470,490,509,530,549,571,591,611,630,650,669,690,710,730,749,769,791,811,829,850,871],"xSR":741.5,"ySR":469.95,"xT1":424.9,"yT1":0,"xT2":1058.1,"yT2":0,"toosoon":0,"cond_shown":"equaldotanddens","ratio_trial":500,"smaller_num":"9","larger_num":"18","correct_side":2,"subjID":"linavaleriameloguevara2","gender":"1","age":"10","school":"6"},{"start_time":1551801220865,"click_time":1551801221634,"finger_time":1551801221414,"fix_duration":670.8777342850996,"trial":13,"RT":549,"MT":220,"sideResp":2,"stimulus":"img/250/equaldotsize/R/10_Ratio_250_L_4_R_16.png","xmouse":[768,768,768,768,768,768,768,768,768,768,768,768,768,768,768,768,768,768,768,768,768,768,768,768,768,769,775,789,802,827,880,896,941,972,989,1002,1031,1048,1059],"ymouse":[499,499,499,499,499,499,499,499,499,499,499,499,499,499,499,499,499,498,498,497,496,496,496,496,495,494,485,463,442,409,344,323,276,228,197,178,121,87,67],"timestamp_mouse":[8,37,49,70,88,110,129,149,169,190,208,230,249,269,290,310,330,350,369,390,409,429,449,470,488,509,529,549,570,590,610,629,650,669,690,709,729,749,768],"xSR":741.5,"ySR":469.95,"xT1":424.9,"yT1":0,"xT2":1058.1,"yT2":0,"toosoon":0,"cond_shown":"equaldotsize","ratio_trial":250,"smaller_num":"4","larger_num":"16","correct_side":2,"subjID":"linavaleriameloguevara2","gender":"1","age":"10","school":"6"},{"start_time":1551801223911,"click_time":1551801224894,"finger_time":1551801224534,"fix_duration":1114.816098398552,"trial":14,"RT":623,"MT":360,"sideResp":1,"stimulus":"img/900/equaldotanddens/L/1_Ratio_900_L_10_R_9.png","xmouse":[779,779,779,779,779,779,779,779,779,779,778,778,778,778,778,778,778,777,777,776,775,775,775,775,774,773,772,769,760,758,747,738,728,718,700,691,684,681,673,643,628,611,592,572,544,540,536,534,525,522],"ymouse":[534,534,534,534,534,534,534,534,534,534,534,534,534,534,534,534,533,532,531,530,529,528,528,528,527,525,522,519,502,494,472,456,433,414,368,337,314,294,272,223,197,176,150,128,94,85,73,63,45,35],"timestamp_mouse":[8,33,44,63,82,104,124,143,163,184,203,224,244,263,282,302,324,344,362,384,403,422,444,464,483,502,523,543,564,584,602,623,644,662,683,704,724,743,762,783,804,822,842,863,883,902,923,943,964,983],"xSR":741.5,"ySR":469.95,"xT1":424.9,"yT1":0,"xT2":1058.1,"yT2":0,"toosoon":0,"cond_shown":"equaldotanddens","ratio_trial":900,"smaller_num":"9","larger_num":"10","correct_side":1,"subjID":"linavaleriameloguevara2","gender":"1","age":"10","school":"6"},{"start_time":1551801227011,"click_time":1551801228495,"finger_time":1551801227874,"fix_duration":1214.527669002465,"trial":15,"RT":863,"MT":621,"sideResp":2,"stimulus":"img/900/equaldotanddens/L/2_Ratio_900_L_20_R_18.png","xmouse":[757,757,757,757,757,757,757,757,757,757,757,757,757,757,757,757,757,757,757,757,757,757,757,757,757,757,757,757,757,757,757,757,757,758,758,758,758,758,757,756,756,756,756,756,761,768,777,787,809,860,916,959,995,1030,1039,1041,1045,1047,1049,1056,1059,1064,1066,1066,1068,1068,1069,1071,1073,1079,1083,1084,1087,1088,1091],"ymouse":[512,512,512,512,512,512,512,512,512,512,512,512,512,512,512,512,512,512,512,512,512,512,512,512,512,508,506,504,503,502,502,502,502,500,498,495,490,486,480,475,474,473,471,468,452,440,425,415,395,359,336,317,297,272,263,258,253,246,241,228,224,215,213,213,202,202,196,187,178,153,143,134,124,114,91],"timestamp_mouse":[8,23,42,64,83,104,123,153,164,183,203,223,243,264,284,302,324,343,364,382,404,422,443,462,483,503,523,543,563,584,603,622,642,662,683,702,724,743,762,783,803,822,843,863,883,902,922,944,963,983,1002,1022,1043,1064,1082,1102,1122,1143,1164,1184,1204,1224,1243,1263,1282,1303,1324,1344,1363,1383,1403,1423,1443,1464,1484],"xSR":741.5,"ySR":469.95,"xT1":424.9,"yT1":0,"xT2":1058.1,"yT2":0,"toosoon":0,"cond_shown":"equaldotanddens","ratio_trial":900,"smaller_num":"18","larger_num":"20","correct_side":1,"subjID":"linavaleriameloguevara2","gender":"1","age":"10","school":"6"},{"start_time":1551801231645,"click_time":1551801233035,"finger_time":1551801232115,"fix_duration":250,"trial":16,"RT":470,"MT":920,"sideResp":1,"stimulus":"img/500/equaldotanddens/L/8_Ratio_500_L_8_R_4.png","xmouse":[769,769,769,769,769,769,769,769,769,769,769,769,769,769,769,769,769,769,769,769,768,767,757,750,746,740,727,702,686,678,671,667,659,653,649,641,637,625,622,617,613,608,599,588,578,571,559,539,537,536,535,534,533,533,533,533,533,532,532,532,532,532,531,530,529,529,528,525,525,524],"ymouse":[542,542,542,542,542,541,540,540,539,539,539,539,539,539,538,537,535,530,524,518,512,505,484,466,456,444,419,377,344,320,297,275,239,224,214,203,196,183,181,180,179,178,175,165,160,154,139,116,115,108,101,94,86,82,79,77,76,76,76,76,76,76,76,76,76,76,76,76,76,76],"timestamp_mouse":[8,29,49,70,89,109,130,148,170,189,210,229,249,269,290,309,329,350,368,389,409,429,450,470,489,508,529,549,568,590,609,629,649,669,690,709,728,748,769,789,810,829,849,869,889,909,929,948,969,990,1009,1029,1049,1070,1090,1108,1129,1149,1170,1189,1208,1230,1250,1269,1289,1309,1329,1349,1370,1390],"xSR":741.5,"ySR":469.95,"xT1":424.9,"yT1":0,"xT2":1058.1,"yT2":0,"toosoon":0,"cond_shown":"equaldotanddens","ratio_trial":500,"smaller_num":"4","larger_num":"8","correct_side":1,"subjID":"linavaleriameloguevara2","gender":"1","age":"10","school":"6"},{"start_time":1551801234904,"click_time":1551801236075,"finger_time":1551801235594,"fix_duration":728.0481142560085,"trial":17,"RT":690,"MT":481,"sideResp":2,"stimulus":"img/900/equaldotsize/R/7_Ratio_900_L_9_R_10.png","xmouse":[803,803,803,803,803,803,803,803,803,803,803,803,803,803,803,803,803,803,803,803,803,803,803,803,803,803,803,803,803,805,809,813,818,833,859,869,872,880,896,903,914,922,933,942,959,961,962,964,967,984,995,1013,1031,1043,1061,1069,1073,1075,1083],"ymouse":[539,539,539,539,539,539,539,539,539,539,539,539,539,539,539,539,539,539,539,539,539,539,539,539,539,539,539,537,532,527,520,515,508,485,441,429,422,405,368,351,332,322,304,290,265,261,259,257,254,237,224,210,193,180,149,131,118,104,74],"timestamp_mouse":[10,39,51,69,91,109,131,149,171,191,211,230,250,269,290,310,330,350,370,389,411,430,450,471,491,510,530,550,571,589,611,631,651,669,690,710,731,751,771,790,809,830,851,870,890,910,931,949,970,990,1011,1030,1050,1070,1090,1110,1130,1150,1171],"xSR":741.5,"ySR":469.95,"xT1":424.9,"yT1":0,"xT2":1058.1,"yT2":0,"toosoon":0,"cond_shown":"equaldotsize","ratio_trial":900,"smaller_num":"9","larger_num":"10","correct_side":2,"subjID":"linavaleriameloguevara2","gender":"1","age":"10","school":"6"},{"start_time":1551801238278,"click_time":1551801239195,"finger_time":1551801238794,"fix_duration":1343.4824772534018,"trial":18,"RT":516,"MT":401,"sideResp":1,"stimulus":"img/250/equaldotsize/L/5_Ratio_250_L_24_R_6.png","xmouse":[777,777,777,777,777,777,777,777,777,777,777,777,777,777,777,777,777,777,777,776,774,771,768,762,754,729,721,710,700,688,659,651,628,605,579,551,544,538,537,537,535,532,528,523,521,513],"ymouse":[549,549,549,549,549,549,549,549,549,549,549,549,549,549,549,549,549,549,549,546,543,539,532,524,514,481,467,450,432,413,376,365,339,311,285,247,232,220,210,197,168,150,132,114,109,91],"timestamp_mouse":[17,36,56,75,95,116,136,156,177,195,216,237,255,276,295,315,336,355,375,396,417,436,457,477,496,516,536,555,576,597,616,636,655,677,696,716,736,755,776,797,816,837,855,875,896,917],"xSR":741.5,"ySR":469.95,"xT1":424.9,"yT1":0,"xT2":1058.1,"yT2":0,"toosoon":0,"cond_shown":"equaldotsize","ratio_trial":250,"smaller_num":"6","larger_num":"24","correct_side":1,"subjID":"linavaleriameloguevara2","gender":"1","age":"10","school":"6"},{"start_time":1551801240509,"click_time":1551801241454,"finger_time":1551801241075,"fix_duration":592.7483412394301,"trial":19,"RT":566,"MT":379,"sideResp":2,"stimulus":"img/250/equaldotanddens/R/10_Ratio_250_L_4_R_16.png","xmouse":[811,810,810,810,810,810,810,810,810,810,810,810,810,810,810,810,810,810,810,810,810,810,810,810,812,818,824,832,850,860,874,888,908,925,970,995,1012,1026,1051,1062,1070,1075,1079,1081,1083,1084,1085,1086],"ymouse":[526,526,526,526,526,526,526,526,526,526,526,526,526,526,526,526,526,526,526,526,526,526,526,525,522,513,502,487,452,431,406,370,332,302,239,204,187,174,150,140,131,124,117,112,104,102,102,97],"timestamp_mouse":[8,25,44,66,84,106,126,145,164,186,204,226,245,265,285,306,326,344,366,385,406,425,445,464,486,505,525,545,566,585,605,624,645,665,685,704,725,745,766,784,805,826,845,865,885,904,925,945],"xSR":741.5,"ySR":469.95,"xT1":424.9,"yT1":0,"xT2":1058.1,"yT2":0,"toosoon":0,"cond_shown":"equaldotanddens","ratio_trial":250,"smaller_num":"4","larger_num":"16","correct_side":2,"subjID":"linavaleriameloguevara2","gender":"1","age":"10","school":"6"},{"start_time":1551801244329,"click_time":1551801245655,"finger_time":1551801244973,"fix_duration":453.8520315815883,"trial":20,"RT":644,"MT":682,"sideResp":1,"stimulus":"img/750/randomdotsizeEA/R/5_Ratio_750_L_15_R_20.png","xmouse":[763,763,763,763,763,763,763,763,763,763,763,763,763,763,763,763,763,763,763,763,763,763,763,763,763,763,763,762,761,757,750,742,733,699,679,668,653,620,605,599,589,584,569,551,538,538,538,538,538,538,538,538,538,538,538,538,538,538,538,538,538,538,538,538,538,538,499],"ymouse":[552,552,552,552,552,552,552,552,552,552,552,552,552,552,552,552,552,552,552,552,552,551,550,546,545,544,543,541,536,529,517,496,475,413,380,358,331,273,243,226,193,177,105,42,0,0,0,0,0,0,0,0,0,0,0,0,0,0,0,0,0,0,0,0,0,0,4],"timestamp_mouse":[8,25,45,65,84,105,124,145,165,186,205,226,245,264,285,305,324,346,364,386,406,426,445,464,485,506,525,545,566,584,605,625,644,664,686,706,725,746,764,785,805,826,846,864,886,905,925,945,965,986,1006,1025,1045,1065,1086,1105,1125,1145,1166,1185,1205,1224,1246,1265,1286,1305,1326],"xSR":741.5,"ySR":469.95,"xT1":424.9,"yT1":0,"xT2":1058.1,"yT2":0,"toosoon":0,"cond_shown":"randomdotsizeEA","ratio_trial":750,"smaller_num":"15","larger_num":"20","correct_side":2,"subjID":"linavaleriameloguevara2","gender":"1","age":"10","school":"6"},{"start_time":1551801246865,"click_time":1551801248235,"finger_time":1551801247873,"fix_duration":250,"trial":21,"RT":1008,"MT":362,"sideResp":1,"stimulus":"img/500/equaldotsize/L/13_Ratio_500_L_12_R_6.png","xmouse":[799,799,799,798,798,797,796,795,794,794,794,794,794,794,794,794,794,794,794,794,794,794,794,794,794,794,794,794,794,794,794,794,794,794,794,794,794,794,794,794,794,794,794,794,793,793,791,781,776,761,739,669,638,609,588,568,530,516,503,494,489,475,472,469,467,465,464,461,461],"ymouse":[538,538,537,536,535,533,531,531,529,529,529,529,529,529,529,529,529,529,529,529,529,529,529,529,529,529,529,529,529,529,529,529,529,529,528,527,526,526,525,525,524,524,524,524,523,522,519,510,503,491,470,421,393,363,327,295,217,189,166,151,144,129,126,122,120,114,110,100,89],"timestamp_mouse":[9,37,49,69,89,109,130,148,169,190,209,230,248,269,290,310,329,349,369,389,409,428,450,469,490,510,530,549,569,590,608,629,649,668,690,709,729,749,770,790,810,830,850,869,889,908,930,949,969,990,1008,1028,1049,1068,1089,1110,1129,1149,1169,1190,1209,1229,1249,1269,1289,1310,1329,1350,1370],"xSR":741.5,"ySR":469.95,"xT1":424.9,"yT1":0,"xT2":1058.1,"yT2":0,"toosoon":0,"cond_shown":"equaldotsize","ratio_trial":500,"smaller_num":"6","larger_num":"12","correct_side":1,"subjID":"linavaleriameloguevara2","gender":"1","age":"10","school":"6"},{"start_time":1551801250126,"click_time":1551801251214,"finger_time":1551801250794,"fix_duration":850.8485328548312,"trial":22,"RT":668,"MT":420,"sideResp":2,"stimulus":"img/500/equaldotsize/R/6_Ratio_500_L_9_R_18.png","xmouse":[795,795,795,795,795,795,795,795,795,795,795,795,795,795,795,795,795,795,795,795,795,795,795,795,795,795,795,795,795,795,795,795,799,820,839,844,852,854,857,857,858,858,861,871,878,889,899,913,935,951,967,987,1013,1068,1081],"ymouse":[513,513,513,513,513,513,513,513,513,513,513,513,513,513,513,513,513,512,512,512,512,512,512,512,512,512,511,511,510,507,505,501,491,449,418,409,393,385,373,368,361,354,337,319,306,291,278,264,237,217,199,181,161,108,95],"timestamp_mouse":[14,32,48,69,89,107,129,147,169,187,208,228,249,267,289,308,328,349,367,388,408,427,449,467,489,507,529,548,569,589,607,628,647,668,688,708,729,749,768,788,807,829,849,867,888,908,929,949,968,988,1007,1028,1048,1069,1088],"xSR":741.5,"ySR":469.95,"xT1":424.9,"yT1":0,"xT2":1058.1,"yT2":0,"toosoon":0,"cond_shown":"equaldotsize","ratio_trial":500,"smaller_num":"9","larger_num":"18","correct_side":2,"subjID":"linavaleriameloguevara2","gender":"1","age":"10","school":"6"},{"start_time":1551801252709,"click_time":1551801254113,"finger_time":1551801253414,"fix_duration":432.24850748689727,"trial":23,"RT":705,"MT":699,"sideResp":1,"stimulus":"img/500/equaldotanddens/L/11_Ratio_500_L_12_R_6.png","xmouse":[807,807,807,807,807,807,807,807,807,807,807,807,807,807,807,807,807,807,807,807,807,807,807,807,807,807,807,807,807,807,807,803,801,791,751,727,705,692,678,655,646,629,613,597,564,560,553,548,545,545,544,544,542,538,519,503,492,487,481,477,474,473,473,473,472,472,472,472,472,472,472],"ymouse":[508,508,508,508,508,508,508,508,508,508,508,508,508,508,508,508,508,508,508,508,508,508,508,508,508,508,508,508,508,508,508,505,504,499,472,455,438,426,410,380,363,341,320,302,265,260,247,240,227,225,224,221,218,212,193,176,164,157,144,132,125,121,121,121,118,114,112,110,107,101,98],"timestamp_mouse":[9,34,45,66,86,104,126,144,166,186,206,226,244,266,285,305,325,346,364,386,404,426,445,464,485,504,526,544,566,585,606,624,644,665,684,705,725,745,765,785,805,825,846,865,885,904,926,945,966,984,1004,1025,1045,1064,1085,1106,1125,1145,1165,1185,1205,1225,1244,1265,1285,1304,1325,1345,1365,1385,1404],"xSR":741.5,"ySR":469.95,"xT1":424.9,"yT1":0,"xT2":1058.1,"yT2":0,"toosoon":0,"cond_shown":"equaldotanddens","ratio_trial":500,"smaller_num":"6","larger_num":"12","correct_side":1,"subjID":"linavaleriameloguevara2","gender":"1","age":"10","school":"6"},{"start_time":1551801257050,"click_time":1551801257953,"finger_time":1551801257613,"fix_duration":574.6220316961338,"trial":24,"RT":563,"MT":340,"sideResp":2,"stimulus":"img/900/equaldotanddens/R/9_Ratio_900_L_18_R_20.png","xmouse":[783,783,783,783,783,783,783,783,783,783,783,783,783,783,783,783,783,783,783,783,783,783,785,788,790,797,803,814,827,834,844,867,881,899,913,929,943,972,984,996,1006,1017,1046,1059,1069,1080],"ymouse":[552,552,552,552,552,552,552,552,552,552,552,552,552,552,552,552,552,552,552,552,552,550,546,541,534,522,512,483,455,436,413,367,342,320,303,285,271,244,232,218,203,186,149,132,115,98],"timestamp_mouse":[11,24,44,63,85,103,123,145,165,184,204,225,245,263,284,305,323,344,364,384,405,424,445,464,484,505,524,544,563,584,604,625,643,664,684,704,724,743,763,785,804,823,844,864,885,903],"xSR":741.5,"ySR":469.95,"xT1":424.9,"yT1":0,"xT2":1058.1,"yT2":0,"toosoon":0,"cond_shown":"equaldotanddens","ratio_trial":900,"smaller_num":"18","larger_num":"20","correct_side":2,"subjID":"linavaleriameloguevara2","gender":"1","age":"10","school":"6"},{"start_time":1551801261490,"click_time":1551801262393,"finger_time":1551801262013,"fix_duration":1055.2938764284518,"trial":25,"RT":523,"MT":380,"sideResp":1,"stimulus":"img/750/randomdotsizeEA/L/13_Ratio_750_L_8_R_6.png","xmouse":[787,787,787,787,787,787,787,787,787,787,787,787,787,787,787,787,787,787,787,787,787,785,784,781,776,752,727,712,704,693,687,686,686,684,677,665,655,642,623,587,576,564,555,543,525,517],"ymouse":[528,528,528,528,528,528,528,528,528,528,528,528,528,528,528,528,528,528,528,528,528,525,524,520,514,489,470,458,452,433,422,407,389,363,299,242,205,170,145,105,93,82,72,62,40,29],"timestamp_mouse":[9,31,44,65,84,104,123,144,164,183,205,225,244,265,285,305,323,345,365,383,405,425,444,464,483,505,523,544,564,585,604,623,644,664,685,704,725,743,764,785,803,823,843,865,885,903],"xSR":741.5,"ySR":469.95,"xT1":424.9,"yT1":0,"xT2":1058.1,"yT2":0,"toosoon":0,"cond_shown":"randomdotsizeEA","ratio_trial":750,"smaller_num":"6","larger_num":"8","correct_side":1,"subjID":"linavaleriameloguevara2","gender":"1","age":"10","school":"6"},{"start_time":1551801265428,"click_time":1551801266296,"finger_time":1551801266076,"fix_duration":250.50906515891924,"trial":26,"RT":648,"MT":220,"sideResp":1,"stimulus":"img/500/equaldotsize/L/11_Ratio_500_L_12_R_6.png","xmouse":[778,778,778,778,778,778,778,778,778,778,778,778,778,778,778,778,778,778,778,778,778,778,778,778,778,778,778,778,777,774,769,762,733,711,690,667,642,608,545,519,505,491,483,456],"ymouse":[541,541,541,541,541,541,541,541,541,541,541,541,541,541,541,541,541,541,541,541,541,541,541,541,541,541,541,541,537,533,529,522,497,479,461,433,398,350,247,187,156,121,100,52],"timestamp_mouse":[8,28,47,66,88,108,126,146,168,186,208,226,246,267,288,307,327,348,366,388,408,426,448,466,487,507,526,546,566,586,607,627,648,667,688,708,728,747,766,787,806,827,846,867],"xSR":741.5,"ySR":469.95,"xT1":424.9,"yT1":0,"xT2":1058.1,"yT2":0,"toosoon":0,"cond_shown":"equaldotsize","ratio_trial":500,"smaller_num":"6","larger_num":"12","correct_side":1,"subjID":"linavaleriameloguevara2","gender":"1","age":"10","school":"6"},{"start_time":1551801268150,"click_time":1551801269536,"finger_time":1551801268994,"fix_duration":752.1622286678178,"trial":27,"RT":844,"MT":542,"sideResp":1,"stimulus":"img/500/equaldotsize/L/4_Ratio_500_L_18_R_9.png","xmouse":[782,782,782,782,782,782,782,782,782,782,782,782,782,782,782,782,782,782,782,782,782,782,782,782,782,782,782,782,782,782,782,782,782,782,782,782,782,782,780,777,770,749,729,719,708,695,681,658,647,634,625,615,602,597,589,582,565,559,558,554,552,546,536,529,528,524,520,515,514,507],"ymouse":[522,522,522,522,522,522,522,522,522,522,522,522,522,522,522,522,522,522,522,522,522,522,522,522,522,522,522,522,522,522,522,522,522,522,522,522,521,519,517,514,510,493,473,463,446,425,404,361,344,327,310,299,281,276,268,261,242,238,235,227,218,208,177,159,149,135,121,106,104,91],"timestamp_mouse":[8,24,44,66,85,104,124,144,166,185,206,225,245,265,285,304,326,346,366,384,406,425,444,464,484,505,524,544,566,584,605,626,644,665,685,704,724,746,766,785,804,826,844,865,886,905,924,944,965,986,1005,1024,1044,1064,1084,1104,1126,1145,1165,1186,1204,1225,1245,1265,1284,1305,1324,1344,1364,1386],"xSR":741.5,"ySR":469.95,"xT1":424.9,"yT1":0,"xT2":1058.1,"yT2":0,"toosoon":0,"cond_shown":"equaldotsize","ratio_trial":500,"smaller_num":"9","larger_num":"18","correct_side":1,"subjID":"linavaleriameloguevara2","gender":"1","age":"10","school":"6"},{"start_time":1551801271958,"click_time":1551801274696,"finger_time":1551801274116,"fix_duration":1341.802831473241,"trial":28,"RT":2158,"MT":580,"sideResp":2,"stimulus":"img/250/equaldotanddens/R/10_Ratio_250_L_4_R_16.png","xmouse":[778,778,778,778,778,778,778,778,778,778,778,778,778,778,778,778,778,778,778,778,778,778,778,778,778,778,778,778,778,778,778,778,778,778,778,778,778,778,778,778,778,778,778,778,778,778,778,778,778,779,779,781,781,781,782,782,782,782,782,782,782,782,782,782,782,782,782,782,782,782,782,782,782,782,782,782,782,782,782,782,781,781,781,780,779,778,777,777,777,777,777,777,777,777,777,777,777,776,775,775,775,775,775,775,775,779,785,794,805,817,839,857,869,886,901,918,921,926,929,931,935,940,946,958,969,983,1003,1014,1019,1025,1030,1036,1040,1043,1047,1052,1065],"ymouse":[528,528,528,528,528,528,528,528,528,528,528,528,528,528,528,528,528,528,528,528,528,528,528,528,528,528,528,528,528,528,528,528,528,528,528,528,528,528,528,528,528,528,528,528,528,528,528,527,526,526,524,521,519,517,515,514,513,513,513,513,513,513,513,513,513,513,513,513,513,513,513,513,513,513,513,513,514,514,515,515,515,516,517,517,518,518,519,519,519,519,519,519,519,519,519,519,519,519,519,519,519,519,519,517,515,498,484,465,444,423,388,364,346,323,295,267,261,255,250,248,247,240,235,224,214,200,173,160,150,139,127,109,91,77,63,50,31],"timestamp_mouse":[16,38,56,77,96,117,138,157,177,198,217,237,257,278,297,317,338,357,378,397,417,437,456,477,497,517,536,558,576,596,616,637,658,677,698,717,736,757,776,798,816,836,858,876,897,916,938,956,977,997,1017,1036,1058,1077,1097,1116,1138,1156,1176,1198,1216,1236,1257,1278,1298,1316,1338,1357,1376,1398,1416,1438,1456,1477,1496,1517,1536,1558,1577,1597,1618,1636,1656,1678,1696,1717,1738,1756,1777,1797,1816,1838,1856,1877,1896,1918,1937,1956,1978,1997,2016,2036,2058,2076,2097,2118,2136,2158,2177,2196,2218,2236,2256,2276,2297,2318,2337,2357,2376,2398,2418,2437,2458,2476,2496,2517,2537,2556,2577,2597,2616,2636,2658,2678,2697,2717,2738],"xSR":741.5,"ySR":469.95,"xT1":424.9,"yT1":0,"xT2":1058.1,"yT2":0,"toosoon":0,"cond_shown":"equaldotanddens","ratio_trial":250,"smaller_num":"4","larger_num":"16","correct_side":2,"subjID":"linavaleriameloguevara2","gender":"1","age":"10","school":"6"},{"start_time":1551801277473,"click_time":1551801278635,"finger_time":1551801278076,"fix_duration":456.59869349572193,"trial":29,"RT":603,"MT":559,"sideResp":1,"stimulus":"img/750/equaldotsize/L/1_Ratio_750_L_20_R_15.png","xmouse":[757,757,757,757,757,757,757,757,757,757,757,757,757,757,757,757,757,757,757,757,757,757,757,757,757,757,753,751,748,747,729,719,709,696,682,656,647,641,631,624,598,582,561,542,531,522,513,513,513,513,513,513,513,513,513,513,510,509,504],"ymouse":[520,520,520,520,520,520,520,520,520,520,520,520,520,520,520,520,520,520,520,520,520,520,520,519,519,517,510,503,501,495,463,442,415,388,357,292,262,232,211,199,175,162,149,136,130,122,115,115,115,115,115,115,115,115,115,114,107,100,93],"timestamp_mouse":[8,22,41,61,83,101,122,143,161,183,203,221,242,263,281,302,322,342,363,382,401,421,443,462,483,502,522,542,562,581,603,622,641,661,682,703,721,741,763,782,803,821,843,863,882,902,922,941,963,981,1003,1023,1042,1062,1083,1102,1121,1142,1162],"xSR":741.5,"ySR":469.95,"xT1":424.9,"yT1":0,"xT2":1058.1,"yT2":0,"toosoon":0,"cond_shown":"equaldotsize","ratio_trial":750,"smaller_num":"15","larger_num":"20","correct_side":1,"subjID":"linavaleriameloguevara2","gender":"1","age":"10","school":"6"},{"start_time":1551801279946,"click_time":1551801281275,"finger_time":1551801280694,"fix_duration":250,"trial":30,"RT":748,"MT":581,"sideResp":2,"stimulus":"img/750/equaldotsize/R/12_Ratio_750_L_3_R_4.png","xmouse":[789,789,789,789,789,789,789,789,789,789,789,789,789,789,789,789,789,789,789,789,789,789,789,789,789,789,788,788,788,788,788,787,787,787,788,790,793,805,812,816,823,824,842,868,882,902,915,939,946,958,966,975,984,988,993,997,1000,1007,1010,1015,1020,1025,1040,1050,1054,1058,1061],"ymouse":[495,495,495,495,495,495,495,495,495,495,495,495,495,495,495,495,495,495,495,495,495,495,495,495,495,495,495,495,495,494,493,493,490,488,485,484,478,463,451,443,420,419,359,294,256,222,195,164,154,146,142,140,137,133,129,124,119,106,100,97,92,87,74,64,60,54,48],"timestamp_mouse":[12,29,56,70,88,110,129,149,169,189,208,230,249,269,288,308,329,350,368,389,408,430,448,470,488,509,528,550,570,588,608,628,650,669,688,710,728,748,769,790,808,828,848,869,888,909,928,948,969,990,1009,1028,1049,1069,1090,1109,1128,1148,1170,1189,1209,1228,1249,1269,1288,1309,1329],"xSR":741.5,"ySR":469.95,"xT1":424.9,"yT1":0,"xT2":1058.1,"yT2":0,"toosoon":0,"cond_shown":"equaldotsize","ratio_trial":750,"smaller_num":"3","larger_num":"4","correct_side":2,"subjID":"linavaleriameloguevara2","gender":"1","age":"10","school":"6"},{"start_time":1551801282526,"click_time":1551801283415,"finger_time":1551801282996,"fix_duration":250,"trial":31,"RT":470,"MT":419,"sideResp":1,"stimulus":"img/500/randomdotsizeEA/L/11_Ratio_500_L_12_R_6.png","xmouse":[802,802,802,802,802,802,802,802,802,802,802,802,802,802,802,802,802,802,802,800,800,796,786,772,760,758,747,714,705,687,668,655,636,610,594,586,579,573,563,557,553,545,539,527,518],"ymouse":[509,509,509,509,509,509,509,509,509,509,509,509,509,509,509,509,509,509,509,509,506,497,488,466,454,452,435,396,381,355,323,306,280,236,207,190,174,157,125,110,100,83,69,38,22],"timestamp_mouse":[8,32,48,68,88,108,129,148,169,189,210,229,249,268,289,308,329,350,369,388,409,429,449,470,490,509,528,550,569,589,608,628,648,669,689,710,729,748,768,788,809,829,849,868,888],"xSR":741.5,"ySR":469.95,"xT1":424.9,"yT1":0,"xT2":1058.1,"yT2":0,"toosoon":0,"cond_shown":"randomdotsizeEA","ratio_trial":500,"smaller_num":"6","larger_num":"12","correct_side":1,"subjID":"linavaleriameloguevara2","gender":"1","age":"10","school":"6"},{"start_time":1551801285676,"click_time":1551801287375,"finger_time":1551801286194,"fix_duration":740.6609943807118,"trial":32,"RT":518,"MT":1181,"sideResp":1,"stimulus":"img/900/equaldotanddens/L/10_Ratio_900_L_20_R_18.png","xmouse":[787,787,787,787,787,787,787,787,787,787,787,787,787,787,787,787,787,787,787,787,787,788,790,794,800,814,820,820,827,834,854,869,885,896,916,952,974,982,985,986,986,986,986,986,986,982,978,968,953,950,911,884,850,818,762,737,705,684,666,640,632,625,614,606,597,583,579,579,579,577,575,571,566,559,552,540,538,537,537,537,536,534,533,527,523],"ymouse":[504,504,504,504,504,504,504,504,504,504,504,504,504,504,504,504,504,504,504,504,504,501,495,490,482,465,458,457,450,440,413,394,372,357,325,276,237,220,214,211,211,211,211,211,211,211,211,212,216,217,230,236,238,238,217,204,179,162,146,115,104,97,85,76,71,66,66,66,66,66,66,67,68,69,70,72,72,73,73,73,73,73,73,73,71],"timestamp_mouse":[18,38,60,80,98,118,140,158,179,200,218,239,260,280,298,318,339,360,379,400,418,440,459,479,499,518,538,559,578,598,618,640,660,679,699,719,738,758,779,800,818,838,858,880,899,919,939,959,978,999,1019,1038,1059,1080,1100,1118,1139,1158,1180,1200,1219,1239,1259,1278,1299,1319,1339,1358,1378,1400,1418,1439,1460,1479,1499,1519,1538,1558,1580,1599,1618,1638,1659,1679,1699],"xSR":741.5,"ySR":469.95,"xT1":424.9,"yT1":0,"xT2":1058.1,"yT2":0,"toosoon":0,"cond_shown":"equaldotanddens","ratio_trial":900,"smaller_num":"18","larger_num":"20","correct_side":1,"subjID":"linavaleriameloguevara2","gender":"1","age":"10","school":"6"},{"start_time":1551801289542,"click_time":1551801290756,"finger_time":1551801290215,"fix_duration":1305.145318554568,"trial":33,"RT":673,"MT":541,"sideResp":2,"stimulus":"img/250/equaldotsize/R/13_Ratio_250_L_2_R_8.png","xmouse":[754,754,754,754,754,754,754,754,754,754,754,754,754,754,754,754,754,754,754,754,754,754,754,754,754,754,754,754,754,754,754,756,770,778,792,802,814,861,886,908,947,972,1004,1016,1021,1027,1034,1052,1056,1056,1056,1056,1056,1056,1056,1056,1056,1056,1056,1056,1084],"ymouse":[529,529,529,529,529,529,529,529,529,529,529,529,529,529,529,529,529,529,529,529,529,529,529,529,529,529,529,529,529,527,523,518,485,465,438,409,374,263,214,178,128,91,48,33,27,21,15,2,0,0,0,0,0,0,0,0,0,0,0,0,4],"timestamp_mouse":[13,36,52,72,92,112,133,154,172,193,214,234,252,273,293,313,333,353,374,393,413,432,453,474,492,513,534,552,574,592,613,633,654,673,693,714,733,752,772,793,813,833,852,873,892,912,933,952,973,993,1014,1033,1054,1074,1093,1113,1134,1154,1173,1194,1214],"xSR":741.5,"ySR":469.95,"xT1":424.9,"yT1":0,"xT2":1058.1,"yT2":0,"toosoon":0,"cond_shown":"equaldotsize","ratio_trial":250,"smaller_num":"2","larger_num":"8","correct_side":2,"subjID":"linavaleriameloguevara2","gender":"1","age":"10","school":"6"},{"start_time":1551801294182,"click_time":1551801295434,"finger_time":1551801294675,"fix_duration":785.3968120838181,"trial":34,"RT":493,"MT":759,"sideResp":2,"stimulus":"img/250/randomdotsizeEA/R/4_Ratio_250_L_3_R_12.png","xmouse":[756,756,756,756,756,756,756,756,756,756,756,756,756,756,756,756,756,756,756,756,754,752,750,742,735,726,724,724,723,723,723,723,723,724,726,752,772,794,817,858,890,910,934,965,1017,1029,1041,1044,1052,1076,1083,1092,1109,1122,1136,1136,1136,1135,1132,1130,1129,1129,1129],"ymouse":[539,539,539,539,539,539,539,539,539,539,539,539,539,539,539,539,539,539,539,539,534,528,526,518,511,500,499,497,496,496,496,496,496,496,496,492,490,484,476,450,418,390,351,311,257,245,231,227,221,211,208,203,192,182,161,152,140,131,121,114,105,100,99],"timestamp_mouse":[13,38,53,74,92,112,132,152,172,192,214,233,254,273,292,313,332,352,374,392,414,433,454,473,493,512,532,553,573,592,612,632,654,674,693,712,732,752,772,794,812,832,852,873,894,913,933,952,973,994,1012,1032,1053,1073,1094,1113,1133,1152,1173,1193,1212,1234,1252],"xSR":741.5,"ySR":469.95,"xT1":424.9,"yT1":0,"xT2":1058.1,"yT2":0,"toosoon":0,"cond_shown":"randomdotsizeEA","ratio_trial":250,"smaller_num":"3","larger_num":"12","correct_side":2,"subjID":"linavaleriameloguevara2","gender":"1","age":"10","school":"6"},{"start_time":1551801296845,"click_time":1551801298634,"finger_time":1551801297935,"fix_duration":250,"trial":35,"RT":1090,"MT":699,"sideResp":2,"stimulus":"img/250/equaldotsize/R/8_Ratio_250_L_1_R_4.png","xmouse":[791,791,791,791,791,791,791,791,791,791,791,791,791,791,791,791,791,791,791,791,791,791,791,791,791,791,791,791,791,791,791,791,791,791,791,791,791,791,791,791,791,791,791,791,791,791,791,791,791,791,792,793,802,815,826,837,843,844,845,845,846,847,850,855,860,869,888,900,914,930,942,953,981,992,1003,1011,1026,1035,1038,1038,1038,1038,1038,1039,1040,1041,1043,1050,1054,1059],"ymouse":[514,514,514,514,514,514,514,514,514,514,514,514,514,514,514,514,514,514,514,514,514,514,514,514,514,514,514,514,514,514,514,514,514,514,514,514,514,514,514,514,514,514,514,514,514,514,514,514,514,512,510,507,491,470,451,434,418,417,407,401,398,396,386,380,370,357,332,318,300,282,269,254,213,192,169,148,121,108,101,100,100,100,100,99,98,97,95,90,88,85],"timestamp_mouse":[9,30,50,71,90,111,131,149,170,190,210,229,250,269,290,311,329,350,371,389,411,430,450,469,491,509,530,550,570,589,610,630,651,670,690,711,729,749,770,791,811,830,851,871,891,910,931,951,969,991,1010,1029,1050,1070,1090,1111,1131,1149,1169,1191,1209,1230,1250,1271,1289,1310,1331,1350,1369,1390,1411,1429,1449,1470,1490,1511,1531,1549,1571,1589,1610,1630,1649,1671,1690,1710,1730,1751,1770,1789],"xSR":741.5,"ySR":469.95,"xT1":424.9,"yT1":0,"xT2":1058.1,"yT2":0,"toosoon":0,"cond_shown":"equaldotsize","ratio_trial":250,"smaller_num":"1","larger_num":"4","correct_side":2,"subjID":"linavaleriameloguevara2","gender":"1","age":"10","school":"6"},{"start_time":1551801300856,"click_time":1551801302115,"finger_time":1551801301556,"fix_duration":959.6899180144841,"trial":36,"RT":700,"MT":559,"sideResp":1,"stimulus":"img/750/equaldotsize/L/13_Ratio_750_L_8_R_6.png","xmouse":[797,797,797,797,797,797,797,797,797,797,797,797,797,797,797,797,797,797,797,797,795,791,788,787,786,784,782,781,778,776,773,769,765,759,749,725,717,708,704,699,685,683,674,667,657,632,620,603,587,570,533,516,500,488,483,481,478,478,477,477,477,476,476],"ymouse":[516,516,516,516,516,516,516,516,516,515,515,515,515,515,515,515,515,515,515,515,512,508,505,504,502,500,497,496,494,493,491,485,479,473,464,437,423,411,402,392,366,361,348,339,326,302,290,273,259,246,219,207,191,174,166,163,149,141,134,126,119,107,98],"timestamp_mouse":[18,38,59,79,99,118,139,158,180,199,219,240,258,279,299,319,339,359,378,400,420,439,459,479,500,518,538,560,579,600,618,640,659,678,700,720,738,758,780,800,820,839,859,878,900,920,938,959,978,998,1019,1038,1058,1079,1100,1120,1139,1159,1178,1200,1218,1238,1259],"xSR":741.5,"ySR":469.95,"xT1":424.9,"yT1":0,"xT2":1058.1,"yT2":0,"toosoon":0,"cond_shown":"equaldotsize","ratio_trial":750,"smaller_num":"6","larger_num":"8","correct_side":1,"subjID":"linavaleriameloguevara2","gender":"1","age":"10","school":"6"},{"start_time":1551801303382,"click_time":1551801304555,"finger_time":1551801304076,"fix_duration":364.1697290364227,"trial":37,"RT":694,"MT":479,"sideResp":2,"stimulus":"img/250/randomdotsizeEA/R/4_Ratio_250_L_3_R_12.png","xmouse":[759,759,759,759,759,759,759,759,759,759,759,759,759,759,759,759,759,759,759,759,759,759,759,759,759,759,759,760,760,761,768,775,785,789,810,823,828,846,857,884,898,925,933,940,944,947,949,951,957,968,980,1001,1023,1042,1083,1098,1112,1121,1132],"ymouse":[521,521,521,521,521,521,521,521,521,521,521,521,521,521,521,521,521,521,521,521,521,521,521,521,521,521,521,519,518,517,510,501,490,481,447,430,421,391,370,328,307,277,266,260,256,255,254,252,250,240,233,219,204,188,153,137,122,103,84],"timestamp_mouse":[14,37,54,73,92,114,132,153,173,192,212,234,252,273,293,312,332,353,374,392,412,434,453,473,494,512,533,554,573,592,613,634,652,672,694,712,732,752,773,794,812,832,853,872,894,912,933,954,973,994,1012,1034,1053,1072,1094,1112,1132,1152,1172],"xSR":741.5,"ySR":469.95,"xT1":424.9,"yT1":0,"xT2":1058.1,"yT2":0,"toosoon":0,"cond_shown":"randomdotsizeEA","ratio_trial":250,"smaller_num":"3","larger_num":"12","correct_side":2,"subjID":"linavaleriameloguevara2","gender":"1","age":"10","school":"6"},{"start_time":1551801306650,"click_time":1551801308495,"finger_time":1551801307296,"fix_duration":1152.9372361277824,"trial":38,"RT":646,"MT":1199,"sideResp":2,"stimulus":"img/900/equaldotanddens/R/14_Ratio_900_L_18_R_20.png","xmouse":[753,753,753,753,753,753,753,753,753,753,753,753,753,753,753,753,753,753,753,753,753,753,753,753,753,753,753,753,753,753,753,752,739,734,725,715,705,683,669,663,656,647,623,599,574,545,513,448,415,400,398,393,387,386,386,386,386,386,388,392,398,410,458,487,533,585,672,746,826,869,899,923,957,970,983,993,1016,1028,1032,1036,1040,1045,1054,1057,1057,1057,1057,1058,1059,1059,1061,1061,1063],"ymouse":[535,535,535,535,535,535,535,535,535,535,535,535,535,535,535,535,535,535,535,535,535,535,535,535,535,535,535,535,535,535,534,534,522,515,502,490,477,449,422,408,397,384,362,349,335,322,304,267,240,223,219,207,190,185,181,181,179,179,179,179,180,185,201,213,233,256,284,303,313,315,315,310,295,284,274,263,234,208,197,183,167,151,130,123,123,123,123,117,114,109,105,100,92],"timestamp_mouse":[8,26,50,66,84,106,124,144,166,185,204,226,244,265,285,304,326,346,364,385,406,425,444,465,485,504,525,546,565,585,604,624,646,665,684,705,724,744,765,786,805,825,844,864,885,905,925,944,965,984,1005,1024,1044,1065,1084,1105,1124,1145,1165,1184,1206,1225,1245,1265,1285,1305,1326,1344,1364,1385,1405,1425,1444,1465,1484,1504,1526,1545,1564,1585,1605,1625,1644,1664,1686,1705,1725,1745,1765,1786,1805,1826,1845],"xSR":741.5,"ySR":469.95,"xT1":424.9,"yT1":0,"xT2":1058.1,"yT2":0,"toosoon":0,"cond_shown":"equaldotanddens","ratio_trial":900,"smaller_num":"18","larger_num":"20","correct_side":2,"subjID":"linavaleriameloguevara2","gender":"1","age":"10","school":"6"},{"start_time":1551801309946,"click_time":1551801311276,"finger_time":1551801310835,"fix_duration":649.4861088421504,"trial":39,"RT":889,"MT":441,"sideResp":1,"stimulus":"img/500/randomdotsizeEA/L/13_Ratio_500_L_12_R_6.png","xmouse":[783,783,783,783,783,783,783,783,783,783,783,783,783,783,783,783,783,783,783,783,783,783,783,783,783,783,783,783,783,783,783,783,783,783,783,783,783,783,783,783,782,781,771,763,753,740,722,689,672,653,641,629,605,594,581,575,566,557,552,551,547,546,543,540,538,533,524],"ymouse":[509,509,509,509,509,509,509,509,509,509,509,509,509,509,509,509,509,509,509,509,509,509,509,509,509,509,509,509,509,509,509,509,509,509,509,509,509,509,509,509,508,506,486,474,458,441,419,374,351,323,298,271,214,195,178,169,158,143,139,134,130,127,120,115,112,107,97],"timestamp_mouse":[8,35,48,68,88,109,128,149,169,189,210,228,250,268,289,310,328,349,369,389,408,430,449,468,489,509,528,550,570,588,609,628,648,669,688,709,728,749,770,788,808,829,850,868,889,910,928,948,970,989,1010,1028,1049,1069,1088,1110,1129,1148,1168,1189,1210,1228,1248,1268,1288,1308,1329],"xSR":741.5,"ySR":469.95,"xT1":424.9,"yT1":0,"xT2":1058.1,"yT2":0,"toosoon":0,"cond_shown":"randomdotsizeEA","ratio_trial":500,"smaller_num":"6","larger_num":"12","correct_side":1,"subjID":"linavaleriameloguevara2","gender":"1","age":"10","school":"6"},{"start_time":1551801313952,"click_time":1551801315236,"finger_time":1551801314835,"fix_duration":1374.1933558663322,"trial":40,"RT":883,"MT":401,"sideResp":2,"stimulus":"img/900/randomdotsizeEA/R/13_Ratio_900_L_18_R_20.png","xmouse":[785,785,785,785,785,785,785,785,785,785,785,785,785,785,785,785,785,785,785,784,784,784,784,784,784,784,784,784,784,784,784,784,784,784,784,784,784,784,784,784,784,784,787,794,802,810,821,827,837,844,853,869,901,931,946,956,971,992,999,1010,1021,1056,1086,1106,1128],"ymouse":[521,521,521,521,521,521,521,521,521,521,521,521,521,521,521,521,521,521,520,520,519,518,518,518,518,518,518,518,518,518,518,518,518,518,518,518,518,518,518,518,517,515,499,483,465,444,419,408,389,376,359,339,299,275,259,250,239,220,214,207,197,168,142,120,97],"timestamp_mouse":[8,23,43,62,82,103,124,142,164,182,204,224,242,265,283,302,322,343,363,384,402,423,443,462,484,502,524,542,562,583,603,623,643,663,683,702,723,743,763,782,803,823,844,862,883,903,924,943,964,982,1002,1022,1042,1063,1083,1102,1122,1143,1162,1182,1202,1224,1242,1263,1284],"xSR":741.5,"ySR":469.95,"xT1":424.9,"yT1":0,"xT2":1058.1,"yT2":0,"toosoon":0,"cond_shown":"randomdotsizeEA","ratio_trial":900,"smaller_num":"18","larger_num":"20","correct_side":2,"subjID":"linavaleriameloguevara2","gender":"1","age":"10","school":"6"},{"start_time":1551801317958,"click_time":1551801319376,"finger_time":1551801318776,"fix_duration":1202.4423992793538,"trial":41,"RT":818,"MT":600,"sideResp":2,"stimulus":"img/250/randomdotsizeEA/R/13_Ratio_250_L_2_R_8.png","xmouse":[798,798,798,798,798,798,798,798,798,798,798,798,798,798,798,798,798,798,798,798,798,798,798,798,798,798,798,798,798,798,798,798,798,798,798,798,800,804,814,824,853,872,882,898,915,950,967,976,997,1014,1031,1057,1060,1062,1062,1062,1062,1062,1062,1062,1062,1064,1064,1064,1064,1065,1067,1070,1071,1075,1081],"ymouse":[497,497,497,497,497,497,497,497,497,497,497,497,497,497,497,497,497,497,497,497,497,497,497,497,497,497,497,497,497,497,497,497,497,497,497,497,494,490,479,470,442,423,413,390,368,319,293,280,250,221,195,148,139,134,133,133,132,130,129,126,123,116,114,113,112,111,109,107,105,100,89],"timestamp_mouse":[16,36,57,77,96,118,137,156,178,198,216,237,257,278,296,318,336,358,376,397,417,436,457,476,497,516,537,557,578,597,617,638,656,677,696,716,737,758,776,796,818,836,857,877,896,918,936,957,976,996,1017,1037,1056,1077,1098,1116,1136,1157,1178,1196,1216,1238,1258,1277,1297,1317,1336,1358,1377,1397,1417],"xSR":741.5,"ySR":469.95,"xT1":424.9,"yT1":0,"xT2":1058.1,"yT2":0,"toosoon":0,"cond_shown":"randomdotsizeEA","ratio_trial":250,"smaller_num":"2","larger_num":"8","correct_side":2,"subjID":"linavaleriameloguevara2","gender":"1","age":"10","school":"6"},{"start_time":1551801321102,"click_time":1551801322015,"finger_time":1551801321676,"fix_duration":705.4880930875589,"trial":42,"RT":574,"MT":339,"sideResp":1,"stimulus":"img/900/equaldotanddens/L/10_Ratio_900_L_20_R_18.png","xmouse":[778,778,778,778,778,778,778,778,778,778,778,778,778,778,778,778,778,778,778,778,777,776,775,774,772,767,760,751,715,697,677,653,633,597,578,570,563,561,555,540,534,522,507,487,471,447],"ymouse":[507,507,507,507,507,507,507,507,507,507,507,507,507,507,507,507,507,507,507,507,506,504,502,500,497,493,487,480,456,438,418,398,380,340,315,304,295,288,273,238,227,202,179,140,107,64],"timestamp_mouse":[13,37,53,72,93,114,132,153,172,193,213,233,254,272,293,313,333,352,372,393,413,434,454,473,493,514,532,553,574,592,612,634,653,674,692,713,732,753,773,792,813,834,854,872,892,913],"xSR":741.5,"ySR":469.95,"xT1":424.9,"yT1":0,"xT2":1058.1,"yT2":0,"toosoon":0,"cond_shown":"equaldotanddens","ratio_trial":900,"smaller_num":"18","larger_num":"20","correct_side":1,"subjID":"linavaleriameloguevara2","gender":"1","age":"10","school":"6"},{"start_time":1551801323802,"click_time":1551801325215,"finger_time":1551801324693,"fix_duration":405.86935361807406,"trial":43,"RT":891,"MT":522,"sideResp":2,"stimulus":"img/750/equaldotanddens/R/2_Ratio_750_L_6_R_8.png","xmouse":[781,781,781,781,781,781,781,781,781,781,781,781,781,781,781,781,781,781,781,781,781,781,781,781,781,781,781,781,781,781,781,781,781,781,781,781,781,781,781,781,781,782,786,797,832,854,877,901,925,980,1004,1024,1033,1052,1076,1091,1102,1107,1108,1107,1105,1104,1104,1104,1104,1104,1104,1104,1102,1102,1102],"ymouse":[498,498,498,498,498,498,498,498,498,498,498,498,498,498,498,498,498,498,498,498,498,498,498,498,498,498,498,498,498,498,498,498,498,498,498,498,498,498,498,498,498,497,491,478,444,424,405,385,368,317,295,279,269,245,212,189,175,168,163,161,159,157,154,150,135,125,119,112,107,100,94],"timestamp_mouse":[12,32,51,73,92,113,137,153,171,191,211,233,252,273,292,313,332,353,371,392,413,432,453,472,491,511,533,552,571,593,612,632,653,671,693,713,733,751,773,791,812,831,853,872,891,912,931,953,972,992,1013,1031,1052,1072,1092,1112,1132,1152,1171,1191,1211,1233,1253,1272,1291,1312,1332,1353,1372,1391,1413],"xSR":741.5,"ySR":469.95,"xT1":424.9,"yT1":0,"xT2":1058.1,"yT2":0,"toosoon":0,"cond_shown":"equaldotanddens","ratio_trial":750,"smaller_num":"6","larger_num":"8","correct_side":2,"subjID":"linavaleriameloguevara2","gender":"1","age":"10","school":"6"},{"start_time":1551801326247,"click_time":1551801327354,"finger_time":1551801327115,"fix_duration":250,"trial":44,"RT":868,"MT":239,"sideResp":1,"stimulus":"img/500/randomdotsizeEA/L/10_Ratio_500_L_4_R_2.png","xmouse":[779,779,779,779,779,779,779,779,779,779,779,779,779,779,779,779,779,779,779,779,779,779,779,779,779,779,779,779,779,779,779,779,779,779,779,779,779,778,776,775,772,767,750,734,718,703,684,649,623,601,585,547,527,502,479,461],"ymouse":[549,549,549,549,549,549,549,549,549,549,549,549,549,549,549,549,549,549,549,549,549,549,549,549,549,549,549,549,549,548,548,548,548,548,547,547,546,542,537,531,524,516,484,466,447,429,409,370,329,301,268,210,175,141,111,85],"timestamp_mouse":[11,37,47,67,87,107,128,148,167,186,206,228,246,268,286,307,326,348,367,388,407,426,447,468,486,508,526,548,566,588,608,626,648,668,687,706,728,746,767,788,806,827,848,868,887,907,927,946,966,988,1008,1028,1047,1066,1086,1107],"xSR":741.5,"ySR":469.95,"xT1":424.9,"yT1":0,"xT2":1058.1,"yT2":0,"toosoon":0,"cond_shown":"randomdotsizeEA","ratio_trial":500,"smaller_num":"2","larger_num":"4","correct_side":1,"subjID":"linavaleriameloguevara2","gender":"1","age":"10","school":"6"},{"start_time":1551801329090,"click_time":1551801330315,"finger_time":1551801329793,"fix_duration":615.8690283899358,"trial":45,"RT":703,"MT":522,"sideResp":2,"stimulus":"img/900/equaldotsize/R/11_Ratio_900_L_18_R_20.png","xmouse":[759,759,759,759,759,759,759,759,759,759,759,759,759,759,759,759,759,759,759,759,759,758,758,758,758,758,758,758,758,758,758,758,758,760,769,785,802,824,852,876,904,920,933,944,954,983,994,1004,1011,1016,1019,1019,1020,1023,1029,1035,1045,1052,1060,1070,1075,1076],"ymouse":[493,493,493,493,493,493,493,493,493,493,493,493,493,493,493,493,493,493,493,493,493,492,492,492,492,492,492,492,492,492,492,492,491,487,478,460,445,421,398,372,338,320,305,286,273,231,218,205,197,193,190,190,188,185,175,169,151,140,129,110,103,97],"timestamp_mouse":[8,33,45,63,85,105,124,144,165,183,204,223,245,265,284,304,324,345,363,385,405,423,445,463,485,504,523,544,563,585,603,625,644,664,685,703,724,745,765,783,804,824,843,864,884,904,923,944,963,984,1004,1023,1044,1064,1085,1104,1123,1145,1165,1185,1203,1225],"xSR":741.5,"ySR":469.95,"xT1":424.9,"yT1":0,"xT2":1058.1,"yT2":0,"toosoon":0,"cond_shown":"equaldotsize","ratio_trial":900,"smaller_num":"18","larger_num":"20","correct_side":2,"subjID":"linavaleriameloguevara2","gender":"1","age":"10","school":"6"},{"start_time":1551801331962,"click_time":1551801333254,"finger_time":1551801332595,"fix_duration":545.6062220928741,"trial":46,"RT":633,"MT":659,"sideResp":1,"stimulus":"img/500/randomdotsizeEA/L/10_Ratio_500_L_4_R_2.png","xmouse":[802,801,801,801,801,801,801,801,801,801,801,800,800,798,798,797,797,797,797,797,797,797,797,797,797,797,797,795,792,788,785,764,752,736,721,707,676,657,636,615,602,579,571,565,564,559,557,553,551,546,543,529,523,520,518,513,512,509,507,505,504,503,503,502,501],"ymouse":[498,498,498,498,499,499,499,499,499,499,499,499,499,499,499,499,499,499,499,499,499,499,499,499,499,499,499,495,488,484,480,455,441,425,408,392,345,319,292,264,246,218,207,203,200,191,184,175,167,157,147,128,117,112,108,105,103,102,101,101,100,100,100,100,98],"timestamp_mouse":[12,32,51,73,92,113,131,153,173,191,211,232,252,271,292,313,331,353,373,392,413,432,451,473,493,512,531,552,572,593,612,633,651,673,693,712,732,753,773,792,811,831,852,873,891,913,932,953,973,992,1011,1032,1052,1071,1092,1113,1132,1152,1171,1193,1213,1231,1252,1273,1292],"xSR":741.5,"ySR":469.95,"xT1":424.9,"yT1":0,"xT2":1058.1,"yT2":0,"toosoon":0,"cond_shown":"randomdotsizeEA","ratio_trial":500,"smaller_num":"2","larger_num":"4","correct_side":1,"subjID":"linavaleriameloguevara2","gender":"1","age":"10","school":"6"},{"start_time":1551801335307,"click_time":1551801336194,"finger_time":1551801336014,"fix_duration":250,"trial":47,"RT":707,"MT":180,"sideResp":1,"stimulus":"img/500/randomdotsizeEA/L/13_Ratio_500_L_12_R_6.png","xmouse":[771,771,771,771,771,771,771,771,771,771,771,771,771,771,771,771,771,771,771,771,771,771,771,771,771,771,771,771,771,771,770,770,770,768,759,749,733,716,673,652,627,605,583,565,520],"ymouse":[559,559,559,559,559,559,559,559,559,559,559,559,559,559,559,559,559,559,559,559,559,557,556,552,549,548,546,544,541,530,524,517,510,501,473,459,438,414,362,334,300,266,227,190,90],"timestamp_mouse":[8,28,47,68,86,107,126,148,168,186,207,228,248,267,286,307,328,346,368,386,407,428,447,468,488,507,527,546,567,588,607,626,648,666,688,707,726,747,768,787,808,826,847,867,887],"xSR":741.5,"ySR":469.95,"xT1":424.9,"yT1":0,"xT2":1058.1,"yT2":0,"toosoon":0,"cond_shown":"randomdotsizeEA","ratio_trial":500,"smaller_num":"6","larger_num":"12","correct_side":1,"subjID":"linavaleriameloguevara2","gender":"1","age":"10","school":"6"},{"start_time":1551801338091,"click_time":1551801339013,"finger_time":1551801338634,"fix_duration":533.741011101339,"trial":48,"RT":543,"MT":379,"sideResp":1,"stimulus":"img/500/equaldotsize/L/7_Ratio_500_L_10_R_5.png","xmouse":[800,800,800,800,800,800,800,800,800,800,800,800,800,800,800,800,800,800,800,800,800,799,799,797,797,790,783,772,756,741,704,692,677,660,645,615,591,573,562,543,507,494,487,477,472,468,467],"ymouse":[496,496,496,496,496,496,496,496,496,496,496,496,496,496,496,496,496,496,496,494,492,491,488,487,484,478,472,464,452,439,407,396,381,362,338,292,253,227,210,186,148,136,130,121,114,103,99],"timestamp_mouse":[8,22,43,62,84,103,122,144,162,182,203,224,242,264,282,303,323,343,364,383,403,422,443,463,482,502,523,543,563,583,602,623,644,663,683,702,724,742,763,782,803,823,844,862,883,903,922],"xSR":741.5,"ySR":469.95,"xT1":424.9,"yT1":0,"xT2":1058.1,"yT2":0,"toosoon":0,"cond_shown":"equaldotsize","ratio_trial":500,"smaller_num":"5","larger_num":"10","correct_side":1,"subjID":"linavaleriameloguevara2","gender":"1","age":"10","school":"6"},{"start_time":1551801341009,"click_time":1551801342114,"finger_time":1551801341633,"fix_duration":913.9119088735782,"trial":49,"RT":624,"MT":481,"sideResp":2,"stimulus":"img/500/equaldotsize/R/9_Ratio_500_L_2_R_4.png","xmouse":[785,785,785,785,785,785,785,785,785,785,785,785,785,785,785,785,785,785,785,785,785,785,785,785,783,782,781,781,781,781,785,790,797,822,835,851,874,896,945,986,1014,1041,1067,1096,1103,1109,1112,1115,1115,1115,1115,1115,1115,1111,1098,1092],"ymouse":[510,510,510,510,510,510,510,510,510,510,510,509,509,509,509,509,509,509,509,509,509,509,509,508,506,505,505,503,501,488,476,461,443,398,379,358,334,312,272,245,228,211,195,167,153,140,133,130,128,126,126,124,121,116,102,95],"timestamp_mouse":[10,31,45,65,86,106,124,146,164,186,204,226,246,264,285,304,326,344,366,384,406,425,445,465,485,505,526,544,565,584,605,624,645,666,684,706,726,745,766,785,805,824,846,866,885,906,926,945,964,985,1006,1025,1046,1065,1084,1105],"xSR":741.5,"ySR":469.95,"xT1":424.9,"yT1":0,"xT2":1058.1,"yT2":0,"toosoon":0,"cond_shown":"equaldotsize","ratio_trial":500,"smaller_num":"2","larger_num":"4","correct_side":2,"subjID":"linavaleriameloguevara2","gender":"1","age":"10","school":"6"},{"start_time":1551801343666,"click_time":1551801344493,"finger_time":1551801344093,"fix_duration":570.0730618382216,"trial":50,"RT":427,"MT":400,"sideResp":1,"stimulus":"img/750/randomdotsizeEA/L/9_Ratio_750_L_4_R_3.png","xmouse":[797,797,796,795,793,791,789,789,788,788,787,786,785,784,783,783,781,780,778,773,766,755,751,745,740,734,721,710,700,688,671,639,624,611,598,581,546,527,521,508,479,466],"ymouse":[501,501,501,500,500,497,496,496,495,495,495,494,493,492,492,491,490,489,487,483,476,464,461,455,450,444,431,419,407,395,379,346,324,301,280,256,211,186,170,150,112,94],"timestamp_mouse":[9,37,49,68,87,109,129,149,168,188,208,229,248,267,287,308,328,349,369,388,408,427,448,469,489,507,527,549,568,588,607,628,648,669,689,707,727,748,769,787,809,827],"xSR":741.5,"ySR":469.95,"xT1":424.9,"yT1":0,"xT2":1058.1,"yT2":0,"toosoon":0,"cond_shown":"randomdotsizeEA","ratio_trial":750,"smaller_num":"3","larger_num":"4","correct_side":1,"subjID":"linavaleriameloguevara2","gender":"1","age":"10","school":"6"},{"start_time":1551801347083,"click_time":1551801348154,"finger_time":1551801347754,"fix_duration":1268.7449694374695,"trial":51,"RT":671,"MT":400,"sideResp":2,"stimulus":"img/750/randomdotsizeEA/L/6_Ratio_750_L_24_R_18.png","xmouse":[753,753,753,753,753,753,753,753,753,753,753,753,753,753,753,753,753,753,753,753,753,753,753,753,753,753,753,753,753,753,757,761,766,775,782,810,817,825,834,843,872,894,912,932,954,995,1013,1026,1042,1056,1079,1089,1096,1101],"ymouse":[505,505,505,505,505,505,505,505,505,505,505,505,505,505,505,505,505,505,505,505,505,505,505,505,505,505,505,505,505,504,493,485,474,459,445,403,394,387,380,372,344,326,306,286,264,217,195,176,156,143,119,110,102,98],"timestamp_mouse":[10,38,52,72,90,111,131,151,172,191,212,232,251,271,291,311,330,352,370,392,410,431,451,471,490,511,530,551,571,591,610,631,652,671,690,711,731,752,771,791,810,832,851,871,892,911,930,951,972,992,1011,1030,1050,1071],"xSR":741.5,"ySR":469.95,"xT1":424.9,"yT1":0,"xT2":1058.1,"yT2":0,"toosoon":0,"cond_shown":"randomdotsizeEA","ratio_trial":750,"smaller_num":"18","larger_num":"24","correct_side":1,"subjID":"linavaleriameloguevara2","gender":"1","age":"10","school":"6"},{"start_time":1551801351484,"click_time":1551801352454,"finger_time":1551801352114,"fix_duration":668.4363988572733,"trial":52,"RT":630,"MT":340,"sideResp":2,"stimulus":"img/750/equaldotsize/R/4_Ratio_750_L_15_R_20.png","xmouse":[772,772,772,772,772,772,772,772,772,772,772,772,772,772,772,772,772,772,772,772,772,772,772,772,772,772,772,772,772,777,783,791,804,820,854,867,897,919,946,969,1008,1021,1036,1043,1053,1063,1067,1071,1073],"ymouse":[482,482,482,482,482,482,482,482,482,482,482,482,482,482,482,482,482,482,482,482,482,482,482,482,482,482,482,482,482,479,473,466,447,429,378,355,311,285,253,223,176,164,153,147,139,125,118,106,99],"timestamp_mouse":[10,36,50,70,91,109,130,151,171,190,209,230,249,271,289,311,331,349,371,390,411,430,450,471,489,511,529,551,569,591,611,630,649,670,691,709,730,750,770,790,809,829,850,871,890,910,931,950,970],"xSR":741.5,"ySR":469.95,"xT1":424.9,"yT1":0,"xT2":1058.1,"yT2":0,"toosoon":0,"cond_shown":"equaldotsize","ratio_trial":750,"smaller_num":"15","larger_num":"20","correct_side":2,"subjID":"linavaleriameloguevara2","gender":"1","age":"10","school":"6"},{"start_time":1551801354232,"click_time":1551801355594,"finger_time":1551801355154,"fix_duration":695.1915440249326,"trial":53,"RT":922,"MT":440,"sideResp":1,"stimulus":"img/750/equaldotsize/L/8_Ratio_750_L_4_R_3.png","xmouse":[781,781,781,781,781,781,781,781,781,781,781,781,781,781,781,781,781,781,781,781,781,781,781,781,781,781,781,781,781,781,781,781,781,781,781,781,781,781,781,781,781,781,778,774,771,762,753,740,730,720,707,684,651,597,571,550,539,513,508,507,504,503,500,498,497,497,495,495,491],"ymouse":[507,507,507,507,507,507,507,507,507,507,507,507,507,507,507,507,507,507,507,507,507,507,507,507,507,507,507,507,507,507,507,507,507,507,507,507,507,507,507,507,507,507,502,495,488,475,466,440,422,407,388,360,325,278,263,251,243,228,222,219,215,209,197,190,178,165,151,132,98],"timestamp_mouse":[8,23,43,61,83,101,122,143,162,181,203,221,242,261,281,301,322,342,363,381,403,423,442,463,483,502,523,541,563,582,603,621,643,663,682,703,721,741,763,782,803,821,843,862,882,902,922,944,961,983,1003,1023,1041,1062,1083,1101,1122,1143,1162,1181,1202,1222,1243,1262,1282,1301,1322,1341,1362],"xSR":741.5,"ySR":469.95,"xT1":424.9,"yT1":0,"xT2":1058.1,"yT2":0,"toosoon":0,"cond_shown":"equaldotsize","ratio_trial":750,"smaller_num":"3","larger_num":"4","correct_side":1,"subjID":"linavaleriameloguevara2","gender":"1","age":"10","school":"6"},{"start_time":1551801358047,"click_time":1551801359314,"finger_time":1551801358655,"fix_duration":1191.6106603584194,"trial":54,"RT":608,"MT":659,"sideResp":2,"stimulus":"img/250/equaldotanddens/R/10_Ratio_250_L_4_R_16.png","xmouse":[785,785,785,785,785,785,785,785,785,785,785,785,785,785,785,785,785,785,785,785,785,785,785,785,785,785,786,791,797,805,815,821,844,863,879,899,920,967,982,993,1003,1011,1013,1016,1016,1017,1017,1017,1018,1021,1021,1025,1030,1031,1032,1033,1033,1036,1038,1041,1043,1052,1056,1060],"ymouse":[502,502,502,502,502,502,502,502,502,502,502,502,502,502,502,502,502,502,502,502,502,502,502,502,502,502,500,491,484,476,467,456,424,404,384,361,339,277,254,235,218,196,189,182,175,171,160,153,138,124,113,101,86,82,82,82,82,81,80,78,77,72,71,68],"timestamp_mouse":[9,28,47,66,86,108,126,148,167,188,207,227,246,267,288,308,328,346,368,386,407,428,447,468,488,506,528,547,567,586,608,626,647,667,686,708,727,747,767,786,808,828,847,866,888,908,928,946,967,988,1007,1027,1046,1067,1086,1108,1126,1147,1166,1188,1208,1228,1246,1267],"xSR":741.5,"ySR":469.95,"xT1":424.9,"yT1":0,"xT2":1058.1,"yT2":0,"toosoon":0,"cond_shown":"equaldotanddens","ratio_trial":250,"smaller_num":"4","larger_num":"16","correct_side":2,"subjID":"linavaleriameloguevara2","gender":"1","age":"10","school":"6"},{"start_time":1551801361460,"click_time":1551801362654,"finger_time":1551801362375,"fix_duration":1204.9422452976848,"trial":55,"RT":915,"MT":279,"sideResp":1,"stimulus":"img/900/equaldotanddens/L/1_Ratio_900_L_10_R_9.png","xmouse":[803,803,803,803,803,803,803,803,803,803,803,803,803,803,803,803,803,803,803,803,803,803,803,803,803,803,803,803,803,803,803,803,803,803,803,803,803,803,803,803,803,801,797,789,780,762,744,726,706,688,648,626,608,587,568,533,508,502,497,493],"ymouse":[502,502,502,502,502,502,502,502,502,502,502,502,502,502,502,502,502,502,502,502,502,502,502,502,502,502,502,502,502,502,502,502,502,502,502,502,502,502,502,502,502,501,494,487,478,456,439,422,403,383,343,321,299,272,244,183,148,125,107,93],"timestamp_mouse":[14,34,53,75,93,115,134,153,174,195,213,234,254,273,294,315,333,354,373,394,413,434,453,475,493,515,535,555,573,595,614,634,655,673,695,713,735,753,775,794,814,834,854,875,893,915,933,954,975,995,1015,1034,1054,1074,1094,1115,1133,1154,1175,1194],"xSR":741.5,"ySR":469.95,"xT1":424.9,"yT1":0,"xT2":1058.1,"yT2":0,"toosoon":0,"cond_shown":"equaldotanddens","ratio_trial":900,"smaller_num":"9","larger_num":"10","correct_side":1,"subjID":"linavaleriameloguevara2","gender":"1","age":"10","school":"6"},{"start_time":1551801364929,"click_time":1551801366654,"finger_time":1551801365875,"fix_duration":1334.4134501737553,"trial":56,"RT":946,"MT":779,"sideResp":1,"stimulus":"img/750/equaldotsize/L/10_Ratio_750_L_4_R_3.png","xmouse":[780,780,780,780,780,780,780,780,780,780,780,780,780,780,780,780,780,780,780,780,780,780,780,780,780,780,780,780,780,780,780,780,778,763,759,758,758,757,757,757,757,757,757,757,757,756,752,730,718,705,693,680,673,653,648,644,641,637,624,614,605,595,579,565,557,549,544,538,533,530,524,521,509,495,487,485,482,480,479,478,478,478,478,478,478,477,476],"ymouse":[523,523,523,523,523,523,523,523,523,523,523,523,523,523,523,523,523,523,523,523,523,523,523,523,523,523,523,523,523,523,523,522,520,511,509,509,509,508,508,508,508,508,508,508,508,507,504,492,486,481,475,466,461,449,445,440,437,430,409,396,384,371,344,313,291,268,246,225,197,185,170,161,145,128,119,113,109,106,103,103,103,103,103,102,101,100,98],"timestamp_mouse":[9,34,45,66,84,105,124,146,164,185,206,226,244,266,286,306,324,346,364,386,406,425,445,464,485,504,525,544,564,585,605,625,645,666,685,704,726,744,766,785,804,826,845,864,885,904,925,946,964,985,1006,1025,1045,1064,1085,1105,1125,1145,1166,1185,1204,1225,1246,1265,1284,1304,1325,1345,1365,1385,1406,1426,1446,1464,1485,1505,1524,1545,1565,1585,1606,1625,1646,1664,1685,1706,1725],"xSR":741.5,"ySR":469.95,"xT1":424.9,"yT1":0,"xT2":1058.1,"yT2":0,"toosoon":0,"cond_shown":"equaldotsize","ratio_trial":750,"smaller_num":"3","larger_num":"4","correct_side":1,"subjID":"linavaleriameloguevara2","gender":"1","age":"10","school":"6"},{"start_time":1551801368744,"click_time":1551801369855,"finger_time":1551801369353,"fix_duration":1089.362667838705,"trial":57,"RT":609,"MT":502,"sideResp":2,"stimulus":"img/250/equaldotanddens/R/10_Ratio_250_L_4_R_16.png","xmouse":[795,795,795,795,795,795,795,795,795,795,795,795,795,795,795,795,795,795,795,795,795,795,795,795,795,795,795,799,802,809,818,830,880,900,924,942,976,989,999,1012,1023,1035,1065,1074,1078,1080,1080,1080,1080,1080,1079,1079,1079,1079,1079,1079],"ymouse":[506,506,506,506,506,506,506,506,506,506,506,506,506,506,506,506,506,506,506,506,506,506,506,506,506,506,504,498,492,481,466,449,384,360,338,318,291,283,276,269,260,250,214,199,186,178,171,165,161,157,152,136,123,114,106,99],"timestamp_mouse":[10,29,49,70,90,111,129,150,170,189,211,229,250,269,291,310,331,349,371,389,411,429,451,469,491,509,531,550,569,590,609,630,650,670,691,711,731,749,770,789,809,830,850,870,889,910,930,950,969,990,1010,1031,1050,1069,1089,1110],"xSR":741.5,"ySR":469.95,"xT1":424.9,"yT1":0,"xT2":1058.1,"yT2":0,"toosoon":0,"cond_shown":"equaldotanddens","ratio_trial":250,"smaller_num":"4","larger_num":"16","correct_side":2,"subjID":"linavaleriameloguevara2","gender":"1","age":"10","school":"6"},{"start_time":1551801371423,"click_time":1551801372254,"finger_time":1551801371833,"fix_duration":588.0879597087968,"trial":58,"RT":410,"MT":421,"sideResp":1,"stimulus":"img/750/equaldotanddens/L/6_Ratio_750_L_24_R_18.png","xmouse":[789,789,789,789,789,789,788,788,787,786,786,786,786,786,786,786,785,783,770,744,724,705,681,647,634,620,609,598,574,565,561,555,552,542,538,532,530,524,514,507,501,494],"ymouse":[523,523,523,523,523,523,523,522,520,519,519,519,519,519,519,518,516,513,497,471,451,431,409,372,350,335,318,299,263,250,238,223,214,180,170,154,148,138,120,108,102,96],"timestamp_mouse":[13,30,51,71,92,111,131,152,170,192,210,232,251,271,292,311,332,350,370,392,410,431,451,471,492,511,531,551,571,590,612,631,650,670,691,712,731,750,770,790,810,831],"xSR":741.5,"ySR":469.95,"xT1":424.9,"yT1":0,"xT2":1058.1,"yT2":0,"toosoon":0,"cond_shown":"equaldotanddens","ratio_trial":750,"smaller_num":"18","larger_num":"24","correct_side":1,"subjID":"linavaleriameloguevara2","gender":"1","age":"10","school":"6"},{"start_time":1551801373450,"click_time":1551801374514,"finger_time":1551801374175,"fix_duration":275.17460886683165,"trial":59,"RT":725,"MT":339,"sideResp":2,"stimulus":"img/500/equaldotsize/R/15_Ratio_500_L_1_R_2.png","xmouse":[807,807,807,807,807,807,807,807,807,807,807,807,807,807,807,807,807,807,807,807,807,807,807,807,807,807,807,807,807,807,807,807,807,808,810,815,835,849,869,890,909,930,974,995,1017,1034,1047,1065,1073,1075,1077,1079,1080,1081],"ymouse":[508,508,508,508,508,508,508,508,508,508,508,508,508,508,508,508,508,508,508,508,508,508,508,508,508,508,508,508,508,508,508,508,504,501,495,483,449,426,385,358,326,298,231,207,181,159,142,118,110,107,105,101,100,98],"timestamp_mouse":[8,24,44,64,83,105,125,145,164,184,205,225,244,264,283,304,324,344,364,384,405,423,445,464,483,505,523,544,563,585,604,624,645,664,685,704,725,744,763,785,805,824,843,863,885,904,923,943,965,985,1004,1025,1044,1064],"xSR":741.5,"ySR":469.95,"xT1":424.9,"yT1":0,"xT2":1058.1,"yT2":0,"toosoon":0,"cond_shown":"equaldotsize","ratio_trial":500,"smaller_num":"1","larger_num":"2","correct_side":2,"subjID":"linavaleriameloguevara2","gender":"1","age":"10","school":"6"},{"start_time":1551801376788,"click_time":1551801378075,"finger_time":1551801377494,"fix_duration":1053.0363273188057,"trial":60,"RT":706,"MT":581,"sideResp":1,"stimulus":"img/750/randomdotsizeEA/L/6_Ratio_750_L_24_R_18.png","xmouse":[792,792,792,792,792,792,792,792,792,792,792,792,792,792,792,792,792,792,792,792,792,792,792,792,792,792,792,792,792,792,792,792,792,792,780,769,756,740,724,708,667,650,635,622,597,594,585,578,568,555,548,540,536,535,535,531,529,527,525,524,518,516,513,510,502],"ymouse":[511,511,511,511,511,511,511,511,511,511,511,511,511,511,511,511,511,511,511,511,511,511,511,511,511,511,511,511,511,511,511,511,510,507,485,468,453,435,417,399,347,325,300,276,234,228,218,207,195,175,168,160,149,145,144,140,137,134,131,128,120,116,112,108,95],"timestamp_mouse":[10,32,46,66,87,107,126,146,166,185,206,226,245,267,285,306,325,347,365,386,407,427,445,466,487,505,527,546,565,587,607,625,645,667,687,706,727,747,766,786,806,826,847,865,887,906,925,946,966,987,1005,1025,1046,1065,1086,1107,1127,1146,1165,1185,1207,1226,1245,1265,1287],"xSR":741.5,"ySR":469.95,"xT1":424.9,"yT1":0,"xT2":1058.1,"yT2":0,"toosoon":0,"cond_shown":"randomdotsizeEA","ratio_trial":750,"smaller_num":"18","larger_num":"24","correct_side":1,"subjID":"linavaleriameloguevara2","gender":"1","age":"10","school":"6"},{"start_time":1551801380249,"click_time":1551801381533,"finger_time":1551801380993,"fix_duration":1253.7042410427905,"trial":61,"RT":744,"MT":540,"sideResp":2,"stimulus":"img/500/randomdotsizeEA/L/4_Ratio_500_L_18_R_9.png","xmouse":[779,779,779,779,779,779,779,779,779,779,779,779,779,779,779,779,779,779,779,779,779,779,779,779,779,779,779,779,779,779,779,779,779,781,785,791,801,836,865,883,903,914,936,945,953,962,979,988,1005,1016,1025,1036,1050,1054,1056,1058,1060,1064,1064,1067,1067,1068,1068,1069,1070],"ymouse":[520,520,520,520,520,520,520,520,520,520,520,520,520,520,520,520,520,520,520,520,520,520,520,520,520,520,520,520,520,520,520,520,520,516,510,501,488,448,422,406,388,376,353,342,333,318,292,279,254,237,220,203,179,172,167,161,158,149,144,139,133,121,113,104,97],"timestamp_mouse":[9,26,44,65,85,106,124,145,166,184,205,226,244,265,285,304,324,346,366,386,405,425,445,465,485,506,524,546,564,586,605,625,646,665,686,705,725,744,766,785,804,825,844,865,885,906,926,944,965,985,1004,1025,1044,1065,1086,1105,1124,1144,1164,1186,1205,1226,1244,1265,1284],"xSR":741.5,"ySR":469.95,"xT1":424.9,"yT1":0,"xT2":1058.1,"yT2":0,"toosoon":0,"cond_shown":"randomdotsizeEA","ratio_trial":500,"smaller_num":"9","larger_num":"18","correct_side":1,"subjID":"linavaleriameloguevara2","gender":"1","age":"10","school":"6"},{"start_time":1551801384659,"click_time":1551801385893,"finger_time":1551801385375,"fix_duration":603.6212036909699,"trial":62,"RT":716,"MT":518,"sideResp":2,"stimulus":"img/500/equaldotanddens/R/6_Ratio_500_L_9_R_18.png","xmouse":[748,748,748,748,748,748,748,748,748,748,748,748,748,748,748,748,748,748,748,748,748,748,748,748,748,748,748,748,748,748,750,758,766,784,802,833,850,872,885,898,909,943,962,982,1002,1029,1035,1036,1037,1037,1037,1038,1038,1041,1044,1048,1056,1058,1060,1061,1065,1067],"ymouse":[542,542,542,542,542,542,542,542,542,542,542,542,542,542,542,542,542,542,542,542,542,542,542,542,542,542,542,542,542,542,539,531,519,499,479,440,420,391,372,355,336,285,253,221,196,159,148,147,147,147,147,146,146,144,140,136,122,118,112,109,100,96],"timestamp_mouse":[15,34,56,75,95,116,135,156,175,195,214,235,254,275,294,316,336,354,375,396,416,435,456,475,495,514,536,554,576,594,614,636,656,675,695,716,734,755,776,795,814,834,856,875,896,916,934,955,975,996,1014,1035,1056,1075,1094,1114,1134,1155,1176,1195,1216,1234],"xSR":741.5,"ySR":469.95,"xT1":424.9,"yT1":0,"xT2":1058.1,"yT2":0,"toosoon":0,"cond_shown":"equaldotanddens","ratio_trial":500,"smaller_num":"9","larger_num":"18","correct_side":2,"subjID":"linavaleriameloguevara2","gender":"1","age":"10","school":"6"},{"start_time":1551801387466,"click_time":1551801388954,"finger_time":1551801388275,"fix_duration":250,"trial":63,"RT":809,"MT":679,"sideResp":2,"stimulus":"img/250/randomdotsizeEA/R/12_Ratio_250_L_5_R_20.png","xmouse":[792,791,791,791,791,791,791,791,791,791,791,791,791,791,791,791,791,791,791,791,791,791,791,791,791,791,791,791,791,791,791,791,791,791,791,791,791,792,799,805,828,841,845,860,876,914,932,962,979,996,1009,1033,1040,1045,1048,1051,1051,1051,1051,1051,1051,1051,1051,1051,1052,1052,1053,1055,1055,1056,1056,1057,1057,1058,1060],"ymouse":[493,493,493,493,493,493,493,493,493,493,493,493,493,493,493,493,493,493,493,493,493,493,493,493,493,493,493,493,493,493,493,493,493,493,493,493,493,492,488,483,466,456,453,441,424,384,364,330,305,281,256,218,205,196,188,172,162,157,151,147,144,144,141,138,133,125,116,109,103,101,99,97,97,97,97],"timestamp_mouse":[8,36,47,69,89,108,127,149,168,188,209,227,249,267,289,307,328,347,369,388,407,429,449,467,489,507,529,549,567,588,609,629,649,667,688,707,729,749,767,789,809,828,848,867,887,909,927,947,968,988,1007,1028,1047,1067,1088,1109,1127,1149,1169,1187,1208,1228,1249,1269,1289,1309,1327,1348,1368,1388,1408,1429,1449,1468,1488],"xSR":741.5,"ySR":469.95,"xT1":424.9,"yT1":0,"xT2":1058.1,"yT2":0,"toosoon":0,"cond_shown":"randomdotsizeEA","ratio_trial":250,"smaller_num":"5","larger_num":"20","correct_side":2,"subjID":"linavaleriameloguevara2","gender":"1","age":"10","school":"6"},{"start_time":1551801392136,"click_time":1551801393254,"finger_time":1551801392895,"fix_duration":820.9110277099797,"trial":64,"RT":759,"MT":359,"sideResp":2,"stimulus":"img/900/equaldotsize/R/7_Ratio_900_L_9_R_10.png","xmouse":[770,770,769,769,768,768,768,768,768,768,768,768,768,768,768,768,768,768,768,768,768,768,768,768,768,768,768,768,768,768,768,768,769,772,777,785,791,808,822,834,848,859,880,890,899,906,933,947,961,975,990,1017,1026,1044,1053,1062],"ymouse":[522,522,521,521,521,521,521,521,521,521,521,521,521,521,521,521,521,521,521,521,521,521,521,521,521,521,521,521,521,521,521,521,519,514,507,498,491,465,449,432,416,399,368,353,342,334,305,289,274,254,235,200,181,145,122,99],"timestamp_mouse":[17,39,57,78,98,118,137,158,177,199,218,239,257,279,298,319,338,359,377,399,418,439,459,477,499,517,539,558,578,598,619,638,659,679,699,719,738,759,778,797,818,838,859,878,898,919,939,958,978,997,1018,1039,1058,1077,1098,1118],"xSR":741.5,"ySR":469.95,"xT1":424.9,"yT1":0,"xT2":1058.1,"yT2":0,"toosoon":0,"cond_shown":"equaldotsize","ratio_trial":900,"smaller_num":"9","larger_num":"10","correct_side":2,"subjID":"linavaleriameloguevara2","gender":"1","age":"10","school":"6"},{"start_time":1551801394627,"click_time":1551801395794,"finger_time":1551801395394,"fix_duration":250,"trial":65,"RT":767,"MT":400,"sideResp":1,"stimulus":"img/900/randomdotsizeEA/L/8_Ratio_900_L_20_R_18.png","xmouse":[779,780,780,780,780,780,780,780,781,781,781,781,781,781,781,781,781,781,781,781,781,781,781,781,781,781,781,781,781,781,781,781,781,781,779,778,775,746,728,708,696,685,674,640,623,610,593,573,531,523,516,511,507,501,499,496,494,493,488],"ymouse":[526,525,524,523,523,523,523,523,522,522,522,522,522,522,522,522,522,522,522,522,522,522,522,522,522,522,522,522,522,522,522,522,522,522,519,517,510,481,463,443,428,411,392,343,319,294,272,251,203,194,183,174,166,147,139,129,119,113,99],"timestamp_mouse":[7,26,47,67,88,106,127,148,167,188,206,228,248,267,286,306,327,347,367,387,408,426,448,467,488,507,528,546,568,586,608,626,648,666,688,708,726,748,767,787,808,827,846,867,887,908,928,946,966,988,1008,1027,1047,1067,1087,1106,1127,1147,1167],"xSR":741.5,"ySR":469.95,"xT1":424.9,"yT1":0,"xT2":1058.1,"yT2":0,"toosoon":0,"cond_shown":"randomdotsizeEA","ratio_trial":900,"smaller_num":"18","larger_num":"20","correct_side":1,"subjID":"linavaleriameloguevara2","gender":"1","age":"10","school":"6"},{"start_time":1551801397639,"click_time":1551801398794,"finger_time":1551801398453,"fix_duration":563.4428439728341,"trial":66,"RT":814,"MT":341,"sideResp":1,"stimulus":"img/900/equaldotanddens/L/8_Ratio_900_L_20_R_18.png","xmouse":[790,790,790,790,790,790,790,790,790,790,790,790,790,790,790,790,791,792,792,792,792,792,792,792,792,792,792,792,792,792,792,792,792,792,792,790,787,774,767,752,733,708,658,644,624,603,572,550,540,532,527,524,514,505,499,498,496,496],"ymouse":[505,505,505,505,505,505,505,505,505,505,505,505,505,505,505,505,505,505,505,505,505,505,505,505,505,505,505,505,505,505,505,505,505,505,504,501,498,488,482,473,458,443,398,384,356,328,281,250,239,226,212,202,165,144,126,122,109,90],"timestamp_mouse":[14,44,54,76,96,115,134,156,176,194,215,234,256,275,294,315,336,354,374,394,416,434,454,476,495,515,535,554,576,595,614,636,654,675,695,716,735,756,775,796,814,835,855,875,896,915,936,955,975,994,1015,1034,1055,1075,1096,1116,1136,1155],"xSR":741.5,"ySR":469.95,"xT1":424.9,"yT1":0,"xT2":1058.1,"yT2":0,"toosoon":0,"cond_shown":"equaldotanddens","ratio_trial":900,"smaller_num":"18","larger_num":"20","correct_side":1,"subjID":"linavaleriameloguevara2","gender":"1","age":"10","school":"6"},{"start_time":1551801400147,"click_time":1551801401354,"finger_time":1551801400775,"fix_duration":250,"trial":67,"RT":628,"MT":579,"sideResp":1,"stimulus":"img/250/randomdotsizeEA/L/7_Ratio_250_L_8_R_2.png","xmouse":[772,772,772,772,772,772,772,772,772,772,772,772,772,772,772,772,772,772,772,772,772,772,772,772,772,772,772,772,772,772,769,752,713,685,660,631,601,590,584,578,575,569,555,549,540,533,527,514,509,503,500,498,489,483,480,474,468,464,463,461,459],"ymouse":[495,495,495,495,495,495,495,495,495,495,495,495,495,495,495,495,495,495,495,495,495,495,495,495,495,495,495,495,495,495,488,465,420,383,348,322,288,278,274,269,265,260,248,244,240,235,232,220,212,205,199,195,175,166,156,148,130,118,110,103,94],"timestamp_mouse":[9,38,47,67,87,108,126,148,166,188,207,228,246,268,286,308,328,346,366,387,406,428,447,466,487,507,528,547,567,586,608,628,647,667,688,706,728,747,768,786,806,827,847,866,888,908,926,946,967,988,1007,1027,1047,1066,1088,1107,1128,1146,1168,1187,1207],"xSR":741.5,"ySR":469.95,"xT1":424.9,"yT1":0,"xT2":1058.1,"yT2":0,"toosoon":0,"cond_shown":"randomdotsizeEA","ratio_trial":250,"smaller_num":"2","larger_num":"8","correct_side":1,"subjID":"linavaleriameloguevara2","gender":"1