[{"start_time":1551800575012,"click_time":1551800577141,"finger_time":1551800576359,"fix_duration":485.55170180249206,"trial":0,"RT":1347,"MT":782,"sideResp":1,"stimulus":[],"xmouse":[802,802,802,802,802,802,802,802,802,802,802,802,802,802,802,802,802,802,802,802,802,802,802,802,802,802,802,802,802,802,802,802,802,802,802,802,802,802,802,802,802,802,802,802,802,802,802,802,802,802,802,802,802,802,802,802,802,802,802,802,802,802,801,800,799,795,782,766,756,727,706,691,675,667,666,664,663,661,660,659,656,654,651,648,645,635,623,598,582,575,568,567,566,566,566,566,566,566,566,566,566,566,566,565,557,544,498],"ymouse":[493,493,493,493,493,493,493,493,493,493,493,493,493,493,493,493,493,493,493,493,493,493,493,493,493,493,493,493,493,493,493,493,493,493,493,493,493,493,493,493,493,493,493,493,493,493,493,493,493,493,493,493,493,493,493,493,493,493,493,493,493,493,493,493,493,490,474,457,441,400,376,351,321,305,298,295,289,279,277,272,266,262,253,249,244,234,218,184,166,156,144,133,126,117,109,106,100,99,99,99,99,99,99,99,98,92,69],"timestamp_mouse":[7,35,47,69,87,109,128,147,167,189,209,227,249,268,288,309,329,349,367,388,409,427,448,467,488,507,527,549,567,587,607,629,647,667,689,707,727,749,768,787,807,829,848,867,889,907,927,949,967,987,1008,1029,1048,1067,1087,1108,1128,1147,1167,1189,1207,1227,1248,1269,1288,1308,1329,1347,1368,1388,1407,1428,1449,1467,1488,1508,1528,1547,1568,1588,1607,1628,1648,1669,1687,1707,1728,1748,1769,1788,1808,1828,1847,1869,1887,1908,1928,1947,1969,1988,2007,2027,2049,2068,2088,2107,2128],"xSR":741.5,"ySR":469.95,"xT1":424.9,"yT1":0,"xT2":1058.1,"yT2":0,"toosoon":0,"cond_shown":"Congruent","ratio_trial":100,"L_num":9,"L_den":15,"R_num":8,"R_den":16,"correct_side":1,"subjID":"linavaleriameloguevara ","gender":"1","age":"10","school":"6","test":{"fix_dur":[250,1500],"timestim":1000,"targets_dim":[100,100],"targets_relative_coord":[0.3,0.7],"size_stim":[880,420],"start_dim":[100,100],"size_start":[300,300],"size_fix":60,"samplingrate":20,"img_types":["Congruent","Incongruent"],"ratios":[100,200,300],"rep_conds":19,"nTrials":120,"trials_to_rest":500,"Trials_order":[24,23,22,26,93,116,32,39,75,83,6,49,118,115,59,19,64,37,68,114,2,13,0,77,72,119,106,29,108,71,8,99,73,38,3,92,36,54,89,15,10,53,1,86,12,50,80,110,74,84,47,44,16,43,61,55,60,25,40,18,105,5,82,81,4,70,51,9,28,104,117,34,88,111,46,11,31,113,62,67,112,63,85,78,98,57,76,45,97,41,94,103,14,65,48,66,101,91,96,33,35,20,90,27,56,100,69,95,7,52,102,107,30,87,42,58,79,21,17,109],"cond_shown":["Congruent","Incongruent","Congruent","Congruent","Incongruent","Congruent","Congruent","Incongruent","Incongruent","Incongruent","Congruent","Incongruent","Congruent","Incongruent","Incongruent","Incongruent","Congruent","Incongruent","Congruent","Congruent","Congruent","Incongruent","Congruent","Incongruent","Congruent","Incongruent","Congruent","Incongruent","Congruent","Incongruent","Congruent","Incongruent","Incongruent","Congruent","Incongruent","Congruent","Congruent","Congruent","Incongruent","Incongruent","Congruent","Incongruent","Incongruent","Congruent","Congruent","Congruent","Congruent","Congruent","Congruent","Congruent","Incongruent","Congruent","Congruent","Incongruent","Incongruent","Incongruent","Congruent","Incongruent","Congruent","Congruent","Incongruent","Incongruent","Congruent","Incongruent","Congruent","Congruent","Incongruent","Incongruent","Congruent","Congruent","Incongruent","Congruent","Congruent","Incongruent","Congruent","Incongruent","Incongruent","Incongruent","Congruent","Incongruent","Congruent","Incongruent","Incongruent","Congruent","Congruent","Incongruent","Congruent","Incongruent","Incongruent","Incongruent","Congruent","Incongruent","Congruent","Incongruent","Congruent","Congruent","Incongruent","Incongruent","Congruent","Incongruent","Incongruent","Congruent","Congruent","Incongruent","Congruent","Congruent","Incongruent","Incongruent","Incongruent","Congruent","Congruent","Incongruent","Congruent","Incongruent","Congruent","Congruent","Incongruent","Incongruent","Incongruent","Incongruent"],"ratio_trial":[100,300,300,200,200,200,200,200,200,300,100,100,300,100,300,100,300,100,200,100,200,100,100,300,100,300,300,300,100,300,200,200,100,200,200,200,100,100,300,200,300,300,100,200,100,200,200,200,200,100,300,200,300,100,100,100,100,100,300,100,200,300,300,200,300,300,200,200,300,200,200,300,300,200,300,300,100,300,200,100,300,200,100,100,200,200,300,200,100,300,300,100,200,300,100,100,300,100,100,200,300,200,100,200,200,300,200,300,100,300,100,300,100,200,100,300,100,200,300,100],"left_num":[9,13,20,13,11,15,1,1,7,4,6,17,4,3,7,3,20,3,6,1,16,12,8,3,15,8,20,13,15,13,3,9,10,3,14,5,7,9,1,1,20,4,12,9,8,11,21,3,6,11,4,13,8,3,9,9,7,8,11,2,7,3,4,1,4,3,3,4,8,3,4,1,20,7,1,8,10,13,6,2,3,7,3,4,13,1,4,6,6,13,1,10,6,4,7,2,7,4,4,6,13,6,8,3,8,1,14,4,6,1,7,13,6,7,15,1,3,4,2,2],"right_num":[8,12,14,14,3,4,21,2,12,2,5,10,13,7,8,4,14,4,7,3,12,2,2,4,13,14,9,12,13,12,9,8,9,14,12,14,15,8,3,2,8,2,2,4,2,3,2,14,3,4,2,14,10,8,6,6,9,1,4,6,8,4,1,2,13,4,1,14,1,14,1,8,14,4,7,14,8,12,11,6,2,4,4,6,14,3,2,3,3,12,19,8,11,8,15,6,8,8,6,3,12,11,2,1,3,19,6,8,7,6,9,12,5,4,13,11,7,14,6,8],"left_den":[15,26,25,26,20,25,2,3,10,20,20,30,20,9,10,6,25,6,12,2,20,30,16,6,25,10,25,26,25,26,12,15,25,10,30,10,14,15,2,3,25,20,30,20,16,22,30,6,15,22,20,26,15,5,18,18,14,20,22,5,10,6,10,3,20,6,10,6,16,6,30,30,25,15,20,10,25,26,20,4,6,15,6,8,26,2,5,20,12,26,3,25,20,5,14,5,10,8,8,20,26,20,16,10,15,3,30,5,10,5,14,26,20,15,25,5,9,6,4,4],"right_den":[16,15,28,20,4,10,30,15,24,4,25,15,26,30,20,10,28,10,10,5,20,4,5,20,26,28,18,15,26,15,20,10,18,28,18,20,25,16,15,15,16,4,4,16,5,10,4,20,15,10,4,20,12,16,10,10,15,2,20,12,16,20,10,15,26,5,2,30,5,20,3,24,28,6,20,28,16,15,22,15,10,6,10,10,20,10,4,6,5,15,30,16,22,16,25,12,20,20,10,6,15,22,5,2,9,30,9,16,14,12,15,15,25,6,26,22,30,30,30,20],"correct_side":[1,2,1,2,2,1,2,1,1,2,1,2,2,1,1,1,1,1,2,2,1,2,1,1,1,1,1,2,1,2,2,2,2,2,2,2,2,1,1,1,1,2,2,1,1,1,1,2,1,1,2,2,2,1,2,2,2,2,1,2,1,1,1,1,2,2,2,1,1,2,2,2,1,2,2,1,2,2,2,1,1,2,1,2,2,1,1,2,2,2,2,2,2,1,2,2,1,1,2,2,2,2,1,2,1,2,2,1,1,2,2,2,1,2,1,2,1,1,1,1],"img_shown":["img2/100/Congruent/L/C_Dist_100_LN_9_LD_15_RN_8_RD_16_0.png","img2/300/Incongruent/R/I_Dist_300_LN_13_LD_26_RN_12_RD_15_1.png","img2/300/Congruent/L/C_Dist_300_LN_20_LD_25_RN_14_RD_28_0.png","img2/200/Congruent/R/C_Dist_200_LN_13_LD_26_RN_14_RD_20_1.png","img2/200/Incongruent/R/I_Dist_200_LN_11_LD_20_RN_3_RD_4_1.png","img2/200/Congruent/L/C_Dist_200_LN_15_LD_25_RN_4_RD_10_0.png","img2/200/Congruent/R/C_Dist_200_LN_1_LD_2_RN_21_RD_30_1.png","img2/200/Incongruent/L/I_Dist_200_LN_1_LD_3_RN_2_RD_15_0.png","img2/200/Incongruent/L/I_Dist_200_LN_7_LD_10_RN_12_RD_24_0.png","img2/300/Incongruent/R/I_Dist_300_LN_4_LD_20_RN_2_RD_4_1.png","img2/100/Congruent/L/C_Dist_100_LN_6_LD_20_RN_5_RD_25_0.png","img2/100/Incongruent/R/I_Dist_100_LN_17_LD_30_RN_10_RD_15_1.png","img2/300/Congruent/R/C_Dist_300_LN_4_LD_20_RN_13_RD_26_1.png","img2/100/Incongruent/L/I_Dist_100_LN_3_LD_9_RN_7_RD_30_0.png","img2/300/Incongruent/L/I_Dist_300_LN_7_LD_10_RN_8_RD_20_0.png","img2/100/Incongruent/L/I_Dist_100_LN_3_LD_6_RN_4_RD_10_0.png","img2/300/Congruent/L/C_Dist_300_LN_20_LD_25_RN_14_RD_28_0.png","img2/100/Incongruent/L/I_Dist_100_LN_3_LD_6_RN_4_RD_10_0.png","img2/200/Congruent/R/C_Dist_200_LN_6_LD_12_RN_7_RD_10_1.png","img2/100/Congruent/R/C_Dist_100_LN_1_LD_2_RN_3_RD_5_1.png","img2/200/Congruent/L/C_Dist_200_LN_16_LD_20_RN_12_RD_20_0.png","img2/100/Incongruent/R/I_Dist_100_LN_12_LD_30_RN_2_RD_4_1.png","img2/100/Congruent/L/C_Dist_100_LN_8_LD_16_RN_2_RD_5_0.png","img2/300/Incongruent/L/I_Dist_300_LN_3_LD_6_RN_4_RD_20_0.png","img2/100/Congruent/L/C_Dist_100_LN_15_LD_25_RN_13_RD_26_0.png","img2/300/Incongruent/L/I_Dist_300_LN_8_LD_10_RN_14_RD_28_0.png","img2/300/Congruent/L/C_Dist_300_LN_20_LD_25_RN_9_RD_18_0.png","img2/300/Incongruent/R/I_Dist_300_LN_13_LD_26_RN_12_RD_15_1.png","img2/100/Congruent/L/C_Dist_100_LN_15_LD_25_RN_13_RD_26_0.png","img2/300/Incongruent/R/I_Dist_300_LN_13_LD_26_RN_12_RD_15_1.png","img2/200/Congruent/R/C_Dist_200_LN_3_LD_12_RN_9_RD_20_1.png","img2/200/Incongruent/R/I_Dist_200_LN_9_LD_15_RN_8_RD_10_1.png","img2/100/Incongruent/R/I_Dist_100_LN_10_LD_25_RN_9_RD_18_1.png","img2/200/Congruent/R/C_Dist_200_LN_3_LD_10_RN_14_RD_28_1.png","img2/200/Incongruent/R/I_Dist_200_LN_14_LD_30_RN_12_RD_18_1.png","img2/200/Congruent/R/C_Dist_200_LN_5_LD_10_RN_14_RD_20_1.png","img2/100/Congruent/R/C_Dist_100_LN_7_LD_14_RN_15_RD_25_1.png","img2/100/Congruent/L/C_Dist_100_LN_9_LD_15_RN_8_RD_16_0.png","img2/300/Incongruent/L/I_Dist_300_LN_1_LD_2_RN_3_RD_15_0.png","img2/200/Incongruent/L/I_Dist_200_LN_1_LD_3_RN_2_RD_15_0.png","img2/300/Congruent/L/C_Dist_300_LN_20_LD_25_RN_8_RD_16_0.png","img2/300/Incongruent/R/I_Dist_300_LN_4_LD_20_RN_2_RD_4_1.png","img2/100/Incongruent/R/I_Dist_100_LN_12_LD_30_RN_2_RD_4_1.png","img2/200/Congruent/L/C_Dist_200_LN_9_LD_20_RN_4_RD_16_0.png","img2/100/Congruent/L/C_Dist_100_LN_8_LD_16_RN_2_RD_5_0.png","img2/200/Congruent/L/C_Dist_200_LN_11_LD_22_RN_3_RD_10_0.png","img2/200/Congruent/L/C_Dist_200_LN_21_LD_30_RN_2_RD_4_0.png","img2/200/Congruent/R/C_Dist_200_LN_3_LD_6_RN_14_RD_20_1.png","img2/200/Congruent/L/C_Dist_200_LN_6_LD_15_RN_3_RD_15_0.png","img2/100/Congruent/L/C_Dist_100_LN_11_LD_22_RN_4_RD_10_0.png","img2/300/Incongruent/R/I_Dist_300_LN_4_LD_20_RN_2_RD_4_1.png","img2/200/Congruent/R/C_Dist_200_LN_13_LD_26_RN_14_RD_20_1.png","img2/300/Congruent/R/C_Dist_300_LN_8_LD_15_RN_10_RD_12_1.png","img2/100/Incongruent/L/I_Dist_100_LN_3_LD_5_RN_8_RD_16_0.png","img2/100/Incongruent/R/I_Dist_100_LN_9_LD_18_RN_6_RD_10_1.png","img2/100/Incongruent/R/I_Dist_100_LN_9_LD_18_RN_6_RD_10_1.png","img2/100/Congruent/R/C_Dist_100_LN_7_LD_14_RN_9_RD_15_1.png","img2/100/Incongruent/R/I_Dist_100_LN_8_LD_20_RN_1_RD_2_1.png","img2/300/Congruent/L/C_Dist_300_LN_11_LD_22_RN_4_RD_20_0.png","img2/100/Congruent/R/C_Dist_100_LN_2_LD_5_RN_6_RD_12_1.png","img2/200/Incongruent/L/I_Dist_200_LN_7_LD_10_RN_8_RD_16_0.png","img2/300/Incongruent/L/I_Dist_300_LN_3_LD_6_RN_4_RD_20_0.png","img2/300/Congruent/L/C_Dist_300_LN_4_LD_10_RN_1_RD_10_0.png","img2/200/Incongruent/L/I_Dist_200_LN_1_LD_3_RN_2_RD_15_0.png","img2/300/Congruent/R/C_Dist_300_LN_4_LD_20_RN_13_RD_26_1.png","img2/300/Congruent/R/C_Dist_300_LN_3_LD_6_RN_4_RD_5_1.png","img2/200/Incongruent/R/I_Dist_200_LN_3_LD_10_RN_1_RD_2_1.png","img2/200/Incongruent/L/I_Dist_200_LN_4_LD_6_RN_14_RD_30_0.png","img2/300/Congruent/L/C_Dist_300_LN_8_LD_16_RN_1_RD_5_0.png","img2/200/Congruent/R/C_Dist_200_LN_3_LD_6_RN_14_RD_20_1.png","img2/200/Incongruent/R/I_Dist_200_LN_4_LD_30_RN_1_RD_3_1.png","img2/300/Congruent/R/C_Dist_300_LN_1_LD_30_RN_8_RD_24_1.png","img2/300/Congruent/L/C_Dist_300_LN_20_LD_25_RN_14_RD_28_0.png","img2/200/Incongruent/R/I_Dist_200_LN_7_LD_15_RN_4_RD_6_1.png","img2/300/Congruent/R/C_Dist_300_LN_1_LD_20_RN_7_RD_20_1.png","img2/300/Incongruent/L/I_Dist_300_LN_8_LD_10_RN_14_RD_28_0.png","img2/100/Incongruent/R/I_Dist_100_LN_10_LD_25_RN_8_RD_16_1.png","img2/300/Incongruent/R/I_Dist_300_LN_13_LD_26_RN_12_RD_15_1.png","img2/200/Congruent/R/C_Dist_200_LN_6_LD_20_RN_11_RD_22_1.png","img2/100/Incongruent/L/I_Dist_100_LN_2_LD_4_RN_6_RD_15_0.png","img2/300/Congruent/L/C_Dist_300_LN_3_LD_6_RN_2_RD_10_0.png","img2/200/Incongruent/R/I_Dist_200_LN_7_LD_15_RN_4_RD_6_1.png","img2/100/Incongruent/L/I_Dist_100_LN_3_LD_6_RN_4_RD_10_0.png","img2/100/Congruent/R/C_Dist_100_LN_4_LD_8_RN_6_RD_10_1.png","img2/200/Congruent/R/C_Dist_200_LN_13_LD_26_RN_14_RD_20_1.png","img2/200/Incongruent/L/I_Dist_200_LN_1_LD_2_RN_3_RD_10_0.png","img2/300/Congruent/L/C_Dist_300_LN_4_LD_5_RN_2_RD_4_0.png","img2/200/Incongruent/R/I_Dist_200_LN_6_LD_20_RN_3_RD_6_1.png","img2/100/Incongruent/R/I_Dist_100_LN_6_LD_12_RN_3_RD_5_1.png","img2/300/Incongruent/R/I_Dist_300_LN_13_LD_26_RN_12_RD_15_1.png","img2/300/Congruent/R/C_Dist_300_LN_1_LD_3_RN_19_RD_30_1.png","img2/100/Incongruent/R/I_Dist_100_LN_10_LD_25_RN_8_RD_16_1.png","img2/200/Congruent/R/C_Dist_200_LN_6_LD_20_RN_11_RD_22_1.png","img2/300/Incongruent/L/I_Dist_300_LN_4_LD_5_RN_8_RD_16_0.png","img2/100/Congruent/R/C_Dist_100_LN_7_LD_14_RN_15_RD_25_1.png","img2/100/Congruent/R/C_Dist_100_LN_2_LD_5_RN_6_RD_12_1.png","img2/300/Incongruent/L/I_Dist_300_LN_7_LD_10_RN_8_RD_20_0.png","img2/100/Incongruent/L/I_Dist_100_LN_4_LD_8_RN_8_RD_20_0.png","img2/100/Congruent/R/C_Dist_100_LN_4_LD_8_RN_6_RD_10_1.png","img2/200/Incongruent/R/I_Dist_200_LN_6_LD_20_RN_3_RD_6_1.png","img2/300/Incongruent/R/I_Dist_300_LN_13_LD_26_RN_12_RD_15_1.png","img2/200/Congruent/R/C_Dist_200_LN_6_LD_20_RN_11_RD_22_1.png","img2/100/Congruent/L/C_Dist_100_LN_8_LD_16_RN_2_RD_5_0.png","img2/200/Incongruent/R/I_Dist_200_LN_3_LD_10_RN_1_RD_2_1.png","img2/200/Congruent/L/C_Dist_200_LN_8_LD_15_RN_3_RD_9_0.png","img2/300/Congruent/R/C_Dist_300_LN_1_LD_3_RN_19_RD_30_1.png","img2/200/Incongruent/R/I_Dist_200_LN_14_LD_30_RN_6_RD_9_1.png","img2/300/Incongruent/L/I_Dist_300_LN_4_LD_5_RN_8_RD_16_0.png","img2/100/Incongruent/L/I_Dist_100_LN_6_LD_10_RN_7_RD_14_0.png","img2/300/Congruent/R/C_Dist_300_LN_1_LD_5_RN_6_RD_12_1.png","img2/100/Congruent/R/C_Dist_100_LN_7_LD_14_RN_9_RD_15_1.png","img2/300/Incongruent/R/I_Dist_300_LN_13_LD_26_RN_12_RD_15_1.png","img2/100/Congruent/L/C_Dist_100_LN_6_LD_20_RN_5_RD_25_0.png","img2/200/Incongruent/R/I_Dist_200_LN_7_LD_15_RN_4_RD_6_1.png","img2/100/Congruent/L/C_Dist_100_LN_15_LD_25_RN_13_RD_26_0.png","img2/300/Congruent/R/C_Dist_300_LN_1_LD_5_RN_11_RD_22_1.png","img2/100/Incongruent/L/I_Dist_100_LN_3_LD_9_RN_7_RD_30_0.png","img2/200/Incongruent/L/I_Dist_200_LN_4_LD_6_RN_14_RD_30_0.png","img2/300/Incongruent/L/I_Dist_300_LN_2_LD_4_RN_6_RD_30_0.png","img2/100/Incongruent/L/I_Dist_100_LN_2_LD_4_RN_8_RD_20_0.png"],"dist100_C":[["C_Dist_100_LN_10_LD_25_RN_3_RD_10_0.png","C_Dist_100_LN_11_LD_22_RN_4_RD_10_0.png","C_Dist_100_LN_11_LD_22_RN_6_RD_15_0.png","C_Dist_100_LN_15_LD_25_RN_13_RD_26_0.png","C_Dist_100_LN_3_LD_6_RN_2_RD_5_0.png","C_Dist_100_LN_6_LD_20_RN_5_RD_25_0.png","C_Dist_100_LN_8_LD_16_RN_2_RD_5_0.png","C_Dist_100_LN_9_LD_15_RN_8_RD_16_0.png"],["C_Dist_100_LN_1_LD_2_RN_18_RD_30_1.png","C_Dist_100_LN_1_LD_2_RN_3_RD_5_1.png","C_Dist_100_LN_12_LD_30_RN_13_RD_26_1.png","C_Dist_100_LN_2_LD_5_RN_11_RD_22_1.png","C_Dist_100_LN_2_LD_5_RN_6_RD_12_1.png","C_Dist_100_LN_3_LD_20_RN_4_RD_16_1.png","C_Dist_100_LN_4_LD_10_RN_15_RD_30_1.png","C_Dist_100_LN_4_LD_8_RN_6_RD_10_1.png","C_Dist_100_LN_6_LD_12_RN_15_RD_25_1.png","C_Dist_100_LN_7_LD_14_RN_15_RD_25_1.png","C_Dist_100_LN_7_LD_14_RN_9_RD_15_1.png"]],"dist100_I":[["I_Dist_100_LN_1_LD_2_RN_8_RD_20_0.png","I_Dist_100_LN_2_LD_4_RN_6_RD_15_0.png","I_Dist_100_LN_2_LD_4_RN_8_RD_20_0.png","I_Dist_100_LN_3_LD_5_RN_11_RD_22_0.png","I_Dist_100_LN_3_LD_5_RN_8_RD_16_0.png","I_Dist_100_LN_3_LD_6_RN_4_RD_10_0.png","I_Dist_100_LN_3_LD_9_RN_7_RD_30_0.png","I_Dist_100_LN_4_LD_8_RN_8_RD_20_0.png","I_Dist_100_LN_6_LD_10_RN_11_RD_22_0.png","I_Dist_100_LN_6_LD_10_RN_13_RD_26_0.png","I_Dist_100_LN_6_LD_10_RN_7_RD_14_0.png","I_Dist_100_LN_9_LD_10_RN_20_RD_25_0.png","I_Dist_100_LN_9_LD_15_RN_13_RD_26_0.png","I_Dist_100_LN_9_LD_15_RN_14_RD_28_0.png"],["I_Dist_100_LN_10_LD_25_RN_8_RD_16_1.png","I_Dist_100_LN_10_LD_25_RN_9_RD_18_1.png","I_Dist_100_LN_11_LD_22_RN_9_RD_15_1.png","I_Dist_100_LN_12_LD_24_RN_9_RD_15_1.png","I_Dist_100_LN_12_LD_30_RN_2_RD_4_1.png","I_Dist_100_LN_13_LD_26_RN_12_RD_20_1.png","I_Dist_100_LN_13_LD_26_RN_6_RD_10_1.png","I_Dist_100_LN_17_LD_30_RN_10_RD_15_1.png","I_Dist_100_LN_6_LD_12_RN_3_RD_5_1.png","I_Dist_100_LN_8_LD_16_RN_6_RD_10_1.png","I_Dist_100_LN_8_LD_20_RN_1_RD_2_1.png","I_Dist_100_LN_9_LD_18_RN_6_RD_10_1.png"]],"dist100_S":[["E_Dist_100_LN_2_LD_12_RN_2_RD_30_0.png","E_Dist_100_LN_6_LD_10_RN_6_RD_12_0.png"],["E_Dist_100_LN_6_LD_12_RN_6_RD_10_1.png"]],"dist200_C":[["C_Dist_200_LN_11_LD_22_RN_3_RD_10_0.png","C_Dist_200_LN_12_LD_15_RN_6_RD_10_0.png","C_Dist_200_LN_12_LD_20_RN_6_RD_15_0.png","C_Dist_200_LN_14_LD_28_RN_6_RD_20_0.png","C_Dist_200_LN_15_LD_25_RN_4_RD_10_0.png","C_Dist_200_LN_16_LD_20_RN_12_RD_20_0.png","C_Dist_200_LN_16_LD_30_RN_9_RD_27_0.png","C_Dist_200_LN_20_LD_25_RN_9_RD_15_0.png","C_Dist_200_LN_21_LD_30_RN_2_RD_4_0.png","C_Dist_200_LN_4_LD_10_RN_3_RD_15_0.png","C_Dist_200_LN_4_LD_8_RN_3_RD_10_0.png","C_Dist_200_LN_6_LD_15_RN_3_RD_15_0.png","C_Dist_200_LN_7_LD_21_RN_2_RD_15_0.png","C_Dist_200_LN_8_LD_15_RN_2_RD_6_0.png","C_Dist_200_LN_8_LD_15_RN_3_RD_9_0.png","C_Dist_200_LN_8_LD_15_RN_7_RD_21_0.png","C_Dist_200_LN_9_LD_20_RN_4_RD_16_0.png"],["C_Dist_200_LN_1_LD_2_RN_21_RD_30_1.png","C_Dist_200_LN_13_LD_26_RN_14_RD_20_1.png","C_Dist_200_LN_3_LD_10_RN_11_RD_22_1.png","C_Dist_200_LN_3_LD_10_RN_14_RD_28_1.png","C_Dist_200_LN_3_LD_10_RN_7_RD_14_1.png","C_Dist_200_LN_3_LD_12_RN_9_RD_20_1.png","C_Dist_200_LN_3_LD_6_RN_14_RD_20_1.png","C_Dist_200_LN_5_LD_10_RN_14_RD_20_1.png","C_Dist_200_LN_6_LD_12_RN_7_RD_10_1.png","C_Dist_200_LN_6_LD_20_RN_11_RD_22_1.png","C_Dist_200_LN_7_LD_15_RN_18_RD_27_1.png","C_Dist_200_LN_9_LD_30_RN_13_RD_26_1.png"]],"dist200_I":[["I_Dist_200_LN_1_LD_2_RN_3_RD_10_0.png","I_Dist_200_LN_1_LD_3_RN_2_RD_15_0.png","I_Dist_200_LN_3_LD_4_RN_11_RD_20_0.png","I_Dist_200_LN_4_LD_5_RN_6_RD_10_0.png","I_Dist_200_LN_4_LD_6_RN_14_RD_30_0.png","I_Dist_200_LN_7_LD_10_RN_12_RD_24_0.png","I_Dist_200_LN_7_LD_10_RN_14_RD_28_0.png","I_Dist_200_LN_7_LD_10_RN_8_RD_16_0.png"],["I_Dist_200_LN_11_LD_20_RN_3_RD_4_1.png","I_Dist_200_LN_14_LD_30_RN_12_RD_18_1.png","I_Dist_200_LN_14_LD_30_RN_6_RD_9_1.png","I_Dist_200_LN_3_LD_10_RN_1_RD_2_1.png","I_Dist_200_LN_4_LD_30_RN_1_RD_3_1.png","I_Dist_200_LN_6_LD_20_RN_3_RD_6_1.png","I_Dist_200_LN_7_LD_15_RN_4_RD_6_1.png","I_Dist_200_LN_7_LD_15_RN_6_RD_9_1.png","I_Dist_200_LN_9_LD_15_RN_8_RD_10_1.png"]],"dist200_S":[["E_Dist_200_LN_3_LD_6_RN_3_RD_10_0.png"],["E_Dist_200_LN_3_LD_10_RN_3_RD_6_1.png"]],"dist300_C":[["C_Dist_300_LN_11_LD_22_RN_1_RD_5_0.png","C_Dist_300_LN_11_LD_22_RN_2_RD_10_0.png","C_Dist_300_LN_11_LD_22_RN_4_RD_20_0.png","C_Dist_300_LN_12_LD_24_RN_2_RD_10_0.png","C_Dist_300_LN_18_LD_20_RN_9_RD_15_0.png","C_Dist_300_LN_20_LD_25_RN_13_RD_26_0.png","C_Dist_300_LN_20_LD_25_RN_14_RD_28_0.png","C_Dist_300_LN_20_LD_25_RN_5_RD_10_0.png","C_Dist_300_LN_20_LD_25_RN_8_RD_16_0.png","C_Dist_300_LN_20_LD_25_RN_9_RD_18_0.png","C_Dist_300_LN_24_LD_30_RN_2_RD_4_0.png","C_Dist_300_LN_24_LD_30_RN_8_RD_16_0.png","C_Dist_300_LN_3_LD_6_RN_2_RD_10_0.png","C_Dist_300_LN_4_LD_10_RN_1_RD_10_0.png","C_Dist_300_LN_4_LD_5_RN_2_RD_4_0.png","C_Dist_300_LN_8_LD_16_RN_1_RD_5_0.png","C_Dist_300_LN_9_LD_10_RN_3_RD_5_0.png"],["C_Dist_300_LN_1_LD_20_RN_7_RD_20_1.png","C_Dist_300_LN_1_LD_3_RN_19_RD_30_1.png","C_Dist_300_LN_1_LD_30_RN_8_RD_24_1.png","C_Dist_300_LN_1_LD_5_RN_11_RD_22_1.png","C_Dist_300_LN_1_LD_5_RN_3_RD_6_1.png","C_Dist_300_LN_1_LD_5_RN_6_RD_12_1.png","C_Dist_300_LN_2_LD_10_RN_12_RD_24_1.png","C_Dist_300_LN_2_LD_20_RN_10_RD_25_1.png","C_Dist_300_LN_3_LD_12_RN_11_RD_20_1.png","C_Dist_300_LN_3_LD_6_RN_4_RD_5_1.png","C_Dist_300_LN_4_LD_20_RN_13_RD_26_1.png","C_Dist_300_LN_5_LD_25_RN_6_RD_12_1.png","C_Dist_300_LN_5_LD_25_RN_7_RD_14_1.png","C_Dist_300_LN_7_LD_14_RN_20_RD_25_1.png","C_Dist_300_LN_8_LD_15_RN_10_RD_12_1.png"]],"dist300_I":[["I_Dist_300_LN_1_LD_2_RN_2_RD_10_0.png","I_Dist_300_LN_1_LD_2_RN_3_RD_15_0.png","I_Dist_300_LN_2_LD_4_RN_6_RD_30_0.png","I_Dist_300_LN_3_LD_6_RN_4_RD_20_0.png","I_Dist_300_LN_4_LD_5_RN_6_RD_12_0.png","I_Dist_300_LN_4_LD_5_RN_8_RD_16_0.png","I_Dist_300_LN_7_LD_10_RN_8_RD_20_0.png","I_Dist_300_LN_8_LD_10_RN_14_RD_28_0.png","I_Dist_300_LN_8_LD_10_RN_9_RD_18_0.png"],["I_Dist_300_LN_13_LD_26_RN_12_RD_15_1.png","I_Dist_300_LN_4_LD_20_RN_2_RD_4_1.png"]],"dist300_S":[["E_Dist_300_LN_9_LD_12_RN_9_RD_20_0.png"],["E_Dist_300_LN_18_LD_30_RN_18_RD_20_1.png","E_Dist_300_LN_3_LD_10_RN_3_RD_5_1.png","E_Dist_300_LN_9_LD_20_RN_9_RD_12_1.png"]],"dist500_C":[["C_Dist_500_LN_10_LD_13_RN_7_RD_26_0.png","C_Dist_500_LN_10_LD_15_RN_4_RD_24_0.png","C_Dist_500_LN_12_LD_16_RN_3_RD_12_0.png","C_Dist_500_LN_12_LD_18_RN_4_RD_24_0.png","C_Dist_500_LN_15_LD_18_RN_5_RD_15_0.png","C_Dist_500_LN_15_LD_20_RN_1_RD_4_0.png","C_Dist_500_LN_18_LD_27_RN_1_RD_6_0.png","C_Dist_500_LN_20_LD_24_RN_1_RD_3_0.png","C_Dist_500_LN_20_LD_24_RN_3_RD_9_0.png","C_Dist_500_LN_20_LD_24_RN_7_RD_21_0.png","C_Dist_500_LN_20_LD_28_RN_3_RD_14_0.png","C_Dist_500_LN_21_LD_28_RN_6_RD_24_0.png","C_Dist_500_LN_22_LD_28_RN_2_RD_7_0.png","C_Dist_500_LN_25_LD_30_RN_9_RD_27_0.png","C_Dist_500_LN_4_LD_6_RN_1_RD_6_0.png","C_Dist_500_LN_5_LD_6_RN_2_RD_6_0.png","C_Dist_500_LN_6_LD_9_RN_1_RD_6_0.png","C_Dist_500_LN_7_LD_10_RN_1_RD_5_0.png","C_Dist_500_LN_8_LD_12_RN_1_RD_6_0.png","C_Dist_500_LN_8_LD_12_RN_4_RD_24_0.png"],["C_Dist_500_LN_1_LD_4_RN_12_RD_16_1.png","C_Dist_500_LN_1_LD_4_RN_9_RD_12_1.png","C_Dist_500_LN_1_LD_9_RN_11_RD_18_1.png","C_Dist_500_LN_10_LD_24_RN_22_RD_24_1.png","C_Dist_500_LN_2_LD_12_RN_10_RD_15_1.png","C_Dist_500_LN_2_LD_12_RN_12_RD_18_1.png","C_Dist_500_LN_2_LD_12_RN_4_RD_6_1.png","C_Dist_500_LN_2_LD_24_RN_7_RD_12_1.png","C_Dist_500_LN_2_LD_5_RN_18_RD_20_1.png","C_Dist_500_LN_2_LD_5_RN_9_RD_10_1.png","C_Dist_500_LN_2_LD_8_RN_12_RD_16_1.png","C_Dist_500_LN_2_LD_8_RN_21_RD_28_1.png","C_Dist_500_LN_3_LD_10_RN_4_RD_5_1.png","C_Dist_500_LN_3_LD_12_RN_15_RD_20_1.png","C_Dist_500_LN_3_LD_30_RN_6_RD_10_1.png","C_Dist_500_LN_3_LD_8_RN_14_RD_16_1.png","C_Dist_500_LN_4_LD_16_RN_15_RD_20_1.png","C_Dist_500_LN_4_LD_24_RN_12_RD_18_1.png","C_Dist_500_LN_5_LD_14_RN_6_RD_7_1.png","C_Dist_500_LN_7_LD_21_RN_20_RD_24_1.png","C_Dist_500_LN_7_LD_28_RN_12_RD_16_1.png","C_Dist_500_LN_7_LD_28_RN_9_RD_12_1.png","C_Dist_500_LN_9_LD_27_RN_20_RD_24_1.png"]],"dist500_I":[["I_Dist_500_LN_2_LD_3_RN_4_RD_24_0.png","I_Dist_500_LN_5_LD_6_RN_6_RD_18_0.png","I_Dist_500_LN_7_LD_8_RN_9_RD_24_0.png"],["I_Dist_500_LN_7_LD_21_RN_5_RD_6_1.png"]],"dist500_S":[["E_Dist_500_LN_6_LD_8_RN_6_RD_24_0.png"],["E_Dist_500_LN_2_LD_12_RN_2_RD_3_1.png","E_Dist_500_LN_6_LD_24_RN_6_RD_8_1.png"]]}},{"start_time":1551800582068,"click_time":1551800583301,"finger_time":1551800582959,"fix_duration":1366.6240351600309,"trial":1,"RT":891,"MT":342,"sideResp":2,"stimulus":[],"xmouse":[782,782,782,782,784,784,784,784,784,784,784,784,784,784,784,784,784,784,784,784,784,784,784,784,784,784,784,784,784,784,784,784,784,785,785,785,785,785,781,777,776,775,775,775,780,784,791,797,809,830,844,864,892,968,997,1028,1054,1067,1077,1078,1078,1078],"ymouse":[518,518,518,518,518,518,518,518,518,518,518,518,518,518,518,518,518,518,518,518,518,516,515,511,509,508,508,508,508,508,508,508,507,506,505,503,501,497,491,482,479,475,473,470,464,462,458,455,449,432,417,397,367,293,261,229,207,187,163,132,113,94],"timestamp_mouse":[11,32,52,72,91,112,133,152,171,192,212,231,253,273,292,313,331,351,373,392,411,431,451,473,492,511,532,551,572,593,611,632,652,672,691,712,732,751,771,792,812,832,852,873,891,911,932,952,971,991,1011,1031,1052,1072,1091,1112,1132,1151,1171,1192,1211,1233],"xSR":741.5,"ySR":469.95,"xT1":424.9,"yT1":0,"xT2":1058.1,"yT2":0,"toosoon":0,"cond_shown":"Incongruent","ratio_trial":300,"L_num":13,"L_den":26,"R_num":12,"R_den":15,"correct_side":2,"subjID":"linavaleriameloguevara ","gender":"1","school":"6","age":"10"},{"start_time":1551800585889,"click_time":1551800587520,"finger_time":1551800586720,"fix_duration":1248.9405961340142,"trial":2,"RT":831,"MT":800,"sideResp":1,"stimulus":[],"xmouse":[794,794,794,794,794,794,794,794,794,794,794,793,793,793,793,793,793,793,793,793,793,793,793,793,793,793,793,793,793,793,793,793,793,793,793,793,792,791,783,778,768,753,748,716,704,693,676,665,665,665,665,665,665,665,665,665,665,665,660,652,640,624,605,574,562,551,548,545,545,545,545,545,545,545,545,545,545,545,543,538,530,518],"ymouse":[514,514,514,514,514,514,514,514,514,514,514,514,514,514,514,514,514,514,514,514,514,514,514,514,514,514,514,514,514,514,514,514,514,514,514,514,513,513,503,496,479,459,448,386,365,342,304,267,262,254,247,241,235,233,232,232,231,229,220,213,199,183,165,132,117,99,89,77,61,54,47,44,43,43,43,43,43,43,43,43,43,42],"timestamp_mouse":[11,30,51,70,91,111,132,150,170,192,210,231,252,271,290,311,332,350,370,390,410,432,450,470,490,511,530,551,572,590,611,632,651,670,690,712,731,751,771,790,812,831,851,870,891,910,930,952,970,991,1011,1030,1051,1070,1090,1111,1131,1150,1171,1190,1211,1231,1250,1270,1291,1311,1332,1351,1372,1390,1411,1431,1451,1471,1490,1511,1531,1551,1571,1592,1612,1631],"xSR":741.5,"ySR":469.95,"xT1":424.9,"yT1":0,"xT2":1058.1,"yT2":0,"toosoon":0,"cond_shown":"Congruent","ratio_trial":300,"L_num":20,"L_den":25,"R_num":14,"R_den":28,"correct_side":1,"subjID":"linavaleriameloguevara ","gender":"1","school":"6","age":"10"},{"start_time":1551800589422,"click_time":1551800591239,"finger_time":1551800590740,"fix_duration":801.5680980206918,"trial":3,"RT":1318,"MT":499,"sideResp":2,"stimulus":[],"xmouse":[787,787,787,787,787,787,787,787,787,787,787,787,787,787,787,787,787,787,787,787,787,787,787,787,787,787,787,787,787,787,787,787,787,787,787,787,787,787,787,787,787,787,787,787,787,787,787,787,787,787,786,785,784,784,784,784,784,784,784,784,784,784,785,787,790,814,833,847,869,886,920,935,949,957,962,963,963,962,962,962,962,967,973,979,989,1019,1034,1050,1063,1075,1083],"ymouse":[508,508,508,508,508,508,508,508,508,508,508,508,508,508,508,508,508,508,508,508,508,508,508,508,508,508,508,508,508,508,508,508,508,508,508,508,508,508,508,508,508,508,508,508,508,507,507,506,503,502,497,495,494,493,493,493,493,493,493,493,493,493,491,490,486,466,453,441,422,408,361,334,305,280,262,248,233,226,225,223,221,214,209,203,198,183,171,157,138,118,91],"timestamp_mouse":[18,37,66,79,97,119,137,159,177,197,218,237,258,277,297,319,338,357,378,398,417,439,458,477,498,517,537,558,577,599,619,637,658,679,697,719,739,757,779,798,819,838,857,878,898,919,938,958,978,997,1018,1039,1058,1077,1097,1118,1137,1158,1177,1197,1219,1239,1258,1277,1298,1318,1337,1358,1377,1397,1419,1438,1457,1477,1498,1519,1538,1558,1577,1598,1618,1637,1658,1678,1697,1718,1737,1758,1777,1799,1817],"xSR":741.5,"ySR":469.95,"xT1":424.9,"yT1":0,"xT2":1058.1,"yT2":0,"toosoon":0,"cond_shown":"Congruent","ratio_trial":200,"L_num":13,"L_den":26,"R_num":14,"R_den":20,"correct_side":2,"subjID":"linavaleriameloguevara ","gender":"1","school":"6","age":"10"},{"start_time":1551800595318,"click_time":1551800596459,"finger_time":1551800595739,"fix_duration":1277.8440253142228,"trial":4,"RT":421,"MT":720,"sideResp":1,"stimulus":[],"xmouse":[776,776,776,776,776,776,776,776,776,776,776,776,776,776,776,776,776,770,764,760,754,750,745,743,740,740,740,737,735,729,726,715,691,673,658,638,628,616,613,604,590,560,544,535,530,530,530,530,530,530,530,530,530,530,530,530,506,506],"ymouse":[525,525,523,523,522,522,522,522,522,522,522,522,522,522,522,522,521,513,504,496,481,465,437,424,419,415,408,395,388,378,369,354,312,290,271,238,215,174,164,138,113,58,33,14,7,7,7,7,7,7,7,7,7,7,7,7,0,6],"timestamp_mouse":[9,23,54,62,82,103,122,141,162,181,203,223,241,262,283,302,321,342,362,381,402,421,442,461,481,501,521,541,562,583,602,623,642,661,681,702,721,741,761,782,801,823,841,862,881,902,921,941,961,981,1002,1023,1043,1063,1083,1102,1122,1141],"xSR":741.5,"ySR":469.95,"xT1":424.9,"yT1":0,"xT2":1058.1,"yT2":0,"toosoon":0,"cond_shown":"Incongruent","ratio_trial":200,"L_num":11,"L_den":20,"R_num":3,"R_den":4,"correct_side":2,"subjID":"linavaleriameloguevara ","gender":"1","school":"6","age":"10"},{"start_time":1551800600154,"click_time":1551800601940,"finger_time":1551800601260,"fix_duration":992.0349867780947,"trial":5,"RT":1106,"MT":680,"sideResp":2,"stimulus":[],"xmouse":[776,776,776,776,776,776,776,776,776,776,776,776,776,776,776,776,776,777,778,779,781,781,781,781,781,781,781,781,781,781,781,781,781,781,781,781,781,781,781,781,781,781,781,781,781,781,781,781,781,781,781,781,782,784,788,801,807,818,829,853,860,868,874,883,887,899,906,915,922,951,964,978,993,1012,1023,1037,1041,1043,1045,1047,1047,1047,1047,1047,1048,1049,1052,1055,1057,1059],"ymouse":[537,537,537,537,537,537,537,537,537,537,537,537,537,537,537,536,534,534,533,530,530,530,530,530,530,530,530,530,530,530,530,530,530,530,530,530,530,530,530,530,530,530,530,530,530,529,527,525,522,520,513,508,500,493,485,455,441,424,405,367,357,345,332,316,307,286,273,260,246,213,191,172,154,127,110,89,82,76,72,68,68,68,68,68,68,68,67,67,67,66],"timestamp_mouse":[12,25,45,66,86,106,125,146,167,186,206,226,247,265,287,306,325,346,366,386,405,425,445,467,486,505,525,545,566,585,606,626,646,666,687,707,725,745,765,787,805,825,845,865,886,905,926,946,965,986,1006,1026,1046,1065,1086,1106,1126,1146,1165,1187,1205,1226,1245,1266,1286,1307,1326,1346,1365,1387,1405,1426,1445,1465,1486,1506,1525,1546,1565,1587,1605,1626,1645,1666,1687,1707,1726,1746,1765,1785],"xSR":741.5,"ySR":469.95,"xT1":424.9,"yT1":0,"xT2":1058.1,"yT2":0,"toosoon":0,"cond_shown":"Congruent","ratio_trial":200,"L_num":15,"L_den":25,"R_num":4,"R_den":10,"correct_side":1,"subjID":"linavaleriameloguevara ","gender":"1","school":"6","age":"10"},{"start_time":1551800603412,"click_time":1551800604921,"finger_time":1551800604280,"fix_duration":250,"trial":6,"RT":868,"MT":641,"sideResp":2,"stimulus":[],"xmouse":[802,802,802,802,802,802,802,802,802,802,802,802,802,802,802,802,802,802,802,802,802,802,802,802,802,802,802,802,802,802,802,802,802,802,802,802,802,802,804,806,808,812,836,848,862,874,889,915,929,942,964,977,994,1001,1003,1006,1008,1008,1008,1009,1010,1011,1014,1015,1016,1017,1020,1022,1023,1025,1027,1028,1035,1041,1051,1065],"ymouse":[510,510,510,510,510,510,510,510,510,510,510,510,510,510,510,510,510,510,510,510,510,510,510,510,510,510,510,510,510,510,510,510,510,510,510,510,510,510,508,504,499,495,470,455,441,424,404,366,348,321,288,265,231,213,201,190,182,180,178,175,173,169,163,160,157,154,148,145,141,138,134,132,122,116,105,89],"timestamp_mouse":[8,41,48,68,87,108,128,147,168,189,208,227,248,267,289,309,328,348,369,387,409,427,447,469,487,508,527,548,568,588,608,627,648,667,688,709,727,749,767,788,808,827,847,868,887,907,927,947,968,987,1007,1029,1048,1068,1088,1107,1129,1147,1169,1189,1207,1227,1248,1268,1288,1308,1329,1347,1368,1388,1407,1427,1449,1468,1488,1509],"xSR":741.5,"ySR":469.95,"xT1":424.9,"yT1":0,"xT2":1058.1,"yT2":0,"toosoon":0,"cond_shown":"Congruent","ratio_trial":200,"L_num":1,"L_den":2,"R_num":21,"R_den":30,"correct_side":2,"subjID":"linavaleriameloguevara ","gender":"1","school":"6","age":"10"},{"start_time":1551800626501,"click_time":1551800630479,"finger_time":1551800629299,"fix_duration":920.2365728392856,"trial":7,"RT":2798,"MT":1180,"sideResp":1,"stimulus":[],"xmouse":[812,812,812,812,812,812,812,812,812,812,812,812,812,812,812,812,812,812,812,812,812,812,812,812,812,812,812,812,812,812,812,812,812,812,812,812,812,812,812,812,812,812,812,812,812,812,812,812,812,812,812,812,812,812,812,812,812,812,812,812,811,811,811,811,811,811,811,811,811,811,811,811,811,811,811,811,811,810,809,809,809,809,809,808,805,803,799,798,798,798,798,798,798,798,798,798,798,798,798,798,798,798,798,798,798,798,798,798,798,798,798,798,798,798,798,798,798,798,796,796,795,793,792,790,789,788,788,788,788,788,788,788,788,788,788,788,793,811,830,847,883,962,1000,1037,1047,1069,1082,1082,1082,1082,1082,1082,1082,1082,1082,1080,1077,1069,1067,1066,1065,1065,1065,1065,1065,1065,1065,1064,1062,1060,1057,1053,1034,1023,1012,999,993,988,988,987,984,974,967,958,946,929,909,892,886,880,870,835,800,752,710,644,582,540,511],"ymouse":[490,491,491,491,491,491,491,491,491,491,491,492,492,493,493,493,493,493,493,493,493,493,493,493,493,493,493,493,493,493,493,493,493,493,493,493,493,493,493,493,493,493,493,493,493,493,493,493,493,493,493,493,493,493,493,492,490,486,485,484,484,484,484,484,484,484,484,484,484,484,484,484,484,484,484,484,484,486,489,490,494,504,511,516,523,525,530,530,530,530,530,530,530,530,530,530,530,530,530,530,530,530,530,530,530,530,530,530,530,530,530,530,530,530,530,530,530,530,529,527,524,518,515,512,510,510,510,510,510,510,510,510,510,510,510,510,510,513,513,513,514,516,520,525,526,528,529,529,529,529,529,529,529,529,530,530,530,531,531,531,531,531,531,531,531,531,531,531,531,532,532,532,533,533,533,533,533,532,532,532,532,532,532,531,528,519,497,432,383,333,292,235,204,170,147,116,94,80,71],"timestamp_mouse":[17,38,58,79,99,120,138,158,179,198,219,239,258,279,298,319,339,359,378,398,418,439,459,479,498,518,538,559,577,598,619,637,659,678,699,719,738,758,778,799,817,839,859,878,899,919,939,959,979,999,1018,1038,1058,1079,1098,1119,1138,1159,1178,1198,1219,1239,1259,1278,1299,1318,1339,1357,1379,1398,1419,1437,1459,1478,1499,1518,1539,1559,1577,1599,1619,1638,1658,1678,1698,1718,1739,1758,1779,1799,1817,1839,1859,1878,1898,1917,1938,1959,1978,1998,2018,2039,2058,2077,2099,2119,2137,2159,2178,2198,2219,2238,2258,2279,2298,2318,2339,2359,2378,2398,2418,2438,2458,2478,2499,2518,2539,2558,2578,2599,2619,2638,2658,2678,2699,2718,2738,2759,2778,2798,2818,2839,2858,2878,2898,2918,2939,2958,2977,2998,3019,3038,3058,3078,3098,3119,3139,3158,3178,3199,3218,3239,3259,3279,3298,3318,3339,3358,3377,3398,3418,3438,3458,3478,3498,3518,3538,3559,3579,3598,3618,3639,3658,3678,3698,3719,3737,3757,3778,3798,3817,3839,3858,3878,3897,3918,3939,3958,3978],"xSR":741.5,"ySR":469.95,"xT1":424.9,"yT1":0,"xT2":1058.1,"yT2":0,"toosoon":0,"cond_shown":"Incongruent","ratio_trial":200,"L_num":1,"L_den":3,"R_num":2,"R_den":15,"correct_side":1,"subjID":"linavaleriameloguevara ","gender":"1","school":"6","age":"10"},{"start_time":1551800632630,"click_time":1551800634399,"finger_time":1551800633659,"fix_duration":789.1579814624603,"trial":8,"RT":1029,"MT":740,"sideResp":2,"stimulus":[],"xmouse":[791,791,791,791,791,791,791,791,791,791,791,791,791,791,791,791,791,791,791,791,791,791,791,791,791,791,790,789,788,788,788,788,788,788,788,788,788,788,788,788,788,788,788,788,788,789,797,804,811,819,823,831,838,845,852,860,882,894,907,920,926,945,954,966,977,1005,1017,1031,1041,1055,1057,1059,1059,1059,1059,1059,1059,1059,1060,1061,1061,1066,1068,1072,1074,1079,1082,1083,1084],"ymouse":[501,501,501,501,501,501,501,501,501,501,501,501,501,501,501,501,501,501,501,501,501,501,501,501,501,501,500,500,500,500,500,500,500,500,500,500,500,500,500,500,500,500,500,500,499,498,492,489,484,478,472,457,449,441,431,419,395,383,361,345,334,312,302,291,279,252,238,223,209,194,189,183,182,181,181,181,178,171,167,157,150,137,130,125,119,110,106,100,98],"timestamp_mouse":[8,28,49,69,89,108,129,150,170,189,210,229,250,269,289,310,330,350,370,390,410,429,450,469,488,510,529,549,569,589,610,630,649,669,690,709,729,749,770,789,809,829,849,869,889,909,929,949,970,989,1010,1029,1049,1070,1090,1108,1128,1149,1169,1189,1209,1229,1249,1269,1289,1310,1329,1350,1369,1389,1409,1429,1450,1469,1490,1510,1529,1548,1569,1589,1609,1630,1649,1669,1689,1710,1728,1749,1769],"xSR":741.5,"ySR":469.95,"xT1":424.9,"yT1":0,"xT2":1058.1,"yT2":0,"toosoon":0,"cond_shown":"Incongruent","ratio_trial":200,"L_num":7,"L_den":10,"R_num":12,"R_den":24,"correct_side":1,"subjID":"linavaleriameloguevara ","gender":"1","school":"6","age":"10"},{"start_time":1551800637706,"click_time":1551800644240,"finger_time":1551800643660,"fix_duration":666.423863889471,"trial":9,"RT":5954,"MT":580,"sideResp":1,"stimulus":[],"xmouse":[771,771,771,771,771,771,771,771,771,771,771,771,771,771,771,771,771,771,771,771,771,771,771,771,771,771,771,771,771,771,771,771,771,771,771,771,771,771,771,771,771,771,771,771,771,771,771,771,771,771,771,771,771,771,771,771,771,771,771,771,771,771,771,771,771,771,771,771,771,771,771,771,771,771,771,771,771,771,771,771,771,771,771,771,771,771,771,771,771,771,771,771,771,771,771,771,771,771,771,771,771,771,771,771,771,771,771,771,771,771,771,771,771,771,771,771,771,771,771,771,771,771,771,771,771,771,771,771,771,771,771,771,771,771,771,771,771,771,771,771,771,771,771,771,771,771,771,771,771,771,771,771,771,771,771,771,771,771,771,771,771,771,771,771,771,774,782,790,790,790,790,792,795,795,795,795,795,795,795,795,795,795,795,795,795,795,795,795,795,795,795,795,795,795,795,795,795,795,795,795,795,795,795,795,795,795,795,795,795,795,795,795,795,795,795,795,795,795,795,795,795,795,795,795,795,795,795,795,795,795,795,795,795,795,795,795,795,790,783,780,780,780,778,777,776,775,774,773,772,772,772,772,772,772,772,772,772,772,772,772,772,772,772,771,771,771,771,771,771,771,771,771,772,772,773,773,773,773,775,778,782,787,795,797,797,797,797,796,791,788,781,771,770,766,757,747,744,744,744,745,745,745,743,724,693,664,651,623,610,599,596,589,585,580,576,563,557,556,556,556,556,556,554,551,544,528,493],"ymouse":[535,535,535,535,535,535,535,535,535,535,535,535,535,535,535,535,535,535,535,535,535,535,535,535,535,535,535,535,535,535,535,535,535,535,535,535,535,535,535,535,535,535,535,535,535,535,535,535,535,535,535,535,535,535,535,535,535,535,535,535,535,535,535,535,535,535,535,535,535,535,535,535,535,535,535,535,535,535,535,535,535,535,535,535,535,535,535,535,535,535,535,535,535,535,535,535,535,535,535,535,535,535,535,535,535,535,535,535,535,535,535,535,535,535,535,535,535,535,535,535,535,535,535,535,535,535,535,535,535,535,535,535,535,535,535,535,535,535,535,535,535,535,535,535,535,535,535,535,535,535,535,535,535,535,535,535,535,535,535,535,535,535,535,535,535,532,531,529,529,529,529,529,529,529,529,529,529,529,529,529,529,529,529,529,529,529,529,529,529,529,529,529,529,529,529,529,529,529,529,529,529,529,529,529,529,529,529,529,529,529,529,529,529,529,529,529,529,529,529,529,529,529,529,529,529,529,529,529,529,529,529,529,529,529,529,529,526,512,501,499,499,499,498,498,497,497,497,497,497,497,497,497,497,497,497,497,497,497,497,497,497,497,497,497,497,497,497,497,497,497,497,499,500,501,501,502,503,504,505,506,509,511,515,516,516,516,516,516,516,516,516,516,514,509,500,489,481,469,462,456,450,433,415,372,324,272,247,206,193,180,174,165,160,156,151,143,139,139,139,139,139,137,134,130,121,98,55],"timestamp_mouse":[14,40,54,73,92,114,133,154,173,193,213,233,254,274,293,313,334,353,374,394,413,433,454,473,494,513,532,554,574,593,614,634,652,674,694,713,733,754,774,794,813,833,853,873,894,913,933,953,972,994,1012,1034,1053,1073,1094,1113,1134,1154,1173,1194,1213,1234,1252,1273,1292,1314,1334,1354,1374,1393,1413,1434,1452,1473,1493,1513,1533,1552,1574,1593,1612,1634,1653,1672,1694,1714,1732,1754,1773,1794,1814,1834,1854,1874,1894,1913,1934,1954,1974,1993,2013,2032,2054,2072,2093,2113,2133,2153,2174,2193,2213,2234,2254,2273,2292,2314,2334,2354,2373,2393,2414,2433,2454,2472,2494,2513,2533,2554,2574,2593,2614,2633,2652,2674,2694,2714,2732,2754,2773,2794,2813,2833,2853,2874,2894,2915,2933,2952,2973,2993,3014,3033,3054,3073,3093,3112,3134,3154,3172,3193,3214,3233,3254,3274,3294,3313,3333,3354,3373,3393,3412,3434,3454,3473,3494,3513,3533,3553,3573,3592,3614,3633,3653,3674,3692,3713,3733,3753,3773,3793,3814,3834,3853,3874,3894,3913,3933,3953,3974,3993,4014,4033,4054,4073,4094,4114,4132,4153,4174,4193,4213,4234,4254,4274,4294,4313,4333,4353,4374,4393,4414,4433,4453,4472,4494,4514,4533,4553,4573,4593,4614,4634,4653,4673,4693,4714,4733,4754,4773,4793,4813,4833,4852,4873,4893,4913,4933,4953,4973,4993,5014,5033,5054,5072,5093,5113,5134,5153,5174,5194,5213,5233,5254,5273,5293,5314,5333,5352,5374,5393,5413,5433,5453,5473,5494,5513,5533,5554,5573,5593,5613,5633,5653,5673,5693,5712,5742,5754,5772,5793,5813,5834,5853,5873,5893,5914,5933,5954,5973,5993,6013,6034,6053,6073,6093,6114,6134,6153,6174,6194,6213,6233,6253,6274,6293,6314,6334,6355,6374,6393,6413,6433,6452,6473,6493,6514,6534],"xSR":741.5,"ySR":469.95,"xT1":424.9,"yT1":0,"xT2":1058.1,"yT2":0,"toosoon":0,"cond_shown":"Incongruent","ratio_trial":300,"L_num":4,"L_den":20,"R_num":2,"R_den":4,"correct_side":2,"subjID":"linavaleriameloguevara ","gender":"1","school":"6","age":"10"},{"start_time":1551800646779,"click_time":1551800647959,"finger_time":1551800647759,"fix_duration":1018.2324276901479,"trial":10,"RT":980,"MT":200,"sideResp":1,"stimulus":[],"xmouse":[789,789,789,789,789,789,789,789,789,789,789,789,789,789,789,789,789,789,789,789,789,789,789,789,789,789,789,789,789,789,789,789,789,789,789,789,789,789,789,789,789,789,789,789,789,789,788,786,774,745,727,703,666,631,617,598,581,561,526,511],"ymouse":[525,525,525,525,525,525,525,525,525,525,525,525,525,525,525,525,525,525,525,525,525,525,525,525,525,525,525,525,525,525,525,525,525,525,525,525,525,525,525,525,525,525,525,525,525,525,522,519,507,464,427,379,305,240,208,183,159,135,98,85],"timestamp_mouse":[1,20,40,60,81,100,120,141,160,180,200,221,241,261,279,301,319,340,360,379,401,419,441,460,481,500,520,540,559,581,600,620,640,660,679,700,721,741,760,779,800,821,840,861,881,899,920,940,960,980,1001,1020,1041,1061,1080,1100,1122,1140,1161,1180],"xSR":741.5,"ySR":469.95,"xT1":424.9,"yT1":0,"xT2":1058.1,"yT2":0,"toosoon":0,"cond_shown":"Congruent","ratio_trial":100,"L_num":6,"L_den":20,"R_num":5,"R_den":25,"correct_side":1,"subjID":"linavaleriameloguevara ","gender":"1","school":"6","age":"10"},{"start_time":1551800649530,"click_time":1551800650619,"finger_time":1551800650340,"fix_duration":250,"trial":11,"RT":810,"MT":279,"sideResp":2,"stimulus":[],"xmouse":[809,809,809,809,809,809,809,809,809,809,809,809,809,809,809,809,809,809,809,809,809,809,809,809,809,809,809,809,809,809,809,809,809,809,809,809,809,809,816,818,848,868,887,916,928,952,991,1013,1033,1052,1081,1096,1110,1120,1126],"ymouse":[520,520,520,520,520,520,520,520,520,520,520,520,520,520,520,520,520,520,520,520,520,520,520,520,520,520,520,520,520,520,520,520,520,520,520,520,520,520,513,510,477,457,437,405,395,370,332,311,292,268,213,180,151,122,99],"timestamp_mouse":[8,29,51,70,89,109,130,149,168,190,209,229,249,270,289,309,330,361,369,389,409,429,449,469,489,509,529,550,568,590,608,630,648,670,690,709,730,749,770,789,810,829,850,869,890,908,929,949,969,990,1011,1029,1049,1070,1089],"xSR":741.5,"ySR":469.95,"xT1":424.9,"yT1":0,"xT2":1058.1,"yT2":0,"toosoon":0,"cond_shown":"Incongruent","ratio_trial":100,"L_num":17,"L_den":30,"R_num":10,"R_den":15,"correct_side":2,"subjID":"linavaleriameloguevara ","gender":"1","school":"6","age":"10"},{"start_time":1551800652036,"click_time":1551800653559,"finger_time":1551800652940,"fix_duration":575.3761820499997,"trial":12,"RT":904,"MT":619,"sideResp":2,"stimulus":[],"xmouse":[773,773,773,773,773,773,773,773,773,773,773,773,773,773,773,773,773,773,773,773,773,773,773,773,773,773,773,773,773,773,773,773,773,773,773,773,773,773,773,776,782,784,787,792,797,812,823,842,859,893,926,982,1000,1015,1025,1042,1049,1055,1058,1064,1069,1070,1070,1070,1070,1070,1070,1070,1070,1070,1070,1070,1071,1071,1074,1075,1078],"ymouse":[538,538,538,537,537,537,537,537,537,537,537,537,537,537,537,534,531,528,526,525,525,525,525,525,525,525,525,525,525,525,525,525,525,525,525,525,525,524,523,518,510,505,499,493,486,458,439,417,390,339,301,236,212,197,185,166,157,153,144,137,134,133,133,133,133,133,133,133,133,133,133,132,128,122,114,106,88],"timestamp_mouse":[3,22,49,63,84,103,122,143,163,184,203,224,243,263,284,304,323,343,364,383,404,424,442,464,483,504,523,544,563,583,604,624,643,664,684,703,724,744,763,783,803,824,843,864,884,904,923,943,962,983,1003,1023,1043,1062,1083,1104,1123,1142,1163,1183,1204,1224,1244,1263,1283,1303,1322,1344,1363,1384,1403,1423,1444,1463,1483,1502,1523],"xSR":741.5,"ySR":469.95,"xT1":424.9,"yT1":0,"xT2":1058.1,"yT2":0,"toosoon":0,"cond_shown":"Congruent","ratio_trial":300,"L_num":4,"L_den":20,"R_num":13,"R_den":26,"correct_side":2,"subjID":"linavaleriameloguevara ","gender":"1","school":"6","age":"10"},{"start_time":1551800655911,"click_time":1551800657180,"finger_time":1551800656740,"fix_duration":1150.4945292978039,"trial":13,"RT":829,"MT":440,"sideResp":1,"stimulus":[],"xmouse":[763,763,763,763,763,763,763,763,763,763,763,763,763,763,763,763,763,763,763,763,763,763,763,763,763,763,763,763,763,763,763,763,763,763,763,763,763,760,759,753,743,715,699,679,662,645,632,613,607,598,590,577,569,561,560,557,555,555,554,554,551,548,532,522],"ymouse":[532,532,532,532,532,532,532,532,532,532,532,532,532,532,532,532,532,532,532,532,532,532,532,532,532,532,532,532,532,532,532,532,532,532,532,532,532,529,523,514,503,472,454,438,427,413,404,388,379,366,355,328,309,291,273,255,212,192,170,153,133,115,72,55],"timestamp_mouse":[8,28,59,68,89,107,129,148,169,189,207,228,248,269,288,309,329,348,369,387,409,428,447,469,488,507,529,548,568,589,609,628,649,668,688,708,729,748,768,788,808,829,847,868,888,908,928,948,969,988,1009,1028,1048,1068,1088,1109,1129,1148,1168,1189,1208,1228,1248,1269],"xSR":741.5,"ySR":469.95,"xT1":424.9,"yT1":0,"xT2":1058.1,"yT2":0,"toosoon":0,"cond_shown":"Incongruent","ratio_trial":100,"L_num":3,"L_den":9,"R_num":7,"R_den":30,"correct_side":1,"subjID":"linavaleriameloguevara ","gender":"1","school":"6","age":"10"},{"start_time":1551800659023,"click_time":1551800660140,"finger_time":1551800659799,"fix_duration":683.4736746781236,"trial":14,"RT":776,"MT":341,"sideResp":2,"stimulus":[],"xmouse":[787,787,787,787,787,787,787,787,787,787,787,787,787,787,787,787,787,787,787,787,787,787,787,787,787,787,787,787,787,787,787,787,787,787,787,789,800,810,819,827,845,853,861,869,878,889,915,931,944,967,987,1019,1035,1050,1064,1088],"ymouse":[515,515,515,515,515,515,515,515,515,515,515,515,515,515,515,515,515,515,515,515,515,515,515,515,515,515,515,515,515,515,515,515,515,515,512,509,491,472,455,444,413,400,389,378,363,350,315,297,280,251,227,184,160,143,123,98],"timestamp_mouse":[16,36,66,76,97,117,135,157,177,196,216,236,255,277,296,317,342,357,376,396,416,437,456,476,495,517,537,557,577,597,616,637,656,677,696,717,736,756,776,797,817,836,856,877,896,917,936,956,975,996,1016,1036,1056,1075,1097,1117],"xSR":741.5,"ySR":469.95,"xT1":424.9,"yT1":0,"xT2":1058.1,"yT2":0,"toosoon":0,"cond_shown":"Incongruent","ratio_trial":300,"L_num":7,"L_den":10,"R_num":8,"R_den":20,"correct_side":1,"subjID":"linavaleriameloguevara ","gender":"1","school":"6","age":"10"},{"start_time":1551800661470,"click_time":1551800663059,"finger_time":1551800662539,"fix_duration":250,"trial":15,"RT":1069,"MT":520,"sideResp":1,"stimulus":[],"xmouse":[780,780,780,780,780,780,780,780,780,780,780,780,780,780,780,780,780,780,780,780,780,780,780,780,780,780,780,780,780,780,780,780,780,780,780,780,780,780,780,780,780,780,780,780,780,780,780,779,777,772,766,759,750,741,708,695,667,660,634,608,595,583,573,556,549,540,531,517,507,495,491,489,489,493,496,498,502,502,505,506],"ymouse":[520,520,520,520,520,520,520,520,520,520,520,520,520,520,520,520,520,520,520,520,520,520,520,520,520,520,520,520,520,520,520,520,520,520,520,520,520,520,520,520,520,520,520,520,520,520,520,520,519,513,507,500,488,473,432,407,375,364,338,311,299,287,276,260,251,243,230,213,202,176,164,155,153,144,138,135,128,126,110,95],"timestamp_mouse":[9,29,50,70,89,109,129,149,168,189,208,229,250,269,290,310,329,350,369,389,409,428,449,468,489,510,530,549,570,588,608,629,650,670,689,709,729,749,770,790,809,829,849,869,889,909,929,949,969,989,1009,1029,1048,1069,1088,1109,1129,1149,1168,1189,1209,1229,1249,1270,1289,1309,1329,1349,1369,1390,1409,1429,1449,1470,1490,1510,1529,1550,1569,1589],"xSR":741.5,"ySR":469.95,"xT1":424.9,"yT1":0,"xT2":1058.1,"yT2":0,"toosoon":0,"cond_shown":"Incongruent","ratio_trial":100,"L_num":3,"L_den":6,"R_num":4,"R_den":10,"correct_side":1,"subjID":"linavaleriameloguevara ","gender":"1","school":"6","age":"10"},{"start_time":1551800665131,"click_time":1551800666659,"finger_time":1551800666159,"fix_duration":1130.3336411646617,"trial":16,"RT":1028,"MT":500,"sideResp":1,"stimulus":[],"xmouse":[816,816,816,816,816,816,816,816,816,816,816,816,816,816,816,816,816,816,816,816,816,816,816,816,816,816,816,816,816,816,816,816,816,816,816,816,816,816,816,816,816,816,816,816,816,816,816,814,813,810,804,790,780,764,739,721,674,654,633,613,580,568,563,557,553,549,542,542,542,542,542,542,542,538,533,527,523],"ymouse":[514,514,514,514,514,514,514,514,514,514,514,514,514,514,514,514,514,514,514,514,514,514,514,514,514,514,514,514,514,514,514,514,514,514,514,514,514,514,514,514,514,514,514,514,514,514,513,506,499,492,476,451,432,410,383,363,324,308,291,277,245,231,221,210,190,174,148,139,133,124,107,97,90,82,74,67,66],"timestamp_mouse":[10,41,47,69,88,108,128,148,168,188,208,229,248,268,288,309,329,347,368,388,408,428,447,468,488,508,529,548,567,588,609,628,648,668,688,708,728,748,769,788,809,828,847,869,888,908,928,948,969,988,1008,1028,1048,1069,1089,1108,1128,1147,1169,1188,1208,1228,1248,1267,1288,1308,1327,1348,1368,1388,1409,1428,1447,1468,1489,1509,1528],"xSR":741.5,"ySR":469.95,"xT1":424.9,"yT1":0,"xT2":1058.1,"yT2":0,"toosoon":0,"cond_shown":"Congruent","ratio_trial":300,"L_num":20,"L_den":25,"R_num":14,"R_den":28,"correct_side":1,"subjID":"linavaleriameloguevara ","gender":"1","school":"6","age":"10"},{"start_time":1551800668341,"click_time":1551800669820,"finger_time":1551800669238,"fix_duration":540.7785745911933,"trial":17,"RT":897,"MT":582,"sideResp":1,"stimulus":[],"xmouse":[798,798,798,798,798,798,798,798,798,798,798,798,798,798,798,798,798,798,798,798,798,798,798,798,798,798,798,798,798,798,798,798,798,798,798,798,798,798,798,798,794,788,769,759,723,643,589,542,493,417,396,382,379,379,381,381,382,384,384,386,387,388,391,393,394,395,395,395,396,399,413,416,424,437],"ymouse":[517,517,517,517,517,517,517,517,517,517,517,517,517,517,517,517,517,517,517,517,517,517,517,517,517,517,517,517,517,517,517,517,517,517,517,517,517,517,517,517,515,510,492,482,442,360,306,257,210,136,114,99,93,88,82,81,79,77,75,75,75,74,73,73,72,72,72,72,72,72,72,72,72,72],"timestamp_mouse":[30,38,59,77,99,118,138,158,178,198,219,237,258,279,299,319,338,359,379,399,418,437,458,478,498,517,538,558,578,598,619,638,658,678,698,719,737,759,778,799,818,839,858,879,897,918,938,958,978,999,1018,1037,1058,1078,1099,1117,1138,1159,1178,1198,1218,1238,1258,1278,1298,1318,1337,1358,1378,1398,1418,1439,1457,1479],"xSR":741.5,"ySR":469.95,"xT1":424.9,"yT1":0,"xT2":1058.1,"yT2":0,"toosoon":0,"cond_shown":"Incongruent","ratio_trial":100,"L_num":3,"L_den":6,"R_num":4,"R_den":10,"correct_side":1,"subjID":"linavaleriameloguevara ","gender":"1","school":"6","age":"10"},{"start_time":1551800671387,"click_time":1551800672840,"finger_time":1551800672559,"fix_duration":625.3589918612643,"trial":18,"RT":1172,"MT":281,"sideResp":2,"stimulus":[],"xmouse":[773,773,773,773,773,773,773,773,773,773,773,773,773,773,773,773,773,773,773,773,773,773,773,773,773,773,773,773,773,773,773,773,773,773,773,773,773,773,773,773,773,773,773,773,773,773,773,773,773,773,773,773,774,778,780,784,788,806,821,835,850,873,884,909,922,936,955,994,1014,1034,1051,1056,1068],"ymouse":[520,520,520,520,520,520,520,520,520,520,520,520,520,520,520,520,520,520,520,520,520,520,520,520,520,520,520,520,520,520,520,520,520,520,520,520,520,520,520,520,520,520,520,520,520,520,520,520,520,520,520,520,519,514,510,504,498,476,458,441,422,390,373,325,302,271,239,176,148,128,107,103,92],"timestamp_mouse":[13,36,53,71,92,111,132,153,172,193,211,233,253,272,293,312,333,352,373,391,413,431,453,473,492,513,533,552,571,592,613,633,652,671,692,712,731,753,772,792,811,833,852,873,892,913,933,952,973,992,1012,1032,1052,1073,1092,1112,1132,1152,1172,1192,1211,1233,1252,1273,1292,1312,1332,1354,1371,1392,1412,1432,1453],"xSR":741.5,"ySR":469.95,"xT1":424.9,"yT1":0,"xT2":1058.1,"yT2":0,"toosoon":0,"cond_shown":"Congruent","ratio_trial":200,"L_num":6,"L_den":12,"R_num":7,"R_den":10,"correct_side":2,"subjID":"linavaleriameloguevara ","gender":"1","school":"6","age":"10"},{"start_time":1551800674254,"click_time":1551800675599,"finger_time":1551800675200,"fix_duration":493.5787414191106,"trial":19,"RT":946,"MT":399,"sideResp":1,"stimulus":[],"xmouse":[815,815,815,815,815,815,815,815,815,815,815,815,815,815,815,815,815,815,815,815,815,815,815,815,815,815,815,815,815,815,815,815,815,815,813,801,794,786,784,783,783,783,783,782,781,771,763,749,735,722,695,681,670,661,648,625,615,608,597,589,571,562,553,545,536,532,527,524],"ymouse":[540,540,540,540,540,540,540,540,540,540,540,540,539,539,539,539,539,539,539,539,539,539,539,539,539,539,539,539,539,539,539,539,539,534,533,520,514,509,509,508,508,508,508,506,505,491,476,450,432,413,372,351,332,313,296,262,250,240,219,203,169,154,135,118,99,92,83,77],"timestamp_mouse":[11,25,46,66,86,104,126,144,165,185,206,224,245,265,286,305,325,345,365,384,406,426,445,465,485,504,526,546,565,586,606,626,644,665,685,704,725,746,765,786,806,825,845,864,885,905,925,946,966,985,1005,1025,1046,1065,1086,1105,1125,1145,1165,1185,1206,1225,1245,1265,1286,1304,1325,1345],"xSR":741.5,"ySR":469.95,"xT1":424.9,"yT1":0,"xT2":1058.1,"yT2":0,"toosoon":0,"cond_shown":"Congruent","ratio_trial":100,"L_num":1,"L_den":2,"R_num":3,"R_den":5,"correct_side":2,"subjID":"linavaleriameloguevara ","gender":"1","school":"6","age":"10"},{"start_time":1551800677445,"click_time":1551800678799,"finger_time":1551800678340,"fix_duration":583.1582599788243,"trial":20,"RT":895,"MT":459,"sideResp":2,"stimulus":[],"xmouse":[790,790,790,790,790,790,790,790,790,790,790,790,790,790,790,790,790,790,790,790,790,790,790,790,790,790,790,790,790,790,790,790,790,790,790,790,790,791,792,793,799,803,806,811,818,837,851,867,894,912,964,1005,1040,1070,1098,1104,1113,1114,1114,1117,1118,1118,1118,1118,1119,1119,1119,1119],"ymouse":[522,522,522,522,522,522,522,522,522,522,522,522,522,522,522,522,522,522,522,522,522,522,522,521,520,520,520,520,520,520,520,520,520,520,520,520,520,518,516,512,501,493,483,475,462,428,410,391,359,340,299,276,259,241,212,201,181,170,165,149,145,143,140,135,121,110,101,92],"timestamp_mouse":[15,34,61,75,95,113,135,154,175,195,214,234,254,275,293,315,333,355,374,395,415,434,454,474,494,515,533,554,574,594,615,635,653,675,695,714,733,754,774,795,814,834,855,874,895,914,934,955,974,995,1014,1034,1053,1074,1095,1114,1134,1154,1174,1194,1214,1235,1255,1274,1295,1314,1333,1354],"xSR":741.5,"ySR":469.95,"xT1":424.9,"yT1":0,"xT2":1058.1,"yT2":0,"toosoon":0,"cond_shown":"Congruent","ratio_trial":200,"L_num":16,"L_den":20,"R_num":12,"R_den":20,"correct_side":1,"subjID":"linavaleriameloguevara ","gender":"1","school":"6","age":"10"},{"start_time":1551800680168,"click_time":1551800682479,"finger_time":1551800681979,"fix_duration":288.82188089640357,"trial":21,"RT":1811,"MT":500,"sideResp":2,"stimulus":[],"xmouse":[776,776,776,776,776,776,776,776,776,776,776,776,776,776,776,776,776,776,776,776,776,776,776,776,776,776,776,776,776,776,776,776,776,776,776,776,776,776,776,776,776,776,776,776,776,776,776,776,776,776,776,776,776,776,776,776,776,776,776,776,776,776,776,776,776,776,776,776,776,776,776,776,776,776,776,776,776,776,776,776,776,776,776,776,776,776,776,778,790,803,823,844,872,903,957,976,991,1001,1009,1009,1009,1009,1013,1022,1029,1036,1042,1047,1050,1057,1059,1062,1071,1081,1083,1084],"ymouse":[525,525,525,525,525,525,525,525,525,525,525,525,525,525,525,525,525,525,525,525,525,525,525,525,525,525,525,525,525,525,525,525,525,525,525,525,525,525,525,525,525,525,525,525,525,525,525,525,525,525,525,525,525,525,525,525,525,525,525,525,525,525,525,525,525,525,525,525,525,525,525,525,525,525,525,525,525,525,525,525,525,525,525,525,525,525,525,519,503,485,463,432,384,343,271,245,216,195,173,166,162,160,153,141,134,128,122,118,116,116,116,115,111,103,100,95],"timestamp_mouse":[11,37,52,72,92,110,132,151,170,192,212,232,251,271,292,312,330,351,371,391,411,432,451,471,491,512,531,551,571,591,611,630,652,671,691,711,732,752,771,792,810,832,851,872,891,912,932,952,971,991,1011,1030,1052,1071,1092,1112,1132,1151,1171,1192,1212,1231,1251,1271,1292,1310,1331,1351,1371,1392,1412,1430,1451,1471,1492,1512,1532,1552,1571,1592,1612,1632,1651,1671,1691,1712,1732,1751,1772,1791,1811,1831,1851,1871,1891,1911,1932,1951,1972,1990,2011,2031,2052,2071,2091,2111,2131,2151,2172,2191,2220,2232,2252,2271,2290,2311],"xSR":741.5,"ySR":469.95,"xT1":424.9,"yT1":0,"xT2":1058.1,"yT2":0,"toosoon":0,"cond_shown":"Incongruent","ratio_trial":100,"L_num":12,"L_den":30,"R_num":2,"R_den":4,"correct_side":2,"subjID":"linavaleriameloguevara ","gender":"1","school":"6","age":"10"},{"start_time":1551800684375,"click_time":1551800686120,"finger_time":1551800685640,"fix_duration":873.5171164250024,"trial":22,"RT":1265,"MT":480,"sideResp":1,"stimulus":[],"xmouse":[784,784,784,784,784,784,784,784,784,784,784,784,784,784,784,784,784,784,784,784,784,784,784,784,784,784,784,784,784,784,784,784,784,784,784,784,784,784,784,784,784,784,784,784,784,784,784,784,784,784,784,784,784,784,782,778,774,768,759,756,753,751,748,739,732,721,704,686,655,639,629,620,612,598,593,586,582,577,574,571,571,570,568,556,548,540,532,524],"ymouse":[526,526,526,526,526,526,526,526,526,526,526,526,526,526,526,526,526,526,526,526,526,526,526,526,526,526,526,526,526,526,526,526,526,526,526,526,526,526,526,526,526,526,526,526,526,526,526,526,526,526,526,526,526,526,523,516,509,503,490,485,480,477,470,456,442,423,401,374,319,290,263,232,201,119,95,76,67,61,56,51,50,48,46,41,38,36,33,32],"timestamp_mouse":[8,24,44,64,84,104,123,144,163,184,204,224,244,264,285,304,325,344,363,385,404,425,444,465,484,504,523,545,564,585,604,624,644,664,685,703,725,743,765,783,805,825,844,865,885,905,924,945,963,985,1003,1025,1043,1064,1083,1104,1125,1144,1164,1183,1204,1224,1245,1265,1284,1304,1325,1345,1365,1384,1404,1424,1445,1464,1484,1504,1524,1544,1565,1585,1604,1624,1645,1664,1684,1704,1725,1745],"xSR":741.5,"ySR":469.95,"xT1":424.9,"yT1":0,"xT2":1058.1,"yT2":0,"toosoon":0,"cond_shown":"Congruent","ratio_trial":100,"L_num":8,"L_den":16,"R_num":2,"R_den":5,"correct_side":1,"subjID":"linavaleriameloguevara ","gender":"1","school":"6","age":"10"},{"start_time":1551800687613,"click_time":1551800689021,"finger_time":1551800688541,"fix_duration":250,"trial":23,"RT":928,"MT":480,"sideResp":1,"stimulus":[],"xmouse":[812,812,812,812,812,812,812,812,812,812,812,812,812,812,812,812,812,812,812,812,812,812,812,812,812,812,812,812,812,812,812,812,812,812,812,812,812,812,812,812,812,811,810,810,806,802,791,785,777,767,753,741,718,706,694,681,654,642,623,618,604,594,584,579,578,577,573,569,562,549,521],"ymouse":[513,513,513,513,513,513,513,513,513,513,513,513,513,513,513,513,513,513,513,513,513,513,513,513,513,513,513,513,513,513,513,513,513,513,513,513,513,513,513,513,513,507,502,496,488,477,446,431,413,392,361,332,282,253,226,203,159,141,118,112,101,94,89,88,88,88,88,87,85,83,74],"timestamp_mouse":[8,35,47,68,88,107,129,147,169,188,209,228,249,267,288,307,329,348,368,387,409,429,448,467,489,507,529,547,567,588,609,628,648,668,687,708,727,747,769,787,808,828,848,867,888,908,928,947,968,987,1007,1027,1049,1069,1088,1107,1129,1147,1168,1188,1208,1227,1248,1268,1287,1307,1328,1349,1368,1388,1408],"xSR":741.5,"ySR":469.95,"xT1":424.9,"yT1":0,"xT2":1058.1,"yT2":0,"toosoon":0,"cond_shown":"Incongruent","ratio_trial":300,"L_num":3,"L_den":6,"R_num":4,"R_den":20,"correct_side":1,"subjID":"linavaleriameloguevara ","gender":"1","school":"6","age":"10"},{"start_time":1551800690573,"click_time":1551800692761,"finger_time":1551800692021,"fix_duration":250,"trial":24,"RT":1448,"MT":740,"sideResp":1,"stimulus":[],"xmouse":[758,758,758,758,758,758,758,758,758,758,758,758,758,758,758,758,758,758,758,758,758,758,758,758,758,758,758,758,758,758,758,758,758,758,758,758,758,758,758,758,758,758,758,758,758,758,758,758,758,758,758,758,758,758,758,758,758,758,758,758,758,758,758,758,758,758,758,758,758,759,761,765,766,768,768,766,761,753,725,715,700,685,667,650,636,632,630,623,618,614,613,613,613,613,613,613,613,613,613,613,613,613,613,613,613,613,613,613,613,517],"ymouse":[519,519,519,519,519,519,519,519,519,519,519,519,519,519,519,519,519,519,519,519,519,519,519,519,519,519,519,519,519,519,519,519,519,519,519,519,519,519,519,519,519,519,519,519,519,519,519,519,519,519,519,519,519,519,519,519,519,519,519,519,519,519,519,519,519,519,519,519,519,512,503,483,467,432,415,397,381,370,349,341,332,319,303,273,201,159,116,77,25,9,4,4,4,4,4,4,4,4,4,4,4,4,4,4,4,4,4,4,4,2],"timestamp_mouse":[10,28,47,68,88,108,127,148,168,187,209,227,249,268,288,309,329,347,369,387,407,427,449,469,487,509,527,547,568,587,607,629,648,669,688,708,728,747,769,789,808,827,849,868,887,908,927,948,967,989,1007,1028,1049,1067,1087,1108,1127,1148,1168,1189,1209,1227,1248,1269,1287,1309,1328,1347,1368,1387,1407,1428,1448,1468,1487,1508,1527,1547,1569,1588,1608,1628,1648,1667,1689,1707,1728,1747,1768,1787,1807,1829,1849,1868,1889,1909,1928,1947,1968,1987,2007,2028,2048,2068,2088,2107,2127,2147,2167,2188],"xSR":741.5,"ySR":469.95,"xT1":424.9,"yT1":0,"xT2":1058.1,"yT2":0,"toosoon":0,"cond_shown":"Congruent","ratio_trial":100,"L_num":15,"L_den":25,"R_num":13,"R_den":26,"correct_side":1,"subjID":"linavaleriameloguevara ","gender":"1","school":"6","age":"10"},{"start_time":1551800694055,"click_time":1551800695542,"finger_time":1551800694802,"fix_duration":311.9114240136757,"trial":25,"RT":747,"MT":740,"sideResp":1,"stimulus":[],"xmouse":[799,799,799,799,799,799,799,799,799,799,799,799,799,799,799,799,799,799,799,799,799,799,799,799,799,799,799,799,799,799,799,799,797,796,791,786,782,774,765,756,740,729,715,695,678,640,620,601,570,545,489,460,435,414,396,394,394,394,394,394,399,402,406,413,426,433,440,444,448,452,453,453,453,453,452],"ymouse":[493,493,493,493,493,493,493,493,493,493,493,493,493,493,493,493,493,493,493,493,493,493,493,493,493,493,493,493,493,493,493,492,491,489,484,479,473,466,455,444,416,399,383,365,347,312,292,277,254,242,206,191,174,162,145,141,138,135,135,134,133,133,132,132,130,130,129,128,126,121,119,116,113,109,97],"timestamp_mouse":[8,33,45,67,85,107,125,146,165,185,207,225,246,267,285,305,326,346,365,386,407,426,447,465,486,506,525,547,565,587,605,625,645,666,686,705,725,747,765,785,805,826,846,865,886,906,927,945,965,985,1005,1026,1046,1065,1086,1106,1125,1146,1166,1186,1207,1226,1247,1266,1286,1305,1325,1346,1366,1386,1406,1425,1446,1465,1487],"xSR":741.5,"ySR":469.95,"xT1":424.9,"yT1":0,"xT2":1058.1,"yT2":0,"toosoon":0,"cond_shown":"Incongruent","ratio_trial":300,"L_num":8,"L_den":10,"R_num":14,"R_den":28,"correct_side":1,"subjID":"linavaleriameloguevara ","gender":"1","school":"6","age":"10"},{"start_time":1551800697818,"click_time":1551800699141,"finger_time":1551800698601,"fix_duration":1173.7831209167884,"trial":26,"RT":783,"MT":540,"sideResp":1,"stimulus":[],"xmouse":[772,772,772,772,772,772,772,772,772,772,772,772,772,772,772,772,772,772,772,772,772,772,772,772,772,772,772,772,772,772,772,772,772,772,772,772,769,758,748,722,698,676,641,623,609,604,592,587,583,582,580,580,579,578,578,578,575,572,571,566,559,548,535,532,529,527,523],"ymouse":[502,502,502,502,502,502,502,502,502,502,502,502,502,502,502,502,502,502,502,502,502,502,502,502,502,502,502,502,502,502,502,502,502,502,502,501,499,482,471,444,423,399,354,323,285,251,180,151,123,97,69,56,40,37,36,35,35,35,35,35,35,35,35,35,35,35,38],"timestamp_mouse":[8,23,49,62,83,103,123,142,162,182,203,223,242,263,282,302,322,342,362,384,403,423,444,462,482,503,522,543,563,582,602,624,644,662,684,703,723,742,763,783,802,822,843,863,890,903,924,942,963,982,1002,1022,1042,1063,1082,1103,1123,1142,1163,1183,1203,1223,1243,1263,1283,1302,1323],"xSR":741.5,"ySR":469.95,"xT1":424.9,"yT1":0,"xT2":1058.1,"yT2":0,"toosoon":0,"cond_shown":"Congruent","ratio_trial":300,"L_num":20,"L_den":25,"R_num":9,"R_den":18,"correct_side":1,"subjID":"linavaleriameloguevara ","gender":"1","school":"6","age":"10"},{"start_time":1551800702773,"click_time":1551800704041,"finger_time":1551800703680,"fix_duration":812.2058185113715,"trial":27,"RT":907,"MT":361,"sideResp":2,"stimulus":[],"xmouse":[803,803,803,803,803,803,803,803,803,803,803,803,803,803,803,803,803,803,803,803,803,803,803,803,803,803,803,803,803,803,803,803,803,803,803,803,803,803,803,803,803,803,808,815,830,844,861,885,915,960,991,1001,1021,1044,1053,1059,1066,1069,1075,1077,1078,1081,1081,1082],"ymouse":[531,531,531,531,531,531,531,531,531,531,531,531,531,531,531,531,531,531,531,531,531,531,531,531,531,531,531,531,531,531,531,531,531,531,531,531,531,531,531,527,523,518,504,494,470,458,440,421,400,362,326,314,279,235,216,204,191,179,155,152,143,127,110,83],"timestamp_mouse":[10,33,48,67,88,107,129,147,167,188,207,227,248,267,288,308,329,347,368,389,407,427,448,467,488,507,528,547,568,587,609,628,647,668,688,707,729,747,767,788,807,827,848,868,888,907,928,947,968,987,1008,1029,1047,1068,1087,1108,1128,1148,1168,1187,1207,1227,1249,1268],"xSR":741.5,"ySR":469.95,"xT1":424.9,"yT1":0,"xT2":1058.1,"yT2":0,"toosoon":0,"cond_shown":"Incongruent","ratio_trial":300,"L_num":13,"L_den":26,"R_num":12,"R_den":15,"correct_side":2,"subjID":"linavaleriameloguevara ","gender":"1","school":"6","age":"10"},{"start_time":1551800707753,"click_time":1551800709081,"finger_time":1551800708382,"fix_duration":1050.1410505695733,"trial":28,"RT":629,"MT":699,"sideResp":2,"stimulus":[],"xmouse":[794,794,794,794,794,794,794,794,794,794,794,794,794,794,794,794,794,794,791,787,777,768,760,756,753,751,748,747,745,743,742,741,740,736,732,727,725,724,723,723,723,723,729,738,752,755,760,766,774,797,811,831,859,879,890,919,931,942,952,981,995,1010,1023,1051,1075,1079,1088],"ymouse":[535,535,535,535,535,535,535,535,535,535,535,535,535,535,535,535,535,535,531,529,520,513,508,504,502,501,501,500,500,500,499,498,497,495,494,490,487,486,485,485,485,484,482,480,475,473,470,464,456,429,416,397,370,352,340,305,292,274,259,222,205,185,168,138,107,105,97],"timestamp_mouse":[16,41,48,68,88,108,129,148,168,189,207,228,248,267,287,307,329,347,368,387,407,427,448,468,488,508,528,547,569,588,607,629,649,667,687,709,728,747,767,787,808,828,847,867,888,907,927,949,967,989,1008,1028,1047,1068,1088,1108,1127,1149,1168,1188,1207,1229,1248,1269,1288,1308,1328],"xSR":741.5,"ySR":469.95,"xT1":424.9,"yT1":0,"xT2":1058.1,"yT2":0,"toosoon":0,"cond_shown":"Congruent","ratio_trial":100,"L_num":15,"L_den":25,"R_num":13,"R_den":26,"correct_side":1,"subjID":"linavaleriameloguevara ","gender":"1","school":"6","age":"10"},{"start_time":1551800712192,"click_time":1551800715681,"finger_time":1551800713201,"fix_duration":530.9764952825714,"trial":29,"RT":1009,"MT":2480,"sideResp":2,"stimulus":[],"xmouse":[769,769,769,769,769,769,769,769,769,769,769,769,769,769,769,769,769,769,769,769,769,769,769,769,769,769,769,769,769,769,769,769,769,769,769,769,769,769,769,769,769,769,770,777,781,787,794,810,818,830,848,859,886,900,916,935,958,979,1044,1059,1060,1060,1060,1060,1060,1060,1060,1060,1060,1060,1060,1060,1060,1060,1060,1060,1063,1068,1068,1068,1068,1068,1068,1068,1068,1068,1068,1068,1068,1068,1068,1068,1068,1068,1068,1068,1068,1068,1068,1068,1068,1068,1068,1068,1068,1068,1068,1068,1068,1068,1068,1068,1068,1068,1068,1068,1068,1068,1068,1068,1068,1068,1068,1068,1068,1068,1068,1068,1068,1068,1068,1068,1068,1068,1068,1068,1068,1068,1068,1068,1068,1068,1068,1068,1068,1068,1068,1068,1068,1068,1068,1068,1068,1068,1068,1068,1068,1068,1068,1068,1068,1068,1068,1068,1068,1068,1068,1068,1068,1068,1066,1062,1062,1062,1064],"ymouse":[536,536,536,536,536,536,536,536,536,536,536,536,536,536,536,536,536,536,536,536,536,536,536,536,536,536,536,536,536,536,536,536,536,536,536,536,536,536,536,536,536,536,536,533,531,528,524,511,502,490,458,432,388,367,339,314,282,250,178,158,157,157,157,157,157,157,157,157,157,157,157,157,157,157,157,157,153,152,152,152,152,152,152,152,152,152,152,152,152,152,152,152,152,152,152,152,152,152,152,152,152,152,152,152,152,152,152,152,152,152,152,152,152,152,152,152,152,152,152,152,152,152,152,152,152,152,152,152,152,152,152,152,152,152,152,152,152,152,152,152,152,152,152,152,152,152,152,152,152,152,152,152,152,152,152,152,152,152,152,152,152,152,152,152,152,152,152,152,152,152,152,152,152,102,89],"timestamp_mouse":[10,33,49,70,88,110,128,149,168,189,208,230,249,270,288,309,328,348,369,388,410,428,450,468,489,510,530,550,568,589,608,629,649,670,688,709,729,750,769,789,808,829,849,869,888,908,929,949,968,989,1009,1029,1049,1068,1088,1109,1129,1148,1169,1188,1210,1228,1249,1270,1289,1308,1329,1349,1369,1390,1409,1429,1449,1468,1490,1509,1529,1549,1568,1590,1609,1629,1648,1670,1688,1710,1730,1748,1769,1788,1810,1830,1849,1868,1889,1908,1929,1950,1969,1988,2010,2028,2048,2069,2088,2110,2129,2148,2170,2188,2208,2230,2250,2268,2289,2309,2330,2349,2369,2388,2410,2428,2449,2468,2488,2509,2529,2549,2568,2590,2610,2629,2649,2668,2688,2709,2728,2749,2770,2789,2808,2829,2848,2869,2889,2908,2929,2949,2970,2990,3008,3028,3049,3070,3089,3109,3129,3150,3170,3189,3209,3228,3250,3268,3288,3309,3330,3349,3369,3389,3410,3428,3448,3469,3489],"xSR":741.5,"ySR":469.95,"xT1":424.9,"yT1":0,"xT2":1058.1,"yT2":0,"toosoon":0,"cond_shown":"Incongruent","ratio_trial":300,"L_num":13,"L_den":26,"R_num":12,"R_den":15,"correct_side":2,"subjID":"linavaleriameloguevara ","gender":"1","school":"6","age":"10"},{"start_time":1551800719756,"click_time":1551800723020,"finger_time":1551800720821,"fix_duration":1353.8357412886294,"trial":30,"RT":1065,"MT":2199,"sideResp":2,"stimulus":[],"xmouse":[777,777,777,777,777,777,777,777,777,777,777,777,777,777,777,777,777,777,777,777,777,777,777,777,777,777,777,777,777,777,777,777,777,777,777,777,777,777,777,777,777,777,777,777,777,777,777,777,779,785,789,793,799,808,814,831,841,852,865,892,908,925,942,958,998,1014,1030,1051,1051,1051,1051,1051,1051,1051,1051,1051,1051,1051,1051,1051,1051,1051,1051,1051,1051,1051,1051,1051,1051,1051,1051,1051,1051,1051,1051,1051,1051,1051,1051,1051,1051,1051,1051,1051,1051,1051,1051,1051,1051,1051,1051,1051,1051,1051,1051,1051,1051,1051,1051,1051,1051,1051,1051,1051,1051,1051,1051,1051,1051,1051,1051,1051,1051,1051,1051,1051,1051,1051,1051,1051,1051,1051,1051,1051,1051,1051,1051,1051,1051,1051,1051,1051,1051,1051,1051,1051,1051,1051,1051,1051,1051,1051,1069,1069],"ymouse":[501,501,501,501,501,501,501,501,501,501,501,501,501,501,501,501,501,501,501,501,501,501,501,501,501,501,501,501,501,501,501,501,501,501,501,501,501,501,501,501,501,501,501,501,501,501,501,501,497,491,485,480,472,460,451,425,408,389,370,327,300,272,243,211,129,95,56,12,12,12,12,12,12,12,12,12,12,12,12,12,12,12,12,12,12,12,12,12,12,12,12,12,12,12,12,12,12,12,12,12,12,12,12,12,12,12,12,12,12,12,12,12,12,12,12,12,12,12,12,12,12,12,12,12,12,12,12,12,12,12,12,12,12,12,12,12,12,12,12,12,12,12,12,12,12,12,12,12,12,12,12,12,12,12,12,12,12,12,12,12,12,12,0,3],"timestamp_mouse":[8,25,44,65,85,106,124,145,164,186,204,226,244,265,284,304,326,344,365,385,405,426,444,465,484,504,525,545,566,585,606,624,646,664,685,705,724,745,764,785,806,824,845,865,884,906,925,944,965,985,1004,1024,1044,1065,1086,1105,1125,1145,1164,1186,1204,1224,1244,1265,1285,1304,1324,1346,1364,1385,1405,1425,1444,1464,1486,1505,1525,1544,1564,1586,1606,1625,1645,1664,1685,1704,1724,1744,1765,1785,1805,1825,1846,1864,1886,1905,1924,1945,1964,1985,2005,2026,2045,2066,2086,2104,2125,2145,2164,2186,2204,2224,2244,2265,2285,2305,2325,2345,2364,2385,2406,2426,2445,2465,2486,2506,2525,2545,2564,2585,2604,2625,2645,2664,2684,2705,2725,2745,2765,2785,2804,2825,2844,2865,2885,2905,2925,2945,2965,2985,3004,3025,3044,3064,3084,3105,3125,3145,3164,3186,3204,3224,3244,3264],"xSR":741.5,"ySR":469.95,"xT1":424.9,"yT1":0,"xT2":1058.1,"yT2":0,"toosoon":0,"cond_shown":"Congruent","ratio_trial":200,"L_num":3,"L_den":12,"R_num":9,"R_den":20,"correct_side":2,"subjID":"linavaleriameloguevara ","gender":"1","school":"6","age":"10"},{"start_time":1551800725532,"click_time":1551800726781,"finger_time":1551800726341,"fix_duration":250,"trial":31,"RT":809,"MT":440,"sideResp":2,"stimulus":[],"xmouse":[826,826,826,826,826,826,826,826,826,826,826,826,826,826,826,826,826,826,826,826,826,826,826,826,826,826,826,826,826,826,826,826,826,826,826,826,826,830,833,841,855,864,867,870,880,881,892,892,893,893,899,909,917,930,940,945,959,964,979,990,1021,1038,1061],"ymouse":[502,502,502,502,502,502,502,502,502,502,502,502,502,502,502,502,502,502,502,502,502,502,502,502,502,502,502,502,502,502,502,502,502,502,502,502,502,498,497,491,482,477,474,472,466,465,457,457,456,456,450,431,411,373,346,337,282,269,229,200,138,92,40],"timestamp_mouse":[9,39,49,68,89,109,129,149,168,189,209,228,250,270,289,309,330,348,369,390,408,429,450,469,489,508,529,548,570,588,609,629,649,668,689,709,730,749,769,790,809,829,848,868,888,908,928,949,970,989,1010,1028,1049,1068,1089,1109,1128,1149,1169,1189,1209,1228,1249],"xSR":741.5,"ySR":469.95,"xT1":424.9,"yT1":0,"xT2":1058.1,"yT2":0,"toosoon":0,"cond_shown":"Incongruent","ratio_trial":200,"L_num":9,"L_den":15,"R_num":8,"R_den":10,"correct_side":2,"subjID":"linavaleriameloguevara ","gender":"1","school":"6","age":"10"},{"start_time":1551800729888,"click_time":1551800731961,"finger_time":1551800731120,"fix_duration":1184.6051536329412,"trial":32,"RT":1232,"MT":841,"sideResp":2,"stimulus":[],"xmouse":[801,801,801,801,801,801,801,801,801,801,801,801,801,801,801,801,801,801,801,801,801,801,801,801,801,801,801,801,801,801,801,801,801,801,801,801,801,801,801,801,801,801,801,801,801,802,806,806,806,810,813,819,826,827,827,827,827,827,827,827,833,837,855,865,867,872,879,893,899,908,922,941,968,974,993,995,1017,1021,1027,1030,1038,1047,1059,1059,1059,1061,1064,1066,1066,1067,1068,1068,1068,1068,1068,1069,1069,1069,1072,1073,1073,1073,1073,1079],"ymouse":[508,508,508,508,508,508,508,508,508,508,508,508,508,508,508,508,508,508,508,508,508,508,508,508,508,508,508,508,508,508,508,508,508,508,508,508,508,508,508,508,508,508,508,508,508,504,500,500,499,496,493,487,483,482,482,480,478,478,478,478,472,467,440,428,422,415,406,391,384,375,359,337,303,294,272,268,240,234,220,212,194,175,145,144,144,135,125,114,113,110,108,108,108,108,108,107,107,107,104,102,102,102,102,89],"timestamp_mouse":[13,33,53,72,92,113,132,152,173,192,213,232,252,273,293,314,334,352,372,392,412,433,453,472,492,513,534,553,573,593,614,632,653,673,693,712,732,752,773,792,814,833,853,872,892,912,934,953,972,992,1012,1032,1053,1073,1093,1112,1132,1152,1172,1193,1213,1232,1254,1273,1292,1312,1333,1353,1372,1392,1412,1433,1453,1472,1493,1512,1532,1552,1572,1593,1614,1633,1653,1672,1692,1712,1733,1753,1772,1792,1813,1834,1854,1873,1892,1913,1932,1954,1974,1993,2013,2032,2052,2073],"xSR":741.5,"ySR":469.95,"xT1":424.9,"yT1":0,"xT2":1058.1,"yT2":0,"toosoon":0,"cond_shown":"Incongruent","ratio_trial":100,"L_num":10,"L_den":25,"R_num":9,"R_den":18,"correct_side":2,"subjID":"linavaleriameloguevara ","gender":"1","school":"6","age":"10"},{"start_time":1551800737006,"click_time":1551800738720,"finger_time":1551800737880,"fix_duration":942.7661445708579,"trial":33,"RT":874,"MT":840,"sideResp":1,"stimulus":[],"xmouse":[769,769,769,769,769,769,769,769,769,769,769,769,769,769,769,769,769,769,769,769,769,769,769,769,769,769,769,769,769,769,769,769,769,769,769,769,769,769,768,765,762,750,742,733,721,704,703,703,694,678,664,637,629,620,619,611,594,594,591,590,590,590,590,590,590,590,590,590,590,586,584,584,582,582,582,582,582,582,582,581,570,561,542,538,532,524],"ymouse":[543,543,543,543,543,543,543,543,543,543,543,543,543,543,543,543,543,543,543,543,543,543,543,543,543,543,543,543,543,543,543,543,543,543,543,543,543,543,541,536,529,502,484,465,444,418,417,413,399,371,352,314,304,285,282,272,246,246,240,238,238,238,238,238,238,238,238,238,238,230,222,218,215,215,215,215,215,215,215,212,190,173,136,127,109,86],"timestamp_mouse":[16,48,56,74,96,114,135,155,175,194,215,234,256,274,296,314,335,355,374,396,415,434,455,475,496,514,534,555,574,595,615,636,655,675,694,714,736,756,774,795,814,836,855,874,894,915,935,955,975,994,1015,1035,1054,1074,1095,1115,1135,1155,1175,1196,1216,1234,1255,1275,1295,1316,1336,1354,1375,1395,1414,1434,1455,1475,1495,1515,1534,1555,1575,1594,1614,1635,1656,1675,1695,1714],"xSR":741.5,"ySR":469.95,"xT1":424.9,"yT1":0,"xT2":1058.1,"yT2":0,"toosoon":0,"cond_shown":"Congruent","ratio_trial":200,"L_num":3,"L_den":10,"R_num":14,"R_den":28,"correct_side":2,"subjID":"linavaleriameloguevara ","gender":"1","school":"6","age":"10"},{"start_time":1551800741500,"click_time":1551800742702,"finger_time":1551800742300,"fix_duration":898.8845858042552,"trial":34,"RT":800,"MT":402,"sideResp":2,"stimulus":[],"xmouse":[753,753,753,753,753,753,753,753,753,753,753,753,753,753,753,753,753,753,753,751,750,747,746,746,746,746,746,746,746,745,745,745,745,746,748,749,757,776,779,784,791,807,844,864,886,915,960,999,1011,1022,1030,1036,1045,1048,1051,1053,1053,1056,1056,1058,1059],"ymouse":[539,539,539,539,539,539,539,539,539,539,539,539,539,539,539,539,539,539,538,538,537,537,536,536,536,536,536,535,534,534,533,532,531,529,524,521,512,490,482,475,462,445,407,389,365,339,293,242,217,194,173,156,122,108,98,87,72,54,46,38,32],"timestamp_mouse":[8,22,56,60,80,101,120,141,160,181,202,221,240,262,280,301,320,342,362,381,401,421,440,460,480,501,520,541,561,581,600,622,640,661,680,702,720,742,761,780,800,822,841,861,882,902,921,941,961,982,1001,1022,1041,1061,1082,1101,1121,1141,1162,1182,1202],"xSR":741.5,"ySR":469.95,"xT1":424.9,"yT1":0,"xT2":1058.1,"yT2":0,"toosoon":0,"cond_shown":"Incongruent","ratio_trial":200,"L_num":14,"L_den":30,"R_num":12,"R_den":18,"correct_side":2,"subjID":"linavaleriameloguevara ","gender":"1","school":"6","age":"10"},{"start_time":1551800746047,"click_time":1551800747863,"finger_time":1551800747581,"fix_duration":765.4264208552089,"trial":35,"RT":1534,"MT":282,"sideResp":2,"stimulus":[],"xmouse":[778,778,778,778,778,778,778,778,778,778,778,778,778,778,778,778,778,778,778,778,778,778,778,778,778,778,778,778,778,778,778,778,778,778,778,778,778,778,778,778,778,778,778,778,778,778,778,778,778,778,778,778,778,778,778,778,778,778,778,778,778,778,778,778,778,778,778,778,778,778,778,778,784,786,822,841,864,883,917,935,960,969,980,991,1019,1035,1048,1064,1085,1095,1102],"ymouse":[532,532,532,532,532,532,532,532,532,532,532,532,532,532,532,532,532,532,532,532,532,532,532,532,532,532,532,532,532,532,532,532,532,532,532,532,532,532,532,532,532,532,532,532,532,532,532,532,532,532,532,532,532,532,532,532,532,532,532,532,532,532,532,532,532,532,532,532,532,532,532,532,528,525,507,496,483,468,443,423,396,383,364,341,296,269,240,212,168,133,64],"timestamp_mouse":[14,46,54,74,94,113,134,155,173,194,214,233,254,275,294,314,334,353,373,395,414,433,455,475,494,513,533,554,574,595,613,634,654,673,694,715,733,755,774,793,815,835,854,875,893,914,934,953,974,995,1013,1033,1055,1074,1094,1114,1135,1154,1175,1193,1214,1235,1254,1273,1294,1314,1333,1355,1374,1393,1415,1435,1455,1473,1494,1513,1534,1555,1576,1595,1616,1635,1655,1675,1697,1715,1735,1756,1775,1795,1816],"xSR":741.5,"ySR":469.95,"xT1":424.9,"yT1":0,"xT2":1058.1,"yT2":0,"toosoon":0,"cond_shown":"Congruent","ratio_trial":200,"L_num":5,"L_den":10,"R_num":14,"R_den":20,"correct_side":2,"subjID":"linavaleriameloguevara ","gender":"1","school":"6","age":"10"},{"start_time":1551800749613,"click_time":1551800750623,"finger_time":1551800750223,"fix_duration":330.9135008296038,"trial":36,"RT":610,"MT":400,"sideResp":2,"stimulus":[],"xmouse":[791,791,791,791,791,791,791,791,791,791,791,791,791,791,791,791,791,791,791,791,791,791,791,791,791,791,791,791,791,791,792,794,803,812,822,831,855,862,871,879,895,904,924,936,947,961,999,1019,1038,1058,1083],"ymouse":[486,486,486,486,486,486,486,486,486,486,486,486,486,486,486,486,486,486,486,486,485,484,480,479,477,476,475,473,471,470,466,462,437,418,399,380,344,329,318,307,290,280,259,248,238,220,181,159,135,113,82],"timestamp_mouse":[9,39,50,70,91,109,130,149,169,190,209,230,251,270,291,310,330,349,370,389,409,429,450,469,489,510,529,549,569,589,610,630,650,671,691,710,730,749,769,790,810,829,849,869,890,909,930,949,969,989,1010],"xSR":741.5,"ySR":469.95,"xT1":424.9,"yT1":0,"xT2":1058.1,"yT2":0,"toosoon":0,"cond_shown":"Congruent","ratio_trial":100,"L_num":7,"L_den":14,"R_num":15,"R_den":25,"correct_side":2,"subjID":"linavaleriameloguevara ","gender":"1","school":"6","age":"10"},{"start_time":1551800753524,"click_time":1551800755122,"finger_time":1551800754882,"fix_duration":257.60625084480836,"trial":37,"RT":1358,"MT":240,"sideResp":1,"stimulus":[],"xmouse":[767,767,767,767,767,767,767,767,767,767,767,767,767,767,767,767,767,767,767,767,767,767,767,767,767,767,767,767,767,767,767,767,767,767,767,767,767,767,767,767,767,767,767,767,767,767,767,767,767,767,767,769,771,772,772,773,773,774,774,774,774,774,774,774,773,770,764,750,741,725,711,686,672,656,644,625,609,571,552,532,524],"ymouse":[551,551,551,551,551,551,551,551,551,551,551,551,551,551,551,551,551,551,551,551,551,551,551,551,551,551,551,551,551,551,550,549,549,549,549,549,549,549,549,549,549,549,549,549,549,549,549,549,546,545,538,526,522,520,519,518,515,514,513,512,510,506,504,502,500,496,493,484,476,466,450,412,383,353,318,263,228,157,121,87,61],"timestamp_mouse":[1,19,41,59,79,100,118,138,158,180,199,218,238,258,278,298,319,338,358,379,398,418,438,458,479,498,520,538,560,579,598,618,639,659,678,700,718,738,759,778,798,819,840,859,879,898,918,938,958,978,999,1019,1039,1059,1078,1099,1119,1139,1158,1178,1198,1219,1238,1259,1279,1298,1318,1339,1358,1379,1398,1418,1438,1458,1478,1499,1519,1539,1559,1579,1598],"xSR":741.5,"ySR":469.95,"xT1":424.9,"yT1":0,"xT2":1058.1,"yT2":0,"toosoon":0,"cond_shown":"Congruent","ratio_trial":100,"L_num":9,"L_den":15,"R_num":8,"R_den":16,"correct_side":1,"subjID":"linavaleriameloguevara ","gender":"1","school":"6","age":"10"},{"start_time":1551800756814,"click_time":1551800758943,"finger_time":1551800758383,"fix_duration":250,"trial":38,"RT":1569,"MT":560,"sideResp":1,"stimulus":[],"xmouse":[789,789,789,789,789,789,789,789,789,789,789,789,789,789,789,789,789,789,789,789,789,789,789,789,789,789,789,789,789,789,789,789,789,789,789,789,789,789,789,789,789,789,789,789,789,789,789,789,789,789,789,789,789,789,789,789,789,789,789,789,789,789,789,789,789,789,789,789,789,789,789,789,789,789,789,787,764,743,709,682,660,656,654,654,652,651,648,647,645,644,640,634,630,626,621,616,607,600,589,585,578,558,547,537,527,516,489],"ymouse":[513,513,513,513,513,513,513,513,513,513,513,513,513,513,513,513,513,513,513,513,513,513,513,513,513,513,513,513,513,513,513,513,513,513,513,513,513,513,513,513,513,513,513,513,513,513,513,513,513,513,513,513,513,513,513,513,513,513,513,513,513,513,513,513,513,513,513,513,513,513,513,513,513,513,512,509,491,478,456,437,416,412,404,399,393,387,379,375,370,365,354,334,322,308,292,279,270,256,245,243,237,214,197,182,161,140,94],"timestamp_mouse":[8,39,49,69,89,108,128,149,168,189,209,228,249,268,289,308,328,348,370,388,408,428,449,469,490,509,529,548,568,589,608,628,648,669,688,708,729,749,768,789,808,829,848,869,888,909,928,948,968,988,1009,1029,1048,1068,1088,1108,1129,1149,1168,1188,1208,1229,1248,1268,1290,1309,1329,1349,1370,1389,1408,1428,1448,1468,1489,1508,1528,1548,1569,1589,1608,1629,1649,1668,1689,1709,1729,1748,1768,1788,1809,1829,1848,1869,1889,1908,1929,1948,1969,1988,2008,2029,2048,2068,2088,2110,2129],"xSR":741.5,"ySR":469.95,"xT1":424.9,"yT1":0,"xT2":1058.1,"yT2":0,"toosoon":0,"cond_shown":"Incongruent","ratio_trial":300,"L_num":1,"L_den":2,"R_num":3,"R_den":15,"correct_side":1,"subjID":"linavaleriameloguevara ","gender":"1","school":"6","age":"10"},{"start_time":1551800761248,"click_time":1551800763182,"finger_time":1551800762662,"fix_duration":744.9256800865502,"trial":39,"RT":1414,"MT":520,"sideResp":1,"stimulus":[],"xmouse":[808,808,808,808,808,808,808,808,808,808,808,808,808,808,808,808,808,808,808,808,808,808,808,808,808,808,808,808,808,808,808,808,808,808,808,808,809,809,809,809,809,809,809,809,807,805,803,801,798,797,795,794,793,792,792,792,791,791,791,791,791,791,791,791,791,790,789,785,783,771,763,755,744,735,722,713,705,696,689,669,661,655,646,639,622,615,609,603,598,579,572,564,557,549,533,527,518],"ymouse":[519,519,519,519,519,519,519,519,519,519,519,519,519,519,519,519,519,519,519,519,519,519,519,519,519,519,519,519,519,519,519,519,519,519,519,519,519,516,514,512,509,508,506,505,503,501,499,497,495,493,491,490,489,488,487,487,487,487,487,487,487,487,487,487,487,486,486,484,482,474,462,451,436,419,393,380,367,356,348,331,324,318,310,304,290,282,275,268,259,234,219,200,178,153,110,93,78],"timestamp_mouse":[14,43,54,74,95,114,134,156,175,195,214,236,255,276,295,314,336,355,374,394,415,435,455,474,494,515,534,555,575,595,614,636,654,674,696,715,734,755,775,794,815,835,854,874,895,914,934,954,974,994,1015,1036,1054,1074,1095,1115,1136,1155,1174,1194,1214,1236,1255,1274,1295,1314,1335,1355,1375,1394,1414,1434,1455,1474,1494,1514,1534,1554,1575,1594,1614,1634,1655,1676,1695,1714,1735,1754,1774,1794,1814,1834,1854,1874,1895,1914,1934],"xSR":741.5,"ySR":469.95,"xT1":424.9,"yT1":0,"xT2":1058.1,"yT2":0,"toosoon":0,"cond_shown":"Incongruent","ratio_trial":200,"L_num":1,"L_den":3,"R_num":2,"R_den":15,"correct_side":1,"subjID":"linavaleriameloguevara ","gender":"1","school":"6","age":"10"},{"start_time":1551800765955,"click_time":1551800767362,"finger_time":1551800766802,"fix_duration":1470.4296358290565,"trial":40,"RT":847,"MT":560,"sideResp":1,"stimulus":[],"xmouse":[809,809,809,809,809,809,809,809,809,809,809,809,809,809,809,809,809,809,809,809,809,809,809,809,809,809,809,809,809,809,809,809,809,809,809,809,809,809,806,797,782,762,740,710,690,656,644,632,623,614,604,601,600,600,600,600,599,599,597,597,591,587,584,580,579,574,571,565,552,533,484],"ymouse":[526,526,526,526,526,526,526,526,526,526,526,526,526,526,526,526,526,526,526,526,526,526,526,526,526,526,526,526,526,526,526,526,526,526,526,526,526,526,522,513,501,481,461,429,409,358,331,308,289,274,255,249,242,235,222,216,210,202,193,184,167,160,154,148,145,144,142,137,128,116,82],"timestamp_mouse":[8,43,47,68,87,107,129,148,167,187,207,228,248,269,288,309,328,347,368,388,407,427,448,468,487,508,529,548,568,587,608,628,647,667,688,708,728,748,767,788,807,828,847,868,887,908,927,948,968,987,1007,1027,1047,1067,1087,1107,1128,1148,1167,1187,1207,1228,1248,1267,1287,1307,1328,1348,1367,1387,1407],"xSR":741.5,"ySR":469.95,"xT1":424.9,"yT1":0,"xT2":1058.1,"yT2":0,"toosoon":0,"cond_shown":"Congruent","ratio_trial":300,"L_num":20,"L_den":25,"R_num":8,"R_den":16,"correct_side":1,"subjID":"linavaleriameloguevara ","gender":"1","school":"6","age":"10"},{"start_time":1551800769075,"click_time":1551800771364,"finger_time":1551800770083,"fix_duration":332.53146504609566,"trial":41,"RT":1008,"MT":1281,"sideResp":2,"stimulus":[],"xmouse":[785,785,785,785,785,785,785,785,785,785,785,785,785,785,785,785,785,785,785,785,785,785,785,785,785,785,785,785,785,785,785,785,785,785,785,785,785,785,785,785,785,785,785,789,791,793,798,799,801,813,821,828,835,868,877,877,877,877,877,877,877,877,877,877,877,877,884,889,889,889,889,889,889,889,889,889,889,889,889,889,889,889,889,889,889,889,889,889,889,889,889,889,889,889,889,889,889,889,889,889,889,889,889,896,915,934,963,1012,1056,1079,1093,1110,1123,1134,1149],"ymouse":[519,519,519,519,519,519,519,519,519,519,519,519,519,519,519,519,519,519,519,519,519,519,519,519,519,519,519,519,519,519,519,519,519,519,519,519,519,519,519,519,519,519,519,514,510,506,500,499,496,480,469,458,443,406,396,396,396,396,396,396,396,396,396,396,396,396,388,385,385,385,385,385,385,385,385,385,385,385,385,385,385,385,385,385,385,385,385,385,385,385,385,385,385,385,385,385,385,385,385,385,385,384,381,359,331,309,275,230,188,169,159,143,127,116,94],"timestamp_mouse":[10,31,47,68,87,109,127,149,168,188,207,227,247,267,288,308,328,347,368,388,409,427,447,467,489,507,528,547,567,588,607,628,647,669,688,708,728,749,769,788,808,828,849,868,887,907,927,949,967,988,1008,1027,1047,1069,1087,1108,1128,1147,1167,1187,1207,1227,1247,1268,1287,1308,1327,1347,1368,1389,1408,1428,1448,1468,1487,1508,1527,1547,1567,1587,1608,1627,1647,1667,1687,1708,1728,1747,1768,1787,1809,1829,1848,1868,1887,1907,1928,1947,1968,1987,2008,2028,2047,2068,2087,2108,2127,2148,2168,2187,2207,2228,2248,2268,2288],"xSR":741.5,"ySR":469.95,"xT1":424.9,"yT1":0,"xT2":1058.1,"yT2":0,"toosoon":0,"cond_shown":"Incongruent","ratio_trial":300,"L_num":4,"L_den":20,"R_num":2,"R_den":4,"correct_side":2,"subjID":"linavaleriameloguevara ","gender":"1","school":"6","age":"10"},{"start_time":1551800784875,"click_time":1551800786083,"finger_time":1551800785743,"fix_duration":250,"trial":42,"RT":868,"MT":340,"sideResp":2,"stimulus":[],"xmouse":[775,775,775,776,776,776,776,776,776,776,776,776,776,776,776,776,776,776,776,776,776,776,775,772,771,771,771,771,771,771,771,771,771,771,771,771,771,771,771,771,771,779,784,814,831,841,854,868,907,922,935,940,953,980,993,998,1008,1018,1037,1049,1061],"ymouse":[520,520,520,518,518,518,518,518,518,518,518,518,518,518,518,518,518,518,515,514,510,509,502,491,488,486,485,485,485,485,485,485,485,485,485,485,485,485,485,485,485,482,480,465,457,451,442,432,394,374,351,346,320,274,251,238,221,196,149,122,97],"timestamp_mouse":[10,35,48,67,88,107,128,147,167,187,207,228,247,267,287,307,327,347,369,387,407,427,447,468,488,508,528,547,568,589,608,627,649,669,688,709,727,747,768,788,808,828,847,868,887,907,927,947,967,987,1008,1028,1047,1068,1087,1107,1127,1148,1167,1187,1208],"xSR":741.5,"ySR":469.95,"xT1":424.9,"yT1":0,"xT2":1058.1,"yT2":0,"toosoon":0,"cond_shown":"Incongruent","ratio_trial":100,"L_num":12,"L_den":30,"R_num":2,"R_den":4,"correct_side":2,"subjID":"linavaleriameloguevara ","gender":"1","school":"6","age":"10"},{"start_time":1551800788402,"click_time":1551800790764,"finger_time":1551800789742,"fix_duration":978.4935827622819,"trial":43,"RT":1340,"MT":1022,"sideResp":1,"stimulus":[],"xmouse":[791,791,791,791,791,791,791,791,791,791,791,791,791,791,791,791,791,791,791,791,791,791,791,791,791,791,791,791,791,791,791,791,791,791,791,791,791,791,791,791,791,791,791,791,791,791,791,791,791,791,791,791,791,791,791,791,791,791,791,791,791,791,791,791,790,787,784,767,763,757,752,746,724,719,706,689,671,652,616,604,593,583,580,568,562,556,548,539,538,538,538,538,538,538,538,538,538,537,536,536,536,536,536,536,536,536,536,536,536,536,536,536,536,536,535,534,530,526,524],"ymouse":[495,495,495,495,495,495,495,495,495,495,495,495,495,495,495,495,495,495,495,495,495,495,495,495,495,495,495,495,495,495,495,495,495,495,495,495,495,495,495,495,495,495,495,495,495,495,495,495,495,495,495,495,495,495,495,495,495,495,495,495,495,495,495,494,490,481,472,446,435,419,407,386,332,323,296,268,237,209,160,143,125,113,106,97,93,92,88,84,84,84,84,84,84,84,84,84,84,84,84,84,84,84,84,84,84,84,84,84,84,84,84,84,84,84,83,83,82,80,80],"timestamp_mouse":[8,21,53,60,80,100,120,141,162,180,201,222,241,260,282,300,321,341,361,380,400,421,441,460,480,502,521,540,561,580,601,620,640,660,681,700,721,740,762,780,801,820,841,860,881,900,920,941,961,980,1000,1021,1041,1061,1080,1101,1122,1141,1160,1180,1201,1220,1240,1261,1280,1301,1320,1340,1360,1380,1400,1421,1441,1460,1481,1500,1520,1540,1560,1581,1601,1621,1640,1662,1681,1700,1721,1741,1760,1780,1800,1821,1841,1861,1881,1901,1920,1940,1960,1980,2001,2021,2041,2060,2080,2101,2120,2141,2160,2181,2201,2220,2241,2261,2281,2300,2320,2341,2362],"xSR":741.5,"ySR":469.95,"xT1":424.9,"yT1":0,"xT2":1058.1,"yT2":0,"toosoon":0,"cond_shown":"Congruent","ratio_trial":200,"L_num":9,"L_den":20,"R_num":4,"R_den":16,"correct_side":1,"subjID":"linavaleriameloguevara ","gender":"1","school":"6","age":"10"},{"start_time":1551800794379,"click_time":1551800797283,"finger_time":1551800795003,"fix_duration":1413.2694212532924,"trial":44,"RT":624,"MT":2280,"sideResp":1,"stimulus":[],"xmouse":[762,762,762,762,762,762,762,762,762,762,762,762,762,762,762,762,762,762,762,762,762,762,762,762,762,762,762,762,761,755,749,733,726,713,713,713,713,713,705,700,680,675,667,650,641,635,631,631,631,621,618,603,600,597,596,596,596,596,594,589,587,580,579,579,579,579,579,579,579,579,579,579,579,579,579,579,579,579,579,579,579,580,578,572,568,567,567,566,561,557,556,556,556,563,573,573,582,607,612,637,637,637,637,637,637,637,637,635,635,633,633,633,633,633,631,631,632,624,615,586,568,559,559,559,559,559,559,559,559,559,559,559,559,559,559,559,559,559,559,559,559,559,559,559,559,436],"ymouse":[482,482,482,482,482,482,482,482,482,482,482,482,482,482,482,482,482,482,482,482,482,482,482,482,482,482,482,482,482,478,475,467,463,456,456,456,456,456,442,432,410,402,387,359,342,323,305,305,305,286,276,242,224,210,201,201,201,201,189,181,177,168,167,167,167,167,167,167,167,167,167,167,167,167,167,167,167,167,167,167,167,164,155,142,133,131,131,131,120,119,119,119,119,136,147,147,154,172,175,193,193,193,193,193,193,193,193,189,189,185,185,185,186,188,192,192,194,160,125,59,25,10,10,10,10,10,10,10,10,10,10,10,10,10,10,10,10,10,10,10,10,10,10,10,10,11],"timestamp_mouse":[10,33,44,63,83,104,123,143,164,184,203,223,244,264,284,303,324,344,363,384,403,424,443,463,483,503,524,543,564,584,604,624,644,664,683,703,724,744,764,783,804,823,844,863,884,905,924,944,963,983,1004,1023,1043,1063,1084,1103,1123,1144,1163,1183,1203,1223,1243,1264,1284,1304,1323,1343,1364,1383,1404,1423,1445,1464,1484,1504,1524,1543,1564,1583,1603,1624,1645,1663,1684,1703,1723,1743,1763,1783,1803,1823,1844,1863,1883,1903,1925,1944,1963,1984,2004,2023,2044,2064,2084,2105,2124,2143,2163,2184,2204,2224,2243,2264,2285,2304,2324,2344,2363,2384,2404,2423,2445,2465,2484,2503,2523,2544,2563,2584,2605,2624,2644,2663,2684,2704,2723,2743,2764,2784,2803,2824,2843,2863,2884,2903],"xSR":741.5,"ySR":469.95,"xT1":424.9,"yT1":0,"xT2":1058.1,"yT2":0,"toosoon":0,"cond_shown":"Congruent","ratio_trial":100,"L_num":8,"L_den":16,"R_num":2,"R_den":5,"correct_side":1,"subjID":"linavaleriameloguevara ","gender":"1","school":"6","age":"10"},{"start_time":1551800811728,"click_time":1551800812943,"finger_time":1551800812542,"fix_duration":1383.337138506618,"trial":45,"RT":814,"MT":401,"sideResp":1,"stimulus":[],"xmouse":[784,784,784,784,784,784,784,784,784,784,784,784,784,784,784,784,784,784,784,783,780,780,780,780,780,780,780,780,780,780,780,780,780,780,780,779,775,769,757,744,741,713,701,690,676,670,662,659,656,652,644,635,624,611,593,570,562,555,545,534,523],"ymouse":[524,524,524,524,524,524,524,524,524,524,524,524,524,524,524,524,524,524,524,524,524,524,524,524,524,524,524,524,524,524,524,524,524,524,524,523,521,516,510,502,501,475,461,446,420,405,379,365,351,337,313,297,276,253,220,178,161,143,126,105,88],"timestamp_mouse":[15,46,54,74,95,115,134,154,176,194,215,235,254,276,296,315,336,354,375,395,415,435,455,476,494,515,534,554,575,594,615,636,654,675,695,714,734,754,776,794,814,834,855,874,894,914,934,954,974,996,1015,1035,1055,1074,1094,1116,1134,1155,1176,1194,1214],"xSR":741.5,"ySR":469.95,"xT1":424.9,"yT1":0,"xT2":1058.1,"yT2":0,"toosoon":0,"cond_shown":"Congruent","ratio_trial":200,"L_num":11,"L_den":22,"R_num":3,"R_den":10,"correct_side":1,"subjID":"linavaleriameloguevara ","gender":"1","school":"6","age":"10"},{"start_time":1551800814634,"click_time":1551800815822,"finger_time":1551800815303,"fix_duration":250,"trial":46,"RT":669,"MT":519,"sideResp":1,"stimulus":[],"xmouse":[797,797,797,797,797,797,797,797,797,797,797,797,797,797,797,797,797,797,797,797,797,797,797,797,797,797,797,797,797,797,796,794,789,781,770,755,740,722,706,689,650,632,618,606,597,588,578,577,576,575,572,567,562,552,551,535,531,522,512,505],"ymouse":[493,493,493,493,493,493,493,493,493,493,493,493,493,493,493,493,493,493,493,493,492,490,489,489,489,488,488,488,488,487,486,482,476,467,450,436,418,397,375,350,300,282,269,257,248,243,236,235,233,230,225,216,209,196,193,164,153,137,116,91],"timestamp_mouse":[8,43,48,68,88,109,130,148,170,188,209,229,250,268,288,310,328,349,368,388,408,429,448,470,488,509,529,549,569,588,608,629,648,669,689,709,728,750,768,789,809,828,849,868,888,909,928,948,969,989,1011,1028,1048,1068,1089,1109,1128,1149,1170,1188],"xSR":741.5,"ySR":469.95,"xT1":424.9,"yT1":0,"xT2":1058.1,"yT2":0,"toosoon":0,"cond_shown":"Congruent","ratio_trial":200,"L_num":21,"L_den":30,"R_num":2,"R_den":4,"correct_side":1,"subjID":"linavaleriameloguevara ","gender":"1","school":"6","age":"10"},{"start_time":1551800819087,"click_time":1551800820782,"finger_time":1551800819963,"fix_duration":363.19392433727404,"trial":47,"RT":876,"MT":819,"sideResp":2,"stimulus":[],"xmouse":[752,752,752,752,752,752,752,752,752,752,752,752,752,752,752,752,752,752,752,752,752,752,752,752,752,752,752,752,752,752,752,752,752,752,752,752,752,753,756,761,770,779,800,810,818,830,849,872,883,898,913,929,943,973,985,996,1000,1008,1011,1016,1018,1020,1024,1030,1033,1036,1039,1040,1040,1040,1040,1040,1040,1040,1040,1040,1040,1040,1040,1040,1040,1040,1044,1055,1067],"ymouse":[522,522,522,522,522,522,522,522,522,522,522,522,522,522,522,522,522,522,522,522,522,522,522,522,522,522,522,522,522,522,522,522,522,522,522,522,522,521,518,512,504,495,477,467,458,444,417,386,367,344,323,301,280,233,204,179,171,140,126,115,105,97,88,70,64,56,44,37,36,36,36,36,36,36,36,36,36,36,36,36,36,36,36,42,44],"timestamp_mouse":[16,43,55,76,95,117,136,156,175,195,215,236,256,275,297,315,337,355,376,395,416,435,456,475,495,516,537,556,577,597,615,637,656,675,696,717,736,755,776,795,816,835,856,876,895,915,936,955,976,995,1015,1035,1055,1075,1096,1115,1135,1156,1175,1196,1215,1235,1255,1275,1297,1316,1336,1355,1375,1395,1415,1436,1456,1476,1495,1515,1536,1556,1575,1596,1616,1636,1656,1675,1695],"xSR":741.5,"ySR":469.95,"xT1":424.9,"yT1":0,"xT2":1058.1,"yT2":0,"toosoon":0,"cond_shown":"Congruent","ratio_trial":200,"L_num":3,"L_den":6,"R_num":14,"R_den":20,"correct_side":2,"subjID":"linavaleriameloguevara ","gender":"1","school":"6","age":"10"},{"start_time":1551800823847,"click_time":1551800825343,"finger_time":1551800825023,"fix_duration":1302.8913366381405,"trial":48,"RT":1176,"MT":320,"sideResp":1,"stimulus":[],"xmouse":[760,760,760,760,760,760,760,760,760,760,760,760,760,760,760,760,760,760,760,760,760,760,760,760,760,760,760,760,760,760,760,760,760,760,760,760,760,760,760,760,760,760,760,760,760,760,760,760,760,760,760,760,760,760,760,760,756,748,724,688,670,652,634,598,590,578,561,549,539,508,504,500,500,500,506],"ymouse":[523,523,523,523,523,523,523,523,523,523,523,523,523,523,523,523,523,523,523,523,523,523,523,523,523,523,523,523,523,523,523,523,523,523,523,523,523,523,523,523,523,523,523,523,523,523,523,523,523,523,523,523,523,523,523,520,517,509,492,462,442,424,401,350,342,325,305,290,281,227,207,185,159,131,81],"timestamp_mouse":[16,43,56,76,96,116,135,156,177,195,216,237,255,275,295,316,336,356,377,395,416,437,455,475,496,517,535,557,575,595,617,635,657,675,696,715,737,755,775,795,815,835,855,875,896,915,935,956,975,997,1017,1035,1056,1077,1095,1116,1135,1155,1176,1196,1215,1236,1255,1282,1297,1315,1336,1355,1376,1396,1415,1436,1455,1475,1495],"xSR":741.5,"ySR":469.95,"xT1":424.9,"yT1":0,"xT2":1058.1,"yT2":0,"toosoon":0,"cond_shown":"Congruent","ratio_trial":200,"L_num":6,"L_den":15,"R_num":3,"R_den":15,"correct_side":1,"subjID":"linavaleriameloguevara ","gender":"1","school":"6","age":"10"},{"start_time":1551800829311,"click_time":1551800831522,"finger_time":1551800830843,"fix_duration":1127.9544853820887,"trial":49,"RT":1532,"MT":679,"sideResp":2,"stimulus":[],"xmouse":[798,798,798,798,798,798,798,798,798,798,798,798,798,798,798,798,798,798,798,798,798,798,798,798,798,798,798,798,798,798,798,798,798,798,798,798,798,798,798,798,798,798,798,798,798,798,798,798,798,798,798,798,798,798,798,798,798,798,798,798,798,798,798,798,798,798,798,798,798,798,798,798,798,802,818,835,879,901,921,936,946,964,970,973,976,980,986,990,995,999,1005,1014,1018,1021,1027,1033,1041,1045,1048,1050,1052,1057,1060,1061,1061,1062,1063,1065,1066,1067,1068],"ymouse":[533,533,533,533,533,533,533,533,533,533,533,533,533,533,533,533,533,533,533,533,533,533,533,533,533,533,533,533,533,533,533,533,533,533,533,533,533,533,533,533,533,533,533,533,533,533,533,533,533,533,533,533,533,532,530,529,529,529,529,529,529,529,529,529,529,528,528,528,528,528,528,527,524,517,498,475,409,371,335,301,279,235,223,215,208,202,189,179,168,162,151,135,128,125,122,122,122,121,119,119,117,114,109,106,105,104,104,103,102,100,99],"timestamp_mouse":[11,39,51,73,91,113,131,152,171,193,212,233,252,273,291,311,331,351,371,393,412,433,451,473,491,513,531,551,573,591,613,632,652,672,693,711,731,751,772,792,812,832,851,872,893,912,931,952,971,993,1013,1032,1053,1072,1091,1112,1131,1153,1171,1191,1212,1231,1252,1272,1291,1312,1331,1353,1372,1392,1412,1432,1451,1472,1491,1512,1532,1551,1572,1591,1613,1632,1651,1671,1693,1711,1732,1752,1772,1791,1812,1831,1851,1872,1891,1912,1932,1951,1971,1993,2012,2032,2051,2071,2091,2112,2132,2153,2173,2192,2211],"xSR":741.5,"ySR":469.95,"xT1":424.9,"yT1":0,"xT2":1058.1,"yT2":0,"toosoon":0,"co