[{"start_time":1551901232730,"click_time":1551901240597,"finger_time":1551901232739,"fix_duration":1490.814908605692,"trial":0,"RT":9,"MT":7858,"sideResp":1,"stimulus":"img/500/randomdotsizeEA/R/12_Ratio_500_L_1_R_2.png","xmouse":[809,809,809,809,809,809,809,809,809,809,809,809,809,809,809,809,809,809,809,809,809,809,809,809,809,809,809,809,809,808,806,803,803,803,814,837,872,905,962,977,1000,1027,1112,1153,1192,1223,1242,1251,1252,1252,1254,1257,1273,1280,1282,1282,1282,1282,1281,1281,1281,1280,1280,1280,1280,1280,1280,1280,1280,1280,1280,1280,1280,1280,1280,1280,1280,1280,1280,1280,1280,1280,1280,1279,1277,1275,1275,1275,1275,1275,1275,1275,1275,1275,1275,1275,1275,1275,1275,1275,1275,1275,1275,1275,1275,1275,1275,1275,1275,1275,1275,1275,1275,1275,1275,1275,1275,1275,1275,1275,1275,1275,1275,1275,1275,1275,1275,1275,1275,1275,1275,1275,1275,1275,1275,1275,1275,1275,1275,1275,1275,1275,1275,1275,1275,1275,1275,1275,1275,1275,1275,1274,1274,1274,1274,1274,1274,1274,1274,1274,1274,1274,1273,1272,1272,1272,1272,1272,1272,1272,1271,1271,1271,1271,1271,1271,1271,1271,1271,1271,1271,1271,1271,1271,1271,1271,1271,1271,1271,1271,1271,1271,1271,1271,1271,1271,1271,1271,1271,1271,1271,1271,1271,1271,1271,1271,1271,1271,1271,1271,1271,1271,1271,1271,1271,1271,1271,1271,1271,1271,1271,1271,1271,1271,1271,1271,1271,1271,1271,1271,1271,1271,1271,1271,1271,1271,1271,1271,1270,1270,1267,1265,1260,1260,1259,1259,1259,1259,1259,1259,1259,1259,1259,1259,1259,1259,1259,1259,1259,1259,1259,1259,1259,1259,1259,1259,1259,1259,1259,1259,1257,1249,1244,1238,1237,1236,1236,1236,1236,1236,1236,1236,1237,1237,1238,1242,1252,1252,1252,1252,1252,1252,1252,1252,1252,1252,1252,1252,1252,1252,1252,1252,1252,1252,1252,1252,1252,1252,1252,1252,1252,1252,1252,1252,1252,1252,1252,1252,1252,1252,1252,1252,1252,1252,1252,1252,1252,1252,1252,1252,1252,1252,1252,1252,1252,1252,1252,1252,1252,1252,1252,1252,1252,1252,1252,1252,1252,1252,1252,1252,1252,1252,1252,1252,1239,1197,1130,950,872,806,726,683,645,637,627,598,568,487,439,391,337,277,262,262,262,260,260,260,273,278,286,298,308,312,315,317,322,328,353,366,372,387,401,442],"ymouse":[516,516,516,516,516,516,516,516,516,516,516,516,516,516,516,516,516,516,516,516,516,516,516,516,516,516,516,516,516,518,522,538,551,609,656,703,755,788,813,814,815,819,830,836,837,837,836,829,825,820,815,806,777,752,735,724,713,707,700,700,699,697,697,697,697,697,697,697,697,697,697,697,697,697,697,697,697,697,697,697,697,697,697,698,703,708,712,712,712,712,712,712,712,712,712,712,712,712,712,712,712,712,712,712,712,712,712,712,712,712,712,712,712,712,712,712,712,712,712,712,712,712,713,713,713,713,713,713,713,713,713,713,713,713,713,713,713,713,713,713,713,713,713,713,713,713,713,713,713,714,714,715,716,716,716,716,716,716,716,716,716,716,717,719,719,719,720,720,720,720,722,722,722,722,722,722,723,723,723,723,723,723,723,723,723,723,723,723,723,723,723,723,723,723,723,723,723,723,723,723,723,723,723,723,723,723,723,723,723,723,723,723,723,723,723,723,723,723,723,723,723,723,723,723,723,723,723,723,723,723,723,723,723,723,723,723,723,723,722,715,697,664,638,634,633,633,633,633,633,633,633,633,633,633,633,633,633,633,633,633,633,633,633,633,633,633,633,633,633,633,632,642,655,687,700,707,713,715,715,716,716,716,717,718,734,763,824,824,824,824,824,824,824,824,824,824,824,824,824,824,824,824,824,824,824,824,824,824,824,824,824,824,824,824,824,824,824,824,824,824,824,824,824,824,824,824,824,824,824,824,824,824,824,824,824,824,824,824,824,824,824,824,824,824,824,824,824,824,824,824,824,824,824,824,873,844,803,725,696,662,626,605,571,554,530,491,456,379,339,301,253,201,170,150,116,66,11,0,0,0,0,0,0,2,5,11,18,28,52,59,61,63,65,66],"timestamp_mouse":[8,24,45,64,84,104,124,145,164,184,205,224,245,265,284,304,325,345,364,385,404,424,444,463,484,504,524,544,564,584,604,624,644,665,684,704,725,744,764,785,804,825,845,865,885,904,924,944,965,984,1004,1025,1044,1064,1084,1104,1124,1144,1165,1185,1204,1224,1245,1265,1284,1304,1324,1345,1366,1386,1406,1426,1446,1465,1486,1505,1526,1546,1565,1585,1605,1625,1646,1666,1686,1705,1727,1747,1766,1786,1806,1825,1847,1867,1886,1906,1926,1946,1966,1985,2006,2026,2047,2066,2086,2106,2125,2145,2165,2186,2205,2225,2246,2266,2285,2306,2325,2347,2367,2387,2406,2426,2446,2465,2485,2505,2525,2546,2565,2587,2607,2625,2646,2666,2686,2706,2725,2746,2766,2785,2805,2825,2845,2866,2885,2906,2927,2946,2965,2987,3005,3025,3046,3066,3085,3106,3126,3146,3166,3186,3206,3225,3246,3266,3285,3306,3326,3346,3366,3386,3407,3426,3446,3465,3485,3506,3526,3546,3566,3585,3606,3625,3646,3667,3687,3705,3726,3746,3765,3785,3805,3826,3846,3865,3886,3906,3926,3946,3965,3986,4006,4026,4046,4066,4085,4105,4126,4145,4165,4187,4206,4225,4246,4266,4285,4306,4326,4345,4366,4385,4405,4426,4445,4466,4486,4506,4526,4545,4566,4585,4605,4627,4646,4666,4685,4705,4726,4745,4765,4785,4805,4827,4846,4866,4885,4905,4926,4947,4966,4987,5005,5026,5046,5065,5086,5105,5126,5147,5167,5185,5206,5225,5245,5265,5286,5307,5326,5346,5366,5386,5407,5425,5446,5466,5486,5506,5526,5545,5566,5586,5606,5626,5645,5665,5685,5706,5726,5746,5765,5786,5805,5825,5846,5867,5886,5905,5925,5946,5965,5985,6005,6025,6045,6065,6085,6105,6125,6145,6166,6186,6206,6227,6245,6265,6285,6305,6325,6346,6366,6386,6406,6426,6445,6465,6486,6505,6525,6546,6566,6586,6605,6627,6646,6666,6685,6706,6725,6745,6765,6785,6806,6827,6845,6865,6885,6905,6926,6946,6966,6987,7005,7025,7046,7065,7085,7106,7125,7145,7165,7186,7205,7225,7245,7265,7286,7306,7326,7346,7365,7385,7406,7426,7445,7466,7486,7505,7526,7545,7565,7585,7605,7626,7646,7665,7685,7705,7727,7745,7766,7785,7806,7826,7846,7867],"xSR":741.5,"ySR":481,"xT1":424.9,"yT1":0,"xT2":1058.1,"yT2":0,"toosoon":0,"cond_shown":"randomdotsizeEA","ratio_trial":500,"smaller_num":"1","larger_num":"2","correct_side":2,"subjID":"LizethLopez14","gender":"1","age":"11","school":"6","test":{"fix_dur":[250,1500],"timestim":300,"targets_dim":[100,100],"targets_relative_coord":[0.3,0.7],"size_stim":[880,420],"start_dim":[100,100],"size_start":[300,300],"size_fix":60,"samplingrate":20,"img_types":["equaldotsize","equaldotanddens","randomdotsizeEA"],"ratios":[250,500,750,900],"rep_conds":9,"nTrials":120,"trials_to_rest":500,"Trials_order":[77,91,40,73,51,16,95,98,38,6,8,88,2,74,15,119,89,18,92,100,11,66,53,29,75,32,65,52,111,82,54,0,23,101,30,59,25,5,83,47,105,115,60,79,20,70,114,7,113,68,97,69,104,118,64,24,19,37,10,96,3,55,56,80,62,21,76,63,49,84,9,46,48,94,103,41,112,93,67,86,78,36,108,12,28,26,109,4,110,35,72,14,81,90,17,27,22,42,43,31,33,107,45,58,116,102,50,57,71,44,1,117,85,106,13,34,99,61,39,87],"cond_shown":["randomdotsizeEA","equaldotanddens","equaldotanddens","equaldotanddens","equaldotsize","equaldotanddens","randomdotsizeEA","randomdotsizeEA","randomdotsizeEA","equaldotsize","randomdotsizeEA","equaldotanddens","randomdotsizeEA","randomdotsizeEA","equaldotsize","randomdotsizeEA","randomdotsizeEA","equaldotsize","randomdotsizeEA","equaldotanddens","randomdotsizeEA","equaldotsize","randomdotsizeEA","randomdotsizeEA","equaldotsize","randomdotsizeEA","randomdotsizeEA","equaldotanddens","equaldotsize","equaldotanddens","equaldotsize","equaldotsize","randomdotsizeEA","randomdotsizeEA","equaldotsize","randomdotsizeEA","equaldotanddens","randomdotsizeEA","randomdotsizeEA","randomdotsizeEA","equaldotsize","equaldotanddens","equaldotsize","equaldotanddens","randomdotsizeEA","equaldotanddens","equaldotsize","equaldotanddens","randomdotsizeEA","randomdotsizeEA","equaldotanddens","equaldotsize","randomdotsizeEA","equaldotanddens","equaldotanddens","equaldotsize","equaldotanddens","equaldotanddens","equaldotanddens","equaldotsize","equaldotsize","equaldotanddens","randomdotsizeEA","randomdotsizeEA","randomdotsizeEA","equaldotsize","equaldotanddens","equaldotsize","equaldotanddens","equaldotsize","equaldotsize","equaldotanddens","equaldotsize","equaldotanddens","equaldotanddens","randomdotsizeEA","equaldotanddens","equaldotsize","equaldotanddens","randomdotsizeEA","equaldotsize","equaldotsize","equaldotsize","equaldotsize","equaldotanddens","randomdotsizeEA","equaldotanddens","equaldotanddens","randomdotsizeEA","randomdotsizeEA","equaldotsize","randomdotsizeEA","equaldotsize","equaldotsize","randomdotsizeEA","equaldotsize","equaldotanddens","equaldotsize","equaldotanddens","equaldotanddens","equaldotsize","randomdotsizeEA","equaldotsize","equaldotanddens","randomdotsizeEA","equaldotsize","randomdotsizeEA","equaldotsize","randomdotsizeEA","randomdotsizeEA","equaldotanddens","equaldotsize","equaldotanddens","equaldotanddens","equaldotanddens","equaldotanddens","equaldotsize","equaldotanddens","equaldotsize","equaldotsize"],"ratio_trial":[500,750,500,250,500,500,900,250,250,750,750,500,250,250,500,900,500,750,750,500,900,750,500,500,500,750,500,500,500,900,750,250,900,500,750,900,250,500,900,900,900,750,250,750,750,900,750,750,500,750,250,900,750,900,500,250,750,250,900,250,500,750,750,750,250,900,500,500,250,250,900,900,250,900,750,500,500,900,750,250,750,250,250,250,500,250,250,500,250,900,250,250,900,750,500,500,900,750,750,750,900,900,900,900,750,750,250,900,900,750,250,900,250,900,250,900,500,250,500,500],"smaller_num":["1","18","5","2","5","5","9","3","6","6","6","1","3","3","9","18","9","6","18","4","9","9","10","4","2","15","1","6","2","18","3","3","18","2","15","9","5","9","18","9","9","3","2","15","9","18","6","9","1","3","5","18","3","9","9","2","3","4","9","3","6","3","15","3","6","18","2","1","2","3","18","18","2","18","12","2","5","18","15","3","6","2","3","6","5","1","4","1","3","9","4","1","18","6","10","2","9","3","6","3","18","9","18","9","9","6","3","9","18","3","3","18","2","18","2","9","10","4","2","1"],"larger_num":["2","24","10","8","10","10","10","12","24","8","8","2","12","12","18","20","18","8","24","8","10","12","20","8","4","20","2","12","4","20","4","12","20","4","20","10","20","18","20","10","10","4","8","20","12","20","8","12","2","4","20","20","4","10","18","8","4","16","10","12","12","4","20","4","24","20","4","2","8","12","20","20","8","20","16","4","10","20","20","12","8","8","12","24","10","4","16","2","12","10","16","4","20","8","20","4","10","4","8","4","20","10","20","10","12","8","12","10","20","4","12","20","8","20","8","10","20","16","4","2"],"correct_side":[2,1,2,2,1,2,2,1,1,1,1,2,2,2,2,2,2,2,1,1,1,2,2,1,2,2,2,1,1,2,2,2,2,1,2,1,2,1,2,1,2,1,1,2,2,1,1,2,2,2,2,2,2,1,2,2,1,2,2,2,1,2,1,1,2,2,1,2,1,1,1,1,1,1,2,1,2,1,2,1,2,1,1,1,1,2,2,2,1,1,1,2,1,1,2,1,1,1,1,2,2,2,1,1,2,2,1,1,2,1,1,2,1,2,1,2,2,2,2,2],"img_shown":["img/500/randomdotsizeEA/R/12_Ratio_500_L_1_R_2.png","img/750/equaldotanddens/L/6_Ratio_750_L_24_R_18.png","img/500/equaldotanddens/R/14_Ratio_500_L_5_R_10.png","img/250/equaldotanddens/R/13_Ratio_250_L_2_R_8.png","img/500/equaldotsize/L/7_Ratio_500_L_10_R_5.png","img/500/equaldotanddens/R/14_Ratio_500_L_5_R_10.png","img/900/randomdotsizeEA/R/6_Ratio_900_L_9_R_10.png","img/250/randomdotsizeEA/L/15_Ratio_250_L_12_R_3.png","img/250/randomdotsizeEA/L/5_Ratio_250_L_24_R_6.png","img/750/equaldotsize/L/14_Ratio_750_L_8_R_6.png","img/750/randomdotsizeEA/L/13_Ratio_750_L_8_R_6.png","img/500/equaldotanddens/R/15_Ratio_500_L_1_R_2.png","img/250/randomdotsizeEA/R/4_Ratio_250_L_3_R_12.png","img/250/randomdotsizeEA/R/4_Ratio_250_L_3_R_12.png","img/500/equaldotsize/R/1_Ratio_500_L_9_R_18.png","img/900/randomdotsizeEA/R/13_Ratio_900_L_18_R_20.png","img/500/randomdotsizeEA/R/6_Ratio_500_L_9_R_18.png","img/750/equaldotsize/R/2_Ratio_750_L_6_R_8.png","img/750/randomdotsizeEA/L/6_Ratio_750_L_24_R_18.png","img/500/equaldotanddens/L/8_Ratio_500_L_8_R_4.png","img/900/randomdotsizeEA/L/1_Ratio_900_L_10_R_9.png","img/750/equaldotsize/R/15_Ratio_750_L_9_R_12.png","img/500/randomdotsizeEA/R/3_Ratio_500_L_10_R_20.png","img/500/randomdotsizeEA/L/8_Ratio_500_L_8_R_4.png","img/500/equaldotsize/R/9_Ratio_500_L_2_R_4.png","img/750/randomdotsizeEA/R/5_Ratio_750_L_15_R_20.png","img/500/randomdotsizeEA/R/15_Ratio_500_L_1_R_2.png","img/500/equaldotanddens/L/11_Ratio_500_L_12_R_6.png","img/500/equaldotsize/L/5_Ratio_500_L_4_R_2.png","img/900/equaldotanddens/R/14_Ratio_900_L_18_R_20.png","img/750/equaldotsize/R/7_Ratio_750_L_3_R_4.png","img/250/equaldotsize/R/4_Ratio_250_L_3_R_12.png","img/900/randomdotsizeEA/R/12_Ratio_900_L_18_R_20.png","img/500/randomdotsizeEA/L/10_Ratio_500_L_4_R_2.png","img/750/equaldotsize/R/5_Ratio_750_L_15_R_20.png","img/900/randomdotsizeEA/L/1_Ratio_900_L_10_R_9.png","img/250/equaldotanddens/R/12_Ratio_250_L_5_R_20.png","img/500/randomdotsizeEA/L/4_Ratio_500_L_18_R_9.png","img/900/randomdotsizeEA/R/11_Ratio_900_L_18_R_20.png","img/900/randomdotsizeEA/L/1_Ratio_900_L_10_R_9.png","img/900/equaldotsize/R/7_Ratio_900_L_9_R_10.png","img/750/equaldotanddens/L/10_Ratio_750_L_4_R_3.png","img/250/equaldotsize/L/7_Ratio_250_L_8_R_2.png","img/750/equaldotanddens/R/3_Ratio_750_L_15_R_20.png","img/750/randomdotsizeEA/R/15_Ratio_750_L_9_R_12.png","img/900/equaldotanddens/L/2_Ratio_900_L_20_R_18.png","img/750/equaldotsize/L/14_Ratio_750_L_8_R_6.png","img/750/equaldotanddens/R/15_Ratio_750_L_9_R_12.png","img/500/randomdotsizeEA/R/15_Ratio_500_L_1_R_2.png","img/750/randomdotsizeEA/R/7_Ratio_750_L_3_R_4.png","img/250/equaldotanddens/R/12_Ratio_250_L_5_R_20.png","img/900/equaldotsize/R/13_Ratio_900_L_18_R_20.png","img/750/randomdotsizeEA/R/12_Ratio_750_L_3_R_4.png","img/900/equaldotanddens/L/1_Ratio_900_L_10_R_9.png","img/500/equaldotanddens/R/1_Ratio_500_L_9_R_18.png","img/250/equaldotsize/R/13_Ratio_250_L_2_R_8.png","img/750/equaldotanddens/L/8_Ratio_750_L_4_R_3.png","img/250/equaldotanddens/R/10_Ratio_250_L_4_R_16.png","img/900/equaldotanddens/R/5_Ratio_900_L_9_R_10.png","img/250/equaldotsize/R/4_Ratio_250_L_3_R_12.png","img/500/equaldotsize/L/11_Ratio_500_L_12_R_6.png","img/750/equaldotanddens/R/7_Ratio_750_L_3_R_4.png","img/750/randomdotsizeEA/L/1_Ratio_750_L_20_R_15.png","img/750/randomdotsizeEA/L/9_Ratio_750_L_4_R_3.png","img/250/randomdotsizeEA/R/6_Ratio_250_L_6_R_24.png","img/900/equaldotsize/R/13_Ratio_900_L_18_R_20.png","img/500/equaldotanddens/L/5_Ratio_500_L_4_R_2.png","img/500/equaldotsize/R/12_Ratio_500_L_1_R_2.png","img/250/equaldotanddens/L/3_Ratio_250_L_8_R_2.png","img/250/equaldotsize/L/14_Ratio_250_L_12_R_3.png","img/900/equaldotsize/L/2_Ratio_900_L_20_R_18.png","img/900/equaldotanddens/L/10_Ratio_900_L_20_R_18.png","img/250/equaldotsize/L/1_Ratio_250_L_8_R_2.png","img/900/equaldotanddens/L/4_Ratio_900_L_20_R_18.png","img/750/equaldotanddens/R/11_Ratio_750_L_12_R_16.png","img/500/randomdotsizeEA/L/5_Ratio_500_L_4_R_2.png","img/500/equaldotanddens/R/14_Ratio_500_L_5_R_10.png","img/900/equaldotsize/L/2_Ratio_900_L_20_R_18.png","img/750/equaldotanddens/R/4_Ratio_750_L_15_R_20.png","img/250/randomdotsizeEA/L/15_Ratio_250_L_12_R_3.png","img/750/equaldotsize/R/2_Ratio_750_L_6_R_8.png","img/250/equaldotsize/L/1_Ratio_250_L_8_R_2.png","img/250/equaldotsize/L/15_Ratio_250_L_12_R_3.png","img/250/equaldotsize/L/5_Ratio_250_L_24_R_6.png","img/500/equaldotanddens/L/7_Ratio_500_L_10_R_5.png","img/250/randomdotsizeEA/R/8_Ratio_250_L_1_R_4.png","img/250/equaldotanddens/R/10_Ratio_250_L_4_R_16.png","img/500/equaldotanddens/R/12_Ratio_500_L_1_R_2.png","img/250/randomdotsizeEA/L/15_Ratio_250_L_12_R_3.png","img/900/randomdotsizeEA/L/1_Ratio_900_L_10_R_9.png","img/250/equaldotsize/L/2_Ratio_250_L_16_R_4.png","img/250/randomdotsizeEA/R/8_Ratio_250_L_1_R_4.png","img/900/equaldotsize/L/8_Ratio_900_L_20_R_18.png","img/750/equaldotsize/L/13_Ratio_750_L_8_R_6.png","img/500/randomdotsizeEA/R/3_Ratio_500_L_10_R_20.png","img/500/equaldotsize/L/5_Ratio_500_L_4_R_2.png","img/900/equaldotanddens/L/1_Ratio_900_L_10_R_9.png","img/750/equaldotsize/L/8_Ratio_750_L_4_R_3.png","img/750/equaldotanddens/L/14_Ratio_750_L_8_R_6.png","img/750/equaldotanddens/R/7_Ratio_750_L_3_R_4.png","img/900/equaldotsize/R/11_Ratio_900_L_18_R_20.png","img/900/randomdotsizeEA/R/6_Ratio_900_L_9_R_10.png","img/900/equaldotsize/L/4_Ratio_900_L_20_R_18.png","img/900/equaldotanddens/L/1_Ratio_900_L_10_R_9.png","img/750/randomdotsizeEA/R/15_Ratio_750_L_9_R_12.png","img/750/equaldotsize/R/2_Ratio_750_L_6_R_8.png","img/250/randomdotsizeEA/L/14_Ratio_250_L_12_R_3.png","img/900/equaldotsize/L/1_Ratio_900_L_10_R_9.png","img/900/randomdotsizeEA/R/13_Ratio_900_L_18_R_20.png","img/750/randomdotsizeEA/L/8_Ratio_750_L_4_R_3.png","img/250/equaldotanddens/L/14_Ratio_250_L_12_R_3.png","img/900/equaldotsize/R/13_Ratio_900_L_18_R_20.png","img/250/equaldotanddens/L/1_Ratio_250_L_8_R_2.png","img/900/equaldotanddens/R/13_Ratio_900_L_18_R_20.png","img/250/equaldotanddens/L/3_Ratio_250_L_8_R_2.png","img/900/equaldotanddens/R/7_Ratio_900_L_9_R_10.png","img/500/equaldotsize/R/3_Ratio_500_L_10_R_20.png","img/250/equaldotanddens/R/10_Ratio_250_L_4_R_16.png","img/500/equaldotsize/R/9_Ratio_500_L_2_R_4.png","img/500/equaldotsize/R/15_Ratio_500_L_1_R_2.png"],"Rat0":[["12_Ratio_0_L_9_R_0.png","13_Ratio_0_L_6_R_0.png","5_Ratio_0_L_2_R_0.png","6_Ratio_0_L_4_R_0.png","8_Ratio_0_L_6_R_0.png"],["1_Ratio_0_L_0_R_17.png","10_Ratio_0_L_0_R_22.png","11_Ratio_0_L_0_R_1.png","14_Ratio_0_L_0_R_24.png","15_Ratio_0_L_0_R_4.png","2_Ratio_0_L_0_R_5.png","3_Ratio_0_L_0_R_17.png","4_Ratio_0_L_0_R_7.png","7_Ratio_0_L_0_R_19.png","9_Ratio_0_L_0_R_15.png"]],"Rat250":[["1_Ratio_250_L_8_R_2.png","14_Ratio_250_L_12_R_3.png","15_Ratio_250_L_12_R_3.png","2_Ratio_250_L_16_R_4.png","3_Ratio_250_L_8_R_2.png","5_Ratio_250_L_24_R_6.png","7_Ratio_250_L_8_R_2.png"],["10_Ratio_250_L_4_R_16.png","11_Ratio_250_L_3_R_12.png","12_Ratio_250_L_5_R_20.png","13_Ratio_250_L_2_R_8.png","4_Ratio_250_L_3_R_12.png","6_Ratio_250_L_6_R_24.png","8_Ratio_250_L_1_R_4.png","9_Ratio_250_L_3_R_12.png"]],"Rat500":[["10_Ratio_500_L_4_R_2.png","11_Ratio_500_L_12_R_6.png","13_Ratio_500_L_12_R_6.png","4_Ratio_500_L_18_R_9.png","5_Ratio_500_L_4_R_2.png","7_Ratio_500_L_10_R_5.png","8_Ratio_500_L_8_R_4.png"],["1_Ratio_500_L_9_R_18.png","12_Ratio_500_L_1_R_2.png","14_Ratio_500_L_5_R_10.png","15_Ratio_500_L_1_R_2.png","2_Ratio_500_L_3_R_6.png","3_Ratio_500_L_10_R_20.png","6_Ratio_500_L_9_R_18.png","9_Ratio_500_L_2_R_4.png"]],"Rat750":[["1_Ratio_750_L_20_R_15.png","10_Ratio_750_L_4_R_3.png","13_Ratio_750_L_8_R_6.png","14_Ratio_750_L_8_R_6.png","6_Ratio_750_L_24_R_18.png","8_Ratio_750_L_4_R_3.png","9_Ratio_750_L_4_R_3.png"],["11_Ratio_750_L_12_R_16.png","12_Ratio_750_L_3_R_4.png","15_Ratio_750_L_9_R_12.png","2_Ratio_750_L_6_R_8.png","3_Ratio_750_L_15_R_20.png","4_Ratio_750_L_15_R_20.png","5_Ratio_750_L_15_R_20.png","7_Ratio_750_L_3_R_4.png"]],"Rat900":[["1_Ratio_900_L_10_R_9.png","10_Ratio_900_L_20_R_18.png","2_Ratio_900_L_20_R_18.png","4_Ratio_900_L_20_R_18.png","8_Ratio_900_L_20_R_18.png"],["11_Ratio_900_L_18_R_20.png","12_Ratio_900_L_18_R_20.png","13_Ratio_900_L_18_R_20.png","14_Ratio_900_L_18_R_20.png","15_Ratio_900_L_9_R_10.png","3_Ratio_900_L_9_R_10.png","5_Ratio_900_L_9_R_10.png","6_Ratio_900_L_9_R_10.png","7_Ratio_900_L_9_R_10.png","9_Ratio_900_L_18_R_20.png"]],"Rat1000":[["10_Ratio_1000_L_16_R_16.png","11_Ratio_1000_L_6_R_6.png","12_Ratio_1000_L_14_R_14.png","13_Ratio_1000_L_20_R_20.png","15_Ratio_1000_L_15_R_15.png","2_Ratio_1000_L_17_R_17.png","4_Ratio_1000_L_9_R_9.png","5_Ratio_1000_L_6_R_6.png","6_Ratio_1000_L_19_R_19.png","8_Ratio_1000_L_14_R_14.png","9_Ratio_1000_L_25_R_25.png"],["1_Ratio_1000_L_1_R_1.png","14_Ratio_1000_L_17_R_17.png","3_Ratio_1000_L_17_R_17.png","7_Ratio_1000_L_6_R_6.png"]]}},{"start_time":1551901242336,"click_time":1551901243477,"finger_time":1551901243256,"fix_duration":778.6392082051605,"trial":1,"RT":920,"MT":221,"sideResp":1,"stimulus":"img/750/equaldotanddens/L/6_Ratio_750_L_24_R_18.png","xmouse":[806,806,806,806,806,806,806,806,806,806,806,806,806,806,806,806,806,806,806,806,806,806,806,806,806,806,806,806,806,806,806,806,806,806,806,806,806,806,806,806,806,806,806,806,805,802,784,764,739,727,715,705,686,616,583,558,528,504],"ymouse":[625,625,625,625,625,625,625,625,625,625,625,625,625,625,625,625,625,625,625,625,625,625,625,625,625,625,625,625,625,625,625,625,625,625,625,625,625,625,625,625,625,625,625,625,623,610,562,519,459,437,407,385,354,250,199,154,108,72],"timestamp_mouse":[1,19,48,59,79,99,119,140,159,181,200,219,239,259,280,299,319,340,359,379,399,419,440,459,480,500,519,540,560,580,599,621,641,659,679,699,719,740,759,780,799,819,839,860,879,899,920,939,959,980,999,1019,1040,1061,1080,1099,1119,1140],"xSR":741.5,"ySR":573.95,"xT1":424.9,"yT1":0,"xT2":1058.1,"yT2":0,"toosoon":0,"cond_shown":"equaldotanddens","ratio_trial":750,"smaller_num":"18","larger_num":"24","correct_side":1,"subjID":"LizethLopez14","gender":"1","age":"11","school":"6"},{"start_time":1551901244991,"click_time":1551901246176,"finger_time":1551901245717,"fix_duration":352.48344110905305,"trial":2,"RT":726,"MT":459,"sideResp":2,"stimulus":"img/500/equaldotanddens/R/14_Ratio_500_L_5_R_10.png","xmouse":[812,812,812,812,812,812,812,812,812,812,812,812,812,812,812,812,812,812,812,812,812,812,812,812,812,812,812,812,812,812,812,812,812,812,812,812,853,890,989,1042,1047,1048,1048,1048,1044,1044,1044,1044,1044,1044,1044,1044,1044,1044,1044,1044,1044,1044,1047,1070],"ymouse":[645,645,645,645,645,645,645,645,645,645,645,645,645,645,645,645,645,645,645,645,645,645,645,645,645,645,645,645,645,645,645,645,645,645,645,645,585,533,369,211,175,151,134,116,82,66,53,35,5,0,0,0,0,0,0,0,0,0,2,33],"timestamp_mouse":[11,31,45,65,84,106,124,146,164,185,205,225,245,265,284,305,324,345,364,385,404,426,444,465,485,504,526,545,564,584,604,625,645,665,685,704,726,744,765,785,804,825,844,865,885,904,924,945,964,985,1004,1024,1044,1064,1085,1104,1125,1145,1164,1185],"xSR":741.5,"ySR":573.95,"xT1":424.9,"yT1":0,"xT2":1058.1,"yT2":0,"toosoon":0,"cond_shown":"equaldotanddens","ratio_trial":500,"smaller_num":"5","larger_num":"10","correct_side":2,"subjID":"LizethLopez14","gender":"1","age":"11","school":"6"},{"start_time":1551901249603,"click_time":1551901250356,"finger_time":1551901250276,"fix_duration":566.1668151162213,"trial":3,"RT":673,"MT":80,"sideResp":2,"stimulus":"img/250/equaldotanddens/R/13_Ratio_250_L_2_R_8.png","xmouse":[795,795,795,795,795,795,795,795,795,795,795,795,795,795,795,795,795,795,795,795,795,795,795,795,795,795,795,795,795,795,795,795,821,918,995,1048,1084,1100],"ymouse":[611,611,611,611,611,611,611,611,611,611,611,611,611,611,611,611,611,611,611,611,611,611,611,611,611,611,611,611,611,611,611,611,587,456,330,226,129,65],"timestamp_mouse":[17,41,53,73,92,112,132,152,172,192,212,232,252,274,292,312,332,352,373,394,412,433,453,472,492,512,534,553,572,592,613,634,652,673,692,713,732,753],"xSR":741.5,"ySR":573.95,"xT1":424.9,"yT1":0,"xT2":1058.1,"yT2":0,"toosoon":0,"cond_shown":"equaldotanddens","ratio_trial":250,"smaller_num":"2","larger_num":"8","correct_side":2,"subjID":"LizethLopez14","gender":"1","age":"11","school":"6"},{"start_time":1551901251789,"click_time":1551901252716,"finger_time":1551901252415,"fix_duration":250,"trial":4,"RT":626,"MT":301,"sideResp":1,"stimulus":"img/500/equaldotsize/L/7_Ratio_500_L_10_R_5.png","xmouse":[822,822,822,822,822,822,822,822,822,822,822,822,822,822,822,822,822,822,822,822,822,822,822,822,822,822,822,822,822,813,751,677,609,545,506,488,483,472,441,416,395,395,395,396,412,427,440],"ymouse":[656,656,656,656,656,656,656,656,656,656,656,656,656,656,656,656,656,656,656,656,656,656,656,656,656,656,656,656,656,651,623,586,554,528,508,484,467,435,366,316,263,254,244,233,184,139,96],"timestamp_mouse":[11,34,47,68,87,106,127,146,167,186,208,227,247,268,287,306,328,346,366,387,406,426,448,467,488,506,528,547,566,587,606,626,647,666,686,706,726,748,767,787,806,826,847,866,887,906,927],"xSR":741.5,"ySR":573.95,"xT1":424.9,"yT1":0,"xT2":1058.1,"yT2":0,"toosoon":0,"cond_shown":"equaldotsize","ratio_trial":500,"smaller_num":"5","larger_num":"10","correct_side":1,"subjID":"LizethLopez14","gender":"1","age":"11","school":"6"},{"start_time":1551901253848,"click_time":1551901254676,"finger_time":1551901254336,"fix_duration":250,"trial":5,"RT":488,"MT":340,"sideResp":2,"stimulus":"img/500/equaldotanddens/R/14_Ratio_500_L_5_R_10.png","xmouse":[817,817,817,817,817,817,817,817,817,817,817,817,817,817,817,817,817,817,817,817,817,817,817,819,844,871,928,942,951,955,960,965,976,983,987,992,996,1024,1040,1054,1058,1059],"ymouse":[635,635,635,635,635,635,635,635,635,635,635,635,635,635,635,635,635,635,635,635,635,635,634,621,529,457,318,271,234,198,165,140,96,79,70,63,61,49,43,37,35,35],"timestamp_mouse":[15,27,47,67,88,107,129,148,167,187,208,228,247,267,288,308,328,347,368,387,408,428,447,467,488,507,527,548,567,588,608,627,649,667,688,707,727,747,767,787,807,828],"xSR":741.5,"ySR":573.95,"xT1":424.9,"yT1":0,"xT2":1058.1,"yT2":0,"toosoon":0,"cond_shown":"equaldotanddens","ratio_trial":500,"smaller_num":"5","larger_num":"10","correct_side":2,"subjID":"LizethLopez14","gender":"1","age":"11","school":"6"},{"start_time":1551901256411,"click_time":1551901257537,"finger_time":1551901257215,"fix_duration":774.4781092745686,"trial":6,"RT":804,"MT":322,"sideResp":1,"stimulus":"img/900/randomdotsizeEA/R/6_Ratio_900_L_9_R_10.png","xmouse":[824,824,824,824,824,824,824,824,824,824,824,824,824,824,824,824,824,824,824,824,824,824,824,824,824,824,824,824,824,824,824,824,824,824,824,824,824,824,824,818,776,722,644,509,490,477,461,449,415,400,392,391,391,395,402,414,430],"ymouse":[608,608,608,608,608,608,608,608,608,608,608,608,608,608,608,608,608,608,608,608,608,608,608,608,608,608,608,608,608,608,608,608,608,608,608,608,608,608,608,599,542,470,386,270,252,238,216,199,155,134,119,107,100,90,85,76,66],"timestamp_mouse":[10,31,44,65,84,105,125,145,165,184,204,224,246,265,285,304,324,345,364,384,404,424,445,465,484,505,524,546,565,585,604,625,646,665,685,705,726,746,765,784,804,824,844,864,884,904,924,946,965,984,1005,1026,1046,1065,1084,1105,1126],"xSR":741.5,"ySR":573.95,"xT1":424.9,"yT1":0,"xT2":1058.1,"yT2":0,"toosoon":0,"cond_shown":"randomdotsizeEA","ratio_trial":900,"smaller_num":"9","larger_num":"10","correct_side":2,"subjID":"LizethLopez14","gender":"1","age":"11","school":"6"},{"start_time":1551901258852,"click_time":1551901260295,"finger_time":1551901259335,"fix_duration":374.5820505000663,"trial":7,"RT":483,"MT":960,"sideResp":1,"stimulus":"img/250/randomdotsizeEA/L/15_Ratio_250_L_12_R_3.png","xmouse":[820,820,820,820,820,820,820,820,820,820,820,820,820,820,820,820,820,820,820,820,820,820,820,826,838,847,849,849,849,849,849,849,849,849,849,848,848,848,848,852,873,923,935,937,929,879,774,717,660,607,565,480,413,315,203,90,69,69,69,70,86,126,316,357,408,409,409,409,409,410,416,423,438],"ymouse":[619,619,619,619,619,619,619,619,619,619,619,619,619,619,619,619,619,619,619,619,619,619,617,601,573,556,552,552,552,552,552,552,552,552,552,553,554,554,554,548,508,378,329,304,285,253,242,242,242,233,209,141,84,17,0,0,0,0,0,0,5,22,91,102,117,117,117,117,117,117,115,106,86],"timestamp_mouse":[14,40,44,64,83,105,123,143,164,184,205,224,243,264,284,303,323,343,363,385,403,423,444,465,483,503,524,543,564,584,604,623,643,663,683,704,723,744,764,784,803,824,843,863,883,905,923,943,963,984,1004,1024,1043,1064,1084,1103,1124,1143,1164,1184,1203,1223,1243,1263,1284,1303,1323,1343,1364,1384,1404,1423,1443],"xSR":741.5,"ySR":573.95,"xT1":424.9,"yT1":0,"xT2":1058.1,"yT2":0,"toosoon":0,"cond_shown":"randomdotsizeEA","ratio_trial":250,"smaller_num":"3","larger_num":"12","correct_side":1,"subjID":"LizethLopez14","gender":"1","age":"11","school":"6"},{"start_time":1551901263359,"click_time":1551901263995,"finger_time":1551901263855,"fix_duration":380.1605758869043,"trial":8,"RT":496,"MT":140,"sideResp":1,"stimulus":"img/250/randomdotsizeEA/L/5_Ratio_250_L_24_R_6.png","xmouse":[827,827,827,827,827,827,827,827,827,827,827,827,827,827,827,827,827,827,827,827,827,827,818,803,743,600,546,507,485,471,465,460],"ymouse":[609,609,609,609,609,609,609,609,609,609,609,609,609,609,609,609,609,609,609,609,609,609,608,598,539,373,296,229,186,142,104,86],"timestamp_mouse":[32,36,56,78,97,117,137,158,178,197,218,237,256,276,296,316,337,357,376,397,417,436,457,476,496,517,536,557,576,597,616,636],"xSR":741.5,"ySR":573.95,"xT1":424.9,"yT1":0,"xT2":1058.1,"yT2":0,"toosoon":0,"cond_shown":"randomdotsizeEA","ratio_trial":250,"smaller_num":"6","larger_num":"24","correct_side":1,"subjID":"LizethLopez14","gender":"1","age":"11","school":"6"},{"start_time":1551901267123,"click_time":1551901268116,"finger_time":1551901267836,"fix_duration":487.91236969107365,"trial":9,"RT":713,"MT":280,"sideResp":1,"stimulus":"img/750/equaldotsize/L/14_Ratio_750_L_8_R_6.png","xmouse":[815,815,815,815,815,815,815,815,815,815,815,815,815,815,815,815,815,815,815,815,815,815,815,815,815,815,815,815,815,815,815,815,805,794,778,758,725,675,653,612,586,574,565,558,556,551,544,536,516,511],"ymouse":[622,622,622,622,622,622,622,622,622,622,622,622,622,622,622,622,622,622,622,622,622,622,622,622,622,622,622,622,622,622,622,622,616,606,590,566,528,459,422,357,314,294,277,247,227,199,168,144,102,90],"timestamp_mouse":[14,36,52,73,92,113,132,152,173,194,213,232,252,273,293,313,333,352,374,392,412,434,453,473,493,512,533,552,572,592,612,632,653,672,692,713,732,753,772,792,812,833,852,873,893,912,933,952,972,993],"xSR":741.5,"ySR":573.95,"xT1":424.9,"yT1":0,"xT2":1058.1,"yT2":0,"toosoon":0,"cond_shown":"equaldotsize","ratio_trial":750,"smaller_num":"6","larger_num":"8","correct_side":1,"subjID":"LizethLopez14","gender":"1","age":"11","school":"6"},{"start_time":1551901270508,"click_time":1551901271295,"finger_time":1551901270955,"fix_duration":1490.3004195302074,"trial":10,"RT":447,"MT":340,"sideResp":1,"stimulus":"img/750/randomdotsizeEA/L/13_Ratio_750_L_8_R_6.png","xmouse":[825,825,825,825,825,825,825,825,825,825,825,825,825,825,825,825,825,825,825,825,825,805,760,663,627,603,587,573,525,484,445,394,372,362,367,376,392,403,412,430],"ymouse":[640,640,640,640,640,640,640,640,640,640,640,640,640,640,640,640,640,640,640,640,640,621,572,488,462,443,426,410,349,300,248,174,141,120,102,95,89,85,81,70],"timestamp_mouse":[13,34,48,68,88,109,128,148,168,187,207,227,248,267,287,307,328,347,368,387,407,428,447,468,487,508,527,547,568,587,608,628,649,667,687,708,728,748,767,787],"xSR":741.5,"ySR":573.95,"xT1":424.9,"yT1":0,"xT2":1058.1,"yT2":0,"toosoon":0,"cond_shown":"randomdotsizeEA","ratio_trial":750,"smaller_num":"6","larger_num":"8","correct_side":1,"subjID":"LizethLopez14","gender":"1","age":"11","school":"6"},{"start_time":1551901273059,"click_time":1551901274016,"finger_time":1551901273396,"fix_duration":1121.495617425558,"trial":11,"RT":337,"MT":620,"sideResp":2,"stimulus":"img/500/equaldotanddens/R/15_Ratio_500_L_1_R_2.png","xmouse":[813,813,813,813,813,813,813,813,813,813,813,813,813,813,813,797,785,776,769,765,757,748,741,735,734,767,810,852,878,889,890,890,890,892,904,941,961,978,999,1018,1034,1049,1052,1053,1053,1053,1060,1063],"ymouse":[603,603,603,603,603,603,603,603,603,603,603,603,603,603,603,585,568,557,546,540,520,500,483,465,463,428,404,379,362,353,349,349,349,346,333,308,295,281,265,249,234,211,199,180,148,128,100,90],"timestamp_mouse":[33,37,57,77,97,116,136,158,176,197,216,237,257,277,298,316,337,357,377,397,416,436,457,476,496,516,536,557,577,597,616,637,657,677,696,716,736,757,777,798,816,836,856,876,898,916,937,957],"xSR":741.5,"ySR":573.95,"xT1":424.9,"yT1":0,"xT2":1058.1,"yT2":0,"toosoon":0,"cond_shown":"equaldotanddens","ratio_trial":500,"smaller_num":"1","larger_num":"2","correct_side":2,"subjID":"LizethLopez14","gender":"1","age":"11","school":"6"},{"start_time":1551901280632,"click_time":1551901281896,"finger_time":1551901281276,"fix_duration":754.7327917947667,"trial":12,"RT":644,"MT":620,"sideResp":2,"stimulus":"img/250/randomdotsizeEA/R/4_Ratio_250_L_3_R_12.png","xmouse":[779,779,779,779,779,779,779,779,779,779,779,779,779,779,779,779,779,779,779,779,779,780,781,783,783,784,784,784,789,794,804,823,873,891,911,930,989,1055,1211,1270,1298,1312,1316,1315,1311,1306,1299,1290,1283,1268,1253,1236,1207,1200,1198,1193,1187,1180,1173,1173,1173,1172,1170,1143],"ymouse":[639,639,639,639,639,639,639,639,639,639,639,639,639,639,639,639,639,639,639,639,639,635,627,624,623,622,621,620,614,607,596,574,509,477,447,413,328,248,104,56,31,15,6,0,0,0,0,0,0,6,13,20,32,37,38,41,44,48,50,50,50,50,51,54],"timestamp_mouse":[11,24,44,64,84,105,123,143,164,183,203,223,243,264,283,304,324,344,364,383,403,424,444,464,483,504,525,544,564,583,603,623,644,663,683,704,723,744,763,784,803,823,844,863,883,904,923,945,963,984,1004,1025,1043,1063,1083,1104,1124,1144,1163,1183,1204,1223,1243,1264],"xSR":741.5,"ySR":573.95,"xT1":424.9,"yT1":0,"xT2":1058.1,"yT2":0,"toosoon":0,"cond_shown":"randomdotsizeEA","ratio_trial":250,"smaller_num":"3","larger_num":"12","correct_side":2,"subjID":"LizethLopez14","gender":"1","age":"11","school":"6"},{"start_time":1551901304235,"click_time":1551901305016,"finger_time":1551901304916,"fix_duration":375.8826813959391,"trial":13,"RT":681,"MT":100,"sideResp":2,"stimulus":"img/250/randomdotsizeEA/R/4_Ratio_250_L_3_R_12.png","xmouse":[794,794,794,794,794,794,794,794,794,794,794,794,794,794,794,794,794,794,796,797,797,797,797,797,797,797,797,797,797,797,797,797,797,799,814,878,928,1011,1035,1062],"ymouse":[609,609,609,609,609,609,609,609,609,609,609,609,609,609,609,609,609,598,584,581,581,581,581,581,581,581,581,581,581,581,581,581,581,578,566,500,429,258,184,92],"timestamp_mouse":[8,22,42,62,82,101,120,141,161,181,201,221,241,262,280,301,322,342,361,382,402,421,442,462,482,500,521,541,562,581,600,621,641,661,680,702,721,741,760,781],"xSR":741.5,"ySR":573.95,"xT1":424.9,"yT1":0,"xT2":1058.1,"yT2":0,"toosoon":0,"cond_shown":"randomdotsizeEA","ratio_trial":250,"smaller_num":"3","larger_num":"12","correct_side":2,"subjID":"LizethLopez14","gender":"1","age":"11","school":"6"},{"start_time":1551901322649,"click_time":1551901324036,"finger_time":1551901323376,"fix_duration":810.1283803252579,"trial":14,"RT":727,"MT":660,"sideResp":2,"stimulus":"img/500/equaldotsize/R/1_Ratio_500_L_9_R_18.png","xmouse":[824,824,824,824,824,824,824,824,824,824,824,824,824,824,824,824,824,824,824,824,824,824,824,824,824,824,824,824,824,824,824,824,824,824,827,839,912,965,1032,1092,1140,1234,1274,1296,1304,1310,1305,1295,1286,1284,1283,1254,1231,1215,1200,1197,1196,1196,1191,1183,1177,1169,1169,1169,1169,1167,1167,1166,1165,1158],"ymouse":[647,647,647,647,647,647,647,647,647,647,647,647,647,647,647,647,647,647,647,647,647,647,647,647,647,647,647,647,647,647,647,647,647,647,645,630,544,479,397,317,239,86,22,0,0,0,0,0,0,0,0,12,26,38,48,51,51,51,54,57,60,63,63,63,63,64,64,64,65,66],"timestamp_mouse":[10,42,47,68,86,108,127,147,167,188,208,227,247,267,288,308,327,348,368,387,407,428,447,468,487,507,527,547,567,587,608,628,647,667,686,707,727,747,767,787,806,827,847,867,888,908,927,946,966,987,1007,1027,1046,1068,1087,1107,1127,1148,1167,1187,1207,1228,1248,1268,1286,1307,1327,1347,1368,1387],"xSR":741.5,"ySR":573.95,"xT1":424.9,"yT1":0,"xT2":1058.1,"yT2":0,"toosoon":0,"cond_shown":"equaldotsize","ratio_trial":500,"smaller_num":"9","larger_num":"18","correct_side":2,"subjID":"LizethLopez14","gender":"1","age":"11","school":"6"},{"start_time":1551901330703,"click_time":1551901331717,"finger_time":1551901331457,"fix_duration":1466.8154337095964,"trial":15,"RT":754,"MT":260,"sideResp":1,"stimulus":"img/900/randomdotsizeEA/R/13_Ratio_900_L_18_R_20.png","xmouse":[763,763,763,763,763,763,763,763,763,763,763,763,763,763,763,763,763,763,763,763,763,763,763,763,763,763,763,763,763,763,763,763,763,763,763,761,753,741,680,650,624,593,582,565,556,547,541,537,520,508,499],"ymouse":[617,617,617,617,617,617,617,617,617,617,617,617,617,617,617,617,617,617,617,617,617,617,617,617,617,617,617,617,617,617,617,617,617,617,617,602,581,554,438,385,335,264,239,198,179,166,158,152,128,112,98],"timestamp_mouse":[14,37,54,74,93,114,134,154,173,194,214,233,254,273,294,314,334,354,373,393,413,433,453,473,493,513,533,553,572,593,614,633,653,674,693,714,733,754,773,793,813,832,853,873,893,913,933,953,973,992,1014],"xSR":741.5,"ySR":573.95,"xT1":424.9,"yT1":0,"xT2":1058.1,"yT2":0,"toosoon":0,"cond_shown":"randomdotsizeEA","ratio_trial":900,"smaller_num":"18","larger_num":"20","correct_side":2,"subjID":"LizethLopez14","gender":"1","age":"11","school":"6"},{"start_time":1551901333053,"click_time":1551901333977,"finger_time":1551901333837,"fix_duration":436.6714978381505,"trial":16,"RT":784,"MT":140,"sideResp":2,"stimulus":"img/500/randomdotsizeEA/R/6_Ratio_500_L_9_R_18.png","xmouse":[789,789,789,789,789,789,789,789,789,789,789,789,789,789,789,789,789,789,789,789,789,789,789,789,789,789,789,789,789,789,789,789,789,789,789,789,789,789,809,853,902,974,1004,1032,1056,1083,1102],"ymouse":[604,604,604,604,604,604,604,604,604,604,604,604,604,604,604,604,604,604,604,604,604,604,604,604,604,604,604,604,604,604,604,604,604,604,604,604,604,601,584,539,476,372,326,266,205,110,41],"timestamp_mouse":[11,39,43,63,84,102,123,144,163,183,203,222,242,264,283,303,323,342,364,383,403,424,443,464,484,503,523,543,563,584,604,623,643,662,683,704,722,743,763,784,803,823,842,863,883,904,923],"xSR":741.5,"ySR":573.95,"xT1":424.9,"yT1":0,"xT2":1058.1,"yT2":0,"toosoon":0,"cond_shown":"randomdotsizeEA","ratio_trial":500,"smaller_num":"9","larger_num":"18","correct_side":2,"subjID":"LizethLopez14","gender":"1","age":"11","school":"6"},{"start_time":1551901335206,"click_time":1551901336377,"finger_time":1551901336057,"fix_duration":250,"trial":17,"RT":851,"MT":320,"sideResp":1,"stimulus":"img/750/equaldotsize/R/2_Ratio_750_L_6_R_8.png","xmouse":[812,812,812,812,812,812,812,812,812,812,812,812,812,812,812,812,812,812,812,812,812,812,812,812,812,812,812,812,812,812,812,812,812,812,812,812,812,812,812,812,811,802,766,638,582,545,527,509,494,484,478,473,472,475,478,479,481,483,489],"ymouse":[616,616,616,616,616,616,616,616,616,616,616,616,616,616,616,616,616,616,616,616,616,616,616,616,616,616,616,616,616,616,616,616,616,616,616,616,616,616,616,616,611,600,559,428,372,333,309,273,234,211,189,171,159,144,138,135,127,119,91],"timestamp_mouse":[11,31,50,70,90,110,131,150,170,190,210,230,250,270,290,310,330,350,370,390,410,430,450,470,489,511,530,550,570,590,610,630,651,671,690,711,731,750,771,789,810,830,851,870,890,911,930,950,970,990,1009,1030,1051,1070,1090,1110,1130,1150,1171],"xSR":741.5,"ySR":573.95,"xT1":424.9,"yT1":0,"xT2":1058.1,"yT2":0,"toosoon":0,"cond_shown":"equaldotsize","ratio_trial":750,"smaller_num":"6","larger_num":"8","correct_side":2,"subjID":"LizethLopez14","gender":"1","age":"11","school":"6"},{"start_time":1551901337347,"click_time":1551901338617,"finger_time":1551901338196,"fix_duration":250,"trial":18,"RT":849,"MT":421,"sideResp":1,"stimulus":"img/750/randomdotsizeEA/L/6_Ratio_750_L_24_R_18.png","xmouse":[836,836,836,836,836,836,836,836,836,836,836,836,836,836,836,836,836,836,836,839,840,840,840,840,840,840,840,840,840,840,840,840,840,829,820,800,783,783,781,777,769,751,743,732,713,674,556,496,444,411,384,373,370,367,365,365,366,367,368,369,369,392,408,427],"ymouse":[658,658,658,658,658,658,658,658,658,658,658,658,658,658,658,658,658,658,657,646,642,642,642,642,642,642,642,642,642,642,642,642,642,648,654,661,665,665,665,651,627,584,562,539,505,441,284,214,158,120,82,53,43,32,21,11,0,0,0,0,0,14,27,39],"timestamp_mouse":[11,35,50,69,89,109,128,150,170,189,209,229,248,270,289,308,329,349,369,390,410,429,448,469,489,509,530,550,570,589,609,630,648,668,689,710,730,749,770,789,809,830,849,868,889,909,929,948,969,989,1009,1029,1049,1069,1089,1110,1129,1149,1169,1190,1209,1229,1249,1270],"xSR":741.5,"ySR":573.95,"xT1":424.9,"yT1":0,"xT2":1058.1,"yT2":0,"toosoon":0,"cond_shown":"randomdotsizeEA","ratio_trial":750,"smaller_num":"18","larger_num":"24","correct_side":1,"subjID":"LizethLopez14","gender":"1","age":"11","school":"6"},{"start_time":1551901348997,"click_time":1551901349916,"finger_time":1551901349576,"fix_duration":1138.0750208943234,"trial":19,"RT":579,"MT":340,"sideResp":1,"stimulus":"img/500/equaldotanddens/L/8_Ratio_500_L_8_R_4.png","xmouse":[799,799,799,799,799,799,799,799,799,799,799,799,799,799,799,799,799,799,799,799,799,799,799,799,799,799,799,799,799,772,679,637,614,604,599,597,591,567,555,549,549,549,549,549,537,530,524],"ymouse":[615,615,615,615,615,615,615,615,615,615,615,615,615,615,615,615,615,615,615,615,615,615,615,615,615,615,616,616,616,570,427,367,332,314,292,279,258,199,172,151,147,146,145,141,118,107,97],"timestamp_mouse":[1,31,39,60,79,100,120,139,159,179,198,219,239,260,279,299,319,339,360,379,399,419,439,459,479,499,520,538,560,579,600,619,640,660,679,699,719,740,759,779,798,819,839,858,880,899,919],"xSR":741.5,"ySR":573.95,"xT1":424.9,"yT1":0,"xT2":1058.1,"yT2":0,"toosoon":0,"cond_shown":"equaldotanddens","ratio_trial":500,"smaller_num":"4","larger_num":"8","correct_side":1,"subjID":"LizethLopez14","gender":"1","age":"11","school":"6"},{"start_time":1551901350886,"click_time":1551901351976,"finger_time":1551901351696,"fix_duration":287.51411704196806,"trial":20,"RT":810,"MT":280,"sideResp":1,"stimulus":"img/900/randomdotsizeEA/L/1_Ratio_900_L_10_R_9.png","xmouse":[788,788,788,788,788,788,788,788,788,788,788,788,788,788,788,788,788,788,788,788,788,788,788,788,788,788,788,788,788,788,788,788,788,788,788,788,788,788,788,779,736,709,686,663,650,619,605,594,587,565,546,537,529,518,499],"ymouse":[624,624,624,624,624,624,624,624,624,624,624,624,624,624,624,624,624,624,624,624,624,624,624,624,624,624,624,624,624,624,624,624,624,624,624,624,624,624,623,607,544,514,490,465,447,386,354,327,302,227,186,158,138,110,74],"timestamp_mouse":[10,40,51,70,90,110,129,151,170,190,210,230,250,271,290,309,330,350,370,390,410,430,450,471,490,510,531,549,571,590,610,630,651,671,690,710,730,751,770,790,810,830,850,869,890,911,930,950,971,990,1010,1031,1050,1071,1090],"xSR":741.5,"ySR":573.95,"xT1":424.9,"yT1":0,"xT2":1058.1,"yT2":0,"toosoon":0,"cond_shown":"randomdotsizeEA","ratio_trial":900,"smaller_num":"9","larger_num":"10","correct_side":1,"subjID":"LizethLopez14","gender":"1","age":"11","school":"6"},{"start_time":1551901355158,"click_time":1551901356276,"finger_time":1551901355917,"fix_duration":381.50631773418877,"trial":21,"RT":759,"MT":359,"sideResp":1,"stimulus":"img/750/equaldotsize/R/15_Ratio_750_L_9_R_12.png","xmouse":[793,793,793,793,793,793,793,793,793,793,793,793,793,793,793,793,793,793,793,793,793,793,793,793,793,793,793,793,793,793,793,793,793,793,793,793,788,772,761,723,693,684,664,632,592,554,515,506,506,506,508,509,509,509,509,509],"ymouse":[640,640,640,640,640,640,640,640,640,640,640,640,640,640,640,640,640,640,640,640,640,640,640,640,640,640,640,640,640,640,640,640,640,640,640,640,606,554,535,476,432,415,391,349,308,267,218,203,197,187,162,148,136,121,107,84],"timestamp_mouse":[31,38,58,78,99,118,138,159,178,199,218,238,258,278,299,318,338,358,378,398,418,438,459,479,499,518,538,559,577,598,618,637,659,678,699,718,737,759,779,799,818,838,857,879,898,918,939,958,979,998,1018,1037,1058,1078,1097,1117],"xSR":741.5,"ySR":573.95,"xT1":424.9,"yT1":0,"xT2":1058.1,"yT2":0,"toosoon":0,"cond_shown":"equaldotsize","ratio_trial":750,"smaller_num":"9","larger_num":"12","correct_side":2,"subjID":"LizethLopez14","gender":"1","age":"11","school":"6"},{"start_time":1551901361784,"click_time":1551901362816,"finger_time":1551901362537,"fix_duration":587.8052460113215,"trial":22,"RT":753,"MT":279,"sideResp":2,"stimulus":"img/500/randomdotsizeEA/R/3_Ratio_500_L_10_R_20.png","xmouse":[789,789,789,789,789,789,789,789,789,789,789,789,789,789,789,789,789,789,789,789,789,789,789,789,789,789,789,789,789,789,789,789,789,789,790,809,830,864,915,963,990,1007,1025,1043,1056,1067,1067,1059,1057,1057,1058,1059],"ymouse":[635,635,635,635,635,635,635,635,635,635,635,635,635,635,635,635,635,635,635,635,635,635,635,635,635,635,635,635,635,635,635,635,635,635,635,627,612,578,505,420,374,331,291,248,214,165,138,105,75,54,47,43],"timestamp_mouse":[13,41,52,71,92,112,133,153,173,191,212,233,252,272,293,312,332,353,372,393,412,432,453,473,493,512,533,552,572,593,613,632,652,672,693,713,733,753,772,792,813,832,852,872,892,911,931,951,973,992,1012,1032],"xSR":741.5,"ySR":573.95,"xT1":424.9,"yT1":0,"xT2":1058.1,"yT2":0,"toosoon":0,"cond_shown":"randomdotsizeEA","ratio_trial":500,"smaller_num":"10","larger_num":"20","correct_side":2,"subjID":"LizethLopez14","gender":"1","age":"11","school":"6"},{"start_time":1551901364641,"click_time":1551901365576,"finger_time":1551901365376,"fix_duration":744.2623342315171,"trial":23,"RT":735,"MT":200,"sideResp":1,"stimulus":"img/500/randomdotsizeEA/L/8_Ratio_500_L_8_R_4.png","xmouse":[780,780,780,780,780,780,780,780,780,780,780,780,780,780,780,780,780,780,780,780,780,780,780,780,780,780,780,780,780,780,780,780,780,780,780,780,770,761,749,734,710,656,628,604,583,566,501],"ymouse":[608,608,608,608,608,608,608,608,608,608,608,608,608,608,608,608,608,608,608,608,608,608,608,608,608,608,608,608,608,608,608,608,608,608,608,595,531,504,474,437,394,310,278,245,210,174,72],"timestamp_mouse":[18,39,56,75,95,117,136,155,176,197,215,237,257,276,297,317,335,357,375,397,416,435,457,475,496,517,535,555,576,595,616,637,655,676,697,716,735,756,775,795,815,835,856,875,895,915,935],"xSR":741.5,"ySR":573.95,"xT1":424.9,"yT1":0,"xT2":1058.1,"yT2":0,"toosoon":0,"cond_shown":"randomdotsizeEA","ratio_trial":500,"smaller_num":"4","larger_num":"8","correct_side":1,"subjID":"LizethLopez14","gender":"1","age":"11","school":"6"},{"start_time":1551901368329,"click_time":1551901369557,"finger_time":1551901369176,"fix_duration":250,"trial":24,"RT":847,"MT":381,"sideResp":2,"stimulus":"img/500/equaldotsize/R/9_Ratio_500_L_2_R_4.png","xmouse":[777,777,777,777,777,777,777,777,777,777,777,777,777,777,777,777,777,777,777,777,777,777,777,777,777,777,777,777,777,777,777,777,777,777,777,779,782,787,789,790,792,797,814,832,845,856,866,876,897,914,921,940,956,986,995,1007,1019,1030,1040,1049,1052,1062],"ymouse":[625,625,625,625,625,625,625,625,625,625,625,625,625,625,625,625,625,625,625,625,625,625,625,625,625,625,625,625,625,625,625,625,625,625,625,625,623,619,618,618,611,596,555,519,482,452,422,394,339,298,285,251,229,177,160,146,134,125,112,98,94,82],"timestamp_mouse":[10,30,47,67,87,109,127,147,167,187,207,227,248,267,288,308,328,348,368,388,407,428,447,468,487,507,529,547,569,587,609,629,647,668,687,709,728,747,767,789,808,827,847,869,887,907,928,947,967,988,1008,1029,1047,1068,1087,1108,1128,1148,1167,1187,1207,1228],"xSR":741.5,"ySR":573.95,"xT1":424.9,"yT1":0,"xT2":1058.1,"yT2":0,"toosoon":0,"cond_shown":"equaldotsize","ratio_trial":500,"smaller_num":"2","larger_num":"4","correct_side":2,"subjID":"LizethLopez14","gender":"1","age":"11","school":"6"},{"start_time":1551901371022,"click_time":1551901371936,"finger_time":1551901371776,"fix_duration":503.281111005903,"trial":25,"RT":754,"MT":160,"sideResp":1,"stimulus":"img/750/randomdotsizeEA/R/5_Ratio_750_L_15_R_20.png","xmouse":[807,807,807,807,807,807,807,807,807,807,807,807,807,807,807,807,807,807,807,807,807,807,807,807,807,807,807,807,807,807,807,807,807,807,807,804,785,700,649,596,547,500,456,453,453,453],"ymouse":[626,626,626,626,626,626,626,626,626,626,626,626,626,626,626,626,626,626,626,626,626,626,626,626,626,626,626,626,626,626,626,626,626,626,626,615,581,461,397,335,274,218,157,141,124,93],"timestamp_mouse":[18,34,55,75,95,114,134,156,174,195,215,234,256,274,295,314,335,354,376,395,415,435,456,476,494,514,536,555,576,596,614,636,655,674,695,715,735,754,775,795,814,836,854,874,895,914],"xSR":741.5,"ySR":573.95,"xT1":424.9,"yT1":0,"xT2":1058.1,"yT2":0,"toosoon":0,"cond_shown":"randomdotsizeEA","ratio_trial":750,"smaller_num":"15","larger_num":"20","correct_side":2,"subjID":"LizethLopez14","gender":"1","age":"11","school":"6"},{"start_time":1551901373428,"click_time":1551901374697,"finger_time":1551901374177,"fix_duration":250,"trial":26,"RT":749,"MT":520,"sideResp":2,"stimulus":"img/500/randomdotsizeEA/R/15_Ratio_500_L_1_R_2.png","xmouse":[794,794,794,794,794,794,794,794,794,794,794,794,794,794,794,794,794,794,794,794,794,794,794,794,794,794,794,794,794,794,794,794,794,794,794,793,793,775,745,713,681,667,665,665,668,669,676,708,737,782,842,897,1005,1056,1102,1146,1189,1212,1214,1214,1213,1202,1187,1130],"ymouse":[618,618,618,618,618,618,618,618,618,618,618,618,618,618,618,618,618,618,618,618,618,618,618,618,618,618,618,618,618,618,618,618,618,618,618,618,614,549,484,426,382,362,355,353,352,351,346,331,323,315,307,299,280,258,229,198,166,134,123,110,94,74,56,14],"timestamp_mouse":[8,31,49,69,89,108,128,148,169,189,209,230,248,269,288,308,330,348,368,388,409,428,448,470,488,508,528,548,568,589,608,629,650,668,689,709,728,749,769,788,809,828,848,869,889,908,928,949,969,989,1009,1028,1049,1068,1088,1109,1129,1148,1169,1188,1209,1228,1248,1268],"xSR":741.5,"ySR":573.95,"xT1":424.9,"yT1":0,"xT2":1058.1,"yT2":0,"toosoon":0,"cond_shown":"randomdotsizeEA","ratio_trial":500,"smaller_num":"1","larger_num":"2","correct_side":2,"subjID":"LizethLopez14","gender":"1","age":"11","school":"6"},{"start_time":1551901376488,"click_time":1551901377398,"finger_time":1551901376857,"fix_duration":1009.2946609161611,"trial":27,"RT":369,"MT":541,"sideResp":1,"stimulus":"img/500/equaldotanddens/L/11_Ratio_500_L_12_R_6.png","xmouse":[784,784,784,784,784,784,784,784,785,786,786,787,787,787,787,787,786,779,767,758,756,756,756,756,756,756,756,756,755,755,755,757,762,762,762,762,762,758,738,677,637,599,552,526,509,477],"ymouse":[665,665,665,665,665,665,658,655,651,648,646,645,645,645,645,640,619,586,549,530,527,527,527,527,527,527,527,527,527,564,613,658,695,706,709,709,700,671,593,412,331,262,184,141,114,69],"timestamp_mouse":[16,37,48,70,89,108,129,148,169,189,209,230,248,270,289,308,329,349,369,388,409,429,450,470,490,509,529,550,569,588,608,630,649,668,689,709,729,748,768,788,808,829,848,870,889,910],"xSR":741.5,"ySR":573.95,"xT1":424.9,"yT1":0,"xT2":1058.1,"yT2":0,"toosoon":0,"cond_shown":"equaldotanddens","ratio_trial":500,"smaller_num":"6","larger_num":"12","correct_side":1,"subjID":"LizethLopez14","gender":"1","age":"11","school":"6"},{"start_time":1551901379075,"click_time":1551901381777,"finger_time":1551901380957,"fix_duration":856.8951710240667,"trial":28,"RT":1882,"MT":820,"sideResp":1,"stimulus":"img/500/equaldotsize/L/5_Ratio_500_L_4_R_2.png","xmouse":[828,828,828,828,828,828,828,828,828,828,828,828,828,828,828,828,828,828,828,828,828,828,828,828,828,828,828,828,828,828,828,828,828,828,828,828,828,828,828,828,828,828,828,828,828,828,828,828,828,828,828,828,828,828,828,828,828,828,828,828,828,828,828,828,828,828,828,828,828,828,828,828,828,829,829,829,829,829,829,829,829,829,829,829,829,829,829,829,829,829,828,822,801,783,769,762,762,762,762,762,762,762,762,762,765,775,778,779,779,779,779,779,779,779,779,779,780,780,780,779,741,709,678,655,606,582,551,542,535,531,529,527,527,527,527,515],"ymouse":[630,630,630,630,630,630,630,630,630,630,630,630,630,630,630,630,630,630,630,630,630,630,630,630,630,630,630,630,630,630,630,630,630,630,630,630,630,630,630,630,630,630,630,630,630,630,630,630,630,630,630,630,630,630,630,630,630,630,630,630,630,630,630,630,630,630,630,630,630,630,630,630,630,622,617,611,609,609,609,609,609,609,609,608,608,608,608,608,608,608,606,602,588,577,567,562,562,562,562,562,562,566,586,607,625,654,661,665,667,668,669,669,669,669,669,669,670,655,642,611,498,420,345,289,194,154,93,71,54,44,37,34,34,34,34,27],"timestamp_mouse":[9,35,43,62,82,101,122,142,162,181,201,223,242,262,282,302,321,343,363,382,401,421,442,461,482,503,523,541,562,582,601,623,642,661,681,701,721,741,762,782,801,822,842,862,882,902,922,941,961,983,1001,1022,1041,1062,1082,1101,1122,1142,1162,1182,1202,1223,1242,1262,1281,1301,1321,1343,1362,1381,1401,1422,1443,1462,1482,1502,1523,1541,1562,1581,1603,1622,1642,1662,1682,1702,1721,1743,1761,1782,1802,1821,1841,1861,1882,1901,1922,1942,1963,1981,2002,2021,2043,2062,2081,2101,2122,2142,2161,2181,2203,2223,2242,2262,2283,2301,2323,2341,2362,2382,2402,2422,2442,2462,2482,2502,2523,2542,2561,2582,2601,2621,2642,2661,2681,2702],"xSR":741.5,"ySR":573.95,"xT1":424.9,"yT1":0,"xT2":1058.1,"yT2":0,"toosoon":0,"cond_shown":"equaldotsize","ratio_trial":500,"smaller_num":"2","larger_num":"4","correct_side":1,"subjID":"LizethLopez14","gender":"1","age":"11","school":"6"},{"start_time":1551901382896,"click_time":1551901383877,"finger_time":1551901383636,"fix_duration":418.158794616414,"trial":29,"RT":740,"MT":241,"sideResp":2,"stimulus":"img/900/equaldotanddens/R/14_Ratio_900_L_18_R_20.png","xmouse":[816,816,816,816,816,816,816,816,816,816,816,816,816,816,816,816,816,816,816,816,816,816,816,816,816,816,816,816,816,816,816,816,816,816,816,825,838,858,892,970,1009,1040,1069,1079,1088,1104,1110,1115,1119,1125],"ymouse":[623,623,623,623,623,623,623,623,623,623,623,623,623,623,623,623,623,623,623,623,623,623,623,623,623,623,623,623,623,623,623,623,623,623,623,615,603,583,542,433,361,298,242,217,196,160,145,132,120,82],"timestamp_mouse":[8,24,41,60,80,100,121,140,160,180,202,221,240,261,282,300,321,340,362,380,400,420,442,460,480,500,520,541,561,581,601,621,641,660,681,702,722,740,761,781,800,821,840,861,881,902,920,941,961,980],"xSR":741.5,"ySR":573.95,"xT1":424.9,"yT1":0,"xT2":1058.1,"yT2":0,"toosoon":0,"cond_shown":"equaldotanddens","ratio_trial":900,"smaller_num":"18","larger_num":"20","correct_side":2,"subjID":"LizethLopez14","gender":"1","age":"11","school":"6"},{"start_time":1551901385710,"click_time":1551901388157,"finger_time":1551901387676,"fix_duration":771.0827600527006,"trial":30,"RT":1966,"MT":481,"sideResp":1,"stimulus":"img/750/equaldotsize/R/7_Ratio_750_L_3_R_4.png","xmouse":[795,795,795,795,795,795,795,795,795,795,795,795,795,795,795,795,795,795,795,795,795,795,795,795,795,795,795,795,795,795,795,795,795,795,795,795,795,795,795,795,795,795,795,795,795,795,795,795,795,795,795,795,795,795,795,795,795,795,795,795,795,795,795,795,795,795,795,795,795,795,795,795,795,795,795,795,795,795,795,795,795,795,795,795,795,795,795,795,795,795,795,795,795,795,795,795,797,800,800,794,779,749,730,682,653,619,575,531,454,417,388,361,350,347,347,347,347,347,347,353,367,401,432],"ymouse":[663,663,663,663,663,663,663,663,663,663,663,663,663,663,663,663,663,663,663,663,663,663,663,663,663,663,663,663,663,663,663,663,663,663,663,663,663,663,663,663,663,663,663,663,663,663,663,663,663,663,663,663,663,663,663,663,663,663,663,663,663,663,663,663,663,663,663,663,663,663,663,663,663,663,663,663,663,663,663,663,663,663,663,663,663,663,663,663,663,663,663,663,663,663,663,652,635,598,532,503,459,388,344,275,238,201,156,105,0,0,0,0,0,0,0,0,0,0,0,4,17,44,67],"timestamp_mouse":[10,34,48,66,87,107,126,147,166,186,207,226,247,266,287,307,327,347,366,387,407,428,447,466,486,507,527,547,566,586,607,626,648,666,686,706,726,747,766,786,807,826,846,867,887,907,926,947,967,987,1007,1028,1047,1068,1086,1108,1126,1148,1167,1186,1207,1227,1247,1267,1286,1306,1327,1347,1366,1387,1407,1428,1446,1467,1486,1507,1528,1548,1567,1588,1606,1626,1647,1666,1688,1708,1727,1746,1767,1787,1806,1827,1846,1866,1887,1906,1926,1947,1966,1986,2006,2027,2047,2066,2086,2106,2127,2147,2167,2186,2207,2228,2247,2267,2287,2306,2327,2346,2366,2386,2408,2427,2447],"xSR":741.5,"ySR":573.95,"xT1":424.9,"yT1":0,"xT2":1058.1,"yT2":0,"toosoon":0,"cond_shown":"equaldotsize","ratio_trial":750,"smaller_num":"3","larger_num":"4","correct_side":2,"subjID":"LizethLopez14","gender":"1","age":"11","school":"6"},{"start_time":1551901394083,"click_time":1551901395337,"finger_time":1551901394676,"fix_duration":1303.3774144910396,"trial":31,"RT":593,"MT":661,"sideResp":2,"stimulus":"img/250/equaldotsize/R/4_Ratio_250_L_3_R_12.png","xmouse":[808,808,808,808,808,808,808,808,808,808,808,808,808,808,808,808,808,808,808,808,808,808,808,808,808,808,818,825,835,856,870,884,911,928,991,998,999,999,998,997,997,994,993,993,1001,1010,1016,1023,1029,1037,1040,1043,1046,1049,1050,1050,1050,1051,1052,1054,1055,1057,1059],"ymouse":[646,646,646,646,646,646,646,646,646,646,646,646,646,646,646,646,646,646,646,646,646,646,646,646,646,646,639,632,624,598,585,571,547,520,409,374,349,327,310,286,272,255,238,210,171,154,144,135,128,114,108,100,95,87,82,81,80,78,76,71,69,66,62],"timestamp_mouse":[14,41,54,74,93,114,133,153,175,193,213,234,254,273,294,315,335,354,373,393,415,434,453,473,494,515,533,553,575,593,613,633,654,674,694,714,734,753,775,794,814,834,854,874,894,915,933,955,973,993,1014,1033,1053,1073,1093,1115,1134,1153,1174,1194,1213,1234,1254],"xSR":741.5,"ySR":573.95,"xT1":424.9,"yT1":0,"xT2":1058.1,"yT2":0,"toosoon":0,"cond_shown":"equaldotsize","ratio_trial":250,"smaller_num":"3","larger_num":"12","correct_side":2,"subjID":"LizethLopez14","gender":"1","age":"11","school":"6"},{"start_time":1551901397517,"click_time":1551901398776,"finger_time":1551901398477,"fix_duration":1178.951527943742,"trial":32,"RT":960,"MT":299,"sideResp":1,"stimulus":"img/900/randomdotsizeEA/R/12_Ratio_900_L_18_R_20.png","xmouse":[820,820,820,820,820,820,820,820,820,820,820,820,820,820,820,820,820,820,820,820,820,820,820,820,820,820,820,820,820,820,820,820,820,820,820,820,820,820,820,820,820,820,820,820,820,820,820,834,864,885,906,921,925,916,904,888,867,840,765,723,668,596,509,446],"ymouse":[628,628,628,628,628,628,628,628,628,628,628,628,628,628,628,628,628,628,628,628,628,628,628,628,628,628,628,628,628,628,628,628,628,628,628,628,628,628,628,628,628,628,628,628,628,628,628,624,613,600,585,570,544,508,487,465,437,405,326,284,231,174,111,72],"timestamp_mouse":[1,19,42,60,79,99,119,140,160,180,199,220,241,259,280,300,319,339,360,379,401,419,439,459,480,499,520,539,560,580,600,619,640,660,679,700,719,739,759,781,799,821,840,860,879,899,920,940,960,980,1000,1019,1041,1060,1080,1099,1119,1140,1160,1179,1199,1219,1241,1259],"xSR":741.5,"ySR":573.95,"xT1":424.9,"yT1":0,"xT2":1058.1,"yT2":0,"toosoon":0,"cond_shown":"randomdotsizeEA","ratio_trial":900,"smaller_num":"18","larger_num":"20","correct_side":2,"subjID":"LizethLopez14","gender":"1","age":"11","school":"6"},{"start_time":1551901401908,"click_time":1551901403177,"finger_time":1551901402697,"fix_duration":250,"trial":33,"RT":789,"MT":480,"sideResp":1,"stimulus":"img/500/randomdotsizeEA/L/10_Ratio_500_L_4_R_2.png","xmouse":[816,816,816,816,816,816,816,816,816,816,816,816,816,816,816,816,816,816,816,816,816,816,816,816,816,816,816,816,816,816,816,816,816,816,816,816,817,817,817,817,817,808,765,702,680,665,655,646,642,635,630,625,625,625,614,602,590,578,565,564,563,556,531,513],"ymouse":[613,613,613,613,613,613,613,613,613,613,613,613,613,613,613,613,613,613,613,613,613,613,613,613,613,613,613,613,613,613,613,613,613,613,613,613,612,612,592,560,505,442,327,184,137,102,76,56,43,24,15,10,10,9,14,22,30,37,40,40,40,40,40,37],"timestamp_mouse":[13,35,49,70,88,109,129,148,168,189,209,230,248,270,288,310,328,348,369,389,409,428,449,468,488,509,528,548,568,589,608,630,649,668,690,709,729,749,768,789,809,829,850,868,888,908,929,948,969,989,1008,1028,1049,1069,1090,1109,1129,1150,1168,1189,1209,1229,1250,1269],"xSR":741.5,"ySR":573.95,"xT1":424.9,"yT1":0,"xT2":1058.1,"yT2":0,"toosoon":0,"cond_shown":"randomdotsizeEA","ratio_trial":500,"smaller_num":"2","larger_num":"4","correct_side":1,"subjID":"LizethLopez14","gender":"1","age":"11","school":"6"},{"start_time":1551901410583,"click_time":1551901411637,"finger_time":1551901411378,"fix_duration":444.11605842764936,"trial":34,"RT":795,"MT":259,"sideResp":1,"stimulus":"img/750/equaldotsize/R/5_Ratio_750_L_15_R_20.png","xmouse":[799,799,799,799,799,799,799,799,799,799,799,799,799,799,799,799,799,799,799,799,799,799,799,799,799,799,799,799,799,799,799,799,799,799,799,799,799,800,808,808,793,778,765,754,734,717,692,656,603,526,492,453,436],"ymouse":[602,602,602,602,602,602,602,602,602,602,602,602,602,602,602,602,602,602,602,602,602,602,602,602,602,602,602,602,602,602,602,602,602,602,602,602,601,600,587,525,485,450,422,396,348,322,292,259,221,168,142,112,96],"timestamp_mouse":[14,43,53,74,93,114,134,155,173,193,213,235,254,274,294,315,333,353,373,394,414,434,453,475,494,515,533,554,574,593,614,634,655,674,694,713,733,753,774,795,813,834,854,875,894,913,933,954,973,994,1015,1034,1054],"xSR":741.5,"ySR":573.95,"xT1":424.9,"yT1":0,"xT2":1058.1,"yT2":0,"toosoon":0,"cond_shown":"equaldotsize","ratio_trial":750,"smaller_num":"15","larger_num":"20","correct_side":2,"subjID":"LizethLopez14","gender":"1","age":"11","school":"6"},{"start_time":1551901413411,"click_time":1551901414257,"finger_time":1551901414117,"fix_duration":1051.0042678154946,"trial":35,"RT":706,"MT":140,"sideResp":1,"stimulus":"img/900/randomdotsizeEA/L/1_Ratio_900_L_10_R_9.png","xmouse":[788,788,788,788,788,788,788,788,788,788,788,788,788,788,788,788,788,788,788,788,788,788,788,788,788,788,788,788,788,788,788,788,788,778,754,719,643,576,488,473,466,463,461],"ymouse":[650,650,650,650,650,650,650,650,650,650,650,650,650,650,650,650,650,650,650,650,650,650,650,650,650,650,650,650,650,650,650,650,650,629,587,525,412,331,204,169,142,119,97],"timestamp_mouse":[10,30,45,65,87,105,125,146,165,186,207,226,247,265,286,306,325,345,365,385,405,426,446,466,487,506,525,545,565,585,605,627,645,665,685,706,727,745,766,787,806,827,846],"xSR":741.5,"ySR":573.95,"xT1":424.9,"yT1":0,"xT2":1058.1,"yT2":0,"toosoon":0,"cond_shown":"randomdotsizeEA","ratio_trial":900,"smaller_num":"9","larger_num":"10","correct_side":1,"subjID":"LizethLopez14","gender":"1","age":"11","school":"6"},{"start_time":1551901419060,"click_time":1551901420117,"finger_time":1551901419776,"fix_duration":361.7580161624939,"trial":36,"RT":716,"MT":341,"sideResp":2,"stimulus":"img/250/equaldotanddens/R/12_Ratio_250_L_5_R_20.png","xmouse":[809,809,809,809,809,809,809,809,809,809,809,809,809,809,809,809,809,809,809,809,809,809,809,809,809,809,809,809,809,809,809,809,809,809,811,878,941,987,1033,1085,1185,1213,1220,1220,1212,1196,1185,1176,1168,1167,1167,1164,1157],"ymouse":[618,618,618,618,618,618,618,618,618,618,618,618,618,618,618,618,618,618,618,618,618,618,618,618,618,618,618,618,618,618,618,618,618,618,618,580,525,465,397,328,182,114,73,44,9,0,0,0,0,0,0,1,10],"timestamp_mouse":[34,36,57,76,96,116,136,157,176,196,217,237,258,277,298,317,336,358,378,396,417,436,457,477,497,516,536,557,576,597,618,637,656,676,697,716,736,757,777,798,816,836,857,876,897,917,937,957,977,998,1017,1037,1057],"xSR":741.5,"ySR":573.95,"xT1":424.9,"yT1":0,"xT2":1058.1,"yT2":0,"toosoon":0,"cond_shown":"equaldotanddens","ratio_trial":250,"smaller_num":"5","larger_num":"20","correct_side":2,"subjID":"LizethLopez14","gender":"1","age":"11","school":"6"},{"start_time":1551901421228,"click_time":1551901422397,"finger_time":1551901421997,"fix_duration":250,"trial":37,"RT":769,"MT":400,"sideResp":1,"stimulus":"img/500/randomdotsizeEA/L/4_Ratio_500_L_18_R_9.png","xmouse":[828,828,828,828,828,828,828,828,828,828,828,828,828,828,828,828,828,828,828,828,828,828,828,828,828,828,828,828,828,828,828,828,828,828,828,828,823,801,773,752,738,731,722,716,712,699,687,656,634,604,569,533,486,476,473,472,472,472,475],"ymouse":[647,647,647,647,647,647,647,647,647,647,647,647,647,647,647,647,647,647,647,647,647,647,647,647,647,647,647,647,647,647,647,647,647,647,647,647,644,615,568,528,501,481,453,439,422,393,373,330,306,275,245,217,182,171,163,148,131,112,85],"timestamp_mouse":[16,39,48,68,89,110,128,150,168,189,209,230,249,268,288,308,328,349,368,389,409,429,450,469,489,510,529,549,568,588,610,628,648,669,688,709,729,749,769,789,809,829,848,868,889,908,929,949,968,989,1010,1030,1049,1070,1088,1109,1130,1149,1169],"xSR":741.5,"ySR":573.95,"xT1":424.9,"yT1":0,"xT2":1058.1,"yT2":0,"toosoon":0,"cond_shown":"randomdotsizeEA","ratio_trial":500,"smaller_num":"9","larger_num":"18","correct_side":1,"subjID":"LizethLopez14","gender":"1","age":"11","school":"6"},{"start_time":1551901428781,"click_time":1551901429818,"finger_time":1551901429558,"fix_duration":1403.4164402055226,"trial":38,"RT":777,"MT":260,"sideResp":1,"stimulus":"img/900/randomdotsizeEA/R/11_Ratio_900_L_18_R_20.png","xmouse":[833,833,833,833,833,833,833,827,816,802,783,780,780,780,780,779,779,777,775,775,775,775,775,775,775,777,780,789,796,807,809,809,809,809,809,808,803,766,722,623,573,530,491,458,422,418,418,417,417,420,423,429],"ymouse":[627,627,627,627,627,627,627,628,627,625,624,624,624,624,624,622,617,606,594,592,592,592,592,592,592,599,605,624,636,655,661,662,662,662,662,658,647,575,517,394,335,282,232,187,138,127,118,115,108,98,93,87],"timestamp_mouse":[16,40,57,77,96,117,136,155,176,196,217,235,255,276,297,317,335,356,377,396,415,436,456,477,497,516,536,556,576,596,616,636,656,676,697,716,736,756,777,796,816,836,856,876,896,916,936,955,977,995,1016,1037],"xSR":741.5,"ySR":573.95,"xT1":424.9,"yT1":0,"xT2":1058.1,"yT2":0,"toosoon":0,"cond_shown":"randomdotsizeEA","ratio_trial":900,"smaller_num":"18","larger_num":"20","correct_side":2,"subjID":"LizethLopez14","gender":"1","age":"11","school":"6"},{"start_time":1551901431923,"click_time":1551901432737,"finger_time":1551901432577,"fix_duration":1184.2142646701652,"trial":39,"RT":654,"MT":160,"sideResp":1,"stimulus":"img/900/randomdotsizeEA/L/1_Ratio_900_L_10_R_9.png","xmouse":[795,795,796,796,796,796,796,796,796,796,796,796,796,796,799,801,812,824,828,829,830,830,830,830,830,830,830,830,830,829,826,810,779,760,738,704,666,577,534,503,481],"ymouse":[619,619,619,619,619,619,619,619,619,619,619,619,619,619,620,620,614,604,602,600,600,600,600,600,600,600,600,600,599,599,598,590,570,553,530,483,416,256,184,136,93],"timestamp_mouse":[15,34,53,74,95,114,135,153,174,194,215,234,254,273,294,315,335,354,375,394,414,434,454,475,493,514,535,555,574,595,613,634,654,673,694,714,735,754,773,795,814],"xSR":741.5,"ySR":573.95,"xT1":424.9,"yT1":0,"xT2":1058.1,"yT2":0,"toosoon":0,"cond_shown":"randomdotsizeEA","ratio_trial":900,"smaller_num":"9","larger_num":"10","correct_side":1,"subjID":"LizethLopez14","gender":"1","age":"11","school":"6"},{"start_time":1551901436684,"click_time":1551901437777,"finger_time":1551901437377,"fix_duration":1205.6968581956717,"trial":40,"RT":693,"MT":400,"sideResp":2,"stimulus":"img/900/equaldotsize/R/7_Ratio_900_L_9_R_10.png","xmouse":[822,822,822,822,822,822,822,822,822,822,822,822,822,822,822,822,822,822,822,822,822,822,822,822,822,822,822,822,822,822,822,822,822,828,872,903,945,992,1022,1060,1071,1078,1079,1076,1068,1063,1056,1050,1046,1044,1044,1046,1050,1056,1069],"ymouse":[628,628,628,628,628,628,628,628,628,628,628,628,628,628,628,628,628,628,628,628,628,628,628,628,628,628,628,628,628,628,628,628,628,625,599,573,537,494,457,388,360,333,283,248,202,186,167,153,143,130,122,115,102,93,66],"timestamp_mouse":[13,43,53,73,92,114,134,154,174,194,212,233,252,274,292,313,332,354,373,393,413,433,452,472,494,513,534,553,573,594,613,633,654,673,693,714,733,752,774,794,812,832,853,873,893,914,933,953,973,992,1013,1034,1053,1074,1093],"xSR":741.5,"ySR":573.95,"xT1":424.9,"yT1":0,"xT2":1058.1,"yT2":0,"toosoon":0,"cond_shown":"equaldotsize","ratio_trial":900,"smaller_num":"9","larger_num":"10","correct_side":2,"subjID":"LizethLopez14","gender":"1","age":"11","school":"6"},{"start_time":1551901440199,"click_time":1551901441397,"finger_time":1551901440937,"fix_duration":1459.401677344159,"trial":41,"RT":738,"MT":460,"sideResp":1,"stimulus":"img/750/equaldotanddens/L/10_Ratio_750_L_4_R_3.png","xmouse":[808,808,808,808,808,808,808,808,808,808,808,808,808,808,808,808,808,808,808,808,808,808,808,808,808,808,808,808,808,808,808,808,808,808,805,796,780,734,614,537,458,380,315,252,247,246,247,250,257,265,272,280,290,312,323,359,370,393,419,428],"ymouse":[621,621,621,621,621,621,621,621,621,621,621,621,621,621,621,621,621,621,621,621,621,621,621,621,621,621,621,621,621,621,621,621,621,621,607,582,552,490,392,337,283,234,186,128,110,98,85,76,55,45,35,27,21,18,22,43,49,62,77,83],"timestamp_mouse":[18,42,58,77,98,118,139,157,178,197,217,239,258,278,297,319,338,357,378,398,417,439,458,478,497,518,539,557,579,599,618,638,658,678,698,717,738,759,777,798,818,839,857,878,898,918,938,958,978,997,1018,1038,1058,1077,1097,1121,1138,1159,1178,1198],"xSR":741.5,"ySR":573.95,"xT1":424.9,"yT1":0,"xT2":1058.1,"yT2":0,"toosoon":0,"cond_shown":"equaldotanddens","ratio_trial":750,"smaller_num":"3","larger_num":"4","correct_side":1,"subjID":"LizethLopez14","gender":"1","age":"11","school":"6"},{"start_time":1551901443072,"click_time":1551901444077,"finger_time":1551901443737,"fix_duration":774.9936621960883,"trial":42,"RT":665,"MT":340,"sideResp":1,"stimulus":"img/250/equaldotsize/L/7_Ratio_250_L_8_R_2.png","xmouse":[819,819,819,819,819,819,819,819,819,819,819,819,819,819,819,819,819,819,819,819,819,819,819,819,818,813,809,805,800,794,781,771,751,735,715,660,631,595,556,520,483,470,461,461,460,460,460,460,461,463,466],"ymouse":[614,614,614,614,614,614,614,614,614,614,614,614,614,614,614,614,614,614,614,614,614,614,614,614,614,615,617,617,619,620,621,621,614,603,586,515,474,424,372,324,271,250,229,218,204,172,156,142,125,110,88],"timestamp_mouse":[10,38,46,66,85,104,126,145,166,186,204,225,246,264,286,305,324,345,366,386,404,426,444,465,485,505,526,546,564,586,605,626,645,665,685,705,726,745,766,785,804,824,845,865,886,904,924,945,966,985,1005],"xSR":741.5,"ySR":573.95,"xT1":424.9,"yT1":0,"xT2":1058.1,"yT2":0,"toosoon":0,"cond_shown":"equaldotsize","ratio_trial":250,"smaller_num":"2","larger_num":"8","correct_side":1,"subjID":"LizethLopez14","gender":"1","age":"11","school":"6"},{"start_time":1551901445811,"click_time":1551901447177,"finger_time":1551901446656,"fix_duration":852.5533542162611,"trial":43,"RT":845,"MT":521,"sideResp":2,"stimulus":"img/750/equaldotanddens/R/3_Ratio_750_L_15_R_20.png","xmouse":[812,812,812,812,812,812,812,812,812,812,812,812,812,812,812,812,812,812,812,812,812,812,812,812,812,812,812,812,812,812,812,812,812,812,812,812,812,812,816,823,830,839,847,860,866,875,885,892,905,912,918,924,928,939,946,960,966,979,997,1004,1012,1018,1024,1032,1038,1041,1047,1055,1064],"ymouse":[629,629,629,629,629,629,629,629,629,629,629,629,629,629,629,629,629,629,629,629,629,629,629,629,629,629,629,629,629,629,629,629,629,629,629,629,629,629,625,615,602,587,575,552,535,515,479,454,387,343,304,270,245,206,189,165,156,136,104,91,78,68,61,55,53,51,49,45,42],"timestamp_mouse":[10,31,46,67,86,105,126,145,166,185,206,226,247,265,286,307,326,345,367,387,405,426,445,466,487,507,527,546,565,587,607,627,646,666,687,707,726,746,766,787,806,826,845,866,885,907,926,946,966,986,1006,1026,1046,1066,1086,1105,1126,1147,1166,1185,1206,1227,1246,1266,1286,1307,1326,1346,1366],"xSR":741.5,"ySR":573.95,"xT1":424.9,"yT1":0,"xT2":1058.1,"yT2":0,"toosoon":0,"cond_shown":"equaldotanddens","ratio_trial":750,"smaller_num":"15","larger_num":"20","correct_side":2,"subjID":"LizethLopez14","gender":"1","age":"11","school":"6"},{"start_time":1551901448606,"click_time":1551901449977,"finger_time":1551901449557,"fix_duration":688.8696628073424,"trial":44,"RT":951,"MT":420,"sideResp":2,"stimulus":"img/750/randomdotsizeEA/R/15_Ratio_750_L_9_R_12.png","xmouse":[814,814,814,814,814,814,814,814,814,814,814,814,814,814,814,813,811,807,797,791,787,782,782,782,782,782,782,782,782,782,782,782,782,782,782,784,786,791,799,801,801,801,801,801,801,801,797,791,763,746,728,715,708,707,707,711,716,748,788,877,912,933,950,1004,1022,1038,1047,1060,1069],"ymouse":[661,661,661,661,661,661,661,661,661,661,661,661,661,661,661,661,661,654,627,614,604,595,590,589,588,588,588,588,588,588,588,588,588,588,589,596,603,623,644,646,648,648,648,648,646,635,594,558,483,454,423,400,387,382,382,382,382,390,403,419,419,414,399,292,227,173,140,112,92],"timestamp_mouse":[11,36,51,70,92,110,131,152,170,192,211,231,251,271,290,310,331,352,371,391,412,431,451,471,491,510,532,550,572,591,611,631,650,671,691,711,731,751,771,791,810,831,851,872,890,912,931,951,970,992,1012,1032,1052,1071,1091,1110,1131,1152,1171,1192,1211,1232,1251,1270,1290,1311,1332,1351,1371],"xSR":741.5,"ySR":573.95,"xT1":424.9,"yT1":0,"xT2":1058.1,"yT2":0,"toosoon":0,"cond_shown":"randomdotsizeEA","ratio_trial":750,"smaller_num":"9","larger_num":"12","correct_side":2,"subjID":"LizethLopez14","gender":"1","age":"11","school":"6"},{"start_time":1551901452130,"click_time":1551901453176,"finger_time":1551901452877,"fix_duration":1131.1115285646442,"trial":45,"RT":747,"MT":299,"sideResp":1,"stimulus":"img/900/equaldotanddens/L/2_Ratio_900_L_20_R_18.png","xmouse":[822,822,822,822,822,822,822,822,822,822,822,822,822,822,822,822,822,822,822,822,822,822,822,822,822,822,822,822,822,822,822,822,822,822,822,820,809,716,649,593,544,531,516,511,508,506,505,505,505,506,508,508,508],"ymouse":[658,658,658,658,658,658,658,658,658,658,658,658,658,658,658,658,658,658,658,658,658,658,658,658,658,658,658,658,658,658,658,658,658,658,658,643,622,482,399,332,272,252,232,225,221,217,216,208,198,182,161,118,84],"timestamp_mouse":[10,31,47,67,88,107,127,147,166,186,207,227,246,268,288,307,326,347,368,387,407,427,446,467,488,506,528,547,566,587,607,626,648,668,687,707,728,747,768,786,807,828,847,868,888,906,927,946,967,987,1007,1026,1046],"xSR":741.5,"ySR":573.95,"xT1":424.9,"yT1":0,"xT2":1058.1,"yT2":0,"toosoon":0,"cond_shown":"equaldotanddens","ratio_trial":900,"smaller_num":"18","larger_num":"20","correct_side":1,"subjID":"LizethLopez14","gender":"1","age":"11","school":"6"},{"start_time":1551901454693,"click_time":1551901455796,"finger_time":1551901455478,"fix_duration":815.8649054745041,"trial":46,"RT":785,"MT":318,"sideResp":1,"stimulus":"img/750/equaldotsize/L/14_Ratio_750_L_8_R_6.png","xmouse":[837,837,837,837,837,837,837,837,837,837,837,837,837,837,837,837,837,837,837,837,837,837,837,837,837,837,837,837,837,837,837,837,837,837,837,837,836,833,821,780,743,700,648,624,590,575,561,550,541,526,521,516,510,504,479,468],"ymouse":[621,621,621,621,621,621,621,621,621,621,621,621,621,621,621,621,621,621,621,621,621,621,621,621,621,621,621,621,621,621,621,621,621,621,621,621,621,621,598,544,505,467,417,388,343,325,304,285,268,237,220,203,184,162,104,78],"timestamp_mouse":[11,32,44,64,84,104,124,145,164,185,205,223,244,264,283,303,324,345,363,383,404,424,444,465,484,505,525,545,563,584,605,623,644,665,684,705,724,745,764,785,804,824,844,865,884,905,924,944,965,984,1003,1023,1044,1064,1084,1103],"xSR":741.5,"ySR":573.95,"xT1":424.9,"yT1":0,"xT2":1058.1,"yT2":0,"toosoon":0,"cond_shown":"equaldotsize","ratio_trial":750,"smaller_num":"6","larger_num":"8","correct_side":1,"subjID":"LizethLopez14","gender":"1","age":"11","school":"6"},{"start_time":1551901456963,"click_time":1551901458137,"finger_time":1551901457757,"fix_duration":485.821741311432,"trial":47,"RT":794,"MT":380,"sideResp":2,"stimulus":"img/750/equaldotanddens/R/15_Ratio_750_L_9_R_12.png","xmouse":[826,826,826,826,826,826,826,826,826,826,826,826,826,826,826,826,826,826,826,826,826,826,826,826,826,826,826,826,826,826,826,826,826,826,826,826,826,826,832,859,922,950,968,982,996,1015,1018,1020,1020,1021,1024,1029,1033,1037,1043,1051,1072,1085,1104],"ymouse":[638,638,638,638,638,638,638,638,638,638,638,638,638,638,638,638,638,638,638,638,638,638,638,638,638,638,638,638,638,638,638,638,638,638,638,638,638,638,629,581,455,405,373,347,324,290,283,271,258,249,240,219,207,192,178,160,125,108,81],"timestamp_mouse":[14,34,54,73,94,115,134,154,173,194,214,234,254,275,294,314,333,354,374,395,413,434,454,475,495,513,534,553,575,595,614,634,655,673,695,715,733,754,774,794,814,835,854,874,894,914,933,954,974,994,1014,1034,1055,1075,1094,1114,1135,1154,1174],"xSR":741.5,"ySR":573.95,"xT1":424.9,"yT1":0,"xT2":1058.1,"yT2":0,"toosoon":0,"cond_shown":"equaldotanddens","ratio_trial":750,"smaller_num":"9","larger_num":"12","correct_side":2,"subjID":"LizethLopez14","gender":"1","age":"11","school":"6"},{"start_time":1551901459506,"click_time":1551901460738,"finger_time":1551901460398,"fix_duration":488.4911551197706,"trial":48,"RT":892,"MT":340,"sideResp":2,"stimulus":"img/500/randomdotsizeEA/R/15_Ratio_500_L_1_R_2.png","xmouse":[829,829,829,829,829,829,829,829,829,829,829,829,829,829,829,829,829,829,829,829,829,829,829,829,829,829,829,829,829,829,829,829,829,829,829,829,829,829,829,829,829,829,829,836,845,863,885,921,965,1079,1137,1183,1194,1196,1195,1187,1176,1158,1139,1126,1122,1115],"ymouse":[647,647,647,647,647,647,647,647,647,647,647,647,647,647,647,647,647,647,647,647,647,647,647,647,647,647,647,647,647,647,647,647,647,647,647,647,647,647,647,647,647,646,641,601,577,543,504,447,387,253,183,99,63,14,0,0,0,0,0,0,0,6],"timestamp_mouse":[11,37,51,70,91,111,130,150,172,191,212,231,251,272,291,312,330,352,372,392,411,431,452,471,491,510,531,550,572,591,610,631,652,671,690,711,732,751,771,791,810,831,851,872,892,911,931,951,970,991,1011,1031,1051,1071,1090,1111,1131,1151,1171,1191,1212,1232],"xSR":741.5,"ySR":573.95,"xT1":424.9,"yT1":0,"xT2":1058.1,"yT2":0,"toosoon":0,"cond_shown":"randomdotsizeEA","ratio_trial":500,"smaller_num":"1","larger_num":"2","correct_side":2,"subjID":"LizethLopez14","gender":"1","age":"11","school":"6"},{"start_time":1551901463001,"click_time":1551901464217,"finger_time":1551901463617,"fix_duration":1222.2354085074116,"trial":49,"RT":616,"MT":600,"sideResp":1,"stimulus":"img/750/randomdotsizeEA/R/7_Ratio_750_L_3_R_4.png","xmouse":[829,829,829,829,829,829,829,829,829,829,829,829,829,829,829,829,829,829,829,829,829,829,828,825,824,824,824,823,820,818,815,812,807,801,796,788,774,763,751,749,748,748,748,748,756,765,781,787,792,792,792,792,792,792,792,792,792,788,668,565,459],"ymouse":[643,643,643,643,643,643,643,643,643,643,643,643,643,643,643,643,643,643,643,643,640,636,629,621,620,619,618,614,598,584,569,549,526,475,448,422,389,370,345,339,336,336,334,330,312,302,294,292,291,291,291,291,291,291,291,291,291,286,205,135,65],"timestamp_mouse":[16,38,56,75,96,115,136,155,176,197,217,236,256,276,296,316,337,355,377,395,415,437,456,476,497,516,536,557,576,596,616,636,657,675,695,717,737,756,776,796,816,836,855,876,897,917,936,955,975,995,1016,1036,1056,1075,1096,1117,1137,1155,1176,1197,1216],"xSR":741.5,"ySR":573.95,"xT1":424.9,"yT1":0,"xT2":1058.1,"yT2":0,"toosoon":0,"cond_shown":"randomdotsizeEA","ratio_trial":750,"smaller_num":"3","larger_num":"4","correct_side":2,"subjID":"LizethLopez14","gender":"1","age":"11","school":"6"},{"start_time":1551901479670,"click_time":1551901480697,"finger_time":1551901480277,"fix_duration":1091.6650101091789,"trial":50,"RT":607,"MT":420,"sideResp":2,"stimulus":"img/250/equaldotanddens/R/12_Ratio_250_L_5_R_20.png","xmouse":[798,798,798,798,798,798,798,798,798,798,798,798,798,798,798,798,798,798,798,798,798,798,798,798,798,798,798,802,812,823,872,918,963,1028,1072,1126,1142,1160,1174,1180,1185,1182,1169,1157,1142,1136,1136,1136,1136,1134,1129,1126],"ymouse":[618,618,618,618,618,618,618,618,618,618,618,618,618,618,618,618,618,618,618,618,618,618,618,618,618,618,617,615,613,609,588,558,521,451,402,323,287,247,205,174,140,67,24,0,0,0,0,0,0,0,0,2],"timestamp_mouse":[10,39,47,66,86,107,128,148,166,188,207,226,248,268,287,307,327,347,368,386,406,427,448,467,488,508,527,547,568,588,607,627,646,667,686,706,728,747,768,788,806,826,847,867,888,907,927,947,966,987,1007,1027],"xSR":741.5,"ySR":573.95,"xT1":424.9,"yT1":0,"xT2":1058.1,"yT2":0,"toosoon":0,"cond_shown":"equaldotanddens","ratio_trial":250,"smaller_num":"5","larger_num":"20","correct_side":2,"subjID":"LizethLopez14","gender":"1","age":"11","school":"6"},{"start_time":1551901520547,"click_time":1551901521577,"finger_time":1551901521237,"fix_duration":1129.5899726655841,"trial":51,"RT":690,"MT":340,"sideResp":1,"stimulus":"img/900/equaldotsize/R/13_Ratio_900_L_18_R_20.png","xmouse":[792,792,792,792,792,792,792,792,792,792,792,792,792,792,792,792,792,792,792,792,792,792,792,792,792,792,792,792,792,792,792,792,790,781,767,744,674,640,623,615,600,571,560,558,558,558,558,558,557,547,530,500],"ymouse":[628,628,628,628,628,628,628,628,628,628,628,628,628,628,628,628,628,628,628,628,628,628,628,628,628,628,628,628,628,628,628,628,617,593,542,450,256,190,149,123,82,12,0,0,0,0,0,0,0,9,27,55],"timestamp_mouse":[11,32,51,70,90,111,131,149,170,190,211,231,250,269,291,309,330,351,370,389,411,429,449,470,489,510,530,550,570,589,610,629,649,669,690,711,729,750,769,791,811,829,849,870,890,909,929,949,970,990,1009,1029],"xSR":741.5,"ySR":573.95,"xT1":424.9,"yT1":0,"xT2":1058.1,"yT2":0,"toosoon":0,"cond_shown":"equaldotsize","ratio_trial":900,"smaller_num":"18","larger_num":"20","correct_side":2,"subjID":"LizethLopez14","gender":"1","age":"11","school":"6"},{"start_time":1551901522628,"click_time":1551901523597,"finger_time":1551901523418,"fix_duration":250,"trial":52,"RT":790,"MT":179,"sideResp":2,"stimulus":"img/750/randomdotsizeEA/R/12_Ratio_750_L_3_R_4.png","xmouse":[808,808,808,808,808,808,808,808,808,808,808,808,808,808,808,808,808,808,808,808,808,808,808,808,808,808,808,808,808,808,808,808,808,808,808,808,808,808,817,835,865,910,985,1015,1043,1076,1111,1146,1156],"ymouse":[591,591,591,591,591,591,591,591,591,591,591,591,591,591,591,591,591,591,591,591,591,591,591,591,591,591,591,591,591,591,591,591,591,591,591,591,591,591,585,566,533,482,396,356,311,252,165,104,87],"timestamp_mouse":[21,38,48,69,89,108,129,149,169,189,209,229,249,269,289,309,329,349,369,388,410,428,449,469,488,510,528,548,570,588,608,629,649,669,688,710,728,749,769,790,809,829,848,870,889,909,928,949,969],"xSR":741.5,"ySR":573.95,"xT1":424.9,"yT1":0,"xT2":1058.1,"yT2":0,"toosoon":0,"cond_shown":"randomdotsizeEA","ratio_trial":750,"smaller_num":"3","larger_num":"4","correct_side":2,"subjID":"LizethLopez14","gender":"1","age":"11","school":"6"},{"start_time":1551901525226,"click_time":1551901526236,"finger_time":1551901525936,"fix_duration":686.3443363013763,"trial":53,"RT":710,"MT":300,"sideResp":1,"stimulus":"img/900/equaldotanddens/L/1_Ratio_900_L_10_R_9.png","xmouse":[788,788,788,788,788,788,788,788,788,788,788,788,788,788,788,788,788,788,788,788,788,788,788,788,788,788,788,788,788,788,788,788,788,786,776,721,665,590,424,378,357,355,371,384,398,407,413,417,421,425,432],"ymouse":[606,606,606,606,606,606,606,606,606,606,606,606,606,606,606,606,606,606,606,606,606,606,606,606,606,606,606,606,606,606,606,606,606,604,589,503,421,328,170,114,73,47,6,0,0,0,0,0,0,0,3],"timestamp_mouse":[10,31,52,70,91,111,130,151,170,190,210,230,252,272,290,312,331,350,370,392,410,430,450,470,491,510,532,550,570,590,610,632,650,670,691,710,731,751,771,790,811,832,851,870,891,911,931,951,970,991,1010],"xSR":741.5,"ySR":573.95,"xT1":424.9,"yT1":0,"xT2":1058.1,"yT2":0,"toosoon":0,"cond_shown":"equaldotanddens","ratio_trial":900,"smaller_num":"9","larger_num":"10","correct_side":1,"subjID":"LizethLopez14","gender":"1","age":"11","school":"6"},{"start_time":1551901529770,"click_time":1551901530756,"finger_time":1551901530377,"fix_duration":712.1563374000485,"trial":54,"RT":607,"MT":379,"sideResp":2,"stimulus":"img/500/equaldotanddens/R/1_Ratio_500_L_9_R_18.png","xmouse":[803,803,803,803,803,803,803,803,803,803,803,803,803,803,803,803,803,803,803,803,803,803,803,803,803,803,803,803,806,813,854,892,943,1008,1081,1188,1220,1232,1235,1235,1235,1235,1235,1234,1233,1233,1232,1220,1174,1136],"ymouse":[617,617,617,617,617,617,617,617,617,617,617,617,617,617,617,617,617,617,617,617,617,617,617,617,617,617,617,617,615,609,572,528,467,405,342,190,124,73,34,4,0,0,0,0,0,0,0,7,42,65],"timestamp_mouse":[11,39,46,67,86,108,128,147,168,187,208,228,247,267,288,307,326,347,366,387,407,426,448,468,486,507,527,547,567,586,607,626,646,667,687,706,727,747,768,786,806,827,846,867,886,907,927,946,966,986],"xSR":741.5,"ySR":573.95,"xT1":424.9,"yT1":0,"xT2":1058.1,"yT2":0,"toosoon":0,"cond_shown":"equaldotanddens","ratio_trial":500,"smaller_num":"9","larger_num":"18","correct_side":2,"subjID":"LizethLopez14","gender":"1","age":"11","school":"6"},{"start_time":1551901532075,"click_time":1551901532856,"finger_time":1551901532576,"fix_duration":516.1399474307744,"trial":55,"RT":501,"MT":280,"sideResp":2,"stimulus":"img/250/equaldotsize/R/13_Ratio_250_L_2_R_8.png","xmouse":[817,817,817,817,817,817,817,817,817,817,817,817,817,817,817,817,817,817,817,817,817,817,817,820,841,944,998,1050,1098,1136,1187,1194,1196,1196,1196,1195,1191,1184,1173,1158],"ymouse":[601,601,601,601,601,601,601,601,601,601,601,601,601,601,601,601,601,601,601,601,601,601,601,598,578,473,413,344,276,207,110,91,81,76,74,70,65,59,51,40],"timestamp_mouse":[8,32,41,62,83,102,123,142,162,182,202,221,242,261,281,301,322,342,362,381,401,421,441,462,481,501,522,542,562,581,601,623,643,661,683,702,722,741,762,781],"xSR":741.5,"ySR":573.95,"xT1":424.9,"yT1":0,"xT2":1058.1,"yT2":0,"toosoon":0,"cond_shown":"equaldotsize","ratio_trial":250,"smaller_num":"2","larger_num":"8","correct_side":2,"subjID":"LizethLopez14","gender":"1","age":"11","school":"6"},{"start_time":1551901534598,"click_time":1551901535736,"finger_time":1551901535376,"fix_duration":860.303467590049,"trial":56,"RT":778,"MT":360,"sideResp":1,"stimulus":"img/750/equaldotanddens/L/8_Ratio_750_L_4_R_3.png","xmouse":[770,770,770,770,770,770,770,770,770,770,770,770,770,770,770,770,770,770,770,770,770,770,770,770,770,770,770,770,770,770,764,761,757,754,754,754,753,747,696,638,565,501,457,399,373,354,344,338,337,337,338,342,347,371,387,407,431],"ymouse":[631,631,631,631,631,631,631,631,631,631,631,631,631,631,631,631,631,631,631,631,631,631,631,631,631,631,631,631,631,631,631,631,631,631,631,631,631,626,558,477,371,279,209,113,67,36,16,4,0,0,0,0,0,0,0,5,18],"timestamp_mouse":[33,39,59,80,99,119,139,160,178,198,219,239,260,279,300,319,338,358,380,399,419,438,458,478,500,519,539,559,580,599,620,639,659,678,698,720,740,759,778,799,819,839,859,879,899,920,939,960,980,1000,1020,1040,1060,1079,1100,1120,1138],"xSR":741.5,"ySR":573.95,"xT1":424.9,"yT1":0,"xT2":1058.1,"yT2":0,"toosoon":0,"cond_shown":"equaldotanddens","ratio_trial":750,"smaller_num":"3","larger_num":"4","correct_side":1,"subjID":"LizethLopez14","gender":"1","age":"11","school":"6"},{"start_time":1551901537709,"click_time":1551901538677,"finger_time":1551901538318,"fix_duration":1051.3413923804662,"trial":57,"RT":609,"MT":359,"sideResp":2,"stimulus":"img/250/equaldotanddens/R/10_Ratio_250_L_4_R_16.png","xmouse":[763,763,763,763,763,763,763,763,763,763,763,763,763,763,763,763,763,763,763,763,763,763,763,763,763,763,763,763,767,785,819,878,989,1128,1165,1179,1182,1182,1182,1182,1180,1177,1171,1160,1155,1145,1134,1122,1111],"ymouse":[598,598,598,598,598,598,598,598,598,598,598,598,598,598,598,598,598,598,598,598,598,598,598,598,598,598,598,598,598,591,573,539,468,353,308,275,254,237,216,213,209,204,194,179,170,155,138,114,60],"timestamp_mouse":[10,31,47,68,87,108,128,148,168,187,209,227,247,267,289,308,327,349,367,389,409,427,447,467,487,508,527,548,568,587,609,628,649,667,687,707,728,748,768,788,808,829,847,867,887,907,928,947,967],"xSR":741.5,"ySR":573.95,"xT1":424.9,"yT1":0,"xT2":1058.1,"yT2":0,"toosoon":0,"cond_shown":"equaldotanddens","ratio_trial":250,"smaller_num":"4","larger_num":"16","correct_side":2,"subjID":"LizethLopez14","gender":"1","age":"11","school":"6"},{"start_time":1551901540843,"click_time":1551901541876,"finger_time":1551901541558,"fix_duration":1384.7028350440876,"trial":58,"RT":715,"MT":318,"sideResp":1,"stimulus":"img/900/equaldotanddens/R/5_Ratio_900_L_9_R_10.png","xmouse":[817,817,817,817,817,817,817,817,817,817,817,817,817,817,817,817,817,817,817,817,817,817,817,817,817,817,817,817,817,817,817,817,817,816,807,799,781,774,766,755,737,668,630,601,595,585,576,567,558,544,530,506],"ymouse":[617,615,615,615,615,615,615,615,615,615,615,615,615,615,615,615,615,615,615,615,615,615,615,615,615,615,615,615,615,615,615,615,614,611,579,548,495,479,461,440,409,317,272,228,217,189,148,129,109,91,70,36],"timestamp_mouse":[14,38,53,74,94,113,135,154,175,195,214,235,255,273,293,313,335,353,373,394,413,434,453,474,494,515,534,553,574,594,613,635,654,674,695,715,734,753,774,795,815,833,853,874,895,914,933,954,973,994,1013,1033],"xSR":741.5,"ySR":573.95,"xT1":424.9,"yT1":0,"xT2":1058.1,"yT2":0,"toosoon":0,"cond_shown":"equaldotanddens","ratio_trial":900,"smaller_num":"9","larger_num":"10","correct_side":2,"subjID":"LizethLopez14","gender":"1","age":"11","school":"6"},{"start_time":1551901543067,"click_time":1551901543697,"finger_time":1551901543576,"fix_duration":250,"trial":59,"RT":509,"MT":121,"sideResp":2,"stimulus":"img/250/equaldotsize/R/4_Ratio_250_L_3_R_12.png","xmouse":[833,833,833,833,833,833,833,833,833,833,833,833,833,833,833,833,833,833,833,833,833,833,833,833,836,856,886,929,976,1020,1074,1089],"ymouse":[638,638,638,638,638,638,638,638,638,638,638,638,638,638,638,638,638,638,638,638,638,638,638,638,636,615,568,493,400,298,137,83],"timestamp_mouse":[10,39,50,69,89,110,129,150,169,190,211,230,250,269,290,310,330,349,370,389,410,429,449,470,489,509,530,550,569,590,611,630],"xSR":741.5,"ySR":573.95,"xT1":424.9,"yT1":0,"xT2":1058.1,"yT2":0,"toosoon":0,"cond_shown":"equaldotsize","ratio_trial":250,"smaller_num":"3","larger_num":"12","correct_side":2,"subjID":"LizethLopez14","gender":"1","age":"11","school":"6"},{"start_time":1551901545084,"click_time":1551901545978,"finger_time":1551901545556,"fix_duration":605.0984105470967,"trial":60,"RT":472,"MT":422,"sideResp":1,"stimulus":"img/500/equaldotsize/L/11_Ratio_500_L_12_R_6.png","xmouse":[822,822,822,822,822,822,822,822,822,822,822,822,822,822,822,822,822,822,822,822,822,821,817,787,726,575,498,447,418,395,393,393,393,392,390,390,392,394,394,394,394,396,406,419,459],"ymouse":[611,611,611,611,611,611,611,611,611,611,611,611,611,611,611,611,611,611,611,611,611,612,610,573,501,289,183,112,69,22,7,0,0,0,0,0,0,0,0,0,0,0,13,34,77],"timestamp_mouse":[13,48,54,73,94,112,132,153,173,193,213,233,254,273,293,314,334,352,374,394,413,432,453,472,492,514,533,553,573,593,613,634,654,675,694,713,733,754,774,794,813,833,853,874,893],"xSR":741.5,"ySR":573.95,"xT1":424.9,"yT1":0,"xT2":1058.1,"yT2":0,"toosoon":0,"cond_shown":"equaldotsize","ratio_trial":500,"smaller_num":"6","larger_num":"12","correct_side":1,"subjID":"LizethLopez14","gender":"1","age":"11","school":"6"},{"start_time":1551901547855,"click_time":1551901548778,"finger_time":1551901548197,"fix_duration":976.1734968817151,"trial":61,"RT":342,"MT":581,"sideResp":2,"stimulus":"img/750/equaldotanddens/R/7_Ratio_750_L_3_R_4.png","xmouse":[784,784,784,784,784,784,784,784,784,784,784,784,784,784,784,786,799,809,822,833,843,857,864,870,879,889,941,1008,1078,1135,1175,1203,1208,1211,1215,1219,1242,1248,1249,1249,1249,1235,1217,1201,1181,1175,1155],"ymouse":[601,601,601,601,601,601,601,601,601,601,601,601,601,601,601,600,586,571,551,532,513,491,481,475,469,464,405,313,220,136,81,40,30,23,16,7,0,0,0,0,0,0,4,12,21,24,29],"timestamp_mouse":[10,37,42,63,83,103,124,142,162,182,203,224,243,262,282,302,322,342,362,382,404,422,442,462,482,502,522,543,562,584,602,622,643,662,683,702,722,742,763,783,803,822,842,863,883,902,923],"xSR":741.5,"ySR":573.95,"xT1":424.9,"yT1":0,"xT2":1058.1,"yT2":0,"toosoon":0,"cond_shown":"equaldotanddens","ratio_trial":750,"smaller_num":"3","larger_num":"4","correct_side":2,"subjID":"LizethLopez14","gender":"1","age":"11","school":"6"},{"start_time":1551901550512,"click_time":1551901551097,"finger_time":1551901550877,"fix_duration":813.3820819580615,"trial":62,"RT":365,"MT":220,"sideResp":1,"stimulus":"img/750/randomdotsizeEA/L/1_Ratio_750_L_20_R_15.png","xmouse":[815,815,815,815,815,815,815,815,815,815,815,815,815,815,815,815,815,816,810,789,750,667,613,565,561,561,561,561,526,464],"ymouse":[637,637,637,637,637,637,637,637,637,637,637,637,637,637,637,637,637,621,548,470,383,261,214,185,183,183,183,183,136,44],"timestamp_mouse":[10,32,46,66,85,106,127,146,166,186,207,225,246,265,285,306,325,346,365,385,405,425,445,465,485,505,527,545,565,585],"xSR":741.5,"ySR":573.95,"xT1":424.9,"yT1":0,"xT2":1058.1,"yT2":0,"toosoon":0,"cond_shown":"randomdotsizeEA","ratio_trial":750,"smaller_num":"15","larger_num":"20","correct_side":1,"subjID":"LizethLopez14","gender":"1","age":"11","school":"6"},{"start_time":1551901552100,"click_time":1551901553338,"finger_time":1551901552958,"fix_duration":261.9667060126697,"trial":63,"RT":858,"MT":380,"sideResp":1,"stimulus":"img/750/randomdotsizeEA/L/9_Ratio_750_L_4_R_3.png","xmouse":[789,789,789,789,789,789,789,789,789,789,789,789,789,789,789,789,789,789,789,789,789,789,789,789,789,789,789,789,789,789,789,789,789,789,789,789,789,789,789,789,789,786,774,732,705,674,638,605,555,547,542,541,539,539,539,539,539,539,539,537,531,521],"ymouse":[583,583,583,583,583,583,583,583,583,583,583,583,583,583,583,583,583,583,583,583,583,583,583,583,583,583,583,583,583,583,583,583,583,583,583,583,583,583,583,583,583,575,561,517,489,452,404,353,263,242,223,220,207,181,164,142,116,95,68,54,39,19],"timestamp_mouse":[17,38,58,77,98,118,138,158,177,199,218,238,257,277,298,318,337,357,377,397,417,438,457,478,497,517,538,558,577,598,617,639,658,678,697,717,738,757,779,798,818,837,858,877,898,917,938,958,978,998,1018,1037,1057,1077,1098,1117,1138,1157,1178,1198,1217,1238],"xSR":741.5,"ySR":573.95,"xT1":424.9,"yT1":0,"xT2":1058.1,"yT2":0,"toosoon":0,"cond_shown":"randomdotsizeEA","ratio_trial":750,"smaller_num":"3","larger_num":"4","correct_side":1,"subjID":"LizethLopez14","gender":"1","age":"11","school":"6"},{"start_time":1551901554683,"click_time":1551901555677,"finger_time":1551901555318,"fix_duration":484.2894594822793,"trial":64,"RT":635,"MT":359,"sideResp":2,"stimulus":"img/250/randomdotsizeEA/R/6_Ratio_250_L_6_R_24.png","xmouse":[812,812,812,812,812,812,812,812,812,812,812,812,812,812,812,812,812,812,812,812,812,812,812,812,812,812,812,812,812,816,835,874,944,970,1004,1024,1045,1054,1058,1058,1058,1058,1056,1054,1049,1047,1047,1050,1053,1062],"ymouse":[636,636,636,636,636,636,636,636,636,636,636,636,636,636,636,636,636,636,636,636,636,636,636,636,636,636,636,636,636,636,629,604,549,513,422,352,276,229,207,190,188,186,183,180,158,141,125,110,99,79],"timestamp_mouse":[14,43,54,74,94,114,134,154,175,196,214,234,255,274,295,314,334,354,374,395,415,436,454,474,496,516,535,555,574,595,614,635,655,675,694,715,734,755,774,795,814,835,855,875,895,914,934,954,974,994],"xSR":741.5,"ySR":573.95,"xT1":424.9,"yT1":0,"xT2":1058.1,"yT2":0,"toosoon":0,"cond_shown":"randomdotsizeEA","ratio_trial":250,"smaller_num":"6","larger_num":"24","correct_side":2,"subjID":"LizethLopez14","gender":"1","age":"11","school":"6"},{"start_time":1551901557606,"click_time":1551901558517,"finger_time":1551901558297,"fix_duration":1126.4463799354112,"trial":65,"RT":691,"MT":220,"sideResp":1,"stimulus":"img/900/equaldotsize/R/13_Ratio_900_L_18_R_20.png","xmouse":[795,795,795,795,795,795,795,795,795,795,795,795,795,795,795,795,795,795,795,795,795,795,795,795,795,795,795,794,787,785,783,780,774,753,737,718,700,661,618,511,484,475,472,472,475,479],"ymouse":[621,621,621,621,621,621,621,621,621,621,621,621,621,621,621,621,621,621,621,621,621,621,621,621,621,621,621,621,618,617,615,614,610,597,585,568,548,495,432,277,218,186,165,129,110,71],"timestamp_mouse":[12,36,51,71,91,111,132,152,171,191,212,231,252,272,291,312,332,351,371,392,411,431,451,472,492,511,531,552,571,591,611,632,651,671,691,712,732,752,771,791,811,831,851,872,892,911],"xSR":741.5,"ySR":573.95,"xT1":424.9,"yT1":0,"xT2":1058.1,"yT2":0,"toosoon":0,"cond_shown":"equaldotsize","ratio_trial":900,"smaller_num":"18","larger_num":"20","correct_side":2,"subjID":"LizethLopez14","gender":"1","age":"11","school":"6"},{"start_time":1551901560603,"click_time":1551901561558,"finger_time":1551901561197,"fix_duration":1065.7453812747267,"trial":66,"RT":594,"MT":361,"sideResp":1,"stimulus":"img/500/equaldotanddens/L/5_Ratio_500_L_4_R_2.png","xmouse":[819,819,819,819,819,819,819,819,819,819,819,819,819,819,819,819,819,819,819,819,819,819,819,819,819,819,819,819,807,793,773,753,723,665,606,578,507,467,433,424,417,409,404,401,401,409,420,426],"ymouse":[589,589,589,589,589,589,589,589,589,589,589,589,589,589,589,589,589,589,589,589,589,589,589,589,589,589,589,588,578,565,548,527,492,409,320,286,217,185,158,150,143,130,115,83,71,57,45,42],"timestamp_mouse":[31,36,54,75,94,115,134,154,174,194,214,235,255,275,295,315,336,354,375,394,414,434,454,474,495,514,534,555,574,594,614,634,654,675,695,714,734,754,774,794,815,835,854,874,894,914,934,955],"xSR":741.5,"ySR":573.95,"xT1":424.9,"yT1":0,"xT2":1058.1,"yT2":0,"toosoon":0,"cond_shown":"equaldotanddens","ratio_trial":500,"smaller_num":"2","larger_num":"4","correct_side":1,"subjID":"LizethLopez14","gender":"1","age":"11","school":"6"},{"start_time":1551901563175,"click_time":1551901563877,"finger_time":1551901563637,"fix_duration":976.4533327956249,"trial":67,"RT":462,"MT":240,"sideResp":2,"stimulus":"img/500/equaldotsize/R/12_Ratio_500_L_1_R_2.png","xmouse":[834,834,834,834,834,834,834,834,834,834,834,834,834,834,834,834,834,834,835,835,835,835,836,843,863,944,982,1006,1026,1037,1054,1060,1063,1065,1067,1067],"ymouse":[661,661,661,661,661,661,661,661,661,661,661,661,661,661,661,661,661,661,660,658,657,652,646,633,606,493,439,387,339,301,214,178,156,135,119,90],"timestamp_mouse":[10,32,42,64,82,103,123,142,162,183,202,223,244,263,283,302,324,343,363,382,402,423,443,462,482,502,523,544,562,582,602,623,642,662,683,702],"xSR":741.5,"ySR":573.95,"xT1":424.9,"yT1":0,"xT2":1058.1,"yT2":0,"toosoon":0,"cond_shown":"equaldotsize","ratio_trial":500,"smaller_num":"1","larger_num":"2","correct_side":2,"subjID":"LizethLopez14","gender":"1","age":"11","school":"6"},{"start_time":1551901569666,"click_time":1551901570558,"finger_time":1551901570218,"fix_duration":1446.5286499590147,"trial":68,"RT":552,"MT":340,"sideResp":1,"stimulus":"img/250/equaldotanddens/L/3_Ratio_250_L_8_R_2.png","xmouse":[817,817,817,817,817,817,817,817,817,817,817,817,817,817,817,817,817,817,817,817,817,816,813,812,812,808,793,769,739,703,619,587,562,538,529,524,527,529,532,535,540,541,542,538,516],"ymouse":[623,623,623,623,623,623,623,623,623,623,623,623,623,623,623,623,623,623,623,619,613,608,605,603,602,600,590,572,543,496,411,378,351,313,296,273,260,251,243,232,200,177,150,104,55],"timestamp_mouse":[11,33,52,71,92,112,131,151,171,192,212,232,252,271,293,312,331,352,372,392,411,431,451,472,492,511,532,552,571,591,611,632,653,672,691,711,732,751,771,791,811,832,852,872,892],"xSR":741.5,"ySR":573.95,"xT1":424.9,"yT1":0,"xT2":1058.1,"yT2":0,"toosoon":0,"cond_shown":"equaldotanddens","ratio_trial":250,"smaller_num":"2","larger_num":"8","correct_side":1,"subjID":"LizethLopez14","gender":"1","age":"11","school":"6"},{"start_time":1551901589448,"click_time":1551901590257,"finger_time":1551901589798,"fix_duration":869.1012519462329,"trial":69,"RT":350,"MT":459,"sideResp":1,"stimulus":"img/250/equaldotsize/L/14_Ratio_250_L_12_R_3.png","xmouse":[822,822,822,822,822,822,822,822,822,822,822,822,822,822,823,821,802,791,776,758,738,686,643,579,497,469,447,440,432,422,417,415,415,415,415,415,417,418,420,424,430],"ymouse":[625,625,625,625,625,625,625,625,625,625,625,625,625,625,623,614,581,566,547,530,513,465,419,341,227,186,146,132,115,92,69,43,42,42,42,41,40,40,39,38,38],"timestamp_mouse":[10,31,50,69,89,109,129,150,169,189,209,231,250,270,291,309,329,349,369,389,410,429,450,469,489,510,530,550,569,589,610,629,651,669,689,710,729,750,769,789,809],"xSR":741.5,"ySR":573.95,"xT1":424.9,"yT1":0,"xT2":1058.1,"yT2":0,"toosoon":0,"cond_shown":"equaldotsize","ratio_trial":250,"smaller_num":"3","larger_num":"12","correct_side":1,"subjID":"LizethLopez14","gender":"1","age":"11","school":"6"},{"start_time":1551901599752,"click_time":1551901600537,"finger_time":1551901600419,"fix_duration":1413.0834624793083,"trial":70,"RT":667,"MT":118,"sideResp":1,"stimulus":"img/900/equaldotsize/L/2_Ratio_900_L_20_R_18.png","xmouse":[792,792,792,792,792,792,792,792,792,792,792,792,792,792,792,792,792,792,792,792,792,792,792,792,792,792,792,792,792,792,792,790,780,762,729,692,591,528,468,434],"ymouse":[605,605,605,605,605,605,605,605,605,605,605,605,605,605,605,605,605,605,605,605,605,605,605,605,605,605,605,605,605,605,605,605,591,558,497,428,274,199,132,92],"timestamp_mouse":[10,40,45,65,86,105,126,145,165,187,205,225,245,265,285,305,325,345,365,387,406,425,445,465,485,505,526,546,565,585,606,627,645,667,686,706,726,746,766,785],"xSR":741.5,"ySR":573.95,"xT1":424.9,"yT1":0,"xT2":1058.1,"yT2":0,"toosoon":0,"cond_shown":"equaldotsize","ratio_trial":900,"smaller_num":"18","larger_num":"20","correct_side":1,"subjID":"LizethLopez14","gender":"1","age":"11","school":"6"},{"start_time":1551901602059,"click_time":1551901602919,"finger_time":15519016