[{"start_time":1551899951511,"click_time":1551899953263,"finger_time":1551899951521,"fix_duration":863.481356350754,"trial":0,"RT":10,"MT":1742,"sideResp":1,"stimulus":[],"xmouse":[759,759,759,759,759,759,759,759,759,759,759,759,759,759,759,759,759,759,759,759,759,759,759,759,759,759,759,759,759,759,759,759,759,758,758,756,756,756,759,764,765,765,765,765,765,765,765,765,765,766,767,768,771,774,777,779,779,779,780,780,781,782,782,783,783,783,783,781,774,769,739,713,665,638,611,549,520,510,509,511,511,511,511,511,513,517,520,522],"ymouse":[551,551,551,551,551,551,551,551,551,551,551,551,551,551,551,551,551,551,551,551,551,551,551,551,551,551,551,551,551,551,552,552,552,552,553,578,599,625,647,662,669,669,669,669,669,669,670,670,670,669,669,666,657,652,646,642,641,640,639,638,635,632,628,624,619,606,595,575,552,529,452,403,325,286,250,189,165,155,152,149,146,144,141,140,137,120,106,90],"timestamp_mouse":[10,31,50,71,92,111,130,150,170,190,211,230,250,270,291,310,330,351,371,390,411,430,451,471,490,511,531,550,570,591,611,630,650,671,691,711,731,751,772,792,810,830,851,870,892,911,930,951,970,992,1010,1031,1050,1070,1092,1110,1131,1150,1170,1190,1210,1232,1250,1271,1291,1312,1330,1350,1371,1390,1411,1431,1451,1470,1491,1511,1530,1551,1572,1591,1610,1631,1651,1670,1691,1710,1732,1752],"xSR":741.5,"ySR":481,"xT1":424.9,"yT1":0,"xT2":1058.1,"yT2":0,"toosoon":0,"cond_shown":"Incongruent","ratio_trial":200,"L_num":3,"L_den":4,"R_num":11,"R_den":20,"correct_side":1,"subjID":"LizethLopezLizcano14","gender":"1","age":"11                                           b                                                                                                                                                                                    11                                                                      ","school":"6","test":{"fix_dur":[250,1500],"timestim":1000,"targets_dim":[100,100],"targets_relative_coord":[0.3,0.7],"size_stim":[880,420],"start_dim":[100,100],"size_start":[300,300],"size_fix":60,"samplingrate":20,"img_types":["Congruent","Incongruent"],"ratios":[100,200,300],"rep_conds":19,"nTrials":120,"trials_to_rest":500,"Trials_order":[57,59,61,44,45,113,21,66,49,94,97,82,102,68,116,8,35,30,48,12,39,62,71,70,33,11,89,55,20,9,13,111,47,72,91,79,84,37,109,29,78,25,99,63,14,119,24,10,73,88,42,117,7,75,103,34,38,118,69,22,92,46,114,96,4,67,41,0,106,52,51,112,104,43,23,64,65,83,36,27,5,115,100,60,32,19,15,31,6,54,50,95,81,56,17,80,18,107,53,58,1,2,90,93,74,86,77,28,110,101,98,85,76,105,40,26,16,108,87,3],"cond_shown":["Incongruent","Incongruent","Incongruent","Congruent","Incongruent","Incongruent","Incongruent","Congruent","Incongruent","Congruent","Incongruent","Congruent","Congruent","Congruent","Congruent","Congruent","Incongruent","Congruent","Congruent","Congruent","Incongruent","Congruent","Incongruent","Congruent","Incongruent","Incongruent","Incongruent","Incongruent","Congruent","Incongruent","Incongruent","Incongruent","Incongruent","Congruent","Incongruent","Incongruent","Congruent","Incongruent","Incongruent","Incongruent","Congruent","Incongruent","Incongruent","Incongruent","Congruent","Incongruent","Congruent","Congruent","Incongruent","Congruent","Congruent","Incongruent","Incongruent","Incongruent","Incongruent","Congruent","Congruent","Congruent","Incongruent","Congruent","Congruent","Congruent","Congruent","Congruent","Congruent","Incongruent","Incongruent","Congruent","Congruent","Congruent","Incongruent","Congruent","Congruent","Incongruent","Incongruent","Congruent","Incongruent","Incongruent","Congruent","Incongruent","Incongruent","Incongruent","Congruent","Congruent","Congruent","Incongruent","Incongruent","Incongruent","Congruent","Congruent","Congruent","Incongruent","Incongruent","Congruent","Incongruent","Congruent","Congruent","Incongruent","Incongruent","Congruent","Incongruent","Congruent","Congruent","Incongruent","Congruent","Congruent","Incongruent","Congruent","Congruent","Incongruent","Congruent","Incongruent","Congruent","Incongruent","Congruent","Congruent","Congruent","Congruent","Incongruent","Incongruent"],"ratio_trial":[200,300,100,200,200,300,200,100,100,300,100,300,100,200,200,200,300,100,100,100,200,200,300,300,200,300,300,100,200,200,100,200,300,100,100,100,100,100,100,300,100,100,200,200,200,300,100,300,100,300,100,200,100,200,100,300,200,300,200,300,200,300,100,100,300,100,300,100,300,300,200,300,200,100,300,300,300,300,100,200,300,100,300,100,200,100,200,100,100,100,200,300,200,200,300,200,100,300,300,300,100,200,100,200,200,200,300,300,200,300,200,100,300,200,300,200,300,100,200,200],"left_num":[3,8,3,20,7,2,14,7,17,1,6,7,8,16,6,3,8,15,1,2,9,9,13,18,7,4,8,17,3,7,8,6,4,7,3,6,3,3,10,13,3,10,3,4,16,1,11,4,3,11,2,7,3,7,17,5,6,4,14,11,3,11,12,10,1,13,13,9,5,4,4,1,6,8,4,24,2,8,9,3,4,8,1,2,4,13,7,6,4,1,11,13,4,4,4,12,6,8,4,24,8,16,1,4,3,20,8,11,8,13,13,6,4,3,3,9,3,3,7,3],"right_num":[11,14,8,9,4,6,12,9,10,8,3,20,2,12,7,14,14,13,3,11,8,4,12,9,8,2,9,10,9,14,6,3,2,15,8,7,2,7,8,12,4,8,1,6,12,2,4,2,8,4,11,8,11,14,10,6,7,2,12,1,9,2,13,3,6,6,12,8,7,1,1,11,7,6,8,8,6,14,8,1,2,6,6,11,3,6,14,13,15,18,3,12,14,3,2,6,5,14,2,2,1,12,18,14,14,9,9,2,2,12,14,7,13,11,2,13,4,2,12,11],"left_den":[4,10,5,25,15,4,30,14,30,30,12,14,16,20,12,10,10,25,2,5,15,20,26,20,10,20,10,30,12,10,16,20,20,14,5,10,6,9,25,26,20,25,10,5,20,2,22,5,5,22,5,10,5,10,30,25,12,5,30,22,12,22,30,25,5,26,26,15,25,10,30,5,12,16,5,30,4,10,15,10,20,16,5,5,8,26,10,10,10,2,22,26,6,10,20,20,20,10,20,30,20,20,2,6,6,25,10,22,15,26,26,10,20,4,6,30,6,6,10,4],"right_den":[20,28,16,15,6,30,18,15,15,24,5,25,5,20,10,28,28,26,5,22,10,16,15,15,16,4,18,15,20,28,10,6,4,25,16,14,5,30,16,15,16,16,2,10,20,10,10,4,16,20,22,16,22,28,15,12,10,4,18,5,20,10,26,10,12,10,15,16,14,10,3,22,10,10,16,16,30,28,16,2,4,10,12,22,10,10,28,26,30,30,10,15,30,15,4,15,25,28,4,4,2,20,30,30,20,15,18,10,6,15,20,14,26,20,10,26,5,5,24,20],"correct_side":[1,1,1,1,2,1,2,2,2,2,2,2,1,1,2,2,1,1,2,2,2,1,2,1,1,2,1,2,2,1,2,2,2,2,1,1,1,1,2,2,2,2,2,1,1,1,1,1,1,1,2,1,1,1,2,2,2,1,2,1,2,1,2,1,2,2,2,1,2,1,2,2,2,2,1,1,1,1,1,2,2,2,2,2,1,2,1,1,2,2,1,2,1,1,2,1,1,1,2,1,2,1,2,1,2,1,1,1,1,2,2,1,2,1,1,2,2,1,1,1],"img_shown":["img2/200/Incongruent/L/I_Dist_200_LN_3_LD_4_RN_11_RD_20_0.png","img2/300/Incongruent/L/I_Dist_300_LN_8_LD_10_RN_14_RD_28_0.png","img2/100/Incongruent/L/I_Dist_100_LN_3_LD_5_RN_8_RD_16_0.png","img2/200/Congruent/L/C_Dist_200_LN_20_LD_25_RN_9_RD_15_0.png","img2/200/Incongruent/R/I_Dist_200_LN_7_LD_15_RN_4_RD_6_1.png","img2/300/Incongruent/L/I_Dist_300_LN_2_LD_4_RN_6_RD_30_0.png","img2/200/Incongruent/R/I_Dist_200_LN_14_LD_30_RN_12_RD_18_1.png","img2/100/Congruent/R/C_Dist_100_LN_7_LD_14_RN_9_RD_15_1.png","img2/100/Incongruent/R/I_Dist_100_LN_17_LD_30_RN_10_RD_15_1.png","img2/300/Congruent/R/C_Dist_300_LN_1_LD_30_RN_8_RD_24_1.png","img2/100/Incongruent/R/I_Dist_100_LN_6_LD_12_RN_3_RD_5_1.png","img2/300/Congruent/R/C_Dist_300_LN_7_LD_14_RN_20_RD_25_1.png","img2/100/Congruent/L/C_Dist_100_LN_8_LD_16_RN_2_RD_5_0.png","img2/200/Congruent/L/C_Dist_200_LN_16_LD_20_RN_12_RD_20_0.png","img2/200/Congruent/R/C_Dist_200_LN_6_LD_12_RN_7_RD_10_1.png","img2/200/Congruent/R/C_Dist_200_LN_3_LD_10_RN_14_RD_28_1.png","img2/300/Incongruent/L/I_Dist_300_LN_8_LD_10_RN_14_RD_28_0.png","img2/100/Congruent/L/C_Dist_100_LN_15_LD_25_RN_13_RD_26_0.png","img2/100/Congruent/R/C_Dist_100_LN_1_LD_2_RN_3_RD_5_1.png","img2/100/Congruent/R/C_Dist_100_LN_2_LD_5_RN_11_RD_22_1.png","img2/200/Incongruent/R/I_Dist_200_LN_9_LD_15_RN_8_RD_10_1.png","img2/200/Congruent/L/C_Dist_200_LN_9_LD_20_RN_4_RD_16_0.png","img2/300/Incongruent/R/I_Dist_300_LN_13_LD_26_RN_12_RD_15_1.png","img2/300/Congruent/L/C_Dist_300_LN_18_LD_20_RN_9_RD_15_0.png","img2/200/Incongruent/L/I_Dist_200_LN_7_LD_10_RN_8_RD_16_0.png","img2/300/Incongruent/R/I_Dist_300_LN_4_LD_20_RN_2_RD_4_1.png","img2/300/Incongruent/L/I_Dist_300_LN_8_LD_10_RN_9_RD_18_0.png","img2/100/Incongruent/R/I_Dist_100_LN_17_LD_30_RN_10_RD_15_1.png","img2/200/Congruent/R/C_Dist_200_LN_3_LD_12_RN_9_RD_20_1.png","img2/200/Incongruent/L/I_Dist_200_LN_7_LD_10_RN_14_RD_28_0.png","img2/100/Incongruent/R/I_Dist_100_LN_8_LD_16_RN_6_RD_10_1.png","img2/200/Incongruent/R/I_Dist_200_LN_6_LD_20_RN_3_RD_6_1.png","img2/300/Incongruent/R/I_Dist_300_LN_4_LD_20_RN_2_RD_4_1.png","img2/100/Congruent/R/C_Dist_100_LN_7_LD_14_RN_15_RD_25_1.png","img2/100/Incongruent/L/I_Dist_100_LN_3_LD_5_RN_8_RD_16_0.png","img2/100/Incongruent/L/I_Dist_100_LN_6_LD_10_RN_7_RD_14_0.png","img2/100/Congruent/L/C_Dist_100_LN_3_LD_6_RN_2_RD_5_0.png","img2/100/Incongruent/L/I_Dist_100_LN_3_LD_9_RN_7_RD_30_0.png","img2/100/Incongruent/R/I_Dist_100_LN_10_LD_25_RN_8_RD_16_1.png","img2/300/Incongruent/R/I_Dist_300_LN_13_LD_26_RN_12_RD_15_1.png","img2/100/Congruent/R/C_Dist_100_LN_3_LD_20_RN_4_RD_16_1.png","img2/100/Incongruent/R/I_Dist_100_LN_10_LD_25_RN_8_RD_16_1.png","img2/200/Incongruent/R/I_Dist_200_LN_3_LD_10_RN_1_RD_2_1.png","img2/200/Incongruent/L/I_Dist_200_LN_4_LD_5_RN_6_RD_10_0.png","img2/200/Congruent/L/C_Dist_200_LN_16_LD_20_RN_12_RD_20_0.png","img2/300/Incongruent/L/I_Dist_300_LN_1_LD_2_RN_2_RD_10_0.png","img2/100/Congruent/L/C_Dist_100_LN_11_LD_22_RN_4_RD_10_0.png","img2/300/Congruent/L/C_Dist_300_LN_4_LD_5_RN_2_RD_4_0.png","img2/100/Incongruent/L/I_Dist_100_LN_3_LD_5_RN_8_RD_16_0.png","img2/300/Congruent/L/C_Dist_300_LN_11_LD_22_RN_4_RD_20_0.png","img2/100/Congruent/R/C_Dist_100_LN_2_LD_5_RN_11_RD_22_1.png","img2/200/Incongruent/L/I_Dist_200_LN_7_LD_10_RN_8_RD_16_0.png","img2/100/Incongruent/L/I_Dist_100_LN_3_LD_5_RN_11_RD_22_0.png","img2/200/Incongruent/L/I_Dist_200_LN_7_LD_10_RN_14_RD_28_0.png","img2/100/Incongruent/R/I_Dist_100_LN_17_LD_30_RN_10_RD_15_1.png","img2/300/Congruent/R/C_Dist_300_LN_5_LD_25_RN_6_RD_12_1.png","img2/200/Congruent/R/C_Dist_200_LN_6_LD_12_RN_7_RD_10_1.png","img2/300/Congruent/L/C_Dist_300_LN_4_LD_5_RN_2_RD_4_0.png","img2/200/Incongruent/R/I_Dist_200_LN_14_LD_30_RN_12_RD_18_1.png","img2/300/Congruent/L/C_Dist_300_LN_11_LD_22_RN_1_RD_5_0.png","img2/200/Congruent/R/C_Dist_200_LN_3_LD_12_RN_9_RD_20_1.png","img2/300/Congruent/L/C_Dist_300_LN_11_LD_22_RN_2_RD_10_0.png","img2/100/Congruent/R/C_Dist_100_LN_12_LD_30_RN_13_RD_26_1.png","img2/100/Congruent/L/C_Dist_100_LN_10_LD_25_RN_3_RD_10_0.png","img2/300/Congruent/R/C_Dist_300_LN_1_LD_5_RN_6_RD_12_1.png","img2/100/Incongruent/R/I_Dist_100_LN_13_LD_26_RN_6_RD_10_1.png","img2/300/Incongruent/R/I_Dist_300_LN_13_LD_26_RN_12_RD_15_1.png","img2/100/Congruent/L/C_Dist_100_LN_9_LD_15_RN_8_RD_16_0.png","img2/300/Congruent/R/C_Dist_300_LN_5_LD_25_RN_7_RD_14_1.png","img2/300/Congruent/L/C_Dist_300_LN_4_LD_10_RN_1_RD_10_0.png","img2/200/Incongruent/R/I_Dist_200_LN_4_LD_30_RN_1_RD_3_1.png","img2/300/Congruent/R/C_Dist_300_LN_1_LD_5_RN_11_RD_22_1.png","img2/200/Congruent/R/C_Dist_200_LN_6_LD_12_RN_7_RD_10_1.png","img2/100/Incongruent/R/I_Dist_100_LN_8_LD_16_RN_6_RD_10_1.png","img2/300/Incongruent/L/I_Dist_300_LN_4_LD_5_RN_8_RD_16_0.png","img2/300/Congruent/L/C_Dist_300_LN_24_LD_30_RN_8_RD_16_0.png","img2/300/Incongruent/L/I_Dist_300_LN_2_LD_4_RN_6_RD_30_0.png","img2/300/Incongruent/L/I_Dist_300_LN_8_LD_10_RN_14_RD_28_0.png","img2/100/Congruent/L/C_Dist_100_LN_9_LD_15_RN_8_RD_16_0.png","img2/200/Incongruent/R/I_Dist_200_LN_3_LD_10_RN_1_RD_2_1.png","img2/300/Incongruent/R/I_Dist_300_LN_4_LD_20_RN_2_RD_4_1.png","img2/100/Incongruent/R/I_Dist_100_LN_8_LD_16_RN_6_RD_10_1.png","img2/300/Congruent/R/C_Dist_300_LN_1_LD_5_RN_6_RD_12_1.png","img2/100/Congruent/R/C_Dist_100_LN_2_LD_5_RN_11_RD_22_1.png","img2/200/Congruent/L/C_Dist_200_LN_4_LD_8_RN_3_RD_10_0.png","img2/100/Incongruent/R/I_Dist_100_LN_13_LD_26_RN_6_RD_10_1.png","img2/200/Incongruent/L/I_Dist_200_LN_7_LD_10_RN_14_RD_28_0.png","img2/100/Incongruent/L/I_Dist_100_LN_6_LD_10_RN_13_RD_26_0.png","img2/100/Congruent/R/C_Dist_100_LN_4_LD_10_RN_15_RD_30_1.png","img2/100/Congruent/R/C_Dist_100_LN_1_LD_2_RN_18_RD_30_1.png","img2/200/Congruent/L/C_Dist_200_LN_11_LD_22_RN_3_RD_10_0.png","img2/300/Incongruent/R/I_Dist_300_LN_13_LD_26_RN_12_RD_15_1.png","img2/200/Incongruent/L/I_Dist_200_LN_4_LD_6_RN_14_RD_30_0.png","img2/200/Congruent/L/C_Dist_200_LN_4_LD_10_RN_3_RD_15_0.png","img2/300/Incongruent/R/I_Dist_300_LN_4_LD_20_RN_2_RD_4_1.png","img2/200/Congruent/L/C_Dist_200_LN_12_LD_20_RN_6_RD_15_0.png","img2/100/Congruent/L/C_Dist_100_LN_6_LD_20_RN_5_RD_25_0.png","img2/300/Incongruent/L/I_Dist_300_LN_8_LD_10_RN_14_RD_28_0.png","img2/300/Incongruent/R/I_Dist_300_LN_4_LD_20_RN_2_RD_4_1.png","img2/300/Congruent/L/C_Dist_300_LN_24_LD_30_RN_2_RD_4_0.png","img2/100/Incongruent/R/I_Dist_100_LN_8_LD_20_RN_1_RD_2_1.png","img2/200/Congruent/L/C_Dist_200_LN_16_LD_20_RN_12_RD_20_0.png","img2/100/Congruent/R/C_Dist_100_LN_1_LD_2_RN_18_RD_30_1.png","img2/200/Incongruent/L/I_Dist_200_LN_4_LD_6_RN_14_RD_30_0.png","img2/200/Congruent/R/C_Dist_200_LN_3_LD_6_RN_14_RD_20_1.png","img2/200/Congruent/L/C_Dist_200_LN_20_LD_25_RN_9_RD_15_0.png","img2/300/Incongruent/L/I_Dist_300_LN_8_LD_10_RN_9_RD_18_0.png","img2/300/Congruent/L/C_Dist_300_LN_11_LD_22_RN_2_RD_10_0.png","img2/200/Congruent/L/C_Dist_200_LN_8_LD_15_RN_2_RD_6_0.png","img2/300/Incongruent/R/I_Dist_300_LN_13_LD_26_RN_12_RD_15_1.png","img2/200/Congruent/R/C_Dist_200_LN_13_LD_26_RN_14_RD_20_1.png","img2/100/Incongruent/L/I_Dist_100_LN_6_LD_10_RN_7_RD_14_0.png","img2/300/Congruent/R/C_Dist_300_LN_4_LD_20_RN_13_RD_26_1.png","img2/200/Incongruent/L/I_Dist_200_LN_3_LD_4_RN_11_RD_20_0.png","img2/300/Congruent/L/C_Dist_300_LN_3_LD_6_RN_2_RD_10_0.png","img2/200/Congruent/R/C_Dist_200_LN_9_LD_30_RN_13_RD_26_1.png","img2/300/Congruent/R/C_Dist_300_LN_3_LD_6_RN_4_RD_5_1.png","img2/100/Congruent/L/C_Dist_100_LN_3_LD_6_RN_2_RD_5_0.png","img2/200/Incongruent/L/I_Dist_200_LN_7_LD_10_RN_12_RD_24_0.png","img2/200/Incongruent/L/I_Dist_200_LN_3_LD_4_RN_11_RD_20_0.png"],"dist100_C":[["C_Dist_100_LN_10_LD_25_RN_3_RD_10_0.png","C_Dist_100_LN_11_LD_22_RN_4_RD_10_0.png","C_Dist_100_LN_11_LD_22_RN_6_RD_15_0.png","C_Dist_100_LN_15_LD_25_RN_13_RD_26_0.png","C_Dist_100_LN_3_LD_6_RN_2_RD_5_0.png","C_Dist_100_LN_6_LD_20_RN_5_RD_25_0.png","C_Dist_100_LN_8_LD_16_RN_2_RD_5_0.png","C_Dist_100_LN_9_LD_15_RN_8_RD_16_0.png"],["C_Dist_100_LN_1_LD_2_RN_18_RD_30_1.png","C_Dist_100_LN_1_LD_2_RN_3_RD_5_1.png","C_Dist_100_LN_12_LD_30_RN_13_RD_26_1.png","C_Dist_100_LN_2_LD_5_RN_11_RD_22_1.png","C_Dist_100_LN_2_LD_5_RN_6_RD_12_1.png","C_Dist_100_LN_3_LD_20_RN_4_RD_16_1.png","C_Dist_100_LN_4_LD_10_RN_15_RD_30_1.png","C_Dist_100_LN_4_LD_8_RN_6_RD_10_1.png","C_Dist_100_LN_6_LD_12_RN_15_RD_25_1.png","C_Dist_100_LN_7_LD_14_RN_15_RD_25_1.png","C_Dist_100_LN_7_LD_14_RN_9_RD_15_1.png"]],"dist100_I":[["I_Dist_100_LN_1_LD_2_RN_8_RD_20_0.png","I_Dist_100_LN_2_LD_4_RN_6_RD_15_0.png","I_Dist_100_LN_2_LD_4_RN_8_RD_20_0.png","I_Dist_100_LN_3_LD_5_RN_11_RD_22_0.png","I_Dist_100_LN_3_LD_5_RN_8_RD_16_0.png","I_Dist_100_LN_3_LD_6_RN_4_RD_10_0.png","I_Dist_100_LN_3_LD_9_RN_7_RD_30_0.png","I_Dist_100_LN_4_LD_8_RN_8_RD_20_0.png","I_Dist_100_LN_6_LD_10_RN_11_RD_22_0.png","I_Dist_100_LN_6_LD_10_RN_13_RD_26_0.png","I_Dist_100_LN_6_LD_10_RN_7_RD_14_0.png","I_Dist_100_LN_9_LD_10_RN_20_RD_25_0.png","I_Dist_100_LN_9_LD_15_RN_13_RD_26_0.png","I_Dist_100_LN_9_LD_15_RN_14_RD_28_0.png"],["I_Dist_100_LN_10_LD_25_RN_8_RD_16_1.png","I_Dist_100_LN_10_LD_25_RN_9_RD_18_1.png","I_Dist_100_LN_11_LD_22_RN_9_RD_15_1.png","I_Dist_100_LN_12_LD_24_RN_9_RD_15_1.png","I_Dist_100_LN_12_LD_30_RN_2_RD_4_1.png","I_Dist_100_LN_13_LD_26_RN_12_RD_20_1.png","I_Dist_100_LN_13_LD_26_RN_6_RD_10_1.png","I_Dist_100_LN_17_LD_30_RN_10_RD_15_1.png","I_Dist_100_LN_6_LD_12_RN_3_RD_5_1.png","I_Dist_100_LN_8_LD_16_RN_6_RD_10_1.png","I_Dist_100_LN_8_LD_20_RN_1_RD_2_1.png","I_Dist_100_LN_9_LD_18_RN_6_RD_10_1.png"]],"dist100_S":[["E_Dist_100_LN_2_LD_12_RN_2_RD_30_0.png","E_Dist_100_LN_6_LD_10_RN_6_RD_12_0.png"],["E_Dist_100_LN_6_LD_12_RN_6_RD_10_1.png"]],"dist200_C":[["C_Dist_200_LN_11_LD_22_RN_3_RD_10_0.png","C_Dist_200_LN_12_LD_15_RN_6_RD_10_0.png","C_Dist_200_LN_12_LD_20_RN_6_RD_15_0.png","C_Dist_200_LN_14_LD_28_RN_6_RD_20_0.png","C_Dist_200_LN_15_LD_25_RN_4_RD_10_0.png","C_Dist_200_LN_16_LD_20_RN_12_RD_20_0.png","C_Dist_200_LN_16_LD_30_RN_9_RD_27_0.png","C_Dist_200_LN_20_LD_25_RN_9_RD_15_0.png","C_Dist_200_LN_21_LD_30_RN_2_RD_4_0.png","C_Dist_200_LN_4_LD_10_RN_3_RD_15_0.png","C_Dist_200_LN_4_LD_8_RN_3_RD_10_0.png","C_Dist_200_LN_6_LD_15_RN_3_RD_15_0.png","C_Dist_200_LN_7_LD_21_RN_2_RD_15_0.png","C_Dist_200_LN_8_LD_15_RN_2_RD_6_0.png","C_Dist_200_LN_8_LD_15_RN_3_RD_9_0.png","C_Dist_200_LN_8_LD_15_RN_7_RD_21_0.png","C_Dist_200_LN_9_LD_20_RN_4_RD_16_0.png"],["C_Dist_200_LN_1_LD_2_RN_21_RD_30_1.png","C_Dist_200_LN_13_LD_26_RN_14_RD_20_1.png","C_Dist_200_LN_3_LD_10_RN_11_RD_22_1.png","C_Dist_200_LN_3_LD_10_RN_14_RD_28_1.png","C_Dist_200_LN_3_LD_10_RN_7_RD_14_1.png","C_Dist_200_LN_3_LD_12_RN_9_RD_20_1.png","C_Dist_200_LN_3_LD_6_RN_14_RD_20_1.png","C_Dist_200_LN_5_LD_10_RN_14_RD_20_1.png","C_Dist_200_LN_6_LD_12_RN_7_RD_10_1.png","C_Dist_200_LN_6_LD_20_RN_11_RD_22_1.png","C_Dist_200_LN_7_LD_15_RN_18_RD_27_1.png","C_Dist_200_LN_9_LD_30_RN_13_RD_26_1.png"]],"dist200_I":[["I_Dist_200_LN_1_LD_2_RN_3_RD_10_0.png","I_Dist_200_LN_1_LD_3_RN_2_RD_15_0.png","I_Dist_200_LN_3_LD_4_RN_11_RD_20_0.png","I_Dist_200_LN_4_LD_5_RN_6_RD_10_0.png","I_Dist_200_LN_4_LD_6_RN_14_RD_30_0.png","I_Dist_200_LN_7_LD_10_RN_12_RD_24_0.png","I_Dist_200_LN_7_LD_10_RN_14_RD_28_0.png","I_Dist_200_LN_7_LD_10_RN_8_RD_16_0.png"],["I_Dist_200_LN_11_LD_20_RN_3_RD_4_1.png","I_Dist_200_LN_14_LD_30_RN_12_RD_18_1.png","I_Dist_200_LN_14_LD_30_RN_6_RD_9_1.png","I_Dist_200_LN_3_LD_10_RN_1_RD_2_1.png","I_Dist_200_LN_4_LD_30_RN_1_RD_3_1.png","I_Dist_200_LN_6_LD_20_RN_3_RD_6_1.png","I_Dist_200_LN_7_LD_15_RN_4_RD_6_1.png","I_Dist_200_LN_7_LD_15_RN_6_RD_9_1.png","I_Dist_200_LN_9_LD_15_RN_8_RD_10_1.png"]],"dist200_S":[["E_Dist_200_LN_3_LD_6_RN_3_RD_10_0.png"],["E_Dist_200_LN_3_LD_10_RN_3_RD_6_1.png"]],"dist300_C":[["C_Dist_300_LN_11_LD_22_RN_1_RD_5_0.png","C_Dist_300_LN_11_LD_22_RN_2_RD_10_0.png","C_Dist_300_LN_11_LD_22_RN_4_RD_20_0.png","C_Dist_300_LN_12_LD_24_RN_2_RD_10_0.png","C_Dist_300_LN_18_LD_20_RN_9_RD_15_0.png","C_Dist_300_LN_20_LD_25_RN_13_RD_26_0.png","C_Dist_300_LN_20_LD_25_RN_14_RD_28_0.png","C_Dist_300_LN_20_LD_25_RN_5_RD_10_0.png","C_Dist_300_LN_20_LD_25_RN_8_RD_16_0.png","C_Dist_300_LN_20_LD_25_RN_9_RD_18_0.png","C_Dist_300_LN_24_LD_30_RN_2_RD_4_0.png","C_Dist_300_LN_24_LD_30_RN_8_RD_16_0.png","C_Dist_300_LN_3_LD_6_RN_2_RD_10_0.png","C_Dist_300_LN_4_LD_10_RN_1_RD_10_0.png","C_Dist_300_LN_4_LD_5_RN_2_RD_4_0.png","C_Dist_300_LN_8_LD_16_RN_1_RD_5_0.png","C_Dist_300_LN_9_LD_10_RN_3_RD_5_0.png"],["C_Dist_300_LN_1_LD_20_RN_7_RD_20_1.png","C_Dist_300_LN_1_LD_3_RN_19_RD_30_1.png","C_Dist_300_LN_1_LD_30_RN_8_RD_24_1.png","C_Dist_300_LN_1_LD_5_RN_11_RD_22_1.png","C_Dist_300_LN_1_LD_5_RN_3_RD_6_1.png","C_Dist_300_LN_1_LD_5_RN_6_RD_12_1.png","C_Dist_300_LN_2_LD_10_RN_12_RD_24_1.png","C_Dist_300_LN_2_LD_20_RN_10_RD_25_1.png","C_Dist_300_LN_3_LD_12_RN_11_RD_20_1.png","C_Dist_300_LN_3_LD_6_RN_4_RD_5_1.png","C_Dist_300_LN_4_LD_20_RN_13_RD_26_1.png","C_Dist_300_LN_5_LD_25_RN_6_RD_12_1.png","C_Dist_300_LN_5_LD_25_RN_7_RD_14_1.png","C_Dist_300_LN_7_LD_14_RN_20_RD_25_1.png","C_Dist_300_LN_8_LD_15_RN_10_RD_12_1.png"]],"dist300_I":[["I_Dist_300_LN_1_LD_2_RN_2_RD_10_0.png","I_Dist_300_LN_1_LD_2_RN_3_RD_15_0.png","I_Dist_300_LN_2_LD_4_RN_6_RD_30_0.png","I_Dist_300_LN_3_LD_6_RN_4_RD_20_0.png","I_Dist_300_LN_4_LD_5_RN_6_RD_12_0.png","I_Dist_300_LN_4_LD_5_RN_8_RD_16_0.png","I_Dist_300_LN_7_LD_10_RN_8_RD_20_0.png","I_Dist_300_LN_8_LD_10_RN_14_RD_28_0.png","I_Dist_300_LN_8_LD_10_RN_9_RD_18_0.png"],["I_Dist_300_LN_13_LD_26_RN_12_RD_15_1.png","I_Dist_300_LN_4_LD_20_RN_2_RD_4_1.png"]],"dist300_S":[["E_Dist_300_LN_9_LD_12_RN_9_RD_20_0.png"],["E_Dist_300_LN_18_LD_30_RN_18_RD_20_1.png","E_Dist_300_LN_3_LD_10_RN_3_RD_5_1.png","E_Dist_300_LN_9_LD_20_RN_9_RD_12_1.png"]],"dist500_C":[["C_Dist_500_LN_10_LD_13_RN_7_RD_26_0.png","C_Dist_500_LN_10_LD_15_RN_4_RD_24_0.png","C_Dist_500_LN_12_LD_16_RN_3_RD_12_0.png","C_Dist_500_LN_12_LD_18_RN_4_RD_24_0.png","C_Dist_500_LN_15_LD_18_RN_5_RD_15_0.png","C_Dist_500_LN_15_LD_20_RN_1_RD_4_0.png","C_Dist_500_LN_18_LD_27_RN_1_RD_6_0.png","C_Dist_500_LN_20_LD_24_RN_1_RD_3_0.png","C_Dist_500_LN_20_LD_24_RN_3_RD_9_0.png","C_Dist_500_LN_20_LD_24_RN_7_RD_21_0.png","C_Dist_500_LN_20_LD_28_RN_3_RD_14_0.png","C_Dist_500_LN_21_LD_28_RN_6_RD_24_0.png","C_Dist_500_LN_22_LD_28_RN_2_RD_7_0.png","C_Dist_500_LN_25_LD_30_RN_9_RD_27_0.png","C_Dist_500_LN_4_LD_6_RN_1_RD_6_0.png","C_Dist_500_LN_5_LD_6_RN_2_RD_6_0.png","C_Dist_500_LN_6_LD_9_RN_1_RD_6_0.png","C_Dist_500_LN_7_LD_10_RN_1_RD_5_0.png","C_Dist_500_LN_8_LD_12_RN_1_RD_6_0.png","C_Dist_500_LN_8_LD_12_RN_4_RD_24_0.png"],["C_Dist_500_LN_1_LD_4_RN_12_RD_16_1.png","C_Dist_500_LN_1_LD_4_RN_9_RD_12_1.png","C_Dist_500_LN_1_LD_9_RN_11_RD_18_1.png","C_Dist_500_LN_10_LD_24_RN_22_RD_24_1.png","C_Dist_500_LN_2_LD_12_RN_10_RD_15_1.png","C_Dist_500_LN_2_LD_12_RN_12_RD_18_1.png","C_Dist_500_LN_2_LD_12_RN_4_RD_6_1.png","C_Dist_500_LN_2_LD_24_RN_7_RD_12_1.png","C_Dist_500_LN_2_LD_5_RN_18_RD_20_1.png","C_Dist_500_LN_2_LD_5_RN_9_RD_10_1.png","C_Dist_500_LN_2_LD_8_RN_12_RD_16_1.png","C_Dist_500_LN_2_LD_8_RN_21_RD_28_1.png","C_Dist_500_LN_3_LD_10_RN_4_RD_5_1.png","C_Dist_500_LN_3_LD_12_RN_15_RD_20_1.png","C_Dist_500_LN_3_LD_30_RN_6_RD_10_1.png","C_Dist_500_LN_3_LD_8_RN_14_RD_16_1.png","C_Dist_500_LN_4_LD_16_RN_15_RD_20_1.png","C_Dist_500_LN_4_LD_24_RN_12_RD_18_1.png","C_Dist_500_LN_5_LD_14_RN_6_RD_7_1.png","C_Dist_500_LN_7_LD_21_RN_20_RD_24_1.png","C_Dist_500_LN_7_LD_28_RN_12_RD_16_1.png","C_Dist_500_LN_7_LD_28_RN_9_RD_12_1.png","C_Dist_500_LN_9_LD_27_RN_20_RD_24_1.png"]],"dist500_I":[["I_Dist_500_LN_2_LD_3_RN_4_RD_24_0.png","I_Dist_500_LN_5_LD_6_RN_6_RD_18_0.png","I_Dist_500_LN_7_LD_8_RN_9_RD_24_0.png"],["I_Dist_500_LN_7_LD_21_RN_5_RD_6_1.png"]],"dist500_S":[["E_Dist_500_LN_6_LD_8_RN_6_RD_24_0.png"],["E_Dist_500_LN_2_LD_12_RN_2_RD_3_1.png","E_Dist_500_LN_6_LD_24_RN_6_RD_8_1.png"]]}},{"start_time":1551899955417,"click_time":1551899957103,"finger_time":1551899956903,"fix_duration":914.9872436406799,"trial":1,"RT":1486,"MT":200,"sideResp":1,"stimulus":[],"xmouse":[790,790,790,790,790,790,790,790,790,790,790,790,790,790,790,790,790,790,789,789,788,788,788,788,788,788,788,788,788,788,788,788,788,788,788,788,788,788,788,788,788,788,788,788,788,788,788,788,788,788,788,788,788,788,788,788,788,788,788,788,788,788,788,788,788,788,788,788,788,788,788,788,788,782,763,691,639,601,596,593,592,587,574,548,508],"ymouse":[625,625,625,625,625,625,625,625,625,625,625,625,625,625,625,625,625,625,625,625,625,625,625,625,625,625,625,625,625,625,625,625,625,625,625,625,625,625,625,625,625,625,625,625,625,625,625,625,625,625,625,625,625,625,625,625,625,625,625,625,625,625,625,625,625,625,625,625,625,625,625,625,611,589,527,375,296,235,217,202,190,166,128,75,11],"timestamp_mouse":[12,43,44,64,86,105,124,144,165,184,205,225,244,265,284,304,325,345,365,386,405,425,444,465,484,505,524,544,566,585,605,625,646,666,686,704,726,744,766,785,805,825,844,866,884,905,924,944,964,984,1005,1025,1044,1064,1085,1104,1125,1144,1165,1185,1204,1224,1244,1266,1285,1304,1326,1344,1366,1385,1404,1424,1444,1466,1486,1504,1525,1545,1564,1585,1604,1624,1645,1664,1686],"xSR":741.5,"ySR":573.95,"xT1":424.9,"yT1":0,"xT2":1058.1,"yT2":0,"toosoon":0,"cond_shown":"Incongruent","ratio_trial":300,"L_num":8,"L_den":10,"R_num":14,"R_den":28,"correct_side":1,"subjID":"LizethLopezLizcano14","gender":"1","school":"6","age":"11                                           b                                                                                                                                                                                    11                                                                      "},{"start_time":1551899959859,"click_time":1551899961583,"finger_time":1551899961263,"fix_duration":815.8801525937665,"trial":2,"RT":1404,"MT":320,"sideResp":1,"stimulus":[],"xmouse":[821,821,821,821,821,821,821,821,821,821,821,821,821,821,821,821,821,821,821,821,821,820,817,812,811,811,811,811,811,811,811,811,811,811,811,811,811,811,811,811,811,811,811,811,811,811,811,811,811,811,811,811,811,811,811,811,811,811,811,811,811,811,811,811,811,811,811,811,810,806,795,773,732,696,687,681,681,681,681,681,681,679,679,631,578,527,482],"ymouse":[613,613,613,613,613,613,613,613,613,613,613,613,613,613,613,613,613,613,613,613,613,612,611,610,610,610,610,610,610,610,610,610,610,610,610,610,610,610,610,610,610,610,610,610,610,610,610,610,610,610,610,610,610,610,610,610,610,610,610,610,610,610,610,610,610,610,610,610,602,578,527,448,277,147,112,69,66,65,65,65,65,65,65,71,73,73,74],"timestamp_mouse":[11,23,43,64,82,102,123,143,164,183,202,223,242,262,282,303,322,344,362,382,402,423,442,462,483,502,523,544,562,583,602,622,643,663,682,702,724,743,763,783,804,822,842,862,883,902,922,942,964,982,1002,1022,1043,1063,1082,1103,1123,1144,1163,1184,1203,1222,1244,1263,1283,1302,1322,1343,1362,1382,1404,1423,1443,1462,1482,1502,1523,1543,1563,1583,1602,1622,1643,1662,1682,1703,1724],"xSR":741.5,"ySR":573.95,"xT1":424.9,"yT1":0,"xT2":1058.1,"yT2":0,"toosoon":0,"cond_shown":"Incongruent","ratio_trial":100,"L_num":3,"L_den":5,"R_num":8,"R_den":16,"correct_side":1,"subjID":"LizethLopezLizcano14","gender":"1","school":"6","age":"11                                           b                                                                                                                                                                                    11                                                                      "},{"start_time":1551899963912,"click_time":1551899965423,"finger_time":1551899964841,"fix_duration":528.1665268424457,"trial":3,"RT":929,"MT":582,"sideResp":2,"stimulus":[],"xmouse":[795,795,795,795,795,795,795,795,795,795,795,795,795,795,795,795,795,795,795,795,795,795,795,795,795,795,795,795,795,795,795,795,795,795,795,795,795,795,795,795,795,795,796,803,811,841,887,985,1092,1274,1307,1320,1327,1336,1350,1356,1362,1367,1367,1367,1350,1330,1310,1281,1236,1221,1210,1203,1197,1194,1183,1177,1173,1171,1169,1152],"ymouse":[623,623,623,623,623,623,623,623,623,623,623,623,623,623,623,623,623,623,623,623,623,623,623,623,623,623,623,623,623,623,623,623,623,623,623,623,623,623,623,623,623,623,622,616,610,589,559,514,465,377,360,349,338,319,281,261,246,233,221,209,177,156,139,122,94,85,81,80,78,77,73,71,71,70,69,67],"timestamp_mouse":[11,39,50,71,90,110,130,150,170,190,211,229,250,269,290,309,329,350,370,391,409,429,449,469,490,509,530,550,569,589,609,630,650,670,690,710,729,749,769,790,810,830,849,871,891,911,929,950,970,990,1009,1030,1049,1069,1090,1109,1131,1149,1169,1189,1210,1230,1250,1270,1289,1312,1329,1349,1369,1389,1410,1429,1449,1471,1489,1510],"xSR":741.5,"ySR":573.95,"xT1":424.9,"yT1":0,"xT2":1058.1,"yT2":0,"toosoon":0,"cond_shown":"Congruent","ratio_trial":200,"L_num":20,"L_den":25,"R_num":9,"R_den":15,"correct_side":1,"subjID":"LizethLopezLizcano14","gender":"1","school":"6","age":"11                                           b                                                                                                                                                                                    11                                                                      "},{"start_time":1551899967865,"click_time":1551899969243,"finger_time":1551899968902,"fix_duration":1162.7900168063668,"trial":4,"RT":1037,"MT":341,"sideResp":2,"stimulus":[],"xmouse":[819,820,820,820,820,820,820,820,820,820,820,820,821,821,821,822,822,822,822,822,822,822,822,822,822,823,823,823,823,823,823,823,823,823,823,823,823,823,823,823,823,823,823,823,823,823,823,823,823,823,824,873,920,975,1031,1081,1161,1184,1195,1203,1207,1209,1211,1211,1211,1211,1211,1179,1150],"ymouse":[639,638,637,637,637,637,637,637,637,637,637,637,636,635,633,632,632,632,631,631,631,631,631,631,631,630,630,630,630,630,630,630,630,630,630,630,630,630,630,630,630,630,630,630,630,630,630,630,630,629,629,548,473,384,303,235,115,75,50,31,18,12,10,7,6,6,6,5,12],"timestamp_mouse":[16,36,57,77,97,117,136,157,176,196,217,237,256,277,297,317,336,357,376,398,417,437,456,476,497,517,538,557,577,598,616,637,656,677,696,716,736,756,777,797,817,836,857,876,896,918,936,956,976,996,1016,1037,1057,1077,1098,1118,1137,1156,1176,1196,1217,1237,1256,1276,1297,1317,1336,1357,1378],"xSR":741.5,"ySR":573.95,"xT1":424.9,"yT1":0,"xT2":1058.1,"yT2":0,"toosoon":0,"cond_shown":"Incongruent","ratio_trial":200,"L_num":7,"L_den":15,"R_num":4,"R_den":6,"correct_side":2,"subjID":"LizethLopezLizcano14","gender":"1","school":"6","age":"11                                           b                                                                                                                                                                                    11                                                                      "},{"start_time":1551899970553,"click_time":1551899971622,"finger_time":1551899971322,"fix_duration":390.1106483079857,"trial":5,"RT":769,"MT":300,"sideResp":1,"stimulus":[],"xmouse":[779,779,779,779,779,779,779,779,779,779,779,779,779,779,779,779,779,779,779,779,779,779,779,779,779,779,779,779,779,779,779,779,779,779,779,779,779,779,768,747,742,728,689,661,631,602,579,563,545,542,542,540,525,517],"ymouse":[591,591,591,591,591,591,591,591,591,591,591,591,591,591,591,591,591,591,591,591,591,591,591,591,591,591,591,591,591,591,591,591,591,591,591,591,590,586,552,498,481,432,336,283,237,202,175,156,136,131,128,120,86,71],"timestamp_mouse":[10,34,48,68,88,109,129,148,168,188,210,228,248,268,288,308,329,349,368,389,408,428,449,468,489,508,528,549,569,588,609,628,649,668,688,708,729,748,769,788,810,829,849,868,888,908,930,949,968,988,1009,1029,1049,1069],"xSR":741.5,"ySR":573.95,"xT1":424.9,"yT1":0,"xT2":1058.1,"yT2":0,"toosoon":0,"cond_shown":"Incongruent","ratio_trial":300,"L_num":2,"L_den":4,"R_num":6,"R_den":30,"correct_side":1,"subjID":"LizethLopezLizcano14","gender":"1","school":"6","age":"11                                           b                                                                                                                                                                                    11                                                                      "},{"start_time":1551899973172,"click_time":1551899974501,"finger_time":1551899973961,"fix_duration":688.1008643202769,"trial":6,"RT":789,"MT":540,"sideResp":2,"stimulus":[],"xmouse":[819,819,819,819,819,819,819,819,819,819,819,819,819,819,819,819,819,819,819,819,819,819,819,819,819,819,819,819,819,819,819,819,819,819,819,819,819,823,827,845,857,882,893,902,908,913,928,936,943,950,960,974,990,999,1007,1015,1023,1041,1052,1071,1081,1089,1101,1107,1111,1113,1114],"ymouse":[630,630,630,630,630,630,630,630,630,630,630,630,630,630,630,630,630,630,630,630,630,630,630,630,630,630,630,630,630,630,630,630,630,630,630,630,630,626,617,587,566,521,497,476,459,442,409,390,375,358,342,318,289,273,257,243,229,199,183,160,146,135,121,113,107,104,99],"timestamp_mouse":[10,32,49,69,89,109,130,149,169,189,209,229,249,270,291,309,329,349,371,389,410,431,451,470,490,510,529,549,570,589,609,630,649,669,689,709,729,750,770,789,809,830,849,870,889,909,930,949,970,989,1009,1029,1050,1070,1090,1110,1129,1149,1169,1189,1209,1229,1249,1269,1290,1310,1329],"xSR":741.5,"ySR":573.95,"xT1":424.9,"yT1":0,"xT2":1058.1,"yT2":0,"toosoon":0,"cond_shown":"Incongruent","ratio_trial":200,"L_num":14,"L_den":30,"R_num":12,"R_den":18,"correct_side":2,"subjID":"LizethLopezLizcano14","gender":"1","school":"6","age":"11                                           b                                                                                                                                                                                    11                                                                      "},{"start_time":1551899976915,"click_time":1551899978501,"finger_time":1551899976942,"fix_duration":1432.875531335308,"trial":7,"RT":27,"MT":1559,"sideResp":1,"stimulus":[],"xmouse":[743,725,699,679,663,662,662,662,662,662,662,662,662,662,662,662,661,662,664,664,664,665,665,666,666,666,666,666,668,686,695,703,710,722,732,737,741,744,745,745,745,747,748,748,750,752,755,758,761,764,764,764,764,764,764,764,764,764,764,756,734,696,618,563,505,495,488,481,471,440,430,429,429,430,431,433,434,436,440,452],"ymouse":[630,633,638,643,647,647,647,647,647,647,647,647,647,647,647,647,647,646,644,644,644,644,644,647,650,650,650,651,650,624,613,605,600,595,591,589,587,587,587,587,587,588,594,598,606,613,621,625,628,630,630,630,630,630,630,630,630,623,614,550,503,444,332,265,195,181,171,163,153,126,115,113,113,113,112,112,112,112,109,99],"timestamp_mouse":[10,27,47,67,86,106,127,147,167,187,206,228,248,266,288,306,327,347,366,387,406,427,447,467,487,506,527,546,566,586,607,627,647,667,686,706,727,747,766,787,807,827,847,866,887,907,926,946,966,987,1007,1027,1047,1067,1086,1106,1127,1146,1167,1187,1207,1226,1246,1266,1287,1307,1326,1347,1368,1387,1407,1427,1446,1467,1488,1506,1526,1547,1566,1586],"xSR":741.5,"ySR":573.95,"xT1":424.9,"yT1":0,"xT2":1058.1,"yT2":0,"toosoon":0,"cond_shown":"Congruent","ratio_trial":100,"L_num":7,"L_den":14,"R_num":9,"R_den":15,"correct_side":2,"subjID":"LizethLopezLizcano14","gender":"1","school":"6","age":"11                                           b                                                                                                                                                                                    11                                                                      "},{"start_time":1551899983240,"click_time":1551899984483,"finger_time":1551899984161,"fix_duration":1318.5755827001237,"trial":8,"RT":921,"MT":322,"sideResp":2,"stimulus":[],"xmouse":[773,773,773,773,773,773,773,773,773,773,773,773,773,773,773,773,773,773,773,773,773,773,773,773,771,770,770,770,770,770,770,770,770,770,770,770,770,770,770,770,770,770,769,771,790,812,825,842,862,894,905,914,923,937,946,961,978,995,1011,1021,1032,1053,1074],"ymouse":[626,626,626,626,626,626,626,626,626,626,626,626,626,626,626,626,626,626,626,626,626,626,626,626,626,626,626,626,626,626,626,626,626,626,626,626,626,626,626,626,626,626,624,623,601,574,558,532,495,412,385,366,349,305,270,223,185,143,100,84,68,51,35],"timestamp_mouse":[9,34,42,61,81,103,122,143,162,182,201,221,242,262,281,301,321,342,363,382,401,422,441,462,482,501,521,541,561,583,603,622,642,663,682,701,722,743,763,781,802,821,841,862,881,903,921,941,962,981,1001,1021,1043,1062,1081,1102,1122,1143,1162,1181,1202,1222,1242],"xSR":741.5,"ySR":573.95,"xT1":424.9,"yT1":0,"xT2":1058.1,"yT2":0,"toosoon":0,"cond_shown":"Incongruent","ratio_trial":100,"L_num":17,"L_den":30,"R_num":10,"R_den":15,"correct_side":2,"subjID":"LizethLopezLizcano14","gender":"1","school":"6","age":"11                                           b                                                                                                                                                                                    11                                                                      "},{"start_time":1551899985774,"click_time":1551899987082,"finger_time":1551899986522,"fix_duration":250,"trial":9,"RT":748,"MT":560,"sideResp":2,"stimulus":[],"xmouse":[828,828,828,828,828,828,828,828,828,828,828,828,828,828,828,828,828,828,828,828,828,828,828,828,828,828,828,828,828,828,828,828,828,828,828,830,838,894,966,1082,1139,1167,1193,1197,1200,1203,1208,1218,1223,1223,1223,1220,1194,1175,1162,1155,1155,1155,1155,1155,1155,1155,1154,1154,1154,1153],"ymouse":[649,649,649,649,649,649,649,649,649,649,649,649,649,649,649,649,649,649,649,649,649,649,649,649,649,649,649,649,649,649,649,649,649,649,649,647,643,612,565,457,375,305,247,240,236,232,222,195,174,165,162,157,134,118,106,101,101,101,101,101,101,101,100,100,100,96],"timestamp_mouse":[22,28,48,68,88,107,128,147,167,187,207,227,247,267,289,307,328,347,367,388,407,428,448,468,488,508,528,548,567,587,608,629,648,667,687,707,727,748,767,789,808,827,848,867,887,907,927,947,968,987,1007,1027,1048,1068,1088,1109,1129,1147,1168,1187,1207,1227,1247,1267,1288,1308],"xSR":741.5,"ySR":573.95,"xT1":424.9,"yT1":0,"xT2":1058.1,"yT2":0,"toosoon":0,"cond_shown":"Congruent","ratio_trial":300,"L_num":1,"L_den":30,"R_num":8,"R_den":24,"correct_side":2,"subjID":"LizethLopezLizcano14","gender":"1","school":"6","age":"11                                           b                                                                                                                                                                                    11                                                                      "},{"start_time":1551899991001,"click_time":1551899992381,"finger_time":1551899992021,"fix_duration":1097.4651791993335,"trial":10,"RT":1020,"MT":360,"sideResp":2,"stimulus":[],"xmouse":[794,794,794,794,794,794,794,794,794,794,794,794,794,794,794,794,795,798,801,801,801,801,801,801,801,801,801,801,801,801,801,801,801,801,801,801,801,801,801,801,801,801,801,801,801,801,801,801,801,801,809,854,875,893,910,942,954,961,965,969,974,974,974,976,982,989,1011,1024,1048,1060],"ymouse":[619,619,619,619,619,619,619,619,619,619,619,619,619,619,618,616,609,600,591,590,588,588,588,588,588,588,588,588,588,588,588,588,588,588,588,588,588,588,588,588,588,588,588,588,588,588,588,588,588,587,577,519,496,475,453,396,370,354,339,314,263,239,219,200,182,164,122,98,66,50],"timestamp_mouse":[9,33,40,62,80,101,122,142,160,180,200,220,240,260,280,302,321,342,360,380,402,420,440,461,481,502,522,541,561,582,600,621,641,660,680,700,721,740,760,781,801,821,842,862,880,902,921,940,961,981,1001,1020,1040,1060,1080,1101,1120,1141,1162,1181,1201,1220,1240,1262,1280,1301,1321,1341,1360,1380],"xSR":741.5,"ySR":573.95,"xT1":424.9,"yT1":0,"xT2":1058.1,"yT2":0,"toosoon":0,"cond_shown":"Incongruent","ratio_trial":100,"L_num":6,"L_den":12,"R_num":3,"R_den":5,"correct_side":2,"subjID":"LizethLopezLizcano14","gender":"1","school":"6","age":"11                                           b                                                                                                                                                                                    11                                                                      "},{"start_time":1551899995825,"click_time":1551899996841,"finger_time":1551899996502,"fix_duration":361.090046693778,"trial":11,"RT":677,"MT":339,"sideResp":2,"stimulus":[],"xmouse":[806,806,806,806,806,806,806,806,806,806,806,806,806,806,806,806,806,806,806,806,806,806,805,805,805,804,804,803,803,802,802,808,815,828,854,872,913,944,975,1018,1036,1048,1061,1070,1073,1074,1074,1074,1074,1072,1069],"ymouse":[616,616,616,616,616,616,616,616,616,616,616,616,616,616,616,616,616,616,616,613,612,611,611,611,611,611,611,611,610,610,605,594,583,571,546,514,445,396,348,271,239,219,201,190,183,167,152,143,136,106,86],"timestamp_mouse":[17,42,57,76,96,118,137,157,177,197,217,238,257,277,296,318,337,357,377,396,417,437,457,478,497,516,537,557,578,596,616,636,658,677,696,716,736,757,778,796,817,837,858,877,896,916,937,957,977,997,1016],"xSR":741.5,"ySR":573.95,"xT1":424.9,"yT1":0,"xT2":1058.1,"yT2":0,"toosoon":0,"cond_shown":"Congruent","ratio_trial":300,"L_num":7,"L_den":14,"R_num":20,"R_den":25,"correct_side":2,"subjID":"LizethLopezLizcano14","gender":"1","school":"6","age":"11                                           b                                                                                                                                                                                    11                                                                      "},{"start_time":1551899998073,"click_time":1551899999282,"finger_time":1551899998403,"fix_duration":250,"trial":12,"RT":330,"MT":879,"sideResp":1,"stimulus":[],"xmouse":[809,809,809,809,809,809,809,809,809,809,809,809,809,809,810,816,851,869,879,881,883,879,876,875,870,850,833,809,803,802,802,802,802,802,802,802,802,802,802,802,800,777,747,706,647,619,591,582,574,565,559,553,541,540,540,540,538,528,527,525,520],"ymouse":[638,638,638,638,638,638,638,638,638,638,638,638,638,638,638,633,598,567,543,521,499,478,470,469,469,465,462,454,453,452,452,452,452,452,452,452,452,452,452,452,448,423,384,331,262,234,209,194,179,162,146,134,117,115,115,115,114,104,104,102,96],"timestamp_mouse":[15,44,49,68,88,108,130,148,168,190,208,230,249,268,288,309,330,348,368,388,408,428,449,469,490,509,528,549,569,590,609,629,648,668,690,709,729,749,769,789,809,829,848,868,889,910,929,948,969,988,1009,1028,1050,1068,1089,1109,1129,1149,1168,1189,1209],"xSR":741.5,"ySR":573.95,"xT1":424.9,"yT1":0,"xT2":1058.1,"yT2":0,"toosoon":0,"cond_shown":"Congruent","ratio_trial":100,"L_num":8,"L_den":16,"R_num":2,"R_den":5,"correct_side":1,"subjID":"LizethLopezLizcano14","gender":"1","school":"6","age":"11                                           b                                                                                                                                                                                    11                                                                      "},{"start_time":1551900000692,"click_time":1551900001922,"finger_time":1551900001562,"fix_duration":250,"trial":13,"RT":870,"MT":360,"sideResp":1,"stimulus":[],"xmouse":[809,809,809,809,809,809,809,809,809,809,809,809,809,809,809,809,809,809,809,809,809,809,809,809,809,809,809,809,811,816,824,833,834,834,834,834,834,834,834,834,834,824,813,784,762,731,717,705,697,691,684,676,674,672,663,641,626,606,580,553,525,523],"ymouse":[633,633,633,633,633,633,633,633,633,633,633,633,633,633,633,633,633,633,633,633,633,633,633,633,633,633,633,633,629,626,623,615,614,614,614,614,614,614,614,613,613,597,583,542,503,430,393,361,334,308,287,258,251,243,221,188,171,147,117,87,55,52],"timestamp_mouse":[11,41,51,70,91,110,130,150,169,189,211,230,250,269,290,310,330,350,370,390,410,430,451,470,491,509,530,550,570,589,609,629,650,670,689,710,730,751,769,791,809,829,850,870,891,910,930,949,969,989,1010,1030,1049,1069,1089,1110,1129,1150,1170,1189,1210,1229],"xSR":741.5,"ySR":573.95,"xT1":424.9,"yT1":0,"xT2":1058.1,"yT2":0,"toosoon":0,"cond_shown":"Congruent","ratio_trial":200,"L_num":16,"L_den":20,"R_num":12,"R_den":20,"correct_side":1,"subjID":"LizethLopezLizcano14","gender":"1","school":"6","age":"11                                           b                                                                                                                                                                                    11                                                                      "},{"start_time":1551900003096,"click_time":1551900003963,"finger_time":1551900003681,"fix_duration":452.9611479127423,"trial":14,"RT":585,"MT":282,"sideResp":2,"stimulus":[],"xmouse":[813,813,813,813,813,813,813,813,813,813,813,813,813,813,813,813,813,813,813,813,814,817,819,820,821,826,828,831,837,847,861,891,910,928,958,1004,1024,1037,1048,1057,1070,1072,1074,1074],"ymouse":[669,669,669,669,669,669,669,669,669,669,669,669,669,669,669,669,669,669,668,668,667,665,664,662,662,657,656,652,646,634,612,557,526,494,443,361,316,277,238,206,157,136,116,91],"timestamp_mouse":[15,35,46,65,85,105,126,145,165,186,206,226,246,266,286,306,325,346,366,385,405,426,445,465,487,506,525,546,565,585,605,627,647,667,686,706,725,745,765,786,806,825,846,867],"xSR":741.5,"ySR":573.95,"xT1":424.9,"yT1":0,"xT2":1058.1,"yT2":0,"toosoon":0,"cond_shown":"Congruent","ratio_trial":200,"L_num":6,"L_den":12,"R_num":7,"R_den":10,"correct_side":2,"subjID":"LizethLopezLizcano14","gender":"1","school":"6","age":"11                                           b                                                                                                                                                                                    11                                                                      "},{"start_time":1551900005354,"click_time":1551900006562,"finger_time":1551900006021,"fix_duration":250,"trial":15,"RT":667,"MT":541,"sideResp":2,"stimulus":[],"xmouse":[784,784,784,784,784,784,784,784,784,784,784,784,784,784,784,784,784,784,784,784,784,784,784,784,784,784,784,785,785,786,789,796,808,865,909,962,1033,1099,1186,1215,1256,1275,1296,1301,1304,1306,1306,1300,1289,1276,1233,1203,1169,1166,1166,1165,1165,1165,1164,1161,1154],"ymouse":[613,613,613,613,613,613,613,613,613,613,613,613,613,613,613,613,613,613,613,613,613,613,613,613,613,613,613,613,613,612,609,603,593,549,518,477,428,381,294,252,186,151,113,104,94,79,59,43,26,19,12,7,7,7,7,8,8,8,9,12,17],"timestamp_mouse":[11,32,48,68,88,107,128,148,168,187,207,228,247,267,288,308,328,347,368,388,407,427,449,467,487,507,529,548,568,587,608,627,647,667,688,708,727,748,767,788,807,829,848,867,887,907,928,947,968,987,1007,1029,1048,1067,1088,1107,1127,1147,1167,1188,1208],"xSR":741.5,"ySR":573.95,"xT1":424.9,"yT1":0,"xT2":1058.1,"yT2":0,"toosoon":0,"cond_shown":"Congruent","ratio_trial":200,"L_num":3,"L_den":10,"R_num":14,"R_den":28,"correct_side":2,"subjID":"LizethLopezLizcano14","gender":"1","school":"6","age":"11                                           b                                                                                                                                                                                    11                                                                      "},{"start_time":1551900008456,"click_time":1551900010022,"finger_time":1551900009021,"fix_duration":752.6138674738972,"trial":16,"RT":565,"MT":1001,"sideResp":1,"stimulus":[],"xmouse":[797,797,797,797,797,797,797,797,797,797,797,797,797,797,797,797,797,797,797,797,799,801,806,820,821,827,833,840,860,869,876,879,883,884,887,889,889,889,889,889,889,889,889,881,871,852,834,817,783,760,737,721,709,705,703,703,703,703,702,702,702,700,670,654,629,622,604,595,580,577,572,570,569,567,562,557,545,538,517],"ymouse":[620,620,620,620,620,620,620,620,620,620,620,620,620,620,620,620,620,620,620,620,620,618,614,607,606,602,599,594,578,570,563,559,552,550,545,541,538,538,538,538,538,538,538,538,538,541,544,548,559,562,565,567,564,550,527,457,381,281,144,108,65,15,0,0,0,0,2,6,14,18,23,25,27,28,30,32,35,37,40],"timestamp_mouse":[15,38,45,65,87,105,126,146,166,186,207,226,246,265,285,307,325,346,366,386,406,426,464,465,485,506,526,546,565,585,606,625,646,665,686,706,725,746,765,785,806,826,845,865,885,906,925,945,965,985,1005,1025,1045,1065,1087,1107,1125,1145,1165,1186,1206,1226,1246,1265,1285,1306,1326,1345,1365,1386,1406,1425,1447,1466,1487,1507,1527,1545,1566],"xSR":741.5,"ySR":573.95,"xT1":424.9,"yT1":0,"xT2":1058.1,"yT2":0,"toosoon":0,"cond_shown":"Incongruent","ratio_trial":300,"L_num":8,"L_den":10,"R_num":14,"R_den":28,"correct_side":1,"subjID":"LizethLopezLizcano14","gender":"1","school":"6","age":"11                                           b                                                                                                                                                                                    11                                                                      "},{"start_time":1551900011592,"click_time":1551900012961,"finger_time":1551900012604,"fix_duration":250,"trial":17,"RT":1012,"MT":357,"sideResp":1,"stimulus":[],"xmouse":[788,788,788,788,788,788,788,788,788,788,788,788,788,788,788,788,788,788,788,788,788,788,788,788,788,788,788,788,788,788,788,788,788,788,788,788,788,788,788,788,788,788,788,788,788,788,788,788,787,780,744,710,679,661,648,640,608,596,588,577,573,573,573,573,573,562,546,528,507],"ymouse":[623,623,623,623,623,623,623,623,623,623,623,623,623,623,623,623,623,623,623,623,623,623,623,623,623,623,623,623,623,623,623,623,623,623,623,623,623,623,623,623,623,623,623,623,623,623,623,623,619,599,476,398,326,265,227,194,111,85,65,44,38,38,38,38,38,38,46,52,57],"timestamp_mouse":[10,29,50,69,90,109,129,149,170,189,209,230,249,269,290,309,330,349,371,390,409,430,450,469,490,509,530,549,571,589,609,629,650,670,689,709,730,749,770,790,809,829,850,870,889,909,929,949,969,990,1012,1029,1049,1069,1090,1109,1129,1149,1170,1190,1210,1229,1249,1270,1290,1310,1329,1350,1369],"xSR":741.5,"ySR":573.95,"xT1":424.9,"yT1":0,"xT2":1058.1,"yT2":0,"toosoon":0,"cond_shown":"Congruent","ratio_trial":100,"L_num":15,"L_den":25,"R_num":13,"R_den":26,"correct_side":1,"subjID":"LizethLopezLizcano14","gender":"1","school":"6","age":"11                                           b                                                                                                                                                                                    11                                                                      "},{"start_time":1551900017338,"click_time":1551900019183,"finger_time":1551900018921,"fix_duration":1196.1788973043958,"trial":18,"RT":1583,"MT":262,"sideResp":2,"stimulus":[],"xmouse":[765,765,765,765,765,765,765,765,765,765,765,765,765,765,765,765,765,765,765,766,766,769,772,774,777,777,778,778,778,778,778,778,778,778,778,778,778,778,778,778,778,777,776,774,774,773,773,772,772,772,772,772,772,772,772,772,772,772,772,772,772,772,772,772,772,772,772,771,769,767,766,766,765,763,762,761,761,762,773,784,808,823,844,900,919,937,955,969,997,1014,1028,1051,1060],"ymouse":[633,633,633,633,633,633,633,633,633,633,633,633,633,633,633,633,633,633,633,632,630,627,623,620,616,615,614,614,614,614,614,614,614,614,614,614,614,612,612,612,611,611,611,611,611,611,611,611,611,611,611,611,611,611,611,611,611,611,611,611,611,611,611,611,611,611,611,611,610,610,610,609,609,607,606,605,604,600,578,558,520,494,460,373,339,300,257,220,174,153,133,102,84],"timestamp_mouse":[10,34,44,63,83,103,124,144,163,183,203,223,245,263,283,304,325,343,364,383,404,423,443,463,484,503,524,543,563,583,603,623,645,664,684,703,723,743,763,784,803,823,843,865,883,903,923,943,965,983,1003,1023,1043,1063,1084,1104,1123,1144,1163,1183,1204,1223,1243,1263,1283,1303,1323,1343,1364,1383,1404,1424,1443,1464,1483,1504,1525,1543,1564,1583,1604,1624,1644,1663,1683,1703,1723,1744,1764,1783,1803,1823,1845],"xSR":741.5,"ySR":573.95,"xT1":424.9,"yT1":0,"xT2":1058.1,"yT2":0,"toosoon":0,"cond_shown":"Congruent","ratio_trial":100,"L_num":1,"L_den":2,"R_num":3,"R_den":5,"correct_side":2,"subjID":"LizethLopezLizcano14","gender":"1","school":"6","age":"11                                           b                                                                                                                                                                                    11                                                                      "},{"start_time":1551900022576,"click_time":1551900023981,"finger_time":1551900023243,"fix_duration":434.7500760727708,"trial":19,"RT":667,"MT":738,"sideResp":2,"stimulus":[],"xmouse":[794,794,794,794,794,794,794,794,794,794,794,794,794,794,794,794,794,794,794,794,794,794,794,794,794,794,794,794,794,794,794,794,800,808,817,825,834,836,844,850,883,906,936,948,959,966,975,992,1000,1012,1029,1038,1039,1040,1040,1041,1043,1043,1044,1044,1044,1044,1044,1044,1044,1044,1044,1045,1046,1051,1060],"ymouse":[578,578,578,578,578,578,578,578,578,578,578,578,578,578,578,578,578,578,578,578,578,578,578,578,578,578,578,578,578,578,578,578,574,562,544,523,486,475,460,448,391,351,308,289,268,251,232,192,173,146,112,80,67,58,53,51,46,46,45,45,45,45,45,45,45,45,45,45,45,45,50],"timestamp_mouse":[11,26,47,65,85,105,125,145,166,186,206,225,245,265,286,306,325,346,366,386,407,425,447,466,485,505,527,545,565,586,606,625,645,667,685,705,726,745,766,785,806,826,846,865,885,906,926,945,966,985,1005,1026,1045,1065,1086,1106,1126,1145,1165,1186,1205,1227,1246,1266,1286,1306,1325,1345,1365,1385,1405],"xSR":741.5,"ySR":573.95,"xT1":424.9,"yT1":0,"xT2":1058.1,"yT2":0,"toosoon":0,"cond_shown":"Congruent","ratio_trial":100,"L_num":2,"L_den":5,"R_num":11,"R_den":22,"correct_side":2,"subjID":"LizethLopezLizcano14","gender":"1","school":"6","age":"11                                           b                                                                                                                                                                                    11                                                                      "},{"start_time":1551900026468,"click_time":1551900027762,"finger_time":1551900027302,"fix_duration":1085.9173212004523,"trial":20,"RT":834,"MT":460,"sideResp":2,"stimulus":[],"xmouse":[822,822,822,822,822,822,822,822,822,822,822,822,822,822,822,822,822,822,822,822,822,822,822,822,822,822,822,822,822,822,822,822,822,822,822,822,822,822,822,823,831,890,925,955,985,1000,1013,1036,1045,1052,1058,1075,1082,1085,1090,1091,1091,1091,1091,1091,1091,1091,1094,1097,1100],"ymouse":[634,634,634,634,634,634,634,634,634,634,634,634,634,634,634,634,634,634,634,634,634,634,634,634,634,634,634,634,634,634,634,634,634,634,634,634,634,634,631,625,593,482,421,366,315,293,273,232,211,196,183,161,154,149,138,133,131,130,130,130,130,130,121,108,84],"timestamp_mouse":[14,33,54,73,94,115,134,154,174,194,214,234,253,274,294,315,334,354,373,393,414,435,454,475,494,514,533,553,573,595,614,634,653,673,693,713,734,754,773,794,813,834,853,874,894,913,933,954,974,993,1013,1033,1054,1073,1093,1113,1134,1155,1173,1194,1213,1234,1253,1274,1293],"xSR":741.5,"ySR":573.95,"xT1":424.9,"yT1":0,"xT2":1058.1,"yT2":0,"toosoon":0,"cond_shown":"Incongruent","ratio_trial":200,"L_num":9,"L_den":15,"R_num":8,"R_den":10,"correct_side":2,"subjID":"LizethLopezLizcano14","gender":"1","school":"6","age":"11                                           b                                                                                                                                                                                    11                                                                      "},{"start_time":1551900032447,"click_time":1551900033742,"finger_time":1551900033363,"fix_duration":803.9395551530827,"trial":21,"RT":916,"MT":379,"sideResp":1,"stimulus":[],"xmouse":[790,790,790,790,790,790,790,790,790,790,790,790,790,790,790,790,790,790,790,792,793,793,793,793,793,793,793,793,793,793,793,793,793,793,793,793,793,793,793,793,793,793,793,793,793,787,772,748,677,640,621,607,599,593,588,584,581,575,570,561,553,544,538,528,522],"ymouse":[610,610,610,610,610,610,610,610,610,610,610,610,610,610,610,610,610,610,610,609,608,608,608,608,608,608,608,608,608,608,608,608,608,608,608,608,608,608,608,608,608,608,608,608,600,565,509,445,300,229,183,146,121,97,84,75,72,66,64,61,61,61,61,62,63],"timestamp_mouse":[15,36,54,76,94,114,135,154,174,194,215,235,255,274,294,315,334,354,375,394,414,435,455,474,494,515,534,555,575,595,614,634,655,674,695,714,735,755,775,794,815,834,855,874,894,916,935,955,974,994,1014,1035,1054,1074,1095,1114,1134,1155,1174,1195,1214,1234,1254,1274,1295],"xSR":741.5,"ySR":573.95,"xT1":424.9,"yT1":0,"xT2":1058.1,"yT2":0,"toosoon":0,"cond_shown":"Congruent","ratio_trial":200,"L_num":9,"L_den":20,"R_num":4,"R_den":16,"correct_side":1,"subjID":"LizethLopezLizcano14","gender":"1","school":"6","age":"11                                           b                                                                                                                                                                                    11                                                                      "},{"start_time":1551900035095,"click_time":1551900036161,"finger_time":1551900035742,"fix_duration":592.183654674342,"trial":22,"RT":647,"MT":419,"sideResp":2,"stimulus":[],"xmouse":[787,787,787,787,787,787,787,787,787,787,787,787,787,787,787,787,787,787,787,787,787,787,788,788,788,788,789,790,791,793,796,818,843,864,896,942,1047,1125,1186,1224,1252,1259,1261,1261,1261,1259,1242,1220,1199,1183,1170,1164,1160,1156],"ymouse":[655,655,655,655,655,655,655,655,655,655,655,655,655,655,655,655,655,655,655,655,655,655,656,656,656,656,655,654,653,651,648,631,614,602,583,544,430,346,273,226,181,159,142,122,116,113,98,84,72,66,65,65,66,67],"timestamp_mouse":[15,40,47,66,87,106,126,146,167,187,206,227,247,267,286,306,326,348,367,387,406,426,446,468,486,506,526,546,566,587,606,626,647,666,687,707,727,747,766,787,807,826,846,867,886,906,926,948,968,988,1008,1026,1046,1066],"xSR":741.5,"ySR":573.95,"xT1":424.9,"yT1":0,"xT2":1058.1,"yT2":0,"toosoon":0,"cond_shown":"Incongruent","ratio_trial":300,"L_num":13,"L_den":26,"R_num":12,"R_den":15,"correct_side":2,"subjID":"LizethLopezLizcano14","gender":"1","school":"6","age":"11                                           b                                                                                                                                                                                    11                                                                      "},{"start_time":1551900038614,"click_time":1551900039902,"finger_time":1551900039381,"fix_duration":1390.377939748053,"trial":23,"RT":767,"MT":521,"sideResp":1,"stimulus":[],"xmouse":[763,763,763,763,763,763,763,763,763,763,763,763,763,763,763,763,763,763,763,763,763,763,763,763,763,763,763,763,763,763,763,763,763,763,763,761,757,742,730,715,688,676,672,660,627,602,582,577,577,577,569,557,543,528,503,496,486,469,443,435,436,440,446,463,521],"ymouse":[639,639,639,639,639,639,639,639,639,639,639,639,639,639,639,639,639,639,639,639,639,639,639,639,639,639,639,639,639,639,639,639,639,639,639,640,640,640,640,640,640,640,638,624,542,485,439,407,391,339,301,263,233,208,178,168,161,152,143,139,136,132,125,113,80],"timestamp_mouse":[13,34,47,68,87,107,127,147,167,187,208,229,248,269,287,307,328,347,367,387,408,427,449,467,487,507,527,547,567,588,607,627,647,667,688,707,727,749,767,788,808,828,847,868,887,907,927,948,967,987,1007,1027,1048,1068,1088,1107,1127,1148,1169,1188,1207,1228,1248,1267,1288],"xSR":741.5,"ySR":573.95,"xT1":424.9,"yT1":0,"xT2":1058.1,"yT2":0,"toosoon":0,"cond_shown":"Congruent","ratio_trial":300,"L_num":18,"L_den":20,"R_num":9,"R_den":15,"correct_side":1,"subjID":"LizethLopezLizcano14","gender":"1","school":"6","age":"11                                           b                                                                                                                                                                                    11                                                                      "},{"start_time":1551900043314,"click_time":1551900044421,"finger_time":1551900044281,"fix_duration":250,"trial":24,"RT":967,"MT":140,"sideResp":1,"stimulus":[],"xmouse":[792,792,792,792,792,792,792,792,792,792,792,792,792,792,792,792,792,792,792,792,792,792,792,792,792,792,792,792,792,792,792,792,792,792,792,792,792,792,792,792,792,792,792,792,792,790,786,780,769,713,664,610,563,550,533,521],"ymouse":[637,637,637,637,637,637,637,637,637,637,637,637,637,637,637,637,637,637,637,637,637,637,637,637,637,637,637,637,637,637,637,637,637,637,637,637,637,637,637,637,637,637,637,637,637,636,623,595,539,355,244,151,81,64,41,30],"timestamp_mouse":[11,37,48,69,87,107,129,148,167,187,207,228,247,267,289,307,327,347,367,387,407,429,447,468,488,507,527,547,567,588,607,629,648,667,688,707,727,747,767,787,807,827,848,867,889,907,928,947,967,988,1007,1027,1047,1067,1088,1107],"xSR":741.5,"ySR":573.95,"xT1":424.9,"yT1":0,"xT2":1058.1,"yT2":0,"toosoon":0,"cond_shown":"Incongruent","ratio_trial":200,"L_num":7,"L_den":10,"R_num":8,"R_den":16,"correct_side":1,"subjID":"LizethLopezLizcano14","gender":"1","school":"6","age":"11                                           b                                                                                                                                                                                    11                                                                      "},{"start_time":1551900045864,"click_time":1551900047702,"finger_time":1551900047302,"fix_duration":461.94088793419184,"trial":25,"RT":1438,"MT":400,"sideResp":2,"stimulus":[],"xmouse":[799,799,799,799,799,799,799,799,799,799,799,799,799,799,799,799,799,799,799,799,799,799,799,799,799,799,799,799,799,799,799,799,799,799,799,798,797,795,794,794,794,793,793,792,792,792,792,792,792,792,792,792,792,792,792,792,792,792,792,792,792,792,792,792,792,792,792,792,794,802,818,899,988,1080,1156,1209,1214,1215,1220,1225,1230,1234,1234,1225,1215,1213,1211,1207,1201,1194,1179,1116],"ymouse":[625,625,625,625,625,625,625,625,625,625,625,625,625,625,625,625,625,625,625,625,625,625,625,625,625,625,625,625,625,625,625,625,625,625,625,625,625,624,624,624,624,624,624,624,624,624,624,624,624,624,624,624,624,624,624,624,624,624,624,624,624,624,624,624,624,624,623,623,622,618,611,574,529,467,397,341,334,330,310,286,263,204,152,114,91,86,83,81,80,78,73,55],"timestamp_mouse":[18,37,58,78,97,118,137,157,177,197,217,237,257,277,297,317,337,357,378,397,418,438,457,478,498,519,537,557,578,598,617,637,657,678,698,717,738,757,779,797,817,837,857,877,898,918,938,959,977,997,1018,1037,1058,1077,1098,1117,1138,1159,1178,1198,1217,1239,1257,1278,1298,1318,1337,1357,1378,1398,1418,1438,1457,1477,1498,1519,1538,1557,1578,1597,1617,1637,1657,1677,1698,1718,1738,1757,1777,1797,1817,1838],"xSR":741.5,"ySR":573.95,"xT1":424.9,"yT1":0,"xT2":1058.1,"yT2":0,"toosoon":0,"cond_shown":"Incongruent","ratio_trial":300,"L_num":4,"L_den":20,"R_num":2,"R_den":4,"correct_side":2,"subjID":"LizethLopezLizcano14","gender":"1","school":"6","age":"11                                           b                                                                                                                                                                                    11                                                                      "},{"start_time":1551900049620,"click_time":1551900050502,"finger_time":1551900050281,"fix_duration":996.110554778997,"trial":26,"RT":661,"MT":221,"sideResp":1,"stimulus":[],"xmouse":[804,804,804,804,804,804,804,804,804,804,804,804,804,804,804,804,804,804,804,804,804,804,804,804,804,804,804,804,804,804,804,799,774,692,580,431,419,420,425,429,432,436,442,450,470],"ymouse":[646,646,646,646,646,646,646,646,646,646,646,646,646,646,646,646,646,646,646,646,646,646,646,646,646,646,646,646,646,646,646,644,609,517,403,234,202,185,176,159,149,139,126,114,95],"timestamp_mouse":[9,33,41,62,83,101,122,141,161,181,201,222,241,261,282,301,321,343,363,381,402,422,442,461,481,501,522,541,563,582,602,622,641,661,682,701,721,741,761,781,801,821,841,861,881],"xSR":741.5,"ySR":573.95,"xT1":424.9,"yT1":0,"xT2":1058.1,"yT2":0,"toosoon":0,"cond_shown":"Incongruent","ratio_trial":300,"L_num":8,"L_den":10,"R_num":9,"R_den":18,"correct_side":1,"subjID":"LizethLopezLizcano14","gender":"1","school":"6","age":"11                                           b                                                                                                                                                                                    11                                                                      "},{"start_time":1551900053372,"click_time":1551900054562,"finger_time":1551900054302,"fix_duration":988.4893831773501,"trial":27,"RT":930,"MT":260,"sideResp":2,"stimulus":[],"xmouse":[792,792,792,792,792,792,792,792,792,792,792,792,792,792,792,792,792,792,792,792,792,792,792,792,792,792,792,792,792,792,792,793,793,793,793,793,793,793,793,793,793,793,793,794,798,824,920,978,1034,1080,1104,1119,1145,1157,1161,1166,1168,1168,1163,1155],"ymouse":[656,656,656,656,656,656,656,656,656,656,656,656,656,656,656,656,656,655,655,655,655,655,655,655,655,655,655,655,655,655,654,653,653,653,653,653,653,653,652,652,652,652,652,651,651,633,566,522,477,427,393,373,309,260,229,202,179,130,103,79],"timestamp_mouse":[11,31,50,69,89,109,130,150,169,191,210,229,250,269,290,310,330,349,369,390,410,430,450,470,489,509,529,549,569,589,609,630,649,671,689,709,729,750,770,790,809,829,850,870,889,910,930,949,970,990,1010,1030,1049,1069,1089,1111,1129,1150,1169,1190],"xSR":741.5,"ySR":573.95,"xT1":424.9,"yT1":0,"xT2":1058.1,"yT2":0,"toosoon":0,"cond_shown":"Incongruent","ratio_trial":100,"L_num":17,"L_den":30,"R_num":10,"R_den":15,"correct_side":2,"subjID":"LizethLopezLizcano14","gender":"1","school":"6","age":"11                                           b                                                                                                                                                                                    11                                                                      "},{"start_time":1551900056401,"click_time":1551900057602,"finger_time":1551900056901,"fix_duration":978.0678109066441,"trial":28,"RT":500,"MT":701,"sideResp":2,"stimulus":[],"xmouse":[802,802,802,802,802,802,802,802,802,802,802,802,802,802,802,802,802,802,802,802,802,802,798,792,785,776,762,760,760,760,759,759,759,759,759,759,759,759,759,759,759,759,759,763,768,781,789,802,809,844,891,921,958,997,1029,1054,1071,1075,1078,1078,1077],"ymouse":[636,636,636,636,636,636,636,636,636,636,636,636,636,636,636,636,636,636,636,636,635,625,610,595,581,569,556,555,555,555,555,555,555,555,555,555,555,555,555,555,555,555,556,561,569,590,599,606,606,601,582,553,489,412,337,268,186,162,139,124,94],"timestamp_mouse":[8,34,41,61,80,101,120,140,161,180,200,222,241,260,280,300,321,340,361,381,401,420,441,460,481,500,520,541,560,580,600,621,640,660,682,701,721,740,761,780,800,820,840,860,881,901,920,942,961,981,1002,1020,1040,1060,1081,1100,1120,1140,1160,1181,1201],"xSR":741.5,"ySR":573.95,"xT1":424.9,"yT1":0,"xT2":1058.1,"yT2":0,"toosoon":0,"cond_shown":"Congruent","ratio_trial":200,"L_num":3,"L_den":12,"R_num":9,"R_den":20,"correct_side":2,"subjID":"LizethLopezLizcano14","gender":"1","school":"6","age":"11                                           b                                                                                                                                                                                    11                                                                      "},{"start_time":1551900059411,"click_time":1551900060322,"finger_time":1551900060022,"fix_duration":1127.9654159683896,"trial":29,"RT":611,"MT":300,"sideResp":1,"stimulus":[],"xmouse":[779,779,779,779,779,779,779,779,779,779,779,779,779,779,779,779,779,779,779,779,779,779,779,779,779,779,778,776,769,757,699,654,616,599,592,590,587,585,578,569,560,560,560,557,545,511],"ymouse":[645,645,645,645,645,645,645,645,645,645,645,645,645,645,645,645,645,645,645,645,645,645,645,645,645,645,645,643,631,613,515,440,374,342,307,282,250,221,180,150,119,115,112,105,87,51],"timestamp_mouse":[10,38,51,70,90,110,130,152,171,190,211,230,250,272,290,312,331,350,370,390,412,430,450,471,491,510,530,551,571,591,611,631,651,670,691,710,730,751,771,790,811,830,851,870,890,911],"xSR":741.5,"ySR":573.95,"xT1":424.9,"yT1":0,"xT2":1058.1,"yT2":0,"toosoon":0,"cond_shown":"Incongruent","ratio_trial":200,"L_num":7,"L_den":10,"R_num":14,"R_den":28,"correct_side":1,"subjID":"LizethLopezLizcano14","gender":"1","school":"6","age":"11                                           b                                                                                                                                                                                    11                                                                      "},{"start_time":1551900063588,"click_time":1551900066882,"finger_time":1551900066321,"fix_duration":644.6819336577923,"trial":30,"RT":2733,"MT":561,"sideResp":1,"stimulus":[],"xmouse":[813,813,813,813,813,813,813,813,813,813,813,813,813,813,813,813,813,813,813,813,813,813,813,813,813,813,813,813,813,813,813,813,813,813,813,813,813,813,813,813,813,813,813,813,813,813,813,813,813,813,813,813,813,813,813,813,813,813,813,813,813,813,813,813,813,813,813,813,813,813,813,813,813,813,813,813,813,813,813,813,813,813,813,813,813,813,813,813,813,813,813,813,813,813,813,813,813,813,813,813,813,813,813,813,813,813,813,813,813,813,813,813,813,813,813,813,813,813,813,813,813,813,813,813,813,813,813,813,813,813,813,813,813,813,813,815,814,806,791,779,771,766,764,764,763,763,762,760,754,746,732,677,642,614,587,544,523,503,478,470,469,471,473,476,480],"ymouse":[619,619,619,619,619,619,619,619,619,619,619,619,619,619,619,619,619,619,619,619,619,619,619,619,619,619,619,619,619,619,619,619,619,619,619,619,619,620,620,620,620,620,620,620,620,620,620,620,620,620,620,620,620,620,620,620,620,620,620,620,620,620,620,620,620,620,620,620,620,620,620,620,620,620,620,620,620,620,620,620,620,620,620,620,620,620,620,620,620,620,620,620,620,620,620,620,620,620,620,620,620,620,620,620,620,620,620,620,620,620,620,620,620,620,620,620,620,620,620,620,620,620,620,620,620,620,620,620,620,620,620,620,620,620,616,611,567,541,508,488,473,463,461,461,459,458,455,452,444,433,413,349,314,281,251,205,181,152,122,111,109,106,104,101,99],"timestamp_mouse":[14,34,54,74,94,114,135,153,174,193,213,235,253,274,293,313,335,354,373,394,413,435,454,473,494,515,533,554,573,594,615,633,654,674,693,713,733,753,775,793,814,833,853,873,894,915,934,954,973,994,1013,1033,1053,1073,1093,1114,1133,1153,1173,1194,1214,1233,1254,1274,1293,1313,1334,1353,1373,1394,1414,1433,1454,1473,1493,1514,1534,1555,1573,1594,1614,1634,1654,1673,1694,1713,1733,1754,1774,1793,1814,1833,1854,1875,1893,1913,1933,1953,1974,1993,2013,2033,2053,2073,2093,2113,2134,2153,2174,2194,2213,2233,2253,2275,2293,2314,2334,2354,2373,2393,2413,2433,2453,2473,2493,2514,2535,2554,2573,2594,2613,2633,2654,2673,2694,2713,2733,2753,2773,2793,2813,2833,2854,2873,2893,2913,2933,2954,2974,2993,3013,3033,3054,3073,3093,3114,3133,3153,3173,3194,3213,3234,3254,3273,3294],"xSR":741.5,"ySR":573.95,"xT1":424.9,"yT1":0,"xT2":1058.1,"yT2":0,"toosoon":0,"cond_shown":"Incongruent","ratio_trial":100,"L_num":8,"L_den":16,"R_num":6,"R_den":10,"correct_side":2,"subjID":"LizethLopezLizcano14","gender":"1","school":"6","age":"11                                           b                                                                                                                                                                                    11                                                                      "},{"start_time":1551900070632,"click_time":1551900071761,"finger_time":1551900071222,"fix_duration":750.3900647842196,"trial":31,"RT":590,"MT":539,"sideResp":2,"stimulus":[],"xmouse":[832,832,832,832,832,832,832,832,832,832,832,832,832,832,832,832,832,832,832,832,832,832,832,832,832,832,832,832,838,861,872,885,897,907,928,940,956,972,987,992,999,1002,1007,1011,1014,1014,1014,1014,1014,1014,1016,1025,1038,1046,1053,1057,1071],"ymouse":[619,619,619,619,619,619,619,619,619,619,619,619,619,619,619,619,619,619,619,619,619,619,619,619,619,619,618,616,608,583,566,539,511,486,438,409,369,302,231,211,188,161,136,114,88,88,88,88,88,88,87,88,90,91,91,90,82],"timestamp_mouse":[9,34,50,70,89,110,130,149,170,190,209,229,249,271,289,311,329,349,370,390,410,430,450,469,490,510,530,549,569,590,609,630,649,669,690,709,731,749,770,789,809,829,849,869,890,910,930,950,969,989,1009,1029,1050,1069,1089,1109,1129],"xSR":741.5,"ySR":573.95,"xT1":424.9,"yT1":0,"xT2":1058.1,"yT2":0,"toosoon":0,"cond_shown":"Incongruent","ratio_trial":200,"L_num":6,"L_den":20,"R_num":3,"R_den":6,"correct_side":2,"subjID":"LizethLopezLizcano14","gender":"1","school":"6","age":"11                                           b                                                                                                                                                                                    11                                                                      "},{"start_time":1551900077888,"click_time":1551900079022,"finger_time":1551900078701,"fix_duration":586.4133294011549,"trial":32,"RT":813,"MT":321,"sideResp":2,"stimulus":[],"xmouse":[772,772,772,772,772,772,772,772,772,772,772,772,772,772,772,772,772,772,772,772,772,773,773,773,773,773,773,773,774,774,774,775,775,777,778,780,790,802,817,832,854,869,892,938,963,994,1043,1066,1087,1110,1139,1150,1159,1166,1167,1165,1149],"ymouse":[653,653,653,653,653,653,653,653,653,653,653,653,653,653,653,653,653,653,653,653,652,651,651,651,651,651,650,650,649,649,648,647,647,645,643,641,625,612,594,577,553,543,524,489,466,435,378,351,324,297,259,237,215,181,154,120,58],"timestamp_mouse":[14,35,55,73,94,114,133,154,173,194,215,233,254,274,293,314,333,354,373,393,415,435,453,474,494,513,533,555,573,594,614,633,654,675,694,713,733,754,773,794,813,833,854,873,894,913,933,953,973,995,1015,1033,1053,1073,1093,1114,1134],"xSR":741.5,"ySR":573.95,"xT1":424.9,"yT1":0,"xT2":1058.1,"yT2":0,"toosoon":0,"cond_shown":"Incongruent","ratio_trial":300,"L_num":4,"L_den":20,"R_num":2,"R_den":4,"correct_side":2,"subjID":"LizethLopezLizcano14","gender":"1","school":"6","age":"11                                           b                                                                                                                                                                                    11                                                                      "},{"start_time":1551900081282,"click_time":1551900081961,"finger_time":1551900081821,"fix_duration":1339.5969843404935,"trial":33,"RT":539,"MT":140,"sideResp":2,"stimulus":[],"xmouse":[800,800,800,800,800,800,800,800,800,800,800,800,800,800,800,800,800,800,800,802,804,808,810,813,822,832,860,887,925,961,1041,1074,1102,1127],"ymouse":[640,640,640,640,640,640,640,640,640,640,640,640,640,640,640,640,640,640,640,637,636,631,628,624,611,598,553,512,458,399,250,175,110,53],"timestamp_mouse":[19,39,60,80,99,119,139,159,179,199,220,239,260,280,299,319,340,360,379,399,419,440,459,480,499,520,539,559,579,599,620,639,659,679],"xSR":741.5,"ySR":573.95,"xT1":424.9,"yT1":0,"xT2":1058.1,"yT2":0,"toosoon":0,"cond_shown":"Congruent","ratio_trial":100,"L_num":7,"L_den":14,"R_num":15,"R_den":25,"correct_side":2,"subjID":"LizethLopezLizcano14","gender":"1","school":"6","age":"11                                           b                                                                                                                                                                                    11                                                                      "},{"start_time":1551900083946,"click_time":1551900084941,"finger_time":1551900084482,"fix_duration":842.7829849788194,"trial":34,"RT":536,"MT":459,"sideResp":2,"stimulus":[],"xmouse":[785,785,785,785,785,785,785,785,785,785,785,785,786,790,793,797,802,805,810,811,812,813,814,817,820,824,830,838,855,863,881,901,916,938,947,953,960,967,987,991,999,1003,1013,1016,1017,1020,1025,1042,1054,1071],"ymouse":[621,621,621,621,621,621,621,621,621,621,621,621,621,618,614,611,607,604,596,594,593,591,591,588,583,579,571,561,536,521,484,436,391,324,300,280,259,238,185,179,164,154,125,118,115,111,105,91,84,76],"timestamp_mouse":[15,38,56,76,95,115,135,156,175,196,216,235,256,276,296,316,335,355,375,396,415,436,455,476,496,515,536,555,575,596,616,635,656,675,696,715,736,755,775,796,815,835,855,875,896,916,935,955,975,995],"xSR":741.5,"ySR":573.95,"xT1":424.9,"yT1":0,"xT2":1058.1,"yT2":0,"toosoon":0,"cond_shown":"Incongruent","ratio_trial":100,"L_num":3,"L_den":5,"R_num":8,"R_den":16,"correct_side":1,"subjID":"LizethLopezLizcano14","gender":"1","school":"6","age":"11                                           b                                                                                                                                                                                    11                                                                      "},{"start_time":1551900086354,"click_time":1551900088541,"finger_time":1551900088041,"fix_duration":250,"trial":35,"RT":1687,"MT":500,"sideResp":2,"stimulus":[],"xmouse":[757,757,757,757,757,757,757,757,757,757,757,757,757,757,757,757,757,757,757,757,757,757,757,757,757,757,757,757,757,757,757,757,757,757,757,757,758,758,758,758,758,758,761,761,761,762,762,763,763,763,764,765,766,766,766,766,766,766,766,766,766,766,766,766,766,766,766,766,766,766,766,766,766,766,767,767,767,767,768,768,768,769,769,824,869,918,975,1031,1113,1154,1215,1257,1300,1354,1370,1381,1386,1387,1384,1382,1378,1363,1285,1255,1184,1153,1136,1120,1118,1116],"ymouse":[616,616,616,616,616,616,616,616,616,616,616,616,616,616,616,616,616,616,616,616,616,616,616,616,616,616,616,616,616,616,616,616,616,616,616,616,616,616,616,616,616,616,613,613,613,612,611,610,610,609,603,596,591,590,590,590,590,590,590,590,590,590,590,590,590,590,590,590,590,590,590,590,590,590,589,589,589,589,589,589,589,588,587,575,568,561,553,542,510,483,420,360,297,173,138,113,94,67,61,59,57,50,19,9,0,0,0,0,0,1],"timestamp_mouse":[10,31,48,67,87,108,128,147,167,187,208,227,248,268,288,308,327,348,368,388,408,428,447,467,487,507,527,548,568,587,607,627,648,668,687,707,728,748,767,788,808,828,847,867,887,908,928,947,967,988,1008,1028,1047,1067,1088,1107,1127,1148,1167,1188,1207,1227,1247,1268,1287,1309,1327,1348,1367,1388,1408,1428,1447,1467,1487,1507,1527,1548,1567,1587,1607,1627,1647,1667,1687,1707,1728,1747,1768,1787,1807,1827,1848,1868,1888,1908,1927,1948,1967,1988,2008,2027,2047,2067,2087,2107,2128,2147,2167,2187],"xSR":741.5,"ySR":573.95,"xT1":424.9,"yT1":0,"xT2":1058.1,"yT2":0,"toosoon":0,"cond_shown":"Incongruent","ratio_trial":100,"L_num":6,"L_den":10,"R_num":7,"R_den":14,"correct_side":1,"subjID":"LizethLopezLizcano14","gender":"1","school":"6","age":"11                                           b                                                                                                                                                                                    11                                                                      "},{"start_time":1551900090375,"click_time":1551900092081,"finger_time":1551900091762,"fix_duration":813.2493522040015,"trial":36,"RT":1387,"MT":319,"sideResp":1,"stimulus":[],"xmouse":[767,767,767,767,767,767,767,767,767,767,767,767,767,767,767,767,767,767,767,767,767,767,767,767,767,767,767,767,767,767,767,767,767,767,767,767,767,767,767,767,767,767,767,767,767,767,767,767,767,767,767,767,767,767,767,767,767,767,767,767,767,767,767,767,767,767,767,765,753,735,728,715,706,703,697,687,668,621,616,615,610,601,573,554,536,524],"ymouse":[625,625,625,625,625,625,625,625,625,625,625,625,625,625,625,625,625,625,625,625,625,625,625,625,625,624,624,624,624,624,624,624,624,624,624,624,624,624,624,624,624,624,624,624,624,624,624,624,624,624,624,624,624,624,624,624,624,624,624,624,624,624,624,624,624,624,623,619,605,583,569,521,491,466,422,354,283,161,140,136,117,97,63,44,28,16],"timestamp_mouse":[10,42,47,68,87,107,127,146,166,187,207,226,246,266,286,307,326,346,366,387,406,426,446,467,487,507,527,546,566,586,606,626,646,667,688,707,726,747,767,787,806,827,846,868,886,907,926,948,967,987,1006,1026,1046,1067,1086,1106,1127,1146,1167,1187,1207,1226,1247,1268,1287,1306,1327,1346,1367,1387,1407,1426,1446,1466,1486,1506,1526,1546,1566,1587,1606,1627,1647,1668,1687,1706],"xSR":741.5,"ySR":573.95,"xT1":424.9,"yT1":0,"xT2":1058.1,"yT2":0,"toosoon":0,"cond_shown":"Congruent","ratio_trial":100,"L_num":3,"L_den":6,"R_num":2,"R_den":5,"correct_side":1,"subjID":"LizethLopezLizcano14","gender":"1","school":"6","age":"11                                           b                                                                                                                                                                                    11                                                                      "},{"start_time":1551900094825,"click_time":1551900095762,"finger_time":1551900095562,"fix_duration":1422.3159841475754,"trial":37,"RT":737,"MT":200,"sideResp":1,"stimulus":[],"xmouse":[789,789,789,789,789,789,789,789,789,789,789,789,789,789,789,789,789,789,789,789,789,789,789,789,789,789,789,789,789,789,786,782,780,768,760,746,740,707,679,626,598,576,571,567,558,542,516],"ymouse":[629,629,629,629,629,629,629,629,629,629,629,629,629,629,629,629,629,629,629,629,629,629,629,629,629,629,629,629,629,629,629,629,629,620,611,585,574,514,462,325,248,185,162,143,128,106,78],"timestamp_mouse":[31,36,57,76,96,116,136,156,178,196,216,236,257,277,296,316,337,357,377,397,416,437,457,476,496,517,536,556,576,597,617,637,656,677,696,716,737,756,776,797,816,836,856,877,896,916,937],"xSR":741.5,"ySR":573.95,"xT1":424.9,"yT1":0,"xT2":1058.1,"yT2":0,"toosoon":0,"cond_shown":"Incongruent","ratio_trial":100,"L_num":3,"L_den":9,"R_num":7,"R_den":30,"correct_side":1,"subjID":"LizethLopezLizcano14","gender":"1","school":"6","age":"11                                           b                                                                                                                                                                                    11                                                                      "},{"start_time":1551900097389,"click_time":1551900098982,"finger_time":1551900098361,"fix_duration":626.1080633931206,"trial":38,"RT":972,"MT":621,"sideResp":2,"stimulus":[],"xmouse":[806,806,806,806,806,806,806,806,806,806,806,806,806,806,806,806,806,806,806,806,806,806,804,801,795,781,777,774,770,769,767,763,763,763,763,763,763,763,763,763,763,763,763,763,767,774,799,821,879,918,965,976,985,992,993,1000,1003,1003,998,994,994,991,987,983,978,978,993,1005,1017,1024,1034,1038,1039,1042,1045,1050,1054,1055,1058,1059],"ymouse":[654,654,654,654,654,654,654,654,654,654,654,654,654,654,654,654,654,654,654,654,654,654,654,654,654,654,654,654,654,654,654,654,654,654,654,654,654,654,654,654,654,654,654,654,653,653,646,632,556,467,255,172,96,34,0,0,0,0,0,0,0,2,11,25,41,55,79,90,92,92,92,92,92,92,91,88,85,84,82,81],"timestamp_mouse":[13,32,53,72,92,112,134,153,172,193,213,232,252,272,293,313,332,352,372,393,412,432,452,473,493,512,532,552,572,592,613,632,653,672,692,712,732,752,773,793,812,832,852,873,892,912,932,952,972,993,1013,1032,1052,1072,1093,1113,1132,1152,1173,1193,1212,1232,1252,1272,1293,1312,1332,1353,1372,1393,1412,1432,1452,1472,1494,1512,1533,1553,1572,1593],"xSR":741.5,"ySR":573.95,"xT1":424.9,"yT1":0,"xT2":1058.1,"yT2":0,"toosoon":0,"cond_shown":"Incongruent","ratio_trial":100,"L_num":10,"L_den":25,"R_num":8,"R_den":16,"correct_side":2,"subjID":"LizethLopezLizcano14","gender":"1","school":"6","age":"11                                           b                                                                                                                                                                                    11                                                                      "},{"start_time":1551900102784,"click_time":1551900104101,"finger_time":1551900103521,"fix_duration":382.9976079091261,"trial":39,"RT":737,"MT":580,"sideResp":2,"stimulus":[],"xmouse":[775,775,775,775,775,775,775,775,775,775,775,775,775,775,774,774,774,774,774,774,774,775,776,776,776,776,776,776,776,776,776,781,787,793,802,837,855,876,901,913,933,940,949,955,960,963,973,979,983,986,989,996,1001,1010,1028,1046,1081,1101,1116,1129,1138,1140,1142,1144,1145,1145],"ymouse":[637,637,637,637,637,637,637,637,637,637,637,637,637,637,637,637,637,637,637,637,637,637,636,636,636,636,636,636,636,636,636,634,632,631,628,615,606,594,572,557,519,494,467,442,417,395,358,336,318,291,272,239,224,206,181,162,140,132,126,123,116,114,112,108,104,97],"timestamp_mouse":[35,38,58,78,97,117,137,157,177,198,218,238,258,277,297,317,337,357,377,397,417,437,457,479,497,517,537,557,577,598,618,638,657,678,697,717,737,758,777,798,818,838,857,877,897,918,938,957,979,997,1017,1037,1058,1077,1098,1117,1137,1157,1177,1198,1217,1237,1258,1277,1297,1317],"xSR":741.5,"ySR":573.95,"xT1":424.9,"yT1":0,"xT2":1058.1,"yT2":0,"toosoon":0,"cond_shown":"Incongruent","ratio_trial":300,"L_num":13,"L_den":26,"R_num":12,"R_den":15,"correct_side":2,"subjID":"LizethLopezLizcano14","gender":"1","school":"6","age":"11                                           b                                                                                                                                                                                    11                                                                      "},{"start_time":1551900108613,"click_time":1551900110021,"finger_time":1551900109402,"fix_duration":250,"trial":40,"RT":789,"MT":619,"sideResp":2,"stimulus":[],"xmouse":[765,765,765,765,765,765,765,765,765,765,765,765,765,765,765,765,765,765,765,765,765,765,765,765,765,765,765,765,765,765,765,765,765,765,765,769,775,789,807,884,925,964,998,1002,1003,1018,1021,1021,1009,996,979,977,977,979,988,1024,1037,1075,1164,1218,1224,1226,1227,1227,1227,1227,1227,1204,1185,1168,1146],"ymouse":[632,632,632,632,632,632,632,632,632,632,632,632,632,632,632,632,632,632,632,632,632,632,632,632,632,632,632,632,632,632,632,632,632,632,632,632,628,618,610,573,548,516,484,480,478,438,392,373,294,252,198,184,175,166,154,124,117,100,76,60,57,56,54,54,54,53,50,38,29,22,13],"timestamp_mouse":[11,40,49,70,88,109,128,148,168,188,209,228,248,269,288,308,328,349,369,388,408,429,448,469,488,508,530,549,569,588,609,628,649,668,688,708,728,749,769,789,808,828,849,870,888,908,928,950,968,988,1008,1030,1049,1068,1088,1108,1128,1148,1169,1188,1208,1229,1248,1268,1288,1309,1329,1349,1369,1388,1408],"xSR":741.5,"ySR":573.95,"xT1":424.9,"yT1":0,"xT2":1058.1,"yT2":0,"toosoon":0,"cond_shown":"Congruent","ratio_trial":100,"L_num":3,"L_den":20,"R_num":4,"R_den":16,"correct_side":2,"subjID":"LizethLopezLizcano14","gender":"1","school":"6","age":"11                                           b                                                                                                                                                                                    11                                                                      "},{"start_time":1551900111707,"click_time":1551900113622,"finger_time":1551900112101,"fix_duration":446.1268276397585,"trial":41,"RT":394,"MT":1521,"sideResp":1,"stimulus":[],"xmouse":[799,799,799,799,799,799,799,799,799,799,799,799,799,800,805,811,815,824,833,845,868,876,882,886,888,888,888,888,888,888,888,888,888,888,888,884,875,860,849,835,833,830,827,825,819,817,814,811,809,805,802,801,800,800,800,800,800,800,800,800,800,800,799,799,799,799,799,799,799,799,797,797,797,797,797,795,793,789,786,764,746,691,630,551,458,367,367,368,370,371,375,379,382,396,407,426],"ymouse":[652,652,652,652,652,652,652,652,652,652,652,652,652,652,644,633,625,613,602,585,549,535,522,511,504,502,502,502,502,502,502,502,502,502,502,506,515,526,536,549,552,558,563,567,577,581,588,597,606,621,625,629,631,632,632,632,632,632,632,632,632,632,632,632,632,632,632,632,632,632,632,632,632,632,632,632,630,629,627,600,575,510,435,328,203,69,63,61,59,58,54,52,50,42,37,31],"timestamp_mouse":[18,34,55,75,95,114,134,154,174,195,214,234,254,274,294,315,334,355,375,394,414,434,455,475,494,515,534,554,575,594,614,635,654,674,694,715,734,755,775,795,814,834,854,874,894,914,935,954,974,994,1015,1035,1055,1074,1094,1114,1134,1154,1174,1194,1216,1235,1255,1274,1294,1315,1335,1354,1374,1395,1414,1434,1455,1475,1494,1515,1535,1554,1574,1594,1614,1634,1654,1675,1694,1715,1735,1755,1774,1794,1814,1834,1854,1875,1894,1915],"xSR":741.5,"ySR":573.95,"xT1":424.9,"yT1":0,"xT2":1058.1,"yT2":0,"toosoon":0,"cond_shown":"Incongruent","ratio_trial":100,"L_num":10,"L_den":25,"R_num":8,"R_den":16,"correct_side":2,"subjID":"LizethLopezLizcano14","gender":"1","school":"6","age":"11                                           b                                                                                                                                                                                    11                                                                      "},{"start_time":1551900115952,"click_time":1551900117961,"finger_time":1551900117482,"fix_duration":1428.8598767285603,"trial":42,"RT":1530,"MT":479,"sideResp":2,"stimulus":[],"xmouse":[806,806,806,806,806,806,806,806,806,806,806,806,806,806,806,806,806,806,806,806,806,806,806,806,806,806,806,806,806,806,806,806,806,806,806,806,806,806,806,806,806,806,806,805,805,805,805,805,805,805,805,805,805,805,805,805,805,805,805,805,805,805,805,805,805,805,805,805,805,805,805,805,805,804,811,830,858,918,935,946,955,959,965,972,978,984,986,987,998,1005,1014,1021,1041,1049,1056,1063,1073,1089,1093,1097,1098],"ymouse":[640,640,640,640,640,640,640,640,640,640,640,640,640,640,640,640,640,640,640,640,640,640,640,640,640,640,640,640,640,640,640,640,640,640,640,640,640,640,640,640,640,640,640,640,640,640,640,640,640,640,640,640,640,640,640,640,640,640,640,640,640,640,640,640,640,640,640,640,640,640,640,640,640,640,636,629,621,585,570,553,530,517,499,459,437,420,418,416,373,360,344,329,296,278,255,230,206,157,131,100,91],"timestamp_mouse":[20,38,50,69,90,109,129,150,169,189,210,229,250,269,290,310,329,350,369,389,409,431,449,469,490,509,529,551,569,590,609,629,649,669,690,709,729,749,770,790,809,830,851,869,890,909,930,949,969,990,1009,1029,1050,1069,1090,1111,1130,1149,1170,1189,1209,1229,1250,1269,1289,1309,1331,1349,1369,1390,1411,1430,1450,1469,1490,1510,1530,1550,1569,1591,1609,1630,1649,1670,1689,1709,1731,1749,1770,1789,1810,1831,1849,1870,1889,1910,1930,1949,1969,1990,2009],"xSR":741.5,"ySR":573.95,"xT1":424.9,"yT1":0,"xT2":1058.1,"yT2":0,"toosoon":0,"cond_shown":"Incongruent","ratio_trial":200,"L_num":3,"L_den":10,"R_num":1,"R_den":2,"correct_side":2,"subjID":"LizethLopezLizcano14","gender":"1","school":"6","age":"11                                           b                                                                                                                                                                                    11                                                                      "},{"start_time":1551900135622,"click_time":1551900137142,"finger_time":1551900136761,"fix_duration":1278.0436989156399,"trial":43,"RT":1139,"MT":381,"sideResp":1,"stimulus":[],"xmouse":[764,764,764,764,764,764,764,764,763,759,757,755,754,753,753,753,753,753,753,753,753,753,753,753,753,753,753,753,753,753,753,753,753,753,753,753,753,753,753,753,753,753,753,753,753,753,753,753,753,753,753,753,753,753,754,754,753,737,716,664,651,647,645,644,638,634,632,628,624,616,609,601,588,572,556,531,520],"ymouse":[626,626,626,626,626,626,626,626,628,633,637,641,643,644,645,645,645,645,645,645,645,645,645,645,645,645,645,645,645,645,645,645,645,645,645,645,645,645,645,645,645,645,645,645,645,645,645,645,645,645,645,645,645,643,637,628,609,557,504,392,367,357,351,345,314,293,278,259,246,217,201,184,166,148,132,107,96],"timestamp_mouse":[1,32,39,60,79,99,119,139,159,179,200,219,238,260,280,299,320,339,360,379,400,420,440,458,479,500,519,540,559,580,599,619,640,659,680,700,719,740,760,780,799,820,840,860,879,900,920,940,960,979,999,1019,1040,1059,1080,1100,1119,1139,1159,1179,1199,1220,1239,1259,1279,1299,1319,1340,1359,1379,1399,1419,1439,1459,1479,1500,1520],"xSR":741.5,"ySR":573.95,"xT1":424.9,"yT1":0,"xT2":1058.1,"yT2":0,"toosoon":0,"cond_shown":"Incongruent","ratio_trial":200,"L_num":4,"L_den":5,"R_num":6,"R_den":10,"correct_side":1,"subjID":"LizethLopezLizcano14","gender":"1","school":"6","age":"11                                           b                                                                                                                                                                                    11                                                                      "},{"start_time":1551900140902,"click_time":1551900142501,"finger_time":1551900141822,"fix_duration":900.4517696535871,"trial":44,"RT":920,"MT":679,"sideResp":1,"stimulus":[],"xmouse":[810,810,810,810,810,810,810,810,810,810,810,810,810,810,810,810,810,810,810,810,810,810,810,810,810,810,810,810,810,810,810,810,810,810,810,810,810,810,810,810,810,810,812,819,819,818,811,805,788,780,774,762,756,748,738,736,735,735,735,734,734,729,721,703,634,601,573,559,558,558,557,541,532,527,526,526,526,526,515],"ymouse":[630,630,630,630,630,630,630,630,630,630,630,630,630,630,630,630,630,630,630,630,630,630,630,630,630,630,630,630,630,630,630,630,630,630,630,630,630,630,630,628,628,623,619,585,556,528,504,484,452,435,418,391,369,349,308,293,283,279,276,275,275,270,255,235,177,153,137,131,130,130,130,122,115,105,87,80,72,66,46],"timestamp_mouse":[40,58,79,100,119,138,160,180,200,219,239,259,279,300,319,340,359,380,399,419,440,460,478,500,519,539,560,579,599,619,639,659,680,699,719,740,759,780,799,819,839,860,879,899,920,938,958,979,999,1018,1039,1059,1079,1099,1119,1140,1159,1180,1199,1219,1240,1259,1280,1299,1319,1340,1360,1379,1400,1419,1439,1459,1479,1499,1520,1540,1560,1580,1599],"xSR":741.5,"ySR":573.95,"xT1":424.9,"yT1":0,"xT2":1058.1,"yT2":0,"toosoon":0,"cond_shown":"Congruent","ratio_trial":200,"L_num":16,"L_den":20,"R_num":12,"R_den":20,"correct_side":1,"subjID":"LizethLopezLizcano14","gender":"1","school":"6","age":"11                                           b                                                                                                                                                                                    11                                                                      "},{"start_time":1551900150009,"click_time":1551900151701,"finger_time":1551900151001,"fix_duration":446.0929154457283,"trial":45,"RT":992,"MT":700,"sideResp":1,"stimulus":[],"xmouse":[812,812,812,812,812,812,812,812,812,812,812,812,812,812,812,812,812,812,812,812,812,812,812,812,812,812,812,812,812,812,812,812,812,812,812,812,812,812,812,812,812,812,812,812,812,813,819,825,836,863,870,874,874,874,874,874,874,874,874,865,846,824,797,772,735,731,731,731,731,731,731,720,707,698,693,691,690,686,679,662,655,641,618,584,451],"ymouse":[641,641,641,641,641,641,641,641,641,641,641,641,641,641,641,641,641,641,641,641,641,641,641,641,641,641,641,641,641,641,641,641,641,641,641,641,641,641,641,641,641,641,641,641,641,641,635,630,623,608,605,602,602,602,602,602,602,602,602,605,613,623,634,644,657,658,658,658,658,601,514,409,319,257,205,181,172,156,141,120,116,112,102,88,27],"timestamp_mouse":[12,39,52,73,91,112,132,152,172,192,212,232,252,273,293,312,333,352,372,393,412,432,452,473,492,512,533,552,573,592,612,633,652,673,693,711,733,752,771,793,812,833,852,872,892,912,932,953,973,992,1012,1032,1051,1073,1092,1112,1132,1152,1172,1192,1212,1232,1253,1272,1292,1312,1332,1353,1373,1392,1412,1431,1452,1472,1492,1512,1531,1553,1573,1592,1611,1632,1652,1672,1692],"xSR":741.5,"ySR":573.95,"xT1":424.9,"yT1":0,"xT2":1058.1,"yT2":0,"toosoon":0,"cond_shown":"Incongruent","ratio_trial":300,"L_num":1,"L_den":2,"R_num":2,"R_den":10,"correct_side":1,"subjID":"LizethLopezLizcano14","gender":"1","school":"6","age":"11                                           b                                                                                                                                                                                    11                                                                      "},{"start_time":1551900153798,"click_time":1551900154982,"finger_time":1551900154742,"fix_duration":876.3972072490875,"trial":46,"RT":944,"MT":240,"sideResp":1,"stimulus":[],"xmouse":[829,829,829,829,829,829,829,829,829,829,829,829,829,829,829,829,829,829,829,829,829,829,829,829,829,829,829,829,829,829,829,829,829,829,829,829,829,829,829,829,829,825,820,815,807,783,769,748,711,693,663,654,649,644,637,607,591,575,540,517],"ymouse":[619,619,619,619,619,619,619,619,619,619,619,619,619,619,619,619,619,619,619,619,619,619,619,619,619,619,619,619,619,619,619,619,619,619,619,619,619,619,619,619,619,617,617,617,615,594,581,554,488,431,317,289,265,245,224,166,137,110,57,26],"timestamp_mouse":[11,37,42,62,82,104,123,143,163,184,202,223,244,264,284,304,323,343,364,383,403,424,444,464,484,504,523,544,564,584,604,623,643,663,684,703,723,744,762,783,804,823,843,863,883,903,924,944,964,983,1005,1023,1043,1062,1084,1103,1123,1143,1164,1184],"xSR":741.5,"ySR":573.95,"xT1":424.9,"yT1":0,"xT2":1058.1,"yT2":0,"toosoon":0,"cond_shown":"Congruent","ratio_trial":100,"L_num":11,"L_den":22,"R_num":4,"R_den":10,"correct_side":1,"subjID":"LizethLopezLizcano14","gender":"1","school":"6","age":"11                                           b                                                                                                                                                                                    11                                                                      "},{"start_time":1551900156702,"click_time":1551900157762,"finger_time":1551900157382,"fix_duration":500.20382711453914,"trial":47,"RT":680,"MT":380,"sideResp":1,"stimulus":[],"xmouse":[791,791,791,791,791,791,791,791,791,791,791,791,791,791,791,791,791,791,791,791,791,791,791,791,791,791,791,791,791,791,791,786,768,736,675,653,637,618,596,573,554,552,545,541,537,536,535,530,524,514,502,498,484],"ymouse":[596,596,596,596,596,596,596,596,596,596,596,596,596,596,596,596,596,596,596,596,596,596,596,596,596,596,596,596,596,596,596,592,574,537,456,420,391,357,318,280,247,240,223,213,206,204,200,186,172,143,113,104,80],"timestamp_mouse":[31,40,59,80,99,119,139,158,180,200,219,239,260,280,299,319,340,359,379,400,419,440,460,479,499,519,540,560,579,599,619,639,660,680,699,719,739,759,779,799,819,840,859,880,899,919,939,959,980,999,1019,1040,1060],"xSR":741.5,"ySR":573.95,"xT1":424.9,"yT1":0,"xT2":1058.1,"yT2":0,"toosoon":0,"cond_shown":"Congruent","ratio_trial":300,"L_num":4,"L_den":5,"R_num":2,"R_den":4,"correct_side":1,"subjID":"LizethLopezLizcano14","gender":"1","school":"6","age":"11                                           b                                                                                                                                                                                    11                                                                      "},{"start_time":1551900159369,"click_time":1551900160441,"finger_time":1551900160261,"fix_duration":265.07537295789916,"trial":48,"RT":892,"MT":180,"sideResp":1,"stimulus":[],"xmouse":[747,747,747,747,747,747,747,747,747,747,747,747,747,747,747,750,754,766,768,770,770,770,770,770,770,770,770,770,770,770,770,770,770,770,770,770,770,770,770,770,770,770,770,770,750,716,584,524,505,497,493,485,481,478],"ymouse":[622,622,622,622,622,622,622,622,622,622,622,622,622,622,622,622,621,611,608,607,607,607,607,607,607,607,607,607,607,607,607,607,607,607,607,607,607,607,607,607,607,607,607,599,543,462,268,188,151,136,124,109,103,99],"timestamp_mouse":[12,34,53,73,92,113,132,152,172,191,212,232,252,272,292,312,332,353,372,392,412,433,453,472,492,513,532,552,572,593,612,631,652,672,692,713,731,752,773,793,811,833,853,873,892,912,932,951,972,992,1011,1032,1052,1072],"xSR":741.5,"ySR":573.95,"xT1":424.9,"yT1":0,"xT2":1058.1,"yT2":0,"toosoon":0,"cond_shown":"Incongruent","ratio_trial":100,"L_num":3,"L_den":5,"R_num":8,"R_den":16,"correct_side":1,"subjID":"LizethLopezLizcano14","gender":"1","school":"6","age":"11                                           b                                                                                                                                                                                    11                                                                      "},{"start_time":1551900162629,"click_time":1551900164061,"finger_time":1551900163421,"fix_duration":1207.826741684317,"trial":49,"RT":792,"MT":640,"sideResp":1,"stimulus":[],"xmouse":[779,779,779,779,779,779,779,779,779,779,779,779,779,779,779,779,779,779,779,779,779,779,779,779,779,779,779,779,779,779,779,779,779,779,777,774,773,771,756,738,721,694,661,560,504,476,459,459,459,459,459,459,459,459,460,466,478,490,509,513,515,515,515,515,515,515,515,515,515,515,515,515],"ymouse":[650,650,650,650,650,650,650,650,650,650,650,650,650,650,650,650,650,650,650,650,650,650,650,650,650,650,650,650,650,650,650,650,650,650,650,650,650,649,640,622,592,547,488,342,277,248,239,239,239,239,238,238,238,238,234,227,213,195,1