[{"start_time":1551892576782,"click_time":1551892579728,"finger_time":1551892576791,"fix_duration":629.3725369662965,"trial":0,"RT":9,"MT":2937,"sideResp":2,"stimulus":"img/750/equaldotanddens/L/6_Ratio_750_L_24_R_18.png","xmouse":[789,789,789,789,789,789,789,789,789,789,789,789,789,789,789,789,789,789,789,789,789,789,789,789,789,789,789,789,789,789,789,789,788,785,784,783,783,783,783,783,783,783,783,783,783,783,783,783,783,783,783,783,783,783,783,783,783,783,783,783,783,783,783,783,783,783,783,783,783,783,783,782,772,763,752,745,740,739,739,739,739,739,739,739,739,739,739,740,747,755,765,774,781,781,781,782,784,785,786,786,787,788,790,792,792,793,793,793,793,793,793,793,793,793,793,793,793,793,793,793,793,793,793,793,793,793,794,804,820,855,905,962,1089,1112,1125,1135,1145,1163,1170,1176,1181,1182,1182,1182,1182,1177,1165,1141],"ymouse":[516,516,516,516,516,516,516,516,516,516,516,516,516,516,516,516,516,516,516,516,516,516,516,516,516,516,524,527,531,536,552,561,614,627,631,633,635,636,636,636,636,636,636,636,636,636,636,636,636,636,636,636,636,636,636,636,636,636,636,636,636,636,636,636,636,636,636,636,636,636,636,637,637,637,637,637,637,637,637,637,637,637,637,637,637,637,637,638,641,644,647,648,648,648,648,648,648,648,647,647,645,645,644,643,642,641,641,641,640,640,640,640,640,640,640,640,640,640,640,640,640,640,640,640,640,639,637,632,621,596,555,495,295,204,165,140,115,72,60,49,39,32,27,27,26,28,36,54],"timestamp_mouse":[9,27,48,68,87,107,126,147,166,186,207,227,248,267,286,306,326,347,366,387,407,427,446,466,487,508,527,546,567,586,606,626,647,667,686,706,727,747,766,788,806,828,848,867,887,906,927,947,967,988,1008,1027,1047,1066,1086,1108,1127,1146,1166,1186,1207,1227,1247,1267,1286,1306,1327,1348,1367,1387,1408,1428,1446,1466,1486,1507,1526,1547,1568,1586,1607,1627,1647,1666,1688,1707,1727,1746,1766,1787,1806,1826,1846,1866,1886,1908,1928,1946,1966,1986,2007,2026,2046,2067,2088,2106,2128,2147,2167,2186,2206,2227,2246,2268,2287,2306,2327,2347,2368,2386,2406,2426,2446,2467,2487,2507,2527,2546,2567,2586,2607,2627,2646,2666,2687,2706,2727,2747,2766,2786,2807,2826,2846,2867,2886,2906,2928,2946],"xSR":741.5,"ySR":469.95,"xT1":424.9,"yT1":0,"xT2":1058.1,"yT2":0,"toosoon":0,"cond_shown":"equaldotanddens","ratio_trial":750,"smaller_num":"18","larger_num":"24","correct_side":1,"subjID":"LorenaGarcia8","gender":"1","age":"11","school":"6","test":{"fix_dur":[250,1500],"timestim":300,"targets_dim":[100,100],"targets_relative_coord":[0.3,0.7],"size_stim":[880,420],"start_dim":[100,100],"size_start":[300,300],"size_fix":60,"samplingrate":20,"img_types":["equaldotsize","equaldotanddens","randomdotsizeEA"],"ratios":[250,500,750,900],"rep_conds":9,"nTrials":120,"trials_to_rest":500,"Trials_order":[91,15,40,47,52,65,112,16,94,70,45,2,38,115,27,113,109,82,101,89,71,87,5,110,31,17,18,44,49,8,99,3,9,19,42,55,116,60,97,76,105,11,64,111,20,48,63,26,14,90,13,88,12,92,66,39,98,106,62,114,56,43,28,108,4,24,30,37,53,72,83,29,104,80,23,95,0,10,36,41,85,100,67,74,117,81,35,93,68,69,96,84,107,59,46,6,50,103,77,86,1,33,73,25,79,58,7,118,75,22,54,61,119,32,78,21,51,57,102,34],"cond_shown":["equaldotanddens","equaldotsize","equaldotanddens","randomdotsizeEA","equaldotanddens","randomdotsizeEA","equaldotanddens","equaldotanddens","equaldotanddens","equaldotanddens","equaldotsize","randomdotsizeEA","randomdotsizeEA","equaldotanddens","equaldotsize","randomdotsizeEA","equaldotanddens","equaldotanddens","randomdotsizeEA","randomdotsizeEA","randomdotsizeEA","equaldotsize","randomdotsizeEA","randomdotsizeEA","equaldotanddens","randomdotsizeEA","equaldotsize","randomdotsizeEA","equaldotanddens","randomdotsizeEA","equaldotsize","equaldotsize","equaldotsize","equaldotanddens","equaldotsize","equaldotanddens","randomdotsizeEA","equaldotsize","equaldotanddens","equaldotanddens","equaldotsize","randomdotsizeEA","equaldotanddens","equaldotsize","randomdotsizeEA","equaldotsize","equaldotsize","randomdotsizeEA","randomdotsizeEA","equaldotsize","equaldotanddens","equaldotanddens","equaldotsize","randomdotsizeEA","equaldotsize","equaldotsize","randomdotsizeEA","equaldotanddens","randomdotsizeEA","equaldotsize","randomdotsizeEA","equaldotanddens","equaldotanddens","equaldotsize","equaldotanddens","equaldotsize","equaldotsize","equaldotanddens","randomdotsizeEA","equaldotsize","randomdotsizeEA","randomdotsizeEA","randomdotsizeEA","randomdotsizeEA","randomdotsizeEA","randomdotsizeEA","equaldotsize","equaldotanddens","equaldotsize","randomdotsizeEA","equaldotanddens","equaldotanddens","equaldotanddens","randomdotsizeEA","equaldotsize","equaldotsize","randomdotsizeEA","equaldotsize","randomdotsizeEA","equaldotsize","equaldotsize","equaldotsize","randomdotsizeEA","randomdotsizeEA","equaldotanddens","equaldotsize","randomdotsizeEA","equaldotanddens","randomdotsizeEA","randomdotsizeEA","equaldotanddens","equaldotsize","equaldotanddens","equaldotanddens","equaldotanddens","equaldotanddens","equaldotanddens","equaldotanddens","equaldotsize","equaldotanddens","equaldotsize","equaldotanddens","randomdotsizeEA","randomdotsizeEA","equaldotsize","equaldotsize","equaldotsize","equaldotsize","equaldotsize","equaldotanddens"],"ratio_trial":[750,500,500,900,500,500,500,500,900,900,900,250,250,750,500,500,250,900,500,500,900,500,500,250,750,500,750,750,250,750,500,500,900,750,750,750,750,250,250,500,900,900,500,500,750,250,500,250,250,750,250,500,250,750,750,500,250,900,250,750,750,750,500,250,500,250,750,250,500,250,900,500,750,750,900,900,250,900,250,500,250,500,750,250,900,900,900,900,750,900,250,250,900,900,900,750,250,750,500,250,250,900,250,250,750,900,750,900,500,900,750,250,900,750,750,900,500,900,750,900],"smaller_num":["18","2","2","9","1","2","6","1","18","18","9","4","5","3","3","1","5","18","9","9","9","9","1","4","6","4","3","6","2","3","4","1","18","3","12","3","15","3","1","9","18","9","10","5","3","3","6","3","2","6","4","4","3","6","15","2","3","18","3","15","15","15","2","2","5","3","3","4","1","2","18","1","3","3","9","18","2","9","2","5","4","9","6","2","18","9","18","9","3","18","6","2","18","18","18","15","4","15","5","3","6","18","2","3","3","18","15","18","2","9","15","3","18","3","3","18","5","18","6","9"],"larger_num":["24","4","4","10","2","4","12","2","20","20","10","16","20","4","6","2","20","20","18","18","10","18","2","16","8","8","4","8","8","4","8","2","20","4","16","4","20","12","4","18","20","10","20","10","4","12","12","12","8","8","16","8","12","8","20","4","12","20","12","20","20","20","4","8","10","12","4","16","2","8","20","2","4","4","10","20","8","10","8","10","16","18","8","8","20","10","20","10","4","20","24","8","20","20","20","20","16","20","10","12","24","20","8","12","4","20","20","20","4","10","20","12","20","4","4","20","10","20","8","10"],"correct_side":[1,1,1,1,2,1,1,2,1,1,2,1,2,2,2,2,2,1,1,1,1,1,2,2,1,1,2,1,1,2,1,2,2,1,2,1,2,1,2,2,2,2,2,1,2,1,1,1,2,2,2,1,1,1,2,1,1,1,1,2,2,2,1,1,1,2,2,1,2,1,2,2,1,1,1,1,1,2,1,1,2,2,1,1,1,2,1,1,1,1,1,1,1,1,1,2,2,2,2,2,1,1,1,1,1,2,1,1,2,2,1,1,2,1,1,1,2,1,2,2],"img_shown":["img/750/equaldotanddens/L/6_Ratio_750_L_24_R_18.png","img/500/equaldotsize/L/10_Ratio_500_L_4_R_2.png","img/500/equaldotanddens/L/5_Ratio_500_L_4_R_2.png","img/900/randomdotsizeEA/L/1_Ratio_900_L_10_R_9.png","img/500/equaldotanddens/R/12_Ratio_500_L_1_R_2.png","img/500/randomdotsizeEA/L/10_Ratio_500_L_4_R_2.png","img/500/equaldotanddens/L/13_Ratio_500_L_12_R_6.png","img/500/equaldotanddens/R/15_Ratio_500_L_1_R_2.png","img/900/equaldotanddens/L/8_Ratio_900_L_20_R_18.png","img/900/equaldotanddens/L/10_Ratio_900_L_20_R_18.png","img/900/equaldotsize/R/3_Ratio_900_L_9_R_10.png","img/250/randomdotsizeEA/L/2_Ratio_250_L_16_R_4.png","img/250/randomdotsizeEA/R/12_Ratio_250_L_5_R_20.png","img/750/equaldotanddens/R/7_Ratio_750_L_3_R_4.png","img/500/equaldotsize/R/2_Ratio_500_L_3_R_6.png","img/500/randomdotsizeEA/R/15_Ratio_500_L_1_R_2.png","img/250/equaldotanddens/R/12_Ratio_250_L_5_R_20.png","img/900/equaldotanddens/L/10_Ratio_900_L_20_R_18.png","img/500/randomdotsizeEA/L/4_Ratio_500_L_18_R_9.png","img/500/randomdotsizeEA/L/4_Ratio_500_L_18_R_9.png","img/900/randomdotsizeEA/L/1_Ratio_900_L_10_R_9.png","img/500/equaldotsize/L/4_Ratio_500_L_18_R_9.png","img/500/randomdotsizeEA/R/15_Ratio_500_L_1_R_2.png","img/250/randomdotsizeEA/R/10_Ratio_250_L_4_R_16.png","img/750/equaldotanddens/L/14_Ratio_750_L_8_R_6.png","img/500/randomdotsizeEA/L/8_Ratio_500_L_8_R_4.png","img/750/equaldotsize/R/12_Ratio_750_L_3_R_4.png","img/750/randomdotsizeEA/L/14_Ratio_750_L_8_R_6.png","img/250/equaldotanddens/L/1_Ratio_250_L_8_R_2.png","img/750/randomdotsizeEA/R/7_Ratio_750_L_3_R_4.png","img/500/equaldotsize/L/8_Ratio_500_L_8_R_4.png","img/500/equaldotsize/R/12_Ratio_500_L_1_R_2.png","img/900/equaldotsize/R/11_Ratio_900_L_18_R_20.png","img/750/equaldotanddens/L/10_Ratio_750_L_4_R_3.png","img/750/equaldotsize/R/11_Ratio_750_L_12_R_16.png","img/750/equaldotanddens/L/8_Ratio_750_L_4_R_3.png","img/750/randomdotsizeEA/R/4_Ratio_750_L_15_R_20.png","img/250/equaldotsize/L/15_Ratio_250_L_12_R_3.png","img/250/equaldotanddens/R/8_Ratio_250_L_1_R_4.png","img/500/equaldotanddens/R/1_Ratio_500_L_9_R_18.png","img/900/equaldotsize/R/9_Ratio_900_L_18_R_20.png","img/900/randomdotsizeEA/R/3_Ratio_900_L_9_R_10.png","img/500/equaldotanddens/R/3_Ratio_500_L_10_R_20.png","img/500/equaldotsize/L/7_Ratio_500_L_10_R_5.png","img/750/randomdotsizeEA/R/12_Ratio_750_L_3_R_4.png","img/250/equaldotsize/L/14_Ratio_250_L_12_R_3.png","img/500/equaldotsize/L/13_Ratio_500_L_12_R_6.png","img/250/randomdotsizeEA/L/15_Ratio_250_L_12_R_3.png","img/250/randomdotsizeEA/R/13_Ratio_250_L_2_R_8.png","img/750/equaldotsize/R/2_Ratio_750_L_6_R_8.png","img/250/equaldotanddens/R/10_Ratio_250_L_4_R_16.png","img/500/equaldotanddens/L/8_Ratio_500_L_8_R_4.png","img/250/equaldotsize/L/15_Ratio_250_L_12_R_3.png","img/750/randomdotsizeEA/L/13_Ratio_750_L_8_R_6.png","img/750/equaldotsize/R/5_Ratio_750_L_15_R_20.png","img/500/equaldotsize/L/5_Ratio_500_L_4_R_2.png","img/250/randomdotsizeEA/L/14_Ratio_250_L_12_R_3.png","img/900/equaldotanddens/L/8_Ratio_900_L_20_R_18.png","img/250/randomdotsizeEA/L/15_Ratio_250_L_12_R_3.png","img/750/equaldotsize/R/5_Ratio_750_L_15_R_20.png","img/750/randomdotsizeEA/R/4_Ratio_750_L_15_R_20.png","img/750/equaldotanddens/R/3_Ratio_750_L_15_R_20.png","img/500/equaldotanddens/L/10_Ratio_500_L_4_R_2.png","img/250/equaldotsize/L/1_Ratio_250_L_8_R_2.png","img/500/equaldotanddens/L/7_Ratio_500_L_10_R_5.png","img/250/equaldotsize/R/11_Ratio_250_L_3_R_12.png","img/750/equaldotsize/R/12_Ratio_750_L_3_R_4.png","img/250/equaldotanddens/L/2_Ratio_250_L_16_R_4.png","img/500/randomdotsizeEA/R/15_Ratio_500_L_1_R_2.png","img/250/equaldotsize/L/3_Ratio_250_L_8_R_2.png","img/900/randomdotsizeEA/R/13_Ratio_900_L_18_R_20.png","img/500/randomdotsizeEA/R/12_Ratio_500_L_1_R_2.png","img/750/randomdotsizeEA/L/9_Ratio_750_L_4_R_3.png","img/750/randomdotsizeEA/L/8_Ratio_750_L_4_R_3.png","img/900/randomdotsizeEA/L/1_Ratio_900_L_10_R_9.png","img/900/randomdotsizeEA/L/10_Ratio_900_L_20_R_18.png","img/250/equaldotsize/L/7_Ratio_250_L_8_R_2.png","img/900/equaldotanddens/R/7_Ratio_900_L_9_R_10.png","img/250/equaldotsize/L/3_Ratio_250_L_8_R_2.png","img/500/randomdotsizeEA/L/7_Ratio_500_L_10_R_5.png","img/250/equaldotanddens/R/10_Ratio_250_L_4_R_16.png","img/500/equaldotanddens/R/1_Ratio_500_L_9_R_18.png","img/750/equaldotanddens/L/13_Ratio_750_L_8_R_6.png","img/250/randomdotsizeEA/L/7_Ratio_250_L_8_R_2.png","img/900/equaldotsize/L/10_Ratio_900_L_20_R_18.png","img/900/equaldotsize/R/7_Ratio_900_L_9_R_10.png","img/900/randomdotsizeEA/L/2_Ratio_900_L_20_R_18.png","img/900/equaldotsize/L/1_Ratio_900_L_10_R_9.png","img/750/randomdotsizeEA/L/8_Ratio_750_L_4_R_3.png","img/900/equaldotsize/L/4_Ratio_900_L_20_R_18.png","img/250/equaldotsize/L/5_Ratio_250_L_24_R_6.png","img/250/equaldotsize/L/1_Ratio_250_L_8_R_2.png","img/900/randomdotsizeEA/L/10_Ratio_900_L_20_R_18.png","img/900/randomdotsizeEA/L/8_Ratio_900_L_20_R_18.png","img/900/equaldotanddens/L/4_Ratio_900_L_20_R_18.png","img/750/equaldotsize/R/5_Ratio_750_L_15_R_20.png","img/250/randomdotsizeEA/R/10_Ratio_250_L_4_R_16.png","img/750/equaldotanddens/R/3_Ratio_750_L_15_R_20.png","img/500/randomdotsizeEA/R/14_Ratio_500_L_5_R_10.png","img/250/randomdotsizeEA/R/9_Ratio_250_L_3_R_12.png","img/250/equaldotanddens/L/5_Ratio_250_L_24_R_6.png","img/900/equaldotsize/L/4_Ratio_900_L_20_R_18.png","img/250/equaldotanddens/L/3_Ratio_250_L_8_R_2.png","img/250/equaldotanddens/L/14_Ratio_250_L_12_R_3.png","img/750/equaldotanddens/L/8_Ratio_750_L_4_R_3.png","img/900/equaldotanddens/R/13_Ratio_900_L_18_R_20.png","img/750/equaldotanddens/L/1_Ratio_750_L_20_R_15.png","img/900/equaldotanddens/L/4_Ratio_900_L_20_R_18.png","img/500/equaldotsize/R/9_Ratio_500_L_2_R_4.png","img/900/equaldotanddens/R/6_Ratio_900_L_9_R_10.png","img/750/equaldotsize/L/1_Ratio_750_L_20_R_15.png","img/250/equaldotanddens/L/14_Ratio_250_L_12_R_3.png","img/900/randomdotsizeEA/R/12_Ratio_900_L_18_R_20.png","img/750/randomdotsizeEA/L/9_Ratio_750_L_4_R_3.png","img/750/equaldotsize/L/9_Ratio_750_L_4_R_3.png","img/900/equaldotsize/L/2_Ratio_900_L_20_R_18.png","img/500/equaldotsize/R/14_Ratio_500_L_5_R_10.png","img/900/equaldotsize/L/4_Ratio_900_L_20_R_18.png","img/750/equaldotsize/R/2_Ratio_750_L_6_R_8.png","img/900/equaldotanddens/R/7_Ratio_900_L_9_R_10.png"],"Rat0":[["12_Ratio_0_L_9_R_0.png","13_Ratio_0_L_6_R_0.png","5_Ratio_0_L_2_R_0.png","6_Ratio_0_L_4_R_0.png","8_Ratio_0_L_6_R_0.png"],["1_Ratio_0_L_0_R_17.png","10_Ratio_0_L_0_R_22.png","11_Ratio_0_L_0_R_1.png","14_Ratio_0_L_0_R_24.png","15_Ratio_0_L_0_R_4.png","2_Ratio_0_L_0_R_5.png","3_Ratio_0_L_0_R_17.png","4_Ratio_0_L_0_R_7.png","7_Ratio_0_L_0_R_19.png","9_Ratio_0_L_0_R_15.png"]],"Rat250":[["1_Ratio_250_L_8_R_2.png","14_Ratio_250_L_12_R_3.png","15_Ratio_250_L_12_R_3.png","2_Ratio_250_L_16_R_4.png","3_Ratio_250_L_8_R_2.png","5_Ratio_250_L_24_R_6.png","7_Ratio_250_L_8_R_2.png"],["10_Ratio_250_L_4_R_16.png","11_Ratio_250_L_3_R_12.png","12_Ratio_250_L_5_R_20.png","13_Ratio_250_L_2_R_8.png","4_Ratio_250_L_3_R_12.png","6_Ratio_250_L_6_R_24.png","8_Ratio_250_L_1_R_4.png","9_Ratio_250_L_3_R_12.png"]],"Rat500":[["10_Ratio_500_L_4_R_2.png","11_Ratio_500_L_12_R_6.png","13_Ratio_500_L_12_R_6.png","4_Ratio_500_L_18_R_9.png","5_Ratio_500_L_4_R_2.png","7_Ratio_500_L_10_R_5.png","8_Ratio_500_L_8_R_4.png"],["1_Ratio_500_L_9_R_18.png","12_Ratio_500_L_1_R_2.png","14_Ratio_500_L_5_R_10.png","15_Ratio_500_L_1_R_2.png","2_Ratio_500_L_3_R_6.png","3_Ratio_500_L_10_R_20.png","6_Ratio_500_L_9_R_18.png","9_Ratio_500_L_2_R_4.png"]],"Rat750":[["1_Ratio_750_L_20_R_15.png","10_Ratio_750_L_4_R_3.png","13_Ratio_750_L_8_R_6.png","14_Ratio_750_L_8_R_6.png","6_Ratio_750_L_24_R_18.png","8_Ratio_750_L_4_R_3.png","9_Ratio_750_L_4_R_3.png"],["11_Ratio_750_L_12_R_16.png","12_Ratio_750_L_3_R_4.png","15_Ratio_750_L_9_R_12.png","2_Ratio_750_L_6_R_8.png","3_Ratio_750_L_15_R_20.png","4_Ratio_750_L_15_R_20.png","5_Ratio_750_L_15_R_20.png","7_Ratio_750_L_3_R_4.png"]],"Rat900":[["1_Ratio_900_L_10_R_9.png","10_Ratio_900_L_20_R_18.png","2_Ratio_900_L_20_R_18.png","4_Ratio_900_L_20_R_18.png","8_Ratio_900_L_20_R_18.png"],["11_Ratio_900_L_18_R_20.png","12_Ratio_900_L_18_R_20.png","13_Ratio_900_L_18_R_20.png","14_Ratio_900_L_18_R_20.png","15_Ratio_900_L_9_R_10.png","3_Ratio_900_L_9_R_10.png","5_Ratio_900_L_9_R_10.png","6_Ratio_900_L_9_R_10.png","7_Ratio_900_L_9_R_10.png","9_Ratio_900_L_18_R_20.png"]],"Rat1000":[["10_Ratio_1000_L_16_R_16.png","11_Ratio_1000_L_6_R_6.png","12_Ratio_1000_L_14_R_14.png","13_Ratio_1000_L_20_R_20.png","15_Ratio_1000_L_15_R_15.png","2_Ratio_1000_L_17_R_17.png","4_Ratio_1000_L_9_R_9.png","5_Ratio_1000_L_6_R_6.png","6_Ratio_1000_L_19_R_19.png","8_Ratio_1000_L_14_R_14.png","9_Ratio_1000_L_25_R_25.png"],["1_Ratio_1000_L_1_R_1.png","14_Ratio_1000_L_17_R_17.png","3_Ratio_1000_L_17_R_17.png","7_Ratio_1000_L_6_R_6.png"]]}},{"start_time":1551892581183,"click_time":1551892582290,"finger_time":1551892581989,"fix_duration":673.0704613463478,"trial":1,"RT":806,"MT":301,"sideResp":1,"stimulus":"img/500/equaldotsize/L/10_Ratio_500_L_4_R_2.png","xmouse":[806,806,806,806,806,806,806,806,806,806,806,806,806,806,806,806,806,806,806,806,806,806,806,806,806,806,806,806,806,806,806,806,806,806,806,806,806,804,791,764,715,664,504,435,379,348,340,349,361,376,390,396,404,409,417,428],"ymouse":[636,636,636,636,636,636,636,636,636,636,636,636,636,636,636,636,636,636,636,636,636,636,636,636,636,636,636,636,636,636,636,636,636,636,636,636,636,636,636,633,610,567,390,309,228,170,144,119,111,104,97,95,89,87,82,77],"timestamp_mouse":[10,31,46,67,85,105,126,146,165,186,207,226,246,265,285,305,327,345,365,385,406,425,446,466,485,505,526,546,566,585,607,625,646,667,686,705,727,745,766,785,806,826,846,865,885,905,926,946,966,986,1006,1025,1045,1065,1086,1106],"xSR":741.5,"ySR":573.95,"xT1":424.9,"yT1":0,"xT2":1058.1,"yT2":0,"toosoon":0,"cond_shown":"equaldotsize","ratio_trial":500,"smaller_num":"2","larger_num":"4","correct_side":1,"subjID":"LorenaGarcia8","gender":"1","age":"11","school":"6"},{"start_time":1551892583926,"click_time":1551892584688,"finger_time":1551892584569,"fix_duration":957.3643916503303,"trial":2,"RT":643,"MT":119,"sideResp":1,"stimulus":"img/500/equaldotanddens/L/5_Ratio_500_L_4_R_2.png","xmouse":[763,763,763,763,763,763,763,763,763,763,763,763,763,763,763,763,763,763,763,763,763,763,763,763,763,763,763,763,763,763,763,760,741,659,592,489,480,480,480],"ymouse":[651,651,651,651,651,651,651,651,651,651,651,651,651,651,651,651,651,651,651,651,651,651,651,651,651,651,651,651,651,651,651,636,609,485,387,212,156,107,74],"timestamp_mouse":[10,32,44,62,82,102,122,142,163,183,203,222,244,263,283,302,322,343,362,382,403,422,443,462,482,503,523,542,562,583,603,622,643,664,683,703,722,743,762],"xSR":741.5,"ySR":573.95,"xT1":424.9,"yT1":0,"xT2":1058.1,"yT2":0,"toosoon":0,"cond_shown":"equaldotanddens","ratio_trial":500,"smaller_num":"2","larger_num":"4","correct_side":1,"subjID":"LorenaGarcia8","gender":"1","age":"11","school":"6"},{"start_time":1551892586466,"click_time":1551892588389,"finger_time":1551892587609,"fix_duration":1096.1021333969359,"trial":3,"RT":1143,"MT":780,"sideResp":1,"stimulus":"img/900/randomdotsizeEA/L/1_Ratio_900_L_10_R_9.png","xmouse":[801,801,801,801,801,801,801,801,801,801,801,801,801,801,801,801,801,801,801,801,801,801,801,801,801,801,801,801,801,801,801,801,801,801,801,801,801,801,801,801,801,801,801,801,801,801,801,801,801,801,801,801,801,801,802,813,834,871,932,1048,1091,1121,1136,1140,1142,1142,1136,1132,1128,1125,1122,1120,1115,1108,1076,1005,912,793,661,491,475,466,464,464,468,474,480,483,488,488,490,490,491,492,495,497,497],"ymouse":[620,620,620,620,620,620,620,620,620,620,620,620,620,620,620,620,620,620,620,620,620,620,620,620,620,620,620,620,620,620,620,620,620,620,620,620,620,620,620,620,620,620,620,620,620,620,620,620,620,620,620,620,620,620,620,616,608,588,557,480,444,417,399,393,392,392,394,396,399,402,404,406,409,413,423,424,405,372,334,277,267,254,240,228,205,192,175,167,157,154,152,149,145,130,115,105,98],"timestamp_mouse":[10,29,42,62,84,103,123,143,162,182,203,222,243,263,283,302,323,342,362,382,402,422,443,462,483,503,523,543,563,582,603,624,643,664,684,703,722,744,763,782,804,822,843,864,882,902,923,942,962,983,1002,1023,1044,1063,1082,1103,1124,1143,1163,1183,1204,1223,1243,1263,1282,1303,1324,1342,1363,1382,1402,1422,1443,1463,1482,1502,1522,1543,1562,1582,1602,1623,1644,1662,1682,1703,1723,1743,1764,1782,1802,1823,1842,1863,1882,1902,1923],"xSR":741.5,"ySR":573.95,"xT1":424.9,"yT1":0,"xT2":1058.1,"yT2":0,"toosoon":0,"cond_shown":"randomdotsizeEA","ratio_trial":900,"smaller_num":"9","larger_num":"10","correct_side":1,"subjID":"LorenaGarcia8","gender":"1","age":"11","school":"6"},{"start_time":1551892590664,"click_time":1551892591848,"finger_time":1551892591549,"fix_duration":1354.2995448099007,"trial":4,"RT":885,"MT":299,"sideResp":2,"stimulus":"img/500/equaldotanddens/R/12_Ratio_500_L_1_R_2.png","xmouse":[785,785,785,785,785,785,785,785,785,785,785,785,785,785,785,785,785,785,785,785,785,785,785,785,785,785,785,785,785,785,785,785,785,785,785,785,785,785,785,785,785,785,792,813,865,906,948,993,1028,1078,1093,1105,1116,1123,1128,1130,1132,1135,1137,1138],"ymouse":[614,614,614,614,614,614,614,614,614,614,614,614,614,614,614,614,614,614,614,614,614,614,614,614,614,614,614,614,614,614,614,614,614,614,614,614,614,614,614,614,614,614,610,591,539,493,433,370,309,217,186,163,144,134,118,114,109,104,100,98],"timestamp_mouse":[8,24,44,64,84,105,124,146,165,184,205,224,245,265,284,304,325,346,366,384,405,424,445,465,485,504,526,545,565,585,604,624,646,664,685,706,724,746,765,784,804,824,845,864,885,905,924,944,964,985,1005,1025,1045,1064,1084,1106,1124,1145,1165,1184],"xSR":741.5,"ySR":573.95,"xT1":424.9,"yT1":0,"xT2":1058.1,"yT2":0,"toosoon":0,"cond_shown":"equaldotanddens","ratio_trial":500,"smaller_num":"1","larger_num":"2","correct_side":2,"subjID":"LorenaGarcia8","gender":"1","age":"11","school":"6"},{"start_time":1551892592822,"click_time":1551892594049,"finger_time":1551892593608,"fix_duration":250,"trial":5,"RT":786,"MT":441,"sideResp":1,"stimulus":"img/500/randomdotsizeEA/L/10_Ratio_500_L_4_R_2.png","xmouse":[803,803,803,803,803,803,803,803,803,803,803,803,803,803,803,803,803,803,803,803,803,803,803,803,803,803,803,803,803,803,803,803,803,803,803,803,803,803,792,759,708,601,571,559,545,540,536,534,534,534,534,534,534,533,533,532,530,529,528,527,527,524],"ymouse":[605,605,605,605,605,605,605,605,605,605,605,605,605,605,605,605,605,605,605,605,605,605,605,605,605,605,605,605,605,605,605,605,605,605,605,605,605,605,591,549,483,328,265,229,185,166,149,142,136,131,125,119,117,116,115,112,105,100,95,92,90,83],"timestamp_mouse":[6,28,46,67,88,108,127,146,166,186,208,227,247,266,287,307,327,346,367,387,406,426,447,467,487,506,527,547,567,588,606,627,646,668,686,706,727,746,766,786,806,826,846,866,887,907,926,946,966,987,1006,1026,1046,1067,1086,1107,1127,1146,1167,1187,1207,1227],"xSR":741.5,"ySR":573.95,"xT1":424.9,"yT1":0,"xT2":1058.1,"yT2":0,"toosoon":0,"cond_shown":"randomdotsizeEA","ratio_trial":500,"smaller_num":"2","larger_num":"4","correct_side":1,"subjID":"LorenaGarcia8","gender":"1","age":"11","school":"6"},{"start_time":1551892595706,"click_time":1551892596569,"finger_time":1551892596448,"fix_duration":775.4975129961863,"trial":6,"RT":742,"MT":121,"sideResp":1,"stimulus":"img/500/equaldotanddens/L/13_Ratio_500_L_12_R_6.png","xmouse":[796,796,796,796,796,796,796,796,796,796,796,796,796,796,796,796,796,796,796,796,796,796,796,796,796,796,796,796,796,796,796,796,796,796,796,796,792,781,677,577,530,505,498,497],"ymouse":[588,588,588,588,588,588,588,588,588,588,588,588,588,588,588,588,588,588,588,588,588,588,588,588,588,588,588,588,588,588,588,588,588,588,588,588,578,562,410,264,183,139,115,96],"timestamp_mouse":[10,24,43,63,82,104,123,142,162,183,204,222,242,262,283,302,324,342,364,383,402,423,443,462,482,503,522,543,563,583,602,623,642,663,684,703,722,742,762,782,802,822,843,863],"xSR":741.5,"ySR":573.95,"xT1":424.9,"yT1":0,"xT2":1058.1,"yT2":0,"toosoon":0,"cond_shown":"equaldotanddens","ratio_trial":500,"smaller_num":"6","larger_num":"12","correct_side":1,"subjID":"LorenaGarcia8","gender":"1","age":"11","school":"6"},{"start_time":1551892597440,"click_time":1551892598268,"finger_time":1551892598168,"fix_duration":250,"trial":7,"RT":728,"MT":100,"sideResp":2,"stimulus":"img/500/equaldotanddens/R/15_Ratio_500_L_1_R_2.png","xmouse":[787,787,787,787,787,787,787,787,787,787,787,787,787,787,787,787,787,787,787,787,787,787,787,787,787,787,787,787,787,787,787,787,787,787,790,802,889,941,984,1016,1050,1116],"ymouse":[663,663,663,663,663,663,663,663,663,663,663,663,663,663,663,663,663,663,663,663,663,663,663,663,663,663,663,663,663,663,663,663,663,663,664,653,529,433,336,258,190,98],"timestamp_mouse":[9,28,48,68,89,108,130,148,168,188,209,230,249,268,289,308,329,348,368,389,409,428,449,470,488,509,529,549,569,588,609,629,650,668,689,709,728,749,768,789,809,828],"xSR":741.5,"ySR":573.95,"xT1":424.9,"yT1":0,"xT2":1058.1,"yT2":0,"toosoon":0,"cond_shown":"equaldotanddens","ratio_trial":500,"smaller_num":"1","larger_num":"2","correct_side":2,"subjID":"LorenaGarcia8","gender":"1","age":"11","school":"6"},{"start_time":1551892599316,"click_time":1551892600629,"finger_time":1551892600188,"fix_duration":445.8471092178705,"trial":8,"RT":872,"MT":441,"sideResp":2,"stimulus":"img/900/equaldotanddens/L/8_Ratio_900_L_20_R_18.png","xmouse":[814,814,814,814,814,814,814,814,814,814,814,814,814,814,814,814,814,814,814,814,814,814,814,814,814,814,814,814,814,814,814,814,814,814,814,814,814,814,814,814,814,813,821,847,882,920,957,1021,1035,1047,1057,1063,1070,1071,1071,1071,1071,1071,1071,1071,1071,1071,1075,1077,1082,1086],"ymouse":[647,647,647,647,647,647,647,647,647,647,647,647,647,647,647,647,647,647,647,647,647,647,647,647,647,647,647,647,647,647,647,647,647,647,647,647,647,647,647,647,647,648,630,583,520,453,386,262,229,200,177,161,139,136,134,134,134,134,134,134,134,133,121,113,102,93],"timestamp_mouse":[14,33,52,73,93,113,132,152,172,192,213,234,252,274,292,312,334,354,372,392,414,433,452,472,493,513,533,552,574,592,612,632,652,673,692,712,732,752,772,794,813,832,853,872,892,913,932,952,972,992,1013,1033,1053,1074,1093,1113,1132,1152,1173,1194,1213,1233,1252,1273,1292,1313],"xSR":741.5,"ySR":573.95,"xT1":424.9,"yT1":0,"xT2":1058.1,"yT2":0,"toosoon":0,"cond_shown":"equaldotanddens","ratio_trial":900,"smaller_num":"18","larger_num":"20","correct_side":1,"subjID":"LorenaGarcia8","gender":"1","age":"11","school":"6"},{"start_time":1551892601620,"click_time":1551892602868,"finger_time":1551892602588,"fix_duration":250,"trial":9,"RT":968,"MT":280,"sideResp":1,"stimulus":"img/900/equaldotanddens/L/10_Ratio_900_L_20_R_18.png","xmouse":[788,788,788,788,788,788,788,788,788,788,788,788,788,788,788,788,788,788,788,788,788,788,788,788,788,788,788,788,788,788,788,788,788,788,788,788,788,788,788,788,788,788,788,788,788,788,788,763,720,683,648,594,497,473,465,463,463,463,463,464,465,469,474],"ymouse":[622,622,622,622,622,622,622,622,622,622,622,622,622,622,622,622,622,622,622,622,622,622,622,622,622,622,622,622,622,622,622,622,622,622,622,622,622,622,622,622,622,622,622,622,622,622,622,591,538,492,440,349,218,185,166,156,148,137,134,128,121,109,94],"timestamp_mouse":[8,31,49,69,89,109,130,148,168,189,208,229,249,269,288,309,329,350,369,388,409,430,449,469,489,509,529,549,570,588,608,629,649,669,688,708,730,748,768,788,808,828,848,869,888,909,928,948,968,989,1010,1029,1048,1069,1089,1108,1129,1149,1168,1188,1209,1228,1248],"xSR":741.5,"ySR":573.95,"xT1":424.9,"yT1":0,"xT2":1058.1,"yT2":0,"toosoon":0,"cond_shown":"equaldotanddens","ratio_trial":900,"smaller_num":"18","larger_num":"20","correct_side":1,"subjID":"LorenaGarcia8","gender":"1","age":"11","school":"6"},{"start_time":1551892604194,"click_time":1551892605268,"finger_time":1551892604990,"fix_duration":524.6436598324399,"trial":10,"RT":796,"MT":278,"sideResp":2,"stimulus":"img/900/equaldotsize/R/3_Ratio_900_L_9_R_10.png","xmouse":[772,772,772,772,772,772,772,772,772,772,772,772,772,772,772,772,772,772,772,772,772,772,772,772,772,772,772,772,772,772,772,772,772,772,772,772,772,772,798,844,913,992,1115,1181,1257,1265,1267,1264,1257,1237,1225,1206,1191,1157],"ymouse":[649,649,649,649,649,649,649,649,649,649,649,649,649,649,649,649,649,649,649,649,649,649,649,649,649,649,649,649,649,649,649,649,649,649,649,649,649,645,614,562,494,414,283,210,105,86,72,63,55,44,38,32,31,31],"timestamp_mouse":[25,35,54,75,95,114,136,155,176,195,215,234,254,274,294,315,336,355,374,394,416,435,455,474,496,515,535,555,574,596,614,634,656,674,694,715,735,754,774,796,814,834,854,875,894,915,935,955,974,995,1015,1034,1054,1074],"xSR":741.5,"ySR":573.95,"xT1":424.9,"yT1":0,"xT2":1058.1,"yT2":0,"toosoon":0,"cond_shown":"equaldotsize","ratio_trial":900,"smaller_num":"9","larger_num":"10","correct_side":2,"subjID":"LorenaGarcia8","gender":"1","age":"11","school":"6"},{"start_time":1551892606361,"click_time":1551892607349,"finger_time":1551892606989,"fix_duration":250,"trial":11,"RT":628,"MT":360,"sideResp":1,"stimulus":"img/250/randomdotsizeEA/L/2_Ratio_250_L_16_R_4.png","xmouse":[835,835,835,835,835,835,835,835,835,835,835,835,835,835,835,835,835,835,835,835,835,835,835,835,835,835,835,835,832,825,797,705,651,591,567,552,531,522,520,520,520,526,528,529,529,522,515,504,500,498],"ymouse":[629,629,629,629,629,629,629,629,629,629,629,629,629,629,629,629,629,629,629,629,629,629,629,629,629,629,629,629,629,625,603,521,474,401,358,326,276,255,243,235,222,186,160,148,139,124,114,105,101,96],"timestamp_mouse":[7,28,48,67,87,108,128,148,168,188,207,228,248,267,287,307,328,347,369,388,409,428,447,467,487,507,529,549,568,588,607,628,647,667,688,707,728,747,768,789,808,828,847,867,888,908,927,949,967,988],"xSR":741.5,"ySR":573.95,"xT1":424.9,"yT1":0,"xT2":1058.1,"yT2":0,"toosoon":0,"cond_shown":"randomdotsizeEA","ratio_trial":250,"smaller_num":"4","larger_num":"16","correct_side":1,"subjID":"LorenaGarcia8","gender":"1","age":"11","school":"6"},{"start_time":1551892610675,"click_time":1551892611568,"finger_time":1551892611448,"fix_duration":1183.7956254349913,"trial":12,"RT":773,"MT":120,"sideResp":2,"stimulus":"img/250/randomdotsizeEA/R/12_Ratio_250_L_5_R_20.png","xmouse":[792,792,792,792,792,792,792,792,792,792,792,792,792,792,792,792,792,792,792,792,792,792,792,792,792,792,792,792,792,792,792,792,792,792,792,792,792,797,825,868,976,1025,1053,1070,1077],"ymouse":[643,643,643,643,643,643,643,643,643,643,643,643,643,643,643,643,643,643,643,643,643,643,643,643,643,643,643,643,643,643,643,643,643,643,643,643,643,617,547,470,280,195,142,114,94],"timestamp_mouse":[14,33,53,74,93,115,134,153,174,193,213,235,254,273,295,314,333,353,374,393,413,433,454,473,494,513,534,553,574,594,613,633,654,675,694,715,734,754,773,794,813,835,854,874,893],"xSR":741.5,"ySR":573.95,"xT1":424.9,"yT1":0,"xT2":1058.1,"yT2":0,"toosoon":0,"cond_shown":"randomdotsizeEA","ratio_trial":250,"smaller_num":"5","larger_num":"20","correct_side":2,"subjID":"LorenaGarcia8","gender":"1","age":"11","school":"6"},{"start_time":1551892613255,"click_time":1551892614468,"finger_time":1551892614169,"fix_duration":1065.158738337169,"trial":13,"RT":914,"MT":299,"sideResp":2,"stimulus":"img/750/equaldotanddens/R/7_Ratio_750_L_3_R_4.png","xmouse":[792,792,792,792,792,792,792,792,792,792,792,792,792,792,792,792,792,792,792,792,792,792,792,792,792,792,792,792,792,792,792,792,792,792,792,792,792,792,792,792,792,792,795,803,815,841,916,945,970,987,1002,1016,1038,1048,1062,1064,1071,1071,1072,1072,1073],"ymouse":[624,624,624,624,624,624,624,624,624,624,624,624,624,624,624,624,624,624,624,624,624,624,624,624,624,624,624,624,624,624,624,624,624,624,624,624,624,624,624,624,624,620,607,592,574,539,432,388,343,305,270,238,186,166,140,136,115,109,103,100,97],"timestamp_mouse":[18,48,53,74,93,113,134,154,173,194,214,234,253,273,295,314,334,353,375,393,414,434,454,473,495,513,533,555,574,593,614,634,654,675,693,714,735,753,774,793,815,834,853,874,894,914,933,953,974,995,1014,1033,1053,1074,1095,1115,1134,1153,1173,1193,1213],"xSR":741.5,"ySR":573.95,"xT1":424.9,"yT1":0,"xT2":1058.1,"yT2":0,"toosoon":0,"cond_shown":"equaldotanddens","ratio_trial":750,"smaller_num":"3","larger_num":"4","correct_side":2,"subjID":"LorenaGarcia8","gender":"1","age":"11","school":"6"},{"start_time":1551892616158,"click_time":1551892617209,"finger_time":1551892616948,"fix_duration":1088.0451992442847,"trial":14,"RT":790,"MT":261,"sideResp":2,"stimulus":"img/500/equaldotsize/R/2_Ratio_500_L_3_R_6.png","xmouse":[780,780,780,780,780,780,780,780,780,780,780,780,780,780,780,780,780,780,780,780,780,780,780,780,780,780,780,780,780,780,780,780,780,780,780,780,780,780,795,844,919,1007,1146,1180,1201,1209,1211,1212,1209,1202,1198,1188,1152],"ymouse":[629,629,629,629,629,629,629,629,629,629,629,629,629,629,629,629,629,629,629,629,629,629,629,629,629,629,629,629,629,629,629,629,629,629,629,629,629,629,611,557,476,389,230,189,165,153,146,136,128,108,93,74,34],"timestamp_mouse":[10,40,50,71,92,112,131,151,171,192,211,231,251,271,290,311,331,351,372,391,411,432,450,471,492,511,531,552,571,590,610,630,652,670,691,712,731,751,770,790,810,830,850,871,892,910,930,950,970,990,1010,1030,1051],"xSR":741.5,"ySR":573.95,"xT1":424.9,"yT1":0,"xT2":1058.1,"yT2":0,"toosoon":0,"cond_shown":"equaldotsize","ratio_trial":500,"smaller_num":"3","larger_num":"6","correct_side":2,"subjID":"LorenaGarcia8","gender":"1","age":"11","school":"6"},{"start_time":1551892619324,"click_time":1551892620229,"finger_time":1551892620009,"fix_duration":1335.0643401257673,"trial":15,"RT":685,"MT":220,"sideResp":1,"stimulus":"img/500/randomdotsizeEA/R/15_Ratio_500_L_1_R_2.png","xmouse":[787,787,787,787,787,787,787,787,787,787,787,787,787,787,787,787,787,787,787,787,787,787,787,787,787,787,787,787,787,787,787,786,781,775,745,718,680,641,612,559,554,552,549,546,527,512],"ymouse":[612,612,612,612,612,612,612,612,612,612,612,612,612,612,612,612,612,612,612,612,612,612,612,612,612,612,612,612,612,612,610,603,595,585,544,512,471,418,356,197,161,138,119,99,55,33],"timestamp_mouse":[11,24,47,66,86,105,125,145,164,184,205,224,244,266,285,305,326,344,365,385,404,426,445,464,486,504,524,545,566,584,604,624,645,665,685,705,724,745,765,784,804,824,845,865,884,905],"xSR":741.5,"ySR":573.95,"xT1":424.9,"yT1":0,"xT2":1058.1,"yT2":0,"toosoon":0,"cond_shown":"randomdotsizeEA","ratio_trial":500,"smaller_num":"1","larger_num":"2","correct_side":2,"subjID":"LorenaGarcia8","gender":"1","age":"11","school":"6"},{"start_time":1551892621625,"click_time":1551892622729,"finger_time":1551892622389,"fix_duration":674.0400484173645,"trial":16,"RT":764,"MT":340,"sideResp":2,"stimulus":"img/250/equaldotanddens/R/12_Ratio_250_L_5_R_20.png","xmouse":[810,810,810,810,810,810,810,810,810,810,810,810,810,810,810,810,810,810,810,810,810,810,810,810,810,810,810,810,810,810,810,810,810,810,810,810,810,816,854,916,979,1051,1073,1093,1110,1126,1128,1130,1133,1137,1141,1141,1141,1140,1140,1135],"ymouse":[648,648,648,648,648,648,648,648,648,648,648,648,648,648,648,648,648,648,648,648,648,648,648,648,648,648,648,648,648,648,648,648,648,648,648,648,648,638,599,534,470,369,329,295,263,222,208,195,177,146,121,114,111,108,105,92],"timestamp_mouse":[10,33,43,64,84,104,124,145,164,184,203,223,244,263,283,303,325,344,365,384,403,424,444,463,484,503,524,545,565,584,604,624,643,664,683,703,724,744,764,784,803,823,844,863,884,904,923,943,965,984,1003,1023,1043,1064,1084,1104],"xSR":741.5,"ySR":573.95,"xT1":424.9,"yT1":0,"xT2":1058.1,"yT2":0,"toosoon":0,"cond_shown":"equaldotanddens","ratio_trial":250,"smaller_num":"5","larger_num":"20","correct_side":2,"subjID":"LorenaGarcia8","gender":"1","age":"11","school":"6"},{"start_time":1551892624345,"click_time":1551892625208,"finger_time":1551892625050,"fix_duration":953.1285519315303,"trial":17,"RT":705,"MT":158,"sideResp":1,"stimulus":"img/900/equaldotanddens/L/10_Ratio_900_L_20_R_18.png","xmouse":[806,806,806,806,806,806,806,806,806,806,806,806,806,806,806,806,806,806,806,806,806,806,806,806,806,806,806,806,806,806,806,806,806,806,803,747,693,657,629,565,522,500,484,479],"ymouse":[603,603,603,603,603,603,603,603,603,603,603,603,603,603,603,603,603,603,603,603,603,603,603,603,603,603,603,603,603,603,603,603,603,603,603,566,534,500,457,323,220,157,117,86],"timestamp_mouse":[20,37,44,63,83,105,123,144,165,183,204,225,243,264,284,304,323,343,364,383,404,424,445,464,484,503,523,545,564,583,603,624,643,664,684,705,723,745,763,784,803,823,844,863],"xSR":741.5,"ySR":573.95,"xT1":424.9,"yT1":0,"xT2":1058.1,"yT2":0,"toosoon":0,"cond_shown":"equaldotanddens","ratio_trial":900,"smaller_num":"18","larger_num":"20","correct_side":1,"subjID":"LorenaGarcia8","gender":"1","age":"11","school":"6"},{"start_time":1551892626278,"click_time":1551892627668,"finger_time":1551892627269,"fix_duration":307.30943043124273,"trial":18,"RT":991,"MT":399,"sideResp":1,"stimulus":"img/500/randomdotsizeEA/L/4_Ratio_500_L_18_R_9.png","xmouse":[764,764,764,764,764,764,764,764,764,764,764,764,764,764,764,764,764,764,764,764,764,764,764,764,764,764,764,764,764,764,764,765,766,766,766,766,766,766,766,766,766,766,766,766,766,766,767,767,750,736,714,689,668,645,628,617,604,592,574,569,566,565,565,563,552,543,534,519,512,502],"ymouse":[641,641,641,641,641,641,641,641,641,641,641,641,641,641,641,641,641,641,641,641,641,641,641,641,641,641,641,641,641,641,641,640,640,640,640,640,640,640,640,640,640,640,640,640,640,640,638,636,612,592,564,526,496,453,415,381,332,288,219,201,193,191,190,182,166,154,141,119,106,90],"timestamp_mouse":[12,31,52,71,90,110,131,152,171,191,210,231,251,270,291,311,332,350,371,392,411,430,450,470,491,510,530,551,570,591,612,631,651,671,691,711,730,750,770,790,812,830,850,870,890,912,931,951,970,991,1010,1031,1051,1070,1090,1111,1132,1151,1170,1190,1210,1230,1250,1271,1292,1312,1330,1352,1370,1390],"xSR":741.5,"ySR":573.95,"xT1":424.9,"yT1":0,"xT2":1058.1,"yT2":0,"toosoon":0,"cond_shown":"randomdotsizeEA","ratio_trial":500,"smaller_num":"9","larger_num":"18","correct_side":1,"subjID":"LorenaGarcia8","gender":"1","age":"11","school":"6"},{"start_time":1551892630585,"click_time":1551892631769,"finger_time":1551892631389,"fix_duration":815.923885661541,"trial":19,"RT":804,"MT":380,"sideResp":1,"stimulus":"img/500/randomdotsizeEA/L/4_Ratio_500_L_18_R_9.png","xmouse":[798,798,798,798,798,798,798,798,798,798,798,798,798,798,798,798,798,798,798,798,798,798,798,798,798,798,798,798,798,798,798,798,798,798,798,798,798,798,797,777,736,686,627,533,498,468,439,408,376,373,373,375,378,385,392,399,405,412,420,442],"ymouse":[652,652,652,652,652,652,652,652,652,652,652,652,652,652,652,652,652,652,652,652,652,652,652,652,652,652,652,652,652,652,652,652,652,652,652,652,652,652,650,627,581,520,459,352,297,244,182,109,13,0,0,0,0,0,0,0,0,0,4,25],"timestamp_mouse":[8,23,45,63,83,103,123,143,164,183,205,223,245,264,284,303,323,345,363,383,403,424,443,464,484,503,525,544,563,585,604,623,644,663,685,703,723,743,764,784,804,823,845,863,884,903,923,945,964,984,1004,1024,1043,1063,1083,1104,1123,1144,1164,1184],"xSR":741.5,"ySR":573.95,"xT1":424.9,"yT1":0,"xT2":1058.1,"yT2":0,"toosoon":0,"cond_shown":"randomdotsizeEA","ratio_trial":500,"smaller_num":"9","larger_num":"18","correct_side":1,"subjID":"LorenaGarcia8","gender":"1","age":"11","school":"6"},{"start_time":1551892633627,"click_time":1551892634609,"finger_time":1551892634449,"fix_duration":1177.5342671859996,"trial":20,"RT":822,"MT":160,"sideResp":1,"stimulus":"img/900/randomdotsizeEA/L/1_Ratio_900_L_10_R_9.png","xmouse":[805,805,805,805,805,805,805,805,805,805,805,805,805,805,805,805,805,805,805,805,805,805,805,805,805,805,805,805,805,805,805,805,805,805,805,805,805,805,805,798,787,713,671,611,571,530,468,454,447,446],"ymouse":[633,633,633,633,633,633,633,633,633,633,633,633,633,633,633,633,633,633,633,633,633,633,633,633,633,633,633,633,633,633,633,633,633,633,633,633,633,633,633,625,611,534,486,396,327,262,165,130,105,89],"timestamp_mouse":[8,22,41,61,82,101,123,142,162,183,201,222,243,261,282,302,321,341,363,383,402,422,443,462,481,502,523,543,561,583,601,621,642,663,682,702,722,743,762,781,802,822,842,861,881,902,922,941,961,982],"xSR":741.5,"ySR":573.95,"xT1":424.9,"yT1":0,"xT2":1058.1,"yT2":0,"toosoon":0,"cond_shown":"randomdotsizeEA","ratio_trial":900,"smaller_num":"9","larger_num":"10","correct_side":1,"subjID":"LorenaGarcia8","gender":"1","age":"11","school":"6"},{"start_time":1551892636370,"click_time":1551892637169,"finger_time":1551892637009,"fix_duration":1060.2909237703386,"trial":21,"RT":639,"MT":160,"sideResp":1,"stimulus":"img/500/equaldotsize/L/4_Ratio_500_L_18_R_9.png","xmouse":[779,779,779,779,779,779,779,779,779,779,779,779,779,779,779,779,779,779,779,779,779,779,779,779,779,779,779,779,779,779,766,751,710,678,613,568,545,527,521,520],"ymouse":[619,619,619,619,619,619,619,619,619,619,619,619,619,619,619,619,619,619,619,619,619,619,619,619,619,619,619,619,619,619,594,568,510,466,377,295,227,154,103,65],"timestamp_mouse":[31,40,59,79,98,119,138,159,179,199,218,239,259,278,298,318,339,358,379,399,419,439,459,479,499,519,539,560,580,598,620,639,660,679,700,719,739,759,779,799],"xSR":741.5,"ySR":573.95,"xT1":424.9,"yT1":0,"xT2":1058.1,"yT2":0,"toosoon":0,"cond_shown":"equaldotsize","ratio_trial":500,"smaller_num":"9","larger_num":"18","correct_side":1,"subjID":"LorenaGarcia8","gender":"1","age":"11","school":"6"},{"start_time":1551892638839,"click_time":1551892639910,"finger_time":1551892639669,"fix_duration":748.1569297800496,"trial":22,"RT":830,"MT":241,"sideResp":2,"stimulus":"img/500/randomdotsizeEA/R/15_Ratio_500_L_1_R_2.png","xmouse":[807,807,807,807,807,807,807,807,807,807,807,807,807,807,807,807,807,807,807,807,807,807,807,807,807,807,807,807,807,807,807,807,807,807,807,807,807,807,807,807,807,861,907,949,994,1025,1076,1091,1094,1094,1094,1093,1088,1083],"ymouse":[642,642,642,642,642,642,642,642,642,642,642,642,642,642,642,642,642,642,642,642,642,642,642,642,642,642,642,642,642,642,642,642,642,642,642,642,642,642,642,642,642,581,508,460,400,346,256,209,179,162,143,116,104,95],"timestamp_mouse":[10,33,51,70,91,111,130,149,171,190,209,230,251,270,291,311,329,349,370,390,410,430,450,469,490,510,530,550,571,590,611,630,651,671,690,709,730,750,771,789,811,830,849,869,890,909,930,951,970,990,1010,1030,1050,1071],"xSR":741.5,"ySR":573.95,"xT1":424.9,"yT1":0,"xT2":1058.1,"yT2":0,"toosoon":0,"cond_shown":"randomdotsizeEA","ratio_trial":500,"smaller_num":"1","larger_num":"2","correct_side":2,"subjID":"LorenaGarcia8","gender":"1","age":"11","school":"6"},{"start_time":1551892640861,"click_time":1551892641830,"finger_time":1551892641730,"fix_duration":250,"trial":23,"RT":869,"MT":100,"sideResp":2,"stimulus":"img/250/randomdotsizeEA/R/10_Ratio_250_L_4_R_16.png","xmouse":[797,797,797,797,797,797,797,797,797,797,797,797,797,797,797,797,797,797,797,797,797,797,797,797,797,797,797,797,797,797,797,797,797,797,797,797,797,797,797,797,797,804,823,855,894,959,997,1038,1065],"ymouse":[639,639,639,639,639,639,639,639,639,639,639,639,639,639,639,639,639,639,639,639,639,639,639,639,639,639,639,639,639,639,639,639,639,639,639,639,639,639,639,639,639,629,597,529,435,282,198,119,71],"timestamp_mouse":[9,28,54,68,88,107,127,149,168,189,208,228,248,267,289,308,328,349,369,389,408,428,448,468,488,507,528,549,568,587,607,628,649,669,688,707,728,748,768,788,808,828,848,869,889,908,929,947,969],"xSR":741.5,"ySR":573.95,"xT1":424.9,"yT1":0,"xT2":1058.1,"yT2":0,"toosoon":0,"cond_shown":"randomdotsizeEA","ratio_trial":250,"smaller_num":"4","larger_num":"16","correct_side":2,"subjID":"LorenaGarcia8","gender":"1","age":"11","school":"6"},{"start_time":1551892643782,"click_time":1551892644910,"finger_time":1551892644588,"fix_duration":1150.443741888701,"trial":24,"RT":806,"MT":322,"sideResp":1,"stimulus":"img/750/equaldotanddens/L/14_Ratio_750_L_8_R_6.png","xmouse":[779,779,779,779,779,779,779,779,779,779,779,779,779,779,779,779,779,779,779,779,779,779,779,779,779,779,779,779,779,779,779,779,779,779,779,779,779,776,770,749,631,598,581,567,554,538,536,534,533,531,531,529,527,523,518,506,503],"ymouse":[646,646,646,646,646,646,646,646,646,646,646,646,646,646,646,646,646,646,646,646,646,646,646,646,646,646,646,646,646,646,646,646,646,646,646,646,646,640,626,582,408,359,328,296,257,197,182,170,161,156,152,143,135,126,116,100,96],"timestamp_mouse":[10,37,47,66,88,107,128,147,167,188,208,227,247,267,287,307,327,347,367,387,407,428,447,468,488,508,528,548,566,588,608,628,646,667,687,708,727,746,768,787,806,828,847,866,888,907,927,947,968,987,1008,1027,1047,1066,1087,1107,1128],"xSR":741.5,"ySR":573.95,"xT1":424.9,"yT1":0,"xT2":1058.1,"yT2":0,"toosoon":0,"cond_shown":"equaldotanddens","ratio_trial":750,"smaller_num":"6","larger_num":"8","correct_side":1,"subjID":"LorenaGarcia8","gender":"1","age":"11","school":"6"},{"start_time":1551892646290,"click_time":1551892647089,"finger_time":1551892646989,"fix_duration":598.1143143710283,"trial":25,"RT":699,"MT":100,"sideResp":1,"stimulus":"img/500/randomdotsizeEA/L/8_Ratio_500_L_8_R_4.png","xmouse":[788,788,788,788,788,788,788,788,788,788,788,788,788,788,788,788,788,788,788,788,788,788,788,788,788,788,788,788,788,788,788,788,788,781,676,615,551,496,456,427],"ymouse":[609,609,609,609,609,609,609,609,609,609,609,609,609,609,609,609,609,609,609,609,609,609,609,609,609,609,609,609,609,609,609,609,607,596,441,354,262,176,106,39],"timestamp_mouse":[27,39,59,80,100,119,140,160,180,199,219,240,259,278,300,320,340,358,380,399,419,439,458,479,499,519,539,560,580,600,619,640,659,678,699,719,739,758,780,799],"xSR":741.5,"ySR":573.95,"xT1":424.9,"yT1":0,"xT2":1058.1,"yT2":0,"toosoon":0,"cond_shown":"randomdotsizeEA","ratio_trial":500,"smaller_num":"4","larger_num":"8","correct_side":1,"subjID":"LorenaGarcia8","gender":"1","age":"11","school":"6"},{"start_time":1551892649140,"click_time":1551892649989,"finger_time":1551892649809,"fix_duration":1450.368464296108,"trial":26,"RT":669,"MT":180,"sideResp":2,"stimulus":"img/750/equaldotsize/R/12_Ratio_750_L_3_R_4.png","xmouse":[778,778,778,778,778,778,778,778,778,778,778,778,778,778,778,778,778,778,778,778,778,778,778,778,778,778,778,778,778,779,781,784,799,809,822,844,868,911,1033,1079,1116,1137,1143],"ymouse":[648,648,648,648,648,648,648,648,648,648,648,648,648,648,648,648,648,648,648,648,648,648,648,648,648,648,648,648,648,645,636,627,596,572,545,505,451,377,234,183,146,115,95],"timestamp_mouse":[10,33,48,69,89,108,129,149,170,189,209,229,248,270,289,309,329,350,368,390,409,430,449,468,490,509,528,549,569,589,609,630,649,669,689,709,729,748,769,789,808,829,849],"xSR":741.5,"ySR":573.95,"xT1":424.9,"yT1":0,"xT2":1058.1,"yT2":0,"toosoon":0,"cond_shown":"equaldotsize","ratio_trial":750,"smaller_num":"3","larger_num":"4","correct_side":2,"subjID":"LorenaGarcia8","gender":"1","age":"11","school":"6"},{"start_time":1551892652412,"click_time":1551892653989,"finger_time":1551892653229,"fix_duration":280.7649905820221,"trial":27,"RT":817,"MT":760,"sideResp":1,"stimulus":"img/750/randomdotsizeEA/L/14_Ratio_750_L_8_R_6.png","xmouse":[807,807,807,807,807,807,807,807,807,807,807,807,807,807,807,807,807,807,807,807,807,807,807,807,807,807,807,807,807,807,807,807,807,807,807,807,807,807,822,835,847,861,873,878,883,884,884,884,885,887,893,899,913,942,957,960,963,963,963,960,946,917,871,782,753,721,700,684,662,601,580,552,533,523,518,516,514,511,504],"ymouse":[641,641,641,641,641,641,641,641,641,641,641,641,641,641,641,641,641,641,641,641,641,641,641,641,641,641,641,641,641,641,641,641,641,641,641,641,641,640,620,601,579,547,524,514,499,496,495,495,493,489,477,460,437,387,359,353,342,340,340,339,346,363,392,433,437,436,427,414,395,327,292,249,212,185,142,132,122,111,99],"timestamp_mouse":[31,37,58,76,98,118,137,157,178,197,218,237,256,278,296,318,338,358,377,397,418,438,457,477,497,517,538,557,578,597,617,638,658,677,698,717,737,757,778,797,817,836,857,877,897,916,938,957,978,997,1017,1036,1057,1078,1097,1118,1137,1156,1177,1196,1217,1237,1257,1278,1297,1318,1336,1356,1376,1396,1417,1437,1457,1477,1496,1518,1537,1556,1576],"xSR":741.5,"ySR":573.95,"xT1":424.9,"yT1":0,"xT2":1058.1,"yT2":0,"toosoon":0,"cond_shown":"randomdotsizeEA","ratio_trial":750,"smaller_num":"6","larger_num":"8","correct_side":1,"subjID":"LorenaGarcia8","gender":"1","age":"11","school":"6"},{"start_time":1551892655251,"click_time":1551892656190,"finger_time":1551892655908,"fix_duration":701.0346884066325,"trial":28,"RT":657,"MT":282,"sideResp":1,"stimulus":"img/250/equaldotanddens/L/1_Ratio_250_L_8_R_2.png","xmouse":[816,816,816,816,816,816,816,816,816,816,816,816,816,816,816,816,816,816,816,816,816,816,816,816,816,816,816,816,816,816,805,795,660,579,496,436,408,393,392,396,400,401,409,412,417,422,426],"ymouse":[650,650,650,650,650,650,650,650,650,650,650,650,650,650,650,650,650,650,650,650,650,650,650,650,650,650,650,650,650,650,643,632,460,385,318,262,225,177,155,134,120,111,94,86,78,72,68],"timestamp_mouse":[21,38,58,78,98,118,137,158,179,197,217,237,258,278,298,319,338,359,379,398,418,438,458,478,499,517,538,559,577,599,619,639,657,678,698,718,738,757,778,798,818,839,858,878,898,918,939],"xSR":741.5,"ySR":573.95,"xT1":424.9,"yT1":0,"xT2":1058.1,"yT2":0,"toosoon":0,"cond_shown":"equaldotanddens","ratio_trial":250,"smaller_num":"2","larger_num":"8","correct_side":1,"subjID":"LorenaGarcia8","gender":"1","age":"11","school":"6"},{"start_time":1551892657242,"click_time":1551892658329,"finger_time":1551892658069,"fix_duration":311.63449775102816,"trial":29,"RT":827,"MT":260,"sideResp":1,"stimulus":"img/750/randomdotsizeEA/R/7_Ratio_750_L_3_R_4.png","xmouse":[794,794,794,794,794,794,794,794,794,794,794,794,794,794,794,794,794,794,794,794,794,794,794,794,794,794,794,794,794,794,794,794,794,794,794,794,794,794,794,786,763,729,690,671,669,669,669,669,669,667,661,652,615,516,442],"ymouse":[618,618,618,618,618,618,618,618,618,618,618,618,618,618,618,618,618,618,618,618,618,618,618,618,618,618,618,618,618,618,618,618,618,618,618,618,618,618,618,613,585,545,489,463,459,458,458,458,458,454,438,415,340,181,83],"timestamp_mouse":[7,29,48,68,87,107,127,147,167,188,207,227,248,267,287,307,328,347,368,388,407,427,447,467,487,507,527,548,567,587,607,627,646,667,687,708,726,747,767,788,808,827,846,867,887,907,928,947,967,987,1007,1027,1048,1067,1087],"xSR":741.5,"ySR":573.95,"xT1":424.9,"yT1":0,"xT2":1058.1,"yT2":0,"toosoon":0,"cond_shown":"randomdotsizeEA","ratio_trial":750,"smaller_num":"3","larger_num":"4","correct_side":2,"subjID":"LorenaGarcia8","gender":"1","age":"11","school":"6"},{"start_time":1551892660284,"click_time":1551892660989,"finger_time":1551892660849,"fix_duration":1234.8608785821639,"trial":30,"RT":565,"MT":140,"sideResp":1,"stimulus":"img/500/equaldotsize/L/8_Ratio_500_L_8_R_4.png","xmouse":[804,804,804,804,804,804,804,804,804,804,804,804,804,804,804,804,804,804,804,804,804,804,804,804,804,804,801,781,734,680,619,508,468,442,432,430],"ymouse":[632,632,632,632,632,632,632,632,632,632,632,632,632,632,632,632,632,632,632,632,632,632,632,632,632,631,630,620,583,528,455,283,201,142,112,94],"timestamp_mouse":[15,25,44,65,85,105,126,145,164,185,205,225,245,265,285,306,326,346,364,386,405,425,446,465,486,504,526,546,565,585,604,626,644,676,685,705],"xSR":741.5,"ySR":573.95,"xT1":424.9,"yT1":0,"xT2":1058.1,"yT2":0,"toosoon":0,"cond_shown":"equaldotsize","ratio_trial":500,"smaller_num":"4","larger_num":"8","correct_side":1,"subjID":"LorenaGarcia8","gender":"1","age":"11","school":"6"},{"start_time":1551892663086,"click_time":1551892664269,"finger_time":1551892664049,"fix_duration":1495.83508320057,"trial":31,"RT":963,"MT":220,"sideResp":2,"stimulus":"img/500/equaldotsize/R/12_Ratio_500_L_1_R_2.png","xmouse":[779,779,779,779,779,779,779,779,779,779,779,779,779,779,779,779,779,779,779,779,779,779,779,779,779,779,779,779,779,779,779,779,779,779,779,779,779,779,779,779,779,779,779,779,779,780,784,820,849,892,946,997,1070,1090,1100,1105,1105,1104,1104,1103],"ymouse":[621,621,621,621,621,621,621,621,621,621,621,621,621,621,621,621,621,621,621,621,621,621,621,621,621,621,621,621,621,621,621,621,621,621,621,621,621,621,621,621,621,621,621,621,621,620,618,591,568,517,433,357,203,157,129,113,107,104,102,97],"timestamp_mouse":[10,24,44,63,83,104,123,144,164,183,202,223,244,263,283,303,323,344,364,384,403,424,444,463,483,503,524,544,563,582,602,623,643,662,683,703,723,743,764,783,802,824,843,863,883,902,923,943,963,982,1003,1022,1043,1063,1082,1103,1122,1143,1163,1183],"xSR":741.5,"ySR":573.95,"xT1":424.9,"yT1":0,"xT2":1058.1,"yT2":0,"toosoon":0,"cond_shown":"equaldotsize","ratio_trial":500,"smaller_num":"1","larger_num":"2","correct_side":2,"subjID":"LorenaGarcia8","gender":"1","age":"11","school":"6"},{"start_time":1551892666016,"click_time":1551892667949,"finger_time":1551892667549,"fix_duration":1086.6101825575104,"trial":32,"RT":1533,"MT":400,"sideResp":2,"stimulus":"img/900/equaldotsize/R/11_Ratio_900_L_18_R_20.png","xmouse":[763,765,765,766,766,768,769,772,776,809,818,821,821,821,821,821,821,821,821,821,821,820,820,819,818,818,818,818,818,818,818,818,818,818,818,818,818,818,818,818,818,819,820,822,824,824,824,824,824,824,824,824,824,824,824,824,824,824,824,824,824,824,824,824,824,824,824,824,824,824,824,824,824,824,834,845,855,862,867,867,867,867,866,863,852,850,850,850,850,858,877,907,947,991,1082,1108],"ymouse":[621,621,621,621,621,621,621,621,621,604,601,600,600,600,600,600,600,600,600,603,605,608,611,614,618,618,620,620,620,620,620,620,620,620,620,620,620,620,620,620,620,619,618,617,614,614,614,614,614,614,614,614,614,614,614,614,614,614,613,611,611,611,611,611,611,611,611,611,611,611,611,611,610,608,599,589,580,573,565,564,564,564,565,568,579,584,585,585,585,578,554,513,438,359,151,90],"timestamp_mouse":[35,54,73,92,113,133,152,174,192,213,233,254,273,293,312,332,353,373,393,413,432,453,473,494,513,533,553,573,594,612,634,653,673,694,714,733,753,773,793,814,833,852,873,892,913,933,954,972,994,1014,1033,1053,1073,1092,1114,1134,1153,1173,1192,1212,1233,1254,1273,1293,1313,1333,1353,1373,1393,1413,1432,1454,1473,1493,1513,1533,1553,1573,1593,1614,1634,1654,1674,1693,1714,1734,1753,1773,1793,1813,1833,1852,1874,1893,1913,1933],"xSR":741.5,"ySR":573.95,"xT1":424.9,"yT1":0,"xT2":1058.1,"yT2":0,"toosoon":0,"cond_shown":"equaldotsize","ratio_trial":900,"smaller_num":"18","larger_num":"20","correct_side":2,"subjID":"LorenaGarcia8","gender":"1","age":"11","school":"6"},{"start_time":1551892670163,"click_time":1551892671710,"finger_time":1551892670929,"fix_duration":1413.5019269422733,"trial":33,"RT":766,"MT":781,"sideResp":1,"stimulus":"img/750/equaldotanddens/L/10_Ratio_750_L_4_R_3.png","xmouse":[793,793,792,792,792,792,792,792,792,792,792,792,792,792,792,792,792,792,792,792,792,792,792,792,792,792,791,791,791,791,791,791,791,791,791,789,782,772,761,721,708,690,671,653,617,606,597,588,580,552,543,536,533,531,524,521,519,517,517,514,514,513,513,511,511,511,511,512,514,517,517,517,517,517,517,512,504,495],"ymouse":[622,622,623,623,623,623,623,623,623,623,623,623,623,623,623,623,623,623,623,623,623,623,623,623,623,623,624,625,625,625,625,625,625,625,625,624,610,590,566,494,469,440,408,372,306,285,266,250,236,196,183,169,155,140,117,108,105,103,102,101,101,101,101,101,105,117,129,142,150,154,154,154,154,151,136,121,106,91],"timestamp_mouse":[10,30,47,66,86,107,126,147,166,187,207,226,246,267,286,307,326,347,366,385,406,427,445,467,486,506,526,545,566,586,605,627,646,666,686,707,726,747,766,787,806,826,846,867,886,907,925,947,966,985,1007,1026,1047,1066,1087,1107,1126,1146,1165,1186,1207,1226,1246,1265,1285,1306,1326,1346,1365,1386,1406,1427,1445,1466,1486,1506,1526,1547],"xSR":741.5,"ySR":573.95,"xT1":424.9,"yT1":0,"xT2":1058.1,"yT2":0,"toosoon":0,"cond_shown":"equaldotanddens","ratio_trial":750,"smaller_num":"3","larger_num":"4","correct_side":1,"subjID":"LorenaGarcia8","gender":"1","age":"11","school":"6"},{"start_time":1551892672857,"click_time":1551892673949,"finger_time":1551892673550,"fix_duration":385.059363657429,"trial":34,"RT":693,"MT":399,"sideResp":2,"stimulus":"img/750/equaldotsize/R/11_Ratio_750_L_12_R_16.png","xmouse":[763,763,763,763,763,763,763,763,763,763,763,763,763,763,763,763,763,763,763,763,763,763,763,763,764,764,764,764,767,770,773,776,780,788,833,862,889,929,1011,1043,1064,1074,1079,1083,1088,1091,1093,1094,1094,1094,1093,1092,1090,1089,1089],"ymouse":[626,626,626,626,626,626,626,626,626,626,626,626,626,626,626,626,626,626,626,626,626,626,626,626,626,626,626,626,624,621,618,616,613,605,558,526,490,444,345,299,252,217,192,171,152,145,138,133,127,118,114,110,107,103,99],"timestamp_mouse":[20,37,51,73,93,112,133,152,172,193,213,233,252,272,292,313,333,352,373,393,413,433,451,471,492,512,531,552,573,592,612,633,652,673,693,712,732,751,773,791,812,831,851,872,892,912,932,952,972,991,1012,1032,1052,1071,1092],"xSR":741.5,"ySR":573.95,"xT1":424.9,"yT1":0,"xT2":1058.1,"yT2":0,"toosoon":0,"cond_shown":"equaldotsize","ratio_trial":750,"smaller_num":"12","larger_num":"16","correct_side":2,"subjID":"LorenaGarcia8","gender":"1","age":"11","school":"6"},{"start_time":1551892675601,"click_time":1551892676789,"finger_time":1551892676570,"fix_duration":949.5386610695928,"trial":35,"RT":969,"MT":219,"sideResp":1,"stimulus":"img/750/equaldotanddens/L/8_Ratio_750_L_4_R_3.png","xmouse":[786,786,786,786,786,786,786,786,786,786,786,786,786,786,786,786,786,786,786,786,786,786,786,786,786,786,786,786,786,786,786,786,786,786,786,786,786,786,786,786,786,786,786,786,786,786,784,774,765,749,728,697,622,593,567,550,538,532,529,524],"ymouse":[640,640,640,640,640,640,640,640,640,640,640,640,640,640,640,640,640,640,640,640,640,640,640,640,640,640,640,640,640,640,640,640,640,640,640,640,640,640,640,640,640,640,640,640,640,640,634,600,568,524,473,415,284,222,174,141,112,92,83,74],"timestamp_mouse":[10,31,48,67,89,108,129,148,169,187,209,228,248,269,287,308,328,347,369,388,408,429,448,469,488,508,528,549,569,587,608,629,648,669,687,708,729,748,768,787,808,828,847,869,889,908,928,948,969,987,1008,1029,1047,1069,1088,1109,1129,1147,1168,1188],"xSR":741.5,"ySR":573.95,"xT1":424.9,"yT1":0,"xT2":1058.1,"yT2":0,"toosoon":0,"cond_shown":"equaldotanddens","ratio_trial":750,"smaller_num":"3","larger_num":"4","correct_side":1,"subjID":"LorenaGarcia8","gender":"1","age":"11","school":"6"},{"start_time":1551892678075,"click_time":1551892679409,"finger_time":1551892678949,"fix_duration":644.7883045944512,"trial":36,"RT":874,"MT":460,"sideResp":1,"stimulus":"img/750/randomdotsizeEA/R/4_Ratio_750_L_15_R_20.png","xmouse":[823,823,823,823,823,823,823,823,823,823,823,823,823,823,823,823,823,823,823,823,823,823,823,823,823,823,823,823,823,823,823,823,823,823,823,823,823,823,823,823,823,824,832,875,894,907,910,911,911,911,911,910,908,900,876,859,838,817,790,783,770,738,709,645,613,565,520],"ymouse":[632,632,632,632,632,632,632,632,632,632,632,632,632,632,632,632,632,632,632,632,632,632,632,632,632,632,632,632,632,632,632,632,632,632,632,632,632,632,632,632,632,632,628,576,553,533,524,520,520,520,520,521,521,525,535,542,551,556,561,561,549,508,464,352,292,207,97],"timestamp_mouse":[15,38,55,74,95,114,133,153,174,195,214,234,254,275,294,314,334,354,375,394,414,434,454,475,494,514,534,554,574,593,613,634,654,675,694,713,734,755,774,795,814,834,854,874,894,914,934,954,974,993,1014,1035,1055,1074,1094,1115,1135,1155,1175,1194,1215,1234,1254,1274,1294,1314,1334],"xSR":741.5,"ySR":573.95,"xT1":424.9,"yT1":0,"xT2":1058.1,"yT2":0,"toosoon":0,"cond_shown":"randomdotsizeEA","ratio_trial":750,"smaller_num":"15","larger_num":"20","correct_side":2,"subjID":"LorenaGarcia8","gender":"1","age":"11","school":"6"},{"start_time":1551892681631,"click_time":1551892682389,"finger_time":1551892682289,"fix_duration":1240.494869432955,"trial":37,"RT":658,"MT":100,"sideResp":1,"stimulus":"img/250/equaldotsize/L/15_Ratio_250_L_12_R_3.png","xmouse":[792,792,792,792,792,792,792,792,792,792,792,792,792,792,792,792,792,792,792,792,792,792,792,792,792,792,792,792,792,792,792,777,749,721,682,639,531,486],"ymouse":[658,658,658,658,658,658,658,658,658,658,658,658,658,658,658,658,658,658,658,658,658,658,658,658,658,658,658,658,658,658,656,614,552,485,411,321,107,12],"timestamp_mouse":[19,38,59,79,99,119,139,157,178,199,217,238,258,277,299,318,338,359,378,399,418,438,457,479,498,518,538,558,578,597,619,637,658,677,698,719,737,758],"xSR":741.5,"ySR":573.95,"xT1":424.9,"yT1":0,"xT2":1058.1,"yT2":0,"toosoon":0,"cond_shown":"equaldotsize","ratio_trial":250,"smaller_num":"3","larger_num":"12","correct_side":1,"subjID":"LorenaGarcia8","gender":"1","age":"11","school":"6"},{"start_time":1551892684157,"click_time":1551892685429,"finger_time":1551892685070,"fix_duration":1047.695170705756,"trial":38,"RT":913,"MT":359,"sideResp":2,"stimulus":"img/250/equaldotanddens/R/8_Ratio_250_L_1_R_4.png","xmouse":[780,780,780,780,780,780,780,780,780,780,780,780,780,780,780,780,780,780,780,780,780,780,780,780,780,780,780,780,780,780,780,780,780,780,780,780,780,780,780,780,780,780,781,792,815,901,947,983,1008,1023,1028,1028,1026,1023,1023,1023,1023,1024,1026,1029,1037,1043,1052,1061],"ymouse":[649,649,649,649,649,649,649,649,649,649,649,649,649,649,649,649,649,649,649,649,649,649,649,649,649,649,649,649,649,649,649,649,649,649,649,649,649,649,649,649,649,649,649,642,627,536,464,397,343,294,243,213,201,173,161,136,128,122,117,113,108,105,102,98],"timestamp_mouse":[15,44,51,73,93,112,133,152,172,192,212,232,252,272,293,312,331,351,373,392,411,433,451,472,492,512,533,552,572,592,612,632,651,672,692,711,731,752,773,792,813,832,852,872,893,913,932,953,973,991,1013,1032,1052,1073,1092,1112,1131,1152,1172,1192,1213,1231,1252,1272],"xSR":741.5,"ySR":573.95,"xT1":424.9,"yT1":0,"xT2":1058.1,"yT2":0,"toosoon":0,"cond_shown":"equaldotanddens","ratio_trial":250,"smaller_num":"1","larger_num":"4","correct_side":2,"subjID":"LorenaGarcia8","gender":"1","age":"11","school":"6"},{"start_time":1551892686998,"click_time":1551892688009,"finger_time":1551892687749,"fix_duration":667.9174419409566,"trial":39,"RT":751,"MT":260,"sideResp":2,"stimulus":"img/500/equaldotanddens/R/1_Ratio_500_L_9_R_18.png","xmouse":[812,812,812,812,812,812,812,812,812,812,812,812,812,812,812,812,812,812,812,812,812,812,812,812,812,812,812,812,812,812,812,812,812,812,817,827,838,852,899,933,970,1009,1021,1030,1038,1041,1043,1047,1064,1067,1067],"ymouse":[618,618,618,618,618,618,618,618,618,618,618,618,618,618,618,618,618,618,618,618,618,618,618,618,618,618,618,618,618,618,618,618,618,618,614,606,596,579,490,424,370,310,288,273,248,234,219,196,134,103,64],"timestamp_mouse":[11,32,50,72,91,112,131,151,171,192,212,232,252,271,291,311,331,352,371,390,412,432,452,471,492,511,532,550,572,590,611,630,652,671,691,712,732,751,772,791,811,832,852,871,892,911,931,952,972,991,1010],"xSR":741.5,"ySR":573.95,"xT1":424.9,"yT1":0,"xT2":1058.1,"yT2":0,"toosoon":0,"cond_shown":"equaldotanddens","ratio_trial":500,"smaller_num":"9","larger_num":"18","correct_side":2,"subjID":"LorenaGarcia8","gender":"1","age":"11","school":"6"},{"start_time":1551892690002,"click_time":1551892691689,"finger_time":1551892690970,"fix_duration":1290.4388525467016,"trial":40,"RT":968,"MT":719,"sideResp":1,"stimulus":"img/900/equaldotsize/R/9_Ratio_900_L_18_R_20.png","xmouse":[783,783,783,783,783,783,783,783,783,783,783,783,783,783,783,783,783,783,783,783,783,783,783,783,783,783,783,783,783,783,783,783,783,783,783,783,780,778,775,774,774,774,774,774,777,780,785,798,824,915,932,945,957,965,979,991,1006,1022,1046,1076,1077,1077,1077,1076,1070,1060,1045,1018,953,823,760,706,659,604,540,521,512,510,510,512,514,515,518,520,513],"ymouse":[628,628,628,628,628,628,628,628,628,628,628,628,628,628,628,628,628,628,628,628,628,628,628,628,628,628,628,628,628,628,628,628,628,628,628,628,627,623,618,613,611,610,608,606,600,599,594,584,560,463,442,427,411,398,375,358,342,325,306,280,275,270,266,265,264,264,267,279,306,342,350,350,336,307,261,245,236,230,227,218,211,200,181,157,66],"timestamp_mouse":[12,27,48,68,87,107,127,147,168,187,207,227,246,267,287,307,326,347,368,386,408,427,446,468,488,508,527,548,567,586,607,626,647,668,686,707,727,747,768,787,806,827,847,867,886,906,928,947,968,987,1007,1026,1047,1068,1087,1106,1127,1147,1167,1186,1207,1227,1248,1267,1287,1306,1326,1347,1367,1386,1408,1427,1447,1466,1487,1508,1528,1546,1567,1587,1607,1628,1648,1668,1687],"xSR":741.5,"ySR":573.95,"xT1":424.9,"yT1":0,"xT2":1058.1,"yT2":0,"toosoon":0,"cond_shown":"equaldotsize","ratio_trial":900,"smaller_num":"18","larger_num":"20","correct_side":2,"subjID":"LorenaGarcia8","gender":"1","age":"11","school":"6"},{"start_time":1551892693116,"click_time":1551892694010,"finger_time":1551892693808,"fix_duration":705.6083383589429,"trial":41,"RT":692,"MT":202,"sideResp":1,"stimulus":"img/900/randomdotsizeEA/R/3_Ratio_900_L_9_R_10.png","xmouse":[805,805,805,805,805,805,805,805,805,806,807,808,809,812,813,814,814,814,814,814,814,814,814,814,814,814,814,814,814,814,814,814,814,784,734,667,587,503,400,389,385,385,391,411,425],"ymouse":[657,657,657,657,657,657,657,657,657,658,658,657,654,648,647,645,645,645,645,645,645,645,645,645,645,645,645,645,645,645,645,645,644,608,549,468,374,280,141,109,89,86,80,79,81],"timestamp_mouse":[13,34,53,73,94,112,133,153,173,193,213,232,254,273,294,313,333,354,372,392,414,434,452,474,494,513,534,553,573,593,613,633,654,673,692,712,733,753,772,794,813,833,853,873,894],"xSR":741.5,"ySR":573.95,"xT1":424.9,"yT1":0,"xT2":1058.1,"yT2":0,"toosoon":0,"cond_shown":"randomdotsizeEA","ratio_trial":900,"smaller_num":"9","larger_num":"10","correct_side":2,"subjID":"LorenaGarcia8","gender":"1","age":"11","school":"6"},{"start_time":1551892695719,"click_time":1551892696630,"finger_time":1551892696390,"fix_duration":888.4649639558662,"trial":42,"RT":671,"MT":240,"sideResp":2,"stimulus":"img/500/equaldotanddens/R/3_Ratio_500_L_10_R_20.png","xmouse":[803,803,803,803,803,803,803,803,803,803,803,803,803,803,803,803,803,803,803,803,803,803,803,803,803,803,803,803,803,803,803,805,809,845,880,919,962,1002,1068,1088,1102,1113,1121,1139,1150,1153],"ymouse":[614,614,614,614,614,614,614,614,614,614,614,614,614,614,614,614,614,614,614,614,614,614,614,614,614,614,614,614,614,614,614,613,609,591,571,542,508,464,373,331,301,267,238,140,116,99],"timestamp_mouse":[11,30,50,70,90,110,129,150,170,191,210,230,250,269,290,309,329,350,370,390,410,430,450,471,489,511,529,549,570,590,609,630,650,671,690,710,731,750,770,790,810,830,850,870,890,911],"xSR":741.5,"ySR":573.95,"xT1":424.9,"yT1":0,"xT2":1058.1,"yT2":0,"toosoon":0,"cond_shown":"equaldotanddens","ratio_trial":500,"smaller_num":"10","larger_num":"20","correct_side":2,"subjID":"LorenaGarcia8","gender":"1","age":"11","school":"6"},{"start_time":1551892697963,"click_time":1551892698909,"finger_time":1551892698568,"fix_duration":453.8549129299122,"trial":43,"RT":605,"MT":341,"sideResp":1,"stimulus":"img/500/equaldotsize/L/7_Ratio_500_L_10_R_5.png","xmouse":[804,804,804,804,804,804,804,804,804,804,804,804,804,804,804,804,804,804,804,804,804,804,804,804,804,804,804,803,793,781,758,716,610,579,567,561,559,559,559,561,561,561,556,547,538,531,526,499],"ymouse":[635,635,635,635,635,635,635,635,635,635,635,635,635,635,635,635,635,635,635,635,635,635,635,635,635,635,635,635,620,601,562,493,316,258,224,201,181,163,159,155,153,150,136,125,116,109,103,73],"timestamp_mouse":[10,25,45,65,86,105,124,146,166,186,204,224,245,264,284,306,326,344,365,385,405,424,446,466,485,506,525,545,564,585,605,626,645,665,685,706,724,744,765,786,806,825,846,866,884,905,925,946],"xSR":741.5,"ySR":573.95,"xT1":424.9,"yT1":0,"xT2":1058.1,"yT2":0,"toosoon":0,"cond_shown":"equaldotsize","ratio_trial":500,"smaller_num":"5","larger_num":"10","correct_side":1,"subjID":"LorenaGarcia8","gender":"1","age":"11","school":"6"},{"start_time":1551892700334,"click_time":1551892701289,"finger_time":1551892700989,"fix_duration":485.5380412451987,"trial":44,"RT":655,"MT":300,"sideResp":2,"stimulus":"img/750/randomdotsizeEA/R/12_Ratio_750_L_3_R_4.png","xmouse":[812,812,812,812,812,812,812,812,812,812,812,812,812,812,812,812,812,812,812,812,812,812,812,812,812,812,812,812,812,813,823,834,849,898,936,977,1000,1020,1043,1049,1052,1054,1054,1056,1056,1057,1058,1059],"ymouse":[628,628,628,628,628,628,628,628,628,628,628,628,628,628,628,628,628,628,628,628,628,628,628,628,628,628,628,628,628,622,605,586,563,473,389,312,244,198,130,109,95,86,79,72,69,66,63,59],"timestamp_mouse":[14,37,53,75,94,114,133,155,173,193,214,233,255,274,293,315,334,353,373,394,414,434,453,474,493,515,533,554,574,595,614,635,655,673,694,714,735,754,773,794,814,833,853,875,894,914,933,954],"xSR":741.5,"ySR":573.95,"xT1":424.9,"yT1":0,"xT2":1058.1,"yT2":0,"toosoon":0,"cond_shown":"randomdotsizeEA","ratio_trial":750,"smaller_num":"3","larger_num":"4","correct_side":2,"subjID":"LorenaGarcia8","gender":"1","age":"11","school":"6"},{"start_time":1551892703191,"click_time":1551892704089,"finger_time":1551892703829,"fix_duration":1280.5561012175854,"trial":45,"RT":638,"MT":260,"sideResp":1,"stimulus":"img/250/equaldotsize/L/14_Ratio_250_L_12_R_3.png","xmouse":[797,797,797,797,797,797,797,797,797,797,797,797,797,797,797,797,797,797,797,797,797,797,797,796,796,796,796,793,788,777,763,685,652,627,604,584,569,557,548,541,525,505,495,490,477],"ymouse":[653,653,653,653,653,653,653,653,653,653,653,653,653,653,653,653,653,653,653,653,653,653,653,652,652,652,650,646,636,618,593,488,450,419,376,328,300,282,266,251,211,163,139,128,99],"timestamp_mouse":[29,37,58,77,96,116,137,158,178,196,217,238,256,278,298,317,336,357,377,398,417,437,458,477,497,517,537,556,577,597,617,638,656,678,697,717,736,756,777,796,817,838,856,876,898],"xSR":741.5,"ySR":573.95,"xT1":424.9,"yT1":0,"xT2":1058.1,"yT2":0,"toosoon":0,"cond_shown":"equaldotsize","ratio_trial":250,"smaller_num":"3","larger_num":"12","correct_side":1,"subjID":"LorenaGarcia8","gender":"1","age":"11","school":"6"},{"start_time":1551892705435,"click_time":1551892706467,"finger_time":1551892706168,"fix_duration":666.2027793164083,"trial":46,"RT":733,"MT":299,"sideResp":1,"stimulus":"img/500/equaldotsize/L/13_Ratio_500_L_12_R_6.png","xmouse":[812,812,812,812,812,812,812,812,812,812,812,812,812,812,812,812,812,812,812,812,812,812,812,812,812,812,812,812,812,812,812,811,808,794,781,759,732,691,610,588,575,570,564,549,541,532,524,515,499,493,489,481],"ymouse":[634,634,634,634,634,634,634,634,634,634,634,634,634,634,634,634,634,634,634,634,634,634,634,634,634,634,634,634,634,634,634,633,632,624,615,597,563,499,367,327,295,278,261,227,213,198,183,168,139,125,112,91],"timestamp_mouse":[14,36,53,72,92,113,132,152,172,192,214,234,253,272,293,313,333,353,373,393,412,433,453,474,493,512,534,553,573,592,613,634,653,673,694,713,733,753,773,793,813,832,854,873,893,913,933,954,973,992,1013,1032],"xSR":741.5,"ySR":573.95,"xT1":424.9,"yT1":0,"xT2":1058.1,"yT2":0,"toosoon":0,"cond_shown":"equaldotsize","ratio_trial":500,"smaller_num":"6","larger_num":"12","correct_side":1,"subjID":"LorenaGarcia8","gender":"1","age":"11","school":"6"},{"start_time":1551892708308,"click_time":1551892709408,"finger_time":1551892709248,"fix_duration":1198.9312299722442,"trial":47,"RT":940,"MT":160,"sideResp":1,"stimulus":"img/250/randomdotsizeEA/L/15_Ratio_250_L_12_R_3.png","xmouse":[820,820,820,820,820,820,820,820,820,820,820,820,820,820,820,820,820,820,820,820,820,820,820,820,820,820,820,820,820,820,820,820,820,820,820,820,820,820,820,820,820,820,820,820,820,813,779,744,700,642,581,501,488,482,481,481],"ymouse":[638,638,638,638,638,638,638,638,638,638,638,638,638,638,638,638,638,638,638,638,638,638,638,638,638,638,638,638,638,638,638,638,638,638,638,638,638,638,638,638,638,638,638,638,638,633,579,516,446,367,285,170,138,118,102,94],"timestamp_mouse":[8,20,42,60,80,100,120,141,161,180,200,220,239,260,279,301,321,339,360,379,401,420,440,460,480,501,520,541,561,580,599,620,640,661,680,700,719,741,760,779,800,819,839,860,879,901,919,940,960,979,999,1019,1039,1060,1081,1100],"xSR":741.5,"ySR":573.95,"xT1":424.9,"yT1":0,"xT2":1058.1,"yT2":0,"toosoon":0,"cond_shown":"randomdotsizeEA","ratio_trial":250,"smaller_num":"3","larger_num":"12","correct_side":1,"subjID":"LorenaGarcia8","gender":"1","age":"11","school":"6"},{"start_time":1551892711362,"click_time":1551892712249,"finger_time":1551892712068,"fix_duration":1131.4150366511062,"trial":48,"RT":706,"MT":181,"sideResp":2,"stimulus":"img/250/randomdotsizeEA/R/13_Ratio_250_L_2_R_8.png","xmouse":[767,767,767,767,767,767,767,767,767,767,767,767,767,767,767,767,767,767,767,767,767,767,767,767,767,767,767,767,767,767,767,767,767,767,772,794,836,888,982,1011,1029,1040,1049,1058,1066],"ymouse":[607,607,607,607,607,607,607,607,607,607,607,607,607,607,607,607,607,607,607,607,607,607,607,607,607,607,607,607,607,607,607,607,607,607,603,571,498,408,255,207,173,151,128,107,95],"timestamp_mouse":[13,37,46,67,86,105,127,146,165,185,206,225,247,267,285,306,326,346,367,387,407,425,447,466,485,506,526,547,567,585,606,626,646,666,686,706,725,745,765,786,806,826,846,866,887],"xSR":741.5,"ySR":573.95,"xT1":424.9,"yT1":0,"xT2":1058.1,"yT2":0,"toosoon":0,"cond_shown":"randomdotsizeEA","ratio_trial":250,"smaller_num":"2","larger_num":"8","correct_side":2,"subjID":"LorenaGarcia8","gender":"1","age":"11","school":"6"},{"start_time":1551892715527,"click_time":1551892716748,"finger_time":1551892716369,"fix_duration":1158.8483425108025,"trial":49,"RT":842,"MT":379,"sideResp":2,"stimulus":"img/750/equaldotsize/R/2_Ratio_750_L_6_R_8.png","xmouse":[785,785,785,785,785,785,785,785,785,785,785,785,785,785,785,785,785,785,785,785,785,785,785,785,785,785,785,785,785,785,785,785,785,785,785,785,785,785,785,788,794,824,896,956,1018,1095,1110,1119,1127,1134,1149,1155,1160,1161,1161,1161,1160,1159,1159,1159,1159,1155],"ymouse":[640,640,640,640,640,640,640,640,640,640,640,640,640,640,640,640,640,640,640,640,640,640,640,640,640,640,640,640,640,640,640,640,640,640,640,640,640,640,640,638,633,605,511,429,339,230,209,195,183,172,141,123,105,80,65,50,48,46,46,46,46,46],"timestamp_mouse":[9,31,41,61,81,102,121,141,161,182,200,222,241,260,282,300,321,340,361,381,400,421,442,460,481,502,521,542,561,580,601,622,640,661,681,700,721,742,762,781,801,821,842,861,882,901,921,941,960,981,1001,1020,1041,1061,1080,1101,1121,1141,1162,1180,1200,1221],"xSR":741.5,"ySR":573.95,"xT1":424.9,"yT1":0,"xT2":1058.1,"yT2":0,"toosoon":0,"cond_shown":"equaldotsize","ratio_trial":750,"smaller_num":"6","larger_num":"8","correct_side":2,"subjID":"LorenaGarcia8","gender":"1","age":"11","school":"6"},{"start_time":1551892718462,"click_time":1551892719348,"finger_time":1551892719068,"fix_duration":891.4732929949313,"trial":50,"RT":606,"MT":280,"sideResp":2,"stimulus":"img/250/equaldotanddens/R/10_Ratio_250_L_4_R_16.png","xmouse":[818,815,815,815,815,815,815,815,815,815,815,815,815,815,815,815,815,815,815,815,815,815,815,815,815,815,815,816,821,839,850,868,888,911,973,997,1022,1043,1071,1077,1086,1093,1097,1098,1098],"ymouse":[616,617,617,617,617,617,617,617,617,617,617,617,617,617,617,617,617,617,617,617,617,617,617,617,617,617,616,614,604,575,550,516,470,426,326,294,263,233,175,152,131,113,104,100,96],"timestamp_mouse":[9,31,47,66,86,106,127,147,166,186,207,227,246,266,287,306,326,347,366,386,405,425,447,467,485,506,526,545,566,587,606,625,647,666,687,705,727,747,767,786,806,825,846,866,886],"xSR":741.5,"ySR":573.95,"xT1":424.9,"yT1":0,"xT2":1058.1,"yT2":0,"toosoon":0,"cond_shown":"equaldotanddens","ratio_trial":250,"smaller_num":"4","larger_num":"16","correct_side":2,"subjID":"LorenaGarcia8","gender":"1","age":"11","school":"6"},{"start_time":1551892720970,"click_time":1551892721768,"finger_time":1551892721607,"fix_duration":901.6407905220224,"trial":51,"RT":637,"MT":161,"sideResp":1,"stimulus":"img/500/equaldotanddens/L/8_Ratio_500_L_8_R_4.png","xmouse":[765,765,765,765,765,765,765,765,765,765,765,765,765,765,765,765,765,765,765,765,765,765,765,765,765,765,765,765,765,765,763,750,724,641,608,584,565,551,525,523],"ymouse":[625,625,625,625,625,625,625,625,625,625,625,625,625,625,625,625,625,625,625,625,625,625,625,625,625,625,625,625,625,625,616,573,491,292,216,158,119,88,49,47],"timestamp_mouse":[19,39,58,77,98,118,138,158,178,198,218,238,258,279,297,318,338,357,378,398,418,438,458,478,498,518,538,558,578,599,619,637,657,678,699,718,738,758,778,798],"xSR":741.5,"ySR":573.95,"xT1":424.9,"yT1":0,"xT2":1058.1,"yT2":0,"toosoon":0,"cond_shown":"equaldotanddens","ratio_trial":500,"smaller_num":"4","larger_num":"8","correct_side":1,"subjID":"LorenaGarcia8","gender":"1","age":"11","school":"6"},{"start_time":1551892722921,"click_time":1551892723568,"finger_time":1551892723447,"fix_duration":531.7526499408771,"trial":52,"RT":526,"MT":121,"sideResp":1,"stimulus":"img/250/equaldotsize/L/15_Ratio_250_L_12_R_3.png","xmouse":[807,807,807,807,807,807,807,807,807,807,807,807,807,807,807,807,807,807,807,806,806,805,803,800,793,780,732,704,670,635,591,535,519],"ymouse":[657,657,657,657,657,657,657,657,657,657,657,657,657,657,657,657,657,656,654,653,652,646,642,635,621,602,540,507,460,399,298,136,79],"timestamp_mouse":[7,28,46,67,88,107,127,147,168,187,207,226,247,267,287,307,327,348,366,387,407,427,447,467,488,507,526,548,567,587,608,626,647],"xSR":741.5,"ySR":573.95,"xT1":424.9,"yT1":0,"xT2":1058.1,"yT2":0,"toosoon":0,"cond_shown":"equaldotsize","ratio_trial":250,"smaller_num":"3","larger_num":"12","correct_side":1,"subjID":"LorenaGarcia8","gender":"1","age":"11","school":"6"},{"start_time":1551892725161,"click_time":1551892726609,"finger_time":1551892725708,"fix_duration":650.5314718152122,"trial":53,"RT":547,"MT":901,"sideResp":1,"stimulus":"img/750/randomdotsizeEA/L/13_Ratio_750_L_8_R_6.png","xmouse":[769,769,769,769,769,769,769,769,769,769,769,769,769,769,769,769,769,769,769,769,769,769,769,770,779,788,800,812,826,842,850,853,854,854,854,851,845,815,794,776,775,772,770,769,764,763,761,760,760,758,756,755,750,742,725,627,547,504,474,444,405,397,394,394,394,396,400,406,408,410,415,421,432],"ymouse":[610,610,610,610,610,610,610,610,610,610,610,610,610,610,610,610,610,610,610,610,610,610,610,610,603,596,585,572,544,500,482,474,472,472,472,476,484,537,571,607,611,615,620,623,631,632,634,634,634,634,634,634,630,619,600,492,399,346,300,249,160,120,88,60,26,15,6,0,0,0,0,0,9],"timestamp_mouse":[10,33,47,67,87,107,127,147,166,186,208,227,247,268,288,307,326,347,367,387,406,428,448,468,487,506,526,547,567,587,607,627,648,667,687,708,727,746,767,787,807,826,848,867,887,907,928,947,966,987,1008,1027,1047,1067,1087,1108,1127,1148,1167,1187,1208,1227,1247,1268,1287,1307,1327,1346,1366,1386,1406,1427,1448],"xSR":741.5,"ySR":573.95,"xT1":424.9,"yT1":0,"xT2":1058.1,"yT2":0,"toosoon":0,"cond_shown":"randomdotsizeEA","ratio_trial":750,"smaller_num":"6","larger_num":"8","correct_side":1,"subjID":"LorenaGarcia8","gender":"1","age":"11","school":"6"},{"start_time":1551892728727,"click_time":1551892729929,"finger_time":1551892729488,"fix_duration":1316.3929284251956,"trial":54,"RT":761,"MT":441,"sideResp":2,"stimulus":"img/750/equaldotsize/R/5_Ratio_750_L_15_R_20.png","xmouse":[790,790,790,790,790,790,790,790,790,790,790,790,790,790,790,790,790,790,790,790,790,790,790,790,790,790,790,790,790,790,790,790,790,790,790,790,790,816,843,890,940,986,1023,1054,1071,1082,1089,1089,1087,1087,1087,1087,1086,1085,1085,1085,1085,1085,1085,1085,1085],"ymouse":[636,636,636,636,636,636,636,636,636,636,636,636,636,636,636,636,636,636,636,636,636,636,636,636,636,636,636,636,636,636,636,636,636,636,636,636,636,627,610,578,536,487,441,383,327,289,253,204,182,157,133,117,108,107,107,107,107,106,101,100,98],"timestamp_mouse":[9,22,47,61,82,101,122,140,162,182,201,222,242,261,280,301,321,341,362,381,401,421,441,462,481,502,521,540,561,581,600,622,641,662,681,702,722,741,761,780,800,821,841,862,881,901,921,942,961,981,1001,1021,1041,1062,1081,1100,1120,1141,1162,1181,1202],"xSR":741.5,"ySR":573.95,"xT1":424.9,"yT1":0,"xT2":1058.1,"yT2":0,"toosoon":0,"cond_shown":"equaldotsize","ratio_trial":750,"smaller_num":"15","larger_num":"20","correct_side":2,"subjID":"LorenaGarcia8","gender":"1","age":"11","school":"6"},{"start_time":1551892731204,"click_time":1551892732269,"finger_time":1551892731948,"fix_duration":595.3180637742731,"trial":55,"RT":744,"MT":321,"sideResp":1,"stimulus":"img/500/equaldotsize/L/5_Ratio_500_L_4_R_2.png","xmouse":[794,794,794,794,794,794,794,794,794,794,794,794,794,794,794,794,794,794,794,794,794,794,794,794,794,794,794,794,794,794,794,794,794,784,770,755,742,733,730,728,728,728,728,728,724,712,697,670,630,552,527,502,477,453],"ymouse":[652,652,652,652,652,652,652,652,652,652,652,652,652,652,652,652,652,652,652,652,652,652,652,652,652,652,652,652,652,652,652,652,652,639,622,605,590,580,576,573,573,573,573,573,566,551,526,480,420,283,226,172,125,73],"timestamp_mouse":[4,35,44,64,85,103,125,145,163,184,204,224,245,264,285,304,324,344,364,383,404,424,443,464,484,504,524,545,563,584,605,625,643,665,685,704,725,744,764,783,804,825,844,864,885,905,925,944,963,985,1005,1025,1045,1065],"xSR":741.5,"ySR":573.95,"xT1":424.9,"yT1":0,"xT2":1058.1,"yT2":0,"toosoon":0,"cond_shown":"equaldotsize","ratio_trial":500,"smaller_num":"2","larger_num":"4","correct_side":1,"subjID":"LorenaGarcia8","gender":"1","age":"11","school":"6"},{"start_time":1551892733716,"click_time":1551892734748,"finger_time":1551892734528,"fix_duration":747.3034821860448,"trial":56,"RT":812,"MT":220,"sideResp":1,"stimulus":"img/250/randomdotsizeEA/L/14_Ratio_250_L_12_R_3.png","xmouse":[806,806,806,806,806,806,806,806,806,806,806,806,806,806,805,805,805,805,805,805,805,805,805,805,805,805,805,805,805,805,805,805,805,805,805,805,805,805,805,800,776,735,656,550,520,504,497,494,493,493,491,488],"ymouse":[625,625,625,625,625,625,625,625,625,625,625,625,625,625,625,625,625,625,625,625,625,625,625,625,625,625,625,625,625,624,624,624,624,624,624,624,624,624,623,605,544,429,227,30,0,0,0,0,0,0,0,1],"timestamp_mouse":[13,35,53,73,91,113,133,152,173,191,211,233,252,272,291,312,333,351,373,392,413,433,452,472,492,513,532,552,571,592,612,632,653,671,691,711,731,753,772,793,812,831,852,872,892,912,933,952,972,992,1013,1032],"xSR":741.5,"ySR":573.95,"xT1":424.9,"yT1":0,"xT2":1058.1,"yT2":0,"toosoon":0,"cond_shown":"randomdotsizeEA","ratio_trial":250,"smaller_num":"3","larger_num":"12","correct_side":1,"subjID":"LorenaGarcia8","gender":"1","age":"11","school":"6"},{"start_time":1551892736135,"click_time":1551892737948,"finger_time":1551892737288,"fix_duration":744.1564312264927,"trial":57,"RT":1153,"MT":660,"sideResp":2,"stimulus":"img/900/equaldotanddens/L/8_Ratio_900_L_20_R_18.png","xmouse":[783,783,783,783,783,783,783,783,783,783,783,783,783,783,783,783,783,783,783,783,783,783,783,783,783,783,783,783,783,783,783,783,783,783,783,783,783,783,783,783,784,788,790,790,790,790,790,790,790,790,790,790,790,788,786,779,768,741,734,730,726,725,725,725,725,725,725,726,740,775,805,861,936,961,979,990,994,981,980,978,977,977,980,987,999,1013,1029,1051,1061,1072,1080],"ymouse":[612,612,612,612,612,612,612,612,612,612,612,612,612,612,612,612,612,612,612,612,612,612,612,612,612,612,612,612,612,612,612,612,612,612,612,612,612,612,612,612,612,608,606,606,606,606,606,606,606,606,606,606,606,607,607,608,608,598,594,592,589,588,588,588,588,588,588,588,592,594,594,579,529,488,430,349,246,108,56,22,5,0,0,0,0,0,0,0,0,0,6],"timestamp_mouse":[13,34,54,74,93,113,133,154,174,194,213,232,253,274,294,314,334,353,374,393,414,434,452,473,494,512,533,554,573,594,613,634,654,673,693,713,733,753,774,793,813,832,854,873,894,913,933,954,974,993,1014,1034,1054,1073,1094,1114,1132,1153,1172,1193,1213,1232,1253,1273,1293,1314,1332,1353,1374,1392,1412,1432,1453,1473,1494,1513,1534,1553,1573,1592,1614,1634,1653,1672,1694,1714,1734,1753,1772,1794,1813],"xSR":741.5,"ySR":573.95,"xT1":424.9,"yT1":0,"xT2":1058.1,"yT2":0,"toosoon":0,"cond_shown":"equaldotanddens","ratio_trial":900,"smaller_num":"18","larger_num":"20","correct_side":1,"subjID":"LorenaGarcia8","gender":"1","age":"11","school":"6"},{"start_time":1551892739452,"click_time":1551892740588,"finger_time":1551892740408,"fix_duration":742.2290133442316,"trial":58,"RT":956,"MT":180,"sideResp":1,"stimulus":"img/250/randomdotsizeEA/L/15_Ratio_250_L_12_R_3.png","xmouse":[796,796,796,796,796,796,796,796,796,796,796,796,796,796,796,796,796,796,796,796,796,796,796,796,796,796,796,796,796,796,796,796,796,796,796,796,796,796,796,796,796,796,796,796,795,790,760,657,595,538,505,486,477,477,477,476,473],"ymouse":[635,635,635,635,635,635,635,635,635,635,635,635,635,635,635,635,635,635,635,635,635,635,635,635,635,635,635,635,635,635,635,635,635,635,635,635,635,635,635,635,635,635,635,635,635,634,604,480,401,326,277,243,184,162,139,113,96],"timestamp_mouse":[16,36,56,77,95,117,137,156,177,196,217,235,257,276,295,317,337,356,375,396,416,435,457,477,496,516,536,557,577,595,615,637,655,677,695,717,736,757,776,797,817,837,856,876,896,916,937,956,975,995,1016,1036,1056,1076,1095,1116,1136],"xSR":741.5,"ySR":573.95,"xT1":424.9,"yT1":0,"xT2":1058.1,"yT2":0,"toosoon":0,"cond_shown":"randomdotsizeEA","ratio_trial":250,"smaller_num":"3","larger_num":"12","correct_side":1,"subjID":"LorenaGarcia8","gender":"1","age":"11","school":"6"},{"start_time":1551892741420,"click_time":1551892742448,"finger_time":1551892742268,"fix_duration":250,"trial":59,"RT":848,"MT":180,"sideResp":2,"stimulus":"img/750/equaldotsize/R/5_Ratio_750_L_15_R_20.png","xmouse":[773,773,773,773,773,773,773,773,773,773,773,773,773,773,773,773,773,773,773,773,773,773,773,773,773,773,773,773,773,773,773,773,773,773,773,773,773,773,773,783,798,817,844,888,982,1022,1059,1082,1097,1110,1113,1114],"ymouse":[633,633,633,633,633,633,633,633,633,633,633,633,633,633,633,633,633,633,633,633,633,633,633,633,633,633,633,633,633,633,633,633,633,633,633,633,633,633,633,625,612,598,572,513,351,272,210,170,144,117,108,99],"timestamp_mouse":[8,33,48,68,88,109,129,149,168,188,209,229,248,268,288,308,327,349,369,387,407,429,449,467,488,507,529,547,568,588,607,628,647,667,688,708,728,747,769,788,809,829,848,869,888,908,927,948,968,988,1008,1028],"xSR":741.5,"ySR":573.95,"xT1":424.9,"yT1":0,"xT2":1058.1,"yT2":0,"toosoon":0,"cond_shown":"equaldotsize","ratio_trial":750,"smaller_num":"15","larger_num":"20","correct_side":2,"subjID":"LorenaGarcia8","gender":"1","age":"11","school":"6"},{"start_time":1551892743550,"click_time":1551892744627,"finger_time":1551892744328,"fix_duration":480.71859489048643,"trial":60,"RT":778,"MT":299,"sideResp":1,"stimulus":"img/750/randomdotsizeEA/R/4_Ratio_750_L_15_R_20.png","xmouse":[804,804,804,804,804,804,804,804,804,804,804,804,804,804,804,804,804,804,804,804,804,804,804,804,804,804,804,804,804,804,804,804,804,804,804,804,803,775,751,729,700,662,582,556,544,534,530,530,530,530,530,529,525,523],"ymouse":[650,650,650,650,650,650,650,650,650,650,650,650,650,650,650,650,650,650,650,650,650,650,650,650,650,650,650,650,650,650,650,650,650,650,650,650,650,592,543,494,434,367,179,124,104,90,84,84,84,84,84,83,76,71],"timestamp_mouse":[19,40,58,77,98,119,138,158,178,199,217,238,258,277,298,318,338,359,377,398,418,438,459,477,498,517,538,558,577,599,618,638,659,678,698,718,739,757,778,799,819,839,857,879,898,919,938,958,977,998,1018,1039,1058,1077],"xSR":741.5,"ySR":573.95,"xT1":424.9,"yT1":0,"xT2":1058.1,"yT2":0,"toosoon":0,"cond_shown":"randomdotsizeEA","ratio_trial":750,"smaller_num":"15","larger_num":"20","correct_side":2,"subjID":"LorenaGarcia8","gender":"1","age":"11","school":"6"},{"start_time":1551892746543,"click_time":1551892747788,"finger_time":1551892747348,"fix_duration":1193.9416331246016,"trial":61,"RT":805,"MT":440,"sideResp":2,"stimulus":"img/750/equaldotanddens/R/3_Ratio_750_L_15_R_20.png","xmouse":[815,815,815,815,815,815,815,815,815,815,815,815,815,815,815,815,815,815,815,815,815,815,815,815,815,815,815,815,815,815,815,815,815,815,815,815,815,815,815,826,853,884,913,949,963,986,1003,1015,1036,1042,1045,1047,1048,1049,1050,1056,1060,1066,1073,1076,1077,1078,1079],"ymouse":[615,615,615,615,615,615,615,615,615,615,615,615,615,615,615,615,615,615,615,615,615,615,615,615,615,615,615,615,615,615,615,615,615,615,615,615,615,615,615,608,564,499,431,350,322,283,256,234,197,184,177,172,170,170,165,150,137,126,111,106,105,101,98],"timestamp_mouse":[9,29,45,64,85,105,126,145,165,185,206,226,245,265,285,305,324,345,365,384,405,426,444,464,485,504,524,544,566,586,606,626,644,665,684,704,726,746,766,786,805,824,846,866,885,906,926,945,965,985,1005,1026,1044,1066,1085,1105,1124,1145,1165,1185,1205,1226,1245],"xSR":741.5,"ySR":573.95,"xT1":424.9,"yT1":0,"xT2":1058.1,"yT2":0,"toosoon":0,"cond_shown":"equaldotanddens","ratio_trial":750,"smaller_num":"15","larger_num":"20","correct_side":2,"subjID":"LorenaGarcia8","gender":"1","age":"11","school":"6"},{"start_time":1551892749793,"click_time":1551892750949,"finger_time":1551892750568,"fix_duration":1182.8819477332831,"trial":62,"RT":775,"MT":381,"sideResp":1,"stimulus":"img/500/equaldotanddens/L/10_Ratio_500_L_4_R_2.png","xmouse":[783,783,783,783,783,783,783,783,783,783,783,783,783,783,783,783,783,783,783,783,783,783,783,783,783,783,783,783,783,783,783,783,783,783,783,783,776,759,731,694,610,551,524,502,493,491,491,491,491,489,487,485,485,485,486,487,486,485],"ymouse":[650,650,650,650,650,650,650,650,650,650,650,650,650,650,650,650,650,650,650,650,650,650,650,650,650,650,650,650,650,650,650,650,650,650,650,650,640,616,576,521,397,319,278,238,219,205,185,173,162,152,146,135,130,124,118,110,100,98],"timestamp_mouse":[15,34,55,76,95,116,136,156,176,195,216,235,255,276,294,314,336,355,376,395,416,435,456,475,496,514,536,554,576,594,616,635,656,675,696,716,735,754,775,795,816,834,856,874,895,915,936,955,976,994,1015,1034,1055,1076,1095,1116,1135,1156],"xSR":741.5,"ySR":573.95,"xT1":424.9,"yT1":0,"xT2":1058.1,"yT2":0,"toosoon":0,"cond_shown":"equaldotanddens","ratio_trial":500,"smaller_num":"2","larger_num":"4","correct_side":1,"subjID":"LorenaGarcia8","gender":"1","age":"11","school":"6"},{"start_time":1551892753256,"click_time":1551892754228,"finger_time":1551892753888,"fix_duration":1467.9642268510954,"trial":63,"RT":632,"MT":340,"sideResp":1,"stimulus":"img/250/equaldotsize/L/1_Ratio_250_L_8_R_2.png","xmouse":[812,812,812,812,812,812,812,812,812,812,812,812,812,812,812,812,812,812,812,812,812,812,812,812,812,812,812,812,812,809,801,786,769,722,697,676,656,637,624,621,614,603,590,562,553,547,542,534,516],"ymouse":[607,607,607,607,607,607,607,607,607,607,607,607,607,607,607,607,607,607,607,607,607,607,607,607,607,607,607,607,607,601,589,568,547,479,434,397,360,319,274,251,225,198,175,134,120,111,104,94,78],"timestamp_mouse":[13,34,52,73,91,112,131,151,171,191,211,231,252,271,291,312,332,351,371,393,411,433,451,473,492,512,533,552,572,592,613,632,652,672,693,712,732,753,771,792,812,832,853,872,893,913,931,953,972],"xSR":741.5,"ySR":573.95,"xT1":424.9,"yT1":0,"xT2":1058.1,"yT2":0,"toosoon":0,"cond_shown":"equaldotsize","ratio_trial":250,"smaller_num":"2","larger_num":"8","correct_side":1,"subjID":"LorenaGarcia8","gender":"1","age":"11","school":"6"},{"start_time":1551892755201,"click_time":1551892756028,"finger_time":1551892755908,"fix_duration":411.96771698620637,"trial":64,"RT":707,"MT":120,"sideResp":1,"stimulus":"img/500/equaldotanddens/L/7_Ratio_500_L_10_R_5.png","xmouse":[790,790,790,790,790,790,790,790,790,790,790,790,790,790,790,790,790,790,790,790,790,790,790,790,790,790,790,790,790,790,790,788,778,766,744,704,635,522,473,464,466,489],"ymouse":[648,648,648,648,648,648,648,648,648,648,648,648,648,648,648,648,648,648,648,648,648,648,648,648,648,648,648,648,648,648,648,642,636,626,607,565,496,358,246,183,142,93],"timestamp_mouse":[7,28,47,68,87,108,127,146,167,187,207,228,248,267,288,308,327,348,367,387,406,428,446,467,487,508,527,548,567,588,608,627,648,668,687,707,726,746,767,788,808,827],"xSR":741.5,"ySR":573.95,"xT1":424.9,"yT1":0,"xT2":1058.1,"yT2":0,"toosoon":0,"cond_shown":"equaldotanddens","ratio_trial":500,"smaller_num":"5","larger_num":"10","correct_side":1,"subjID":"LorenaGarcia8","gender":"1","age":"11","school":"6"},{"start_time":1551892759456,"click_time":1551892760747,"finger_time":1551892760569,"fix_duration":1287.3493448165316,"trial":65,"RT":1113,"MT":178,"sideResp":2,"stimulus":"img/250/equaldotsize/R/11_Ratio_250_L_3_R_12.png","xmouse":[791,791,791,791,791,791,791,791,791,791,791,791,791,791,791,791,791,791,791,791,791,791,791,791,791,791,791,791,791,791,791,791,791,791,791,791,791,791,791,791,791,791,791,791,791,791,791,791,791,791,791,791,791,793,834,883,949,1005,1081,1096,1102,1102,1102,1102,1097],"ymouse":[653,653,653,653,653,653,653,653,653,653,653,653,653,653,653,653,653,653,653,653,653,653,653,653,653,653,653,653,653,653,653,653,653,653,653,653,653,653,653,653,653,653,653,653,653,653,653,653,653,653,653,653,653,649,607,545,479,419,298,249,203,164,132,101,63],"timestamp_mouse":[19,32,52,73,91,111,131,152,172,192,213,231,253,272,291,312,332,351,372,392,411,431,453,471,493,512,532,552,572,591,612,632,651,671,692,713,731,751,771,792,812,833,851,871,892,912,931,951,971,992,1011,1031,1052,1073,1093,1113,1132,1151,1172,1191,1211,1232,1253,1273,1291],"xSR":741.5,"ySR":573.95,"xT1":424.9,"yT1":0,"xT2":1058.1,"yT2":0,"toosoon":0,"cond_shown":"equaldotsize","ratio_trial":250,"smaller_num":"3","larger_num":"12","correct_side":2,"subjID":"LorenaGarcia8","gender":"1","age":"11","school":"6"},{"start_time":1551892762540,"click_time":1551892766268,"finger_time":1551892765307,"fix_duration":1171.7995113219845,"trial":66,"RT":2767,"MT":961,"sideResp":2,"stimulus":"img/750/equaldotsize/R/12_Ratio_750_L_3_R_4.png","xmouse":[811,811,811,811,811,811,811,811,811,811,811,811,811,811,811,811,811,811,811,811,811,811,811,811,811,811,811,811,811,811,811,811,811,811,811,811,811,811,811,811,811,811,811,811,811,811,811,811,811,811,811,811,811,811,811,811,811,811,811,811,811,811,811,811,811,811,811,811,811,811,811,811,811,811,811,811,811,811,811,811,811,811,811,811,811,811,811,811,811,811,811,811,811,811,811,811,811,811,811,811,811,811,811,811,811,811,811,811,810,809,796,788,781,778,775,774,774,774,774,774,774,774,774,774,774,774,774,774,776,779,785,786,787,788,788,788,786,777,767,741,678,645,610,582,564,552,549,546,542,538,533,530,527,524,522,520,520,520,520,521,531,543,556,573,594,625,636,643,650,670,726,764,797,821,844,877,889,907,920,935,968,984,1000,1016,1029,1055,1066],"ymouse":[635,635,635,635,635,635,635,635,635,635,635,635,635,635,635,635,635,635,635,635,635,635,635,635,635,635,635,635,635,635,635,635,635,635,635,635,635,635,635,635,635,635,635,635,635,635,635,635,635,635,635,635,635,635,635,635,635,635,635,635,635,635,635,635,635,635,635,635,635,635,635,635,635,635,635,635,635,635,635,635,635,635,635,635,635,635,635,635,635,635,635,635,635,635,635,635,635,635,635,635,635,635,635,635,635,635,635,635,635,635,626,619,615,613,611,610,610,610,610,610,610,610,610,610,610,610,610,610,610,610,610,610,610,610,609,604,595,580,565,531,445,407,369,333,303,262,246,232,220,207,192,184,176,170,164,162,162,162,162,162,176,189,203,216,229,246,250,251,251,248,224,207,193,183,170,151,144,134,128,123,114,110,104,98,92,79,73],"timestamp_mouse":[11,39,47,67,88,107,128,149,168,187,208,228,249,267,288,308,327,348,369,387,407,427,447,469,487,507,527,549,567,588,608,629,648,667,688,708,727,747,767,789,809,828,848,868,889,908,927,948,967,988,1009,1028,1048,1067,1088,1109,1128,1147,1168,1187,1208,1227,1248,1267,1287,1309,1329,1348,1368,1388,1407,1429,1447,1467,1489,1507,1528,1547,1567,1588,1608,1627,1648,1668,1687,1709,1728,1749,1768,1787,1808,1829,1848,1867,1888,1907,1929,1947,1968,1988,2007,2028,2047,2067,2087,2107,2128,2147,2168,2187,2207,2229,2248,2269,2287,2308,2327,2347,2367,2387,2408,2427,2449,2467,2487,2509,2528,2547,2567,2588,2607,2628,2649,2667,2687,2707,2727,2749,2767,2787,2807,2829,2847,2867,2888,2908,2927,2948,2967,2988,3008,3029,3049,3068,3088,3109,3128,3148,3168,3187,3208,3227,3247,3269,3289,3307,3327,3348,3367,3389,3407,3427,3448,3467,3488,3508,3527,3547,3568,3588,3608,3627,3648,3669,3688,3707,3727],"xSR":741.5,"ySR":573.95,"xT1":424.9,"yT1":0,"xT2":1058.1,"yT2":0,"toosoon":0,"cond_shown":"equaldotsize","ratio_trial":750,"smaller_num":"3","larger_num":"4","correct_side":2,"subjID":"LorenaGarcia8","gender":"1","age":"11","school":"6"},{"start_time":1551892767931,"click_time":1551892768848,"finger_time":1551892768567,"fix_duration":1082.343693551021,"trial":67,"RT":636,"MT":281,"sideResp":1,"stimulus":"img/250/equaldotanddens/L/2_Ratio_250_L_16_R_4.png","xmouse":[784,784,784,784,784,784,784,784,784,784,784,784,784,784,784,784,784,784,784,784,784,784,784,784,784,784,784,784,784,784,756,705,651,607,577,551,505,475,467,466,466,465,464,464,464,466],"ymouse":[644,644,644,644,644,644,644,644,644,644,644,644,644,644,644,644,644,644,644,644,644,644,644,644,644,644,644,644,644,641,603,549,502,457,420,368,257,184,156,135,120,109,107,105,102,94],"timestamp_mouse":[16,36,58,76,96,117,137,156,176,198,217,237,256,277,297,317,338,358,376,397,418,436,457,477,497,518,537,557,577,597,617,636,656,678,696,717,738,757,776,796,816,838,857,876,897,917],"xSR":741.5,"ySR":573.95,"xT1":424.9,"yT1":0,"xT2":1058.1,"yT2":0,"toosoon":0,"cond_shown":"equaldotanddens","ratio_trial":250,"smaller_num":"4","larger_num":"16","correct_side":1,"subjID":"LorenaGarcia8","gender":"1","age":"11","school":"6"},{"start_time":1551892770103,"click_time":1551892772029,"finger_time":1551892771787,"fix_duration":514.5646617168738,"trial":68,"RT":1684,"MT":242,"sideResp":2,"stimulus":"img/500/randomdotsizeEA/R/15_Ratio_500_L_1_R_2.png","xmouse":[767,767,767,767,767,767,767,767,767,767,767,767,767,767,767,767,767,767,767,767,767,767,767,767,767,767,767,767,767,767,767,767,767,767,767,767,767,767,767,767,767,767,767,767,767,767,767,767,767,767,767,767,767,767,767,767,767,767,767,767,767,767,767,767,767,767,767,767,767,767,767,767,767,767,767,767,767,767,767,767,768,769,774,805,844,892,951,1004,1087,1101,1115,1124,1130,1138,1140,1143,1145],"ymouse":[609,609,609,609,609,609,609,609,609,609,609,609,609,609,609,609,609,609,609,609,609,609,609,609,609,609,609,609,609,609,609,609,609,609,609,609,609,609,609,609,609,609,609,609,609,609,609,609,609,609,609,609,609,609,609,609,609,609,609,609,609,609,609,609,609,609,609,609,609,609,609,609,609,609,609,609,609,609,609,609,609,609,607,578,539,487,427,365,250,220,189,169,152,124,114,105,97],"timestamp_mouse":[10,33,46,65,84,104,125,144,165,185,205,225,244,265,284,305,325,344,366,386,404,424,445,465,486,504,526,544,565,584,605,624,644,665,684,704,725,746,764,785,804,825,845,865,885,904,925,944,965,985,1004,1025,1045,1064,1084,1106,1125,1145,1165,1185,1204,1226,1246,1264,1284,1306,1324,1345,1365,1385,1404,1425,1445,1465,1485,1505,1526,1544,1564,1585,1604,1625,1645,1665,1684,1704,1724,1745,1764,1786,1804,1825,1845,1865,1885,1904,1925],"xSR":741.5,"ySR":573.95,"xT1":424.9,"yT1":0,"xT2":1058.1,"yT2":0,"toosoon":0,"cond_shown":"randomdotsizeEA","ratio_trial":500,"smaller_num":"1","larger_num":"2","correct_side":2,"subjID":"LorenaGarcia8","gender":"1","age":"11","school":"6"},{"start_time":1551892774914,"click_time":1551892776387,"finger_time":1551892775508,"fix_duration":1465.631440256067,"trial":69,"RT":594,"MT":879,"sideResp":1,"stimulus":"img/250/equaldotsize/L/3_Ratio_250_L_8_R_2.png","xmouse":[774,774,774,774,774,774,774,774,774,774,774,774,774,774,774,774,774,774,774,774,774,774,774,774,774,774,774,773,755,720,674,643,595,572,554,540,539,539,539,539,539,539,539,539,539,539,539,539,539,539,535,535,533,531,529,528,527,527,527,527,527,527,527,527,527,527,527,527,527,527,527,527,526,521],"ymouse":[614,614,614,614,614,614,614,614,614,614,614,614,614,614,614,614,614,614,614,614,614,614,614,614,614,614,614,614,605,586,558,533,483,446,400,353,335,314,309,306,301,293,267,250,233,207,186,132,97,61,40,24,4,0,0,0,0,0,9,23,37,48,55,65,68,70,70,70,70,70,70,70,71,71],"timestamp_mouse":[14,34,54,73,95,113,133,153,174,193,214,234,255,273,294,314,335,353,374,394,415,434,453,474,493,514,533,554,575,594,614,633,654,674,693,714,734,753,774,793,814,833,854,874,893,914,934,953,975,994,1014,1033,1053,1074,1094,1113,1134,1154,1175,1194,1214,1233,1254,1273,1294,1313,1334,1354,1373,1393,1414,1435,1453,1473],"xSR":741.5,"ySR":573.95,"xT1":424.9,"yT1":0,"xT2":1058.1,"yT2":0,"toosoon":0,"cond_shown":"equaldotsize","ratio_trial":250,"smaller_num":"2","larger_num":"8","correct_side":1,"subjID":"LorenaGarcia8","gender":"1","age":"11","school":"6"},{"start_time":1551892777540,"click_time":1551892780429,"finger_time":1551892778448,"fix_duration":250,"trial":70,"RT":908,"MT":1981,"sideResp":2,"stimulus":"img/900/randomdotsizeEA/R/13_Ratio_900_L_18_R_20.png","xmouse":[808,808,808,808,808,808,808,808,808,808,808,808,808,808,808,808,808,808,808,808,808,808,808,808,808,808,808,808,808,808,808,808,808,808,808,808,808,808,808,808,808,808,808,818,831,846,861,888,894,898,899,899,899,899,899,899,899,896,887,878,863,845,830,818,812,808,807,807,807,807,807,806,806,806,806,806,806,806,806,812,826,844,855,857,858,859,859,859,859,859,859,859,859,859,859,859,859,859,859,859,859,859,859,859,859,859,859,859,859,859,859,859,861,861,861,861,861,861,861,861,861,860,854,850,845,843,841,841,841,841,850,872,941,964,977,982,983,990,995,1001,1021,1034,1057,106