[{"start_time":1551891206567,"click_time":1551891214274,"finger_time":1551891206576,"fix_duration":250,"trial":0,"RT":9,"MT":7698,"sideResp":2,"stimulus":[],"xmouse":[765,765,765,765,765,765,765,765,765,765,765,765,765,765,765,765,765,765,765,765,765,765,765,765,765,765,765,765,764,757,740,733,726,716,708,695,693,693,693,693,691,688,685,680,675,667,665,664,664,664,664,664,664,664,667,674,680,682,683,683,683,683,683,683,682,681,680,680,680,680,693,710,729,744,757,763,763,763,764,765,768,768,768,768,768,768,768,768,768,768,768,768,768,768,768,768,768,768,768,768,768,768,768,768,768,768,768,768,768,768,768,768,768,768,768,768,768,768,768,768,768,768,768,768,768,768,768,768,768,768,768,768,768,768,768,768,768,768,768,768,768,768,768,768,768,768,768,768,768,768,768,768,768,768,768,768,768,768,768,768,768,768,768,768,768,768,768,768,770,774,781,782,782,782,782,782,782,782,782,782,782,782,785,791,799,813,818,820,821,821,821,823,829,834,839,841,841,841,841,842,860,880,899,915,921,922,922,922,922,922,922,915,903,893,881,857,842,838,826,822,820,818,818,818,816,810,806,794,755,726,693,614,551,488,488,488,488,488,488,488,488,488,488,488,488,488,488,185,230,359,520,577,595,610,617,622,624,624,625,625,625,627,632,644,665,740,767,786,800,805,805,805,805,805,805,805,805,806,806,806,806,806,815,839,886,987,1015,1028,1028,1028,1028,1028,1027,1012,982,905,879,856,836,830,826,825,824,824,824,824,823,823,823,823,822,820,819,819,819,822,824,824,824,822,821,821,820,819,812,807,805,805,805,805,805,805,805,804,802,795,775,764,756,751,745,740,730,712,676,634,625,615,596,587,580,577,577,576,574,570,565,557,552,548,544,542,540,539,538,538,549,596,726,826,974,1022,1039,1045,1047,1048,1051,1061,1072,1082,1087,1087,1087,1087,1087,1087],"ymouse":[516,516,516,516,516,516,516,516,516,516,516,516,516,516,516,516,516,516,516,516,516,516,516,516,516,516,516,516,519,527,541,547,555,563,572,591,593,593,593,593,594,595,596,597,597,597,597,597,597,597,597,597,597,597,598,601,604,606,606,606,606,606,606,606,606,606,606,606,606,606,607,614,619,623,626,628,628,628,628,628,628,628,628,628,628,628,628,628,628,628,628,628,628,628,628,628,628,628,628,628,628,628,628,628,628,628,628,628,628,628,628,628,628,628,628,628,628,628,628,628,628,628,628,628,628,628,628,628,628,628,628,628,628,628,628,628,628,628,628,628,628,628,628,628,628,628,628,628,628,628,628,628,628,628,628,628,628,628,628,628,628,628,628,628,628,628,628,628,626,626,624,624,624,624,624,624,624,624,624,624,624,624,624,623,623,623,623,623,623,623,623,623,622,621,620,619,619,619,619,619,600,582,565,553,548,546,546,546,546,546,546,555,568,581,594,612,620,622,624,625,625,625,625,625,625,625,625,625,634,645,662,705,740,797,797,797,797,797,797,797,797,797,797,797,797,797,797,855,849,831,806,798,790,781,774,756,746,735,732,725,708,695,684,670,657,634,626,623,621,619,619,619,619,619,619,619,619,619,619,619,619,619,609,580,533,441,412,400,400,400,400,400,398,389,374,350,344,340,338,337,338,339,343,346,351,365,374,374,374,374,375,387,417,461,496,533,539,539,543,546,548,548,550,553,571,593,626,633,634,634,634,634,634,634,634,622,589,569,556,548,537,528,507,472,418,342,320,299,266,248,227,224,221,220,218,207,198,186,179,175,169,166,164,162,161,161,160,163,172,172,174,162,153,147,142,137,134,128,123,116,112,111,111,110,103,88],"timestamp_mouse":[9,26,47,66,87,108,126,146,166,187,206,226,246,266,287,307,326,346,366,386,407,427,447,466,487,506,527,546,567,586,606,627,647,667,687,707,727,746,766,787,807,826,848,867,887,906,927,946,966,987,1006,1027,1047,1067,1087,1106,1126,1147,1166,1187,1207,1226,1246,1267,1287,1307,1328,1347,1367,1387,1406,1427,1448,1467,1487,1507,1527,1547,1568,1586,1607,1628,1646,1667,1688,1706,1726,1747,1767,1786,1806,1827,1847,1868,1886,1907,1928,1946,1966,1988,2006,2027,2046,2067,2086,2107,2127,2148,2166,2187,2207,2228,2247,2267,2286,2307,2326,2347,2366,2388,2408,2427,2447,2467,2487,2507,2527,2546,2567,2587,2606,2627,2646,2666,2687,2707,2727,2746,2767,2787,2807,2826,2846,2866,2886,2907,2927,2948,2968,2987,3007,3028,3047,3067,3087,3108,3127,3147,3168,3187,3207,3227,3247,3267,3287,3307,3327,3347,3366,3386,3406,3426,3446,3466,3487,3508,3527,3546,3566,3586,3606,3627,3646,3666,3688,3706,3726,3747,3766,3787,3808,3826,3847,3866,3887,3906,3926,3946,3967,3986,4006,4027,4046,4067,4086,4106,4126,4146,4166,4188,4207,4227,4246,4267,4286,4306,4327,4348,4366,4387,4406,4427,4447,4466,4487,4506,4526,4547,4567,4587,4606,4627,4646,4666,4686,4706,4728,4747,4766,4787,4807,4827,4846,4866,4887,4907,4927,4947,4966,4986,5007,5027,5046,5066,5088,5107,5127,5147,5166,5186,5206,5227,5246,5267,5286,5307,5326,5347,5366,5386,5408,5426,5446,5468,5487,5507,5526,5548,5567,5586,5606,5627,5646,5667,5687,5707,5726,5747,5767,5787,5807,5826,5846,5866,5887,5907,5926,5946,5966,5986,6007,6026,6047,6066,6087,6106,6126,6147,6166,6186,6207,6227,6246,6267,6288,6307,6326,6346,6366,6386,6407,6426,6448,6466,6486,6506,6527,6546,6567,6587,6606,6627,6646,6666,6687,6706,6727,6746,6767,6787,6806,6827,6846,6867,6886,6906,6926,6946,6966,6987,7008,7027,7046,7066,7087,7106,7128,7147,7166,7186,7206,7227,7247,7267,7286,7306,7326,7347,7366,7386,7406,7427,7448,7467,7487,7507,7527,7546,7566,7586,7606,7626,7647,7666,7687,7707],"xSR":741.5,"ySR":469.95,"xT1":424.9,"yT1":0,"xT2":1058.1,"yT2":0,"toosoon":0,"cond_shown":"Incongruent","ratio_trial":100,"L_num":8,"L_den":16,"R_num":6,"R_den":10,"correct_side":2,"subjID":"LorenaGarcia8","gender":"1","age":"11","school":"6","test":{"fix_dur":[250,1500],"timestim":1000,"targets_dim":[100,100],"targets_relative_coord":[0.3,0.7],"size_stim":[880,420],"start_dim":[100,100],"size_start":[300,300],"size_fix":60,"samplingrate":20,"img_types":["Congruent","Incongruent"],"ratios":[100,200,300],"rep_conds":19,"nTrials":120,"trials_to_rest":500,"Trials_order":[109,114,51,50,110,75,21,92,48,72,70,58,5,65,49,32,52,30,36,77,54,116,47,119,6,102,99,91,40,71,14,66,15,57,12,76,26,13,24,98,7,45,1,94,89,2,38,106,37,10,59,97,115,118,22,56,107,31,112,43,113,4,41,104,86,103,85,61,84,73,34,78,64,108,8,63,81,68,74,42,35,27,20,87,105,62,17,79,67,93,55,0,11,117,53,83,9,111,18,23,82,90,95,46,39,60,19,44,101,28,3,100,88,25,29,69,80,96,16,33],"cond_shown":["Incongruent","Congruent","Incongruent","Congruent","Congruent","Incongruent","Incongruent","Congruent","Congruent","Congruent","Congruent","Congruent","Incongruent","Incongruent","Incongruent","Congruent","Congruent","Congruent","Congruent","Incongruent","Congruent","Congruent","Incongruent","Incongruent","Congruent","Congruent","Incongruent","Incongruent","Congruent","Incongruent","Congruent","Congruent","Incongruent","Incongruent","Congruent","Congruent","Congruent","Incongruent","Congruent","Congruent","Incongruent","Incongruent","Incongruent","Congruent","Incongruent","Congruent","Congruent","Congruent","Incongruent","Congruent","Incongruent","Incongruent","Incongruent","Congruent","Congruent","Congruent","Incongruent","Incongruent","Congruent","Incongruent","Incongruent","Congruent","Incongruent","Congruent","Congruent","Incongruent","Incongruent","Incongruent","Congruent","Incongruent","Congruent","Congruent","Congruent","Congruent","Congruent","Incongruent","Incongruent","Congruent","Congruent","Congruent","Incongruent","Incongruent","Congruent","Incongruent","Incongruent","Congruent","Incongruent","Incongruent","Incongruent","Incongruent","Incongruent","Congruent","Incongruent","Incongruent","Incongruent","Incongruent","Incongruent","Incongruent","Congruent","Incongruent","Congruent","Congruent","Incongruent","Congruent","Incongruent","Congruent","Incongruent","Congruent","Incongruent","Congruent","Incongruent","Congruent","Congruent","Incongruent","Incongruent","Incongruent","Congruent","Congruent","Congruent","Incongruent"],"ratio_trial":[100,100,200,200,200,200,200,200,100,100,300,300,300,300,100,200,300,100,100,300,100,200,300,300,100,100,200,100,300,300,200,100,200,200,100,300,200,100,100,200,100,200,100,300,300,200,200,300,100,300,300,100,100,300,300,200,300,100,300,100,300,300,300,200,200,100,100,100,100,100,300,100,300,100,200,200,200,200,200,100,300,200,200,200,200,200,300,100,100,200,100,100,300,200,300,300,200,200,100,300,300,100,300,300,200,100,100,200,300,300,200,300,300,100,300,200,200,100,300,200],"left_num":[8,4,4,13,3,7,7,9,9,6,24,20,13,13,10,3,3,9,11,13,4,5,13,3,8,6,3,4,1,4,1,1,3,7,3,8,6,3,15,8,9,1,6,7,3,11,20,20,6,11,1,12,9,1,1,6,1,2,11,3,13,3,1,21,16,10,9,13,10,8,1,6,5,12,14,14,3,9,7,1,8,9,3,4,3,7,3,6,1,4,9,12,4,1,4,4,7,4,2,8,3,2,4,20,7,3,13,16,13,24,3,12,24,13,4,7,9,11,1,4],"right_num":[6,15,6,14,14,8,8,13,8,15,8,13,12,12,8,14,2,8,6,12,6,14,12,4,2,5,11,8,11,6,21,3,1,14,2,1,11,8,13,3,6,3,3,20,4,3,9,8,11,1,2,2,13,19,3,7,2,6,1,4,12,4,2,2,12,9,14,6,3,1,7,5,7,13,6,12,11,4,18,18,14,8,11,1,11,18,4,7,8,14,13,13,2,2,8,2,14,14,11,9,11,6,2,5,4,2,12,9,12,2,11,2,8,6,2,14,4,6,19,6],"left_den":[16,10,5,26,6,10,10,30,15,12,30,25,26,26,25,10,6,15,22,26,8,10,26,6,16,20,4,8,5,5,2,2,10,10,6,16,20,5,25,15,18,2,12,14,6,22,25,25,10,22,2,30,15,3,5,12,2,4,22,6,26,6,2,30,20,25,15,26,25,20,20,20,25,30,28,30,4,20,15,2,10,15,10,30,4,15,6,10,2,6,15,30,20,3,5,20,10,6,5,10,12,5,20,25,15,6,26,30,26,30,4,24,30,26,20,10,20,22,3,5],"right_den":[10,30,10,20,20,16,16,26,16,25,16,26,15,15,16,28,10,16,15,15,10,20,15,20,5,25,20,20,22,12,30,5,2,28,5,5,22,16,26,9,10,10,5,25,20,10,15,16,22,5,10,4,26,30,6,10,10,15,5,10,15,5,10,4,20,18,28,10,10,2,20,25,14,26,20,18,20,16,27,30,28,10,22,3,20,27,20,14,20,30,26,26,4,15,16,4,28,30,22,18,20,12,4,10,6,5,20,27,15,4,20,10,16,10,4,28,16,15,30,10],"correct_side":[2,2,1,2,2,1,1,2,1,2,1,1,2,2,2,2,1,1,1,2,2,2,2,1,1,1,1,1,2,1,2,2,2,1,1,1,2,1,1,1,2,1,2,2,1,1,1,1,1,1,1,2,1,2,2,2,1,1,1,1,2,2,1,1,1,2,1,2,1,2,2,1,2,2,1,2,1,1,2,2,1,2,2,2,1,2,1,1,1,1,1,2,2,1,1,2,1,1,2,1,2,2,2,1,2,1,2,1,2,1,1,1,1,2,2,1,1,1,2,1],"img_shown":["img2/100/Incongruent/R/I_Dist_100_LN_8_LD_16_RN_6_RD_10_1.png","img2/100/Congruent/R/C_Dist_100_LN_4_LD_10_RN_15_RD_30_1.png","img2/200/Incongruent/L/I_Dist_200_LN_4_LD_5_RN_6_RD_10_0.png","img2/200/Congruent/R/C_Dist_200_LN_13_LD_26_RN_14_RD_20_1.png","img2/200/Congruent/R/C_Dist_200_LN_3_LD_6_RN_14_RD_20_1.png","img2/200/Incongruent/L/I_Dist_200_LN_7_LD_10_RN_8_RD_16_0.png","img2/200/Incongruent/L/I_Dist_200_LN_7_LD_10_RN_8_RD_16_0.png","img2/200/Congruent/R/C_Dist_200_LN_9_LD_30_RN_13_RD_26_1.png","img2/100/Congruent/L/C_Dist_100_LN_9_LD_15_RN_8_RD_16_0.png","img2/100/Congruent/R/C_Dist_100_LN_6_LD_12_RN_15_RD_25_1.png","img2/300/Congruent/L/C_Dist_300_LN_24_LD_30_RN_8_RD_16_0.png","img2/300/Congruent/L/C_Dist_300_LN_20_LD_25_RN_13_RD_26_0.png","img2/300/Incongruent/R/I_Dist_300_LN_13_LD_26_RN_12_RD_15_1.png","img2/300/Incongruent/R/I_Dist_300_LN_13_LD_26_RN_12_RD_15_1.png","img2/100/Incongruent/R/I_Dist_100_LN_10_LD_25_RN_8_RD_16_1.png","img2/200/Congruent/R/C_Dist_200_LN_3_LD_10_RN_14_RD_28_1.png","img2/300/Congruent/L/C_Dist_300_LN_3_LD_6_RN_2_RD_10_0.png","img2/100/Congruent/L/C_Dist_100_LN_9_LD_15_RN_8_RD_16_0.png","img2/100/Congruent/L/C_Dist_100_LN_11_LD_22_RN_6_RD_15_0.png","img2/300/Incongruent/R/I_Dist_300_LN_13_LD_26_RN_12_RD_15_1.png","img2/100/Congruent/R/C_Dist_100_LN_4_LD_8_RN_6_RD_10_1.png","img2/200/Congruent/R/C_Dist_200_LN_5_LD_10_RN_14_RD_20_1.png","img2/300/Incongruent/R/I_Dist_300_LN_13_LD_26_RN_12_RD_15_1.png","img2/300/Incongruent/L/I_Dist_300_LN_3_LD_6_RN_4_RD_20_0.png","img2/100/Congruent/L/C_Dist_100_LN_8_LD_16_RN_2_RD_5_0.png","img2/100/Congruent/L/C_Dist_100_LN_6_LD_20_RN_5_RD_25_0.png","img2/200/Incongruent/L/I_Dist_200_LN_3_LD_4_RN_11_RD_20_0.png","img2/100/Incongruent/L/I_Dist_100_LN_4_LD_8_RN_8_RD_20_0.png","img2/300/Congruent/R/C_Dist_300_LN_1_LD_5_RN_11_RD_22_1.png","img2/300/Incongruent/L/I_Dist_300_LN_4_LD_5_RN_6_RD_12_0.png","img2/200/Congruent/R/C_Dist_200_LN_1_LD_2_RN_21_RD_30_1.png","img2/100/Congruent/R/C_Dist_100_LN_1_LD_2_RN_3_RD_5_1.png","img2/200/Incongruent/R/I_Dist_200_LN_3_LD_10_RN_1_RD_2_1.png","img2/200/Incongruent/L/I_Dist_200_LN_7_LD_10_RN_14_RD_28_0.png","img2/100/Congruent/L/C_Dist_100_LN_3_LD_6_RN_2_RD_5_0.png","img2/300/Congruent/L/C_Dist_300_LN_8_LD_16_RN_1_RD_5_0.png","img2/200/Congruent/R/C_Dist_200_LN_6_LD_20_RN_11_RD_22_1.png","img2/100/Incongruent/L/I_Dist_100_LN_3_LD_5_RN_8_RD_16_0.png","img2/100/Congruent/L/C_Dist_100_LN_15_LD_25_RN_13_RD_26_0.png","img2/200/Congruent/L/C_Dist_200_LN_8_LD_15_RN_3_RD_9_0.png","img2/100/Incongruent/R/I_Dist_100_LN_9_LD_18_RN_6_RD_10_1.png","img2/200/Incongruent/L/I_Dist_200_LN_1_LD_2_RN_3_RD_10_0.png","img2/100/Incongruent/R/I_Dist_100_LN_6_LD_12_RN_3_RD_5_1.png","img2/300/Congruent/R/C_Dist_300_LN_7_LD_14_RN_20_RD_25_1.png","img2/300/Incongruent/L/I_Dist_300_LN_3_LD_6_RN_4_RD_20_0.png","img2/200/Congruent/L/C_Dist_200_LN_11_LD_22_RN_3_RD_10_0.png","img2/200/Congruent/L/C_Dist_200_LN_20_LD_25_RN_9_RD_15_0.png","img2/300/Congruent/L/C_Dist_300_LN_20_LD_25_RN_8_RD_16_0.png","img2/100/Incongruent/L/I_Dist_100_LN_6_LD_10_RN_11_RD_22_0.png","img2/300/Congruent/L/C_Dist_300_LN_11_LD_22_RN_1_RD_5_0.png","img2/300/Incongruent/L/I_Dist_300_LN_1_LD_2_RN_2_RD_10_0.png","img2/100/Incongruent/R/I_Dist_100_LN_12_LD_30_RN_2_RD_4_1.png","img2/100/Incongruent/L/I_Dist_100_LN_9_LD_15_RN_13_RD_26_0.png","img2/300/Congruent/R/C_Dist_300_LN_1_LD_3_RN_19_RD_30_1.png","img2/300/Congruent/R/C_Dist_300_LN_1_LD_5_RN_3_RD_6_1.png","img2/200/Congruent/R/C_Dist_200_LN_6_LD_12_RN_7_RD_10_1.png","img2/300/Incongruent/L/I_Dist_300_LN_1_LD_2_RN_2_RD_10_0.png","img2/100/Incongruent/L/I_Dist_100_LN_2_LD_4_RN_6_RD_15_0.png","img2/300/Congruent/L/C_Dist_300_LN_11_LD_22_RN_1_RD_5_0.png","img2/100/Incongruent/L/I_Dist_100_LN_3_LD_6_RN_4_RD_10_0.png","img2/300/Incongruent/R/I_Dist_300_LN_13_LD_26_RN_12_RD_15_1.png","img2/300/Congruent/R/C_Dist_300_LN_3_LD_6_RN_4_RD_5_1.png","img2/300/Incongruent/L/I_Dist_300_LN_1_LD_2_RN_2_RD_10_0.png","img2/200/Congruent/L/C_Dist_200_LN_21_LD_30_RN_2_RD_4_0.png","img2/200/Congruent/L/C_Dist_200_LN_16_LD_20_RN_12_RD_20_0.png","img2/100/Incongruent/R/I_Dist_100_LN_10_LD_25_RN_9_RD_18_1.png","img2/100/Incongruent/L/I_Dist_100_LN_9_LD_15_RN_14_RD_28_0.png","img2/100/Incongruent/R/I_Dist_100_LN_13_LD_26_RN_6_RD_10_1.png","img2/100/Congruent/L/C_Dist_100_LN_10_LD_25_RN_3_RD_10_0.png","img2/100/Incongruent/R/I_Dist_100_LN_8_LD_20_RN_1_RD_2_1.png","img2/300/Congruent/R/C_Dist_300_LN_1_LD_20_RN_7_RD_20_1.png","img2/100/Congruent/L/C_Dist_100_LN_6_LD_20_RN_5_RD_25_0.png","img2/300/Congruent/R/C_Dist_300_LN_5_LD_25_RN_7_RD_14_1.png","img2/100/Congruent/R/C_Dist_100_LN_12_LD_30_RN_13_RD_26_1.png","img2/200/Congruent/L/C_Dist_200_LN_14_LD_28_RN_6_RD_20_0.png","img2/200/Incongruent/R/I_Dist_200_LN_14_LD_30_RN_12_RD_18_1.png","img2/200/Incongruent/L/I_Dist_200_LN_3_LD_4_RN_11_RD_20_0.png","img2/200/Congruent/L/C_Dist_200_LN_9_LD_20_RN_4_RD_16_0.png","img2/200/Congruent/R/C_Dist_200_LN_7_LD_15_RN_18_RD_27_1.png","img2/100/Congruent/R/C_Dist_100_LN_1_LD_2_RN_18_RD_30_1.png","img2/300/Incongruent/L/I_Dist_300_LN_8_LD_10_RN_14_RD_28_0.png","img2/200/Incongruent/R/I_Dist_200_LN_9_LD_15_RN_8_RD_10_1.png","img2/200/Congruent/R/C_Dist_200_LN_3_LD_10_RN_11_RD_22_1.png","img2/200/Incongruent/R/I_Dist_200_LN_4_LD_30_RN_1_RD_3_1.png","img2/200/Incongruent/L/I_Dist_200_LN_3_LD_4_RN_11_RD_20_0.png","img2/200/Congruent/R/C_Dist_200_LN_7_LD_15_RN_18_RD_27_1.png","img2/300/Incongruent/L/I_Dist_300_LN_3_LD_6_RN_4_RD_20_0.png","img2/100/Incongruent/L/I_Dist_100_LN_6_LD_10_RN_7_RD_14_0.png","img2/100/Incongruent/L/I_Dist_100_LN_1_LD_2_RN_8_RD_20_0.png","img2/200/Incongruent/L/I_Dist_200_LN_4_LD_6_RN_14_RD_30_0.png","img2/100/Incongruent/L/I_Dist_100_LN_9_LD_15_RN_13_RD_26_0.png","img2/100/Congruent/R/C_Dist_100_LN_12_LD_30_RN_13_RD_26_1.png","img2/300/Incongruent/R/I_Dist_300_LN_4_LD_20_RN_2_RD_4_1.png","img2/200/Incongruent/L/I_Dist_200_LN_1_LD_3_RN_2_RD_15_0.png","img2/300/Incongruent/L/I_Dist_300_LN_4_LD_5_RN_8_RD_16_0.png","img2/300/Incongruent/R/I_Dist_300_LN_4_LD_20_RN_2_RD_4_1.png","img2/200/Incongruent/L/I_Dist_200_LN_7_LD_10_RN_14_RD_28_0.png","img2/200/Incongruent/L/I_Dist_200_LN_4_LD_6_RN_14_RD_30_0.png","img2/100/Congruent/R/C_Dist_100_LN_2_LD_5_RN_11_RD_22_1.png","img2/300/Incongruent/L/I_Dist_300_LN_8_LD_10_RN_9_RD_18_0.png","img2/300/Congruent/R/C_Dist_300_LN_3_LD_12_RN_11_RD_20_1.png","img2/100/Congruent/R/C_Dist_100_LN_2_LD_5_RN_6_RD_12_1.png","img2/300/Incongruent/R/I_Dist_300_LN_4_LD_20_RN_2_RD_4_1.png","img2/300/Congruent/L/C_Dist_300_LN_20_LD_25_RN_5_RD_10_0.png","img2/200/Incongruent/R/I_Dist_200_LN_7_LD_15_RN_4_RD_6_1.png","img2/100/Congruent/L/C_Dist_100_LN_3_LD_6_RN_2_RD_5_0.png","img2/100/Incongruent/R/I_Dist_100_LN_13_LD_26_RN_12_RD_20_1.png","img2/200/Congruent/L/C_Dist_200_LN_16_LD_30_RN_9_RD_27_0.png","img2/300/Incongruent/R/I_Dist_300_LN_13_LD_26_RN_12_RD_15_1.png","img2/300/Congruent/L/C_Dist_300_LN_24_LD_30_RN_2_RD_4_0.png","img2/200/Incongruent/L/I_Dist_200_LN_3_LD_4_RN_11_RD_20_0.png","img2/300/Congruent/L/C_Dist_300_LN_12_LD_24_RN_2_RD_10_0.png","img2/300/Congruent/L/C_Dist_300_LN_24_LD_30_RN_8_RD_16_0.png","img2/100/Incongruent/R/I_Dist_100_LN_13_LD_26_RN_6_RD_10_1.png","img2/300/Incongruent/R/I_Dist_300_LN_4_LD_20_RN_2_RD_4_1.png","img2/200/Incongruent/L/I_Dist_200_LN_7_LD_10_RN_14_RD_28_0.png","img2/200/Congruent/L/C_Dist_200_LN_9_LD_20_RN_4_RD_16_0.png","img2/100/Congruent/L/C_Dist_100_LN_11_LD_22_RN_6_RD_15_0.png","img2/300/Congruent/R/C_Dist_300_LN_1_LD_3_RN_19_RD_30_1.png","img2/200/Incongruent/L/I_Dist_200_LN_4_LD_5_RN_6_RD_10_0.png"],"dist100_C":[["C_Dist_100_LN_10_LD_25_RN_3_RD_10_0.png","C_Dist_100_LN_11_LD_22_RN_4_RD_10_0.png","C_Dist_100_LN_11_LD_22_RN_6_RD_15_0.png","C_Dist_100_LN_15_LD_25_RN_13_RD_26_0.png","C_Dist_100_LN_3_LD_6_RN_2_RD_5_0.png","C_Dist_100_LN_6_LD_20_RN_5_RD_25_0.png","C_Dist_100_LN_8_LD_16_RN_2_RD_5_0.png","C_Dist_100_LN_9_LD_15_RN_8_RD_16_0.png"],["C_Dist_100_LN_1_LD_2_RN_18_RD_30_1.png","C_Dist_100_LN_1_LD_2_RN_3_RD_5_1.png","C_Dist_100_LN_12_LD_30_RN_13_RD_26_1.png","C_Dist_100_LN_2_LD_5_RN_11_RD_22_1.png","C_Dist_100_LN_2_LD_5_RN_6_RD_12_1.png","C_Dist_100_LN_3_LD_20_RN_4_RD_16_1.png","C_Dist_100_LN_4_LD_10_RN_15_RD_30_1.png","C_Dist_100_LN_4_LD_8_RN_6_RD_10_1.png","C_Dist_100_LN_6_LD_12_RN_15_RD_25_1.png","C_Dist_100_LN_7_LD_14_RN_15_RD_25_1.png","C_Dist_100_LN_7_LD_14_RN_9_RD_15_1.png"]],"dist100_I":[["I_Dist_100_LN_1_LD_2_RN_8_RD_20_0.png","I_Dist_100_LN_2_LD_4_RN_6_RD_15_0.png","I_Dist_100_LN_2_LD_4_RN_8_RD_20_0.png","I_Dist_100_LN_3_LD_5_RN_11_RD_22_0.png","I_Dist_100_LN_3_LD_5_RN_8_RD_16_0.png","I_Dist_100_LN_3_LD_6_RN_4_RD_10_0.png","I_Dist_100_LN_3_LD_9_RN_7_RD_30_0.png","I_Dist_100_LN_4_LD_8_RN_8_RD_20_0.png","I_Dist_100_LN_6_LD_10_RN_11_RD_22_0.png","I_Dist_100_LN_6_LD_10_RN_13_RD_26_0.png","I_Dist_100_LN_6_LD_10_RN_7_RD_14_0.png","I_Dist_100_LN_9_LD_10_RN_20_RD_25_0.png","I_Dist_100_LN_9_LD_15_RN_13_RD_26_0.png","I_Dist_100_LN_9_LD_15_RN_14_RD_28_0.png"],["I_Dist_100_LN_10_LD_25_RN_8_RD_16_1.png","I_Dist_100_LN_10_LD_25_RN_9_RD_18_1.png","I_Dist_100_LN_11_LD_22_RN_9_RD_15_1.png","I_Dist_100_LN_12_LD_24_RN_9_RD_15_1.png","I_Dist_100_LN_12_LD_30_RN_2_RD_4_1.png","I_Dist_100_LN_13_LD_26_RN_12_RD_20_1.png","I_Dist_100_LN_13_LD_26_RN_6_RD_10_1.png","I_Dist_100_LN_17_LD_30_RN_10_RD_15_1.png","I_Dist_100_LN_6_LD_12_RN_3_RD_5_1.png","I_Dist_100_LN_8_LD_16_RN_6_RD_10_1.png","I_Dist_100_LN_8_LD_20_RN_1_RD_2_1.png","I_Dist_100_LN_9_LD_18_RN_6_RD_10_1.png"]],"dist100_S":[["E_Dist_100_LN_2_LD_12_RN_2_RD_30_0.png","E_Dist_100_LN_6_LD_10_RN_6_RD_12_0.png"],["E_Dist_100_LN_6_LD_12_RN_6_RD_10_1.png"]],"dist200_C":[["C_Dist_200_LN_11_LD_22_RN_3_RD_10_0.png","C_Dist_200_LN_12_LD_15_RN_6_RD_10_0.png","C_Dist_200_LN_12_LD_20_RN_6_RD_15_0.png","C_Dist_200_LN_14_LD_28_RN_6_RD_20_0.png","C_Dist_200_LN_15_LD_25_RN_4_RD_10_0.png","C_Dist_200_LN_16_LD_20_RN_12_RD_20_0.png","C_Dist_200_LN_16_LD_30_RN_9_RD_27_0.png","C_Dist_200_LN_20_LD_25_RN_9_RD_15_0.png","C_Dist_200_LN_21_LD_30_RN_2_RD_4_0.png","C_Dist_200_LN_4_LD_10_RN_3_RD_15_0.png","C_Dist_200_LN_4_LD_8_RN_3_RD_10_0.png","C_Dist_200_LN_6_LD_15_RN_3_RD_15_0.png","C_Dist_200_LN_7_LD_21_RN_2_RD_15_0.png","C_Dist_200_LN_8_LD_15_RN_2_RD_6_0.png","C_Dist_200_LN_8_LD_15_RN_3_RD_9_0.png","C_Dist_200_LN_8_LD_15_RN_7_RD_21_0.png","C_Dist_200_LN_9_LD_20_RN_4_RD_16_0.png"],["C_Dist_200_LN_1_LD_2_RN_21_RD_30_1.png","C_Dist_200_LN_13_LD_26_RN_14_RD_20_1.png","C_Dist_200_LN_3_LD_10_RN_11_RD_22_1.png","C_Dist_200_LN_3_LD_10_RN_14_RD_28_1.png","C_Dist_200_LN_3_LD_10_RN_7_RD_14_1.png","C_Dist_200_LN_3_LD_12_RN_9_RD_20_1.png","C_Dist_200_LN_3_LD_6_RN_14_RD_20_1.png","C_Dist_200_LN_5_LD_10_RN_14_RD_20_1.png","C_Dist_200_LN_6_LD_12_RN_7_RD_10_1.png","C_Dist_200_LN_6_LD_20_RN_11_RD_22_1.png","C_Dist_200_LN_7_LD_15_RN_18_RD_27_1.png","C_Dist_200_LN_9_LD_30_RN_13_RD_26_1.png"]],"dist200_I":[["I_Dist_200_LN_1_LD_2_RN_3_RD_10_0.png","I_Dist_200_LN_1_LD_3_RN_2_RD_15_0.png","I_Dist_200_LN_3_LD_4_RN_11_RD_20_0.png","I_Dist_200_LN_4_LD_5_RN_6_RD_10_0.png","I_Dist_200_LN_4_LD_6_RN_14_RD_30_0.png","I_Dist_200_LN_7_LD_10_RN_12_RD_24_0.png","I_Dist_200_LN_7_LD_10_RN_14_RD_28_0.png","I_Dist_200_LN_7_LD_10_RN_8_RD_16_0.png"],["I_Dist_200_LN_11_LD_20_RN_3_RD_4_1.png","I_Dist_200_LN_14_LD_30_RN_12_RD_18_1.png","I_Dist_200_LN_14_LD_30_RN_6_RD_9_1.png","I_Dist_200_LN_3_LD_10_RN_1_RD_2_1.png","I_Dist_200_LN_4_LD_30_RN_1_RD_3_1.png","I_Dist_200_LN_6_LD_20_RN_3_RD_6_1.png","I_Dist_200_LN_7_LD_15_RN_4_RD_6_1.png","I_Dist_200_LN_7_LD_15_RN_6_RD_9_1.png","I_Dist_200_LN_9_LD_15_RN_8_RD_10_1.png"]],"dist200_S":[["E_Dist_200_LN_3_LD_6_RN_3_RD_10_0.png"],["E_Dist_200_LN_3_LD_10_RN_3_RD_6_1.png"]],"dist300_C":[["C_Dist_300_LN_11_LD_22_RN_1_RD_5_0.png","C_Dist_300_LN_11_LD_22_RN_2_RD_10_0.png","C_Dist_300_LN_11_LD_22_RN_4_RD_20_0.png","C_Dist_300_LN_12_LD_24_RN_2_RD_10_0.png","C_Dist_300_LN_18_LD_20_RN_9_RD_15_0.png","C_Dist_300_LN_20_LD_25_RN_13_RD_26_0.png","C_Dist_300_LN_20_LD_25_RN_14_RD_28_0.png","C_Dist_300_LN_20_LD_25_RN_5_RD_10_0.png","C_Dist_300_LN_20_LD_25_RN_8_RD_16_0.png","C_Dist_300_LN_20_LD_25_RN_9_RD_18_0.png","C_Dist_300_LN_24_LD_30_RN_2_RD_4_0.png","C_Dist_300_LN_24_LD_30_RN_8_RD_16_0.png","C_Dist_300_LN_3_LD_6_RN_2_RD_10_0.png","C_Dist_300_LN_4_LD_10_RN_1_RD_10_0.png","C_Dist_300_LN_4_LD_5_RN_2_RD_4_0.png","C_Dist_300_LN_8_LD_16_RN_1_RD_5_0.png","C_Dist_300_LN_9_LD_10_RN_3_RD_5_0.png"],["C_Dist_300_LN_1_LD_20_RN_7_RD_20_1.png","C_Dist_300_LN_1_LD_3_RN_19_RD_30_1.png","C_Dist_300_LN_1_LD_30_RN_8_RD_24_1.png","C_Dist_300_LN_1_LD_5_RN_11_RD_22_1.png","C_Dist_300_LN_1_LD_5_RN_3_RD_6_1.png","C_Dist_300_LN_1_LD_5_RN_6_RD_12_1.png","C_Dist_300_LN_2_LD_10_RN_12_RD_24_1.png","C_Dist_300_LN_2_LD_20_RN_10_RD_25_1.png","C_Dist_300_LN_3_LD_12_RN_11_RD_20_1.png","C_Dist_300_LN_3_LD_6_RN_4_RD_5_1.png","C_Dist_300_LN_4_LD_20_RN_13_RD_26_1.png","C_Dist_300_LN_5_LD_25_RN_6_RD_12_1.png","C_Dist_300_LN_5_LD_25_RN_7_RD_14_1.png","C_Dist_300_LN_7_LD_14_RN_20_RD_25_1.png","C_Dist_300_LN_8_LD_15_RN_10_RD_12_1.png"]],"dist300_I":[["I_Dist_300_LN_1_LD_2_RN_2_RD_10_0.png","I_Dist_300_LN_1_LD_2_RN_3_RD_15_0.png","I_Dist_300_LN_2_LD_4_RN_6_RD_30_0.png","I_Dist_300_LN_3_LD_6_RN_4_RD_20_0.png","I_Dist_300_LN_4_LD_5_RN_6_RD_12_0.png","I_Dist_300_LN_4_LD_5_RN_8_RD_16_0.png","I_Dist_300_LN_7_LD_10_RN_8_RD_20_0.png","I_Dist_300_LN_8_LD_10_RN_14_RD_28_0.png","I_Dist_300_LN_8_LD_10_RN_9_RD_18_0.png"],["I_Dist_300_LN_13_LD_26_RN_12_RD_15_1.png","I_Dist_300_LN_4_LD_20_RN_2_RD_4_1.png"]],"dist300_S":[["E_Dist_300_LN_9_LD_12_RN_9_RD_20_0.png"],["E_Dist_300_LN_18_LD_30_RN_18_RD_20_1.png","E_Dist_300_LN_3_LD_10_RN_3_RD_5_1.png","E_Dist_300_LN_9_LD_20_RN_9_RD_12_1.png"]],"dist500_C":[["C_Dist_500_LN_10_LD_13_RN_7_RD_26_0.png","C_Dist_500_LN_10_LD_15_RN_4_RD_24_0.png","C_Dist_500_LN_12_LD_16_RN_3_RD_12_0.png","C_Dist_500_LN_12_LD_18_RN_4_RD_24_0.png","C_Dist_500_LN_15_LD_18_RN_5_RD_15_0.png","C_Dist_500_LN_15_LD_20_RN_1_RD_4_0.png","C_Dist_500_LN_18_LD_27_RN_1_RD_6_0.png","C_Dist_500_LN_20_LD_24_RN_1_RD_3_0.png","C_Dist_500_LN_20_LD_24_RN_3_RD_9_0.png","C_Dist_500_LN_20_LD_24_RN_7_RD_21_0.png","C_Dist_500_LN_20_LD_28_RN_3_RD_14_0.png","C_Dist_500_LN_21_LD_28_RN_6_RD_24_0.png","C_Dist_500_LN_22_LD_28_RN_2_RD_7_0.png","C_Dist_500_LN_25_LD_30_RN_9_RD_27_0.png","C_Dist_500_LN_4_LD_6_RN_1_RD_6_0.png","C_Dist_500_LN_5_LD_6_RN_2_RD_6_0.png","C_Dist_500_LN_6_LD_9_RN_1_RD_6_0.png","C_Dist_500_LN_7_LD_10_RN_1_RD_5_0.png","C_Dist_500_LN_8_LD_12_RN_1_RD_6_0.png","C_Dist_500_LN_8_LD_12_RN_4_RD_24_0.png"],["C_Dist_500_LN_1_LD_4_RN_12_RD_16_1.png","C_Dist_500_LN_1_LD_4_RN_9_RD_12_1.png","C_Dist_500_LN_1_LD_9_RN_11_RD_18_1.png","C_Dist_500_LN_10_LD_24_RN_22_RD_24_1.png","C_Dist_500_LN_2_LD_12_RN_10_RD_15_1.png","C_Dist_500_LN_2_LD_12_RN_12_RD_18_1.png","C_Dist_500_LN_2_LD_12_RN_4_RD_6_1.png","C_Dist_500_LN_2_LD_24_RN_7_RD_12_1.png","C_Dist_500_LN_2_LD_5_RN_18_RD_20_1.png","C_Dist_500_LN_2_LD_5_RN_9_RD_10_1.png","C_Dist_500_LN_2_LD_8_RN_12_RD_16_1.png","C_Dist_500_LN_2_LD_8_RN_21_RD_28_1.png","C_Dist_500_LN_3_LD_10_RN_4_RD_5_1.png","C_Dist_500_LN_3_LD_12_RN_15_RD_20_1.png","C_Dist_500_LN_3_LD_30_RN_6_RD_10_1.png","C_Dist_500_LN_3_LD_8_RN_14_RD_16_1.png","C_Dist_500_LN_4_LD_16_RN_15_RD_20_1.png","C_Dist_500_LN_4_LD_24_RN_12_RD_18_1.png","C_Dist_500_LN_5_LD_14_RN_6_RD_7_1.png","C_Dist_500_LN_7_LD_21_RN_20_RD_24_1.png","C_Dist_500_LN_7_LD_28_RN_12_RD_16_1.png","C_Dist_500_LN_7_LD_28_RN_9_RD_12_1.png","C_Dist_500_LN_9_LD_27_RN_20_RD_24_1.png"]],"dist500_I":[["I_Dist_500_LN_2_LD_3_RN_4_RD_24_0.png","I_Dist_500_LN_5_LD_6_RN_6_RD_18_0.png","I_Dist_500_LN_7_LD_8_RN_9_RD_24_0.png"],["I_Dist_500_LN_7_LD_21_RN_5_RD_6_1.png"]],"dist500_S":[["E_Dist_500_LN_6_LD_8_RN_6_RD_24_0.png"],["E_Dist_500_LN_2_LD_12_RN_2_RD_3_1.png","E_Dist_500_LN_6_LD_24_RN_6_RD_8_1.png"]]}},{"start_time":1551891220086,"click_time":1551891224135,"finger_time":1551891220794,"fix_duration":250,"trial":1,"RT":708,"MT":3341,"sideResp":2,"stimulus":[],"xmouse":[771,771,771,771,771,771,771,771,771,771,771,771,771,771,775,784,791,794,794,794,794,794,794,794,794,794,794,794,794,794,794,794,794,796,803,885,953,1023,1090,1098,1108,1108,1111,1112,1118,1134,1138,1140,1142,1143,1156,1171,1193,1220,1264,1345,1380,1404,1419,1429,1447,1453,1456,1456,1449,1436,1435,1435,1435,1435,1435,1435,1435,1435,1435,1435,1435,1435,1435,1435,1435,1435,1432,1430,1426,1422,1409,1403,1399,1393,1382,1359,1351,1348,1348,1348,1348,1348,1350,1358,1368,1387,1397,1403,1406,1406,1406,1406,1406,1403,1393,1372,1364,1356,1347,1344,1344,1344,1344,1344,1344,1348,1352,1353,1354,1354,1354,1354,1349,1340,1333,1330,1330,1330,1330,1330,1330,1329,1332,1337,1343,1358,1361,1365,1367,1367,1367,1367,1362,1361,1361,1352,1345,1336,1325,1308,1267,1230,1172,1091,1005,858,793,730,661,587,533,520,516,516,516,516,516,516,523,534,620,707,809,915,1014,1172,1230,1275,1317,1365,1377,1368,1360,1354,1349,1331,1323,1311,1289,1273,1244,1228,1211,1196,1183,1160,1155],"ymouse":[626,626,626,626,626,626,626,626,626,626,626,626,626,626,623,612,606,602,600,600,600,600,600,600,600,600,600,600,600,600,600,600,600,599,599,626,645,665,684,686,689,689,687,686,677,666,663,662,660,659,646,634,617,595,564,478,414,348,296,229,111,72,44,22,2,0,0,0,0,0,0,0,0,0,0,0,0,0,0,0,0,0,1,5,11,17,44,53,59,66,72,81,84,86,86,86,86,86,86,87,87,92,95,98,100,100,100,100,100,100,97,89,87,85,83,81,81,81,81,81,81,84,88,91,93,94,94,94,92,89,86,85,85,85,85,85,85,86,91,96,105,127,139,154,185,195,263,299,345,398,444,533,565,585,606,633,669,692,712,719,719,690,662,627,589,557,534,529,529,529,529,529,529,529,529,530,542,555,568,582,592,593,583,565,534,465,347,287,240,198,164,119,104,91,76,71,69,70,73,74,75,75,75],"timestamp_mouse":[12,28,47,70,88,109,128,148,167,187,208,229,247,268,289,307,327,348,367,388,409,428,448,468,488,507,527,547,567,588,607,629,649,668,688,708,728,748,767,787,809,828,849,867,888,908,927,948,967,988,1007,1028,1048,1068,1087,1108,1129,1148,1167,1188,1207,1228,1247,1268,1288,1307,1328,1347,1368,1387,1407,1428,1448,1467,1488,1508,1527,1547,1568,1587,1607,1627,1647,1668,1689,1707,1728,1748,1767,1787,1808,1827,1848,1867,1887,1908,1927,1947,1968,1988,2008,2027,2047,2067,2088,2107,2128,2147,2168,2187,2208,2227,2247,2267,2288,2308,2327,2347,2367,2387,2408,2427,2447,2467,2488,2508,2528,2547,2568,2588,2608,2628,2647,2667,2687,2707,2728,2747,2769,2788,2807,2827,2847,2868,2887,2908,2928,2947,2967,2988,3007,3028,3047,3069,3089,3107,3127,3147,3167,3188,3207,3228,3248,3267,3287,3308,3327,3347,3368,3388,3407,3428,3447,3467,3489,3508,3528,3548,3568,3589,3609,3628,3648,3668,3688,3708,3727,3747,3768,3788,3807,3827,3847,3868,3888,3909,3927,3948,3968,3988,4007,4027,4049],"xSR":741.5,"ySR":573.95,"xT1":424.9,"yT1":0,"xT2":1058.1,"yT2":0,"toosoon":0,"cond_shown":"Congruent","ratio_trial":100,"L_num":4,"L_den":10,"R_num":15,"R_den":30,"correct_side":2,"subjID":"LorenaGarcia8","gender":"1","school":"6","age":"11"},{"start_time":1551891245848,"click_time":1551891247954,"finger_time":1551891247433,"fix_duration":392.2701874074428,"trial":2,"RT":1585,"MT":521,"sideResp":1,"stimulus":[],"xmouse":[816,816,816,816,816,816,816,816,816,816,816,816,816,816,816,816,816,816,816,816,816,816,816,816,816,816,816,816,816,816,816,816,816,816,816,816,816,816,816,816,816,816,816,816,816,816,816,816,816,816,816,816,816,816,816,816,816,816,816,816,816,816,816,816,816,816,816,816,816,816,816,816,816,816,816,816,811,791,756,697,616,470,403,354,329,289,282,281,281,287,324,342,357,362,365,366,371,377,387,400,417,421,424,428,432,437],"ymouse":[624,624,624,624,624,624,624,624,624,624,624,624,624,624,624,624,624,624,624,624,624,624,624,624,624,624,624,624,624,624,624,624,624,624,624,624,624,624,624,624,624,624,624,624,624,624,624,624,624,624,624,624,624,624,624,624,624,624,624,624,624,624,624,624,624,624,624,624,624,624,624,624,624,624,624,624,622,616,605,589,569,541,525,510,493,423,384,348,310,263,176,154,138,135,132,132,130,128,125,121,114,111,109,105,100,92],"timestamp_mouse":[20,40,47,65,85,105,125,145,166,185,205,225,245,265,286,306,326,347,366,386,405,426,445,465,485,506,527,545,566,585,605,626,646,666,685,706,726,745,765,785,805,825,845,865,886,906,926,945,965,985,1005,1026,1045,1065,1085,1107,1126,1145,1165,1185,1205,1226,1246,1266,1286,1305,1325,1345,1365,1385,1405,1425,1447,1465,1486,1505,1526,1546,1567,1585,1605,1626,1646,1666,1685,1706,1725,1745,1765,1786,1806,1825,1846,1866,1886,1905,1926,1945,1965,1985,2006,2025,2046,2065,2087,2106],"xSR":741.5,"ySR":573.95,"xT1":424.9,"yT1":0,"xT2":1058.1,"yT2":0,"toosoon":0,"cond_shown":"Incongruent","ratio_trial":200,"L_num":4,"L_den":5,"R_num":6,"R_den":10,"correct_side":1,"subjID":"LorenaGarcia8","gender":"1","school":"6","age":"11"},{"start_time":1551891250154,"click_time":1551891251633,"finger_time":1551891251074,"fix_duration":1398.9931924476975,"trial":3,"RT":920,"MT":559,"sideResp":2,"stimulus":[],"xmouse":[764,764,764,764,764,764,764,764,764,764,764,764,764,764,764,764,764,764,764,764,764,764,764,764,764,764,764,764,764,764,764,764,764,764,764,764,764,764,764,764,764,764,764,764,765,772,898,1003,1096,1147,1168,1173,1173,1173,1173,1172,1160,1155,1148,1140,1128,1112,1107,1106,1105,1105,1105,1105,1105,1105,1105,1110,1111,1111,1112],"ymouse":[608,608,608,608,608,608,608,608,608,608,608,608,608,608,608,608,608,608,608,608,608,608,608,608,608,608,608,608,608,608,608,608,608,608,608,608,608,608,608,608,608,608,608,608,608,610,646,671,686,693,687,651,613,548,475,406,303,265,233,207,179,144,135,132,130,130,130,130,130,128,121,111,106,103,99],"timestamp_mouse":[1,32,39,60,79,99,120,139,159,180,199,220,240,260,280,299,319,339,360,379,400,420,439,460,481,499,520,539,560,581,599,620,640,659,681,699,720,741,759,779,800,820,840,860,879,899,920,939,959,981,999,1019,1040,1059,1079,1099,1120,1139,1160,1179,1199,1219,1239,1260,1280,1300,1320,1340,1359,1379,1399,1419,1439,1459,1479],"xSR":741.5,"ySR":573.95,"xT1":424.9,"yT1":0,"xT2":1058.1,"yT2":0,"toosoon":0,"cond_shown":"Congruent","ratio_trial":200,"L_num":13,"L_den":26,"R_num":14,"R_den":20,"correct_side":2,"subjID":"LorenaGarcia8","gender":"1","school":"6","age":"11"},{"start_time":1551891252851,"click_time":1551891254074,"finger_time":1551891253473,"fix_duration":477.2817473411011,"trial":4,"RT":622,"MT":601,"sideResp":2,"stimulus":[],"xmouse":[792,792,792,792,792,792,792,792,792,792,792,792,792,792,792,792,792,792,792,792,792,791,791,791,791,791,791,791,794,799,813,861,900,994,1039,1066,1088,1090,1090,1080,1064,1042,1037,1033,1028,1028,1028,1028,1029,1030,1031,1035,1036,1036,1036,1036,1039,1045,1050,1055,1058,1061],"ymouse":[645,645,645,645,645,645,645,645,645,645,645,645,645,645,645,645,645,645,645,645,645,645,638,637,637,637,637,637,637,638,639,638,630,608,592,571,525,495,454,401,344,258,227,195,156,135,105,97,91,88,85,76,74,73,73,73,71,69,68,66,66,65],"timestamp_mouse":[11,37,43,63,82,104,123,143,163,184,203,222,242,263,283,304,322,342,364,383,402,422,444,462,482,504,523,542,563,583,602,622,642,663,682,704,723,743,763,782,803,823,843,863,882,904,922,943,962,982,1003,1023,1042,1062,1084,1103,1122,1142,1162,1182,1203,1223],"xSR":741.5,"ySR":573.95,"xT1":424.9,"yT1":0,"xT2":1058.1,"yT2":0,"toosoon":0,"cond_shown":"Congruent","ratio_trial":200,"L_num":3,"L_den":6,"R_num":14,"R_den":20,"correct_side":2,"subjID":"LorenaGarcia8","gender":"1","school":"6","age":"11"},{"start_time":1551891255271,"click_time":1551891257394,"finger_time":1551891256693,"fix_duration":316.7915113628529,"trial":5,"RT":1422,"MT":701,"sideResp":2,"stimulus":[],"xmouse":[805,805,805,805,805,805,805,805,805,805,805,805,805,805,805,805,805,805,805,805,805,805,805,805,805,805,805,805,805,805,805,805,805,805,805,805,805,805,805,805,805,805,805,805,805,805,805,805,805,805,805,805,805,805,805,805,805,805,805,805,805,805,805,805,805,805,805,805,805,805,809,832,861,881,891,896,896,896,888,873,842,840,839,842,859,925,963,987,1000,1008,1010,1010,1010,1010,1010,988,979,973,973,973,973,998,1025,1050,1069,1081,1090],"ymouse":[611,611,611,611,611,611,611,611,611,611,611,611,611,611,611,611,611,611,611,611,611,611,611,611,611,611,611,611,611,611,611,611,611,611,611,611,611,611,611,611,611,611,611,611,611,611,611,611,611,611,611,611,611,611,611,611,611,611,611,611,611,611,611,611,611,611,611,611,611,611,592,515,449,410,383,354,349,346,343,340,339,339,339,324,300,234,211,196,184,178,174,174,174,174,173,186,192,194,194,194,194,167,148,131,116,104,90],"timestamp_mouse":[11,34,43,64,82,102,122,142,162,183,202,222,242,262,283,302,324,342,362,383,402,422,442,462,483,503,523,542,562,583,602,623,644,662,683,702,723,742,762,782,803,822,842,863,883,902,923,942,964,982,1002,1022,1043,1062,1084,1103,1122,1142,1162,1182,1202,1222,1243,1263,1282,1303,1322,1343,1363,1382,1402,1422,1442,1464,1482,1503,1522,1543,1563,1584,1603,1622,1643,1662,1684,1703,1722,1743,1762,1783,1802,1822,1842,1862,1883,1903,1922,1942,1962,1982,2002,2022,2042,2062,2082,2103,2123],"xSR":741.5,"ySR":573.95,"xT1":424.9,"yT1":0,"xT2":1058.1,"yT2":0,"toosoon":0,"cond_shown":"Incongruent","ratio_trial":200,"L_num":7,"L_den":10,"R_num":8,"R_den":16,"correct_side":1,"subjID":"LorenaGarcia8","gender":"1","school":"6","age":"11"},{"start_time":1551891259469,"click_time":1551891260413,"finger_time":1551891259994,"fix_duration":1192.4113646812489,"trial":6,"RT":525,"MT":419,"sideResp":1,"stimulus":[],"xmouse":[814,814,814,814,814,814,814,814,814,814,814,814,814,814,814,814,814,814,814,806,793,776,769,764,758,751,736,726,715,703,691,673,671,671,671,671,671,664,651,631,587,572,559,543,531,519,508,508],"ymouse":[624,624,624,624,624,624,624,624,624,624,624,624,624,624,624,624,624,624,624,621,616,609,606,605,603,601,594,586,577,563,548,523,522,522,522,522,521,508,489,458,372,337,298,244,198,159,101,83],"timestamp_mouse":[9,25,44,64,86,105,124,144,164,185,204,224,245,265,285,305,325,344,365,386,405,424,445,465,485,505,525,546,564,584,604,624,645,665,684,705,724,744,765,785,805,824,845,864,885,906,924,944],"xSR":741.5,"ySR":573.95,"xT1":424.9,"yT1":0,"xT2":1058.1,"yT2":0,"toosoon":0,"cond_shown":"Incongruent","ratio_trial":200,"L_num":7,"L_den":10,"R_num":8,"R_den":16,"correct_side":1,"subjID":"LorenaGarcia8","gender":"1","school":"6","age":"11"},{"start_time":1551891261455,"click_time":1551891262512,"finger_time":1551891262392,"fix_duration":262.4700339663206,"trial":7,"RT":937,"MT":120,"sideResp":2,"stimulus":[],"xmouse":[814,814,814,814,814,814,814,814,814,814,814,814,814,814,814,814,814,814,814,814,814,814,814,814,814,814,814,814,814,814,814,814,814,814,814,814,814,814,814,814,814,814,814,814,814,831,910,990,1094,1115,1140,1152,1152],"ymouse":[637,637,637,637,637,637,637,637,637,637,637,637,637,637,637,637,637,637,637,637,637,637,637,637,637,637,637,637,637,637,637,637,637,637,637,637,637,637,637,637,637,637,637,637,637,622,570,504,388,348,228,110,81],"timestamp_mouse":[17,37,56,78,97,118,137,157,177,196,218,236,256,278,297,318,337,357,378,397,417,438,458,476,498,518,538,556,577,596,616,637,658,678,697,718,738,758,778,797,818,838,856,878,897,918,937,956,976,997,1018,1037,1057],"xSR":741.5,"ySR":573.95,"xT1":424.9,"yT1":0,"xT2":1058.1,"yT2":0,"toosoon":0,"cond_shown":"Congruent","ratio_trial":200,"L_num":9,"L_den":30,"R_num":13,"R_den":26,"correct_side":2,"subjID":"LorenaGarcia8","gender":"1","school":"6","age":"11"},{"start_time":1551891264685,"click_time":1551891266012,"finger_time":1551891265772,"fix_duration":1053.0791279985717,"trial":8,"RT":1087,"MT":240,"sideResp":1,"stimulus":[],"xmouse":[813,813,813,813,813,813,813,813,813,813,813,813,813,813,813,813,813,813,813,813,813,813,813,813,813,813,813,813,813,813,813,813,813,813,813,813,813,813,813,813,813,813,813,813,813,813,813,813,813,813,813,813,796,760,719,634,591,570,551,539,525,523,522,522,522,522,523],"ymouse":[636,636,636,636,636,636,636,636,636,636,636,636,636,636,636,636,636,636,636,636,636,636,636,636,636,636,636,636,636,636,636,636,636,636,636,636,636,636,636,636,636,636,636,636,636,636,636,636,636,636,636,636,627,607,577,499,436,389,348,296,229,204,180,159,140,107,90],"timestamp_mouse":[21,37,47,68,87,108,128,146,166,187,206,228,248,267,287,308,327,348,368,387,408,426,447,468,487,508,526,548,568,586,608,628,647,667,687,707,727,748,767,788,808,827,847,868,887,906,927,948,968,987,1007,1026,1048,1068,1087,1107,1127,1147,1167,1187,1207,1227,1247,1266,1288,1307,1327],"xSR":741.5,"ySR":573.95,"xT1":424.9,"yT1":0,"xT2":1058.1,"yT2":0,"toosoon":0,"cond_shown":"Congruent","ratio_trial":100,"L_num":9,"L_den":15,"R_num":8,"R_den":16,"correct_side":1,"subjID":"LorenaGarcia8","gender":"1","school":"6","age":"11"},{"start_time":1551891268110,"click_time":1551891269211,"finger_time":1551891268893,"fix_duration":1235.4407256962859,"trial":9,"RT":783,"MT":318,"sideResp":2,"stimulus":[],"xmouse":[799,799,799,799,799,799,799,799,799,799,799,799,799,799,799,799,799,799,799,799,799,799,799,799,799,799,799,799,799,799,799,799,799,799,799,799,800,814,835,858,886,890,892,892,898,931,957,980,997,1010,1038,1052,1063,1070,1073,1076],"ymouse":[614,614,614,614,614,614,614,614,614,614,614,614,614,614,614,614,614,614,614,614,614,614,614,614,614,614,614,614,614,614,614,614,614,614,614,614,614,602,583,562,537,533,532,532,527,485,433,379,329,297,216,176,147,125,102,93],"timestamp_mouse":[10,33,42,62,82,101,121,142,162,182,202,222,242,262,282,301,321,342,362,382,402,422,442,462,481,503,522,542,563,582,602,621,641,662,683,702,722,742,762,783,802,823,842,862,883,902,922,941,963,982,1001,1021,1042,1063,1083,1101],"xSR":741.5,"ySR":573.95,"xT1":424.9,"yT1":0,"xT2":1058.1,"yT2":0,"toosoon":0,"cond_shown":"Congruent","ratio_trial":100,"L_num":6,"L_den":12,"R_num":15,"R_den":25,"correct_side":2,"subjID":"LorenaGarcia8","gender":"1","school":"6","age":"11"},{"start_time":1551891271038,"click_time":1551891271912,"finger_time":1551891271731,"fix_duration":965.1606868797901,"trial":10,"RT":693,"MT":181,"sideResp":1,"stimulus":[],"xmouse":[825,825,825,825,825,825,825,825,825,825,825,825,825,825,825,825,825,825,825,825,825,825,825,825,825,825,825,825,825,825,825,825,822,796,735,669,597,522,473,461,458,458,461,471],"ymouse":[611,611,611,611,611,611,611,611,611,611,611,611,611,611,611,611,611,611,611,611,611,611,611,611,611,611,611,611,611,611,611,611,608,587,545,491,430,338,242,196,162,134,108,74],"timestamp_mouse":[17,40,54,74,95,115,134,154,174,194,213,235,254,274,294,315,335,353,375,395,415,434,455,474,494,514,535,554,575,595,613,635,654,674,693,715,735,754,774,793,814,833,855,874],"xSR":741.5,"ySR":573.95,"xT1":424.9,"yT1":0,"xT2":1058.1,"yT2":0,"toosoon":0,"cond_shown":"Congruent","ratio_trial":300,"L_num":24,"L_den":30,"R_num":8,"R_den":16,"correct_side":1,"subjID":"LorenaGarcia8","gender":"1","school":"6","age":"11"},{"start_time":1551891274065,"click_time":1551891275373,"finger_time":1551891274832,"fix_duration":1450.07094818104,"trial":11,"RT":767,"MT":541,"sideResp":1,"stimulus":[],"xmouse":[773,773,773,773,773,773,773,773,773,773,773,773,773,773,773,773,773,773,773,773,773,773,773,773,773,773,773,773,773,773,773,773,773,773,773,773,773,758,745,732,721,714,709,709,707,700,686,633,616,600,595,590,583,580,578,577,577,577,577,575,571,566,546,532,529,524],"ymouse":[641,641,641,641,641,641,641,641,641,641,641,641,641,641,641,641,641,641,641,641,641,641,641,641,641,641,641,641,641,641,641,641,641,641,641,641,636,583,546,514,492,480,472,471,464,448,422,315,265,211,177,149,95,72,57,43,42,41,41,41,43,48,59,64,65,66],"timestamp_mouse":[10,34,47,67,88,108,126,147,166,187,207,226,248,266,287,307,328,347,367,388,408,427,447,466,488,506,526,548,567,586,607,628,647,667,686,708,727,746,767,787,808,828,846,868,888,907,928,947,967,986,1007,1027,1047,1067,1088,1108,1126,1146,1167,1187,1207,1227,1246,1266,1287,1308],"xSR":741.5,"ySR":573.95,"xT1":424.9,"yT1":0,"xT2":1058.1,"yT2":0,"toosoon":0,"cond_shown":"Congruent","ratio_trial":300,"L_num":20,"L_den":25,"R_num":13,"R_den":26,"correct_side":1,"subjID":"LorenaGarcia8","gender":"1","school":"6","age":"11"},{"start_time":1551891276623,"click_time":1551891278272,"finger_time":1551891278032,"fix_duration":530.3217237237368,"trial":12,"RT":1409,"MT":240,"sideResp":2,"stimulus":[],"xmouse":[806,806,806,806,806,806,806,806,806,806,806,806,806,806,806,806,806,806,806,806,806,806,806,806,806,806,806,806,806,806,806,806,806,806,806,806,806,806,806,806,806,806,806,806,806,806,806,806,806,806,806,806,806,806,806,806,806,806,806,806,806,806,806,806,806,806,806,806,810,825,921,961,1007,1035,1062,1076,1084,1085,1086,1086,1086,1086,1086],"ymouse":[616,616,616,616,616,616,616,616,616,616,616,616,616,616,616,616,616,616,616,616,616,616,616,616,616,616,616,616,616,616,616,616,616,616,616,616,616,616,616,616,616,616,616,616,616,616,616,616,616,616,616,616,616,616,616,616,616,616,616,616,616,616,616,616,616,616,616,616,613,600,498,417,337,269,174,135,121,114,112,112,106,102,97],"timestamp_mouse":[16,37,48,69,89,109,129,149,170,190,210,229,248,269,288,308,329,348,368,389,409,429,450,469,490,510,529,549,570,588,610,629,649,668,690,709,728,750,769,790,809,829,850,869,889,910,929,949,968,990,1010,1029,1049,1069,1089,1110,1129,1150,1170,1190,1210,1229,1249,1269,1289,1309,1328,1348,1369,1390,1409,1428,1449,1469,1489,1509,1529,1549,1569,1589,1609,1630,1649],"xSR":741.5,"ySR":573.95,"xT1":424.9,"yT1":0,"xT2":1058.1,"yT2":0,"toosoon":0,"cond_shown":"Incongruent","ratio_trial":300,"L_num":13,"L_den":26,"R_num":12,"R_den":15,"correct_side":2,"subjID":"LorenaGarcia8","gender":"1","school":"6","age":"11"},{"start_time":1551891280594,"click_time":1551891282013,"finger_time":1551891281632,"fix_duration":1458.6770532467738,"trial":13,"RT":1038,"MT":381,"sideResp":2,"stimulus":[],"xmouse":[820,820,820,820,820,820,820,820,820,820,819,819,818,818,818,818,817,817,817,817,817,816,815,813,811,809,807,802,798,797,795,792,782,776,773,771,771,771,771,771,771,771,771,771,774,781,792,803,805,806,814,827,871,904,957,986,1005,1032,1039,1045,1048,1051,1052,1055,1055,1056,1057,1057,1057,1057,1057,1061],"ymouse":[617,617,617,617,617,617,617,617,617,617,617,617,617,617,617,617,617,617,617,617,617,617,617,617,617,618,619,621,621,621,621,621,614,610,607,605,605,605,605,605,605,605,605,605,606,613,621,627,627,627,622,604,528,467,362,285,204,77,33,6,0,0,0,0,0,0,0,0,0,0,1,10],"timestamp_mouse":[0,17,38,58,79,97,118,137,159,179,199,218,237,258,277,298,317,338,358,378,398,419,437,457,478,497,518,538,558,579,597,619,638,658,677,698,719,738,758,778,798,817,839,859,878,899,918,938,958,978,998,1018,1038,1059,1078,1098,1118,1137,1157,1177,1198,1218,1238,1259,1278,1297,1319,1339,1358,1379,1398,1419],"xSR":741.5,"ySR":573.95,"xT1":424.9,"yT1":0,"xT2":1058.1,"yT2":0,"toosoon":0,"cond_shown":"Incongruent","ratio_trial":300,"L_num":13,"L_den":26,"R_num":12,"R_den":15,"correct_side":2,"subjID":"LorenaGarcia8","gender":"1","school":"6","age":"11"},{"start_time":1551891285606,"click_time":1551891287312,"finger_time":1551891287092,"fix_duration":1392.7429159899891,"trial":14,"RT":1486,"MT":220,"sideResp":2,"stimulus":[],"xmouse":[781,781,781,781,781,781,781,781,781,781,781,781,781,781,781,781,781,781,781,781,781,781,781,781,781,781,781,781,781,781,781,781,781,781,781,781,781,781,781,781,781,781,781,781,781,781,781,781,781,781,781,781,781,781,781,781,781,781,781,781,781,781,781,781,781,781,781,781,781,781,781,781,800,822,840,864,898,962,995,1031,1040,1047,1053,1055,1056,1059],"ymouse":[626,626,626,626,626,626,626,626,626,626,626,626,626,626,626,626,626,626,626,626,626,626,626,626,626,626,626,626,626,626,626,626,626,626,626,626,626,626,626,626,626,626,626,626,626,626,626,626,626,626,626,626,626,626,626,626,626,626,626,626,626,626,626,626,626,626,626,626,626,626,626,626,604,574,545,498,430,279,206,138,118,102,79,71,63,56],"timestamp_mouse":[8,37,59,67,89,106,125,147,165,186,207,226,246,267,285,305,326,347,366,386,405,426,445,466,486,506,527,545,567,587,607,626,646,666,687,707,727,746,765,787,806,826,846,866,887,907,927,946,966,987,1006,1027,1046,1067,1085,1106,1127,1145,1166,1186,1205,1225,1247,1267,1286,1306,1325,1345,1367,1386,1407,1426,1446,1466,1486,1507,1527,1545,1565,1586,1606,1625,1646,1666,1686,1706],"xSR":741.5,"ySR":573.95,"xT1":424.9,"yT1":0,"xT2":1058.1,"yT2":0,"toosoon":0,"cond_shown":"Incongruent","ratio_trial":100,"L_num":10,"L_den":25,"R_num":8,"R_den":16,"correct_side":2,"subjID":"LorenaGarcia8","gender":"1","school":"6","age":"11"},{"start_time":1551891288667,"click_time":1551891289352,"finger_time":1551891289252,"fix_duration":653.6608669893363,"trial":15,"RT":585,"MT":100,"sideResp":2,"stimulus":[],"xmouse":[804,804,804,804,804,804,804,804,804,804,804,804,804,804,804,804,804,804,804,804,804,804,804,804,804,804,804,803,831,936,997,1045,1078,1105,1130],"ymouse":[629,629,629,629,629,629,629,629,629,629,629,629,629,629,629,629,629,629,629,629,629,629,629,629,629,629,629,628,596,456,369,289,228,171,96],"timestamp_mouse":[10,34,45,64,85,104,126,144,166,185,204,226,244,266,286,306,324,345,366,385,405,424,446,465,484,505,526,545,566,585,604,624,646,665,685],"xSR":741.5,"ySR":573.95,"xT1":424.9,"yT1":0,"xT2":1058.1,"yT2":0,"toosoon":0,"cond_shown":"Congruent","ratio_trial":200,"L_num":3,"L_den":10,"R_num":14,"R_den":28,"correct_side":2,"subjID":"LorenaGarcia8","gender":"1","school":"6","age":"11"},{"start_time":1551891290985,"click_time":1551891292612,"finger_time":1551891292372,"fix_duration":651.7976985833656,"trial":16,"RT":1387,"MT":240,"sideResp":1,"stimulus":[],"xmouse":[783,783,783,783,783,783,783,783,783,783,783,783,783,783,783,783,783,784,784,784,784,784,784,784,784,784,784,784,784,784,784,784,784,784,784,784,784,785,786,787,787,787,787,787,787,787,787,787,787,787,787,787,787,787,787,787,787,787,787,787,787,787,787,787,787,787,787,787,772,669,604,555,529,516,499,494,494,497,503,512,512,512],"ymouse":[655,655,655,655,655,655,655,655,655,655,655,655,655,655,655,655,655,653,647,647,647,647,647,647,647,647,647,647,647,647,647,647,647,647,647,647,647,647,647,647,647,647,647,647,647,647,647,647,647,647,647,647,647,647,647,647,647,647,647,647,647,647,647,647,647,647,647,644,631,544,485,441,409,384,297,249,214,188,166,125,110,97],"timestamp_mouse":[10,26,51,67,87,106,126,148,168,188,208,228,247,268,287,308,326,347,368,386,408,427,446,466,487,508,526,548,567,586,606,628,648,668,687,706,728,748,767,787,807,827,846,868,886,908,927,946,968,987,1007,1027,1047,1067,1088,1107,1127,1147,1167,1187,1208,1226,1248,1268,1287,1306,1328,1346,1367,1387,1407,1428,1447,1466,1486,1506,1528,1547,1567,1587,1607,1627],"xSR":741.5,"ySR":573.95,"xT1":424.9,"yT1":0,"xT2":1058.1,"yT2":0,"toosoon":0,"cond_shown":"Congruent","ratio_trial":300,"L_num":3,"L_den":6,"R_num":2,"R_den":10,"correct_side":1,"subjID":"LorenaGarcia8","gender":"1","school":"6","age":"11"},{"start_time":1551891295030,"click_time":1551891296292,"finger_time":1551891296091,"fix_duration":1456.6864316511928,"trial":17,"RT":1061,"MT":201,"sideResp":1,"stimulus":[],"xmouse":[796,796,796,796,796,796,796,796,796,796,796,796,796,796,796,796,796,796,796,796,796,796,796,796,796,796,796,796,796,796,796,796,796,796,796,796,796,796,796,796,796,796,796,796,796,796,796,796,796,796,796,796,776,725,653,549,489,450,426,425,425,430,434,445],"ymouse":[608,608,608,608,608,608,608,608,608,608,608,608,608,608,608,608,608,608,608,608,608,608,608,608,608,608,608,608,608,608,608,608,608,608,608,608,608,608,608,608,608,608,608,608,608,608,608,608,608,608,608,608,589,544,486,375,308,258,190,166,145,124,105,76],"timestamp_mouse":[9,23,43,62,81,102,122,141,161,182,202,222,243,262,282,303,323,342,361,382,403,422,442,461,483,502,523,542,562,582,602,621,643,662,681,702,723,741,761,783,802,823,842,862,882,903,923,943,962,982,1002,1022,1042,1061,1082,1102,1122,1141,1162,1182,1203,1222,1241,1261],"xSR":741.5,"ySR":573.95,"xT1":424.9,"yT1":0,"xT2":1058.1,"yT2":0,"toosoon":0,"cond_shown":"Congruent","ratio_trial":100,"L_num":9,"L_den":15,"R_num":8,"R_den":16,"correct_side":1,"subjID":"LorenaGarcia8","gender":"1","school":"6","age":"11"},{"start_time":1551891298264,"click_time":1551891299812,"finger_time":1551891299672,"fix_duration":1110.9735068681298,"trial":18,"RT":1408,"MT":140,"sideResp":1,"stimulus":[],"xmouse":[784,784,784,784,784,784,784,784,784,784,784,784,784,784,784,784,784,784,784,784,784,784,784,784,784,784,784,784,784,784,784,784,784,784,784,784,784,784,784,784,784,784,784,784,784,784,784,784,784,784,784,784,784,784,784,784,784,784,784,784,784,784,784,784,784,784,784,784,782,770,734,709,665,633,604,558,531,512],"ymouse":[611,611,611,611,611,611,611,611,611,611,611,611,611,611,611,611,611,611,611,611,611,611,611,611,611,611,611,611,611,611,611,611,611,611,611,611,611,611,611,611,611,611,611,611,611,611,611,611,611,611,611,611,611,611,611,611,611,611,611,611,611,611,611,611,611,611,611,606,598,576,519,467,378,315,252,145,95,68],"timestamp_mouse":[14,35,48,68,87,108,127,148,169,187,208,229,248,267,289,308,327,348,367,388,408,427,448,467,488,508,528,548,567,588,608,627,649,669,688,707,728,747,769,789,808,828,847,868,888,909,927,949,968,987,1008,1028,1048,1067,1088,1108,1129,1148,1169,1188,1208,1228,1248,1268,1289,1307,1328,1349,1368,1388,1408,1428,1448,1468,1487,1508,1528,1548],"xSR":741.5,"ySR":573.95,"xT1":424.9,"yT1":0,"xT2":1058.1,"yT2":0,"toosoon":0,"cond_shown":"Congruent","ratio_trial":100,"L_num":11,"L_den":22,"R_num":6,"R_den":15,"correct_side":1,"subjID":"LorenaGarcia8","gender":"1","school":"6","age":"11"},{"start_time":1551891300744,"click_time":1551891301832,"finger_time":1551891301692,"fix_duration":250,"trial":19,"RT":948,"MT":140,"sideResp":2,"stimulus":[],"xmouse":[791,791,791,791,791,791,791,791,791,791,791,791,791,791,791,791,791,791,791,791,791,791,791,791,791,791,791,791,791,791,791,791,791,791,791,791,791,791,791,791,791,791,791,791,791,795,805,899,961,1001,1033,1053,1071,1074,1075],"ymouse":[613,613,613,613,613,613,613,613,613,613,613,613,613,613,613,613,613,613,613,613,613,613,613,613,613,613,613,613,613,613,613,613,613,613,613,613,613,613,613,613,613,613,613,613,613,609,601,530,465,395,330,272,175,140,99],"timestamp_mouse":[8,28,48,68,88,109,128,148,168,188,208,228,248,268,287,307,329,349,367,388,407,428,448,468,488,507,527,547,567,588,608,628,648,667,689,709,728,747,769,787,807,828,848,869,888,908,928,948,968,988,1009,1027,1048,1069,1088],"xSR":741.5,"ySR":573.95,"xT1":424.9,"yT1":0,"xT2":1058.1,"yT2":0,"toosoon":0,"cond_shown":"Incongruent","ratio_trial":300,"L_num":13,"L_den":26,"R_num":12,"R_den":15,"correct_side":2,"subjID":"LorenaGarcia8","gender":"1","school":"6","age":"11"},{"start_time":1551891302924,"click_time":1551891304252,"finger_time":1551891304132,"fix_duration":250,"trial":20,"RT":1208,"MT":120,"sideResp":2,"stimulus":[],"xmouse":[816,816,816,816,816,816,816,816,816,816,816,816,816,816,816,816,816,816,816,816,816,816,816,816,816,816,816,816,816,816,816,816,816,816,816,816,816,816,816,816,816,816,816,816,816,816,816,816,816,816,816,816,816,816,816,816,816,816,817,831,860,909,969,1074,1110,1142,1144],"ymouse":[618,618,618,618,618,618,618,618,618,618,618,618,618,618,618,618,618,618,618,618,618,618,618,618,618,618,618,618,618,618,618,618,618,618,618,618,618,618,618,618,618,618,618,618,618,618,618,618,618,618,618,618,618,618,618,618,618,618,617,597,555,488,409,269,203,114,82],"timestamp_mouse":[15,38,47,68,88,109,129,147,168,188,208,229,248,268,289,309,327,349,367,388,409,429,448,469,488,509,529,548,568,588,608,629,647,668,687,709,728,748,768,787,807,829,847,867,889,909,928,948,967,989,1008,1029,1048,1067,1087,1107,1128,1147,1169,1188,1208,1227,1247,1268,1288,1308,1328],"xSR":741.5,"ySR":573.95,"xT1":424.9,"yT1":0,"xT2":1058.1,"yT2":0,"toosoon":0,"cond_shown":"Congruent","ratio_trial":100,"L_num":4,"L_den":8,"R_num":6,"R_den":10,"correct_side":2,"subjID":"LorenaGarcia8","gender":"1","school":"6","age":"11"},{"start_time":1551891306246,"click_time":1551891307512,"finger_time":1551891307012,"fix_duration":1012.5084619082102,"trial":21,"RT":766,"MT":500,"sideResp":2,"stimulus":[],"xmouse":[804,804,804,804,804,804,804,804,804,804,804,804,804,804,804,804,804,804,804,804,804,804,804,804,804,804,804,804,804,804,804,804,804,804,804,804,803,827,853,866,875,884,904,914,924,934,941,952,962,965,969,974,979,994,1004,1014,1023,1031,1045,1047,1050,1052,1054,1063],"ymouse":[620,620,620,620,620,620,620,620,620,620,620,620,620,620,620,620,620,620,620,620,620,620,620,620,620,620,620,620,620,620,620,620,620,620,620,620,615,590,559,543,531,516,483,465,445,422,400,359,327,308,292,275,258,221,200,182,166,151,126,119,113,109,105,92],"timestamp_mouse":[8,39,47,67,85,106,126,146,167,187,207,226,247,265,286,307,327,347,365,387,406,425,446,467,486,507,525,547,566,585,606,626,647,667,686,706,726,746,766,786,806,825,846,866,887,906,925,947,966,987,1007,1026,1046,1066,1086,1106,1125,1145,1165,1186,1206,1226,1247,1266],"xSR":741.5,"ySR":573.95,"xT1":424.9,"yT1":0,"xT2":1058.1,"yT2":0,"toosoon":0,"cond_shown":"Congruent","ratio_trial":200,"L_num":5,"L_den":10,"R_num":14,"R_den":20,"correct_side":2,"subjID":"LorenaGarcia8","gender":"1","school":"6","age":"11"},{"start_time":1551891309288,"click_time":1551891310413,"finger_time":1551891310052,"fix_duration":1074.2522617029142,"trial":22,"RT":764,"MT":361,"sideResp":1,"stimulus":[],"xmouse":[795,795,795,795,795,795,795,795,795,795,795,795,795,795,795,795,795,795,795,795,795,795,795,795,795,795,795,795,795,795,795,795,795,795,792,776,767,755,741,727,715,699,696,693,690,675,641,619,597,577,542,526,512,503,495,487,483],"ymouse":[648,648,648,648,648,648,648,647,646,643,642,642,642,642,642,642,642,642,642,642,642,642,642,642,642,642,642,642,642,642,642,642,642,642,637,626,618,605,590,577,566,554,550,547,544,528,480,448,406,369,286,246,209,176,145,107,72],"timestamp_mouse":[15,40,43,64,85,104,123,144,163,184,203,224,244,263,283,304,323,345,364,385,403,425,444,464,485,504,524,544,564,584,604,623,644,663,684,705,725,743,764,784,804,824,843,865,884,904,925,943,964,985,1006,1023,1043,1064,1085,1104,1125],"xSR":741.5,"ySR":573.95,"xT1":424.9,"yT1":0,"xT2":1058.1,"yT2":0,"toosoon":0,"cond_shown":"Incongruent","ratio_trial":300,"L_num":13,"L_den":26,"R_num":12,"R_den":15,"correct_side":2,"subjID":"LorenaGarcia8","gender":"1","school":"6","age":"11"},{"start_time":1551891311638,"click_time":1551891312551,"finger_time":1551891312393,"fix_duration":364.3852735435932,"trial":23,"RT":755,"MT":158,"sideResp":1,"stimulus":[],"xmouse":[807,807,807,807,807,807,807,807,807,807,807,807,807,807,807,807,807,807,807,807,807,807,807,807,807,807,807,807,807,807,807,807,807,807,807,798,785,764,715,688,654,612,570,520,513,512],"ymouse":[633,633,633,633,633,633,633,633,633,633,633,633,633,633,633,633,633,633,633,633,633,633,633,633,633,633,633,633,633,633,633,633,633,633,633,619,592,553,470,432,385,325,267,165,131,95],"timestamp_mouse":[14,37,54,73,94,114,134,153,174,193,214,234,254,274,294,315,334,354,375,393,413,434,454,475,494,515,535,554,574,595,613,634,654,674,694,714,734,755,774,794,814,834,854,874,894,913],"xSR":741.5,"ySR":573.95,"xT1":424.9,"yT1":0,"xT2":1058.1,"yT2":0,"toosoon":0,"cond_shown":"Incongruent","ratio_trial":300,"L_num":3,"L_den":6,"R_num":4,"R_den":20,"correct_side":1,"subjID":"LorenaGarcia8","gender":"1","school":"6","age":"11"},{"start_time":1551891314056,"click_time":1551891315752,"finger_time":1551891315512,"fix_duration":621.0534949292253,"trial":24,"RT":1456,"MT":240,"sideResp":1,"stimulus":[],"xmouse":[799,799,799,799,799,799,799,799,799,799,799,799,799,799,799,799,799,799,799,799,799,799,799,799,799,799,799,799,799,799,799,799,799,799,799,799,799,799,799,799,799,799,799,799,799,799,799,799,799,799,799,799,799,799,799,799,799,799,799,799,799,799,799,799,799,799,799,799,799,792,782,754,664,600,540,467,434,409,407,407,407,408,409,411,425],"ymouse":[605,605,605,605,605,605,605,605,605,605,605,605,605,605,605,605,605,605,605,605,605,605,605,605,605,605,605,605,605,605,605,605,605,605,605,605,605,605,605,605,605,605,605,605,605,605,605,605,605,605,605,605,605,605,605,605,605,605,605,605,605,605,605,605,605,605,605,605,605,603,596,576,504,426,332,197,121,39,24,18,15,13,12,12,12],"timestamp_mouse":[20,38,55,77,97,115,137,156,175,197,215,237,256,276,296,316,335,355,376,397,415,437,455,477,496,516,537,556,575,597,617,636,655,677,697,717,735,756,776,797,817,837,855,877,897,916,935,956,976,995,1016,1037,1056,1076,1096,1115,1136,1156,1175,1197,1217,1235,1256,1277,1296,1315,1336,1357,1376,1397,1416,1435,1456,1475,1496,1517,1536,1556,1576,1596,1616,1636,1655,1675,1696],"xSR":741.5,"ySR":573.95,"xT1":424.9,"yT1":0,"xT2":1058.1,"yT2":0,"toosoon":0,"cond_shown":"Congruent","ratio_trial":100,"L_num":8,"L_den":16,"R_num":2,"R_den":5,"correct_side":1,"subjID":"LorenaGarcia8","gender":"1","school":"6","age":"11"},{"start_time":1551891317677,"click_time":1551891320533,"finger_time":1551891319252,"fix_duration":983.1204302800553,"trial":25,"RT":1575,"MT":1281,"sideResp":2,"stimulus":[],"xmouse":[769,769,769,769,769,769,769,769,769,769,769,769,769,769,769,769,769,769,769,769,769,769,769,769,769,769,769,769,769,769,769,769,771,771,771,771,771,771,771,771,771,771,771,771,771,771,771,773,773,773,773,773,773,773,773,773,773,773,773,773,773,773,773,773,773,773,773,773,773,773,773,773,773,773,773,773,773,760,739,716,695,673,656,651,641,625,569,545,525,508,501,498,498,498,498,498,509,515,517,517,517,518,513,508,506,505,505,505,505,504,504,500,496,494,491,489,488,486,486,485,485,485,496,540,611,690,765,852,866,876,886,939,964,986,1002,1013,1020,1032,1035,1041,1047,1054,1063],"ymouse":[626,626,626,626,626,626,626,626,626,626,626,626,626,626,626,626,626,626,626,626,626,626,626,626,626,626,626,626,626,626,626,626,626,626,626,626,626,626,626,626,626,626,626,626,626,626,626,627,627,627,627,627,627,627,627,627,627,627,627,627,627,627,627,627,627,627,627,627,627,627,627,627,627,627,627,627,627,617,605,591,576,560,546,536,518,483,378,336,297,254,234,226,226,226,226,226,238,242,244,244,244,244,229,217,212,209,208,208,208,206,205,187,178,171,164,159,154,147,146,144,144,144,156,187,225,258,290,320,324,322,312,254,233,215,201,188,176,155,144,131,117,104,83],"timestamp_mouse":[14,34,56,76,94,115,135,155,176,195,214,236,255,274,295,315,334,355,375,396,415,434,456,474,495,516,534,555,574,596,615,635,656,675,695,716,736,755,776,796,815,836,854,874,896,916,934,956,975,996,1016,1034,1055,1074,1096,1114,1134,1156,1176,1194,1216,1235,1255,1275,1295,1315,1336,1356,1375,1394,1416,1435,1455,1476,1496,1514,1534,1555,1575,1596,1614,1634,1654,1675,1694,1715,1736,1755,1775,1795,1815,1836,1855,1874,1894,1915,1936,1955,1974,1994,2014,2036,2055,2075,2094,2114,2135,2155,2175,2195,2216,2236,2255,2276,2294,2316,2335,2355,2375,2396,2414,2435,2455,2475,2496,2515,2535,2555,2575,2594,2616,2636,2654,2675,2695,2715,2735,2755,2775,2795,2816,2836,2856],"xSR":741.5,"ySR":573.95,"xT1":424.9,"yT1":0,"xT2":1058.1,"yT2":0,"toosoon":0,"cond_shown":"Congruent","ratio_trial":100,"L_num":6,"L_den":20,"R_num":5,"R_den":25,"correct_side":1,"subjID":"LorenaGarcia8","gender":"1","school":"6","age":"11"},{"start_time":1551891322381,"click_time":1551891323791,"finger_time":1551891323631,"fix_duration":868.9692652406253,"trial":26,"RT":1250,"MT":160,"sideResp":1,"stimulus":[],"xmouse":[799,799,799,799,799,799,799,799,799,799,799,799,799,799,799,799,799,799,799,799,799,799,799,799,799,799,799,799,799,799,799,799,799,799,799,799,799,799,799,799,799,799,799,799,799,799,799,799,799,799,799,799,799,799,799,799,799,799,799,799,798,792,719,672,633,584,561,523,516,514,514],"ymouse":[640,640,640,640,640,640,640,640,640,640,640,640,640,640,640,640,640,640,640,640,640,640,640,640,640,640,640,640,640,640,640,640,640,640,640,640,640,640,640,640,640,640,640,640,640,640,640,640,640,640,640,640,640,640,640,640,640,640,640,640,636,626,515,442,375,283,238,147,123,102,89],"timestamp_mouse":[11,33,50,70,90,110,129,151,171,191,211,230,251,271,291,309,330,350,371,391,412,430,451,470,489,511,530,550,571,589,611,629,650,670,690,710,730,750,771,791,810,830,850,870,891,911,930,949,970,990,1010,1031,1050,1070,1091,1110,1130,1150,1169,1191,1210,1230,1250,1271,1290,1310,1330,1349,1370,1390,1410],"xSR":741.5,"ySR":573.95,"xT1":424.9,"yT1":0,"xT2":1058.1,"yT2":0,"toosoon":0,"cond_shown":"Incongruent","ratio_trial":200,"L_num":3,"L_den":4,"R_num":11,"R_den":20,"correct_side":1,"subjID":"LorenaGarcia8","gender":"1","school":"6","age":"11"},{"start_time":1551891325407,"click_time":1551891327211,"finger_time":1551891326851,"fix_duration":812.5206333484103,"trial":27,"RT":1444,"MT":360,"sideResp":1,"stimulus":[],"xmouse":[805,805,805,805,805,805,805,805,805,805,805,805,805,805,805,805,805,805,805,805,805,805,805,805,805,805,805,805,805,805,805,805,805,805,805,805,805,805,805,805,805,805,805,805,805,805,805,805,805,805,805,805,805,805,805,805,805,805,805,805,805,805,805,805,805,805,805,805,805,805,787,774,711,656,634,611,585,541,533,529,528,528,528,528,528,527,527,523,522,520,517],"ymouse":[619,619,619,619,619,619,619,619,619,619,619,619,619,619,619,619,619,619,619,619,619,619,619,619,619,619,619,619,619,619,619,619,619,619,619,619,619,619,619,619,619,619,619,619,619,619,619,619,619,619,619,619,619,619,619,619,619,619,619,619,619,619,619,619,619,619,619,619,619,619,608,601,556,512,477,426,361,264,234,209,189,161,149,139,131,124,119,110,106,103,98],"timestamp_mouse":[8,24,43,70,84,104,125,145,164,184,204,225,245,265,284,305,324,344,363,385,403,425,445,464,485,504,524,544,565,584,604,624,644,664,683,704,723,744,765,783,804,825,843,864,885,903,924,945,965,985,1004,1025,1044,1064,1085,1104,1124,1144,1165,1183,1204,1225,1244,1264,1285,1304,1325,1344,1365,1384,1405,1424,1444,1464,1484,1504,1524,1544,1565,1583,1604,1624,1644,1665,1684,1705,1723,1744,1764,1784,1804],"xSR":741.5,"ySR":573.95,"xT1":424.9,"yT1":0,"xT2":1058.1,"yT2":0,"toosoon":0,"cond_shown":"Incongruent","ratio_trial":100,"L_num":4,"L_den":8,"R_num":8,"R_den":20,"correct_side":1,"subjID":"LorenaGarcia8","gender":"1","school":"6","age":"11"},{"start_time":1551891328906,"click_time":1551891330750,"finger_time":1551891330351,"fix_duration":874.197282708396,"trial":28,"RT":1445,"MT":399,"sideResp":2,"stimulus":[],"xmouse":[793,793,793,793,793,793,793,793,793,793,793,793,793,793,793,793,793,793,793,793,793,793,793,793,793,793,793,793,793,793,793,793,793,793,793,793,793,793,793,793,793,793,793,793,793,793,793,793,793,793,793,793,793,793,793,793,793,793,793,793,793,793,793,793,793,793,793,793,793,793,792,792,801,816,843,881,935,942,948,955,965,981,985,985,986,986,999,1009,1024,1037,1050,1058,1079],"ymouse":[608,608,608,608,608,608,608,608,608,608,608,608,608,608,608,608,608,608,608,608,608,608,608,608,608,608,608,608,608,608,608,608,608,608,608,608,608,608,608,608,608,608,608,608,608,608,608,608,608,608,608,608,608,608,608,608,608,608,608,608,608,608,608,608,608,608,608,608,608,608,607,598,556,519,462,393,271,249,230,210,188,153,146,145,144,144,132,127,116,106,96,88,69],"timestamp_mouse":[14,25,45,65,84,104,124,146,165,184,204,225,245,264,285,304,325,346,365,384,405,424,444,464,484,504,524,544,564,584,606,625,646,666,686,706,725,745,765,785,805,825,846,865,885,904,926,945,966,985,1006,1026,1045,1065,1085,1105,1125,1144,1165,1185,1206,1225,1244,1265,1285,1305,1325,1344,1366,1386,1405,1425,1445,1465,1486,1505,1526,1544,1565,1585,1605,1626,1645,1666,1684,1706,1726,1744,1765,1786,1805,1824,1844],"xSR":741.5,"ySR":573.95,"xT1":424.9,"yT1":0,"xT2":1058.1,"yT2":0,"toosoon":0,"cond_shown":"Congruent","ratio_trial":300,"L_num":1,"L_den":5,"R_num":11,"R_den":22,"correct_side":2,"subjID":"LorenaGarcia8","gender":"1","school":"6","age":"11"},{"start_time":1551891331885,"click_time":1551891333411,"finger_time":1551891332951,"fix_duration":392.4076017319307,"trial":29,"RT":1066,"MT":460,"sideResp":1,"stimulus":[],"xmouse":[797,797,797,797,797,797,797,797,797,797,797,797,797,797,797,797,797,797,797,797,797,797,797,797,797,797,797,797,797,797,797,797,797,797,797,797,797,797,797,797,797,797,797,797,797,797,797,797,797,797,797,795,778,697,644,599,561,527,505,501,499,498,498,498,498,498,497,495,495,495,495,495,494,490,486,482,481],"ymouse":[634,634,634,634,634,634,634,634,634,634,634,634,634,634,634,634,634,634,634,634,634,634,634,634,634,634,634,634,634,634,634,634,634,634,634,634,634,634,634,634,634,634,634,634,634,634,634,634,634,634,634,633,614,557,527,500,474,443,412,397,375,350,326,278,256,236,209,195,182,178,175,170,163,138,123,107,87],"timestamp_mouse":[8,39,47,65,87,107,126,145,167,186,205,227,246,266,286,307,326,347,366,387,406,427,445,467,486,507,525,545,565,587,607,626,647,666,687,707,727,747,767,785,807,827,847,867,885,907,927,947,967,985,1006,1026,1046,1066,1086,1106,1125,1146,1166,1186,1206,1226,1246,1266,1286,1306,1327,1346,1366,1386,1406,1426,1446,1465,1487,1507,1526],"xSR":741.5,"ySR":573.95,"xT1":424.9,"yT1":0,"xT2":1058.1,"yT2":0,"toosoon":0,"cond_shown":"Incongruent","ratio_trial":300,"L_num":4,"L_den":5,"R_num":6,"R_den":12,"correct_side":1,"subjID":"LorenaGarcia8","gender":"1","school":"6","age":"11"},{"start_time":1551891335902,"click_time":1551891336991,"finger_time":1551891336651,"fix_duration":250,"trial":30,"RT":749,"MT":340,"sideResp":2,"stimulus":[],"xmouse":[805,805,805,805,805,805,805,805,805,805,805,805,805,805,805,805,805,805,805,805,805,805,805,805,805,805,805,805,805,805,805,805,805,805,805,805,805,852,908,964,1001,1025,1035,1055,1060,1062,1062,1062,1062,1062,1062,1062,1062,1062,1062],"ymouse":[624,624,624,624,624,624,624,624,624,624,624,624,624,624,624,624,624,624,624,624,624,624,624,624,624,624,624,624,624,624,624,624,624,624,624,624,620,534,455,378,326,283,261,216,198,187,177,172,160,154,140,128,117,101,98],"timestamp_mouse":[9,30,50,70,90,110,130,150,169,189,209,229,250,269,289,309,329,349,370,389,409,429,449,469,490,509,529,549,569,588,608,629,649,668,688,710,728,749,769,788,808,828,849,869,890,909,930,949,969,989,1009,1029,1049,1069,1089],"xSR":741.5,"ySR":573.95,"xT1":424.9,"yT1":0,"xT2":1058.1,"yT2":0,"toosoon":0,"cond_shown":"Congruent","ratio_trial":200,"L_num":1,"L_den":2,"R_num":21,"R_den":30,"correct_side":2,"subjID":"LorenaGarcia8","gender":"1","school":"6","age":"11"},{"start_time":1551891338914,"click_time":1551891342610,"finger_time":1551891340572,"fix_duration":1121.9967950102957,"trial":31,"RT":1658,"MT":2038,"sideResp":2,"stimulus":[],"xmouse":[791,791,791,791,791,791,791,791,791,791,791,791,791,791,791,791,791,791,791,791,791,791,791,791,791,791,791,791,791,791,791,791,791,791,791,791,791,791,791,791,791,791,791,791,791,791,791,791,791,791,791,791,791,791,791,791,791,791,791,791,791,791,791,791,791,791,791,791,791,791,791,791,791,791,791,791,791,791,791,791,791,784,752,714,675,651,640,638,638,638,638,638,638,644,653,662,673,685,690,694,696,696,697,697,697,697,697,697,697,697,698,700,709,732,743,752,757,758,758,758,758,758,762,768,773,778,785,794,800,800,800,800,800,800,800,789,774,730,683,642,607,593,583,583,583,583,583,588,600,619,635,644,646,647,648,650,651,652,653,651,648,648,648,648,651,652,655,655,657,657,662,677,755,817,880,942,986,1015,1042,1044,1044,1045,1048,1056,1064],"ymouse":[606,606,606,606,606,606,606,606,606,606,606,606,606,606,606,606,606,606,606,606,606,606,606,606,606,606,606,606,606,606,606,606,606,606,606,606,606,606,606,606,606,606,606,606,606,606,606,606,606,606,606,606,606,606,606,606,606,606,606,606,606,606,606,606,606,606,606,606,606,606,606,606,606,606,606,606,606,606,606,606,606,596,554,506,458,429,414,410,409,409,409,409,409,410,417,424,432,443,450,455,460,460,460,460,460,460,460,460,460,460,455,448,436,421,417,415,414,414,414,414,414,414,406,396,385,374,362,347,337,337,337,337,337,337,336,335,332,320,306,293,280,272,263,259,255,251,250,245,245,245,245,245,245,245,244,243,243,242,235,230,226,221,216,206,198,194,189,187,184,182,176,161,128,113,102,93,88,80,65,63,63,62,59,53,49],"timestamp_mouse":[17,37,58,77,97,117,137,157,177,198,217,237,258,278,297,316,337,357,378,397,418,437,456,476,498,516,538,558,578,597,617,637,657,678,698,717,737,757,777,797,816,836,857,877,898,916,936,957,978,998,1017,1036,1057,1076,1097,1117,1138,1158,1178,1197,1218,1236,1257,1278,1297,1317,1337,1357,1378,1398,1417,1438,1457,1476,1497,1518,1538,1558,1577,1597,1617,1637,1658,1677,1698,1718,1738,1756,1776,1796,1817,1837,1856,1876,1897,1916,1937,1957,1977,1998,2018,2038,2058,2077,2098,2118,2137,2156,2176,2197,2216,2237,2258,2276,2298,2317,2338,2356,2376,2397,2417,2437,2457,2476,2497,2517,2538,2557,2577,2597,2617,2638,2657,2678,2697,2718,2737,2757,2776,2797,2817,2837,2857,2877,2908,2917,2938,2957,2978,2997,3017,3037,3057,3076,3097,3118,3140,3157,3177,3197,3218,3238,3258,3277,3297,3317,3338,3357,3377,3398,3418,3438,3457,3476,3497,3518,3537,3558,3578,3597,3617,3638,3658,3677,3696],"xSR":741.5,"ySR":573.95,"xT1":424.9,"yT1":0,"xT2":1058.1,"yT2":0,"toosoon":0,"cond_shown":"Congruent","ratio_trial":100,"L_num":1,"L_den":2,"R_num":3,"R_den":5,"correct_side":2,"subjID":"LorenaGarcia8","gender":"1","school":"6","age":"11"},{"start_time":1551891343843,"click_time":1551891345251,"finger_time":1551891344891,"fix_duration":589.0608005252979,"trial":32,"RT":1048,"MT":360,"sideResp":1,"stimulus":[],"xmouse":[801,801,801,801,801,801,801,801,801,801,801,801,801,801,801,801,801,801,801,801,801,801,801,801,801,801,801,801,801,801,801,801,801,801,801,801,801,801,801,801,801,801,801,801,801,801,801,801,801,801,797,776,721,713,709,705,698,676,655,631,609,598,591,588,586,582,577,549,534,527,522],"ymouse":[644,644,644,644,644,644,644,644,644,644,644,644,644,644,644,644,644,644,644,644,644,644,644,644,644,644,644,644,644,644,644,644,644,644,644,644,644,644,644,644,644,644,644,644,644,644,644,644,644,644,636,587,489,475,471,464,448,408,369,333,298,276,244,231,217,203,188,143,122,107,95],"timestamp_mouse":[10,33,47,67,88,109,128,147,169,189,208,228,247,269,288,308,328,348,367,389,407,429,448,468,488,508,528,547,569,587,607,628,647,668,687,709,728,747,768,788,808,829,848,869,888,908,928,948,969,988,1008,1028,1048,1068,1088,1109,1129,1148,1169,1188,1207,1227,1248,1268,1288,1308,1328,1348,1368,1388,1408],"xSR":741.5,"ySR":573.95,"xT1":424.9,"yT1":0,"xT2":1058.1,"yT2":0,"toosoon":0,"cond_shown":"Incongruent","ratio_trial":200,"L_num":3,"L_den":10,"R_num":1,"R_den":2,"correct_side":2,"subjID":"LorenaGarcia8","gender":"1","school":"6","age":"11"},{"start_time":1551891347079,"click_time":1551891348752,"finger_time":1551891348431,"fix_duration":766.2799981433616,"trial":33,"RT":1352,"MT":321,"sideResp":1,"stimulus":[],"xmouse":[830,830,830,830,830,830,830,830,830,830,830,830,830,830,830,830,830,830,830,830,830,830,830,830,830,830,830,830,830,830,830,830,830,830,830,830,830,830,830,830,830,830,830,830,830,830,830,830,830,830,830,830,830,830,830,830,830,830,830,830,830,830,830,830,830,830,820,746,665,575,411,361,344,336,336,343,354,360,366,372,389,401,413,427],"ymouse":[604,604,604,604,604,604,604,604,604,604,604,604,604,604,604,604,604,604,604,604,604,604,604,604,604,604,604,604,604,604,604,604,604,604,604,604,604,604,604,604,604,604,604,604,604,604,604,604,604,604,604,604,604,604,604,604,604,604,604,604,604,604,604,604,604,604,604,558,501,438,315,264,243,226,210,162,138,117,102,93,73,66,62,58],"timestamp_mouse":[13,32,53,71,93,111,133,153,172,192,212,232,252,272,291,312,332,352,371,392,412,431,452,473,492,513,532,552,572,591,612,632,652,673,692,712,732,752,771,792,811,831,852,873,893,913,932,952,972,992,1012,1031,1053,1072,1092,1113,1131,1152,1172,1192,1212,1233,1253,1272,1291,1312,1332,1352,1372,1392,1411,1432,1452,1472,1493,1511,1533,1552,1573,1592,1611,1632,1651,1673],"xSR":741.5,"ySR":573.95,"xT1":424.9,"yT1":0,"xT2":1058.1,"yT2":0,"toosoon":0,"cond_shown":"Incongruent","ratio_trial":200,"L_num":7,"L_den":10,"R_num":14,"R_den":28,"correct_side":1,"subjID":"LorenaGarcia8","gender":"1","school":"6","age":"11"},{"start_time":1551891349992,"click_time":1551891351951,"finger_time":1551891351831,"fix_duration":600.4372538631542,"trial":34,"RT":1839,"MT":120,"sideResp":2,"stimulus":[],"xmouse":[775,775,775,775,775,775,775,775,775,775,775,775,775,775,775,775,775,775,775,775,775,775,775,775,775,775,775,775,775,775,775,775,775,775,775,775,775,775,775,775,775,775,775,775,775,775,775,775,775,775,775,775,775,775,775,775,775,775,775,775,775,775,775,775,775,775,775,775,775,775,775,775,775,775,775,775,775,775,775,775,775,775,775,775,775,775,775,775,775,776,799,837,883,931,1025,1065,1094,1109],"ymouse":[623,623,623,623,623,623,623,623,623,623,623,623,623,623,623,623,623,623,623,623,623,623,623,623,623,623,623,623,623,623,623,623,623,623,623,623,623,623,623,623,623,623,623,623,623,623,623,623,623,623,623,623,623,623,623,623,623,623,623,623,623,623,623,623,623,623,623,623,623,623,623,623,623,623,623,623,623,623,623,623,623,623,623,623,623,623,623,623,623,623,586,529,464,393,242,166,103,66],"timestamp_mouse":[34,39,59,79,99,120,139,159,180,199,218,239,259,279,299,320,339,360,379,400,420,438,458,478,499,518,540,560,580,599,619,638,659,678,699,719,739,758,779,799,818,840,859,879,899,919,939,959,979,1000,1019,1039,1060,1079,1099,1119,1138,1158,1180,1198,1218,1239,1260,1279,1299,1319,1340,1359,1379,1400,1419,1439,1459,1479,1498,1519,1539,1559,1580,1599,1618,1639,1659,1679,1699,1720,1739,1760,1779,1799,1819,1839,1859,1880,1899,1919,1940,1959],"xSR":741.5,"ySR":573.95,"xT1":424.9,"yT1":0,"xT2":1058.1,"yT2":0,"toosoon":0,"cond_shown":"Congruent","ratio_trial":100,"L_num":3,"L_den":6,"R_num":2,"R_den":5,"correct_side":1,"subjID":"LorenaGarcia8","gender":"1","school":"6","age":"11"},{"start_time":1551891353760,"click_time":1551891355251,"finger_time":1551891354811,"fix_duration":1087.6894647645438,"trial":35,"RT":1051,"MT":440,"sideResp":1,"stimulus":[],"xmouse":[807,807,807,807,807,807,807,807,807,807,807,807,807,807,807,807,807,807,807,807,807,807,807,807,807,807,807,807,807,807,807,807,807,807,807,807,807,807,807,807,807,807,807,807,807,807,807,807,807,804,797,762,719,709,707,707,707,707,707,707,706,708,710,712,713,713,713,713,709,673,636,593,511,466,438],"ymouse":[630,630,630,630,630,630,630,630,630,630,630,630,630,630,630,630,630,630,630,630,630,630,630,630,630,630,630,630,630,630,630,630,630,630,630,630,630,630,630,630,630,630,630,630,630,630,630,630,630,628,621,594,562,555,554,554,554,554,554,554,555,561,566,569,571,571,571,571,565,519,466,404,233,126,44],"timestamp_mouse":[11,31,51,72,90,110,130,152,170,191,211,231,252,272,292,312,330,352,370,392,412,430,452,471,491,510,531,552,571,591,612,631,652,670,692,711,731,751,772,791,810,831,852,872,892,911,931,950,970,991,1011,1031,1051,1072,1091,1112,1131,1151,1171,1191,1211,1231,1251,1271,1290,1310,1330,1351,1371,1391,1411,1431,1450,1471,1491],"xSR":741.5,"ySR":573.95,"xT1":424.9,"yT1":0,"xT2":1058.1,"yT2":0,"toosoon":0,"cond_shown":"Congruent","ratio_trial":300,"L_num":8,"L_den":16,"R_num":1,"R_den":5,"correct_side":1,"subjID":"LorenaGarcia8","gender":"1","school":"6","age":"11"},{"start_time":1551891357458,"click_time":1551891358751,"finger_time":1551891358310,"fix_duration":1225.5642518476973,"trial":36,"RT":852,"MT":441,"sideResp":2,"stimulus":[],"xmouse":[802,802,802,802,802,802,802,802,802,802,802,802,802,802,802,802,802,802,802,802,802,802,802,802,802,802,802,802,802,802,802,802,802,802,802,802,802,802,802,804,807,820,845,893,906,922,943,964,993,999,1002,1002,1002,1002,1002,1004,1006,1008,1011,1016,1021,1030,1052,1058,1063],"ymouse":[640,640,640,640,640,640,640,640,640,640,640,640,640,640,640,640,640,640,640,640,640,640,640,640,640,640,640,640,640,640,640,640,640,640,640,640,640,640,640,637,628,597,538,394,338,279,228,184,119,98,87,82,81,81,80,72,69,65,65,65,65,66,64,59,57],"timestamp_mouse":[14,39,53,72,92,112,133,153,174,193,213,232,252,274,293,313,333,353,373,394,412,432,454,473,494,512,533,554,572,594,614,634,653,673,692,712,732,752,773,792,812,832,852,873,893,912,932,952,973,992,1012,1032,1052,1072,1093,1112,1132,1153,1173,1194,1213,1233,1252,1273,1293],"xSR":741.5,"ySR":573.95,"xT1":424.9,"yT1":0,"xT2":1058.1,"yT2":0,"toosoon":0,"cond_shown":"Congruent","ratio_trial":200,"L_num":6,"L_den":20,"R_num":11,"R_den":22,"correct_side":2,"subjID":"LorenaGarcia8","gender":"1","school":"6","age":"11"},{"start_time":1551891360664,"click_time":1551891362212,"finger_time":1551891361931,"fix_duration":1331.0168168721334,"trial":37,"RT":1267,"MT":281,"sideResp":1,"stimulus":[],"xmouse":[784,784,784,784,784,784,784,784,784,784,784,784,784,784,784,784,784,784,784,784,784,784,784,784,784,784,784,784,784,784,784,784,784,784,784,784,784,784,784,784,784,784,784,784,784,784,784,784,784,784,784,784,784,784,784,784,784,784,784,784,784,784,784,750,710,662,605,565,520,507,497,495,496,501,503,503,503,503],"ymouse":[622,622,622,622,622,622,622,622,622,622,622,622,622,622,622,622,622,622,622,622,622,622,622,622,622,622,622,622,622,622,622,622,622,622,622,622,622,622,622,622,622,622,622,622,622,622,622,622,622,622,622,622,622,622,622,622,622,622,622,622,622,622,620,573,515,447,375,309,220,190,166,145,131,113,107,104,100,93],"timestamp_mouse":[10,31,46,68,87,106,126,147,167,186,207,226,246,267,287,308,328,348,367,387,407,428,447,466,486,508,527,547,567,587,607,627,648,667,688,706,726,748,768,787,807,828,848,868,887,906,928,947,967,987,1006,1028,1048,1066,1088,1106,1128,1147,1167,1188,1208,1226,1246,1267,1287,1307,1326,1348,1367,1386,1407,1427,1448,1467,1486,1507,1527,1548],"xSR":741.5,"ySR":573.95,"xT1":424.9,"yT1":0,"xT2":1058.1,"yT2":0,"toosoon":0,"cond_shown":"Incongruent","ratio_trial":100,"L_num":3,"L_den":5,"R_num":8,"R_den":16,"correct_side":1,"subjID":"LorenaGarcia8","gender":"1","school":"6","age":"11"},{"start_time":1551891363675,"click_time":1551891365151,"finger_time":1551891365010,"fix_duration":841.7951597353971,"trial":38,"RT":1335,"MT":141,"sideResp":1,"stimulus":[],"xmouse":[813,813,813,813,813,813,813,813,813,813,813,813,813,813,813,813,813,813,813,813,813,813,813,813,813,813,813,813,813,813,813,813,813,813,813,813,813,813,813,813,813,813,813,813,813,813,813,813,813,813,813,813,813,813,813,813,813,813,813,813,813,813,813,813,808,782,733,600,542,487,466,458,455,455],"ymouse":[628,628,628,628,628,628,628,628,628,628,628,628,628,628,628,628,628,628,628,628,628,628,628,628,628,628,628,628,628,628,628,628,628,628,628,628,628,628,628,628,628,628,628,628,628,628,628,628,628,628,628,628,628,628,628,628,628,628,628,628,628,628,628,628,622,578,502,329,253,178,144,120,107,88],"timestamp_mouse":[17,38,57,76,96,116,137,157,177,195,216,237,255,277,297,316,336,355,376,396,415,436,456,476,497,517,535,556,576,596,615,637,657,676,696,717,737,757,776,797,816,835,856,877,896,916,936,955,977,995,1016,1036,1055,1077,1096,1117,1135,1155,1176,1197,1215,1237,1256,1276,1296,1317,1335,1356,1376,1396,1416,1437,1455,1476],"xSR":741.5,"ySR":573.95,"xT1":424.9,"yT1":0,"xT2":1058.1,"yT2":0,"toosoon":0,"cond_shown":"Congruent","ratio_trial":100,"L_num":15,"L_den":25,"R_num":13,"R_den":26,"correct_side":1,"subjID":"LorenaGarcia8","gender":"1","school":"6","age":"11"},{"start_time":1551891366914,"click_time":1551891368512,"finger_time":1551891368411,"fix_duration":921.4877386906569,"trial":39,"RT":1497,"MT":101,"sideResp":1,"stimulus":[],"xmouse":[776,776,776,776,776,776,776,776,776,776,776,776,776,776,776,776,776,776,776,776,776,776,776,776,776,776,776,776,776,776,776,776,776,776,776,776,776,776,776,776,776,776,776,776,776,776,776,776,776,776,776,776,776,776,776,776,776,776,776,776,776,776,776,776,776,776,776,776,776,776,776,776,776,760,724,667,499,456,437,433],"ymouse":[607,607,607,607,607,607,607,607,607,607,607,607,607,607,607,607,607,607,607,607,607,607,607,607,607,607,607,607,607,607,607,607,607,607,607,607,607,607,607,607,607,607,607,607,607,607,607,607,607,607,607,607,607,607,607,607,607,607,607,607,607,607,607,607,607,607,607,607,607,607,607,607,602,581,531,447,211,148,107,80],"timestamp_mouse":[30,36,58,78,97,118,138,158,176,197,217,236,258,277,297,317,336,356,377,398,417,437,457,478,497,516,537,557,576,596,617,636,657,677,697,718,737,757,776,797,817,837,856,877,898,917,936,958,977,998,1017,1037,1058,1077,1096,1116,1136,1157,1176,1198,1216,1237,1257,1278,1297,1318,1336,1358,1377,1396,1416,1437,1458,1477,1497,1518,1537,1557,1577,1598],"xSR":741.5,"ySR":573.95,"xT1":424.9,"yT1":0,"xT2":1058.1,"yT2":0,"toosoon":0,"cond_shown":"Congruent","ratio_trial":200,"L_num":8,"L_den":15,"R_num":3,"R_den":9,"correct_side":1,"subjID":"LorenaGarcia8","gender":"1","school":"6","age":"11"},{"start_time":1551891369543,"click_time":1551891371591,"finger_time":1551891371050,"fix_duration":250,"trial":40,"RT":1507,"MT":541,"sideResp":2,"stimulus":[],"xmouse":[775,775,775,775,775,775,775,775,775,775,775,775,775,775,775,775,775,775,775,775,775,775,775,775,775,775,775,775,775,775,775,775,775,775,775,775,775,775,775,775,775,775,775,775,775,775,775,775,775,775,775,775,775,775,775,775,775,775,775,775,775,775,775,775,775,775,775,775,775,775,775,775,775,776,791,836,870,913,970,1037,1179,1238,1261,1265,1266,1263,1257,1252,1249,1244,1242,1240,1238,1235,1223,1218,1211,1204,1200,1186,1177,1167,1155],"ymouse":[615,615,615,615,615,615,615,615,615,615,615,615,615,615,615,615,615,615,615,615,615,615,615,615,615,615,615,615,615,615,615,615,615,615,615,615,615,615,615,615,615,615,615,615,615,615,615,615,615,615,615,615,615,615,615,615,615,615,615,615,615,615,615,615,615,615,615,615,615,615,615,615,615,616,598,555,530,502,462,409,289,237,194,172,138,97,79,65,52,32,28,26,25,25,25,26,32,37,40,46,49,52,55],"timestamp_mouse":[11,40,48,68,88,108,127,148,168,188,208,227,248,269,287,308,327,348,369,388,409,428,449,468,489,507,528,548,568,588,608,627,648,668,688,707,727,747,767,789,807,829,849,867,889,908,928,947,969,988,1008,1028,1047,1069,1089,1108,1128,1149,1167,1188,1207,1229,1247,1267,1288,1308,1328,1349,1367,1388,1409,1428,1448,1469,1487,1507,1528,1548,1568,1589,1608,1628,1649,1669,1688,1709,1728,1748,1769,1789,1808,1828,1848,1868,1889,1908,1929,1948,1968,1989,2008,2028,2048],"xSR":741.5,"ySR":573.95,"xT1":424.9,"yT1":0,"xT2":1058.1,"yT2":0,"toosoon":0,"cond_shown":"Incongruent","ratio_trial":100,"L_num":9,"L_den":18,"R_num":6,"R_den":10,"correct_side":2,"subjID":"LorenaGarcia8","gender":"1","school":"6","age":"11"},{"start_time":1551891375394,"click_time":1551891377951,"finger_time":1551891377071,"fix_duration":1421.7071450957644,"trial":41,"RT":1677,"MT":880,"sideResp":1,"stimulus":[],"xmouse":[809,809,809,809,809,809,809,809,809,809,809,809,809,809,809,809,809,809,809,809,809,809,809,809,809,809,809,809,809,809,809,809,809,809,809,809,809,807,805,804,802,802,800,799,799,799,799,799,799,799,799,799,799,799,799,799,799,799,799,799,799,799,799,799,799,799,799,799,799,799,799,799,799,799,799,798,797,797,797,797,801,808,818,844,866,885,910,960,991,1003,1010,1013,1013,1013,1013,1013,1009,977,949,915,881,848,811,799,787,778,773,760,739,714,675,644,607,589,575,564,557,553,553,553,553,555,555,552,550,547,536,519],"ymouse":[651,651,651,651,651,651,651,651,651,651,651,651,651,651,651,651,651,651,651,651,651,651,651,651,651,651,651,651,651,651,651,651,651,651,651,651,649,647,646,646,646,645,643,642,642,642,642,642,642,642,642,642,642,642,642,642,642,642,642,642,642,642,642,642,642,642,642,642,642,642,642,642,642,642,640,637,634,633,628,625,618,607,594,549,502,447,393,282,217,187,167,153,149,149,149,149,153,184,210,239,264,286,314,323,331,338,341,342,335,321,300,279,232,196,157,118,89,66,29,11,7,0,0,0,0,2,10,21],"timestamp_mouse":[21,37,58,77,97,118,136,158,178,197,216,237,257,277,298,316,337,357,378,397,417,436,456,478,496,517,538,556,578,597,617,637,657,676,696,717,737,756,778,797,817,837,857,878,897,921,937,956,976,996,1016,1037,1057,1077,1097,1117,1138,1156,1177,1198,1217,1237,1256,1277,1297,1317,1337,1358,1376,1396,1417,1438,1458,1478,1497,1517,1538,1557,1577,1597,1616,1637,1656,1677,1698,1717,1737,1757,1776,1797,1817,1837,1857,1878,1897,1917,1936,1958,1976,1997,2017,2037,2058,2077,2097,2118,2137,2157,2176,2197,2217,2237,2257,2277,2297,2317,2338,2357,2377,2397,2417,2437,2457,2477,2496,2518,2537,2556],"xSR":741.5,"ySR":573.95,"xT1":424.9,"yT1":0,"xT2":1058.1,"yT2":0,"toosoon":0,"cond_shown":"Incongruent","ratio_trial":200,"L_num":1,"L_den":2,"R_num":3,"R_den":10,"correct_side":1,"subjID":"LorenaGarcia8","gender":"1","school":"6","age":"11"},{"start_time":1551891379630,"click_time":1551891381471,"finger_time":1551891381070,"fix_duration":957.9060851591004,"trial":42,"RT":1440,"MT":401,"sideResp":2,"stimulus":[],"xmouse":[795,795,795,795,795,795,795,795,795,795,795,795,795,795,795,795,795,795,795,795,795,795,795,795,795,795,795,795,795,795,795,795,795,795,795,795,795,795,795,795,795,795,795,795,795,795,795,795,795,795,795,795,795,795,795,795,795,795,795,795,795,795,795,795,795,795,795,795,795,795,795,804,821,829,852,874,896,954,978,997,1009,1017,1025,1028,1030,1034,1035,1036,1036,1037,1039,1049,1072],"ymouse":[620,620,620,620,620,620,620,620,620,620,620,620,620,620,620,620,620,620,620,620,620,620,620,620,620,620,620,620,620,620,620,620,620,620,620,620,620,620,620,620,620,620,620,620,620,620,620,620,620,620,620,620,620,620,620,620,620,620,620,620,620,620,620,620,620,620,620,620,620,620,620,600,567,545,491,442,394,283,243,204,175,152,122,115,108,101,97,96,96,94,91,84,67],"timestamp_mouse":[9,22,41,61,80,100,121,141,161,182,202,222,240,261,281,300,322,342,361,382,402,422,441,460,481,500,521,541,561,581,601,620,642,661,682,702,721,742,762,782,801,821,841,861,882,902,921,941,961,980,1000,1022,1041,1061,1080,1101,1121,1140,1162,1182,1201,1221,1241,1261,1280,1301,1321,1342,1361,1382,1400,1421,1440,1461,1481,1501,1521,1541,1560,1581,1601,1620,1641,1661,1681,1702,1722,1742,1762,1781,1800,1821,1841],"xSR":741.5,"ySR":573.95,"xT1":424.9,"yT1":0,"xT2":1058.1,"yT2":0,"toosoon":0,"cond_shown":"Incongruent","ratio_trial":100,"L_num":6,"L_den":12,"R_num":3,"R_den":5,"correct_side":2,"subjID":"LorenaGarcia8","gender":"1","school":"6","age":"11"},{"start_time":1551891383103,"click_time":1551891384090,"finger_time":1551891383890,"fix_duration":830.9415327618741,"trial":43,"RT":787,"MT":200,"sideResp":2,"stimulus":[],"xmouse":[795,795,795,795,795,795,795,795,795,795,795,795,795,795,795,795,795,795,795,795,795,795,795,795,795,795,795,795,795,795,795,795,795,795,795,795,795,797,817,834,882,920,958,1024,1043,1054,1063,1068,1079,1090],"ymouse":[617,617,617,617,617,617,617,617,617,617,617,617,617,617,617,617,617,617,617,617,617,617,617,617,617,617,617,617,617,617,617,617,617,617,617,617,617,615,592,570,515,455,398,289,245,210,178,154,110,75],"timestamp_mouse":[14,32,48,67,88,108,127,149,169,188,209,229,248,269,288,309,329,348,368,388,407,428,447,468,489,507,529,548,568,589,608,627,648,668,688,708,729,749,768,787,808,828,849,868,887,909,929,948,968,987],"xSR":741.5,"ySR":573.95,"xT1":424.9,"yT1":0,"xT2":1058.1,"yT2":0,"toosoon":0,"cond_shown":"Congruent","ratio_trial":300,"L_num":7,"L_den":14,"R_num":20,"R_den":25,"correct_side":2,"subjID":"LorenaGarcia8","gender":"1","school":"6","age":"11"},{"start_time":1551891387862,"click_time":1551891389411,"finger_time":1551891388972,"fix_duration":1390.151263725786,"trial":44,"RT":1110,"MT":439,"sideResp":1,"stimulus":[],"xmouse":[796,796,796,796,796,796,796,796,796,796,796,796,796,796,796,796,796,796,796,796,796,796,796,796,796,796,796,796,796,796,796,796,796,796,796,796,796,793,791,783,781,774,774,774,774,774,774,774,774,774,774,774,774,768,756,725,640,612,578,568,555,549,545,540,539,539,543,546,549,549,549,548,548,547,544,538,526,520],"ymouse":[652,652,652,652,652,652,652,652,652,652,652,652,652,652,652,652,652,652,652,652,652,652,652,652,652,652,652,652,652,652,652,652,652,652,652,652,652,649,646,638,634,627,627,627,627,627,627,627,627,627,627,627,627,621,610,586,514,486,437,412,340,232,191,156,130,109,65,39,15,0,0,0,0,0,1,6,17,23],"timestamp_mouse":[10,43,50,70,89,109,130,150,169,189,210,229,249,269,289,309,329,350,369,388,409,429,448,468,488,509,529,549,568,589,609,628,648,668,689,709,729,749,769,790,809,828,849,869,889,909,930,950,969,989,1009,1030,1049,1070,1090,1110,1129,1149,1169,1188,1209,1229,1249,1270,1289,1309,1329,1348,1369,1388,1409,1430,1449,1470,1490,1509,1529,1549],"xSR":741.5,"ySR":573.95,"xT1":424.9,"yT1":0,"xT2":1058.1,"yT2":0,"toosoon":0,"cond_shown":"Incongruent","ratio_trial":300,"L_num":3,"L_den":6,"R_num":4,"R_den":20,"correct_side":1,"subjID":"LorenaGarcia8","gender":"1","school":"6","age":"11"},{"start_time":1551891391513,"click_time":1551891392691,"finger_time":1551891392031,"fix_duration":1439.8926229065726,"trial":45,"RT":518,"MT":660,"sideResp":1,"stimulus":[],"xmouse":[814,814,814,814,814,814,814,814,814,814,814,814,814,814,814,814,814,814,814,814,814,813,811,806,774,755,726,709,697,675,665,657,650,643,634,625,614,603,595,589,583,579,576,573,566,556,553,553,553,553,553,553,553,553,553,553,551,545,535,517],"ymouse":[642,642,642,642,642,642,642,642,642,642,642,642,642,642,642,642,642,642,642,642,642,642,639,634,609,594,568,548,529,477,450,422,398,372,331,304,284,269,257,247,229,221,211,198,176,137,120,108,100,99,99,99,99,99,99,99,96,93,88,81],"timestamp_mouse":[1,18,38,58,78,99,119,139,157,179,199,218,238,257,277,298,317,339,359,378,399,419,438,458,478,498,518,539,558,578,598,617,638,658,679,698,718,737,758,778,798,818,838,858,878,898,918,937,959,978,998,1017,1038,1057,1079,1098,1118,1137,1158,1178],"xSR":741.5,"ySR":573.95,"xT1":424.9,"yT1":0,"xT2":1058.1,"yT2":0,"toosoon":0,"cond_shown":"Congruent","ratio_trial":200,"L_num":11,"L_den":22,"R_num":3,"R_den":10,"correct_side":1,"subjID":"LorenaGarcia8","gender":"1","school":"6","age":"11"},{"start_time":1551891393583,"click_time":1551891394471,"finger_time":1551891394272,"fix_duration":250,"trial":46,"RT":689,"MT":199,"sideResp":1,"stimulus":[],"xmouse":[811,811,811,811,811,811,811,811,811,811,811,811,811,811,811,811,811,811,811,811,811,811,811,811,811,811,811,811,811,811,811,811,800,766,723,674,660,647,636,625,556,529,512,505,504],"ymouse":[610,610,610,610,610,610,610,610,610,610,610,610,610,610,610,610,610,610,610,610,610,610,610,610,610,610,610,610,610,610,610,611,601,576,550,517,507,496,485,467,303,231,172,127,86],"timestamp_mouse":[8,40,48,69,88,108,128,149,169,187,208,228,248,268,287,308,329,348,368,389,407,427,448,468,488,508,528,548,568,587,607,629,649,668,689,709,728,748,768,788,809,827,848,868,888],"xSR":741.5,"ySR":573.95,"xT1":424.9,"yT1":0,"xT2":1058.1,"yT2":0,"toosoon":0,"cond_shown":"Congruent","ratio_trial":200,"L_num":20,"L_den":25,"R_num":9,"R_den":15,"correct_side":1,"subjID":"LorenaGarcia8","gender":"1","school":"6","age":"11"},{"start_time":1551891396527,"click_time":1551891397911,"finger_time":1551891397291,"fix_duration":993.3756589353992,"trial":47,"RT":764,"MT":620,"sideResp":1,"stimulus":[],"xmouse":[792,792,792,792,792,792,792,792,792,792,792,792,792,792,792,792,792,792,792,792,792,792,792,792,792,792,792,792,792,792,792,792,792,792,792,784,767,747,718,669,653,635,609,596,569,560,552,545,541,533,529,528,528,528,528,528,528,528,528,528,528,528,528,528,528,528,528,526,525,515],"ymouse":[655,655,655,655,655,655,655,655,655,655,655,655,655,655,655,655,655,655,655,655,655,655,655,655,655,655,655,655,655,655,655,655,655,655,655,642,623,599,565,503,468,425,358,309,219,184,159,136,118,85,70,64,61,58,58,58,58,58,58,58,58,58,58,58,58,58,58,58,58,58],"timestamp_mouse":[8,24,47,65,85,104,123,145,165,183,205,225,245,265,285,305,325,343,364,384,405,425,443,465,483,505,524,544,565,583,604,625,644,664,684,704,724,745,764,784,804,824,845,864,884,904,924,944,965,984,1003,1024,1044,1065,1085,1105,1124,1144,1165,1184,1204,1225,1245,1264,1284,1304,1325,1344,1363,1384],"xSR":741.5,"ySR":573.95,"xT1":424.9,"yT1":0,"xT2":1058.1,"yT2":0,"toosoon":0,"cond_shown":"Congruent","ratio_trial":300,"L_num":20,"L_den":25,"R_num":8,"R_den":16,"correct_side":1,"subjID":"LorenaGarcia8","gender":"1","school":"6","age":"11"},{"start_time":1551891399665,"click_time":1551891401071,"finger_time":1551891400551,"fix_duration":832.082244796295,"trial":48,"RT":886,"MT":520,"sideResp":2,"stimulus":[],"xmouse":[788,788,788,788,788,788,788,788,788,788,788,788,788,788,788,788,788,788,788,788,788,788,788,788,788,788,788,788,788,788,788,788,788,788,788,788,788,788,788,788,788,788,789,794,798,800,801,810,819,830,839,848,873,900,919,936,950,979,993,1003,1008,1016,1030,1033,1033,1033,1033,1034,1041,1053,1067],"ymouse":[612,612,612,612,612,612,612,612,612,612,612,612,612,612,612,612,612,612,612,612,612,612,612,612,612,612,612,612,612,612,612,612,612,612,612,612,612,612,612,612,612,612,599,583,573,566,562,543,525,500,475,453,403,353,316,287,262,205,175,147,124,105,83,79,78,78,78,77,76,72,68],"timestamp_mouse":[10,34,45,65,86,107,126,146,165,187,205,226,247,266,287,307,327,346,366,385,407,425,445,466,486,507,527,547,566,585,607,627,646,667,686,707,725,747,767,786,807,826,845,867,886,906,927,946,966,986,1006,1026,1046,1065,1087,1107,1127,1146,1166,1187,1206,1227,1246,1267,1286,1306,1326,1345,1366,1387,1406],"xSR":741.5,"ySR":573.95,"xT1":424.9,"yT1":0,"xT2":1058.1,"yT2":0,"toosoon":0,"cond_shown":"Incongruent","ratio_trial":100,"L_num":6,"L_den":10,"R_num":11,"R_den":22,"correct_side":1,"subjID":"LorenaGarcia8","gender":"1","school":"6","age":"11"},{"start_time":1551891402169,"click_time":1551891403831,"finger_time":1551891403531,"fix_duration":355.3417514868733,"trial":49,"RT":1362,"MT":300,"sideResp":1,"stimulus":[],"xmouse":[767,767,767,767,767,767,767,767,767,767,767,767,767,767,767,767,767,767,767,767,767,767,767,767,767,767,767,767,767,767,767,767,767,767,767,767,767,767,767,767,767,767,767,767,767,767,767,767,767,767,767,767,767,767,767,767,767,767,767,767,767,767,767,767,767,767,767,764,723,677,617,571,523,506,494,489,485,485,485,485,485,485,485,485],"ymouse":[642,642,642,642,642,642,642,642,642,642,642,642,642,642,642,642,642,642,642,642,642,642,642,642,642,642,642,642,642,642,642,642,642,642,642,642,642,642,642,642,642,642,642,642,642,642,642,642,642,642,642,642,642,642,642,642,642,642,642,642,642,642,642,642,642,642,642,634,559,491,421,365,283,236,185,149,131,120,117,114,112,108,102,99],"timestamp_mouse":[10,23,42,62,82,102,123,143,163,182,202,222,242,261,282,303,322,342,363,382,402,423,442,462,482,501,521,542,562,582,603,621,642,663,681,702,722,741,762,782,802,822,843,861,882,902,922,942,962,982,1003,1022,1041,1062,1083,1102,1122,1142,1162,1182,1203,1221,1242,1262,1283,1303,1323,1342,1362,1382,1402,1422,1442,1462,1482,1503,1523,1542,1562,1582,1602,1622,1643,1662],"xSR":741.5,"ySR":573.95,"xT1":424.9,"yT1":0,"xT2":1058.1,"yT2":0,"toosoon":0,"cond_shown":"Congruent","ratio_trial":300,"L_num":11,"L_den":22,"R_num":1,"R_den":5,"correct_side":1,"subjID":"LorenaGarcia8","gender":"1","school":"6","age":"11"},{"start_time":1551891406127,"click_time":1551891407931,"finger_time":1551891407591,"fix_duration":1495.5286329673534,"trial":50,"RT":1464,"MT":340,"sideResp":1,"stimulus":[],"xmouse":[784,784,784,784,784,784,784,784,784,784,784,784,784,784,784,784,784,784,784,784,784,784,784,784,784,784,784,784,784,784,784,784,784,784,784,784,784,784,784,784,784,784,784,784,784,784,784,784,784,784,784,784,784,784,784,784,784,784,784,784,784,784,784,784,784,784,784,784,784,784,776,762,748,729,697,613,581,559,542,534,524,521,519,517,514,509,507,503,500,498,495],"ymouse":[647,647,647,647,647,647,647,647,647,647,647,647,647,647,647,647,647,647,647,647,647,647,647,647,647,647,647,647,647,647,647,647,647,647,647,647,647,647,647,647,647,647,647,647,647,647,647,647,647,647,647,647,647,647,647,647,647,647,647,647,647,647,647,647,647,647,647,647,647,647,636,621,602,574,527,412,365,326,287,261,208,178,163,151,142,130,126,118,110,106,97],"timestamp_mouse":[10,28,45,63,83,105,125,144,164,185,204,223,244,263,285,304,324,344,365,385,405,423,443,464,485,505,523,544,564,585,603,624,645,664,684,704,724,745,765,783,803,824,843,864,885,904,924,945,964,983,1004,1024,1045,1065,1084,1105,1125,1144,1165,1185,1205,1225,1244,1263,1283,1305,1324,1344,1364,1385,1404,1424,1444,1464,1485,1504,1525,1544,1564,1585,1604,1623,1644,1665,1684,1704,1724,1745,1764,1783,1804],"xSR":741.5,"ySR":573.95,"xT1":424.9,"yT1":0,"xT2":1058.1,"yT2":0,"toosoon":0,"cond_shown":"Incongruent","ratio_trial":300,"L_num":1,"L_den":2,"R_num":2,"R_den":10,"correct_side":1,"subjID":"LorenaGarcia8","gender":"1","school":"6","age":"11"},{"start_time":1551891409726,"click_time":1551891411371,"finger_time":1551891411131,"fix_duration":994.6010854230088,"trial":51,"RT":1405,"MT":240,"sideResp":2,"stimulus":[],"xmouse":[816,816,816,816,816,816,816,816,816,816,816,816,816,816,816,816,816,816,816,816,816,816,816,816,816,816,816,816,816,816,816,816,816,816,816,816,816,816,816,816,816,816,816,816,816,816,816,816,816,816,816,816,816,816,816,816,816,816,816,816,816,816,816,816,816,816,816,816,822,826,842,855,870,887,911,966,989,1022,1037,1047,1060,1063,1063],"ymouse":[616,616,616,616,616,616,616,616,616,616,616,616,616,616,616,616,616,616,616,616,616,616,616,616,616,616,616,616,616,616,616,616,616,616,616,616,616,616,616,616,616,616,616,616,616,616,616,616,616,616,616,616,616,616,616,616,616,616,616,616,616,616,616,616,616,616,616,615,604,592,549,520,488,454,405,311,274,218,190,166,131,114,98],"timestamp_mouse":[10,35,44,64,85,106,126,145,165,185,205,224,244,264,286,304,324,346,364,385,405,425,445,465,485,505,525,545,565,585,604,625,645,664,686,705,726,746,765,785,805,825,846,864,885,906,924,945,966,986,1005,1025,1045,1064,1085,1105,1126,1144,1165,1185,1206,1225,1246,1266,1285,1304,1325,1345,1366,1386,1405,1425,1444,1465,1485,1505,1524,1545,1565,1585,1605,1625,1645],"xSR":741.5,"ySR":573.95,"xT1":424.9,"yT1":0,"xT2":1058.1,"yT2":0,"toosoon":0,"cond_shown":"Incongruent","ratio_trial":100,"L_num":12,"L_den":30,"R_num":2,"R_den":4,"correct_side":2,"subjID":"LorenaGarcia8","gender":"1","school":"6","age":"11"},{"start_time":1551891413304,"click_time":1551891414772,"finger_time":1551891414651,"fix_duration":1291.468359706466,"trial":52,"RT":1347,"MT":121,"sideResp":1,"stimulus":[],"xmouse":[801,801,801,801,801,801,801,801,801,801,801,801,801,801,801,801,801,801,801,801,801,801,801,801,801,801,801,801,801,801,801,801,801,801,801,801,801,801,801,801,801,801,801,801,801,801,801,801,801,801,801,801,801,801,801,801,801,801,801,801,801,801,801,799,798,792,779,728,698,667,628,550,523,501],"ymouse":[628,628,628,628,628,628,628,628,628,628,628,628,628,628,628,628,628,628,628,628,628,628,628,628,628,628,628,628,628,628,628,628,628,628,628,628,628,628,628,628,628,628,628,628,628,628,628,628,628,628,628,628,628,628,628,628,628,628,628,628,628,628,628,627,626,618,602,521,451,381,302,166,118,79],"timestamp_mouse":[9,44,48,67,87,107,127,148,168,188,207,227,247,267,288,308,327,347,368,387,407,427,447,468,488,507,527,548,567,587,608,628,647,668,688,707,726,747,767,788,807,827,847,868,886,907,927,947,967,987,1007,1028,1047,1067,1087,1108,1127,1147,1167,1187,1207,1227,1247,1266,1288,1308,1327,1347,1367,1388,1406,1428,1446,1468],"xSR":741.5,"ySR":573.95,"xT1":424.9,"yT1":0,"xT2":1058.1,"yT2":0,"