[{"start_time":1551800603748,"click_time":1551800605834,"finger_time":1551800605333,"fix_duration":250,"trial":0,"RT":1585,"MT":501,"sideResp":1,"stimulus":[],"xmouse":[797,797,797,797,797,797,797,797,797,797,797,797,797,797,797,797,797,797,797,797,797,797,797,797,797,797,797,797,797,797,797,797,797,797,797,797,797,797,797,797,797,797,797,797,797,797,797,797,797,797,797,797,797,797,797,797,797,797,797,797,797,797,797,797,797,797,797,797,797,797,797,797,797,797,797,792,775,753,735,725,723,722,719,713,704,655,623,601,590,581,564,554,542,536,533,530,529,528,525,523,514,512,511,511],"ymouse":[549,549,549,549,549,549,549,549,549,549,549,549,549,549,549,549,549,549,549,549,549,549,549,549,549,549,549,549,549,549,549,549,549,549,549,549,549,549,549,549,549,549,549,549,549,549,549,549,549,549,549,549,549,549,549,549,549,549,549,549,549,549,549,549,549,549,549,549,549,549,549,549,549,549,549,550,543,534,523,515,511,508,503,492,479,433,407,386,367,345,306,284,261,246,229,206,200,195,179,168,135,119,105,93],"timestamp_mouse":[9,50,66,85,105,126,145,166,185,205,225,246,265,285,305,325,346,366,385,405,426,445,466,485,506,526,545,565,586,606,626,646,665,686,705,725,746,765,786,806,825,846,866,886,905,925,945,966,985,1005,1025,1045,1065,1085,1105,1125,1147,1166,1185,1205,1225,1246,1265,1285,1306,1326,1345,1366,1387,1406,1425,1446,1465,1486,1506,1525,1546,1565,1585,1606,1625,1645,1665,1686,1706,1725,1745,1765,1786,1805,1825,1846,1865,1886,1906,1925,1945,1965,1986,2006,2025,2046,2065,2086],"xSR":741.5,"ySR":501.8,"xT1":424.9,"yT1":0,"xT2":1058.1,"yT2":0,"toosoon":0,"cond_shown":"Congruent","ratio_trial":300,"L_num":20,"L_den":25,"R_num":8,"R_den":16,"correct_side":1,"subjID":"LUANACHAVESGONZALEZ31","gender":"1","age":"11","school":"6","test":{"fix_dur":[250,1500],"timestim":1000,"targets_dim":[100,100],"targets_relative_coord":[0.3,0.7],"size_stim":[880,420],"start_dim":[100,100],"size_start":[300,300],"size_fix":60,"samplingrate":20,"img_types":["Congruent","Incongruent"],"ratios":[100,200,300],"rep_conds":19,"nTrials":120,"trials_to_rest":500,"Trials_order":[118,24,25,92,16,37,114,52,68,47,51,10,35,77,0,108,17,28,102,3,61,75,13,98,60,93,57,95,33,71,117,1,78,91,56,30,83,64,70,38,96,119,67,111,73,26,23,74,88,69,22,20,59,55,4,48,65,41,106,101,112,9,110,86,29,100,66,43,2,8,90,105,31,27,79,40,6,21,15,103,58,18,97,81,80,54,34,63,99,32,76,44,45,19,62,5,84,107,94,14,53,89,7,85,104,87,113,11,50,72,82,12,46,115,39,42,109,36,49,116],"cond_shown":["Congruent","Congruent","Incongruent","Congruent","Congruent","Incongruent","Congruent","Congruent","Congruent","Incongruent","Incongruent","Congruent","Incongruent","Incongruent","Congruent","Congruent","Incongruent","Congruent","Congruent","Incongruent","Incongruent","Incongruent","Incongruent","Congruent","Congruent","Incongruent","Incongruent","Incongruent","Incongruent","Incongruent","Incongruent","Incongruent","Congruent","Incongruent","Congruent","Congruent","Incongruent","Congruent","Congruent","Congruent","Congruent","Incongruent","Incongruent","Incongruent","Incongruent","Congruent","Incongruent","Congruent","Congruent","Incongruent","Congruent","Congruent","Incongruent","Incongruent","Congruent","Congruent","Incongruent","Incongruent","Congruent","Incongruent","Congruent","Incongruent","Congruent","Congruent","Incongruent","Congruent","Congruent","Incongruent","Congruent","Congruent","Congruent","Incongruent","Incongruent","Incongruent","Incongruent","Congruent","Congruent","Incongruent","Incongruent","Incongruent","Congruent","Congruent","Incongruent","Incongruent","Congruent","Congruent","Congruent","Incongruent","Incongruent","Congruent","Congruent","Congruent","Incongruent","Incongruent","Congruent","Incongruent","Congruent","Incongruent","Congruent","Congruent","Incongruent","Incongruent","Incongruent","Incongruent","Congruent","Incongruent","Incongruent","Incongruent","Congruent","Congruent","Congruent","Congruent","Congruent","Incongruent","Incongruent","Congruent","Incongruent","Congruent","Incongruent","Congruent"],"ratio_trial":[300,100,100,200,300,100,100,300,200,300,200,300,300,300,100,100,300,300,100,200,100,200,100,200,100,200,200,300,200,300,200,100,100,100,200,100,300,300,300,200,100,300,100,200,100,200,300,200,300,200,300,200,300,100,300,100,300,300,300,300,300,200,200,200,300,300,100,100,200,200,100,200,100,200,100,300,100,200,200,100,300,100,100,200,200,100,300,200,200,200,300,200,200,100,200,300,100,300,300,200,300,300,100,100,200,200,300,300,200,100,300,100,300,100,200,100,100,100,100,200],"left_num":[20,11,3,5,20,10,10,24,9,4,7,8,1,4,11,3,8,24,7,4,10,7,13,3,3,7,7,4,11,8,3,2,11,6,6,6,1,20,8,16,9,13,13,7,8,7,4,20,3,7,9,6,4,3,24,11,4,13,1,1,7,7,4,6,4,9,10,6,9,14,3,1,9,3,3,24,2,1,4,12,11,4,6,7,14,8,9,7,1,1,1,3,7,12,11,13,3,2,5,9,2,8,3,9,4,7,4,13,8,3,1,6,3,2,7,11,17,10,17,7],"right_num":[8,6,8,14,13,9,3,2,13,2,12,1,3,8,4,2,14,8,15,1,8,12,6,9,2,14,8,2,3,9,1,8,4,7,7,15,2,9,1,9,8,12,6,12,1,18,2,9,11,8,3,3,2,4,8,6,2,12,3,2,20,4,3,11,8,3,3,11,4,6,4,3,20,11,7,2,11,2,6,2,1,15,7,8,6,2,3,4,2,21,8,9,6,9,3,12,4,6,6,13,6,14,4,14,3,6,6,12,2,4,6,5,11,8,6,4,10,3,10,2],"left_den":[25,22,5,10,25,25,25,30,30,20,10,16,2,5,22,6,10,30,14,30,25,10,26,12,6,10,10,20,20,10,10,4,22,10,12,12,2,25,16,30,15,26,26,10,20,15,20,25,12,10,10,15,20,6,30,22,20,26,5,2,14,15,10,20,5,10,25,10,20,28,20,2,10,4,9,30,5,3,5,30,22,10,10,10,28,16,10,15,3,2,30,12,15,24,22,26,20,4,25,30,4,10,6,15,8,15,5,26,15,20,5,20,12,4,15,22,30,25,30,21],"right_den":[16,15,16,20,26,18,10,4,26,4,24,5,15,16,10,5,28,16,25,3,16,24,10,20,5,28,16,4,4,18,2,20,10,14,10,25,10,18,5,27,16,15,10,24,2,27,4,15,20,16,5,15,4,10,16,15,4,15,6,10,25,6,15,22,16,5,10,22,16,20,16,10,25,20,30,4,22,15,10,4,5,30,14,16,20,5,5,6,15,30,24,20,9,15,10,15,16,30,12,26,30,28,10,28,10,9,12,15,6,16,12,25,20,20,9,10,15,10,15,15],"correct_side":[1,1,1,2,1,2,1,1,2,2,1,1,1,1,1,1,1,1,2,2,2,1,2,2,1,1,1,2,2,1,2,1,1,1,2,2,1,1,1,1,1,2,2,1,2,2,2,1,2,1,1,1,2,1,1,1,2,2,2,1,2,2,1,2,1,1,1,1,1,1,2,1,1,1,1,1,2,1,1,2,1,2,1,1,1,1,1,2,1,2,2,2,2,2,1,2,2,1,2,2,1,1,1,1,1,2,1,2,1,2,2,1,2,1,2,1,2,1,2,1],"img_shown":["img2/300/Congruent/L/C_Dist_300_LN_20_LD_25_RN_8_RD_16_0.png","img2/100/Congruent/L/C_Dist_100_LN_11_LD_22_RN_6_RD_15_0.png","img2/100/Incongruent/L/I_Dist_100_LN_3_LD_5_RN_8_RD_16_0.png","img2/200/Congruent/R/C_Dist_200_LN_5_LD_10_RN_14_RD_20_1.png","img2/300/Congruent/L/C_Dist_300_LN_20_LD_25_RN_13_RD_26_0.png","img2/100/Incongruent/R/I_Dist_100_LN_10_LD_25_RN_9_RD_18_1.png","img2/100/Congruent/L/C_Dist_100_LN_10_LD_25_RN_3_RD_10_0.png","img2/300/Congruent/L/C_Dist_300_LN_24_LD_30_RN_2_RD_4_0.png","img2/200/Congruent/R/C_Dist_200_LN_9_LD_30_RN_13_RD_26_1.png","img2/300/Incongruent/R/I_Dist_300_LN_4_LD_20_RN_2_RD_4_1.png","img2/200/Incongruent/L/I_Dist_200_LN_7_LD_10_RN_12_RD_24_0.png","img2/300/Congruent/L/C_Dist_300_LN_8_LD_16_RN_1_RD_5_0.png","img2/300/Incongruent/L/I_Dist_300_LN_1_LD_2_RN_3_RD_15_0.png","img2/300/Incongruent/L/I_Dist_300_LN_4_LD_5_RN_8_RD_16_0.png","img2/100/Congruent/L/C_Dist_100_LN_11_LD_22_RN_4_RD_10_0.png","img2/100/Congruent/L/C_Dist_100_LN_3_LD_6_RN_2_RD_5_0.png","img2/300/Incongruent/L/I_Dist_300_LN_8_LD_10_RN_14_RD_28_0.png","img2/300/Congruent/L/C_Dist_300_LN_24_LD_30_RN_8_RD_16_0.png","img2/100/Congruent/R/C_Dist_100_LN_7_LD_14_RN_15_RD_25_1.png","img2/200/Incongruent/R/I_Dist_200_LN_4_LD_30_RN_1_RD_3_1.png","img2/100/Incongruent/R/I_Dist_100_LN_10_LD_25_RN_8_RD_16_1.png","img2/200/Incongruent/L/I_Dist_200_LN_7_LD_10_RN_12_RD_24_0.png","img2/100/Incongruent/R/I_Dist_100_LN_13_LD_26_RN_6_RD_10_1.png","img2/200/Congruent/R/C_Dist_200_LN_3_LD_12_RN_9_RD_20_1.png","img2/100/Congruent/L/C_Dist_100_LN_3_LD_6_RN_2_RD_5_0.png","img2/200/Incongruent/L/I_Dist_200_LN_7_LD_10_RN_14_RD_28_0.png","img2/200/Incongruent/L/I_Dist_200_LN_7_LD_10_RN_8_RD_16_0.png","img2/300/Incongruent/R/I_Dist_300_LN_4_LD_20_RN_2_RD_4_1.png","img2/200/Incongruent/R/I_Dist_200_LN_11_LD_20_RN_3_RD_4_1.png","img2/300/Incongruent/L/I_Dist_300_LN_8_LD_10_RN_9_RD_18_0.png","img2/200/Incongruent/R/I_Dist_200_LN_3_LD_10_RN_1_RD_2_1.png","img2/100/Incongruent/L/I_Dist_100_LN_2_LD_4_RN_8_RD_20_0.png","img2/100/Congruent/L/C_Dist_100_LN_11_LD_22_RN_4_RD_10_0.png","img2/100/Incongruent/L/I_Dist_100_LN_6_LD_10_RN_7_RD_14_0.png","img2/200/Congruent/R/C_Dist_200_LN_6_LD_12_RN_7_RD_10_1.png","img2/100/Congruent/R/C_Dist_100_LN_6_LD_12_RN_15_RD_25_1.png","img2/300/Incongruent/L/I_Dist_300_LN_1_LD_2_RN_2_RD_10_0.png","img2/300/Congruent/L/C_Dist_300_LN_20_LD_25_RN_9_RD_18_0.png","img2/300/Congruent/L/C_Dist_300_LN_8_LD_16_RN_1_RD_5_0.png","img2/200/Congruent/L/C_Dist_200_LN_16_LD_30_RN_9_RD_27_0.png","img2/100/Congruent/L/C_Dist_100_LN_9_LD_15_RN_8_RD_16_0.png","img2/300/Incongruent/R/I_Dist_300_LN_13_LD_26_RN_12_RD_15_1.png","img2/100/Incongruent/R/I_Dist_100_LN_13_LD_26_RN_6_RD_10_1.png","img2/200/Incongruent/L/I_Dist_200_LN_7_LD_10_RN_12_RD_24_0.png","img2/100/Incongruent/R/I_Dist_100_LN_8_LD_20_RN_1_RD_2_1.png","img2/200/Congruent/R/C_Dist_200_LN_7_LD_15_RN_18_RD_27_1.png","img2/300/Incongruent/R/I_Dist_300_LN_4_LD_20_RN_2_RD_4_1.png","img2/200/Congruent/L/C_Dist_200_LN_20_LD_25_RN_9_RD_15_0.png","img2/300/Congruent/R/C_Dist_300_LN_3_LD_12_RN_11_RD_20_1.png","img2/200/Incongruent/L/I_Dist_200_LN_7_LD_10_RN_8_RD_16_0.png","img2/300/Congruent/L/C_Dist_300_LN_9_LD_10_RN_3_RD_5_0.png","img2/200/Congruent/L/C_Dist_200_LN_6_LD_15_RN_3_RD_15_0.png","img2/300/Incongruent/R/I_Dist_300_LN_4_LD_20_RN_2_RD_4_1.png","img2/100/Incongruent/L/I_Dist_100_LN_3_LD_6_RN_4_RD_10_0.png","img2/300/Congruent/L/C_Dist_300_LN_24_LD_30_RN_8_RD_16_0.png","img2/100/Congruent/L/C_Dist_100_LN_11_LD_22_RN_6_RD_15_0.png","img2/300/Incongruent/R/I_Dist_300_LN_4_LD_20_RN_2_RD_4_1.png","img2/300/Incongruent/R/I_Dist_300_LN_13_LD_26_RN_12_RD_15_1.png","img2/300/Congruent/R/C_Dist_300_LN_1_LD_5_RN_3_RD_6_1.png","img2/300/Incongruent/L/I_Dist_300_LN_1_LD_2_RN_2_RD_10_0.png","img2/300/Congruent/R/C_Dist_300_LN_7_LD_14_RN_20_RD_25_1.png","img2/200/Incongruent/R/I_Dist_200_LN_7_LD_15_RN_4_RD_6_1.png","img2/200/Congruent/L/C_Dist_200_LN_4_LD_10_RN_3_RD_15_0.png","img2/200/Congruent/R/C_Dist_200_LN_6_LD_20_RN_11_RD_22_1.png","img2/300/Incongruent/L/I_Dist_300_LN_4_LD_5_RN_8_RD_16_0.png","img2/300/Congruent/L/C_Dist_300_LN_9_LD_10_RN_3_RD_5_0.png","img2/100/Congruent/L/C_Dist_100_LN_10_LD_25_RN_3_RD_10_0.png","img2/100/Incongruent/L/I_Dist_100_LN_6_LD_10_RN_11_RD_22_0.png","img2/200/Congruent/L/C_Dist_200_LN_9_LD_20_RN_4_RD_16_0.png","img2/200/Congruent/L/C_Dist_200_LN_14_LD_28_RN_6_RD_20_0.png","img2/100/Congruent/R/C_Dist_100_LN_3_LD_20_RN_4_RD_16_1.png","img2/200/Incongruent/L/I_Dist_200_LN_1_LD_2_RN_3_RD_10_0.png","img2/100/Incongruent/L/I_Dist_100_LN_9_LD_10_RN_20_RD_25_0.png","img2/200/Incongruent/L/I_Dist_200_LN_3_LD_4_RN_11_RD_20_0.png","img2/100/Incongruent/L/I_Dist_100_LN_3_LD_9_RN_7_RD_30_0.png","img2/300/Congruent/L/C_Dist_300_LN_24_LD_30_RN_2_RD_4_0.png","img2/100/Congruent/R/C_Dist_100_LN_2_LD_5_RN_11_RD_22_1.png","img2/200/Incongruent/L/I_Dist_200_LN_1_LD_3_RN_2_RD_15_0.png","img2/200/Incongruent/L/I_Dist_200_LN_4_LD_5_RN_6_RD_10_0.png","img2/100/Incongruent/R/I_Dist_100_LN_12_LD_30_RN_2_RD_4_1.png","img2/300/Congruent/L/C_Dist_300_LN_11_LD_22_RN_1_RD_5_0.png","img2/100/Congruent/R/C_Dist_100_LN_4_LD_10_RN_15_RD_30_1.png","img2/100/Incongruent/L/I_Dist_100_LN_6_LD_10_RN_7_RD_14_0.png","img2/200/Incongruent/L/I_Dist_200_LN_7_LD_10_RN_8_RD_16_0.png","img2/200/Congruent/L/C_Dist_200_LN_14_LD_28_RN_6_RD_20_0.png","img2/100/Congruent/L/C_Dist_100_LN_8_LD_16_RN_2_RD_5_0.png","img2/300/Congruent/L/C_Dist_300_LN_9_LD_10_RN_3_RD_5_0.png","img2/200/Incongruent/R/I_Dist_200_LN_7_LD_15_RN_4_RD_6_1.png","img2/200/Incongruent/L/I_Dist_200_LN_1_LD_3_RN_2_RD_15_0.png","img2/200/Congruent/R/C_Dist_200_LN_1_LD_2_RN_21_RD_30_1.png","img2/300/Congruent/R/C_Dist_300_LN_1_LD_30_RN_8_RD_24_1.png","img2/200/Congruent/R/C_Dist_200_LN_3_LD_12_RN_9_RD_20_1.png","img2/200/Incongruent/R/I_Dist_200_LN_7_LD_15_RN_6_RD_9_1.png","img2/100/Incongruent/R/I_Dist_100_LN_12_LD_24_RN_9_RD_15_1.png","img2/200/Congruent/L/C_Dist_200_LN_11_LD_22_RN_3_RD_10_0.png","img2/300/Incongruent/R/I_Dist_300_LN_13_LD_26_RN_12_RD_15_1.png","img2/100/Congruent/R/C_Dist_100_LN_3_LD_20_RN_4_RD_16_1.png","img2/300/Incongruent/L/I_Dist_300_LN_2_LD_4_RN_6_RD_30_0.png","img2/300/Congruent/R/C_Dist_300_LN_5_LD_25_RN_6_RD_12_1.png","img2/200/Congruent/R/C_Dist_200_LN_9_LD_30_RN_13_RD_26_1.png","img2/300/Incongruent/L/I_Dist_300_LN_2_LD_4_RN_6_RD_30_0.png","img2/300/Incongruent/L/I_Dist_300_LN_8_LD_10_RN_14_RD_28_0.png","img2/100/Incongruent/L/I_Dist_100_LN_3_LD_6_RN_4_RD_10_0.png","img2/100/Incongruent/L/I_Dist_100_LN_9_LD_15_RN_14_RD_28_0.png","img2/200/Congruent/L/C_Dist_200_LN_4_LD_8_RN_3_RD_10_0.png","img2/200/Incongruent/R/I_Dist_200_LN_7_LD_15_RN_6_RD_9_1.png","img2/300/Incongruent/L/I_Dist_300_LN_4_LD_5_RN_6_RD_12_0.png","img2/300/Incongruent/R/I_Dist_300_LN_13_LD_26_RN_12_RD_15_1.png","img2/200/Congruent/L/C_Dist_200_LN_8_LD_15_RN_2_RD_6_0.png","img2/100/Congruent/R/C_Dist_100_LN_3_LD_20_RN_4_RD_16_1.png","img2/300/Congruent/R/C_Dist_300_LN_1_LD_5_RN_6_RD_12_1.png","img2/100/Congruent/L/C_Dist_100_LN_6_LD_20_RN_5_RD_25_0.png","img2/300/Congruent/R/C_Dist_300_LN_3_LD_12_RN_11_RD_20_1.png","img2/100/Incongruent/L/I_Dist_100_LN_2_LD_4_RN_8_RD_20_0.png","img2/200/Incongruent/R/I_Dist_200_LN_7_LD_15_RN_6_RD_9_1.png","img2/100/Congruent/L/C_Dist_100_LN_11_LD_22_RN_4_RD_10_0.png","img2/100/Incongruent/R/I_Dist_100_LN_17_LD_30_RN_10_RD_15_1.png","img2/100/Congruent/L/C_Dist_100_LN_10_LD_25_RN_3_RD_10_0.png","img2/100/Incongruent/R/I_Dist_100_LN_17_LD_30_RN_10_RD_15_1.png","img2/200/Congruent/L/C_Dist_200_LN_7_LD_21_RN_2_RD_15_0.png"],"dist100_C":[["C_Dist_100_LN_10_LD_25_RN_3_RD_10_0.png","C_Dist_100_LN_11_LD_22_RN_4_RD_10_0.png","C_Dist_100_LN_11_LD_22_RN_6_RD_15_0.png","C_Dist_100_LN_15_LD_25_RN_13_RD_26_0.png","C_Dist_100_LN_3_LD_6_RN_2_RD_5_0.png","C_Dist_100_LN_6_LD_20_RN_5_RD_25_0.png","C_Dist_100_LN_8_LD_16_RN_2_RD_5_0.png","C_Dist_100_LN_9_LD_15_RN_8_RD_16_0.png"],["C_Dist_100_LN_1_LD_2_RN_18_RD_30_1.png","C_Dist_100_LN_1_LD_2_RN_3_RD_5_1.png","C_Dist_100_LN_12_LD_30_RN_13_RD_26_1.png","C_Dist_100_LN_2_LD_5_RN_11_RD_22_1.png","C_Dist_100_LN_2_LD_5_RN_6_RD_12_1.png","C_Dist_100_LN_3_LD_20_RN_4_RD_16_1.png","C_Dist_100_LN_4_LD_10_RN_15_RD_30_1.png","C_Dist_100_LN_4_LD_8_RN_6_RD_10_1.png","C_Dist_100_LN_6_LD_12_RN_15_RD_25_1.png","C_Dist_100_LN_7_LD_14_RN_15_RD_25_1.png","C_Dist_100_LN_7_LD_14_RN_9_RD_15_1.png"]],"dist100_I":[["I_Dist_100_LN_1_LD_2_RN_8_RD_20_0.png","I_Dist_100_LN_2_LD_4_RN_6_RD_15_0.png","I_Dist_100_LN_2_LD_4_RN_8_RD_20_0.png","I_Dist_100_LN_3_LD_5_RN_11_RD_22_0.png","I_Dist_100_LN_3_LD_5_RN_8_RD_16_0.png","I_Dist_100_LN_3_LD_6_RN_4_RD_10_0.png","I_Dist_100_LN_3_LD_9_RN_7_RD_30_0.png","I_Dist_100_LN_4_LD_8_RN_8_RD_20_0.png","I_Dist_100_LN_6_LD_10_RN_11_RD_22_0.png","I_Dist_100_LN_6_LD_10_RN_13_RD_26_0.png","I_Dist_100_LN_6_LD_10_RN_7_RD_14_0.png","I_Dist_100_LN_9_LD_10_RN_20_RD_25_0.png","I_Dist_100_LN_9_LD_15_RN_13_RD_26_0.png","I_Dist_100_LN_9_LD_15_RN_14_RD_28_0.png"],["I_Dist_100_LN_10_LD_25_RN_8_RD_16_1.png","I_Dist_100_LN_10_LD_25_RN_9_RD_18_1.png","I_Dist_100_LN_11_LD_22_RN_9_RD_15_1.png","I_Dist_100_LN_12_LD_24_RN_9_RD_15_1.png","I_Dist_100_LN_12_LD_30_RN_2_RD_4_1.png","I_Dist_100_LN_13_LD_26_RN_12_RD_20_1.png","I_Dist_100_LN_13_LD_26_RN_6_RD_10_1.png","I_Dist_100_LN_17_LD_30_RN_10_RD_15_1.png","I_Dist_100_LN_6_LD_12_RN_3_RD_5_1.png","I_Dist_100_LN_8_LD_16_RN_6_RD_10_1.png","I_Dist_100_LN_8_LD_20_RN_1_RD_2_1.png","I_Dist_100_LN_9_LD_18_RN_6_RD_10_1.png"]],"dist100_S":[["E_Dist_100_LN_2_LD_12_RN_2_RD_30_0.png","E_Dist_100_LN_6_LD_10_RN_6_RD_12_0.png"],["E_Dist_100_LN_6_LD_12_RN_6_RD_10_1.png"]],"dist200_C":[["C_Dist_200_LN_11_LD_22_RN_3_RD_10_0.png","C_Dist_200_LN_12_LD_15_RN_6_RD_10_0.png","C_Dist_200_LN_12_LD_20_RN_6_RD_15_0.png","C_Dist_200_LN_14_LD_28_RN_6_RD_20_0.png","C_Dist_200_LN_15_LD_25_RN_4_RD_10_0.png","C_Dist_200_LN_16_LD_20_RN_12_RD_20_0.png","C_Dist_200_LN_16_LD_30_RN_9_RD_27_0.png","C_Dist_200_LN_20_LD_25_RN_9_RD_15_0.png","C_Dist_200_LN_21_LD_30_RN_2_RD_4_0.png","C_Dist_200_LN_4_LD_10_RN_3_RD_15_0.png","C_Dist_200_LN_4_LD_8_RN_3_RD_10_0.png","C_Dist_200_LN_6_LD_15_RN_3_RD_15_0.png","C_Dist_200_LN_7_LD_21_RN_2_RD_15_0.png","C_Dist_200_LN_8_LD_15_RN_2_RD_6_0.png","C_Dist_200_LN_8_LD_15_RN_3_RD_9_0.png","C_Dist_200_LN_8_LD_15_RN_7_RD_21_0.png","C_Dist_200_LN_9_LD_20_RN_4_RD_16_0.png"],["C_Dist_200_LN_1_LD_2_RN_21_RD_30_1.png","C_Dist_200_LN_13_LD_26_RN_14_RD_20_1.png","C_Dist_200_LN_3_LD_10_RN_11_RD_22_1.png","C_Dist_200_LN_3_LD_10_RN_14_RD_28_1.png","C_Dist_200_LN_3_LD_10_RN_7_RD_14_1.png","C_Dist_200_LN_3_LD_12_RN_9_RD_20_1.png","C_Dist_200_LN_3_LD_6_RN_14_RD_20_1.png","C_Dist_200_LN_5_LD_10_RN_14_RD_20_1.png","C_Dist_200_LN_6_LD_12_RN_7_RD_10_1.png","C_Dist_200_LN_6_LD_20_RN_11_RD_22_1.png","C_Dist_200_LN_7_LD_15_RN_18_RD_27_1.png","C_Dist_200_LN_9_LD_30_RN_13_RD_26_1.png"]],"dist200_I":[["I_Dist_200_LN_1_LD_2_RN_3_RD_10_0.png","I_Dist_200_LN_1_LD_3_RN_2_RD_15_0.png","I_Dist_200_LN_3_LD_4_RN_11_RD_20_0.png","I_Dist_200_LN_4_LD_5_RN_6_RD_10_0.png","I_Dist_200_LN_4_LD_6_RN_14_RD_30_0.png","I_Dist_200_LN_7_LD_10_RN_12_RD_24_0.png","I_Dist_200_LN_7_LD_10_RN_14_RD_28_0.png","I_Dist_200_LN_7_LD_10_RN_8_RD_16_0.png"],["I_Dist_200_LN_11_LD_20_RN_3_RD_4_1.png","I_Dist_200_LN_14_LD_30_RN_12_RD_18_1.png","I_Dist_200_LN_14_LD_30_RN_6_RD_9_1.png","I_Dist_200_LN_3_LD_10_RN_1_RD_2_1.png","I_Dist_200_LN_4_LD_30_RN_1_RD_3_1.png","I_Dist_200_LN_6_LD_20_RN_3_RD_6_1.png","I_Dist_200_LN_7_LD_15_RN_4_RD_6_1.png","I_Dist_200_LN_7_LD_15_RN_6_RD_9_1.png","I_Dist_200_LN_9_LD_15_RN_8_RD_10_1.png"]],"dist200_S":[["E_Dist_200_LN_3_LD_6_RN_3_RD_10_0.png"],["E_Dist_200_LN_3_LD_10_RN_3_RD_6_1.png"]],"dist300_C":[["C_Dist_300_LN_11_LD_22_RN_1_RD_5_0.png","C_Dist_300_LN_11_LD_22_RN_2_RD_10_0.png","C_Dist_300_LN_11_LD_22_RN_4_RD_20_0.png","C_Dist_300_LN_12_LD_24_RN_2_RD_10_0.png","C_Dist_300_LN_18_LD_20_RN_9_RD_15_0.png","C_Dist_300_LN_20_LD_25_RN_13_RD_26_0.png","C_Dist_300_LN_20_LD_25_RN_14_RD_28_0.png","C_Dist_300_LN_20_LD_25_RN_5_RD_10_0.png","C_Dist_300_LN_20_LD_25_RN_8_RD_16_0.png","C_Dist_300_LN_20_LD_25_RN_9_RD_18_0.png","C_Dist_300_LN_24_LD_30_RN_2_RD_4_0.png","C_Dist_300_LN_24_LD_30_RN_8_RD_16_0.png","C_Dist_300_LN_3_LD_6_RN_2_RD_10_0.png","C_Dist_300_LN_4_LD_10_RN_1_RD_10_0.png","C_Dist_300_LN_4_LD_5_RN_2_RD_4_0.png","C_Dist_300_LN_8_LD_16_RN_1_RD_5_0.png","C_Dist_300_LN_9_LD_10_RN_3_RD_5_0.png"],["C_Dist_300_LN_1_LD_20_RN_7_RD_20_1.png","C_Dist_300_LN_1_LD_3_RN_19_RD_30_1.png","C_Dist_300_LN_1_LD_30_RN_8_RD_24_1.png","C_Dist_300_LN_1_LD_5_RN_11_RD_22_1.png","C_Dist_300_LN_1_LD_5_RN_3_RD_6_1.png","C_Dist_300_LN_1_LD_5_RN_6_RD_12_1.png","C_Dist_300_LN_2_LD_10_RN_12_RD_24_1.png","C_Dist_300_LN_2_LD_20_RN_10_RD_25_1.png","C_Dist_300_LN_3_LD_12_RN_11_RD_20_1.png","C_Dist_300_LN_3_LD_6_RN_4_RD_5_1.png","C_Dist_300_LN_4_LD_20_RN_13_RD_26_1.png","C_Dist_300_LN_5_LD_25_RN_6_RD_12_1.png","C_Dist_300_LN_5_LD_25_RN_7_RD_14_1.png","C_Dist_300_LN_7_LD_14_RN_20_RD_25_1.png","C_Dist_300_LN_8_LD_15_RN_10_RD_12_1.png"]],"dist300_I":[["I_Dist_300_LN_1_LD_2_RN_2_RD_10_0.png","I_Dist_300_LN_1_LD_2_RN_3_RD_15_0.png","I_Dist_300_LN_2_LD_4_RN_6_RD_30_0.png","I_Dist_300_LN_3_LD_6_RN_4_RD_20_0.png","I_Dist_300_LN_4_LD_5_RN_6_RD_12_0.png","I_Dist_300_LN_4_LD_5_RN_8_RD_16_0.png","I_Dist_300_LN_7_LD_10_RN_8_RD_20_0.png","I_Dist_300_LN_8_LD_10_RN_14_RD_28_0.png","I_Dist_300_LN_8_LD_10_RN_9_RD_18_0.png"],["I_Dist_300_LN_13_LD_26_RN_12_RD_15_1.png","I_Dist_300_LN_4_LD_20_RN_2_RD_4_1.png"]],"dist300_S":[["E_Dist_300_LN_9_LD_12_RN_9_RD_20_0.png"],["E_Dist_300_LN_18_LD_30_RN_18_RD_20_1.png","E_Dist_300_LN_3_LD_10_RN_3_RD_5_1.png","E_Dist_300_LN_9_LD_20_RN_9_RD_12_1.png"]],"dist500_C":[["C_Dist_500_LN_10_LD_13_RN_7_RD_26_0.png","C_Dist_500_LN_10_LD_15_RN_4_RD_24_0.png","C_Dist_500_LN_12_LD_16_RN_3_RD_12_0.png","C_Dist_500_LN_12_LD_18_RN_4_RD_24_0.png","C_Dist_500_LN_15_LD_18_RN_5_RD_15_0.png","C_Dist_500_LN_15_LD_20_RN_1_RD_4_0.png","C_Dist_500_LN_18_LD_27_RN_1_RD_6_0.png","C_Dist_500_LN_20_LD_24_RN_1_RD_3_0.png","C_Dist_500_LN_20_LD_24_RN_3_RD_9_0.png","C_Dist_500_LN_20_LD_24_RN_7_RD_21_0.png","C_Dist_500_LN_20_LD_28_RN_3_RD_14_0.png","C_Dist_500_LN_21_LD_28_RN_6_RD_24_0.png","C_Dist_500_LN_22_LD_28_RN_2_RD_7_0.png","C_Dist_500_LN_25_LD_30_RN_9_RD_27_0.png","C_Dist_500_LN_4_LD_6_RN_1_RD_6_0.png","C_Dist_500_LN_5_LD_6_RN_2_RD_6_0.png","C_Dist_500_LN_6_LD_9_RN_1_RD_6_0.png","C_Dist_500_LN_7_LD_10_RN_1_RD_5_0.png","C_Dist_500_LN_8_LD_12_RN_1_RD_6_0.png","C_Dist_500_LN_8_LD_12_RN_4_RD_24_0.png"],["C_Dist_500_LN_1_LD_4_RN_12_RD_16_1.png","C_Dist_500_LN_1_LD_4_RN_9_RD_12_1.png","C_Dist_500_LN_1_LD_9_RN_11_RD_18_1.png","C_Dist_500_LN_10_LD_24_RN_22_RD_24_1.png","C_Dist_500_LN_2_LD_12_RN_10_RD_15_1.png","C_Dist_500_LN_2_LD_12_RN_12_RD_18_1.png","C_Dist_500_LN_2_LD_12_RN_4_RD_6_1.png","C_Dist_500_LN_2_LD_24_RN_7_RD_12_1.png","C_Dist_500_LN_2_LD_5_RN_18_RD_20_1.png","C_Dist_500_LN_2_LD_5_RN_9_RD_10_1.png","C_Dist_500_LN_2_LD_8_RN_12_RD_16_1.png","C_Dist_500_LN_2_LD_8_RN_21_RD_28_1.png","C_Dist_500_LN_3_LD_10_RN_4_RD_5_1.png","C_Dist_500_LN_3_LD_12_RN_15_RD_20_1.png","C_Dist_500_LN_3_LD_30_RN_6_RD_10_1.png","C_Dist_500_LN_3_LD_8_RN_14_RD_16_1.png","C_Dist_500_LN_4_LD_16_RN_15_RD_20_1.png","C_Dist_500_LN_4_LD_24_RN_12_RD_18_1.png","C_Dist_500_LN_5_LD_14_RN_6_RD_7_1.png","C_Dist_500_LN_7_LD_21_RN_20_RD_24_1.png","C_Dist_500_LN_7_LD_28_RN_12_RD_16_1.png","C_Dist_500_LN_7_LD_28_RN_9_RD_12_1.png","C_Dist_500_LN_9_LD_27_RN_20_RD_24_1.png"]],"dist500_I":[["I_Dist_500_LN_2_LD_3_RN_4_RD_24_0.png","I_Dist_500_LN_5_LD_6_RN_6_RD_18_0.png","I_Dist_500_LN_7_LD_8_RN_9_RD_24_0.png"],["I_Dist_500_LN_7_LD_21_RN_5_RD_6_1.png"]],"dist500_S":[["E_Dist_500_LN_6_LD_8_RN_6_RD_24_0.png"],["E_Dist_500_LN_2_LD_12_RN_2_RD_3_1.png","E_Dist_500_LN_6_LD_24_RN_6_RD_8_1.png"]]}},{"start_time":1551800608989,"click_time":1551800621974,"finger_time":1551800621335,"fix_duration":974.0267530258203,"trial":1,"RT":12346,"MT":639,"sideResp":1,"stimulus":[],"xmouse":[818,818,818,818,818,818,818,818,818,818,818,818,818,818,818,818,818,818,818,818,818,818,818,818,818,818,818,818,818,818,818,818,818,818,818,818,818,818,818,818,818,818,818,818,818,818,818,818,818,818,818,818,818,818,818,818,818,818,818,818,818,818,818,818,818,818,818,818,818,818,818,818,818,818,818,818,818,818,818,818,818,818,818,818,818,818,818,818,818,818,818,818,818,818,818,818,818,818,818,818,818,818,818,818,818,818,818,818,818,818,818,818,818,818,818,818,818,818,818,818,818,818,818,818,818,818,818,818,818,818,818,818,818,818,818,818,818,818,818,818,818,818,818,818,818,818,818,818,818,818,818,818,818,818,818,818,818,818,818,818,818,818,818,818,818,818,818,818,818,818,818,818,818,818,818,818,818,818,818,818,818,818,818,818,818,818,818,818,818,818,818,818,818,818,818,818,818,818,818,818,818,818,818,818,818,818,818,818,818,818,818,818,818,818,818,818,818,818,818,818,818,818,818,818,818,818,818,818,818,818,818,818,818,818,818,818,818,818,818,818,818,818,818,818,818,818,818,818,818,818,818,818,818,818,818,818,818,818,818,818,818,818,818,818,818,818,818,818,818,818,818,818,818,818,818,818,818,818,818,818,818,818,818,818,818,818,818,818,818,818,818,818,818,818,818,818,818,818,818,818,818,818,818,818,818,818,818,818,818,818,818,818,818,818,818,818,818,818,818,818,818,818,818,818,818,818,818,818,818,818,818,818,818,818,818,818,818,818,818,818,818,818,818,818,818,818,818,818,818,818,818,818,818,818,818,818,818,818,818,818,818,818,818,818,818,818,818,818,818,818,818,818,818,818,818,818,818,818,818,818,818,818,818,818,818,818,818,818,818,818,818,818,818,818,818,818,818,818,818,818,818,818,818,818,818,818,818,818,818,818,818,818,818,818,818,818,818,818,818,818,818,818,818,818,818,818,818,818,818,818,818,818,818,818,818,818,818,818,818,818,818,818,818,818,818,818,818,818,818,818,818,818,818,818,818,818,818,818,818,818,818,818,818,818,818,818,818,818,818,818,818,818,818,818,818,818,818,818,818,818,818,818,818,818,818,818,818,818,818,818,818,818,818,818,818,818,818,818,818,818,818,818,818,818,818,818,818,818,818,818,818,818,818,818,818,818,818,818,818,818,818,818,818,818,818,818,818,818,818,818,818,818,818,818,818,818,818,818,818,818,818,818,818,818,818,818,818,818,818,818,818,818,818,818,818,818,818,818,811,807,805,804,804,804,803,802,799,798,797,794,788,767,764,764,764,764,764,764,764,764,764,764,764,764,764,764,764,764,764,764,764,764,764,764,764,764,764,764,764,763,763,763,763,763,763,763,763,763,763,763,763,763,763,763,763,762,746,732,713,697,681,654,645,634,618,605,562,554,551,548,548,548,548,548,547,547,547,547,547,547,547,547,547,547,547,547,547,547,547,496],"ymouse":[523,523,523,523,523,523,523,523,523,523,523,523,523,523,523,523,523,523,523,523,523,523,523,523,523,523,523,523,523,523,523,523,523,523,523,523,523,523,523,523,523,523,523,523,523,523,523,523,523,523,523,523,523,523,523,523,523,523,523,523,523,523,523,523,523,523,523,523,523,523,523,523,523,523,523,523,523,523,523,523,523,523,523,523,523,523,523,523,523,523,523,523,523,523,523,523,523,523,523,523,523,523,523,523,523,523,523,523,523,523,523,523,523,523,523,523,523,523,523,523,523,523,523,523,523,523,523,523,523,523,523,523,523,523,523,523,523,523,523,523,523,523,523,523,523,523,523,523,523,523,523,523,523,523,523,523,523,523,523,523,523,523,523,523,523,523,523,523,523,523,523,523,523,523,523,523,523,523,523,523,523,523,523,523,523,523,523,523,523,523,523,523,523,523,523,523,523,523,523,523,523,523,523,523,523,523,523,523,523,523,523,523,523,523,523,523,523,523,523,523,523,523,523,523,523,523,523,523,523,523,523,523,523,523,523,523,523,523,523,523,523,523,523,523,523,523,523,523,523,523,523,523,523,523,523,523,523,523,523,523,523,523,523,523,523,523,523,523,523,523,523,523,523,523,523,523,523,523,523,523,523,523,523,523,523,523,523,523,523,523,523,523,523,523,523,523,523,523,523,523,523,523,523,523,523,523,523,523,523,523,523,523,523,523,523,523,523,523,523,523,523,523,523,523,523,523,523,523,523,523,523,523,523,523,523,523,523,523,523,523,523,523,523,523,523,523,523,523,523,523,523,523,523,523,523,523,523,523,523,523,523,523,523,523,523,523,523,523,523,523,523,523,523,523,523,523,523,523,523,523,523,523,523,523,523,523,523,523,523,523,523,523,523,523,523,523,523,523,523,523,523,523,523,523,523,523,523,523,523,523,523,523,523,523,523,523,523,523,523,523,523,523,523,523,523,523,523,523,523,523,523,523,523,523,523,523,523,523,523,523,523,523,523,523,523,523,523,523,523,523,523,523,523,523,523,523,523,523,523,523,523,523,523,523,523,523,523,523,523,523,523,523,523,523,523,523,523,523,523,523,523,523,523,523,523,523,523,523,523,523,523,523,523,523,523,523,523,523,523,523,523,523,523,523,523,523,523,523,523,523,523,523,523,523,523,523,523,523,523,523,523,523,523,523,523,523,523,523,523,523,523,523,523,523,523,523,523,523,523,523,523,523,523,523,523,523,523,523,523,523,523,523,523,523,523,523,523,523,526,527,529,529,529,529,529,529,523,521,519,518,515,505,502,502,502,502,502,502,502,502,502,502,502,502,502,502,502,502,502,502,502,502,502,502,502,502,502,502,502,499,496,494,494,494,494,494,494,494,494,494,494,494,494,494,493,493,480,469,452,435,418,380,362,341,315,287,226,204,187,166,137,92,67,40,11,11,11,11,11,11,11,11,11,11,11,11,11,11,11,4],"timestamp_mouse":[8,24,44,64,84,105,125,144,164,185,205,224,245,265,284,305,325,345,364,385,404,425,445,466,485,504,524,545,564,585,604,624,644,664,685,705,724,745,764,784,804,824,844,865,884,905,924,944,964,984,1005,1024,1044,1064,1085,1105,1124,1145,1164,1184,1204,1224,1244,1264,1284,1304,1324,1345,1364,1385,1405,1425,1445,1465,1485,1504,1524,1544,1564,1585,1605,1626,1645,1664,1686,1705,1725,1744,1766,1784,1804,1824,1845,1866,1884,1904,1925,1944,1965,1984,2006,2024,2045,2065,2084,2104,2124,2145,2164,2184,2204,2224,2244,2265,2284,2304,2324,2345,2366,2385,2405,2425,2445,2464,2484,2504,2525,2545,2564,2584,2605,2624,2645,2664,2685,2705,2726,2744,2765,2784,2805,2824,2844,2865,2884,2904,2924,2944,2964,2984,3004,3025,3044,3065,3084,3105,3124,3145,3165,3184,3205,3224,3244,3264,3284,3305,3324,3344,3364,3384,3404,3425,3444,3464,3485,3505,3525,3544,3565,3585,3605,3624,3644,3664,3684,3705,3724,3745,3765,3784,3805,3824,3844,3864,3885,3905,3924,3944,3964,3984,4004,4024,4044,4064,4084,4104,4124,4144,4164,4184,4204,4224,4244,4264,4284,4305,4325,4345,4365,4385,4404,4424,4444,4464,4484,4504,4525,4544,4564,4585,4604,4624,4644,4665,4685,4704,4725,4745,4764,4784,4804,4824,4844,4864,4886,4904,4924,4945,4964,4985,5004,5024,5044,5064,5085,5105,5126,5144,5164,5184,5205,5226,5245,5264,5285,5305,5324,5344,5364,5384,5405,5424,5445,5464,5485,5504,5524,5544,5565,5584,5604,5625,5644,5665,5684,5704,5724,5744,5765,5784,5804,5824,5844,5865,5884,5904,5924,5944,5964,5985,6004,6026,6045,6064,6084,6104,6125,6144,6165,6186,6204,6225,6244,6265,6285,6304,6325,6345,6365,6386,6405,6425,6445,6465,6484,6504,6525,6544,6564,6585,6604,6624,6645,6665,6684,6704,6724,6744,6764,6784,6804,6824,6844,6865,6884,6904,6924,6945,6965,6985,7004,7025,7044,7064,7085,7104,7124,7144,7164,7184,7204,7224,7244,7265,7284,7304,7325,7344,7365,7385,7405,7424,7445,7464,7484,7504,7525,7544,7564,7584,7605,7624,7645,7664,7685,7704,7724,7744,7765,7784,7805,7824,7844,7864,7885,7904,7925,7945,7965,7985,8004,8024,8045,8064,8084,8105,8125,8144,8164,8184,8204,8224,8244,8264,8284,8304,8325,8346,8365,8385,8404,8426,8444,8465,8484,8504,8525,8544,8564,8584,8605,8624,8644,8664,8684,8704,8725,8744,8764,8784,8804,8824,8844,8865,8885,8904,8924,8945,8964,8985,9005,9024,9045,9066,9085,9105,9124,9145,9164,9184,9205,9224,9245,9264,9284,9305,9326,9344,9365,9386,9404,9425,9446,9464,9484,9505,9525,9545,9564,9584,9605,9624,9646,9664,9684,9705,9724,9744,9764,9785,9804,9826,9845,9865,9885,9904,9924,9945,9965,9985,10004,10025,10044,10065,10085,10104,10125,10144,10165,10184,10205,10224,10244,10266,10285,10305,10325,10345,10365,10384,10405,10425,10445,10465,10485,10506,10526,10545,10564,10585,10605,10625,10645,10664,10685,10704,10725,10745,10764,10784,10804,10825,10845,10865,10885,10904,10925,10944,10964,10984,11004,11026,11045,11065,11085,11104,11126,11144,11165,11184,11204,11225,11245,11265,11284,11304,11324,11345,11364,11384,11404,11424,11445,11465,11484,11504,11525,11545,11564,11585,11604,11625,11644,11664,11685,11705,11725,11744,11764,11785,11804,11824,11844,11864,11884,11904,11924,11944,11965,11985,12006,12024,12044,12065,12084,12105,12124,12144,12165,12185,12205,12225,12245,12264,12285,12304,12325,12346,12365,12384,12405,12424,12444,12464,12485,12504,12524,12545,12564,12584,12605,12625,12645,12665,12685,12705,12724,12745,12765,12784,12804,12825,12844,12864,12884,12904,12925,12945,12964,12984],"xSR":741.5,"ySR":469.95,"xT1":424.9,"yT1":0,"xT2":1058.1,"yT2":0,"toosoon":0,"cond_shown":"Congruent","ratio_trial":100,"L_num":11,"L_den":22,"R_num":6,"R_den":15,"correct_side":1,"subjID":"LUANACHAVESGONZALEZ31","gender":"1","school":"6","age":"11"},{"start_time":1551800624242,"click_time":1551800625873,"finger_time":1551800625534,"fix_duration":525.207083727551,"trial":2,"RT":1292,"MT":339,"sideResp":2,"stimulus":[],"xmouse":[798,798,798,798,798,798,798,798,798,798,798,798,798,798,798,798,798,798,798,798,798,798,798,798,798,798,798,798,798,798,798,798,798,798,798,798,798,798,798,798,798,798,798,798,798,798,798,798,798,798,798,800,801,802,802,802,803,804,806,807,808,809,810,820,840,859,882,921,962,1045,1077,1094,1100,1104,1104,1105,1105,1108,1111,1112,1112,1111],"ymouse":[499,499,499,499,499,499,499,499,499,499,499,499,499,499,499,499,499,499,499,499,499,499,499,499,499,499,499,499,499,499,499,499,499,499,499,499,499,499,499,499,499,499,499,499,499,499,499,499,499,499,500,500,500,500,500,500,500,500,499,499,497,496,492,476,453,432,405,359,313,235,207,192,183,176,175,173,169,160,143,129,115,97],"timestamp_mouse":[11,37,51,71,92,111,132,152,172,191,212,232,251,271,291,311,332,351,371,391,412,431,452,472,491,512,531,551,572,591,611,631,651,671,692,712,731,751,772,792,811,831,851,871,891,912,932,951,971,991,1011,1032,1051,1071,1091,1111,1131,1151,1172,1192,1212,1231,1253,1272,1292,1312,1332,1351,1371,1391,1411,1433,1451,1473,1491,1511,1532,1551,1572,1591,1612,1631],"xSR":741.5,"ySR":469.95,"xT1":424.9,"yT1":0,"xT2":1058.1,"yT2":0,"toosoon":0,"cond_shown":"Incongruent","ratio_trial":100,"L_num":3,"L_den":5,"R_num":8,"R_den":16,"correct_side":1,"subjID":"LUANACHAVESGONZALEZ31","gender":"1","school":"6","age":"11"},{"start_time":1551800629443,"click_time":1551800631293,"finger_time":1551800630914,"fix_duration":1026.8474784569048,"trial":3,"RT":1471,"MT":379,"sideResp":2,"stimulus":[],"xmouse":[797,797,797,797,797,797,797,797,797,797,797,797,797,797,797,797,797,797,797,797,797,797,797,797,797,797,797,797,797,797,797,797,797,797,797,797,797,797,797,797,797,797,797,797,797,797,797,797,797,797,797,797,797,797,797,797,797,797,797,797,797,797,797,797,797,797,797,797,797,797,802,814,830,852,880,896,913,932,952,980,989,994,996,996,996,996,999,1004,1013,1031,1041,1050,1063],"ymouse":[518,518,518,518,518,518,518,518,518,518,518,518,518,518,518,518,518,518,518,518,518,518,518,518,518,518,518,518,518,518,518,518,518,518,518,518,518,518,518,518,518,518,518,518,518,518,518,518,518,518,518,518,518,518,518,518,518,518,518,518,518,518,518,518,518,518,518,518,518,518,518,510,502,488,465,450,431,409,385,342,323,309,297,286,270,257,241,223,202,160,140,120,90],"timestamp_mouse":[12,31,50,71,91,111,130,150,171,192,211,230,250,270,291,310,330,351,370,392,412,430,450,470,492,510,530,551,571,591,610,630,650,671,691,710,730,750,771,791,810,830,851,871,891,910,931,951,971,990,1010,1031,1052,1070,1092,1110,1132,1151,1171,1190,1210,1230,1251,1271,1292,1310,1331,1351,1371,1392,1411,1431,1451,1471,1490,1511,1531,1551,1570,1590,1612,1632,1651,1671,1690,1710,1730,1751,1771,1791,1812,1831,1850],"xSR":741.5,"ySR":469.95,"xT1":424.9,"yT1":0,"xT2":1058.1,"yT2":0,"toosoon":0,"cond_shown":"Congruent","ratio_trial":200,"L_num":5,"L_den":10,"R_num":14,"R_den":20,"correct_side":2,"subjID":"LUANACHAVESGONZALEZ31","gender":"1","school":"6","age":"11"},{"start_time":1551800632685,"click_time":1551800634254,"finger_time":1551800633813,"fix_duration":250,"trial":4,"RT":1128,"MT":441,"sideResp":1,"stimulus":[],"xmouse":[801,801,801,801,801,801,801,801,801,801,801,801,801,801,801,801,801,801,801,801,801,801,801,801,801,801,801,801,801,801,801,801,801,801,801,801,801,801,801,801,801,801,801,801,801,801,801,801,801,801,801,801,801,798,789,778,764,741,732,723,711,703,693,688,679,668,654,629,616,595,582,571,558,554,551,546,539,531,517],"ymouse":[505,505,505,505,505,505,505,505,505,505,505,505,505,505,505,505,505,505,505,505,505,505,505,505,505,505,505,505,505,505,505,505,505,505,505,505,505,505,505,505,505,505,505,505,505,505,505,505,505,505,505,505,505,498,486,472,455,428,417,406,388,378,360,347,333,313,289,245,222,190,171,156,135,128,124,117,106,98,82],"timestamp_mouse":[9,30,65,69,88,110,129,149,169,190,208,228,250,268,288,309,330,349,369,389,408,428,448,468,489,509,528,550,569,589,609,628,650,669,689,708,728,748,769,789,808,830,850,869,889,909,929,949,969,990,1010,1029,1048,1069,1089,1110,1128,1149,1168,1190,1209,1229,1249,1268,1288,1310,1329,1350,1368,1389,1409,1429,1449,1468,1489,1509,1529,1549,1569],"xSR":741.5,"ySR":469.95,"xT1":424.9,"yT1":0,"xT2":1058.1,"yT2":0,"toosoon":0,"cond_shown":"Congruent","ratio_trial":300,"L_num":20,"L_den":25,"R_num":13,"R_den":26,"correct_side":1,"subjID":"LUANACHAVESGONZALEZ31","gender":"1","school":"6","age":"11"},{"start_time":1551800636617,"click_time":1551800638554,"finger_time":1551800638074,"fix_duration":1322.8904174757015,"trial":5,"RT":1457,"MT":480,"sideResp":1,"stimulus":[],"xmouse":[779,779,779,779,779,779,779,779,779,779,779,779,779,779,779,779,779,779,779,779,779,779,779,779,779,779,779,779,779,779,779,779,779,779,779,779,779,779,779,779,779,779,779,779,779,779,779,779,779,779,779,779,779,779,779,779,779,779,779,779,779,779,779,779,779,779,779,779,779,779,776,755,740,723,711,703,692,684,672,659,633,603,592,586,581,573,554,543,534,528,522,517,515,512,508,501,490],"ymouse":[516,516,516,516,516,516,516,516,516,516,516,516,516,516,516,516,516,516,516,516,516,516,516,516,516,516,516,516,516,516,516,516,516,516,516,516,516,516,516,516,516,516,516,516,516,516,516,516,516,516,516,516,516,516,516,516,516,516,516,516,516,516,516,516,516,516,516,516,516,516,516,498,485,471,459,447,422,409,390,372,341,299,280,267,254,239,206,191,176,166,153,142,137,131,125,114,99],"timestamp_mouse":[16,39,56,78,97,116,138,157,177,196,216,237,257,277,297,316,337,357,376,397,418,437,457,477,497,516,536,558,578,598,616,638,656,678,697,718,736,756,777,798,818,838,857,876,896,918,938,957,978,996,1016,1036,1057,1076,1097,1118,1137,1157,1177,1197,1217,1237,1257,1277,1297,1317,1337,1357,1377,1397,1416,1437,1457,1477,1498,1517,1537,1557,1578,1597,1617,1636,1658,1677,1697,1718,1736,1757,1778,1796,1816,1836,1857,1877,1898,1918,1937],"xSR":741.5,"ySR":469.95,"xT1":424.9,"yT1":0,"xT2":1058.1,"yT2":0,"toosoon":0,"cond_shown":"Incongruent","ratio_trial":100,"L_num":10,"L_den":25,"R_num":9,"R_den":18,"correct_side":2,"subjID":"LUANACHAVESGONZALEZ31","gender":"1","school":"6","age":"11"},{"start_time":1551800639842,"click_time":1551800642393,"finger_time":1551800642054,"fix_duration":287.918141370565,"trial":6,"RT":2212,"MT":339,"sideResp":1,"stimulus":[],"xmouse":[822,822,822,822,822,822,822,822,822,822,822,822,822,822,822,822,822,822,822,822,822,822,822,822,822,822,822,822,822,822,822,822,822,822,822,822,822,822,822,822,822,822,822,822,822,822,822,822,822,822,822,822,822,822,822,822,822,822,822,822,822,822,822,822,822,822,822,822,822,822,822,822,822,822,822,822,822,822,822,822,822,822,822,822,822,822,822,822,822,822,822,821,813,802,790,774,770,769,768,768,768,768,768,768,768,768,768,768,768,763,742,731,722,716,709,701,696,688,677,662,633,615,598,580,561,527,506,495],"ymouse":[539,539,539,539,539,539,539,539,539,539,539,539,539,539,539,539,539,539,539,539,539,539,539,539,539,539,539,539,539,539,539,539,539,539,539,539,539,539,539,539,539,539,539,539,539,539,539,539,539,539,539,539,539,539,539,539,539,539,539,539,539,539,539,539,539,539,539,539,539,539,539,539,539,539,539,539,539,539,539,539,539,539,539,539,539,539,539,539,539,539,539,539,534,527,518,502,496,492,488,488,488,488,488,488,488,488,488,488,487,477,446,432,417,407,397,382,374,360,341,315,275,251,226,201,177,132,106,93],"timestamp_mouse":[12,48,53,72,92,111,132,151,172,192,212,233,251,271,292,311,333,351,373,391,411,433,451,471,493,513,532,553,572,593,612,631,653,672,692,712,731,752,773,792,812,831,851,872,892,911,932,951,973,992,1012,1032,1052,1071,1092,1113,1131,1151,1172,1191,1212,1231,1252,1272,1292,1311,1332,1351,1373,1391,1411,1431,1452,1471,1492,1511,1533,1552,1571,1591,1613,1632,1652,1672,1691,1711,1733,1753,1771,1791,1812,1831,1852,1872,1892,1911,1932,1952,1971,1991,2011,2032,2052,2072,2092,2112,2131,2151,2172,2192,2212,2231,2252,2272,2293,2312,2331,2352,2372,2392,2412,2432,2452,2472,2491,2512,2532,2551],"xSR":741.5,"ySR":469.95,"xT1":424.9,"yT1":0,"xT2":1058.1,"yT2":0,"toosoon":0,"cond_shown":"Congruent","ratio_trial":100,"L_num":10,"L_den":25,"R_num":3,"R_den":10,"correct_side":1,"subjID":"LUANACHAVESGONZALEZ31","gender":"1","school":"6","age":"11"},{"start_time":1551800643983,"click_time":1551800644994,"finger_time":1551800644675,"fix_duration":427.03961024225845,"trial":7,"RT":692,"MT":319,"sideResp":1,"stimulus":[],"xmouse":[780,780,780,780,780,780,780,780,780,780,780,780,780,780,780,780,780,780,780,780,780,780,780,780,780,780,780,780,780,780,780,780,780,771,747,722,695,674,646,617,606,600,592,586,576,570,565,558,547,530,518],"ymouse":[518,518,518,518,518,518,518,518,518,518,518,518,518,518,518,518,518,518,518,518,518,518,518,518,518,518,518,518,518,518,518,517,513,499,449,404,357,320,268,218,196,182,167,152,130,120,114,107,97,88,81],"timestamp_mouse":[10,42,50,72,90,110,131,151,172,190,212,232,250,271,292,311,331,350,372,392,411,431,450,471,490,510,531,551,570,592,611,631,651,670,692,711,731,750,772,791,810,831,850,871,890,912,931,950,972,991,1011],"xSR":741.5,"ySR":469.95,"xT1":424.9,"yT1":0,"xT2":1058.1,"yT2":0,"toosoon":0,"cond_shown":"Congruent","ratio_trial":300,"L_num":24,"L_den":30,"R_num":2,"R_den":4,"correct_side":1,"subjID":"LUANACHAVESGONZALEZ31","gender":"1","school":"6","age":"11"},{"start_time":1551800646757,"click_time":1551800649274,"finger_time":1551800648853,"fix_duration":682.4591255749392,"trial":8,"RT":2096,"MT":421,"sideResp":2,"stimulus":[],"xmouse":[775,775,775,775,775,775,775,775,775,775,775,775,775,775,775,775,775,775,775,775,775,775,775,775,775,775,775,775,775,775,775,775,775,775,775,775,775,775,775,775,775,775,775,775,775,775,775,775,775,775,775,775,775,775,775,775,775,775,775,775,775,775,775,775,775,775,775,775,775,775,775,775,775,775,775,775,775,775,775,775,775,775,776,776,776,776,776,776,776,776,776,776,776,776,776,776,776,776,776,777,785,794,806,821,837,871,891,911,930,956,980,989,994,998,1002,1013,1019,1024,1032,1041,1050,1054,1056,1059,1064,1080],"ymouse":[493,493,493,493,493,493,493,493,493,493,493,493,493,493,493,493,493,493,493,493,493,493,493,493,493,493,493,493,493,493,493,493,493,493,493,493,493,493,493,493,493,493,493,493,493,493,493,493,493,493,493,493,493,493,493,493,493,493,493,493,493,493,493,493,493,493,493,493,493,493,493,493,493,493,493,493,493,493,493,493,491,491,490,490,490,490,490,490,490,490,490,490,490,490,490,490,490,490,490,489,485,480,476,472,465,447,428,411,390,356,305,284,269,254,240,213,200,189,173,150,129,123,118,114,107,84],"timestamp_mouse":[16,37,66,77,98,117,137,157,177,197,218,236,258,276,298,318,337,357,376,398,417,437,457,478,497,516,537,556,576,597,616,637,657,677,698,717,738,757,777,796,816,836,858,877,898,916,938,958,976,997,1016,1038,1057,1077,1096,1116,1137,1156,1176,1198,1216,1236,1257,1276,1296,1316,1336,1356,1377,1397,1418,1437,1456,1477,1498,1516,1536,1557,1576,1598,1617,1637,1657,1678,1696,1716,1737,1758,1776,1796,1817,1837,1857,1877,1896,1916,1937,1957,1977,1997,2017,2037,2056,2078,2096,2117,2137,2158,2177,2196,2218,2237,2257,2277,2297,2316,2337,2358,2377,2396,2417,2438,2456,2477,2497,2517],"xSR":741.5,"ySR":469.95,"xT1":424.9,"yT1":0,"xT2":1058.1,"yT2":0,"toosoon":0,"cond_shown":"Congruent","ratio_trial":200,"L_num":9,"L_den":30,"R_num":13,"R_den":26,"correct_side":2,"subjID":"LUANACHAVESGONZALEZ31","gender":"1","school":"6","age":"11"},{"start_time":1551800651101,"click_time":1551800652373,"finger_time":1551800652074,"fix_duration":565.1182585282558,"trial":9,"RT":973,"MT":299,"sideResp":1,"stimulus":[],"xmouse":[813,813,813,813,813,813,813,813,813,813,813,813,813,813,813,813,813,813,813,813,813,813,813,813,813,813,813,813,813,813,813,813,813,813,813,813,813,813,813,813,813,813,813,813,813,810,806,796,768,750,743,733,718,676,661,646,630,614,581,563,551,542,532,520],"ymouse":[517,517,517,517,517,517,517,517,517,517,517,517,517,517,517,517,517,517,517,517,517,517,517,517,517,517,517,517,517,517,517,517,517,517,517,517,517,517,517,517,517,517,517,517,517,510,505,492,453,411,384,350,306,211,174,141,112,90,51,36,30,26,22,19],"timestamp_mouse":[13,32,54,73,92,113,133,152,173,193,213,232,253,272,294,312,332,353,372,393,413,433,452,474,494,514,532,552,573,592,613,633,653,673,693,712,732,753,774,793,814,833,852,873,892,912,933,953,973,992,1013,1034,1054,1074,1092,1112,1133,1153,1174,1192,1212,1233,1254,1272],"xSR":741.5,"ySR":469.95,"xT1":424.9,"yT1":0,"xT2":1058.1,"yT2":0,"toosoon":0,"cond_shown":"Incongruent","ratio_trial":300,"L_num":4,"L_den":20,"R_num":2,"R_den":4,"correct_side":2,"subjID":"LUANACHAVESGONZALEZ31","gender":"1","school":"6","age":"11"},{"start_time":1551800654147,"click_time":1551800656994,"finger_time":1551800656473,"fix_duration":250,"trial":10,"RT":2326,"MT":521,"sideResp":2,"stimulus":[],"xmouse":[800,800,800,800,800,800,800,800,800,800,800,800,800,800,800,800,800,800,800,800,800,800,800,800,800,800,800,800,800,800,800,800,800,800,800,800,800,800,800,800,800,800,800,800,800,800,800,800,800,800,800,800,800,800,800,800,800,800,800,800,800,800,800,800,800,800,800,800,800,800,800,800,800,800,800,800,800,800,800,800,800,800,800,800,800,800,800,800,800,800,800,800,800,800,800,800,800,800,800,800,800,800,800,800,800,800,800,800,800,800,800,800,800,811,825,839,859,882,892,903,918,930,944,949,952,954,955,959,964,969,975,981,996,1006,1015,1024,1034,1045,1050,1052,1054,1056,1059],"ymouse":[531,531,531,531,531,531,531,531,531,531,531,531,531,531,531,531,531,531,531,531,531,531,531,531,531,531,531,531,531,531,531,531,531,531,531,531,531,531,531,531,531,531,531,531,531,531,531,531,531,531,531,531,531,531,531,531,531,531,531,531,531,531,531,531,531,531,531,531,531,531,531,531,531,531,531,531,531,531,531,531,531,531,531,531,531,531,531,531,531,531,531,531,531,531,531,531,531,531,531,531,531,531,531,531,531,531,531,531,531,531,531,531,531,521,513,504,489,468,452,430,398,377,353,343,338,334,329,315,305,294,279,263,227,204,183,163,141,119,112,108,102,98,91],"timestamp_mouse":[8,37,47,67,87,107,127,147,167,186,207,226,247,268,286,308,328,347,367,386,406,428,446,468,486,506,527,546,568,588,606,626,648,668,686,707,726,748,767,786,807,826,846,866,887,907,928,946,966,987,1007,1026,1048,1067,1088,1107,1128,1146,1167,1187,1206,1227,1248,1267,1286,1307,1328,1346,1366,1387,1408,1427,1446,1467,1488,1506,1527,1548,1567,1587,1607,1626,1648,1667,1687,1708,1727,1746,1767,1788,1806,1826,1847,1868,1887,1908,1927,1947,1966,1987,2007,2026,2046,2066,2086,2108,2128,2146,2167,2187,2208,2226,2247,2268,2287,2307,2326,2347,2366,2386,2407,2428,2446,2466,2487,2507,2528,2548,2566,2587,2606,2627,2646,2666,2686,2706,2726,2746,2766,2787,2806,2828,2847],"xSR":741.5,"ySR":469.95,"xT1":424.9,"yT1":0,"xT2":1058.1,"yT2":0,"toosoon":0,"cond_shown":"Incongruent","ratio_trial":200,"L_num":7,"L_den":10,"R_num":12,"R_den":24,"correct_side":1,"subjID":"LUANACHAVESGONZALEZ31","gender":"1","school":"6","age":"11"},{"start_time":1551800658888,"click_time":1551800660234,"finger_time":1551800659814,"fix_duration":334.4062467607275,"trial":11,"RT":926,"MT":420,"sideResp":1,"stimulus":[],"xmouse":[756,756,756,756,756,756,756,756,756,756,756,756,756,756,756,756,756,756,756,756,756,756,756,756,756,756,756,756,756,756,756,756,756,756,756,756,756,756,756,756,756,756,756,756,754,746,734,716,704,693,670,663,654,646,636,616,604,596,592,587,575,561,544,521,502,475,468,462],"ymouse":[534,534,534,534,534,534,534,534,534,534,534,534,534,534,534,534,534,534,534,534,534,534,534,534,534,534,534,534,534,534,534,534,534,534,534,534,534,534,534,534,534,534,534,534,535,532,518,493,476,459,418,405,391,381,368,343,325,313,303,293,264,239,210,179,154,114,100,85],"timestamp_mouse":[10,37,46,67,85,107,125,147,166,186,205,226,247,267,287,305,327,345,366,386,406,426,446,466,486,507,525,546,567,586,605,627,645,667,685,705,727,745,766,786,806,826,847,866,886,906,926,945,966,987,1008,1025,1045,1067,1086,1107,1125,1145,1166,1186,1205,1225,1246,1267,1286,1307,1325,1346],"xSR":741.5,"ySR":469.95,"xT1":424.9,"yT1":0,"xT2":1058.1,"yT2":0,"toosoon":0,"cond_shown":"Congruent","ratio_trial":300,"L_num":8,"L_den":16,"R_num":1,"R_den":5,"correct_side":1,"subjID":"LUANACHAVESGONZALEZ31","gender":"1","school":"6","age":"11"},{"start_time":1551800661366,"click_time":1551800663314,"finger_time":1551800662935,"fix_duration":250,"trial":12,"RT":1569,"MT":379,"sideResp":2,"stimulus":[],"xmouse":[813,813,813,813,813,813,813,813,813,813,813,813,813,813,813,813,813,813,813,813,813,813,813,813,813,813,813,813,813,813,813,813,813,813,813,813,813,813,813,813,813,813,813,813,813,813,813,813,813,813,813,813,813,813,813,813,813,813,813,813,813,813,813,813,813,813,813,813,813,813,813,813,813,813,813,813,817,833,847,862,878,883,912,925,937,953,971,1005,1020,1028,1035,1038,1051,1058,1065,1071,1077,1086],"ymouse":[520,520,520,520,520,520,520,520,520,520,520,520,520,520,520,520,520,520,520,520,520,520,520,520,520,520,520,520,520,520,520,520,520,520,520,520,520,520,520,520,520,520,520,520,520,520,520,520,520,520,520,520,520,520,520,520,520,520,520,520,520,520,520,520,520,520,520,520,520,520,520,520,520,520,520,520,519,502,490,475,456,449,417,404,386,355,328,270,242,221,207,193,156,144,132,121,112,92],"timestamp_mouse":[9,41,47,69,88,108,128,148,168,188,207,228,248,267,288,308,327,348,369,387,407,427,447,469,488,508,528,548,568,588,608,629,648,667,688,707,727,748,768,789,808,829,847,867,887,907,929,947,968,989,1007,1028,1048,1068,1088,1107,1127,1147,1168,1189,1209,1229,1248,1268,1288,1307,1329,1348,1367,1389,1408,1428,1448,1467,1487,1508,1527,1548,1569,1588,1607,1628,1647,1667,1688,1708,1728,1748,1769,1788,1807,1827,1847,1867,1887,1908,1928,1948],"xSR":741.5,"ySR":469.95,"xT1":424.9,"yT1":0,"xT2":1058.1,"yT2":0,"toosoon":0,"cond_shown":"Incongruent","ratio_trial":300,"L_num":1,"L_den":2,"R_num":3,"R_den":15,"correct_side":1,"subjID":"LUANACHAVESGONZALEZ31","gender":"1","school":"6","age":"11"},{"start_time":1551800664764,"click_time":1551800708235,"finger_time":1551800707415,"fix_duration":250,"trial":13,"RT":42651,"MT":820,"sideResp":2,"stimulus":[],"xmouse":[790,790,790,790,790,790,790,790,790,790,790,790,790,790,790,790,790,790,790,790,790,790,790,790,790,790,790,790,790,790,790,790,790,790,790,790,790,790,790,790,790,790,790,790,790,790,790,790,790,790,790,790,790,790,790,790,790,790,790,790,790,790,790,790,790,790,790,790,790,790,790,790,790,790,790,790,790,790,790,790,790,790,790,790,790,790,790,790,790,790,790,790,790,790,790,790,790,790,790,790,790,790,790,790,790,790,790,790,790,790,790,790,790,790,790,790,790,790,790,790,790,790,790,790,790,790,790,790,790,790,790,790,790,790,790,790,790,790,790,790,790,790,790,790,790,790,790,790,790,790,790,790,790,790,790,790,790,790,790,790,790,790,790,790,790,790,790,790,790,790,790,790,790,790,790,790,790,790,790,790,790,790,790,790,790,790,790,790,790,790,790,790,790,790,790,790,790,790,790,790,790,790,790,790,790,790,790,790,790,790,790,790,790,790,790,790,790,790,790,790,790,790,790,790,790,790,790,790,790,790,790,790,790,790,790,790,790,790,790,790,790,790,790,790,790,790,790,790,790,790,790,790,790,790,790,790,790,790,790,790,790,790,790,790,790,790,790,790,790,790,790,790,790,790,790,790,790,790,790,790,790,790,790,790,790,790,790,790,790,790,790,790,790,790,790,790,790,790,790,790,790,790,790,790,790,790,790,790,790,790,790,790,790,790,790,790,790,790,790,790,790,790,790,790,790,790,790,790,790,790,790,790,790,790,790,790,790,790,790,790,790,790,790,790,790,790,790,790,790,790,790,790,790,790,790,790,790,790,790,790,790,790,790,790,790,790,790,790,790,790,790,790,790,790,790,790,790,790,790,790,790,790,790,790,790,790,790,790,790,790,790,790,790,790,790,790,790,790,790,790,790,790,790,790,790,790,790,790,790,790,790,790,790,790,790,790,790,790,790,790,790,790,790,790,790,790,790,790,790,790,790,790,790,790,790,790,790,790,790,790,790,790,790,790,790,790,790,790,790,790,790,790,790,790,790,790,790,790,790,790,790,790,790,790,790,790,790,790,790,790,790,790,790,790,790,790,790,790,790,790,790,790,790,790,790,790,790,790,790,790,790,790,790,790,790,790,790,790,790,790,790,790,790,790,790,790,790,790,790,790,790,790,790,790,790,790,790,790,790,790,790,790,790,790,790,790,790,790,790,790,790,790,790,790,790,790,790,790,790,790,790,790,790,790,790,790,790,790,790,790,790,790,790,790,790,790,790,790,790,790,790,790,790,790,790,790,790,790,790,790,790,790,790,790,790,790,790,790,790,790,790,790,790,790,790,790,790,790,790,790,790,790,790,790,790,790,790,790,790,790,790,790,790,790,790,790,790,790,790,790,790,790,790,790,790,790,790,790,790,790,790,790,790,790,790,790,790,790,790,790,790,790,790,790,790,790,790,790,790,790,790,790,790,790,790,790,790,790,790,790,790,790,790,790,790,790,790,790,790,790,790,790,790,790,790,790,790,790,790,790,790,790,790,790,790,790,790,790,790,790,790,790,790,790,790,790,790,790,790,790,790,790,790,790,790,790,790,790,790,790,790,790,790,790,790,790,790,790,790,790,790,790,790,790,790,790,790,790,790,790,790,790,790,790,790,790,790,790,790,790,790,790,790,790,790,790,790,790,790,790,790,790,790,790,790,790,790,790,790,790,790,790,790,790,790,790,790,790,790,790,790,790,790,790,790,790,790,790,790,790,790,790,790,790,790,790,790,790,790,790,790,790,790,790,790,790,790,790,790,790,790,790,790,790,790,790,790,790,790,790,790,790,790,790,790,790,790,790,790,790,790,790,790,790,790,790,790,790,790,790,790,790,790,790,790,790,790,790,790,790,790,790,790,790,790,790,790,790,790,790,790,790,790,790,790,790,790,790,790,790,790,790,790,790,790,790,790,790,790,790,790,790,790,790,790,790,790,790,790,790,790,790,790,790,790,790,790,790,790,790,790,790,790,790,790,790,790,790,790,790,790,790,790,790,790,790,790,790,790,790,790,790,790,790,790,790,790,790,790,790,790,790,790,790,790,790,790,790,790,790,790,790,790,790,790,790,790,790,790,790,790,790,790,790,790,790,790,790,790,790,790,790,790,790,790,790,790,790,790,790,790,790,790,790,790,790,790,790,790,790,790,790,790,790,790,790,790,790,790,790,790,790,790,790,790,790,790,790,790,790,790,790,790,790,790,790,790,790,790,790,790,790,790,790,790,790,790,790,790,790,790,790,790,790,790,790,790,790,790,790,790,790,790,790,790,790,790,790,790,790,790,790,790,790,790,790,790,790,790,790,790,790,790,790,790,790,790,790,790,790,790,790,790,790,790,790,790,790,790,790,790,790,790,790,790,790,790,790,790,790,790,790,790,790,790,790,790,790,790,790,790,790,790,790,790,790,790,790,790,790,790,790,790,790,790,790,790,790,790,790,790,790,790,790,790,790,790,790,790,790,790,790,790,790,790,790,790,790,790,790,790,790,790,790,790,790,790,790,790,790,790,790,790,790,790,790,790,790,790,790,790,790,790,790,790,790,790,790,790,790,790,790,790,790,790,790,790,790,790,790,790,790,790,790,790,790,790,790,790,790,790,790,790,790,790,790,790,790,790,790,790,790,790,790,790,790,790,790,790,790,790,790,790,790,790,790,790,790,790,790,790,790,790,790,790,790,790,790,790,790,790,790,790,790,790,790,790,790,790,790,790,790,790,790,790,790,790,790,790,790,790,790,790,790,790,790,790,790,790,790,790,790,790,790,790,790,790,790,790,790,790,790,790,790,790,790,790,790,790,790,790,790,790,790,790,790,790,790,790,790,790,790,790,790,790,790,790,790,790,790,790,790,790,790,790,790,790,790,790,790,790,790,790,790,790,790,790,790,790,790,790,790,790,790,790,790,790,790,790,790,790,790,790,790,790,790,790,790,790,790,790,790,790,790,790,790,790,790,790,790,790,790,790,790,790,790,790,790,790,790,790,790,790,790,790,790,790,790,790,790,790,790,790,790,790,790,790,790,790,790,790,790,790,790,790,790,790,790,790,790,790,790,790,790,790,790,790,790,790,790,790,790,790,790,790,790,790,790,790,790,790,790,790,790,790,790,790,790,790,790,790,790,790,790,790,790,790,790,790,790,790,790,790,790,790,790,790,790,790,790,790,790,790,790,790,790,790,790,790,790,790,790,790,790,790,790,790,790,790,790,790,790,790,790,790,790,790,790,790,790,790,790,790,790,790,790,790,790,790,790,790,790,790,790,790,790,790,790,790,790,790,790,790,790,790,790,790,790,790,790,790,790,790,790,790,790,790,790,790,790,790,790,790,790,790,790,790,790,790,790,790,790,790,790,790,790,790,790,790,790,790,790,790,790,790,790,790,790,790,790,790,790,790,790,790,790,790,790,790,790,790,790,790,790,790,790,790,790,790,790,790,790,790,790,790,790,790,790,790,790,790,790,790,790,790,790,790,790,790,790,790,790,790,790,790,790,790,790,790,790,790,790,790,790,790,790,790,790,790,790,790,790,790,790,790,790,790,790,790,790,790,790,790,790,790,790,790,790,790,790,790,790,790,790,790,790,790,790,790,790,790,790,790,790,790,790,790,790,790,790,790,790,790,790,790,790,790,790,790,790,790,790,790,790,790,790,790,790,790,790,790,790,790,790,790,790,790,790,790,790,790,790,790,790,790,790,790,790,790,790,790,790,790,790,790,790,790,790,790,790,790,790,790,790,790,790,790,790,790,790,790,790,790,790,790,790,790,790,790,790,790,790,790,790,790,790,790,790,790,790,790,790,790,790,790,790,790,790,790,790,790,790,790,790,790,790,790,790,790,790,790,790,790,790,790,790,790,790,790,790,790,790,790,790,790,790,790,790,790,790,790,790,790,790,790,790,790,790,790,790,790,790,790,790,790,790,790,790,790,790,790,790,790,790,790,790,790,790,790,790,790,790,790,790,790,790,790,790,790,790,790,790,790,790,790,790,790,790,790,790,790,790,790,790,790,790,790,790,790,790,790,790,790,790,790,790,790,790,790,790,790,790,790,790,790,790,790,790,790,790,790,790,790,790,790,790,790,790,790,790,790,790,790,790,790,790,790,790,790,790,790,790,790,790,790,790,790,790,790,790,790,790,790,790,790,790,790,790,790,790,790,790,790,790,790,790,790,790,790,790,790,790,790,790,790,790,790,790,790,790,790,790,790,790,790,790,790,790,790,790,790,790,790,790,790,790,790,790,790,790,790,790,790,790,790,790,790,790,790,790,790,790,790,790,790,790,790,790,790,790,790,790,790,790,790,790,790,790,790,790,790,790,790,790,790,790,790,790,790,790,790,790,790,790,790,790,790,790,790,790,790,790,790,790,790,790,790,790,790,790,790,790,790,790,790,790,790,790,790,790,790,790,790,790,790,790,790,790,790,790,790,790,790,790,790,790,790,790,790,790,790,790,790,790,790,790,790,790,790,790,790,790,790,790,790,790,790,790,790,790,790,790,790,790,790,790,790,790,790,790,790,790,790,790,790,790,790,790,790,790,790,790,790,790,790,790,790,790,790,790,790,790,790,790,790,790,790,790,790,790,790,790,790,790,790,790,790,790,790,790,790,790,790,790,790,789,789,789,789,789,789,789,789,789,789,789,789,789,789,789,789,789,789,789,789,789,789,789,789,789,789,789,789,789,789,789,789,789,789,789,789,789,789,789,789,789,789,789,789,789,789,790,790,791,792,793,793,793,793,793,793,793,793,793,793,793,793,793,793,793,793,793,793,793,793,793,793,793,793,795,796,799,799,800,800,800,800,800,800,800,800,800,800,800,800,801,804,812,819,827,838,852,875,889,903,919,932,954,963,973,985,992,999,1005,1015,1027,1040,1070,1083,1092,1096,1101,1113,1119],"ymouse":[483,483,483,483,483,483,483,483,483,483,483,483,483,483,483,483,483,483,483,483,483,483,483,483,483,483,483,483,483,483,483,483,483,483,483,483,483,483,483,483,483,483,483,483,483,483,483,483,483,483,483,483,483,483,483,483,483,483,483,483,483,483,483,483,483,483,483,483,483,483,483,483,483,483,483,483,483,483,483,483,483,483,483,483,483,483,483,483,483,483,483,483,483,483,483,483,483,483,483,483,483,483,483,483,483,483,483,483,483,483,483,483,483,483,483,483,483,483,483,483,483,483,483,483,483,483,483,483,483,483,483,483,483,483,483,483,483,483,483,483,483,483,483,483,483,483,483,483,483,483,483,483,483,483,483,483,483,483,483,483,483,483,483,483,483,483,483,483,483,483,483,483,483,483,483,483,483,483,483,483,483,483,483,483,483,483,483,483,483,483,483,483,483,483,483,483,483,483,483,483,483,483,483,483,483,483,483,483,483,483,483,483,483,483,483,483,483,483,483,483,483,483,483,483,483,483,483,483,483,483,483,483,483,483,483,483,483,483,483,483,483,483,483,483,483,483,483,483,483,483,483,483,483,483,483,483,483,483,483,483,483,483,483,483,483,483,483,483,483,483,483,483,483,483,483,483,483,483,483,483,483,483,483,483,483,483,483,483,483,483,483,483,483,483,483,483,483,483,483,483,483,483,483,483,483,483,483,483,483,483,483,483,483,483,483,483,483,483,483,483,483,483,483,483,483,483,483,483,483,483,483,483,483,483,483,483,483,483,483,483,483,483,483,483,483,483,483,483,483,483,483,483,483,483,483,483,483,483,483,483,483,483,483,483,483,483,483,483,483,483,483,483,483,483,483,483,483,483,483,483,483,483,483,483,483,483,483,483,483,483,483,483,483,483,483,483,483,483,483,483,483,483,483,483,483,483,483,483,483,483,483,483,483,483,483,483,483,483,483,483,483,483,483,483,483,483,483,483,483,483,483,483,483,483,483,483,483,483,483,483,483,483,483,483,483,483,483,483,483,483,483,483,483,483,483,483,483,483,483,483,483,483,483,483,483,483,483,483,483,483,483,483,483,483,483,483,483,483,483,483,483,483,483,483,483,483,483,483,483,483,483,483,483,483,483,483,483,483,483,483,483,483,483,483,483,483,483,483,483,483,483,483,483,483,483,483,483,483,483,483,483,483,483,483,483,483,483,483,483,483,483,483,483,483,483,483,483,483,483,483,483,483,483,483,483,483,483,483,483,483,483,483,483,483,483,483,483,483,483,483,483,483,483,483,483,483,483,483,483,483,483,483,483,483,483,483,483,483,483,483,483,483,483,483,483,483,483,483,483,483,483,483,483,483,483,483,483,483,483,483,483,483,483,483,483,483,483,483,483,483,483,483,483,483,483,483,483,483,483,483,483,483,483,483,483,483,483,483,483,483,483,483,483,483,483,483,483,483,483,483,483,483,483,483,483,483,483,483,483,483,483,483,483,483,483,483,483,483,483,483,483,483,483,483,483,483,483,483,483,483,483,483,483,483,483,483,483,483,483,483,483,483,483,483,483,483,483,483,483,483,483,483,483,483,483,483,483,483,483,483,483,483,483,483,483,483,483,483,483,483,483,483,483,483,483,483,483,483,483,483,483,483,483,483,483,483,483,483,483,483,483,483,483,483,483,483,483,483,483,483,483,483,483,483,483,483,483,483,483,483,483,483,483,483,483,483,483,483,483,483,483,483,483,483,483,483,483,483,483,483,483,483,483,483,483,483,483,483,483,483,483,483,483,483,483,483,483,483,483,483,483,483,483,483,483,483,483,483,483,483,483,483,483,483,483,483,483,483,483,483,483,483,483,483,483,483,483,483,483,483,483,483,483,483,483,483,483,483,483,483,483,483,483,483,483,483,483,483,483,483,483,483,483,483,483,483,483,483,483,483,483,483,483,483,483,483,483,483,483,483,483,483,483,483,483,483,483,483,483,483,483,483,483,483,483,483,483,483,483,483,483,483,483,483,483,483,483,483,483,483,483,483,483,483,483,483,483,483,483,483,483,483,483,483,483,483,483,483,483,483,483,483,483,483,483,483,483,483,483,483,483,483,483,483,483,483,483,483,483,483,483,483,483,483,483,483,483,483,483,483,483,483,483,483,483,483,483,483,483,483,483,483,483,483,483,483,483,483,483,483,483,483,483,483,483,483,483,483,483,483,483,483,483,483,483,483,483,483,483,483,483,483,483,483,483,483,483,483,483,483,483,483,483,483,483,483,483,483,483,483,483,483,483,483,483,483,483,483,483,483,483,483,483,483,483,483,483,483,483,483,483,483,483,483,483,483,483,483,483,483,483,483,483,483,483,483,483,483,483,483,483,483,483,483,483,483,483,483,483,483,483,483,483,483,483,483,483,483,483,483,483,483,483,483,483,483,483,483,483,483,483,483,483,483,483,483,483,483,483,483,483,483,483,483,483,483,483,483,483,483,483,483,483,483,483,483,483,483,483,483,483,483,483,483,483,483,483,483,483,483,483,483,483,483,483,483,483,483,483,483,483,483,483,483,483,483,483,483,483,483,483,483,483,483,483,483,483,483,483,483,483,483,483,483,483,483,483,483,483,483,483,483,483,483,483,483,483,483,483,483,483,483,483,483,483,483,483,483,483,483,483,483,483,483,483,483,483,483,483,483,483,483,483,483,483,483,483,483,483,483,483,483,483,483,483,483,483,483,483,483,483,483,483,483,483,483,483,483,483,483,483,483,483,483,483,483,483,483,483,483,483,483,483,483,483,483,483,483,483,483,483,483,483,483,483,483,483,483,483,483,483,483,483,483,483,483,483,483,483,483,483,483,483,483,483,483,483,483,483,483,483,483,483,483,483,483,483,483,483,483,483,483,483,483,483,483,483,483,483,483,483,483,483,483,483,483,483,483,483,483,483,483,483,483,483,483,483,483,483,483,483,483,483,483,483,483,483,483,483,483,483,483,483,483,483,483,483,483,483,483,483,483,483,483,483,483,483,483,483,483,483,483,483,483,483,483,483,483,483,483,483,483,483,483,483,483,483,483,483,483,483,483,483,483,483,483,483,483,483,483,483,483,483,483,483,483,483,483,483,483,483,483,483,483,483,483,483,483,483,483,483,483,483,483,483,483,483,483,483,483,483,483,483,483,483,483,483,483,483,483,483,483,483,483,483,483,483,483,483,483,483,483,483,483,483,483,483,483,483,483,483,483,483,483,483,483,483,483,483,483,483,483,483,483,483,483,483,483,483,483,483,483,483,483,483,483,483,483,483,483,483,483,483,483,483,483,483,483,483,483,483,483,483,483,483,483,483,483,483,483,483,483,483,483,483,483,483,483,483,483,483,483,483,483,483,483,483,483,483,483,483,483,483,483,483,483,483,483,483,483,483,483,483,483,483,483,483,483,483,483,483,483,483,483,483,483,483,483,483,483,483,483,483,483,483,483,483,483,483,483,483,483,483,483,483,483,483,483,483,483,483,483,483,483,483,483,483,483,483,483,483,483,483,483,483,483,483,483,483,483,483,483,483,483,483,483,483,483,483,483,483,483,483,483,483,483,483,483,483,483,483,483,483,483,483,483,483,483,483,483,483,483,483,483,483,483,483,483,483,483,483,483,483,483,483,483,483,483,483,483,483,483,483,483,483,483,483,483,483,483,483,483,483,483,483,483,483,483,483,483,483,483,483,483,483,483,483,483,483,483,483,483,483,483,483,483,483,483,483,483,483,483,483,483,483,483,483,483,483,483,483,483,483,483,483,483,483,483,483,483,483,483,483,483,483,483,483,483,483,483,483,483,483,483,483,483,483,483,483,483,483,483,483,483,483,483,483,483,483,483,483,483,483,483,483,483,483,483,483,483,483,483,483,483,483,483,483,483,483,483,483,483,483,483,483,483,483,483,483,483,483,483,483,483,483,483,483,483,483,483,483,483,483,483,483,483,483,483,483,483,483,483,483,483,483,483,483,483,483,483,483,483,483,483,483,483,483,483,483,483,483,483,483,483,483,483,483,483,483,483,483,483,483,483,483,483,483,483,483,483,483,483,483,483,483,483,483,483,483,483,483,483,483,483,483,483,483,483,483,483,483,483,483,483,483,483,483,483,483,483,483,483,483,483,483,483,483,483,483,483,483,483,483,483,483,483,483,483,483,483,483,483,483,483,483,483,483,483,483,483,483,483,483,483,483,483,483,483,483,483,483,483,483,483,483,483,483,483,483,483,483,483,483,483,483,483,483,483,483,483,483,483,483,483,483,483,483,483,483,483,483,483,483,483,483,483,483,483,483,483,483,483,483,483,483,483,483,483,483,483,483,483,483,483,483,483,483,483,483,483,483,483,483,483,483,483,483,483,483,483,483,483,483,483,483,483,483,483,483,483,483,483,483,483,483,483,483,483,483,483,483,483,483,483,483,483,483,483,483,483,483,483,483,483,483,483,483,483,483,483,483,483,483,483,483,483,483,483,483,483,483,483,483,483,483,483,483,483,483,483,483,483,483,483,483,483,483,483,483,483,483,483,483,483,483,483,483,483,483,483,483,483,483,483,483,483,483,483,483,483,483,483,483,483,483,483,483,483,483,483,483,483,483,483,483,483,483,483,483,483,483,483,483,483,483,483,483,483,483,483,483,483,483,483,483,485,492,494,497,498,498,498,498,498,498,498,498,498,498,498,498,498,498,498,498,498,498,498,498,498,498,498,498,498,498,498,498,498,498,498,498,498,498,498,498,498,498,498,498,497,496,495,493,492,491,489,488,488,488,488,488,488,488,488,488,488,488,488,488,488,488,488,488,488,488,488,488,488,488,485,483,473,469,466,464,463,463,462,462,462,462,462,462,462,459,456,451,442,435,428,419,405,373,354,335,318,303,276,263,252,238,228,219,210,199,186,174,148,138,129,125,117,100,92],"timestamp_mouse":[12,37,49,71,89,111,131,150,171,189,211,230,250,271,289,310,331,349,369,391,410,429,451,470,489,511,529,551,571,590,611,630,649,671,689,710,729,750,769,791,811,830,849,870,891,909,930,950,969,991,1011,1031,1051,1069,1089,1111,1130,1150,1170,1190,1209,1229,1250,1269,1289,1311,1329,1351,1371,1389,1410,1430,1449,1469,1490,1509,1529,1550,1571,1591,1611,1629,1650,1670,1691,1710,1730,1750,1769,1791,1810,1830,1849,1870,1890,1909,1930,1949,1970,1991,2011,2029,2050,2069,2090,2111,2131,2149,2169,2190,2209,2231,2251,2269,2290,2311,2330,2350,2370,2390,2410,2429,2450,2470,2489,2511,2530,2550,2569,2591,2609,2630,2649,2670,2689,2709,2730,2750,2770,2790,2810,2829,2850,2870,2890,2911,2929,2950,2971,2991,3011,3030,3050,3071,3091,3110,3131,3150,3170,3191,3211,3231,3250,3269,3291,3311,3329,3350,3369,3390,3410,3430,3449,3469,3491,3511,3530,3549,3571,3590,3609,3630,3650,3671,3689,3710,3731,3750,3770,3789,3810,3830,3850,3870,3890,3909,3931,3949,3971,3990,4009,4030,4050,4069,4091,4110,4130,4151,4170,4190,4210,4231,4251,4269,4291,4310,4331,4349,4369,4390,4409,4430,4451,4470,4490,4510,4530,4551,4571,4589,4611,4629,4650,4671,4689,4709,4730,4750,4771,4791,4810,4830,4850,4871,4889,4910,4931,4951,4970,4990,5011,5031,5049,5070,5091,5110,5130,5150,5171,5189,5211,5230,5250,5270,5291,5310,5330,5350,5369,5390,5411,5430,5450,5471,5489,5511,5530,5550,5570,5590,5610,5631,5649,5671,5689,5711,5730,5750,5770,5790,5810,5831,5850,5871,5889,5909,5931,5950,5969,5989,6010,6029,6050,6071,6089,6110,6130,6149,6170,6189,6211,6230,6249,6270,6289,6310,6329,6350,6369,6389,6410,6431,6451,6470,6490,6509,6531,6549,6570,6589,6610,6630,6649,6670,6690,6709,6729,6750,6770,6789,6810,6830,6851,6870,6890,6910,6930,6949,6969,6990,7011,7029,7051,7069,7091,7110,7130,7150,7169,7190,7211,7231,7250,7270,7289,7311,7329,7350,7369,7389,7409,7430,7461,7470,7489,7511,7529,7549,7571,7589,7609,7631,7651,7669,7690,7711,7730,7749,7770,7789,7811,7831,7850,7869,7891,7910,7930,7951,7970,7990,8010,8030,8051,8069,8090,8109,8134,8150,8169,8190,8209,8231,8250,8269,8289,8311,8330,8350,8371,8390,8411,8430,8450,8469,8490,8509,8530,8549,8569,8590,8611,8630,8650,8670,8689,8710,8731,8750,8769,8790,8810,8830,8849,8870,8889,8909,8930,8950,8969,8991,9010,9029,9049,9070,9089,9109,9131,9149,9171,9189,9210,9230,9250,9270,9289,9310,9331,9351,9370,9389,9409,9430,9451,9469,9490,9511,9531,9549,9571,9589,9610,9630,9649,9671,9691,9709,9731,9750,9771,9789,9811,9829,9850,9870,9889,9911,9929,9951,9970,9990,10010,10030,10051,10069,10089,10110,10131,10151,10169,10190,10209,10230,10251,10269,10290,10309,10331,10349,10370,10390,10409,10430,10450,10470,10489,10510,10530,10551,10569,10591,10611,10629,10650,10671,10689,10710,10729,10751,10770,10789,10810,10830,10850,10870,10890,10909,10930,10949,10969,10990,11009,11031,11050,11069,11090,11110,11131,11149,11169,11190,11209,11229,11249,11269,11291,11309,11330,11350,11370,11390,11410,11429,11450,11469,11491,11510,11529,11550,11570,11589,11609,11630,11649,11669,11691,11709,11730,11749,11771,11789,11811,11829,11849,11870,11890,11909,11931,11949,11969,11989,12011,12030,12050,12071,12091,12111,12129,12151,12169,12191,12209,12230,12249,12270,12291,12310,12329,12349,12370,12389,12409,12430,12451,12469,12490,12511,12530,12551,12569,12590,12610,12630,12650,12669,12689,12711,12729,12750,12769,12790,12810,12829,12851,12870,12890,12911,12931,12951,12970,12990,13011,13031,13050,13070,13091,13111,13130,13151,13170,13190,13210,13230,13250,13270,13290,13309,13330,13351,13371,13389,13410,13430,13450,13470,13490,13511,13529,13549,13570,13590,13610,13631,13649,13670,13691,13709,13730,13751,13769,13789,13811,13829,13851,13870,13890,13909,13929,13951,13969,13991,14009,14030,14050,14069,14091,14109,14129,14150,14169,14189,14210,14229,14249,14269,14290,14310,14330,14349,14370,14390,14410,14431,14449,14469,14491,14509,14531,14549,14569,14591,14609,14631,14650,14670,14691,14709,14730,14751,14770,14791,14810,14829,14850,14869,14891,14909,14930,14951,14971,14991,15010,15030,15049,15070,15090,15109,15130,15151,15170,15189,15211,15230,15251,15269,15290,15309,15330,15349,15371,15390,15410,15430,15449,15469,15491,15510,15530,15550,15570,15589,15611,15631,15650,15669,15691,15711,15729,15750,15771,15791,15810,15829,15850,15869,15889,15910,15931,15949,15970,15991,16010,16031,16050,16071,16089,16110,16130,16150,16170,16189,16210,16230,16250,16270,16291,16309,16331,16350,16371,16390,16411,16430,16450,16469,16490,16511,16530,16549,16569,16590,16609,16630,16649,16669,16690,16709,16731,16750,16771,16789,16811,16829,16849,16871,16889,16911,16929,16949,16970,16989,17011,17030,17051,17069,17091,17111,17129,17151,17171,17189,17211,17230,17249,17270,17289,17310,17329,17351,17369,17389,17410,17430,17450,17470,17491,17511,17530,17551,17569,17591,17609,17629,17651,17669,17690,17711,17730,17751,17771,17790,17810,17831,17849,17870,17889,17910,17929,17951,17970,17989,18009,18031,18050,18069,18090,18109,18131,18150,18170,18190,18209,18230,18251,18271,18290,18310,18331,18350,18370,18390,18410,18430,18449,18469,18490,18510,18529,18549,18570,18590,18609,18630,18650,18669,18690,18710,18729,18750,18771,18789,18810,18830,18850,18871,18889,18911,18931,18950,18969,18990,19009,19030,19050,19069,19090,19109,19129,19149,19170,19189,19211,19230,19251,19270,19289,19310,19330,19349,19370,19391,19410,19431,19449,19469,19491,19511,19529,19551,19569,19590,19609,19629,19651,19669,19691,19710,19729,19749,19771,19790,19811,19831,19849,19870,19890,19910,19929,19951,19970,19991,20009,20030,20051,20069,20091,20109,20129,20149,20171,20190,20210,20231,20251,20270,20290,20311,20329,20349,20371,20390,20410,20430,20450,20471,20489,20510,20531,20549,20569,20590,20610,20629,20650,20671,20690,20711,20729,20749,20770,20789,20810,20831,20850,20869,20891,20909,20931,20949,20970,20990,21009,21031,21050,21070,21089,21109,21129,21150,21169,21191,21210,21229,21251,21271,21291,21310,21330,21351,21370,21390,21409,21429,21451,21470,21491,21509,21531,21549,21569,21591,21611,21629,21650,21670,21689,21711,21729,21750,21769,21791,21810,21831,21849,21871,21890,21911,21929,21950,21970,21989,22010,22029,22051,22069,22091,22110,22131,22149,22170,22190,22209,22231,22249,22270,22290,22309,22330,22350,22369,22391,22409,22430,22450,22469,22490,22509,22531,22549,22571,22590,22609,22629,22651,22669,22689,22711,22729,22750,22771,22790,22810,22830,22851,22870,22891,22911,22929,22949,22970,22989,23010,23031,23050,23070,23090,23110,23130,23150,23171,23191,23209,23229,23251,23269,23289,23310,23331,23351,23370,23391,23410,23429,23451,23470,23489,23509,23530,23550,23570,23589,23611,23631,23649,23670,23690,23710,23730,23749,23771,23791,23810,23831,23850,23870,23889,23910,23930,23951,23971,23991,24011,24031,24051,24069,24091,24111,24130,24150,24171,24191,24211,24229,24250,24271,24291,24311,24331,24351,24369,24390,24411,24431,24450,24471,24491,24511,24530,24551,24570,24590,24611,24629,24651,24671,24691,24710,24731,24749,24771,24791,24809,24831,24851,24870,24890,24911,24931,24951,24970,24990,25011,25031,25049,25070,25091,25111,25130,25151,25170,25190,25211,25230,25249,25271,25291,25310,25330,25351,25371,25390,25409,25431,25451,25471,25491,25511,25531,25550,25569,25590,25610,25629,25651,25671,25691,25709,25731,25751,25769,25791,25811,25831,25849,25870,25890,25911,25931,25950,25971,25991,26010,26031,26050,26070,26090,26111,26130,26150,26171,26191,26209,26230,26251,26271,26290,26311,26330,26350,26369,26390,26410,26431,26449,26470,26491,26510,26531,26549,26571,26590,26611,26629,26650,26669,26689,26710,26730,26750,26771,26789,26810,26830,26851,26869,26891,26910,26929,26951,26971,26990,27009,27031,27051,27069,27090,27109,27130,27151,27169,27189,27210,27230,27250,27271,27291,27311,27330,27350,27370,27391,27410,27429,27451,27471,27490,27510,27531,27551,27571,27589,27610,27631,27650,27670,27690,27709,27729,27751,27770,27790,27810,27830,27850,27870,27891,27910,27930,27951,27969,27991,28010,28031,28051,28070,28090,28110,28130,28150,28170,28191,28210,28229,28250,28270,28289,28311,28330,28349,28371,28391,28409,28430,28449,28471,28491,28510,28530,28550,28571,28590,28610,28630,28651,28670,28690,28710,28731,28750,28771,28789,28810,28830,28850,28870,28889,28910,28929,28950,28970,28989,29010,29029,29050,29070,29091,29110,29129,29151,29171,29189,29210,29231,29251,29269,29291,29311,29331,29350,29370,29391,29411,29431,29451,29469,29489,29510,29529,29551,29570,29589,29610,29631,29651,29670,29690,29710,29731,29750,29771,29789,29810,29831,29851,29870,29890,29910,29931,29950,29970,29991,30009,30031,30049,30069,30090,30110,30130,30150,30170,30190,30209,30230,30249,30271,30291,30310,30330,30349,30369,30390,30410,30431,30450,30470,30491,30509,30530,30551,30569,30590,30610,30629,30650,30670,30690,30710,30730,30750,30769,30789,30810,30830,30850,30871,30890,30910,30929,30951,30970,30991,31010,31029,31051,31070,31091,31110,31130,31151,31170,31189,31211,31231,31251,31271,31291,31310,31331,31351,31371,31390,31410,31431,31451,31470,31491,31510,31529,31551,31571,31589,31611,31631,31651,31670,31690,31710,31730,31751,31770,31790,31811,31831,31849,31870,31891,31909,31930,31951,31970,31991,32011,32030,32051,32070,32089,32111,32130,32150,32171,32189,32211,32229,32251,32271,32290,32311,32329,32350,32369,32390,32411,32430,32450,32471,32489,32510,32530,32549,32570,32589,32611,32631,32649,32671,32689,32711,32730,32749,32770,32790,32811,32829,32849,32871,32889,32911,32929,32951,32970,32989,33011,33030,33050,33069,33091,33110,33129,33151,33169,33191,33210,33230,33250,33270,33290,33310,33331,33351,33371,33389,33411,33429,33451,33471,33491,33510,33531,33551,33569,33590,33611,33630,33651,33671,33691,33710,33730,33750,33770,33791,33809,33830,33849,33871,33889,33909,33929,33949,33970,33991,34011,34031,34050,34070,34091,34111,34130,34151,34170,34191,34210,34231,34250,34270,34291,34310,34331,34349,34371,34390,34411,34430,34449,34470,34490,34510,34530,34551,34569,34591,34609,34629,34650,34669,34691,34710,34730,34750,34770,34791,34811,34830,34850,34870,34890,34909,34930,34950,34970,34990,35011,35030,35049,35069,35091,35109,35130,35150,35169,35189,35209,35230,35250,35271,35291,35311,35330,35350,35371,35391,35411,35430,35451,35469,35491,35510,35530,35551,35570,35591,35609,35630,35651,35671,35690,35710,35731,35750,35770,35790,35810,35829,35850,35869,35891,35910,35930,35950,35969,35991,36010,36029,36050,36071,36089,36110,36130,36150,36171,36189,36211,36230,36249,36270,36290,36310,36331,36349,36371,36391,36410,36430,36450,36471,36489,36511,36530,36549,36570,36590,36610,36630,36650,36671,36690,36709,36731,36749,36770,36791,36810,36830,36850,36869,36891,36910,36929,36950,36970,36991,37010,37030,37049,37070,37091,37110,37130,37149,37170,37190,37209,37230,37250,37271,37290,37310,37331,37350,37369,37391,37411,37429,37450,37471,37491,37510,37529,37550,37571,37591,37611,37629,37651,37669,37690,37711,37729,37750,37770,37790,37811,37831,37850,37869,37891,37910,37930,37950,37970,37990,38009,38029,38051,38070,38089,38111,38130,38150,38169,38189,38211,38229,38250,38271,38291,38310,38331,38350,38369,38391,38411,38429,38451,38471,38491,38509,38531,38549,38569,38590,38609,38630,38650,38670,38689,38709,38729,38749,38770,38791,38810,38830,38851,38870,38890,38910,38930,38950,38970,38991,39010,39030,39051,39069,39091,39111,39130,39151,39171,39190,39211,39229,39250,39269,39289,39310,39329,39350,39370,39389,39410,39430,39450,39471,39490,39510,39529,39551,39570,39591,39610,39630,39650,39670,39691,39711,39729,39750,39770,39790,39810,39831,39851,39871,39890,39910,39929,39951,39970,39990,40010,40030,40051,40070,40089,40110,40130,40150,40171,40189,40210,40230,40251,40270,40290,40311,40329,40349,40370,40390,40409,40431,40450,40469,40491,40510,40531,40551,40570,40590,40610,40630,40649,40669,40690,40711,40730,40750,40770,40790,40809,40831,40849,40869,40890,40911,40931,40950,40970,40989,41010,41031,41050,41069,41090,41110,41129,41149,41170,41189,41211,41231,41249,41270,41290,41311,41331,41351,41369,41390,41410,41430,41451,41471,41489,41509,41530,41550,41571,41590,41609,41630,41650,41669,41691,41710,41731,41749,41769,41791,41811,41830,41850,41869,41891,41909,41929,41951,41971,41989,42011,42029,42050,42071,42091,42111,42131,42151,42171,42189,42209,42231,42251,42271,42290,42310,42331,42351,42369,42390,42411,42430,42451,42471,42490,42509,42530,42551,42571,42590,42610,42630,42651,42671,42691,42709,42730,42750,42770,42790,42810,42830,42849,42870,42890,42910,42930,42950,42970,42991,43010,43029,43050,43070,43090,43110,43130,43150,43170,43189,43211,43229,43251,43270,43290,43311,43330,43350,43370,43391,43410,43430,43451,43471],"xSR":741.5,"ySR":469.95,"xT1":424.9,"yT1":0,"xT2":1058.1,"yT2":0,"toosoon":0,"cond_shown":"Incongruent","ratio_trial":300,"L_num":4,"L_den":5,"R_num":8,"R_den":16,"correct_side":1,"subjID":"LUANACHAVESGONZALEZ31","gender":"1","school":"6","age":"11"},{"start_time":1551800710212,"click_time":1551800713735,"finger_time":1551800711914,"fix_duration":856.9567508120433,"trial":14,"RT":1702,"MT":1821,"sideResp":2,"stimulus":[],"xmouse":[806,806,806,806,806,806,806,806,806,806,806,806,806,806,806,806,806,806,806,806,806,806,806,806,806,806,806,806,806,806,806,806,806,806,806,806,806,806,806,806,806,806,806,806,806,806,806,806,806,806,806,806,806,806,806,806,806,806,806,806,806,806,806,806,806,806,806,806,806,806,806,806,806,806,806,806,806,806,806,806,806,806,806,802,780,740,727,723,723,723,723,723,723,723,723,723,723,723,723,723,723,723,723,723,723,723,723,723,723,723,723,723,724,724,725,725,728,733,737,742,747,747,749,750,756,772,781,790,792,792,792,792,792,792,792,792,792,792,792,792,792,792,792,792,792,792,792,792,792,793,794,804,812,825,843,861,890,897,901,904,914,920,925,932,936,944,953,961,971,981,995,1018,1025,1032,1039,1043,1060],"ymouse":[521,521,521,521,521,521,521,521,521,521,521,521,521,521,521,521,521,521,521,521,521,521,521,521,521,521,521,521,521,521,521,521,521,521,521,521,521,521,521,521,521,521,521,521,521,521,521,521,521,521,521,521,521,521,521,521,521,521,521,521,521,521,521,521,521,521,521,521,521,521,521,521,521,521,521,521,521,521,521,521,521,521,520,519,513,499,493,489,489,489,489,489,489,489,489,489,489,489,489,489,489,489,489,489,489,489,489,489,489,489,489,489,489,489,489,489,489,490,490,490,490,490,490,490,490,490,490,490,490,490,490,490,490,490,490,490,490,490,490,490,490,490,490,490,490,490,490,490,490,490,490,485,481,474,465,456,432,418,407,396,360,339,320,298,281,253,228,208,192,171,147,109,97,88,79,75,63],"timestamp_mouse":[9,38,42,62,81,103,121,141,163,181,201,222,243,263,281,302,322,341,362,382,402,423,442,462,482,502,521,542,562,581,602,622,641,662,682,702,722,741,762,782,802,822,841,861,882,902,922,942,961,982,1003,1023,1043,1062,1083,1102,1122,1142,1162,1183,1202,1222,1243,1261,1282,1302,1322,1343,1363,1382,1401,1421,1442,1463,1481,1502,1522,1542,1562,1582,1601,1623,1642,1662,1682,1702,1721,1742,1762,1782,1803,1821,1843,1862,1881,1903,1921,1942,1961,1983,2003,2022,2041,2063,2082,2102,2121,2142,2161,2182,2203,2223,2243,2262,2282,2302,2323,2342,2362,2382,2402,2421,2442,2462,2483,2503,2522,2542,2562,2582,2603,2622,2643,2661,2682,2702,2722,2743,2761,2782,2802,2821,2843,2862,2882,2902,2923,2941,2963,2983,3002,3023,3041,3063,3082,3103,3122,3143,3161,3182,3203,3221,3242,3263,3281,3303,3322,3342,3363,3382,3401,3421,3442,3462,3482,3502,3522],"xSR":741.5,"ySR":469.95,"xT1":424.9,"yT1":0,"xT2":1058.1,"yT2":0,"toosoon":0,"cond_shown":"Congruent","ratio_trial":100,"L_num":11,"L_den":22,"R_num":4,"R_den":10,"correct_side":1,"subjID":"LUANACHAVESGONZALEZ31","gender":"1","school":"6","age":"11"},{"start_time":1551800716609,"click_time":1551800720174,"finger_time":1551800719875,"fix_duration":394.83653714022483,"trial":15,"RT":3266,"MT":299,"sideResp":1,"stimulus":[],"xmouse":[819,819,819,819,819,819,819,819,819,819,819,819,819,819,819,819,819,819,819,819,819,819,819,819,819,818,817,817,817,817,817,817,817,817,817,817,817,817,817,817,817,817,817,817,817,817,817,817,817,817,817,817,817,817,817,817,817,817,817,817,817,817,817,817,817,817,817,817,817,817,817,816,816,816,816,816,816,816,816,816,816,816,816,816,816,816,816,816,816,816,816,816,816,816,816,816,816,816,816,816,816,816,816,816,816,816,816,816,816,816,816,816,816,816,816,816,816,816,816,816,816,816,816,816,816,816,816,816,816,816,816,816,816,816,816,816,816,816,816,816,816,816,816,816,816,816,816,816,816,816,816,813,809,807,807,807,807,807,807,805,803,782,764,729,704,682,645,633,622,613,605,577,569,550,536,524,502,491,482],"ymouse":[506,506,506,506,506,506,506,506,506,506,506,506,506,506,506,506,506,506,506,506,506,506,507,507,507,508,509,509,509,509,509,509,509,509,509,509,509,509,509,509,509,509,509,509,509,509,509,509,509,509,509,509,509,509,509,509,509,509,509,509,509,509,509,509,509,509,509,509,509,509,509,509,509,509,509,509,509,509,509,509,509,509,509,509,509,509,509,509,509,509,509,509,509,509,509,509,509,509,509,509,509,509,509,509,509,509,509,509,509,509,509,509,509,509,509,509,509,509,509,509,509,509,509,509,509,509,509,509,509,509,509,509,509,509,509,509,509,509,509,509,509,509,509,509,509,509,509,509,509,509,509,509,509,509,509,509,509,509,509,509,508,497,486,467,449,436,410,398,387,374,359,277,255,203,179,158,121,101,85],"timestamp_mouse":[11,25,45,65,85,104,125,146,165,186,205,224,245,264,284,305,325,346,366,385,405,424,446,464,485,506,526,545,565,586,605,624,644,665,685,705,725,745,766,786,804,825,845,866,886,906,925,945,966,986,1006,1025,1045,1066,1085,1106,1125,1145,1166,1186,1205,1225,1245,1265,1286,1305,1325,1344,1366,1385,1405,1425,1446,1464,1484,1505,1524,1546,1565,1584,1605,1625,1646,1665,1685,1705,1726,1746,1765,1785,1805,1825,1845,1866,1884,1904,1924,1945,1965,1986,2006,2024,2045,2064,2084,2106,2125,2144,2166,2185,2205,2225,2245,2266,2286,2306,2326,2345,2365,2385,2405,2425,2444,2466,2485,2506,2526,2545,2566,2586,2606,2625,2646,2666,2686,2705,2724,2745,2765,2785,2806,2826,2845,2866,2884,2904,2925,2946,2965,2985,3005,3024,3044,3065,3084,3105,3125,3146,3165,3184,3205,3225,3245,3266,3286,3306,3326,3345,3364,3385,3405,3426,3444,3464,3485,3505,3525,3544,3565],"xSR":741.5,"ySR":469.95,"xT1":424.9,"yT1":0,"xT2":1058.1,"yT2":0,"toosoon":0,"cond_shown":"Congruent","ratio_trial":100,"L_num":3,"L_den":6,"R_num":2,"R_den":5,"correct_side":1,"subjID":"LUANACHAVESGONZALEZ31","gender":"1","school":"6","age":"11"},{"start_time":1551800721972,"click_time":1551800724154,"finger_time":1551800723654,"fix_duration":675.72571371059,"trial":16,"RT":1682,"MT":500,"sideResp":1,"stimulus":[],"xmouse":[796,796,796,796,796,796,796,796,796,796,796,796,796,796,796,796,796,796,796,796,796,796,796,796,796,796,796,796,796,796,796,796,796,796,796,796,796,796,796,796,796,796,796,796,796,796,796,796,796,796,796,796,796,796,796,796,796,796,796,796,796,796,796,796,796,796,796,796,796,796,796,796,796,796,796,796,796,796,796,796,796,791,788,776,722,692,668,653,643,637,635,629,622,600,595,592,590,588,583,566,557,548,540,529,526,523,519,515,511,507],"ymouse":[545,545,545,545,545,545,545,545,545,545,545,545,545,545,545,545,545,545,545,545,545,545,545,545,545,545,545,545,545,545,545,545,545,545,545,545,545,545,545,545,545,545,545,545,545,545,545,545,545,545,545,545,545,545,545,545,545,545,545,545,545,545,545,545,545,545,545,545,545,545,545,545,545,545,545,545,545,545,545,545,545,542,539,528,454,414,381,360,344,331,325,305,286,256,251,248,246,243,235,214,205,194,183,163,152,141,127,114,101,86],"timestamp_mouse":[8,23,48,63,82,101,123,143,163,182,203,221,242,263,282,302,323,341,362,383,402,421,442,461,482,503,521,541,563,582,603,622,642,662,683,701,722,741,761,783,802,822,843,862,883,902,921,941,963,982,1001,1022,1042,1061,1083,1101,1121,1143,1161,1183,1202,1221,1243,1262,1281,1301,1323,1341,1363,1381,1403,1422,1442,1462,1483,1503,1523,1542,1562,1583,1602,1623,1641,1661,1682,1703,1722,1741,1762,1782,1802,1822,1842,1863,1881,1902,1921,1942,1961,1982,2002,2023,2042,2063,2082,2102,2122,2142,2162,2182],"xSR":741.5,"ySR":469.95,"xT1":424.9,"yT1":0,"xT2":1058.1,"yT2":0,"toosoon":0,"cond_shown":"Incongruent","ratio_trial":300,"L_num":8,"L_den":10,"R_num":14,"R_den":28,"correct_side":1,"subjID":"LUANACHAVESGONZALEZ31","gender":"1","school":"6","age":"11"},{"start_time":1551800725790,"click_time":1551800727414,"finger_time":1551800726894,"fix_duration":534.2893156608184,"trial":17,"RT":1104,"MT":520,"sideResp":1,"stimulus":[],"xmouse":[786,786,786,786,786,786,786,786,786,786,786,786,786,786,786,786,786,786,786,786,786,786,786,786,786,786,786,786,786,786,786,786,786,786,786,786,786,786,786,786,786,786,786,786,786,786,786,786,786,786,786,786,786,786,774,755,732,713,695,692,689,685,677,646,623,604,584,563,531,516,493,485,469,455,453,453,453,454,455,457,460,462],"ymouse":[496,496,496,496,496,496,496,496,496,496,496,496,496,496,496,496,496,496,496,496,496,496,496,496,496,496,496,496,496,496,496,496,496,496,496,496,496,496,496,496,496,496,496,496,496,496,496,496,496,496,496,496,496,496,483,461,438,420,398,393,388,380,369,339,320,304,288,271,241,223,193,185,161,134,129,127,126,122,115,108,104,99],"timestamp_mouse":[8,33,44,64,84,104,124,145,163,183,205,225,244,265,284,304,323,344,364,385,405,425,443,464,485,503,523,545,565,584,605,624,644,665,684,703,725,745,765,785,805,824,845,864,884,905,924,943,964,984,1005,1024,1044,1063,1083,1104,1123,1143,1164,1183,1203,1224,1244,1264,1285,1303,1324,1343,1364,1384,1405,1424,1444,1465,1483,1504,1525,1544,1564,1583,1604,1624],"xSR":741.5,"ySR":469.95,"xT1":424.9,"yT1":0,"xT2":1058.1,"yT2":0,"toosoon":0,"cond_shown":"Congruent","ratio_trial":300,"L_num":24,"L_den":30,"R_num":8,"R_den":16,"correct_side":1,"subjID":"LUANACHAVESGONZALEZ31","gender":"1","school":"6","age":"11"},{"start_time":1551800729819,"click_time":1551800731095,"finger_time":1551800730794,"fix_duration":1141.3003057540757,"trial":18,"RT":975,"MT":301,"sideResp":2,"stimulus":[],"xmouse":[770,770,770,770,770,770,770,770,770,770,770,770,770,770,770,770,770,770,770,770,770,770,770,770,770,770,770,770,770,770,770,770,770,770,770,770,770,770,770,770,770,770,771,774,777,780,794,806,819,833,851,886,900,911,925,937,965,983,995,1007,1024,1037,1054,1064],"ymouse":[532,532,532,532,532,532,532,532,532,532,532,532,532,532,532,532,532,532,532,532,532,532,532,532,532,532,532,532,532,532,532,532,532,532,532,532,532,532,532,532,532,532,532,530,527,524,505,478,443,421,398,360,349,337,323,304,236,191,171,157,137,123,108,96],"timestamp_mouse":[16,39,56,75,95,114,135,155,176,195,214,235,256,275,295,316,335,356,375,395,416,435,456,474,495,514,536,556,575,596,614,635,655,676,695,716,735,755,775,794,816,835,856,876,894,914,936,956,975,995,1016,1035,1055,1075,1096,1115,1135,1154,1175,1196,1215,1235,1255,1275],"xSR":741.5,"ySR":469.95,"xT1":424.9,"yT1":0,"xT2":1058.1,"yT2":0,"toosoon":0,"cond_shown":"Congruent","ratio_trial":100,"L_num":7,"L_den":14,"R_num":15,"R_den":25,"correct_side":2,"subjID":"LUANACHAVESGONZALEZ31","gender":"1","school":"6","age":"11"},{"start_time":1551800733228,"click_time":1551800735795,"finger_time":1551800735454,"fix_duration":1132.7972435639576,"trial":19,"RT":2226,"MT":341,"sideResp":2,"stimulus":[],"xmouse":[774,774,774,774,774,774,774,774,774,774,774,774,774,774,774,774,774,774,774,774,774,774,774,774,774,774,774,774,774,774,774,774,774,774,774,774,774,774,774,774,774,774,774,774,774,774,774,774,774,774,774,774,774,774,774,774,774,774,774,774,774,774,774,774,774,774,774,774,774,774,774,774,774,774,774,774,774,774,774,774,774,774,774,774,774,774,774,774,774,774,774,774,774,774,774,774,774,774,774,774,774,774,774,774,774,774,774,776,788,804,825,854,936,973,1013,1029,1042,1062,1070,1079,1088,1097,1116,1124,1132,1140,1141,1147,1149],"ymouse":[546,546,546,546,546,546,546,546,546,546,546,546,546,546,546,546,546,546,546,546,546,546,546,546,546,546,546,546,546,546,546,546,546,546,546,546,546,546,546,546,546,546,546,546,546,546,546,546,546,546,546,546,546,546,546,546,546,546,546,546,546,546,546,546,546,546,546,546,546,546,546,546,546,546,546,546,546,546,546,546,546,546,546,546,546,546,546,546,546,546,546,546,546,546,546,546,546,546,546,546,546,546,546,546,546,546,546,546,538,528,517,500,442,420,392,375,355,318,300,278,256,234,190,169,151,133,126,108,98],"timestamp_mouse":[12,27,50,67,87,106,126,145,166,185,207,226,246,265,286,306,326,347,366,385,406,426,447,465,487,507,526,546,566,586,606,626,646,666,685,707,726,746,767,787,806,826,846,866,886,906,926,947,966,987,1006,1025,1046,1066,1086,1107,1127,1145,1167,1186,1207,1225,1245,1267,1285,1306,1327,1345,1365,1387,1405,1426,1447,1467,1487,1506,1526,1547,1566,1586,1607,1626,1645,1667,1685,1707,1726,1746,1766,1785,1806,1827,1845,1867,1887,1905,1926,1945,1966,1986,2005,2027,2046,2065,2086,2106,2127,2145,2165,2187,2206,2226,2246,2266,2286,2306,2327,2347,2366,2386,2406,2427,2446,2467,2487,2506,2525,2546,2567],"xSR":741.5,"ySR":469.95,"xT1":424.9,"yT1":0,"xT2":1058.1,"yT2":0,"toosoon":0,"cond_shown":"Incongruent","ratio_trial":200,"L_num":4,"L_den":30,"R_num":1,"R_den":3,"correct_side":2,"subjID":"LUANACHAVESGONZALEZ31","gender":"1","school":"6","age":"11"},{"start_time":1551800738266,"click_time":1551800741575,"finger_time":1551800740495,"fix_duration":1470.3821177592222,"trial":20,"RT":2229,"MT":1080,"sideResp":1,"stimulus":[],"xmouse":[790,790,790,790,790,790,790,790,790,790,790,790,790,790,790,790,790,790,790,790,790,790,790,790,790,790,790,790,790,790,790,790,790,790,790,790,790,790,790,790,790,790,790,790,790,790,790,790,790,790,790,790,790,790,790,790,790,790,790,790,790,790,790,790,790,790,790,790,790,790,790,790,790,790,790,790,790,790,790,790,790,790,790,790,790,790,790,790,790,790,790,790,790,790,790,790,790,790,790,790,790,790,790,790,790,789,781,774,765,757,751,738,730,719,704,687,666,657,649,641,632,602,588,576,567,556,553,549,547,544,537,532,529,526,523,519,511,508,505,504,503,501,500,500,500,500,500,500,500,500,500,499,499,499,498,498,498,498,498,498,498,498,498,498,498,497],"ymouse":[537,537,537,537,537,537,537,537,537,537,537,537,537,537,537,537,537,537,537,537,537,537,537,537,537,537,537,537,537,537,537,537,537,537,537,537,537,537,537,537,537,537,537,537,537,537,537,537,537,537,537,537,537,537,537,537,537,537,537,537,537,537,537,537,537,537,537,537,537,537,537,537,537,537,537,537,537,537,537,537,537,537,537,537,537,537,537,537,537,537,537,537,537,537,537,537,537,537,537,537,537,537,537,537,537,537,525,514,505,495,488,471,457,442,416,387,349,333,320,306,294,258,242,227,216,201,198,194,191,187,180,173,169,165,160,155,141,137,131,129,128,124,122,122,122,122,122,122,122,122,121,113,111,110,109,108,106,106,106,106,106,106,106,106,104,98],"timestamp_mouse":[9,42,48,69,87,108,129,148,168,189,208,229,248,269,288,308,327,349,368,388,408,429,447,467,488,508,528,549,567,587,607,628,647,668,687,708,728,748,769,789,808,828,849,867,889,909,929,949,967,988,1008,1029,1048,1067,1087,1109,1128,1148,1169,1188,1209,1229,1247,1269,1288,1307,1327,1348,1368,1389,1408,1428,1448,1467,1487,1508,1528,1548,1569,1587,1608,1628,1649,1669,1687,1709,1729,1749,1768,1788,1807,1829,1849,1867,1888,1909,1927,1949,1968,1989,2007,2028,2048,2068,2087,2108,2129,2148,2169,2188,2208,2229,2247,2269,2289,2308,2327,2348,2368,2388,2408,2428,2448,2467,2488,2510,2528,2548,2568,2589,2609,2628,2647,2668,2689,2708,2728,2748,2768,2788,2808,2829,2847,2868,2888,2909,2928,2948,2968,2989,3008,3028,3048,3069,3094,3107,3128,3148,3168,3189,3208,3227,3248,3269,3288,3309],"xSR":741.5,"ySR":469.95,"xT1":424.9,"yT1":0,"xT2":1058.1,"yT2":0,"toosoon":0,"cond_shown":"Incongruent","ratio_trial":100,"L_num":10,"L_den":25,"R_num":8,"R_den":16,"correct_side":2,"subjID":"LUANACHAVESGONZALEZ31","gender":"1","school":"6","age":"11"},{"start_time":1551800743880,"click_time":1551800745794,"finger_time":1551800745455,"fix_duration":584.7740674814606,"trial":21,"RT":1575,"MT":339,"sideResp":2,"stimulus":[],"xmouse":[774,774,774,774,774,774,774,774,774,774,774,774,774,774,774,774,774,774,774,774,774,774,774,774,774,774,774,774,774,774,774,774,774,774,774,774,774,774,774,774,774,774,774,774,774,774,774,774,774,774,774,774,774,774,774,774,774,774,774,774,774,774,776,778,779,780,780,780,780,780,780,780,780,780,782,790,796,806,823,835,868,887,909,933,966,995,1031,1044,1052,1061,1076,1081,1086,1087,1087,1091],"ymouse":[500,500,500,500,500,500,500,500,500,500,500,500,500,500,500,500,500,500,500,500,500,500,500,500,500,500,500,500,500,500,500,500,500,500,500,500,500,500,500,500,500,500,500,500,500,500,500,500,500,500,500,500,500,500,500,500,500,500,500,500,500,500,500,499,498,497,497,497,497,497,497,497,497,497,495,489,484,474,454,442,414,397,380,363,339,319,291,273,257,239,199,180,157,135,119,93],"timestamp_mouse":[13,33,54,75,93,114,135,154,175,193,214,234,253,274,295,313,335,354,375,393,415,435,453,474,494,513,535,554,575,595,614,634,655,675,693,713,734,754,774,795,814,835,853,873,895,913,935,955,974,994,1014,1034,1053,1075,1094,1114,1134,1154,1174,1195,1214,1234,1254,1274,1295,1313,1334,1355,1373,1394,1413,1435,1455,1474,1493,1513,1533,1555,1575,1594,1615,1634,1653,1675,1694,1714,1733,1755,1774,1793,1815,1834,1854,1875,1894,1913],"xSR":741.5,"ySR":469.95,"xT1":424.9,"yT1":0,"xT2":1058.1,"yT2":0,"toosoon":0,"cond_shown":"Incongruent","ratio_trial":200,"L_num":7,"L_den":10,"R_num":12,"R_den":24,"correct_side":1,"subjID":"LUANACHAVESGONZALEZ31","gender":"1","school":"6","age":"11"},{"start_time":1551800747450,"click_time":1551800754134,"finger_time":1551800748714,"fix_duration":555.2486982188219,"trial":22,"RT":1264,"MT":5420,"sideResp":2,"stimulus":[],"xmouse":[753,753,753,753,753,753,753,753,753,753,753,753,753,753,753,753,753,753,753,753,753,753,753,753,753,753,753,753,753,753,753,753,753,753,753,753,753,753,753,753,753,753,753,753,753,753,753,753,753,753,753,753,753,753,753,753,753,751,748,746,746,746,745,738,734,732,730,727,725,725,724,723,723,722,722,722,722,722,722,722,722,722,722,723,725,726,727,728,729,730,731,733,738,741,743,747,749,750,753,755,757,758,759,765,768,772,779,786,797,804,806,807,807,807,807,807,807,807,807,807,807,807,807,807,807,807,807,807,807,807,807,807,807,807,807,807,807,807,807,807,807,807,807,807,807,807,807,807,807,807,807,807,807,807,807,807,807,807,807,807,807,807,807,807,807,807,807,807,807,807,807,807,807,807,807,807,807,807,807,807,807,807,807,807,807,807,807,807,807,809,809,809,810,810,810,810,810,810,810,810,810,810,810,810,810,810,810,810,810,810,810,810,810,810,810,810,810,810,810,810,810,810,810,810,810,810,810,810,810,810,810,810,810,810,810,810,810,810,810,811,812,813,813,813,813,814,817,824,836,844,853,862,868,882,889,901,928,954,987,994,998,1001,1003,1008,1009,1010,1013,1019,1034,1035,1035,1035,1035,1038,1041,1042,1042,1043,1044,1045,1045,1046,1049,1052,1052,1052,1052,1052,1052,1052,1052,1052,1052,1052,1052,1052,1052,1052,1052,1052,1053,1054,1056,1064,1067,1070,1071,1071,1071,1071,1067,1060,1058,1054,1051,1051,1049,1048,1047,1047,1047,1047,1047,1047,1047,1047,1047,1047,1047,1047,1047,1047,1050,1059,1063],"ymouse":[491,491,491,491,491,491,491,491,491,491,491,491,491,491,491,491,491,491,491,491,491,491,491,491,491,491,491,491,491,491,491,491,491,491,491,491,491,491,491,491,491,491,491,491,491,491,491,491,491,491,491,491,491,491,491,491,491,491,491,492,492,492,492,488,486,485,484,482,482,482,480,478,477,476,476,476,476,476,476,476,476,476,476,476,476,476,476,475,475,475,475,475,475,475,475,475,475,475,475,475,475,475,475,476,477,478,481,484,487,489,490,490,490,490,490,490,490,490,490,490,490,490,490,490,490,490,490,490,490,490,490,490,490,490,490,490,490,490,490,490,490,490,490,490,490,490,490,490,490,490,490,490,490,490,490,490,490,490,490,490,490,490,490,490,490,490,490,490,490,490,490,490,490,490,490,490,490,490,490,490,490,490,490,490,490,490,490,490,490,489,488,487,486,485,485,485,485,485,485,485,485,485,485,485,485,485,485,485,485,485,485,485,485,485,485,485,485,485,485,485,485,485,485,485,485,485,485,485,485,485,485,485,485,485,485,485,485,485,485,480,477,476,476,475,475,473,470,467,460,454,447,439,430,409,403,398,373,346,313,305,297,291,288,279,277,276,274,268,257,256,256,256,256,251,246,244,243,242,239,237,237,235,231,223,223,223,223,223,223,223,223,223,223,223,223,223,223,223,223,223,220,214,207,192,188,182,177,175,166,159,147,131,126,119,114,112,107,105,104,104,104,104,104,104,104,104,104,104,104,104,104,104,103,101,99],"timestamp_mouse":[8,25,44,65,83,105,125,144,164,183,204,225,244,264,283,305,325,345,364,384,403,424,445,465,484,505,524,544,564,585,605,624,644,664,685,705,724,744,764,784,804,825,843,863,884,905,924,944,964,985,1005,1023,1044,1064,1084,1103,1124,1144,1164,1183,1204,1223,1244,1264,1283,1303,1324,1345,1364,1384,1403,1424,1444,1463,1484,1503,1525,1544,1563,1584,1605,1623,1643,1663,1683,1704,1724,1744,1763,1783,1804,1823,1845,1864,1885,1904,1923,1944,1964,1984,2004,2023,2043,2064,2083,2103,2124,2144,2163,2184,2203,2223,2245,2263,2283,2304,2323,2344,2364,2383,2403,2423,2443,2464,2485,2503,2524,2544,2564,2584,2604,2623,2643,2665,2683,2705,2723,2744,2764,2784,2803,2824,2844,2864,2884,2904,2924,2943,2963,2984,3004,3023,3044,3063,3084,3105,3124,3143,3165,3184,3204,3224,3244,3264,3284,3305,3323,3343,3364,3385,3404,3424,3445,3463,3483,3505,3524,3545,3563,3585,3605,3623,3643,3665,3684,3704,3723,3743,3764,3783,3803,3823,3844,3864,3883,3904,3923,3943,3963,3984,4003,4023,4043,4065,4083,4104,4123,4143,4165,4184,4203,4224,4244,4263,4285,4316,4323,4343,4363,4384,4404,4425,4443,4464,4483,4503,4523,4543,4564,4584,4603,4623,4643,4664,4685,4704,4725,4744,4763,4784,4804,4824,4843,4863,4884,4903,4923,4944,4964,4984,5005,5023,5044,5064,5083,5104,5124,5143,5163,5184,5203,5224,5243,5263,5284,5304,5323,5344,5363,5384,5403,5423,5443,5464,5485,5504,5524,5544,5564,5584,5603,5623,5644,5663,5683,5703,5723,5743,5764,5784,5804,5824,5843,5864,5883,5904,5923,5944,5964,5984,6005,6025,6045,6063,6084,6103,6123,6145,6163,6183,6204,6224,6243,6265,6285,6304,6324,6343,6364,6383,6403,6425,6444,6463,6483,6504,6524,6544,6564,6584,6604,6623,6643,6664,6684],"xSR":741.5,"ySR":469.95,"xT1":424.9,"yT1":0,"xT2"