[{"start_time":1551801389599,"click_time":1551801391414,"finger_time":1551801390894,"fix_duration":415.41888393472647,"trial":0,"RT":1295,"MT":520,"sideResp":2,"stimulus":"img/250/equaldotsize/R/10_Ratio_250_L_4_R_16.png","xmouse":[827,827,827,827,827,827,827,826,826,826,826,826,826,826,826,826,826,826,826,826,826,826,826,826,826,826,826,826,826,826,826,826,826,826,826,826,826,826,826,826,826,826,826,826,826,826,826,826,826,826,826,826,826,826,826,826,826,826,826,826,826,826,828,835,848,860,874,901,912,923,935,943,964,971,980,983,987,999,1007,1015,1025,1043,1061,1071,1081,1092,1113,1120,1127,1131,1134],"ymouse":[528,528,528,528,528,529,529,529,529,529,529,529,529,529,529,529,529,529,529,529,529,529,529,529,529,529,529,529,529,529,529,529,529,529,529,529,529,529,529,529,529,529,529,529,529,529,529,529,529,529,529,529,529,529,529,529,529,529,529,529,529,529,527,519,504,489,470,433,412,383,354,329,277,262,246,237,227,198,182,168,154,139,132,130,127,124,115,110,105,101,98],"timestamp_mouse":[16,46,56,77,95,115,136,157,176,196,216,235,256,277,295,316,336,357,376,396,416,436,456,476,496,515,535,556,575,597,615,635,657,676,695,717,735,755,777,795,815,835,856,876,897,916,935,956,977,995,1016,1036,1055,1077,1097,1115,1136,1156,1175,1196,1216,1236,1257,1275,1295,1316,1336,1356,1377,1395,1415,1436,1456,1476,1495,1515,1535,1556,1576,1596,1616,1636,1655,1676,1697,1716,1737,1756,1776,1796,1815],"xSR":741.5,"ySR":501.8,"xT1":424.9,"yT1":0,"xT2":1058.1,"yT2":0,"toosoon":0,"cond_shown":"equaldotsize","ratio_trial":250,"smaller_num":"4","larger_num":"16","correct_side":2,"subjID":"LUANACHAVESGONZALEZ31","gender":"1","age":"11","school":"6","test":{"fix_dur":[250,1500],"timestim":300,"targets_dim":[100,100],"targets_relative_coord":[0.3,0.7],"size_stim":[880,420],"start_dim":[100,100],"size_start":[300,300],"size_fix":60,"samplingrate":20,"img_types":["equaldotsize","equaldotanddens","randomdotsizeEA"],"ratios":[250,500,750,900],"rep_conds":9,"nTrials":120,"trials_to_rest":500,"Trials_order":[12,52,96,4,61,37,43,7,112,103,110,2,101,0,69,18,95,119,63,73,90,102,33,116,14,55,67,78,40,68,62,36,82,5,105,47,65,100,42,25,81,8,11,97,34,24,92,84,27,77,56,99,93,19,26,31,113,70,106,91,107,79,117,23,39,6,88,22,74,118,58,35,10,86,64,76,32,16,80,108,89,1,111,72,20,49,60,104,115,17,3,66,94,46,29,53,57,44,83,109,50,87,9,38,30,114,98,13,59,85,54,28,21,15,75,71,48,41,51,45],"cond_shown":["equaldotsize","equaldotanddens","equaldotsize","equaldotanddens","equaldotanddens","equaldotanddens","equaldotanddens","equaldotanddens","equaldotanddens","equaldotanddens","randomdotsizeEA","randomdotsizeEA","randomdotsizeEA","equaldotsize","equaldotsize","equaldotsize","randomdotsizeEA","randomdotsizeEA","equaldotsize","equaldotanddens","equaldotsize","equaldotsize","equaldotsize","randomdotsizeEA","randomdotsizeEA","equaldotanddens","equaldotanddens","equaldotsize","equaldotanddens","randomdotsizeEA","randomdotsizeEA","equaldotsize","equaldotanddens","randomdotsizeEA","equaldotsize","randomdotsizeEA","randomdotsizeEA","equaldotanddens","equaldotsize","equaldotanddens","equaldotsize","randomdotsizeEA","randomdotsizeEA","equaldotanddens","equaldotanddens","equaldotsize","randomdotsizeEA","equaldotsize","equaldotsize","randomdotsizeEA","randomdotsizeEA","equaldotsize","equaldotsize","equaldotanddens","randomdotsizeEA","equaldotanddens","randomdotsizeEA","equaldotanddens","equaldotanddens","equaldotanddens","randomdotsizeEA","equaldotanddens","equaldotsize","randomdotsizeEA","equaldotsize","equaldotsize","equaldotanddens","equaldotanddens","randomdotsizeEA","equaldotanddens","equaldotanddens","randomdotsizeEA","equaldotanddens","randomdotsizeEA","equaldotanddens","equaldotanddens","randomdotsizeEA","equaldotanddens","randomdotsizeEA","equaldotsize","randomdotsizeEA","equaldotanddens","equaldotsize","equaldotsize","randomdotsizeEA","equaldotanddens","equaldotsize","randomdotsizeEA","equaldotanddens","randomdotsizeEA","equaldotsize","equaldotsize","equaldotanddens","equaldotanddens","randomdotsizeEA","randomdotsizeEA","equaldotsize","randomdotsizeEA","randomdotsizeEA","equaldotanddens","randomdotsizeEA","equaldotsize","equaldotsize","randomdotsizeEA","equaldotsize","equaldotsize","randomdotsizeEA","equaldotanddens","randomdotsizeEA","equaldotanddens","equaldotsize","equaldotanddens","equaldotsize","equaldotsize","equaldotsize","randomdotsizeEA","equaldotsize","randomdotsizeEA","equaldotsize","equaldotsize"],"ratio_trial":[250,500,250,500,250,250,750,750,500,750,250,250,500,250,900,750,900,900,500,250,750,750,900,750,250,750,750,750,500,750,250,250,900,500,900,900,500,500,750,250,900,750,900,250,900,250,750,250,500,500,750,500,900,750,250,750,500,900,900,750,900,750,900,900,500,750,500,900,250,900,900,900,900,250,500,500,750,500,750,250,500,250,500,250,750,250,250,750,750,500,500,750,900,900,500,500,900,750,900,250,250,500,900,250,750,750,250,250,900,250,750,500,900,500,500,900,250,500,500,900],"smaller_num":["4","5","3","2","2","2","12","15","2","6","4","3","4","3","18","3","18","9","1","2","12","3","9","12","3","3","3","3","2","15","2","2","9","4","9","18","1","10","9","5","9","15","9","2","9","3","3","3","6","3","3","2","9","12","6","6","2","9","9","18","18","3","18","18","2","15","2","9","3","18","18","18","18","6","4","2","15","2","3","2","2","2","1","3","6","6","3","3","3","6","2","6","18","18","2","2","18","6","18","3","6","9","18","2","3","12","2","3","9","3","15","5","18","1","1","18","3","5","10","18"],"larger_num":["16","10","12","4","8","8","16","20","4","8","16","12","8","12","20","4","20","10","2","8","16","4","10","16","12","4","4","4","4","20","8","8","10","8","10","20","2","20","12","20","10","20","10","8","10","12","4","12","12","6","4","4","10","16","24","8","4","10","10","24","20","4","20","20","4","20","4","10","12","20","20","20","20","24","8","4","20","4","4","8","4","8","2","12","8","24","12","4","4","12","4","8","20","20","4","4","20","8","20","12","24","18","20","8","4","16","8","12","10","12","20","10","20","2","2","20","12","10","20","20"],"correct_side":[2,1,2,2,1,1,2,2,2,1,2,2,1,2,2,2,2,1,2,2,2,2,2,2,2,1,2,1,1,2,1,1,2,1,1,2,2,2,2,2,2,1,2,1,2,1,1,1,1,2,2,1,2,2,1,1,1,2,1,1,2,1,2,1,1,1,2,1,1,1,2,1,1,2,1,1,2,1,2,2,1,1,2,1,2,2,1,1,1,1,1,1,1,2,1,1,1,1,1,1,1,2,1,1,1,2,2,2,2,1,2,2,2,2,2,1,2,1,2,2],"img_shown":["img/250/equaldotsize/R/10_Ratio_250_L_4_R_16.png","img/500/equaldotanddens/L/7_Ratio_500_L_10_R_5.png","img/250/equaldotsize/R/11_Ratio_250_L_3_R_12.png","img/500/equaldotanddens/R/9_Ratio_500_L_2_R_4.png","img/250/equaldotanddens/L/7_Ratio_250_L_8_R_2.png","img/250/equaldotanddens/L/7_Ratio_250_L_8_R_2.png","img/750/equaldotanddens/R/11_Ratio_750_L_12_R_16.png","img/750/equaldotanddens/R/4_Ratio_750_L_15_R_20.png","img/500/equaldotanddens/R/9_Ratio_500_L_2_R_4.png","img/750/equaldotanddens/L/14_Ratio_750_L_8_R_6.png","img/250/randomdotsizeEA/R/10_Ratio_250_L_4_R_16.png","img/250/randomdotsizeEA/R/4_Ratio_250_L_3_R_12.png","img/500/randomdotsizeEA/L/8_Ratio_500_L_8_R_4.png","img/250/equaldotsize/R/11_Ratio_250_L_3_R_12.png","img/900/equaldotsize/R/13_Ratio_900_L_18_R_20.png","img/750/equaldotsize/R/12_Ratio_750_L_3_R_4.png","img/900/randomdotsizeEA/R/14_Ratio_900_L_18_R_20.png","img/900/randomdotsizeEA/L/1_Ratio_900_L_10_R_9.png","img/500/equaldotsize/R/12_Ratio_500_L_1_R_2.png","img/250/equaldotanddens/R/13_Ratio_250_L_2_R_8.png","img/750/equaldotsize/R/11_Ratio_750_L_12_R_16.png","img/750/equaldotsize/R/7_Ratio_750_L_3_R_4.png","img/900/equaldotsize/R/5_Ratio_900_L_9_R_10.png","img/750/randomdotsizeEA/R/11_Ratio_750_L_12_R_16.png","img/250/randomdotsizeEA/R/11_Ratio_250_L_3_R_12.png","img/750/equaldotanddens/L/9_Ratio_750_L_4_R_3.png","img/750/equaldotanddens/R/7_Ratio_750_L_3_R_4.png","img/750/equaldotsize/L/9_Ratio_750_L_4_R_3.png","img/500/equaldotanddens/L/10_Ratio_500_L_4_R_2.png","img/750/randomdotsizeEA/R/5_Ratio_750_L_15_R_20.png","img/250/randomdotsizeEA/L/3_Ratio_250_L_8_R_2.png","img/250/equaldotsize/L/3_Ratio_250_L_8_R_2.png","img/900/equaldotanddens/R/5_Ratio_900_L_9_R_10.png","img/500/randomdotsizeEA/L/8_Ratio_500_L_8_R_4.png","img/900/equaldotsize/L/1_Ratio_900_L_10_R_9.png","img/900/randomdotsizeEA/R/11_Ratio_900_L_18_R_20.png","img/500/randomdotsizeEA/R/12_Ratio_500_L_1_R_2.png","img/500/equaldotanddens/R/3_Ratio_500_L_10_R_20.png","img/750/equaldotsize/R/15_Ratio_750_L_9_R_12.png","img/250/equaldotanddens/R/12_Ratio_250_L_5_R_20.png","img/900/equaldotsize/R/3_Ratio_900_L_9_R_10.png","img/750/randomdotsizeEA/L/1_Ratio_750_L_20_R_15.png","img/900/randomdotsizeEA/R/15_Ratio_900_L_9_R_10.png","img/250/equaldotanddens/L/3_Ratio_250_L_8_R_2.png","img/900/equaldotanddens/R/7_Ratio_900_L_9_R_10.png","img/250/equaldotsize/L/15_Ratio_250_L_12_R_3.png","img/750/randomdotsizeEA/L/9_Ratio_750_L_4_R_3.png","img/250/equaldotsize/L/14_Ratio_250_L_12_R_3.png","img/500/equaldotsize/L/13_Ratio_500_L_12_R_6.png","img/500/randomdotsizeEA/R/2_Ratio_500_L_3_R_6.png","img/750/randomdotsizeEA/R/12_Ratio_750_L_3_R_4.png","img/500/equaldotsize/L/5_Ratio_500_L_4_R_2.png","img/900/equaldotsize/R/5_Ratio_900_L_9_R_10.png","img/750/equaldotanddens/R/11_Ratio_750_L_12_R_16.png","img/250/randomdotsizeEA/L/5_Ratio_250_L_24_R_6.png","img/750/equaldotanddens/L/14_Ratio_750_L_8_R_6.png","img/500/randomdotsizeEA/L/5_Ratio_500_L_4_R_2.png","img/900/equaldotanddens/R/5_Ratio_900_L_9_R_10.png","img/900/equaldotanddens/L/1_Ratio_900_L_10_R_9.png","img/750/equaldotanddens/L/6_Ratio_750_L_24_R_18.png","img/900/randomdotsizeEA/R/11_Ratio_900_L_18_R_20.png","img/750/equaldotanddens/L/10_Ratio_750_L_4_R_3.png","img/900/equaldotsize/R/9_Ratio_900_L_18_R_20.png","img/900/randomdotsizeEA/L/4_Ratio_900_L_20_R_18.png","img/500/equaldotsize/L/5_Ratio_500_L_4_R_2.png","img/750/equaldotsize/L/1_Ratio_750_L_20_R_15.png","img/500/equaldotanddens/R/9_Ratio_500_L_2_R_4.png","img/900/equaldotanddens/L/1_Ratio_900_L_10_R_9.png","img/250/randomdotsizeEA/L/14_Ratio_250_L_12_R_3.png","img/900/equaldotanddens/L/10_Ratio_900_L_20_R_18.png","img/900/equaldotanddens/R/12_Ratio_900_L_18_R_20.png","img/900/randomdotsizeEA/L/10_Ratio_900_L_20_R_18.png","img/900/equaldotanddens/L/2_Ratio_900_L_20_R_18.png","img/250/randomdotsizeEA/R/6_Ratio_250_L_6_R_24.png","img/500/equaldotanddens/L/8_Ratio_500_L_8_R_4.png","img/500/equaldotanddens/L/5_Ratio_500_L_4_R_2.png","img/750/randomdotsizeEA/R/4_Ratio_750_L_15_R_20.png","img/500/equaldotanddens/L/5_Ratio_500_L_4_R_2.png","img/750/randomdotsizeEA/R/12_Ratio_750_L_3_R_4.png","img/250/equaldotsize/R/13_Ratio_250_L_2_R_8.png","img/500/randomdotsizeEA/L/10_Ratio_500_L_4_R_2.png","img/250/equaldotanddens/L/3_Ratio_250_L_8_R_2.png","img/500/equaldotsize/R/15_Ratio_500_L_1_R_2.png","img/250/equaldotsize/L/15_Ratio_250_L_12_R_3.png","img/750/randomdotsizeEA/R/2_Ratio_750_L_6_R_8.png","img/250/equaldotanddens/R/6_Ratio_250_L_6_R_24.png","img/250/equaldotsize/L/15_Ratio_250_L_12_R_3.png","img/750/randomdotsizeEA/L/9_Ratio_750_L_4_R_3.png","img/750/equaldotanddens/L/8_Ratio_750_L_4_R_3.png","img/500/randomdotsizeEA/L/11_Ratio_500_L_12_R_6.png","img/500/equaldotsize/L/10_Ratio_500_L_4_R_2.png","img/750/equaldotsize/L/13_Ratio_750_L_8_R_6.png","img/900/equaldotanddens/L/2_Ratio_900_L_20_R_18.png","img/900/equaldotanddens/R/12_Ratio_900_L_18_R_20.png","img/500/randomdotsizeEA/L/5_Ratio_500_L_4_R_2.png","img/500/randomdotsizeEA/L/10_Ratio_500_L_4_R_2.png","img/900/equaldotsize/L/4_Ratio_900_L_20_R_18.png","img/750/randomdotsizeEA/L/13_Ratio_750_L_8_R_6.png","img/900/randomdotsizeEA/L/2_Ratio_900_L_20_R_18.png","img/250/equaldotanddens/L/15_Ratio_250_L_12_R_3.png","img/250/randomdotsizeEA/L/5_Ratio_250_L_24_R_6.png","img/500/equaldotsize/R/1_Ratio_500_L_9_R_18.png","img/900/equaldotsize/L/4_Ratio_900_L_20_R_18.png","img/250/randomdotsizeEA/L/3_Ratio_250_L_8_R_2.png","img/750/equaldotsize/L/10_Ratio_750_L_4_R_3.png","img/750/equaldotsize/R/11_Ratio_750_L_12_R_16.png","img/250/randomdotsizeEA/R/13_Ratio_250_L_2_R_8.png","img/250/equaldotanddens/R/4_Ratio_250_L_3_R_12.png","img/900/randomdotsizeEA/R/5_Ratio_900_L_9_R_10.png","img/250/equaldotanddens/L/15_Ratio_250_L_12_R_3.png","img/750/equaldotsize/R/4_Ratio_750_L_15_R_20.png","img/500/equaldotanddens/R/14_Ratio_500_L_5_R_10.png","img/900/equaldotsize/R/12_Ratio_900_L_18_R_20.png","img/500/equaldotsize/R/12_Ratio_500_L_1_R_2.png","img/500/equaldotsize/R/15_Ratio_500_L_1_R_2.png","img/900/randomdotsizeEA/L/8_Ratio_900_L_20_R_18.png","img/250/equaldotsize/R/9_Ratio_250_L_3_R_12.png","img/500/randomdotsizeEA/L/7_Ratio_500_L_10_R_5.png","img/500/equaldotsize/R/3_Ratio_500_L_10_R_20.png","img/900/equaldotsize/R/14_Ratio_900_L_18_R_20.png"],"Rat0":[["12_Ratio_0_L_9_R_0.png","13_Ratio_0_L_6_R_0.png","5_Ratio_0_L_2_R_0.png","6_Ratio_0_L_4_R_0.png","8_Ratio_0_L_6_R_0.png"],["1_Ratio_0_L_0_R_17.png","10_Ratio_0_L_0_R_22.png","11_Ratio_0_L_0_R_1.png","14_Ratio_0_L_0_R_24.png","15_Ratio_0_L_0_R_4.png","2_Ratio_0_L_0_R_5.png","3_Ratio_0_L_0_R_17.png","4_Ratio_0_L_0_R_7.png","7_Ratio_0_L_0_R_19.png","9_Ratio_0_L_0_R_15.png"]],"Rat250":[["1_Ratio_250_L_8_R_2.png","14_Ratio_250_L_12_R_3.png","15_Ratio_250_L_12_R_3.png","2_Ratio_250_L_16_R_4.png","3_Ratio_250_L_8_R_2.png","5_Ratio_250_L_24_R_6.png","7_Ratio_250_L_8_R_2.png"],["10_Ratio_250_L_4_R_16.png","11_Ratio_250_L_3_R_12.png","12_Ratio_250_L_5_R_20.png","13_Ratio_250_L_2_R_8.png","4_Ratio_250_L_3_R_12.png","6_Ratio_250_L_6_R_24.png","8_Ratio_250_L_1_R_4.png","9_Ratio_250_L_3_R_12.png"]],"Rat500":[["10_Ratio_500_L_4_R_2.png","11_Ratio_500_L_12_R_6.png","13_Ratio_500_L_12_R_6.png","4_Ratio_500_L_18_R_9.png","5_Ratio_500_L_4_R_2.png","7_Ratio_500_L_10_R_5.png","8_Ratio_500_L_8_R_4.png"],["1_Ratio_500_L_9_R_18.png","12_Ratio_500_L_1_R_2.png","14_Ratio_500_L_5_R_10.png","15_Ratio_500_L_1_R_2.png","2_Ratio_500_L_3_R_6.png","3_Ratio_500_L_10_R_20.png","6_Ratio_500_L_9_R_18.png","9_Ratio_500_L_2_R_4.png"]],"Rat750":[["1_Ratio_750_L_20_R_15.png","10_Ratio_750_L_4_R_3.png","13_Ratio_750_L_8_R_6.png","14_Ratio_750_L_8_R_6.png","6_Ratio_750_L_24_R_18.png","8_Ratio_750_L_4_R_3.png","9_Ratio_750_L_4_R_3.png"],["11_Ratio_750_L_12_R_16.png","12_Ratio_750_L_3_R_4.png","15_Ratio_750_L_9_R_12.png","2_Ratio_750_L_6_R_8.png","3_Ratio_750_L_15_R_20.png","4_Ratio_750_L_15_R_20.png","5_Ratio_750_L_15_R_20.png","7_Ratio_750_L_3_R_4.png"]],"Rat900":[["1_Ratio_900_L_10_R_9.png","10_Ratio_900_L_20_R_18.png","2_Ratio_900_L_20_R_18.png","4_Ratio_900_L_20_R_18.png","8_Ratio_900_L_20_R_18.png"],["11_Ratio_900_L_18_R_20.png","12_Ratio_900_L_18_R_20.png","13_Ratio_900_L_18_R_20.png","14_Ratio_900_L_18_R_20.png","15_Ratio_900_L_9_R_10.png","3_Ratio_900_L_9_R_10.png","5_Ratio_900_L_9_R_10.png","6_Ratio_900_L_9_R_10.png","7_Ratio_900_L_9_R_10.png","9_Ratio_900_L_18_R_20.png"]],"Rat1000":[["10_Ratio_1000_L_16_R_16.png","11_Ratio_1000_L_6_R_6.png","12_Ratio_1000_L_14_R_14.png","13_Ratio_1000_L_20_R_20.png","15_Ratio_1000_L_15_R_15.png","2_Ratio_1000_L_17_R_17.png","4_Ratio_1000_L_9_R_9.png","5_Ratio_1000_L_6_R_6.png","6_Ratio_1000_L_19_R_19.png","8_Ratio_1000_L_14_R_14.png","9_Ratio_1000_L_25_R_25.png"],["1_Ratio_1000_L_1_R_1.png","14_Ratio_1000_L_17_R_17.png","3_Ratio_1000_L_17_R_17.png","7_Ratio_1000_L_6_R_6.png"]]}},{"start_time":1551801395652,"click_time":1551801396954,"finger_time":1551801396654,"fix_duration":1497.1195735155247,"trial":1,"RT":1002,"MT":300,"sideResp":1,"stimulus":"img/500/equaldotanddens/L/7_Ratio_500_L_10_R_5.png","xmouse":[760,760,760,760,760,760,760,760,760,760,760,760,760,760,760,760,760,760,760,760,760,760,760,760,760,760,760,760,760,760,760,760,760,760,760,760,760,760,760,760,760,760,760,760,760,760,760,760,759,755,725,695,665,638,621,608,600,588,582,577,560,546,537,529,526,514],"ymouse":[537,537,537,537,537,537,537,537,537,537,537,537,537,537,537,537,537,537,537,537,537,537,537,537,537,537,537,537,537,537,537,537,537,537,537,537,537,537,537,537,537,537,537,537,537,537,537,537,537,533,486,445,396,349,304,223,188,155,143,135,117,105,99,92,90,82],"timestamp_mouse":[8,33,42,62,83,101,122,143,161,181,202,223,241,262,282,302,322,342,362,381,403,422,442,461,482,502,521,543,561,582,601,622,642,663,682,702,723,743,762,782,802,821,842,862,882,902,921,941,962,983,1002,1022,1042,1062,1081,1103,1122,1142,1162,1182,1201,1221,1242,1263,1283,1301],"xSR":741.5,"ySR":469.95,"xT1":424.9,"yT1":0,"xT2":1058.1,"yT2":0,"toosoon":0,"cond_shown":"equaldotanddens","ratio_trial":500,"smaller_num":"5","larger_num":"10","correct_side":1,"subjID":"LUANACHAVESGONZALEZ31","gender":"1","age":"11","school":"6"},{"start_time":1551801398260,"click_time":1551801399055,"finger_time":1551801398933,"fix_duration":285.68262627145236,"trial":2,"RT":673,"MT":122,"sideResp":2,"stimulus":"img/250/equaldotsize/R/11_Ratio_250_L_3_R_12.png","xmouse":[806,806,806,806,806,806,806,806,806,806,806,806,806,806,806,806,806,806,806,806,806,806,806,806,806,806,806,806,806,806,806,812,824,839,884,927,959,1000,1036,1072],"ymouse":[504,504,504,504,504,504,504,504,504,504,504,504,504,504,504,504,504,504,504,504,504,504,504,504,504,504,504,504,504,504,504,495,479,458,347,243,175,115,73,35],"timestamp_mouse":[14,33,59,74,94,113,133,155,174,194,214,235,254,274,295,314,334,354,375,393,414,434,455,475,495,515,534,555,575,594,614,634,654,673,695,713,734,755,775,794],"xSR":741.5,"ySR":469.95,"xT1":424.9,"yT1":0,"xT2":1058.1,"yT2":0,"toosoon":0,"cond_shown":"equaldotsize","ratio_trial":250,"smaller_num":"3","larger_num":"12","correct_side":2,"subjID":"LUANACHAVESGONZALEZ31","gender":"1","age":"11","school":"6"},{"start_time":1551801401136,"click_time":1551801402315,"finger_time":1551801401933,"fix_duration":580.1887523464098,"trial":3,"RT":797,"MT":382,"sideResp":2,"stimulus":"img/500/equaldotanddens/R/9_Ratio_500_L_2_R_4.png","xmouse":[799,799,799,799,799,800,800,800,800,800,800,800,800,800,800,800,800,800,800,800,800,800,800,800,800,800,800,800,800,801,801,801,801,801,801,802,802,802,806,811,830,869,891,932,977,1009,1032,1033,1033,1033,1033,1035,1038,1040,1043,1046,1052,1056,1061],"ymouse":[484,484,484,484,482,482,482,481,480,479,478,478,478,478,478,478,478,478,478,478,478,478,478,478,478,478,478,478,478,477,477,477,477,477,477,476,476,475,473,469,457,420,387,325,262,216,175,172,172,172,171,163,153,143,132,119,94,81,71],"timestamp_mouse":[17,38,58,79,97,119,139,158,177,198,217,239,258,279,298,319,338,357,378,398,419,439,457,478,499,519,538,558,579,598,618,637,658,679,697,718,738,758,778,797,818,838,858,878,897,919,938,958,978,998,1018,1037,1059,1078,1099,1119,1137,1158,1179],"xSR":741.5,"ySR":469.95,"xT1":424.9,"yT1":0,"xT2":1058.1,"yT2":0,"toosoon":0,"cond_shown":"equaldotanddens","ratio_trial":500,"smaller_num":"2","larger_num":"4","correct_side":2,"subjID":"LUANACHAVESGONZALEZ31","gender":"1","age":"11","school":"6"},{"start_time":1551801404415,"click_time":1551801405414,"finger_time":1551801405014,"fix_duration":1058.3177632828736,"trial":4,"RT":599,"MT":400,"sideResp":1,"stimulus":"img/250/equaldotanddens/L/7_Ratio_250_L_8_R_2.png","xmouse":[817,817,817,817,817,817,817,817,817,817,817,817,817,817,817,817,817,817,817,817,817,817,817,817,817,817,817,817,814,801,786,759,737,712,705,696,686,678,671,659,653,648,643,634,619,603,585,566,538,525,513],"ymouse":[501,501,501,501,501,501,501,501,501,501,501,501,501,501,501,501,501,501,501,501,501,501,501,501,501,501,501,501,497,483,465,442,421,387,368,348,322,307,289,259,246,234,222,204,182,163,147,134,112,102,91],"timestamp_mouse":[3,19,42,59,80,98,119,140,159,179,199,219,240,259,279,299,320,339,358,378,399,419,440,460,478,499,519,538,559,579,599,618,640,660,680,698,719,740,759,779,799,820,839,860,878,899,919,940,958,978,999],"xSR":741.5,"ySR":469.95,"xT1":424.9,"yT1":0,"xT2":1058.1,"yT2":0,"toosoon":0,"cond_shown":"equaldotanddens","ratio_trial":250,"smaller_num":"2","larger_num":"8","correct_side":1,"subjID":"LUANACHAVESGONZALEZ31","gender":"1","age":"11","school":"6"},{"start_time":1551801407422,"click_time":1551801408574,"finger_time":1551801408094,"fix_duration":947.5100865952043,"trial":5,"RT":672,"MT":480,"sideResp":1,"stimulus":"img/250/equaldotanddens/L/7_Ratio_250_L_8_R_2.png","xmouse":[794,794,794,794,794,794,794,794,794,794,794,794,794,794,794,794,794,794,794,794,794,794,794,794,794,794,794,794,794,794,794,793,774,723,693,668,648,632,618,615,613,608,598,594,593,593,593,593,594,592,584,573,540,516,502,493,487,482],"ymouse":[488,488,488,488,488,488,488,488,488,488,488,488,488,488,488,488,488,488,488,488,488,488,488,488,488,488,488,488,488,488,488,488,471,429,417,405,399,392,382,376,369,360,341,333,330,326,319,306,274,257,237,219,170,136,121,110,101,89],"timestamp_mouse":[11,31,53,72,93,111,133,152,172,192,212,232,251,273,292,312,332,352,371,393,411,432,452,473,492,511,532,552,572,592,612,632,652,672,692,713,732,752,772,792,813,831,853,872,892,913,932,953,972,991,1012,1033,1053,1071,1092,1113,1132,1152],"xSR":741.5,"ySR":469.95,"xT1":424.9,"yT1":0,"xT2":1058.1,"yT2":0,"toosoon":0,"cond_shown":"equaldotanddens","ratio_trial":250,"smaller_num":"2","larger_num":"8","correct_side":1,"subjID":"LUANACHAVESGONZALEZ31","gender":"1","age":"11","school":"6"},{"start_time":1551801410557,"click_time":1551801411654,"finger_time":1551801411255,"fix_duration":1181.870495404341,"trial":6,"RT":698,"MT":399,"sideResp":2,"stimulus":"img/750/equaldotanddens/R/11_Ratio_750_L_12_R_16.png","xmouse":[816,816,816,816,816,816,816,816,816,816,816,816,816,816,816,816,816,816,816,816,816,816,816,816,816,816,816,817,818,820,826,834,838,841,843,853,886,898,905,909,917,929,933,939,947,956,968,974,979,984,995,1023,1038,1059,1088],"ymouse":[540,538,538,538,538,538,538,538,538,538,538,538,538,538,538,538,538,538,538,538,538,538,538,538,538,538,538,537,536,534,528,511,504,491,464,383,320,306,298,294,287,275,270,263,256,244,224,215,206,199,186,150,134,114,90],"timestamp_mouse":[17,49,57,76,97,118,137,156,177,197,217,237,257,278,297,316,338,357,377,397,418,437,458,476,497,517,538,557,576,597,618,637,657,677,698,718,737,757,776,798,818,837,858,877,896,916,937,958,977,997,1018,1037,1057,1076,1097],"xSR":741.5,"ySR":469.95,"xT1":424.9,"yT1":0,"xT2":1058.1,"yT2":0,"toosoon":0,"cond_shown":"equaldotanddens","ratio_trial":750,"smaller_num":"12","larger_num":"16","correct_side":2,"subjID":"LUANACHAVESGONZALEZ31","gender":"1","age":"11","school":"6"},{"start_time":1551801414466,"click_time":1551801415555,"finger_time":1551801415215,"fix_duration":250,"trial":7,"RT":749,"MT":340,"sideResp":2,"stimulus":"img/750/equaldotanddens/R/4_Ratio_750_L_15_R_20.png","xmouse":[790,790,790,790,790,790,790,790,790,790,790,790,790,790,790,790,790,790,790,790,790,790,790,790,790,790,790,793,796,797,797,799,802,804,808,812,816,826,832,836,843,859,871,886,906,928,949,986,1005,1013,1021,1034,1042,1050,1059],"ymouse":[530,530,530,530,530,530,530,530,530,530,530,530,530,530,530,530,530,530,530,530,530,530,530,530,530,530,530,528,526,525,525,524,520,514,506,495,482,450,431,420,409,377,358,334,306,277,253,211,185,170,156,133,120,106,92],"timestamp_mouse":[9,44,49,69,88,109,127,149,168,187,209,228,248,268,287,308,327,348,368,388,408,428,449,468,489,509,528,549,568,588,608,627,648,668,689,708,728,749,768,789,809,828,848,868,888,907,928,947,968,988,1008,1028,1048,1068,1089],"xSR":741.5,"ySR":469.95,"xT1":424.9,"yT1":0,"xT2":1058.1,"yT2":0,"toosoon":0,"cond_shown":"equaldotanddens","ratio_trial":750,"smaller_num":"15","larger_num":"20","correct_side":2,"subjID":"LUANACHAVESGONZALEZ31","gender":"1","age":"11","school":"6"},{"start_time":1551801416832,"click_time":1551801418054,"finger_time":1551801417633,"fix_duration":475.0506742886579,"trial":8,"RT":801,"MT":421,"sideResp":2,"stimulus":"img/500/equaldotanddens/R/9_Ratio_500_L_2_R_4.png","xmouse":[768,768,768,768,768,768,768,768,768,768,768,768,768,768,768,768,768,768,768,768,768,768,769,769,770,770,771,772,773,773,773,773,773,773,773,774,775,776,788,817,846,874,906,934,973,985,1000,1012,1024,1044,1049,1055,1060,1068,1072,1073,1073,1075,1077,1078,1080,1082],"ymouse":[545,545,545,545,545,545,545,545,545,545,545,545,545,545,545,545,545,545,545,545,545,545,545,545,544,543,543,542,542,542,542,542,542,542,542,541,540,539,533,520,504,484,456,429,378,352,324,297,271,224,211,198,186,164,150,143,134,128,114,108,101,95],"timestamp_mouse":[10,31,43,62,81,102,122,141,161,182,202,223,241,262,281,301,322,342,361,381,403,422,442,462,482,502,522,542,562,583,601,623,642,663,682,702,722,742,762,782,801,822,842,863,882,902,921,942,961,982,1003,1023,1043,1064,1081,1102,1123,1142,1163,1181,1202,1222],"xSR":741.5,"ySR":469.95,"xT1":424.9,"yT1":0,"xT2":1058.1,"yT2":0,"toosoon":0,"cond_shown":"equaldotanddens","ratio_trial":500,"smaller_num":"2","larger_num":"4","correct_side":2,"subjID":"LUANACHAVESGONZALEZ31","gender":"1","age":"11","school":"6"},{"start_time":1551801421229,"click_time":1551801422654,"finger_time":1551801422114,"fix_duration":594.3878803396934,"trial":9,"RT":885,"MT":540,"sideResp":1,"stimulus":"img/750/equaldotanddens/L/14_Ratio_750_L_8_R_6.png","xmouse":[797,797,797,797,797,797,797,797,797,797,797,797,797,797,797,797,797,797,797,797,797,797,797,797,797,797,797,797,797,797,797,797,797,797,797,797,797,797,797,796,793,789,786,780,769,766,763,757,750,742,721,712,705,695,669,651,628,615,606,579,565,554,544,533,519,519,519,519,519,519,503,501],"ymouse":[530,530,530,530,530,530,530,530,530,530,530,530,530,530,530,530,530,530,530,530,530,529,527,527,526,526,526,526,526,526,526,526,526,526,526,526,526,525,522,515,508,500,491,478,443,425,409,382,360,336,291,270,249,227,178,149,107,84,69,42,32,23,15,7,0,0,0,0,0,0,0,2],"timestamp_mouse":[5,31,46,66,85,106,124,146,164,184,206,226,244,265,286,304,325,346,364,385,405,425,445,464,484,504,526,545,564,584,605,625,645,665,686,704,725,745,764,785,805,825,845,865,885,905,925,944,965,985,1005,1025,1045,1064,1085,1106,1125,1145,1165,1185,1205,1225,1246,1265,1285,1305,1325,1345,1365,1385,1405,1425],"xSR":741.5,"ySR":469.95,"xT1":424.9,"yT1":0,"xT2":1058.1,"yT2":0,"toosoon":0,"cond_shown":"equaldotanddens","ratio_trial":750,"smaller_num":"6","larger_num":"8","correct_side":1,"subjID":"LUANACHAVESGONZALEZ31","gender":"1","age":"11","school":"6"},{"start_time":1551801424949,"click_time":1551801432533,"finger_time":1551801426615,"fix_duration":1273.8578588306946,"trial":10,"RT":1666,"MT":5918,"sideResp":1,"stimulus":"img/250/randomdotsizeEA/R/10_Ratio_250_L_4_R_16.png","xmouse":[823,821,821,821,821,821,820,820,820,820,820,820,820,820,820,820,820,820,820,820,820,820,820,820,820,820,820,820,820,820,820,820,820,820,820,820,820,820,820,820,820,820,820,820,820,820,820,820,820,820,820,820,820,820,820,820,820,820,820,820,820,820,820,820,820,820,820,820,820,820,820,820,820,820,820,820,820,820,821,825,826,829,834,844,844,844,844,844,844,844,844,844,844,844,844,844,844,844,844,844,844,843,843,842,842,842,842,842,842,842,842,842,842,842,842,842,842,842,842,842,842,839,834,825,819,819,819,819,819,819,819,819,819,819,819,819,819,819,819,819,818,818,818,817,816,815,814,814,807,797,795,794,793,793,793,793,793,793,792,791,791,790,790,790,790,790,790,790,790,790,790,790,790,790,790,790,790,790,790,790,790,790,790,790,790,790,790,790,790,790,790,790,790,790,790,790,790,790,790,790,790,790,790,790,790,790,790,790,790,790,790,790,790,790,790,790,790,790,790,790,790,790,790,790,790,790,790,790,790,790,790,790,790,790,790,790,790,790,790,790,790,790,790,790,790,790,790,790,790,790,790,790,790,790,790,790,790,790,790,790,790,790,790,790,790,790,790,790,790,790,790,790,790,790,790,790,790,790,790,790,790,790,790,790,790,790,790,790,790,790,790,790,790,790,790,790,790,790,790,790,790,790,790,790,790,790,790,790,790,790,790,790,790,790,790,790,790,790,790,790,790,790,790,790,790,790,790,790,790,790,790,790,790,790,790,790,790,790,790,790,790,790,790,790,790,794,795,795,795,795,795,795,795,795,795,780,763,740,713,675,668,663,660,656,652,638,627,617,610,598,594,589,584,578,564,559,551,545,539,523],"ymouse":[517,516,516,516,516,516,515,515,515,515,515,515,515,515,515,515,515,515,515,515,515,515,515,515,515,515,515,515,515,515,515,515,515,515,515,515,515,515,515,515,515,515,515,515,515,515,515,515,515,515,515,515,515,515,515,515,515,515,515,515,515,515,515,515,515,515,515,515,515,515,515,515,515,515,515,515,515,515,514,511,510,507,501,492,492,492,492,492,492,492,492,492,492,492,492,492,492,492,492,492,492,492,492,492,492,492,492,492,492,492,492,492,492,492,492,492,492,492,492,492,492,487,480,463,455,455,455,455,455,455,455,455,455,455,455,455,455,455,455,455,455,457,458,461,465,468,471,472,479,490,491,493,493,493,493,493,493,494,494,495,495,495,495,495,495,495,495,495,495,495,495,495,495,495,495,495,495,495,495,495,495,495,495,495,495,495,495,495,495,495,495,495,495,495,495,495,495,495,495,495,495,495,495,495,495,495,495,495,495,495,495,495,495,495,495,495,495,495,495,495,495,495,495,495,495,495,495,495,495,495,495,495,495,495,495,495,495,495,495,495,495,495,495,495,495,495,495,495,495,495,495,495,495,495,495,495,495,495,495,495,495,495,495,495,495,495,495,495,495,495,495,495,495,495,495,495,495,495,495,495,495,495,495,495,495,495,495,495,495,495,495,495,495,495,495,495,495,495,495,495,495,495,495,495,495,495,495,495,495,495,495,495,495,495,495,495,495,495,495,495,495,495,495,495,495,495,495,495,495,495,495,495,495,495,495,495,495,495,495,495,495,495,495,495,495,494,493,493,493,493,493,493,492,492,491,470,452,435,416,383,370,359,350,339,330,306,293,283,275,252,240,224,211,198,172,159,140,127,115,89],"timestamp_mouse":[5,36,45,65,85,106,125,144,166,186,205,225,245,265,286,304,326,346,365,385,405,424,446,465,485,505,525,544,565,585,606,624,646,666,686,705,726,746,765,785,806,825,846,865,885,906,925,944,966,986,1006,1025,1044,1065,1085,1105,1126,1145,1166,1185,1206,1224,1245,1264,1286,1304,1324,1345,1366,1386,1405,1425,1445,1464,1485,1505,1527,1546,1565,1586,1605,1625,1646,1666,1685,1705,1725,1745,1766,1785,1805,1826,1846,1866,1885,1905,1925,1945,1965,1985,2004,2026,2046,2065,2085,2105,2125,2145,2165,2186,2206,2226,2244,2266,2285,2305,2326,2345,2366,2384,2405,2425,2446,2465,2486,2505,2526,2545,2565,2584,2606,2625,2645,2665,2684,2704,2725,2745,2766,2786,2805,2825,2845,2866,2884,2905,2925,2944,2965,2986,3005,3025,3045,3066,3086,3105,3124,3145,3165,3185,3205,3226,3244,3264,3286,3305,3326,3344,3365,3385,3404,3425,3445,3464,3485,3504,3526,3545,3566,3585,3606,3625,3646,3664,3685,3706,3725,3746,3765,3785,3805,3825,3845,3864,3886,3905,3925,3946,3966,3986,4005,4024,4045,4065,4085,4105,4124,4146,4165,4185,4206,4226,4244,4265,4285,4304,4326,4345,4364,4385,4405,4424,4444,4465,4486,4504,4526,4545,4565,4586,4604,4624,4644,4665,4684,4706,4725,4744,4765,4786,4804,4825,4845,4865,4885,4904,4925,4945,4965,4985,5005,5026,5046,5065,5085,5106,5124,5146,5164,5184,5206,5225,5244,5266,5285,5305,5326,5345,5365,5384,5405,5426,5446,5465,5485,5505,5524,5546,5564,5585,5605,5625,5645,5665,5686,5706,5725,5745,5764,5784,5804,5826,5845,5865,5885,5905,5926,5945,5965,5985,6004,6026,6044,6066,6084,6106,6124,6146,6164,6185,6206,6225,6246,6264,6285,6306,6325,6346,6366,6384,6406,6425,6445,6464,6485,6506,6526,6545,6566,6585,6604,6625,6646,6666,6684,6706,6724,6746,6765,6785,6804,6826,6844,6865,6885,6905,6924,6944,6965,6984,7005,7025,7046,7066,7085,7106,7124,7145,7165,7185,7204,7225,7246,7265,7285,7306,7324,7344,7365,7385,7404,7426,7444,7466,7485,7505,7525,7544,7564,7584],"xSR":741.5,"ySR":469.95,"xT1":424.9,"yT1":0,"xT2":1058.1,"yT2":0,"toosoon":0,"cond_shown":"randomdotsizeEA","ratio_trial":250,"smaller_num":"4","larger_num":"16","correct_side":2,"subjID":"LUANACHAVESGONZALEZ31","gender":"1","age":"11","school":"6"},{"start_time":1551801434125,"click_time":1551801436834,"finger_time":1551801436054,"fix_duration":250,"trial":11,"RT":1929,"MT":780,"sideResp":1,"stimulus":"img/250/randomdotsizeEA/R/4_Ratio_250_L_3_R_12.png","xmouse":[796,796,796,796,796,796,796,796,796,796,796,796,796,796,796,796,796,796,796,796,796,796,796,796,796,796,796,796,796,796,796,796,796,796,796,796,796,796,796,796,796,796,796,796,796,796,796,796,796,796,796,796,796,796,796,796,796,796,796,796,796,796,796,796,796,796,796,796,796,796,796,796,796,796,796,796,796,796,796,796,796,796,797,797,797,797,797,796,796,795,794,789,787,784,779,774,756,750,745,741,738,731,725,718,709,703,698,695,691,685,678,658,648,639,626,622,601,594,585,577,568,551,547,542,539,537,536,536,536,536,536,534,532,528,525,521],"ymouse":[516,516,516,516,516,516,516,516,516,516,516,516,516,516,516,516,516,516,516,516,516,516,516,516,516,516,516,516,516,516,516,516,516,516,516,516,516,516,516,516,516,516,516,516,516,516,516,516,516,516,516,516,516,516,516,516,516,516,516,516,516,516,516,516,516,516,516,516,516,516,516,516,516,516,516,516,516,516,516,516,516,516,516,516,516,515,513,512,511,510,509,502,498,493,485,474,434,414,396,382,368,342,328,313,295,283,270,264,257,246,238,213,202,191,174,168,139,130,118,110,103,90,85,81,78,76,76,76,76,76,76,75,75,73,72,72],"timestamp_mouse":[8,42,49,69,90,108,129,150,168,189,209,228,250,269,290,309,329,348,368,389,409,430,450,469,490,509,528,550,568,589,608,629,648,669,690,708,729,749,768,790,810,830,849,869,888,910,928,950,968,989,1010,1029,1049,1070,1090,1108,1129,1149,1169,1190,1210,1230,1250,1269,1289,1308,1330,1348,1369,1389,1410,1428,1449,1469,1488,1509,1529,1548,1568,1590,1610,1628,1649,1669,1690,1708,1729,1749,1768,1789,1809,1829,1848,1870,1889,1909,1929,1949,1969,1989,2010,2029,2050,2070,2089,2108,2128,2149,2169,2190,2208,2229,2249,2269,2288,2310,2329,2349,2370,2389,2409,2429,2450,2468,2489,2509,2529,2550,2569,2589,2609,2629,2649,2669,2690,2709],"xSR":741.5,"ySR":469.95,"xT1":424.9,"yT1":0,"xT2":1058.1,"yT2":0,"toosoon":0,"cond_shown":"randomdotsizeEA","ratio_trial":250,"smaller_num":"3","larger_num":"12","correct_side":2,"subjID":"LUANACHAVESGONZALEZ31","gender":"1","age":"11","school":"6"},{"start_time":1551801438947,"click_time":1551801440073,"finger_time":1551801439594,"fix_duration":730.3464711492029,"trial":12,"RT":647,"MT":479,"sideResp":2,"stimulus":"img/500/randomdotsizeEA/L/8_Ratio_500_L_8_R_4.png","xmouse":[792,792,792,792,792,792,792,792,792,792,792,792,792,792,792,792,792,792,792,792,792,792,792,792,792,792,792,793,795,797,805,815,823,827,831,839,843,848,854,860,878,891,898,907,918,943,959,978,996,1015,1037,1046,1052,1057,1060,1071,1081],"ymouse":[496,496,496,496,496,496,496,496,496,496,496,496,496,496,496,496,496,496,496,496,496,496,496,496,496,496,496,497,496,495,488,473,458,447,433,407,394,379,366,356,333,318,308,297,285,259,244,227,212,196,170,156,146,136,129,109,96],"timestamp_mouse":[8,38,48,67,87,106,126,148,168,186,206,228,247,267,288,307,328,347,367,388,407,427,446,468,488,508,528,547,567,587,607,626,647,668,687,707,727,747,767,787,807,826,847,868,887,907,927,947,968,988,1007,1026,1046,1067,1087,1107,1126],"xSR":741.5,"ySR":469.95,"xT1":424.9,"yT1":0,"xT2":1058.1,"yT2":0,"toosoon":0,"cond_shown":"randomdotsizeEA","ratio_trial":500,"smaller_num":"4","larger_num":"8","correct_side":1,"subjID":"LUANACHAVESGONZALEZ31","gender":"1","age":"11","school":"6"},{"start_time":1551801442912,"click_time":1551801444674,"finger_time":1551801444274,"fix_duration":477.06474513338105,"trial":13,"RT":1362,"MT":400,"sideResp":2,"stimulus":"img/250/equaldotsize/R/11_Ratio_250_L_3_R_12.png","xmouse":[804,804,804,804,804,804,804,804,804,804,804,804,804,804,804,804,804,804,804,804,804,804,804,804,804,804,804,804,804,804,804,804,804,804,804,804,804,804,804,804,804,804,804,804,804,804,804,804,804,804,804,804,804,804,804,804,804,804,804,804,804,804,804,804,804,804,809,825,886,924,958,976,993,1012,1023,1035,1047,1073,1085,1093,1096,1098,1098,1095,1093,1090,1085,1077,1065],"ymouse":[536,536,536,536,536,536,536,536,536,536,536,536,536,536,536,536,536,536,536,536,536,536,536,536,536,536,536,536,536,536,536,536,536,536,536,536,536,536,536,536,536,536,536,536,536,536,536,536,536,536,536,536,536,536,536,536,536,536,536,536,536,536,536,536,536,533,529,511,462,439,412,391,359,311,287,267,250,213,196,182,172,167,153,146,141,135,127,115,95],"timestamp_mouse":[10,22,42,62,83,102,122,142,162,181,203,222,243,263,282,302,322,341,363,382,402,422,443,462,482,501,523,541,563,581,602,623,643,661,683,701,723,741,762,783,803,821,842,863,882,902,923,941,963,981,1003,1023,1041,1063,1083,1101,1123,1141,1162,1181,1203,1221,1242,1263,1282,1302,1322,1342,1362,1381,1402,1422,1442,1462,1482,1501,1522,1543,1562,1582,1602,1623,1643,1662,1682,1701,1722,1741,1762],"xSR":741.5,"ySR":469.95,"xT1":424.9,"yT1":0,"xT2":1058.1,"yT2":0,"toosoon":0,"cond_shown":"equaldotsize","ratio_trial":250,"smaller_num":"3","larger_num":"12","correct_side":2,"subjID":"LUANACHAVESGONZALEZ31","gender":"1","age":"11","school":"6"},{"start_time":1551801446715,"click_time":1551801448114,"finger_time":1551801447874,"fix_duration":1158.240944458989,"trial":14,"RT":1159,"MT":240,"sideResp":2,"stimulus":"img/900/equaldotsize/R/13_Ratio_900_L_18_R_20.png","xmouse":[784,784,784,784,784,784,784,784,784,784,784,784,784,784,784,784,784,784,784,784,784,784,784,784,784,784,784,784,784,784,784,784,784,784,784,784,784,784,784,784,784,784,784,784,784,784,784,784,784,784,784,784,784,784,789,800,812,824,857,885,922,948,963,994,1008,1021,1033,1054,1091,1104,1114],"ymouse":[524,524,524,524,524,524,524,524,524,524,524,524,524,524,524,524,524,524,524,524,524,524,524,524,524,524,524,524,524,524,524,524,524,524,524,524,524,524,524,524,524,524,524,524,524,524,524,524,524,524,524,524,524,524,520,514,508,499,455,416,363,329,307,262,236,214,193,164,118,103,93],"timestamp_mouse":[1,19,39,59,80,100,119,140,159,180,199,218,240,259,278,298,319,338,359,379,399,420,440,459,479,499,518,540,558,580,600,620,639,659,678,699,720,740,758,780,799,819,840,858,878,899,920,939,960,978,998,1019,1040,1058,1079,1099,1118,1139,1159,1179,1199,1219,1238,1260,1279,1299,1319,1339,1359,1380,1399],"xSR":741.5,"ySR":469.95,"xT1":424.9,"yT1":0,"xT2":1058.1,"yT2":0,"toosoon":0,"cond_shown":"equaldotsize","ratio_trial":900,"smaller_num":"18","larger_num":"20","correct_side":2,"subjID":"LUANACHAVESGONZALEZ31","gender":"1","age":"11","school":"6"},{"start_time":1551801449425,"click_time":1551801450695,"finger_time":1551801450314,"fix_duration":250,"trial":15,"RT":889,"MT":381,"sideResp":2,"stimulus":"img/750/equaldotsize/R/12_Ratio_750_L_3_R_4.png","xmouse":[810,810,810,810,810,810,810,810,810,810,810,810,810,810,810,810,810,810,810,810,810,810,810,810,810,810,810,810,810,810,810,810,810,810,810,810,810,810,810,810,811,811,815,830,843,863,883,935,961,982,1000,1016,1042,1054,1068,1076,1084,1104,1113,1119,1122,1124,1126,1129],"ymouse":[522,522,522,522,522,522,522,522,522,522,522,522,522,522,522,522,522,522,522,522,522,522,522,522,522,522,522,522,522,522,522,522,522,522,522,522,522,522,522,522,521,520,517,504,492,473,449,392,363,336,312,289,250,234,213,200,185,150,135,123,118,113,108,99],"timestamp_mouse":[9,39,49,69,88,108,130,150,170,189,210,230,249,269,288,310,330,350,368,388,409,430,449,470,489,510,528,549,569,589,608,630,650,669,690,709,730,750,769,788,809,829,849,869,889,910,929,949,969,989,1009,1029,1050,1068,1089,1109,1130,1149,1169,1188,1210,1229,1248,1270],"xSR":741.5,"ySR":469.95,"xT1":424.9,"yT1":0,"xT2":1058.1,"yT2":0,"toosoon":0,"cond_shown":"equaldotsize","ratio_trial":750,"smaller_num":"3","larger_num":"4","correct_side":2,"subjID":"LUANACHAVESGONZALEZ31","gender":"1","age":"11","school":"6"},{"start_time":1551801452045,"click_time":1551801455754,"finger_time":1551801454493,"fix_duration":348.7620716590879,"trial":16,"RT":2448,"MT":1261,"sideResp":2,"stimulus":"img/900/randomdotsizeEA/R/14_Ratio_900_L_18_R_20.png","xmouse":[818,818,818,818,818,818,818,818,818,818,818,818,818,818,818,818,818,818,818,818,818,818,818,818,818,818,818,818,818,818,818,818,818,818,818,818,818,818,818,818,818,818,818,818,818,818,818,818,818,818,818,818,818,818,818,818,818,818,818,818,818,818,818,818,818,818,818,818,818,818,818,818,818,818,818,818,818,818,818,818,818,818,818,818,818,818,818,818,818,818,818,818,818,818,818,818,818,818,818,818,818,818,818,818,818,818,818,818,818,818,818,818,818,818,818,818,818,818,818,818,820,831,852,868,892,909,917,926,929,934,942,949,967,974,982,993,1005,1034,1050,1065,1081,1085,1091,1092,1094,1096,1096,1097,1099,1099,1100,1100,1101,1101,1101,1102,1102,1102,1102,1102,1102,1102,1102,1102,1102,1102,1102,1102,1102,1102,1102,1102,1102,1102,1102,1102,1102,1102,1102,1102,1102,1102,1102,1102,1102,1102],"ymouse":[534,534,534,534,534,534,534,534,534,534,534,534,534,534,534,534,534,534,534,534,534,534,534,534,534,534,534,534,534,534,534,534,534,534,534,534,534,534,534,534,534,534,534,534,534,534,534,534,535,535,535,535,535,535,535,535,535,535,535,535,535,535,535,535,535,535,535,535,535,535,535,535,535,535,535,535,535,535,535,535,535,535,535,535,535,535,535,535,535,535,535,535,535,535,535,535,535,535,535,535,535,535,535,535,535,535,535,535,535,535,535,535,535,535,535,535,535,535,535,533,530,521,488,455,412,381,362,334,320,304,280,267,239,229,218,206,191,166,152,141,129,126,121,120,118,117,117,115,113,112,110,109,106,106,106,105,105,105,105,105,104,104,104,104,104,104,104,104,104,104,104,104,104,104,104,104,104,104,104,104,104,104,103,100,100,99],"timestamp_mouse":[9,39,49,70,89,109,130,149,168,190,208,228,249,269,289,310,328,350,369,390,408,430,448,469,490,510,529,550,570,589,610,630,650,670,689,709,729,749,769,790,808,830,850,868,888,910,928,950,970,989,1010,1028,1050,1070,1089,1108,1130,1149,1170,1189,1209,1230,1250,1270,1289,1309,1330,1350,1368,1390,1409,1429,1450,1469,1490,1508,1529,1550,1568,1588,1610,1630,1649,1668,1690,1710,1730,1749,1769,1790,1810,1829,1850,1869,1888,1909,1929,1950,1969,1990,2010,2028,2050,2068,2088,2109,2129,2150,2168,2189,2209,2230,2249,2269,2289,2309,2329,2350,2369,2389,2410,2429,2448,2469,2489,2509,2529,2549,2569,2588,2608,2629,2649,2669,2688,2709,2728,2749,2769,2789,2809,2830,2850,2868,2889,2909,2930,2949,2970,2989,3009,3030,3049,3069,3089,3109,3129,3148,3169,3189,3208,3229,3250,3269,3289,3309,3328,3350,3369,3389,3409,3429,3450,3469,3490,3509,3529,3549,3568,3588,3608,3628,3648,3668,3690,3709],"xSR":741.5,"ySR":469.95,"xT1":424.9,"yT1":0,"xT2":1058.1,"yT2":0,"toosoon":0,"cond_shown":"randomdotsizeEA","ratio_trial":900,"smaller_num":"18","larger_num":"20","correct_side":2,"subjID":"LUANACHAVESGONZALEZ31","gender":"1","age":"11","school":"6"},{"start_time":1551801458161,"click_time":1551801459274,"finger_time":1551801458934,"fix_duration":665.545180424483,"trial":17,"RT":773,"MT":340,"sideResp":1,"stimulus":"img/900/randomdotsizeEA/L/1_Ratio_900_L_10_R_9.png","xmouse":[788,788,788,788,788,788,788,788,788,788,788,788,788,788,788,788,788,788,788,788,788,788,788,788,788,788,788,788,788,788,788,788,788,788,786,782,776,764,759,752,740,728,691,683,675,668,648,636,626,613,601,583,567,553,537,522],"ymouse":[516,516,516,516,516,516,516,516,516,516,516,516,516,516,516,516,516,516,516,516,516,516,516,516,516,516,516,516,516,516,516,516,516,516,512,503,492,472,465,456,440,422,377,363,348,335,302,284,264,244,223,189,162,136,109,87],"timestamp_mouse":[14,37,53,73,93,114,132,152,173,192,214,233,252,272,293,313,333,353,372,392,413,432,453,472,492,512,532,553,572,592,612,633,653,673,692,712,732,752,773,793,812,833,853,873,894,912,934,952,972,994,1013,1033,1052,1072,1093,1112],"xSR":741.5,"ySR":469.95,"xT1":424.9,"yT1":0,"xT2":1058.1,"yT2":0,"toosoon":0,"cond_shown":"randomdotsizeEA","ratio_trial":900,"smaller_num":"9","larger_num":"10","correct_side":1,"subjID":"LUANACHAVESGONZALEZ31","gender":"1","age":"11","school":"6"},{"start_time":1551801460280,"click_time":1551801461413,"finger_time":1551801461153,"fix_duration":305.8936881039198,"trial":18,"RT":873,"MT":260,"sideResp":2,"stimulus":"img/500/equaldotsize/R/12_Ratio_500_L_1_R_2.png","xmouse":[761,762,762,762,763,763,763,763,763,763,763,763,763,763,763,763,763,763,763,763,763,763,763,763,763,763,763,763,763,763,763,763,763,763,763,763,763,763,763,765,776,787,805,833,865,894,934,943,955,972,994,1028,1038,1044,1048,1062,1067],"ymouse":[541,538,535,534,533,532,530,530,530,530,530,530,530,530,530,530,530,530,530,530,530,530,530,530,530,530,530,530,530,530,530,530,530,530,530,530,530,530,530,527,517,507,491,455,418,385,345,326,300,256,210,154,139,131,125,105,98],"timestamp_mouse":[13,45,54,73,94,113,135,154,175,193,213,234,253,275,294,315,333,354,374,393,413,433,453,474,493,515,534,554,574,594,614,634,654,673,694,713,734,755,773,794,814,834,855,873,893,913,933,953,974,994,1015,1033,1053,1074,1094,1114,1133],"xSR":741.5,"ySR":469.95,"xT1":424.9,"yT1":0,"xT2":1058.1,"yT2":0,"toosoon":0,"cond_shown":"equaldotsize","ratio_trial":500,"smaller_num":"1","larger_num":"2","correct_side":2,"subjID":"LUANACHAVESGONZALEZ31","gender":"1","age":"11","school":"6"},{"start_time":1551801462665,"click_time":1551801463753,"finger_time":1551801463553,"fix_duration":250,"trial":19,"RT":888,"MT":200,"sideResp":2,"stimulus":"img/250/equaldotanddens/R/13_Ratio_250_L_2_R_8.png","xmouse":[798,798,798,798,798,798,798,798,798,798,798,798,798,798,798,798,798,798,798,798,798,798,798,798,798,798,798,798,798,798,798,798,798,798,798,798,798,798,798,798,798,800,808,814,829,840,854,887,901,917,934,960,1023,1049,1080],"ymouse":[496,496,496,496,496,496,496,496,496,496,496,496,496,496,496,496,496,496,496,496,496,496,496,496,496,496,496,496,496,496,496,496,496,496,496,496,496,496,496,496,496,492,484,478,466,447,423,376,355,329,298,255,164,128,93],"timestamp_mouse":[10,42,50,68,89,110,128,148,169,188,210,229,248,268,288,309,330,348,369,388,408,428,449,468,488,509,528,548,568,588,610,628,649,669,689,709,728,749,768,788,808,828,848,868,888,908,928,948,969,988,1009,1028,1048,1068,1088],"xSR":741.5,"ySR":469.95,"xT1":424.9,"yT1":0,"xT2":1058.1,"yT2":0,"toosoon":0,"cond_shown":"equaldotanddens","ratio_trial":250,"smaller_num":"2","larger_num":"8","correct_side":2,"subjID":"LUANACHAVESGONZALEZ31","gender":"1","age":"11","school":"6"},{"start_time":1551801465255,"click_time":1551801466314,"finger_time":1551801465974,"fix_duration":361.01884138389164,"trial":20,"RT":719,"MT":340,"sideResp":2,"stimulus":"img/750/equaldotsize/R/11_Ratio_750_L_12_R_16.png","xmouse":[808,808,808,808,808,808,808,808,808,808,808,808,808,808,808,808,808,808,808,808,808,808,808,808,808,808,808,808,808,808,808,808,808,810,818,832,851,879,898,916,935,956,1007,1023,1043,1051,1055,1066,1071,1073,1075,1078,1080],"ymouse":[487,487,487,487,487,487,487,487,487,487,487,487,487,487,487,487,487,487,487,487,487,487,487,487,487,487,487,487,487,487,487,487,487,486,477,465,449,407,377,352,326,297,238,218,193,180,170,145,131,121,112,106,98],"timestamp_mouse":[19,39,60,78,98,118,138,158,178,200,218,239,259,279,299,318,339,358,378,399,418,438,458,479,498,518,540,559,580,598,618,638,659,679,698,719,739,759,778,798,819,839,858,879,899,919,938,959,978,998,1019,1039,1058],"xSR":741.5,"ySR":469.95,"xT1":424.9,"yT1":0,"xT2":1058.1,"yT2":0,"toosoon":0,"cond_shown":"equaldotsize","ratio_trial":750,"smaller_num":"12","larger_num":"16","correct_side":2,"subjID":"LUANACHAVESGONZALEZ31","gender":"1","age":"11","school":"6"},{"start_time":1551801467686,"click_time":1551801468714,"finger_time":1551801468453,"fix_duration":250,"trial":21,"RT":767,"MT":261,"sideResp":2,"stimulus":"img/750/equaldotsize/R/7_Ratio_750_L_3_R_4.png","xmouse":[771,771,771,771,771,771,771,771,771,771,771,771,771,771,771,771,771,771,771,771,771,771,771,771,771,771,771,771,771,771,771,771,770,773,778,786,805,818,833,854,879,947,995,1023,1042,1060,1088,1098,1110,1120,1130,1156],"ymouse":[528,528,528,528,528,528,528,528,528,528,528,528,528,528,528,528,528,528,528,528,528,528,528,528,528,528,528,528,528,528,528,528,528,524,515,508,490,475,457,437,414,353,310,281,261,241,203,186,168,151,134,93],"timestamp_mouse":[9,44,47,69,87,107,128,147,167,188,207,227,247,269,288,308,328,347,367,388,407,427,448,468,487,507,527,547,567,587,608,628,648,667,688,707,728,747,767,787,807,828,847,867,887,907,927,947,967,988,1008,1028],"xSR":741.5,"ySR":469.95,"xT1":424.9,"yT1":0,"xT2":1058.1,"yT2":0,"toosoon":0,"cond_shown":"equaldotsize","ratio_trial":750,"smaller_num":"3","larger_num":"4","correct_side":2,"subjID":"LUANACHAVESGONZALEZ31","gender":"1","age":"11","school":"6"},{"start_time":1551801470248,"click_time":1551801471615,"finger_time":1551801471134,"fix_duration":632.8563597569537,"trial":22,"RT":886,"MT":481,"sideResp":2,"stimulus":"img/900/equaldotsize/R/5_Ratio_900_L_9_R_10.png","xmouse":[806,806,806,806,806,806,806,806,806,806,806,806,806,806,806,806,806,806,806,806,806,806,806,806,806,806,806,806,806,806,806,806,806,806,806,806,806,806,806,806,808,811,816,828,849,860,871,886,916,932,945,955,964,974,992,999,1006,1013,1016,1023,1027,1029,1032,1034,1042,1047,1055,1066,1106],"ymouse":[536,536,536,536,536,536,536,536,536,536,536,536,536,536,536,536,536,536,536,536,536,536,536,536,536,536,536,536,536,536,536,536,536,536,536,536,536,536,536,536,531,526,516,499,473,458,442,424,380,357,338,320,302,286,248,233,222,210,201,185,176,170,166,158,145,138,126,108,56],"timestamp_mouse":[8,36,46,65,85,106,125,146,166,186,205,227,246,265,286,306,325,346,366,386,406,427,445,466,485,505,525,545,567,587,605,625,646,665,686,705,727,745,765,786,806,825,847,866,886,906,927,945,967,985,1006,1026,1045,1066,1085,1105,1127,1147,1165,1185,1206,1226,1247,1266,1286,1305,1325,1345,1367],"xSR":741.5,"ySR":469.95,"xT1":424.9,"yT1":0,"xT2":1058.1,"yT2":0,"toosoon":0,"cond_shown":"equaldotsize","ratio_trial":900,"smaller_num":"9","larger_num":"10","correct_side":2,"subjID":"LUANACHAVESGONZALEZ31","gender":"1","age":"11","school":"6"},{"start_time":1551801473775,"click_time":1551801475654,"finger_time":1551801474633,"fix_duration":1359.6570995970496,"trial":23,"RT":858,"MT":1021,"sideResp":1,"stimulus":"img/750/randomdotsizeEA/R/11_Ratio_750_L_12_R_16.png","xmouse":[775,775,775,775,775,775,775,775,775,775,775,775,775,775,775,775,775,775,775,775,775,775,775,775,775,775,775,775,775,775,775,775,775,775,775,775,775,775,775,775,774,771,767,759,754,745,736,724,694,681,668,659,652,639,632,621,615,610,605,603,601,598,593,579,577,574,573,573,565,558,552,545,541,538,538,536,533,530,528,528,528,528,528,528,528,528,528,528,528,528,528,528,528,528,524],"ymouse":[518,518,518,518,518,518,518,518,518,518,518,518,518,518,518,518,518,518,518,518,518,518,518,518,518,518,518,518,518,518,518,518,518,518,518,518,518,518,518,516,511,501,485,456,438,410,389,369,325,306,289,274,262,240,228,209,198,190,183,181,178,173,168,153,150,147,145,142,118,100,85,73,67,62,62,59,55,51,50,50,50,50,50,50,50,50,50,50,50,50,50,50,50,50,50],"timestamp_mouse":[1,18,45,59,78,99,118,138,159,178,199,218,238,259,279,298,319,338,358,378,399,418,439,459,478,499,518,539,558,578,598,618,638,658,678,698,718,739,758,779,799,819,839,858,878,898,918,938,958,978,998,1019,1040,1058,1078,1098,1119,1139,1158,1178,1198,1218,1239,1259,1279,1298,1319,1338,1359,1378,1399,1418,1438,1459,1479,1498,1519,1538,1558,1579,1599,1619,1638,1659,1678,1698,1719,1740,1758,1778,1798,1818,1839,1859,1879],"xSR":741.5,"ySR":469.95,"xT1":424.9,"yT1":0,"xT2":1058.1,"yT2":0,"toosoon":0,"cond_shown":"randomdotsizeEA","ratio_trial":750,"smaller_num":"12","larger_num":"16","correct_side":2,"subjID":"LUANACHAVESGONZALEZ31","gender":"1","age":"11","school":"6"},{"start_time":1551801478075,"click_time":1551801479914,"finger_time":1551801479453,"fix_duration":1139.5805374075724,"trial":24,"RT":1378,"MT":461,"sideResp":2,"stimulus":"img/250/randomdotsizeEA/R/11_Ratio_250_L_3_R_12.png","xmouse":[773,773,773,773,773,773,773,773,773,773,773,773,773,773,773,773,773,773,773,773,773,773,773,773,773,773,773,773,773,773,773,773,773,773,773,773,773,773,773,773,773,773,773,773,773,773,773,773,773,773,773,773,773,773,773,773,773,773,773,773,773,773,773,773,774,774,775,779,787,813,827,841,852,879,892,902,909,917,932,950,959,967,975,986,1010,1020,1027,1033,1038,1047,1053,1057,1060],"ymouse":[518,518,518,518,518,518,518,518,518,518,518,518,518,518,518,518,518,518,518,518,518,518,518,518,518,518,518,518,518,518,518,518,518,518,518,518,518,518,518,518,518,518,518,518,518,518,518,518,518,518,518,518,518,518,518,518,518,518,518,518,518,518,518,518,515,508,501,489,476,437,415,392,373,325,302,285,273,261,243,216,203,191,179,164,142,133,122,114,107,96,89,84,82],"timestamp_mouse":[1,45,52,58,79,98,119,139,159,179,198,218,238,259,280,298,318,338,358,380,398,420,438,458,478,499,520,538,559,578,598,619,639,658,679,698,718,738,758,779,798,818,839,858,878,899,920,940,958,980,999,1019,1039,1060,1079,1098,1118,1138,1158,1179,1200,1219,1239,1260,1278,1298,1318,1339,1359,1378,1399,1418,1439,1460,1478,1498,1518,1538,1558,1578,1599,1618,1638,1658,1678,1699,1719,1739,1758,1778,1798,1818,1838],"xSR":741.5,"ySR":469.95,"xT1":424.9,"yT1":0,"xT2":1058.1,"yT2":0,"toosoon":0,"cond_shown":"randomdotsizeEA","ratio_trial":250,"smaller_num":"3","larger_num":"12","correct_side":2,"subjID":"LUANACHAVESGONZALEZ31","gender":"1","age":"11","school":"6"},{"start_time":1551801481104,"click_time":1551801482553,"finger_time":1551801482093,"fix_duration":250,"trial":25,"RT":989,"MT":460,"sideResp":2,"stimulus":"img/750/equaldotanddens/L/9_Ratio_750_L_4_R_3.png","xmouse":[763,765,766,768,769,769,770,770,770,770,770,770,770,770,770,770,770,770,770,770,770,770,770,770,770,770,770,770,770,770,770,770,770,770,770,770,770,770,770,770,770,770,770,770,770,770,770,772,808,857,900,929,951,952,960,966,971,978,982,987,991,995,1001,1003,1007,1010,1012,1019,1025,1033,1040,1049,1064],"ymouse":[536,535,534,533,533,533,533,533,533,533,533,533,533,533,533,533,533,533,533,533,533,533,533,533,533,533,533,533,533,533,533,533,533,533,533,533,533,533,533,533,533,533,533,533,533,533,533,531,515,493,480,474,465,463,446,429,414,387,371,353,332,314,279,260,233,215,196,168,154,141,129,116,93],"timestamp_mouse":[10,30,49,70,89,111,130,149,170,189,210,231,250,270,289,310,329,349,371,389,410,430,449,470,489,509,529,549,571,590,611,630,649,671,690,710,731,749,769,789,811,829,849,869,891,909,929,950,969,989,1010,1031,1050,1070,1089,1109,1130,1149,1169,1190,1210,1229,1250,1270,1289,1309,1330,1350,1369,1389,1409,1430,1449],"xSR":741.5,"ySR":469.95,"xT1":424.9,"yT1":0,"xT2":1058.1,"yT2":0,"toosoon":0,"cond_shown":"equaldotanddens","ratio_trial":750,"smaller_num":"3","larger_num":"4","correct_side":1,"subjID":"LUANACHAVESGONZALEZ31","gender":"1","age":"11","school":"6"},{"start_time":1551801484930,"click_time":1551801486375,"finger_time":1551801486014,"fix_duration":1474.4457328589792,"trial":26,"RT":1084,"MT":361,"sideResp":2,"stimulus":"img/750/equaldotanddens/R/7_Ratio_750_L_3_R_4.png","xmouse":[788,788,788,788,788,788,788,788,788,789,789,789,789,789,789,789,789,789,789,790,791,792,793,793,793,793,793,793,793,793,793,793,793,793,793,793,793,793,793,793,793,793,793,793,793,794,794,794,797,804,810,818,823,833,857,890,953,973,992,1012,1032,1054,1061,1062,1062,1062,1059,1057,1057,1057,1058,1062,1080],"ymouse":[505,505,505,505,505,505,505,505,505,505,505,505,505,505,505,505,505,505,504,503,503,501,500,500,500,500,500,500,500,500,500,500,500,500,500,500,500,500,500,500,500,500,500,500,500,500,500,501,502,502,502,498,487,473,440,386,321,305,291,277,262,236,206,184,164,149,129,124,122,119,116,110,89],"timestamp_mouse":[8,24,43,65,84,103,123,145,163,183,203,225,243,263,285,303,324,344,365,383,403,423,443,464,483,503,525,543,564,584,604,624,644,665,685,704,724,743,764,783,804,824,843,864,885,903,923,943,964,984,1003,1024,1044,1063,1084,1104,1123,1143,1164,1183,1204,1223,1243,1264,1283,1303,1325,1343,1364,1384,1404,1424,1445],"xSR":741.5,"ySR":469.95,"xT1":424.9,"yT1":0,"xT2":1058.1,"yT2":0,"toosoon":0,"cond_shown":"equaldotanddens","ratio_trial":750,"smaller_num":"3","larger_num":"4","correct_side":2,"subjID":"LUANACHAVESGONZALEZ31","gender":"1","age":"11","school":"6"},{"start_time":1551801490877,"click_time":1551801492313,"finger_time":1551801491774,"fix_duration":361.7865031415919,"trial":27,"RT":897,"MT":539,"sideResp":1,"stimulus":"img/750/equaldotsize/L/9_Ratio_750_L_4_R_3.png","xmouse":[804,804,804,804,804,804,804,804,804,804,804,804,804,804,804,804,804,804,804,804,804,804,804,804,804,804,804,804,804,804,804,804,804,804,804,804,804,804,804,804,794,784,770,758,719,697,683,666,654,646,631,618,610,599,582,576,571,565,559,539,519,507,501,497,494,492,489,487,486,483,482,482],"ymouse":[539,539,539,539,539,539,539,539,539,539,539,539,539,539,539,539,539,539,539,539,539,539,539,539,539,538,537,537,537,537,537,537,537,537,537,537,537,537,536,534,525,515,503,489,417,370,338,308,290,280,266,257,250,241,222,213,206,199,191,173,160,152,146,140,127,120,115,110,107,101,100,96],"timestamp_mouse":[16,37,61,76,98,117,137,156,176,197,216,237,256,276,297,317,338,356,376,397,416,438,457,477,497,516,537,556,577,596,618,636,656,676,696,718,736,756,776,796,818,836,856,876,897,916,938,956,977,996,1016,1036,1056,1076,1097,1116,1136,1157,1176,1197,1216,1236,1256,1277,1296,1317,1336,1357,1377,1396,1416,1436],"xSR":741.5,"ySR":469.95,"xT1":424.9,"yT1":0,"xT2":1058.1,"yT2":0,"toosoon":0,"cond_shown":"equaldotsize","ratio_trial":750,"smaller_num":"3","larger_num":"4","correct_side":1,"subjID":"LUANACHAVESGONZALEZ31","gender":"1","age":"11","school":"6"},{"start_time":1551801493920,"click_time":1551801495254,"finger_time":1551801494773,"fix_duration":624.0522780403935,"trial":28,"RT":853,"MT":481,"sideResp":1,"stimulus":"img/500/equaldotanddens/L/10_Ratio_500_L_4_R_2.png","xmouse":[759,759,759,759,759,759,759,759,759,759,759,759,759,759,759,759,759,759,759,759,759,759,759,759,759,759,759,759,759,759,759,759,759,759,759,759,759,759,759,759,759,757,748,716,699,688,678,663,655,642,625,611,586,579,573,568,565,555,527,515,510,509,500,491,479,467,458],"ymouse":[495,495,495,495,495,495,495,495,495,495,495,495,495,495,495,495,495,495,495,495,495,495,495,495,495,495,495,495,495,495,495,495,495,495,495,495,495,495,495,495,492,485,469,410,378,356,338,306,293,274,254,237,207,198,193,188,185,178,161,154,150,147,135,125,112,102,95],"timestamp_mouse":[19,36,54,74,94,114,134,153,173,193,213,234,253,274,295,313,334,353,373,395,415,434,453,475,493,513,534,555,573,594,615,634,653,673,694,714,734,755,774,794,813,833,853,873,893,913,934,954,973,993,1015,1034,1054,1073,1094,1114,1133,1153,1173,1193,1214,1233,1254,1273,1293,1313,1334],"xSR":741.5,"ySR":469.95,"xT1":424.9,"yT1":0,"xT2":1058.1,"yT2":0,"toosoon":0,"cond_shown":"equaldotanddens","ratio_trial":500,"smaller_num":"2","larger_num":"4","correct_side":1,"subjID":"LUANACHAVESGONZALEZ31","gender":"1","age":"11","school":"6"},{"start_time":1551801496565,"click_time":1551801497713,"finger_time":1551801497493,"fix_duration":250,"trial":29,"RT":928,"MT":220,"sideResp":1,"stimulus":"img/750/randomdotsizeEA/R/5_Ratio_750_L_15_R_20.png","xmouse":[826,826,826,826,826,825,823,823,823,823,823,823,823,823,823,823,823,823,823,823,823,823,823,823,823,823,823,823,823,823,823,823,823,823,823,823,823,823,823,823,823,823,823,823,823,823,817,811,801,791,782,735,696,657,605,553,530,522],"ymouse":[514,514,514,514,514,514,514,514,514,514,514,514,514,514,514,514,514,514,514,514,514,514,514,514,514,514,514,514,514,514,514,514,514,514,514,514,514,514,514,513,511,503,498,493,487,478,461,447,431,414,395,312,266,221,174,131,109,99],"timestamp_mouse":[8,43,48,69,89,110,129,148,170,189,209,228,249,269,289,309,329,349,369,388,409,429,450,468,488,508,530,548,569,590,608,628,648,668,690,708,728,750,768,788,808,828,848,869,889,909,928,949,969,988,1008,1028,1048,1069,1088,1110,1129,1148],"xSR":741.5,"ySR":469.95,"xT1":424.9,"yT1":0,"xT2":1058.1,"yT2":0,"toosoon":0,"cond_shown":"randomdotsizeEA","ratio_trial":750,"smaller_num":"15","larger_num":"20","correct_side":2,"subjID":"LUANACHAVESGONZALEZ31","gender":"1","age":"11","school":"6"},{"start_time":1551801499942,"click_time":1551801501193,"finger_time":1551801500893,"fix_duration":1105.1603760162948,"trial":30,"RT":951,"MT":300,"sideResp":1,"stimulus":"img/250/randomdotsizeEA/L/3_Ratio_250_L_8_R_2.png","xmouse":[792,792,792,792,792,792,792,792,792,792,792,792,792,792,792,792,792,792,792,792,792,792,792,792,792,792,792,792,792,792,792,792,792,792,792,792,792,792,792,792,792,792,791,786,782,776,772,765,759,752,739,705,641,607,594,585,579,568,561,553,540,530,518],"ymouse":[505,505,505,505,505,505,505,505,505,505,505,505,505,505,505,505,505,505,505,505,505,505,505,505,505,505,505,505,505,505,505,505,505,505,505,505,505,505,505,505,505,505,505,500,492,482,470,445,428,409,388,340,254,215,200,186,171,144,131,119,105,97,85],"timestamp_mouse":[12,37,51,72,91,112,132,151,172,191,211,233,252,272,292,311,331,351,372,392,412,432,451,471,492,513,531,551,573,591,612,632,651,673,692,712,733,752,772,792,813,833,851,871,891,911,932,951,971,991,1011,1031,1051,1071,1091,1111,1131,1151,1171,1192,1212,1233,1251],"xSR":741.5,"ySR":469.95,"xT1":424.9,"yT1":0,"xT2":1058.1,"yT2":0,"toosoon":0,"cond_shown":"randomdotsizeEA","ratio_trial":250,"smaller_num":"2","larger_num":"8","correct_side":1,"subjID":"LUANACHAVESGONZALEZ31","gender":"1","age":"11","school":"6"},{"start_time":1551801503477,"click_time":1551801504534,"finger_time":1551801504194,"fix_duration":1183.1630575100007,"trial":31,"RT":717,"MT":340,"sideResp":1,"stimulus":"img/250/equaldotsize/L/3_Ratio_250_L_8_R_2.png","xmouse":[780,780,780,780,780,780,780,780,780,780,780,780,780,780,780,780,780,780,780,780,780,780,780,780,780,780,780,780,780,780,780,778,778,778,778,757,737,708,683,658,634,624,614,605,597,575,564,555,549,544,538,528,520],"ymouse":[495,495,495,495,495,495,495,495,495,495,495,495,495,495,495,495,495,495,495,495,495,495,495,495,495,495,495,495,495,495,496,493,489,482,470,425,397,358,325,293,256,239,219,202,188,156,143,132,125,117,106,86,76],"timestamp_mouse":[16,39,58,76,97,116,136,156,177,196,216,237,256,277,297,316,337,356,377,398,416,437,458,477,498,517,537,556,576,596,617,636,656,676,696,717,736,757,777,796,818,836,857,876,896,917,936,957,976,997,1017,1036,1057],"xSR":741.5,"ySR":469.95,"xT1":424.9,"yT1":0,"xT2":1058.1,"yT2":0,"toosoon":0,"cond_shown":"equaldotsize","ratio_trial":250,"smaller_num":"2","larger_num":"8","correct_side":1,"subjID":"LUANACHAVESGONZALEZ31","gender":"1","age":"11","school":"6"},{"start_time":1551801505979,"click_time":1551801507694,"finger_time":1551801506854,"fix_duration":503.9967546139955,"trial":32,"RT":875,"MT":840,"sideResp":2,"stimulus":"img/900/equaldotanddens/R/5_Ratio_900_L_9_R_10.png","xmouse":[801,801,801,801,801,801,801,801,801,801,801,801,801,801,801,801,801,801,801,801,801,801,801,801,801,801,801,801,801,801,801,801,801,801,801,801,801,801,801,803,809,822,828,831,833,833,833,833,833,833,833,832,832,832,833,835,841,843,847,853,862,878,883,887,890,894,907,915,941,959,975,995,1003,1007,1008,1011,1017,1023,1033,1042,1043,1043,1043,1045,1050,1063],"ymouse":[503,503,503,503,503,503,503,503,503,503,503,503,503,503,503,503,503,503,503,503,503,503,503,503,503,503,503,503,503,503,503,503,503,503,503,503,503,503,503,503,497,480,470,461,450,438,415,395,370,362,354,334,326,320,312,305,287,277,267,250,237,215,208,202,196,190,175,167,151,141,132,120,116,114,112,111,110,108,107,106,106,106,106,104,101,96],"timestamp_mouse":[15,37,55,74,94,114,134,155,174,195,216,235,254,275,295,315,335,355,376,394,414,436,454,474,494,514,535,554,574,594,614,634,654,674,696,714,736,754,774,795,814,834,854,875,895,915,934,955,974,995,1014,1034,1054,1074,1095,1115,1135,1154,1174,1194,1214,1234,1255,1276,1294,1314,1334,1355,1374,1394,1414,1434,1454,1474,1495,1515,1534,1555,1574,1594,1615,1635,1654,1674,1694,1715],"xSR":741.5,"ySR":469.95,"xT1":424.9,"yT1":0,"xT2":1058.1,"yT2":0,"toosoon":0,"cond_shown":"equaldotanddens","ratio_trial":900,"smaller_num":"9","larger_num":"10","correct_side":2,"subjID":"LUANACHAVESGONZALEZ31","gender":"1","age":"11","school":"6"},{"start_time":1551801511654,"click_time":1551801512974,"finger_time":1551801512333,"fix_duration":1419.0536147271976,"trial":33,"RT":679,"MT":641,"sideResp":1,"stimulus":"img/500/randomdotsizeEA/L/8_Ratio_500_L_8_R_4.png","xmouse":[812,812,812,812,812,812,812,812,812,812,812,812,812,812,812,812,812,812,812,812,814,815,817,818,819,819,820,820,820,820,820,820,820,816,803,790,776,760,741,707,695,685,680,680,680,680,680,680,680,680,680,680,680,680,554,555,555,555,552,548,547,543,538,529,527,525,522],"ymouse":[539,539,539,539,539,539,539,539,539,539,539,539,539,539,539,539,539,539,539,539,536,534,531,529,528,528,527,526,526,525,523,523,520,502,431,347,247,162,97,32,17,6,1,1,1,1,1,1,1,1,1,1,1,1,32,46,54,61,65,70,70,70,70,70,70,70,69],"timestamp_mouse":[2,20,42,60,79,101,120,139,159,179,200,219,239,259,279,299,320,339,359,379,399,420,439,460,481,499,519,539,560,581,599,620,640,660,679,699,719,739,760,779,800,819,840,860,880,899,919,940,960,980,999,1020,1040,1059,1080,1099,1119,1139,1159,1180,1201,1221,1241,1260,1279,1299,1320],"xSR":741.5,"ySR":469.95,"xT1":424.9,"yT1":0,"xT2":1058.1,"yT2":0,"toosoon":0,"cond_shown":"randomdotsizeEA","ratio_trial":500,"smaller_num":"4","larger_num":"8","correct_side":1,"subjID":"LUANACHAVESGONZALEZ31","gender":"1","age":"11","school":"6"},{"start_time":1551801515291,"click_time":1551801516433,"finger_time":1551801516033,"fix_duration":1076.640465358255,"trial":34,"RT":742,"MT":400,"sideResp":1,"stimulus":"img/900/equaldotsize/L/1_Ratio_900_L_10_R_9.png","xmouse":[773,773,773,773,773,773,773,773,773,773,773,773,773,773,773,773,773,773,773,773,773,773,773,773,773,773,773,773,773,773,773,773,773,773,773,766,758,698,676,664,652,644,625,610,596,584,572,557,554,552,551,549,535,524,518,512,507,505],"ymouse":[504,504,504,504,504,504,504,504,504,504,504,504,504,504,504,504,504,504,504,504,504,504,504,504,504,504,504,504,504,504,504,504,504,504,504,496,484,420,398,382,347,323,281,257,236,217,197,173,167,165,164,161,154,146,140,130,116,99],"timestamp_mouse":[9,23,44,62,83,103,122,142,162,183,202,223,242,263,284,302,323,343,363,383,403,422,443,463,482,502,523,542,563,583,603,622,643,662,682,702,722,742,762,782,803,822,843,862,882,903,922,942,963,983,1002,1022,1043,1062,1082,1102,1123,1142],"xSR":741.5,"ySR":469.95,"xT1":424.9,"yT1":0,"xT2":1058.1,"yT2":0,"toosoon":0,"cond_shown":"equaldotsize","ratio_trial":900,"smaller_num":"9","larger_num":"10","correct_side":1,"subjID":"LUANACHAVESGONZALEZ31","gender":"1","age":"11","school":"6"},{"start_time":1551801518962,"click_time":1551801520094,"finger_time":1551801519713,"fix_duration":1486.6117929252346,"trial":35,"RT":751,"MT":381,"sideResp":2,"stimulus":"img/900/randomdotsizeEA/R/11_Ratio_900_L_18_R_20.png","xmouse":[765,765,765,765,765,765,765,765,765,765,765,765,765,765,765,765,765,765,765,765,765,765,765,765,765,765,765,765,765,765,765,765,768,779,793,820,841,868,910,918,927,932,940,952,958,962,966,970,980,985,992,1001,1011,1031,1047,1055,1065],"ymouse":[520,520,520,520,520,520,520,520,520,520,520,520,520,520,520,520,520,520,520,520,520,520,520,520,520,520,520,520,520,520,520,520,519,514,508,495,478,456,424,411,392,371,345,302,280,266,251,236,202,184,168,155,139,117,103,96,87],"timestamp_mouse":[12,43,51,70,91,111,131,152,172,190,212,231,251,272,291,311,331,352,372,392,411,432,452,471,491,512,532,552,572,591,612,631,652,671,692,711,732,751,771,791,811,832,851,872,891,911,931,952,971,991,1011,1031,1051,1071,1091,1111,1131],"xSR":741.5,"ySR":469.95,"xT1":424.9,"yT1":0,"xT2":1058.1,"yT2":0,"toosoon":0,"cond_shown":"randomdotsizeEA","ratio_trial":900,"smaller_num":"18","larger_num":"20","correct_side":2,"subjID":"LUANACHAVESGONZALEZ31","gender":"1","age":"11","school":"6"},{"start_time":1551801523341,"click_time":1551801526253,"finger_time":1551801524134,"fix_duration":1046.0152605731676,"trial":36,"RT":793,"MT":2119,"sideResp":2,"stimulus":"img/500/randomdotsizeEA/R/12_Ratio_500_L_1_R_2.png","xmouse":[780,780,780,780,780,781,781,782,782,782,782,782,782,782,782,782,782,782,782,783,783,783,784,787,795,796,796,797,797,797,797,797,797,797,797,797,798,801,805,815,837,848,859,871,873,874,874,874,874,875,877,879,879,879,879,879,879,879,881,886,892,894,894,895,895,895,895,895,895,895,895,895,895,895,895,895,895,895,896,897,898,900,902,907,909,911,912,913,913,913,913,914,915,917,918,921,923,927,931,937,956,967,985,996,1005,1014,1016,1017,1018,1020,1022,1024,1025,1027,1030,1037,1040,1045,1048,1050,1054,1056,1056,1056,1057,1057,1057,1057,1057,1057,1057,1057,1057,1057,1057,1057,1057,1057,1057,1057,1058,1058,1058,1058,1058,1061],"ymouse":[563,563,563,563,563,561,557,555,555,555,555,555,555,555,555,555,555,555,555,548,546,544,540,529,512,498,494,491,489,489,489,489,489,489,489,489,486,482,476,464,437,425,411,397,393,392,392,392,392,391,388,387,387,387,387,387,387,387,385,382,380,380,380,380,380,380,380,380,380,380,380,380,380,380,380,380,380,380,380,378,367,360,356,339,324,303,300,295,292,288,281,275,274,269,266,260,255,249,244,236,218,208,191,181,173,161,155,150,146,140,131,125,120,113,107,93,86,78,74,71,66,65,65,65,65,65,65,65,65,65,65,65,65,65,65,65,65,65,64,64,64,64,64,63,63,63],"timestamp_mouse":[13,40,52,73,91,113,131,152,172,192,213,233,253,273,293,312,332,353,372,393,412,432,453,473,493,512,532,553,572,592,612,633,653,672,692,713,732,752,773,793,812,833,852,872,892,912,932,952,973,993,1012,1032,1052,1072,1093,1112,1133,1152,1172,1193,1212,1233,1252,1272,1292,1313,1333,1352,1372,1393,1413,1433,1452,1472,1491,1512,1533,1552,1572,1593,1613,1633,1652,1673,1692,1712,1732,1752,1773,1792,1812,1833,1852,1872,1892,1912,1932,1952,1972,1992,2012,2032,2052,2072,2092,2112,2132,2152,2172,2192,2212,2233,2252,2271,2292,2312,2332,2352,2372,2392,2412,2432,2452,2472,2493,2512,2532,2552,2572,2592,2612,2633,2652,2672,2693,2712,2732,2753,2773,2792,2812,2833,2852,2872,2892,2912],"xSR":741.5,"ySR":469.95,"xT1":424.9,"yT1":0,"xT2":1058.1,"yT2":0,"toosoon":0,"cond_shown":"randomdotsizeEA","ratio_trial":500,"smaller_num":"1","larger_num":"2","correct_side":2,"subjID":"LUANACHAVESGONZALEZ31","gender":"1","age":"11","school":"6"},{"start_time":1551801528310,"click_time":1551801529393,"finger_time":1551801529034,"fix_duration":835.1218933455322,"trial":37,"RT":724,"MT":359,"sideResp":2,"stimulus":"img/500/equaldotanddens/R/3_Ratio_500_L_10_R_20.png","xmouse":[772,772,772,772,772,772,772,772,772,772,772,772,772,772,772,772,772,772,772,772,772,772,772,772,772,772,772,772,772,772,772,772,772,797,818,836,854,870,910,940,979,1014,1110,1133,1149,1157,1162,1166,1166,1166,1166,1166,1166,1160,1155],"ymouse":[534,534,534,534,534,534,534,534,534,534,534,534,534,534,534,534,534,534,534,534,534,534,534,534,534,534,534,534,534,534,534,534,534,525,515,504,490,474,418,378,333,290,176,151,131,118,107,96,94,91,89,87,85,77,75],"timestamp_mouse":[8,22,43,64,83,103,123,143,163,184,203,223,243,264,284,303,324,343,363,383,403,423,444,464,483,504,524,543,563,584,603,623,643,663,683,704,724,743,763,783,803,823,844,862,883,904,923,943,963,983,1003,1023,1044,1064,1083],"xSR":741.5,"ySR":469.95,"xT1":424.9,"yT1":0,"xT2":1058.1,"yT2":0,"toosoon":0,"cond_shown":"equaldotanddens","ratio_trial":500,"smaller_num":"10","larger_num":"20","correct_side":2,"subjID":"LUANACHAVESGONZALEZ31","gender":"1","age":"11","school":"6"},{"start_time":1551801533196,"click_time":1551801534133,"finger_time":1551801533733,"fix_duration":1340.939356642312,"trial":38,"RT":537,"MT":400,"sideResp":1,"stimulus":"img/750/equaldotsize/R/15_Ratio_750_L_9_R_12.png","xmouse":[812,812,812,812,812,812,813,813,813,813,813,813,813,813,813,813,813,813,813,813,813,813,811,799,790,778,770,761,746,739,732,725,720,696,681,666,639,623,592,576,562,548,536,516,505,493,477],"ymouse":[506,506,506,506,506,506,506,506,506,506,506,506,506,506,506,506,506,506,506,506,506,505,499,489,482,470,462,455,438,428,419,409,399,369,352,333,304,282,241,223,207,188,172,138,120,101,72],"timestamp_mouse":[18,41,58,77,97,117,138,157,178,198,217,238,257,278,298,317,338,357,377,397,417,437,458,477,498,517,537,557,577,597,617,637,657,677,698,717,737,758,777,796,817,838,857,877,898,918,937],"xSR":741.5,"ySR":469.95,"xT1":424.9,"yT1":0,"xT2":1058.1,"yT2":0,"toosoon":0,"cond_shown":"equaldotsize","ratio_trial":750,"smaller_num":"9","larger_num":"12","correct_side":2,"subjID":"LUANACHAVESGONZALEZ31","gender":"1","age":"11","school":"6"},{"start_time":1551801535246,"click_time":1551801537113,"finger_time":1551801536134,"fix_duration":351.72751899752865,"trial":39,"RT":888,"MT":979,"sideResp":2,"stimulus":"img/250/equaldotanddens/R/12_Ratio_250_L_5_R_20.png","xmouse":[795,795,795,795,795,795,795,795,796,797,797,798,799,799,801,801,802,802,802,803,803,803,803,804,804,804,804,804,804,804,804,804,804,804,804,804,804,804,807,810,814,826,833,838,843,850,861,864,866,868,872,880,884,889,896,904,920,927,934,942,951,969,980,982,986,994,1017,1028,1032,1034,1036,1039,1041,1043,1046,1047,1052,1055,1057,1057,1057,1057,1057,1057,1057,1057,1057,1057,1057,1057,1057,1057,1057,1061],"ymouse":[553,553,553,553,553,553,553,553,553,553,553,553,553,553,553,553,553,552,552,552,552,552,552,552,552,552,552,552,552,552,552,552,552,552,552,552,552,552,549,546,542,518,500,488,477,459,416,400,385,372,362,331,317,303,288,275,251,243,234,224,214,195,186,184,180,176,166,161,159,157,156,153,148,142,132,123,104,97,94,93,93,93,93,93,93,93,93,93,93,93,93,93,93,88],"timestamp_mouse":[9,43,46,67,88,107,128,147,168,187,207,228,247,268,288,307,327,348,367,387,407,427,448,468,488,507,527,547,567,588,607,628,647,668,688,707,727,747,768,788,808,827,847,867,888,907,927,947,968,988,1007,1027,1047,1067,1087,1108,1127,1146,1167,1187,1208,1227,1247,1267,1288,1307,1327,1347,1367,1387,1408,1427,1448,1467,1488,1507,1527,1548,1567,1588,1607,1627,1646,1668,1688,1708,1728,1747,1767,1788,1807,1827,1848,1867],"xSR":741.5,"ySR":469.95,"xT1":424.9,"yT1":0,"xT2":1058.1,"yT2":0,"toosoon":0,"cond_shown":"equaldotanddens","ratio_trial":250,"smaller_num":"5","larger_num":"20","correct_side":2,"subjID":"LUANACHAVESGONZALEZ31","gender":"1","age":"11","school":"6"},{"start_time":1551801539598,"click_time":1551801540974,"finger_time":1551801540374,"fix_duration":1384.7406873517734,"trial":40,"RT":776,"MT":600,"sideResp":2,"stimulus":"img/900/equaldotsize/R/3_Ratio_900_L_9_R_10.png","xmouse":[791,791,791,791,791,791,791,791,791,791,791,791,791,791,791,791,791,791,791,791,791,791,791,791,791,791,793,793,793,795,796,798,800,806,816,823,830,839,848,869,879,887,894,901,914,921,927,936,945,971,987,1014,1020,1041,1071,1081,1087,1091,1098,1102,1103,1104,1104,1105,1105,1105,1105,1105,1105],"ymouse":[519,519,519,519,519,519,519,519,519,519,519,519,519,519,519,519,519,519,519,519,519,519,519,519,519,519,519,519,519,519,519,517,516,514,508,502,494,483,473,441,426,411,398,390,370,360,353,342,329,298,279,253,245,220,184,173,165,159,144,135,130,126,123,117,109,105,102,100,99],"timestamp_mouse":[16,41,55,75,95,116,136,155,175,196,216,235,256,275,297,315,335,356,375,395,416,434,455,474,495,516,536,555,575,595,616,635,655,676,695,715,736,755,776,795,815,835,856,875,895,915,935,956,975,995,1016,1035,1055,1076,1095,1115,1135,1155,1176,1195,1215,1235,1255,1276,1295,1315,1335,1355,1376],"xSR":741.5,"ySR":469.95,"xT1":424.9,"yT1":0,"xT2":1058.1,"yT2":0,"toosoon":0,"cond_shown":"equaldotsize","ratio_trial":900,"smaller_num":"9","larger_num":"10","correct_side":2,"subjID":"LUANACHAVESGONZALEZ31","gender":"1","age":"11","school":"6"},{"start_time":1551801542705,"click_time":1551801543533,"finger_time":1551801543293,"fix_duration":750.2641643029485,"trial":41,"RT":588,"MT":240,"sideResp":2,"stimulus":"img/750/randomdotsizeEA/L/1_Ratio_750_L_20_R_15.png","xmouse":[777,777,777,777,777,777,777,777,777,777,777,777,777,777,777,777,777,777,777,777,777,777,782,788,822,831,834,835,837,850,861,873,891,914,961,982,988,1011,1027,1049,1056,1062],"ymouse":[528,528,528,528,528,528,528,528,528,528,528,528,528,528,528,528,528,528,528,528,528,528,528,528,523,521,520,519,517,504,494,482,453,413,328,278,264,211,169,109,91,78],"timestamp_mouse":[10,38,48,69,88,109,128,148,169,189,209,229,248,268,289,309,328,349,369,388,408,428,448,469,488,508,529,549,569,588,608,627,648,668,688,709,728,748,768,788,808,828],"xSR":741.5,"ySR":469.95,"xT1":424.9,"yT1":0,"xT2":1058.1,"yT2":0,"toosoon":0,"cond_shown":"randomdotsizeEA","ratio_trial":750,"smaller_num":"15","larger_num":"20","correct_side":1,"subjID":"LUANACHAVESGONZALEZ31","gender":"1","age":"11","school":"6"},{"start_time":1551801545267,"click_time":1551801546473,"finger_time":1551801545693,"fix_duration":611.1549167461176,"trial":42,"RT":426,"MT":780,"sideResp":1,"stimulus":"img/900/randomdotsizeEA/R/15_Ratio_900_L_9_R_10.png","xmouse":[752,752,752,752,752,752,752,752,752,752,752,753,753,754,754,754,754,756,760,763,765,765,738,707,678,653,620,610,604,593,579,579,579,579,579,579,579,579,579,579,579,579,579,579,398,398,398,398,398,398,399,404,405,405,405,405,405,405,407,419,442],"ymouse":[518,518,518,518,518,518,518,518,518,518,518,517,517,516,516,516,516,514,509,500,485,462,366,298,238,181,112,81,61,34,10,10,10,10,10,10,10,10,10,10,10,10,10,10,22,34,41,41,41,41,41,38,38,38,38,38,38,38,37,37,40],"timestamp_mouse":[9,26,46,67,86,106,127,146,167,187,206,227,246,266,286,307,327,346,365,386,406,426,446,466,487,506,526,547,566,586,607,626,646,666,686,706,726,747,766,786,806,827,847,867,886,907,926,947,966,986,1007,1027,1046,1066,1087,1107,1126,1146,1166,1186,1206],"xSR":741.5,"ySR":469.95,"xT1":424.9,"yT1":0,"xT2":1058.1,"yT2":0,"toosoon":0,"cond_shown":"randomdotsizeEA","ratio_trial":900,"smaller_num":"9","larger_num":"10","correct_side":2,"subjID":"LUANACHAVESGONZALEZ31","gender":"1","age":"11","school":"6"},{"start_time":1551801547944,"click_time":1551801549513,"finger_time":1551801548313,"fix_duration":250,"trial":43,"RT":369,"MT":1200,"sideResp":1,"stimulus":"img/250/equaldotanddens/L/3_Ratio_250_L_8_R_2.png","xmouse":[771,771,772,772,772,773,774,775,775,776,776,777,778,778,778,778,776,773,768,766,765,765,765,765,765,765,765,765,765,765,765,765,765,765,765,765,765,765,765,763,759,757,758,763,766,766,766,766,766,766,766,766,765,763,762,761,761,760,750,739,719,693,688,687,687,689,691,692,690,684,673,664,653,628,611,594,575,555,522],"ymouse":[542,542,541,541,541,540,540,538,537,536,535,535,532,528,523,514,503,489,459,441,425,410,386,381,379,379,379,379,379,379,379,379,379,379,379,379,379,379,379,379,387,402,465,482,491,493,493,493,493,493,494,496,501,502,502,502,501,494,454,415,367,309,291,269,257,241,220,199,163,150,133,122,111,93,83,74,67,59,53],"timestamp_mouse":[11,34,51,70,90,109,129,150,170,189,209,229,249,270,289,309,329,349,369,389,409,428,451,469,489,509,529,550,570,589,609,629,650,669,690,710,730,750,769,789,809,829,850,869,889,909,929,949,969,989,1009,1029,1050,1069,1089,1109,1130,1148,1169,1189,1210,1229,1250,1269,1289,1310,1329,1349,1369,1389,1409,1429,1449,1469,1489,1509,1530,1549,1569],"xSR":741.5,"ySR":469.95,"xT1":424.9,"yT1":0,"xT2":1058.1,"yT2":0,"toosoon":0,"cond_shown":"equaldotanddens","ratio_trial":250,"smaller_num":"2","larger_num":"8","correct_side":1,"subjID":"LUANACHAVESGONZALEZ31","gender":"1","age":"11","school":"6"},{"start_time":1551801551030,"click_time":1551801552513,"finger_time":1551801552013,"fix_duration":315.9741223848431,"trial":44,"RT":983,"MT":500,"sideResp":1,"stimulus":"img/900/equaldotanddens/R/7_Ratio_900_L_9_R_10.png","xmouse":[772,772,772,772,772,772,772,772,772,772,772,772,772,772,772,772,772,772,772,772,772,772,772,772,772,772,772,772,772,772,772,772,772,772,772,772,772,772,772,772,772,772,772,772,772,775,779,780,785,790,790,790,790,790,790,785,782,769,756,723,702,680,659,641,625,597,586,580,579,577,572,564,552,534,503],"ymouse":[539,539,539,539,539,539,539,539,539,539,539,539,539,539,539,539,539,539,539,539,539,539,539,539,539,539,539,539,539,539,539,539,539,539,539,539,539,539,539,539,539,539,539,539,539,538,531,523,505,453,432,410,388,374,336,309,300,275,258,222,203,186,170,157,146,129,121,116,114,110,103,95,82,71,57],"timestamp_mouse":[8,23,43,63,83,103,123,144,163,183,203,224,244,264,283,303,324,343,363,384,403,423,444,463,483,504,523,544,563,583,603,624,644,663,684,704,723,743,763,783,803,823,843,863,883,903,923,944,963,983,1003,1023,1043,1063,1083,1103,1123,1143,1162,1183,1203,1223,1243,1263,1283,1303,1323,1343,1363,1383,1403,1423,1442,1464,1483],"xSR":741.5,"ySR":469.95,"xT1":424.9,"yT1":0,"xT2":1058.1,"yT2":0,"toosoon":0,"cond_shown":"equaldotanddens","ratio_trial":900,"smaller_num":"9","larger_num":"10","correct_side":2,"subjID":"LUANACHAVESGONZALEZ31","gender":"1","age":"11","school":"6"},{"start_time":1551801553820,"click_time":1551801555113,"finger_time":1551801554713,"fix_duration":365.3392252185304,"trial":45,"RT":893,"MT":400,"sideResp":1,"stimulus":"img/250/equaldotsize/L/15_Ratio_250_L_12_R_3.png","xmouse":[817,817,817,817,817,817,817,817,817,817,817,817,817,817,817,817,817,817,817,817,817,817,817,817,817,817,817,817,817,817,817,817,817,817,817,817,817,817,817,817,816,818,821,822,822,817,806,793,780,772,752,743,733,722,696,673,655,636,618,584,570,555,541,531,519],"ymouse":[546,546,546,546,546,546,546,546,546,546,546,546,546,546,546,546,546,546,546,546,546,546,546,546,546,546,546,546,546,546,546,546,546,546,546,546,546,546,546,546,546,536,520,499,415,361,320,283,253,235,203,190,179,168,148,135,125,115,108,93,86,78,72,68,64],"timestamp_mouse":[13,36,54,73,93,114,134,153,174,193,214,233,253,273,293,313,333,352,373,393,413,433,454,473,493,513,533,553,573,594,613,633,653,673,693,714,733,753,773,794,813,834,854,874,893,913,933,953,973,994,1013,1033,1053,1074,1093,1113,1133,1153,1174,1194,1213,1233,1254,1273,1293],"xSR":741.5,"ySR":469.95,"xT1":424.9,"yT1":0,"xT2":1058.1,"yT2":0,"toosoon":0,"cond_shown":"equaldotsize","ratio_trial":250,"smaller_num":"3","larger_num":"12","correct_side":1,"subjID":"LUANACHAVESGONZALEZ31","gender":"1","age":"11","school":"6"},{"start_time":1551801556603,"click_time":1551801558233,"finger_time":1551801557833,"fix_duration":448.17518241840946,"trial":46,"RT":1230,"MT":400,"sideResp":1,"stimulus":"img/750/randomdotsizeEA/L/9_Ratio_750_L_4_R_3.png","xmouse":[771,771,771,771,771,771,774,777,778,779,780,780,780,780,780,780,780,780,780,780,780,780,780,780,780,780,780,780,780,780,780,780,780,780,780,780,780,780,780,780,780,780,780,780,780,780,780,780,780,781,781,781,781,781,781,782,782,782,782,782,778,771,768,765,758,751,727,710,690,672,654,616,594,568,538,521,493,481,471,463,454,439],"ymouse":[516,516,516,516,516,516,516,516,516,516,516,516,516,516,516,516,516,516,516,516,516,516,516,516,516,516,516,516,516,516,516,516,516,516,516,516,516,516,516,516,516,516,516,516,516,516,516,516,516,516,516,516,516,516,516,513,511,508,502,492,477,431,410,393,371,355,313,288,262,238,216,178,162,148,135,129,118,113,110,107,103,95],"timestamp_mouse":[10,41,51,71,91,110,130,150,170,190,210,230,250,271,290,310,331,350,371,390,410,430,450,470,491,510,531,550,571,590,610,630,651,671,690,710,730,751,770,791,811,830,850,870,891,910,931,951,970,990,1011,1030,1050,1071,1091,1111,1131,1150,1171,1190,1211,1230,1250,1270,1290,1310,1330,1350,1370,1391,1410,1430,1450,1470,1491,1511,1530,1550,1570,1590,1610,1630],"xSR":741.5,"ySR":469.95,"xT1":424.9,"yT1":0,"xT2":1058.1,"yT2":0,"toosoon":0,"cond_shown":"randomdotsizeEA","ratio_trial":750,"smaller_num":"3","larger_num":"4","correct_side":1,"subjID":"LUANACHAVESGONZALEZ31","gender":"1","age":"11","school":"6"},{"start_time":1551801560181,"click_time":1551801561353,"finger_time":1551801560994,"fix_duration":926.7198304089587,"trial":47,"RT":813,"MT":359,"sideResp":1,"stimulus":"img/250/equaldotsize/L/14_Ratio_250_L_12_R_3.png","xmouse":[792,792,792,792,792,792,792,793,793,794,794,794,794,794,794,794,794,794,794,794,795,795,795,795,795,795,795,795,795,795,795,795,795,795,795,795,796,796,796,794,786,770,718,690,664,659,659,651,642,627,612,599,583,576,572,566,559,532,521],"ymouse":[523,523,523,523,523,523,523,523,522,522,522,522,522,522,522,522,522,522,521,521,520,520,520,520,520,520,520,520,520,520,520,520,520,520,520,520,518,502,490,476,455,420,314,273,235,228,226,211,198,177,157,139,123,117,114,109,103,80,70],"timestamp_mouse":[13,36,53,72,92,112,133,152,172,192,212,233,251,272,293,313,332,352,373,392,413,431,452,473,493,512,533,553,573,592,612,632,652,672,693,712,733,752,772,792,813,832,852,872,892,913,932,952,972,992,1012,1032,1052,1072,1092,1112,1133,1152,1172],"xSR":741.5,"ySR":469.95,"xT1":424.9,"yT1":0,"xT2":1058.1,"yT2":0,"toosoon":0,"cond_shown":"equaldotsize","ratio_trial":250,"smaller_num":"3","larger_num":"12","correct_side":1,"subjID":"LUANACHAVESGONZALEZ31","gender":"1","age":"11","school":"6"},{"start_time":1551801563029,"click_time":1551801564613,"finger_time":1551801563933,"fix_duration":734.8122032601588,"trial":48,"RT":904,"MT":680,"sideResp":1,"stimulus":"img/500/equaldotsize/L/13_Ratio_500_L_12_R_6.png","xmouse":[765,765,765,765,765,765,765,765,765,765,765,765,765,765,765,765,765,765,765,765,766,768,769,769,769,769,769,769,769,769,770,770,770,771,771,771,771,771,771,771,771,771,771,771,762,733,707,679,658,649,642,641,639,637,633,628,610,595,585,577,569,568,566,562,556,549,535,533,532,532,532,529,526,525,525,525,525,525,525,524],"ymouse":[496,496,496,496,496,496,496,496,496,496,496,496,496,496,496,496,496,496,496,496,496,496,495,494,494,494,493,493,493,493,492,492,492,491,491,491,491,491,491,491,491,491,488,482,470,431,397,351,286,248,220,217,215,211,206,199,173,155,141,129,112,108,103,96,86,78,64,62,62,62,62,62,62,62,62,62,62,62,62,62],"timestamp_mouse":[5,38,44,64,84,104,124,144,164,184,204,225,244,264,285,304,325,345,364,385,404,425,444,465,484,504,525,544,564,584,604,624,644,665,685,705,725,745,764,784,805,824,844,865,884,904,924,944,964,984,1004,1024,1044,1065,1084,1105,1124,1144,1164,1185,1205,1224,1244,1264,1284,1304,1324,1344,1365,1384,1404,1423,1445,1464,1485,1504,1525,1545,1564,1584],"xSR":741.5,"ySR":469.95,"xT1":424.9,"yT1":0,"xT2":1058.1,"yT2":0,"toosoon":0,"cond_shown":"equaldotsize","ratio_trial":500,"smaller_num":"6","larger_num":"12","correct_side":1,"subjID":"LUANACHAVESGONZALEZ31","gender":"1","age":"11","school":"6"},{"start_time":1551801566146,"click_time":1551801567353,"finger_time":1551801566693,"fix_duration":250,"trial":49,"RT":547,"MT":660,"sideResp":2,"stimulus":"img/500/randomdotsizeEA/R/2_Ratio_500_L_3_R_6.png","xmouse":[816,816,816,816,816,816,815,815,814,813,813,813,813,813,813,813,813,813,813,813,813,813,813,813,811,805,798,790,787,786,785,785,784,782,779,778,777,777,777,777,777,777,777,778,781,796,807,822,844,874,934,957,972,984,996,1008,1016,1026,1035,1044,1060],"ymouse":[511,511,511,511,511,511,511,511,511,511,511,511,511,511,511,511,511,511,511,511,511,511,511,511,510,493,480,469,464,462,460,460,460,457,454,452,452,452,452,452,452,452,452,452,452,443,427,403,363,310,218,191,177,167,158,150,144,135,124,112,92],"timestamp_mouse":[9,34,47,68,88,108,128,147,167,187,207,227,248,268,287,307,328,348,368,387,407,428,448,468,487,508,527,547,567,587,607,627,647,667,687,707,728,747,767,787,807,827,847,866,888,907,927,947,968,987,1007,1027,1047,1067,1087,1106,1127,1147,1167,1188,1207],"xSR":741.5,"ySR":469.95,"xT1":424.9,"yT1":0,"xT2":1058.1,"yT2":0,"toosoon":0,"cond_shown":"randomdotsizeEA","ratio_trial":500,"smaller_num":"3","larger_num":"6","correct_side":2,"subjID":"LUANACHAVESGONZALEZ31","gender":"1","age":"11","school":"6"},{"start_time":1551801568605,"click_time":1551801570553,"finger_time":1551801569814,"fix_duration":250,"trial":50,"RT":1209,"MT":739,"sideResp":1,"stimulus":"img/750/randomdotsizeEA/R/12_Ratio_750_L_3_R_4.png","xmouse":[779,779,779,779,779,779,779,779,779,779,779,779,779,779,779,779,779,779,779,779,779,779,779,779,779,779,779,779,779,779,779,779,779,779,779,779,779,779,779,779,779,779,779,779,779,779,779,779,779,779,779,779,779,779,779,779,779,779,777,773,740,687,579,542,542,542,542,542,542,542,542,542,542,542,542,542,542,542,402,404,410,415,419,420,422,425,428,442,446,451,454,456,462,466,468,468,469,469],"ymouse":[521,521,521,521,521,521,521,521,521,521,521,521,521,521,521,521,521,521,521,521,521,521,521,521,521,521,521,521,521,521,521,521,521,521,521,521,521,521,521,521,521,521,521,521,521,521,521,521,521,521,521,521,521,521,521,521,521,521,511,501,430,326,91,3,3,3,3,3,3,3,3,3,3,3,3,3,3,3,10,35,57,72,87,90,97,103,110,126,131,132,132,130,125,122,120,115,110,98],"timestamp_mouse":[8,40,48,68,88,109,128,148,169,188,209,228,248,268,287,308,329,348,369,388,409,428,449,468,488,508,528,548,568,588,609,628,648,669,688,709,728,748,768,788,809,828,848,868,889,908,928,948,969,989,1008,1028,1048,1068,1088,1109,1128,1148,1168,1189,1209,1229,1249,1268,1288,1308,1328,1348,1368,1388,1408,1429,1449,1469,1488,1508,1529,1548,1568,1588,1608,1628,1648,1667,1689,1708,1729,1748,1769,1788,1808,1828,1847,1867,1888,1908,1929,1948],"xSR":741.5,"ySR":469.95,"xT1":424.9,"yT1":0,"xT2":1058.1,"yT2":0,"toosoon":0,"cond_shown":"randomdotsizeEA","ratio_trial":750,"smaller_num":"3","larger_num":"4","correct_side":2,"subjID":"LUANACHAVESGONZALEZ31","gender":"1","age":"11","school":"6"},{"start_time":1551801572684,"click_time":1551801573754,"finger_time":1551801573393,"fix_duration":808.7029279822356,"trial":51,"RT":709,"MT":361,"sideResp":1,"stimulus":"img/500/equaldotsize/L/5_Ratio_500_L_4_R_2.png","xmouse":[791,791,791,791,791,791,791,791,794,796,796,797,798,798,798,798,799,800,801,803,803,803,803,803,803,803,803,803,803,803,803,803,804,801,792,778,763,750,728,719,704,690,673,646,610,592,575,562,553,537,527,520,509,486],"ymouse":[519,519,519,519,519,519,519,519,517,517,516,516,516,516,516,516,516,515,515,514,514,514,514,514,514,514,514,514,514,514,514,514,514,494,474,453,436,418,390,378,355,335,317,298,266,251,237,222,210,184,166,151,132,93],"timestamp_mouse":[12,41,49,70,89,109,130,149,170,188,209,229,249,270,290,309,330,349,369,390,409,429,449,469,490,510,529,549,569,590,609,629,650,670,690,709,730,749,770,789,809,829,849,870,889,908,929,950,969,989,1009,1029,1049,1070],"xSR":741.5,"ySR":469.95,"xT1":424.9,"yT1":0,"xT2":1058.1,"yT2":0,"toosoon":0,"cond_shown":"equaldotsize","ratio_trial":500,"smaller_num":"2","larger_num":"4","correct_side":1,"subjID":"LUANACHAVESGONZALEZ31","gender":"1","age":"11","school":"6"},{"start_time":1551801576346,"click_time":1551801579073,"finger_time":1551801578313,"fix_duration":250,"trial":52,"RT":1967,"MT":760,"sideResp":1,"stimulus":"img/900/equaldotsize/R/5_Ratio_900_L_9_R_10.png","xmouse":[784,784,784,784,784,784,784,784,784,784,784,784,784,784,784,784,784,784,784,784,784,784,784,784,784,784,784,784,784,784,784,784,784,784,784,784,784,784,784,784,784,784,784,784,784,784,784,784,784,784,784,784,784,784,784,784,784,784,784,784,784,784,784,784,784,784,784,784,784,784,784,784,784,784,784,784,784,784,784,784,784,784,784,784,784,784,784,784,784,780,777,772,772,772,772,769,761,744,738,722,716,709,704,697,691,684,667,663,659,656,655,652,651,651,651,651,651,639,623,609,590,572,568,566,565,564,560,558,557,557,557,557,555,551,544,534,516],"ymouse":[539,539,539,539,539,538,538,538,538,538,538,538,538,538,538,538,538,538,538,538,538,538,538,538,538,538,538,538,538,538,538,538,538,538,538,538,538,538,538,538,538,538,538,538,538,538,538,538,538,538,538,538,538,538,538,538,538,538,538,538,538,538,538,538,538,538,538,538,538,538,538,538,538,538,538,538,538,538,538,538,538,538,538,538,538,538,538,538,533,528,525,520,520,520,520,514,500,480,474,457,450,433,398,343,299,255,185,165,152,143,140,132,131,131,131,131,130,121,113,108,103,98,97,96,96,95,95,93,93,93,93,93,93,91,90,86,81],"timestamp_mouse":[9,39,47,68,86,107,128,147,167,187,207,228,248,268,287,307,328,347,367,387,407,427,447,468,487,507,527,546,567,586,607,628,648,667,687,707,727,747,767,786,808,826,847,867,886,908,927,948,966,987,1007,1027,1048,1067,1087,1108,1127,1147,1166,1188,1208,1227,1247,1267,1287,1306,1328,1347,1367,1388,1407,1428,1447,1468,1487,1507,1527,1547,1567,1588,1606,1628,1648,1667,1688,1708,1727,1746,1766,1788,1808,1827,1846,1867,1887,1907,1927,1948,1967,1986,2008,2027,2047,2066,2087,2106,2127,2147,2167,2187,2207,2227,2246,2267,2287,2308,2327,2347,2367,2387,2407,2427,2446,2467,2487,2507,2527,2547,2567,2587,2608,2628,2647,2667,2687,2708,2727],"xSR":741.5,"ySR":469.95,"xT1":424.9,"yT1":0,"xT2":1058.1,"yT2":0,"toosoon":0,"cond_shown":"equaldotsize","ratio_trial":900,"smaller_num":"9","larger_num":"10","correct_side":2,"subjID":"LUANACHAVESGONZALEZ31","gender":"1","age":"11","school":"6"},{"start_time":1551801581123,"click_time":1551801583474,"finger_time":1551801583072,"fix_duration":929.8355266792996,"trial":53,"RT":1949,"MT":402,"sideResp":2,"stimulus":"img/750/equaldotanddens/R/11_Ratio_750_L_12_R_16.png","xmouse":[777,777,777,777,777,777,777,777,777,777,777,777,777,777,777,777,777,777,777,777,777,777,777,777,777,777,777,777,777,777,777,777,777,777,777,777,777,777,777,777,777,777,777,777,777,777,777,777,777,777,777,777,777,777,777,777,777,777,777,777,777,777,777,777,777,777,777,777,777,777,777,777,777,777,777,777,777,777,777,777,777,777,777,777,777,777,777,777,777,777,777,777,777,777,779,786,821,842,868,873,880,890,940,964,984,1001,1013,1026,1040,1051,1065,1078,1089,1109,1118,1131,1135,1148],"ymouse":[524,524,524,524,524,524,524,524,524,524,524,524,524,524,524,524,524,524,524,524,524,524,524,524,524,524,524,524,524,524,524,524,524,524,524,524,524,524,524,524,524,524,524,524,524,524,524,524,524,524,524,524,524,524,524,524,524,524,524,524,524,524,524,524,524,524,524,524,524,524,524,524,524,524,524,524,524,524,524,524,524,524,524,524,524,524,524,524,524,524,524,524,524,524,525,525,516,510,501,497,491,481,408,372,344,319,302,278,249,229,210,192,176,149,138,120,115,93],"timestamp_mouse":[10,34,51,70,90,110,130,150,171,190,211,229,250,271,291,310,330,351,369,390,411,429,449,470,491,510,531,549,571,590,610,631,650,671,691,711,729,750,770,790,810,830,851,871,890,911,931,949,970,991,1010,1031,1050,1071,1090,1110,1130,1151,1169,1190,1210,1230,1249,1270,1290,1310,1330,1350,1370,1390,1410,1431,1450,1469,1491,1510,1530,1550,1570,1591,1610,1630,1649,1671,1691,1710,1731,1750,1771,1790,1810,1829,1851,1870,1890,1911,1930,1949,1969,1989,2010,2031,2051,2070,2090,2109,2130,2150,2169,2190,2209,2229,2250,2270,2290,2310,2330,2351],"xSR":741.5,"ySR":469.95,"xT1":424.9,"yT1":0,"xT2":1058.1,"yT2":0,"toosoon":0,"cond_shown":"equaldotanddens","ratio_trial":750,"smaller_num":"12","larger_num":"16","correct_side":2,"subjID":"LUANACHAVESGONZALEZ31","gender":"1","age":"11","school":"6"},{"start_time":1551801584846,"click_time":1551801586713,"finger_time":1551801586273,"fix_duration":271.54517060322127,"trial":54,"RT":1427,"MT":440,"sideResp":1,"stimulus":"img/250/randomdotsizeEA/L/5_Ratio_250_L_24_R_6.png","xmouse":[783,783,783,783,783,783,783,783,783,783,783,783,783,783,783,783,783,783,783,783,783,783,783,783,783,783,783,783,783,783,783,783,783,783,783,783,783,783,783,783,783,783,783,783,783,783,783,783,783,783,783,783,783,783,783,783,783,783,783,783,783,783,783,783,783,783,783,783,783,781,770,746,687,666,656,655,655,649,637,631,610,595,573,567,565,565,565,558,552,547,546,544,535,524],"ymouse":[519,519,519,519,519,519,519,519,519,519,519,519,519,519,519,519,519,519,519,519,519,519,519,519,519,519,519,519,519,519,519,519,519,519,519,519,519,519,519,519,519,519,519,519,519,519,519,519,519,519,519,519,519,519,519,519,519,519,519,519,519,519,519,519,519,519,519,519,519,511,483,429,328,298,286,280,276,267,255,250,232,219,202,196,190,184,172,124,99,76,70,63,47,32],"timestamp_mouse":[7,27,47,67,87,107,127,147,167,187,208,227,247,266,286,307,328,347,368,387,408,427,446,468,487,507,527,546,567,586,607,628,646,666,687,707,727,747,767,786,807,827,848,867,887,908,927,947,967,988,1008,1028,1047,1067,1087,1107,1127,1148,1167,1188,1207,1227,1247,1267,1288,1307,1327,1348,1367,1387,1406,1427,1447,1466,1487,1507,1526,1547,1566,1587,1607,1626,1647,1667,1687,1707,1727,1747,1768,1786,1806,1827,1847,1867],"xSR":741.5,"ySR":469.95,"xT1":424.9,"yT1":0,"xT2":1058.1,"yT2":0,"toosoon":0,"cond_shown":"randomdotsizeEA","ratio_trial":250,"smaller_num":"6","larger_num":"24","correct_side":1,"subjID":"LUANACHAVESGONZALEZ31","gender":"1","age":"11","school":"6"},{"start_time":1551801590616,"click_time":1551801591893,"finger_time":1551801591574,"fix_duration":1201.509209241971,"trial":55,"RT":958,"MT":319,"sideResp":1,"stimulus":"img/750/equaldotanddens/L/14_Ratio_750_L_8_R_6.png","xmouse":[764,764,764,764,764,764,764,764,764,764,764,764,764,764,764,764,764,764,764,764,764,764,764,764,764,764,764,764,764,764,764,764,764,764,764,764,764,764,764,764,764,764,764,765,759,752,742,736,726,721,714,703,692,673,629,614,598,585,563,523,499,478,468,460],"ymouse":[501,501,501,501,501,501,501,501,501,501,501,501,501,501,501,501,501,501,501,501,501,501,501,501,501,501,501,501,501,501,501,501,501,501,501,501,501,501,501,501,501,501,501,500,491,485,478,474,464,459,448,436,422,403,355,333,311,295,267,212,176,141,115,95],"timestamp_mouse":[20,45,58,78,97,117,137,158,177,198,216,237,258,277,296,317,337,357,378,397,417,438,456,477,497,518,536,557,578,597,617,638,656,677,698,716,738,757,778,798,816,838,857,878,897,917,937,958,978,997,1016,1036,1056,1076,1097,1118,1137,1157,1177,1196,1217,1238,1257,1277],"xSR":741.5,"ySR":469.95,"xT1":424.9,"yT1":0,"xT2":1058.1,"yT2":0,"toosoon":0,"cond_shown":"equaldotanddens","ratio_trial":750,"smaller_num":"6","larger_num":"8","correct_side":1,"subjID":"LUANACHAVESGONZALEZ31","gender":"1","age":"11","school":"6"},{"start_time":1551801593928,"click_time":1551801595294,"finger_time":1551801594733,"fix_duration":1074.8961761008586,"trial":56,"RT":805,"MT":561,"sideResp":1,"stimulus":"img/500/randomdotsizeEA/L/5_Ratio_500_L_4_R_2.png","xmouse":[755,755,755,756,756,756,756,756,756,756,756,757,758,758,758,758,758,758,758,758,758,758,759,759,759,759,759,759,759,759,759,759,759,760,759,757,756,755,755,750,739,719,691,678,662,656,649,638,623,603,593,590,588,588,570,557,546,535,525,505,503,498,498,498,497,495,493,492,491],"ymouse":[517,517,517,517,517,517,517,517,517,517,517,517,517,517,517,517,517,517,517,517,517,517,517,517,517,517,517,517,517,517,517,517,517,517,512,508,507,507,506,503,496,487,470,462,450,444,438,428,415,387,353,323,284,232,167,147,136,127,122,110,109,107,107,107,106,105,103,101,99],"timestamp_mouse":[8,25,46,65,86,104,125,146,164,186,206,226,244,265,285,305,326,346,365,386,404,425,446,465,486,504,525,545,564,586,605,626,645,666,685,705,726,745,765,785,805,825,845,865,885,905,925,946,966,984,1005,1025,1046,1065,1085,1105,1126,1146,1166,1185,1205,1224,1245,1265,1284,1305,1324,1344,1366],"xSR":741.5,"ySR":469.95,"xT1":424.9,"yT1":0,"xT2":1058.1,"yT2":0,"toosoon":0,"cond_shown":"randomdotsizeEA","ratio_trial":500,"smaller_num":"2","larger_num":"4","correct_side":1,"subjID":"LUANACHAVESGONZALEZ31","gender":"1","age":"11","school":"6"},{"start_time":1551801597533,"click_time":1551801598793,"finger_time":1551801598332,"fix_duration":1198.5992279041036,"trial":57,"RT":799,"MT":461,"sideResp":2,"stimulus":"img/900/equaldotanddens/R/5_Ratio_900_L_9_R_10.png","xmouse":[788,788,788,788,788,788,788,788,788,788,788,788,788,788,788,788,788,788,788,788,788,788,788,788,788,788,788,788,788,788,788,788,788,788,788,788,787,786,786,792,797,801,809,816,830,838,848,857,868,881,888,893,900,906,913,926,933,942,951,963,998,1020,1045,1063],"ymouse":[512,512,512,512,512,512,512,512,512,512,512,512,512,512,512,512,512,512,512,512,512,512,512,512,512,512,512,512,512,512,512,512,512,512,512,512,509,505,500,471,453,437,418,393,346,318,288,265,245,214,197,187,178,171,164,152,149,143,140,135,123,114,104,96],"timestamp_mouse":[8,32,40,61,81,99,120,141,160,180,200,220,240,260,279,300,321,341,359,380,400,421,441,461,480,499,520,541,561,580,600,620,641,660,681,700,720,740,760,780,799,819,841,861,881,899,919,940,960,980,1000,1019,1039,1060,1081,1100,1120,1140,1160,1179,1200,1220,1239,1259],"xSR":741.5,"ySR":469.95,"xT1":424.9,"yT1":0,"xT2":1058.1,"yT2":0,"toosoon":0,"cond_shown":"equaldotanddens","ratio_trial":900,"smaller_num":"9","larger_num":"10","correct_side":2,"subjID":"LUANACHAVESGONZALEZ31","gender":"1","age":"11","school":"6"},{"start_time":1551801600475,"click_time":1551801601793,"finger_time":1551801601433,"fix_duration":760.1884563348311,"trial":58,"RT":958,"MT":360,"sideResp":2,"stimulus":"img/900/equaldotanddens/L/1_Ratio_900_L_10_R_9.png","xmouse":[789,789,789,789,789,789,789,789,789,789,789,789,789,789,789,789,789,789,789,789,789,789,789,789,789,789,789,789,789,789,789,789,789,789,789,789,789,789,790,790,790,791,794,801,813,826,839,859,867,875,881,886,904,914,928,940,950,965,968,971,978,985,1013,1035,1059,1075],"ymouse":[530,530,530,530,530,530,530,530,530,530,530,530,530,530,530,530,530,530,530,530,530,530,530,530,530,530,530,530,530,530,530,530,530,530,530,530,530,530,530,529,529,529,527,524,519,514,507,478,460,436,418,397,352,327,303,282,264,235,223,213,194,180,143,123,105,93],"timestamp_