[{"start_time":1551881944393,"click_time":1551881947999,"finger_time":1551881946798,"fix_duration":250,"trial":0,"RT":2405,"MT":1201,"sideResp":1,"stimulus":"img/500/equaldotsize/L/10_Ratio_500_L_4_R_2.png","xmouse":[802,801,801,801,801,801,801,801,801,801,801,801,801,801,801,801,801,801,801,801,801,801,801,801,801,801,801,801,801,800,800,800,800,800,800,800,800,801,804,812,826,829,829,829,829,829,829,829,829,829,829,829,829,829,829,829,829,829,829,829,829,829,829,829,829,829,829,829,829,829,829,829,829,829,829,829,829,829,829,829,829,829,829,829,829,829,829,829,829,829,829,829,829,829,829,829,829,829,829,829,829,829,829,829,829,829,829,829,829,829,829,829,829,829,829,829,829,829,829,829,843,869,893,907,912,914,912,908,902,896,874,855,833,813,794,767,764,764,764,764,764,763,761,760,752,723,700,671,661,653,634,623,604,580,555,525,521,518,517,512,497,488,487,487,487,487,488,488,488,488,491,492,492,492,492,492,492,492,492,493,494],"ymouse":[532,532,532,532,532,532,532,532,532,532,532,532,532,532,532,532,532,532,532,532,532,532,532,532,532,532,532,532,532,532,532,532,532,532,532,532,532,530,520,504,478,474,473,473,473,473,473,473,473,473,473,473,473,473,473,473,473,473,473,473,473,473,473,473,473,473,473,473,473,473,473,473,473,473,473,473,473,473,473,473,473,473,473,473,473,473,473,473,473,473,473,473,473,473,473,473,473,473,473,473,473,473,473,473,473,473,473,473,473,473,473,473,473,473,473,473,473,473,473,473,466,466,471,479,488,508,513,515,515,515,513,511,508,501,496,489,488,488,488,488,488,485,476,465,440,379,339,297,279,263,239,232,223,213,201,183,179,174,171,163,140,128,124,119,114,108,106,106,106,106,112,113,113,113,113,109,106,104,102,100,97],"timestamp_mouse":[8,41,45,64,85,104,124,145,165,184,205,225,244,266,285,305,326,345,364,385,405,424,446,466,484,505,525,545,564,585,605,625,645,664,684,705,725,745,766,785,805,825,846,865,886,905,925,945,965,985,1005,1026,1045,1065,1085,1104,1126,1145,1165,1184,1205,1225,1246,1265,1286,1305,1325,1345,1364,1385,1405,1425,1446,1464,1485,1504,1526,1546,1565,1585,1604,1624,1646,1666,1685,1704,1725,1744,1765,1785,1805,1824,1844,1865,1885,1905,1926,1945,1964,1985,2004,2024,2045,2066,2085,2106,2125,2145,2165,2185,2204,2225,2245,2265,2284,2304,2325,2344,2365,2385,2405,2425,2446,2465,2484,2504,2524,2545,2565,2585,2605,2624,2644,2666,2685,2705,2726,2746,2765,2785,2804,2825,2845,2865,2886,2905,2925,2945,2965,2985,3006,3025,3045,3065,3086,3105,3126,3145,3166,3185,3206,3224,3245,3264,3285,3305,3324,3344,3365,3385,3405,3425,3445,3465,3484,3505,3525,3545,3564,3585,3606],"xSR":741.5,"ySR":501.8,"xT1":424.9,"yT1":0,"xT2":1058.1,"yT2":0,"toosoon":0,"cond_shown":"equaldotsize","ratio_trial":500,"smaller_num":"2","larger_num":"4","correct_side":1,"subjID":"LucasMateoPena37","gender":"0","age":"12","school":"6","test":{"fix_dur":[250,1500],"timestim":300,"targets_dim":[100,100],"targets_relative_coord":[0.3,0.7],"size_stim":[880,420],"start_dim":[100,100],"size_start":[300,300],"size_fix":60,"samplingrate":20,"img_types":["equaldotsize","equaldotanddens","randomdotsizeEA"],"ratios":[250,500,750,900],"rep_conds":9,"nTrials":120,"trials_to_rest":500,"Trials_order":[99,1,78,13,51,77,110,75,81,50,56,36,40,86,2,102,87,59,65,31,72,71,114,16,12,34,21,76,64,84,97,25,103,90,26,119,22,7,67,108,45,23,33,15,61,8,92,89,10,37,93,101,113,29,73,105,63,30,91,96,24,27,5,53,19,70,14,6,4,46,52,17,94,95,42,118,74,62,43,107,28,109,9,20,49,39,100,66,98,115,60,112,104,3,41,58,85,117,88,44,116,54,18,111,57,106,68,80,83,55,11,38,32,48,82,35,69,47,0,79],"cond_shown":["equaldotsize","equaldotanddens","equaldotsize","equaldotanddens","equaldotsize","randomdotsizeEA","randomdotsizeEA","equaldotsize","equaldotsize","randomdotsizeEA","randomdotsizeEA","equaldotsize","equaldotanddens","randomdotsizeEA","randomdotsizeEA","equaldotsize","equaldotsize","randomdotsizeEA","randomdotsizeEA","equaldotanddens","equaldotsize","randomdotsizeEA","equaldotsize","equaldotanddens","equaldotsize","equaldotanddens","equaldotsize","equaldotanddens","equaldotanddens","equaldotsize","equaldotanddens","equaldotanddens","equaldotanddens","equaldotsize","randomdotsizeEA","randomdotsizeEA","equaldotanddens","equaldotanddens","equaldotanddens","equaldotsize","equaldotsize","randomdotsizeEA","equaldotsize","equaldotsize","equaldotanddens","randomdotsizeEA","randomdotsizeEA","randomdotsizeEA","equaldotanddens","equaldotanddens","equaldotsize","randomdotsizeEA","randomdotsizeEA","randomdotsizeEA","equaldotanddens","equaldotsize","equaldotsize","equaldotsize","equaldotanddens","equaldotsize","equaldotsize","equaldotsize","randomdotsizeEA","randomdotsizeEA","equaldotanddens","equaldotanddens","randomdotsizeEA","equaldotsize","equaldotanddens","equaldotanddens","equaldotanddens","randomdotsizeEA","equaldotanddens","randomdotsizeEA","equaldotsize","equaldotanddens","randomdotsizeEA","randomdotsizeEA","equaldotanddens","randomdotsizeEA","equaldotanddens","equaldotanddens","equaldotsize","randomdotsizeEA","equaldotanddens","equaldotsize","equaldotanddens","equaldotsize","randomdotsizeEA","equaldotanddens","equaldotsize","equaldotanddens","randomdotsizeEA","equaldotsize","randomdotsizeEA","equaldotanddens","equaldotanddens","equaldotsize","equaldotanddens","randomdotsizeEA","randomdotsizeEA","equaldotsize","equaldotsize","equaldotsize","equaldotsize","equaldotanddens","randomdotsizeEA","randomdotsizeEA","randomdotsizeEA","equaldotanddens","randomdotsizeEA","randomdotsizeEA","randomdotsizeEA","equaldotsize","equaldotanddens","randomdotsizeEA","equaldotsize","randomdotsizeEA","equaldotsize","equaldotanddens"],"ratio_trial":[500,250,750,250,500,500,250,500,900,250,750,250,500,250,250,750,500,900,500,750,250,900,750,500,250,900,900,500,500,250,250,250,750,750,250,900,900,750,750,250,900,900,900,500,250,750,750,500,900,250,900,500,500,500,250,900,500,750,750,250,250,500,500,500,750,900,250,750,500,900,500,500,900,900,750,900,250,250,750,900,500,250,900,750,250,500,500,750,250,750,250,500,750,500,500,900,250,900,500,750,750,750,750,500,900,900,750,750,900,750,900,250,750,250,900,900,900,900,250,750],"smaller_num":["2","6","15","6","9","4","3","2","18","3","18","3","9","4","3","9","2","9","2","15","4","9","15","6","6","9","18","9","4","4","3","3","12","15","4","9","18","12","18","2","9","18","9","2","3","15","6","6","18","4","9","2","4","9","2","18","2","3","6","3","2","10","2","6","6","9","6","18","2","18","1","2","18","9","15","18","1","2","3","9","9","3","9","9","6","2","10","18","2","3","2","5","9","1","2","18","5","9","1","15","15","3","3","1","9","9","9","3","9","15","18","3","3","2","18","9","18","18","3","6"],"larger_num":["4","24","20","24","18","8","12","4","20","12","24","12","18","16","12","12","4","10","4","20","16","10","20","12","24","10","20","18","8","16","12","12","16","20","16","10","20","16","24","8","10","20","10","4","12","20","8","12","20","16","10","4","8","18","8","20","4","4","8","12","8","20","4","12","8","10","24","24","4","20","2","4","20","10","20","20","4","8","4","10","18","12","10","12","24","4","20","24","8","4","8","10","12","2","4","20","20","10","2","20","20","4","4","2","10","10","12","4","10","20","20","12","4","8","20","10","20","20","12","8"],"correct_side":[1,1,2,2,2,1,1,1,2,1,1,2,2,2,1,2,1,1,2,2,1,2,1,1,2,1,1,1,1,1,2,2,2,1,2,2,2,2,1,1,2,1,1,1,2,1,2,1,2,1,2,1,1,2,1,1,1,1,2,1,1,2,2,1,1,2,1,1,2,1,2,1,1,2,1,1,2,1,2,2,2,1,2,2,1,1,2,1,1,1,1,2,2,2,1,1,2,2,2,2,2,2,1,2,1,2,2,2,1,1,1,1,1,1,1,1,1,1,1,1],"img_shown":["img/500/equaldotsize/L/10_Ratio_500_L_4_R_2.png","img/250/equaldotanddens/L/5_Ratio_250_L_24_R_6.png","img/750/equaldotsize/R/3_Ratio_750_L_15_R_20.png","img/250/equaldotanddens/R/6_Ratio_250_L_6_R_24.png","img/500/equaldotsize/R/6_Ratio_500_L_9_R_18.png","img/500/randomdotsizeEA/L/8_Ratio_500_L_8_R_4.png","img/250/randomdotsizeEA/L/15_Ratio_250_L_12_R_3.png","img/500/equaldotsize/L/10_Ratio_500_L_4_R_2.png","img/900/equaldotsize/R/14_Ratio_900_L_18_R_20.png","img/250/randomdotsizeEA/L/15_Ratio_250_L_12_R_3.png","img/750/randomdotsizeEA/L/6_Ratio_750_L_24_R_18.png","img/250/equaldotsize/R/9_Ratio_250_L_3_R_12.png","img/500/equaldotanddens/R/1_Ratio_500_L_9_R_18.png","img/250/randomdotsizeEA/R/10_Ratio_250_L_4_R_16.png","img/250/randomdotsizeEA/L/15_Ratio_250_L_12_R_3.png","img/750/equaldotsize/R/15_Ratio_750_L_9_R_12.png","img/500/equaldotsize/L/5_Ratio_500_L_4_R_2.png","img/900/randomdotsizeEA/L/1_Ratio_900_L_10_R_9.png","img/500/randomdotsizeEA/R/9_Ratio_500_L_2_R_4.png","img/750/equaldotanddens/R/3_Ratio_750_L_15_R_20.png","img/250/equaldotsize/L/2_Ratio_250_L_16_R_4.png","img/900/randomdotsizeEA/R/15_Ratio_900_L_9_R_10.png","img/750/equaldotsize/L/1_Ratio_750_L_20_R_15.png","img/500/equaldotanddens/L/13_Ratio_500_L_12_R_6.png","img/250/equaldotsize/R/6_Ratio_250_L_6_R_24.png","img/900/equaldotanddens/L/1_Ratio_900_L_10_R_9.png","img/900/equaldotsize/L/4_Ratio_900_L_20_R_18.png","img/500/equaldotanddens/L/4_Ratio_500_L_18_R_9.png","img/500/equaldotanddens/L/8_Ratio_500_L_8_R_4.png","img/250/equaldotsize/L/2_Ratio_250_L_16_R_4.png","img/250/equaldotanddens/R/4_Ratio_250_L_3_R_12.png","img/250/equaldotanddens/R/11_Ratio_250_L_3_R_12.png","img/750/equaldotanddens/R/11_Ratio_750_L_12_R_16.png","img/750/equaldotsize/L/1_Ratio_750_L_20_R_15.png","img/250/randomdotsizeEA/R/10_Ratio_250_L_4_R_16.png","img/900/randomdotsizeEA/R/5_Ratio_900_L_9_R_10.png","img/900/equaldotanddens/R/9_Ratio_900_L_18_R_20.png","img/750/equaldotanddens/R/11_Ratio_750_L_12_R_16.png","img/750/equaldotanddens/L/6_Ratio_750_L_24_R_18.png","img/250/equaldotsize/L/3_Ratio_250_L_8_R_2.png","img/900/equaldotsize/R/3_Ratio_900_L_9_R_10.png","img/900/randomdotsizeEA/L/2_Ratio_900_L_20_R_18.png","img/900/equaldotsize/L/1_Ratio_900_L_10_R_9.png","img/500/equaldotsize/L/10_Ratio_500_L_4_R_2.png","img/250/equaldotanddens/R/9_Ratio_250_L_3_R_12.png","img/750/randomdotsizeEA/L/1_Ratio_750_L_20_R_15.png","img/750/randomdotsizeEA/R/2_Ratio_750_L_6_R_8.png","img/500/randomdotsizeEA/L/13_Ratio_500_L_12_R_6.png","img/900/equaldotanddens/R/13_Ratio_900_L_18_R_20.png","img/250/equaldotanddens/L/2_Ratio_250_L_16_R_4.png","img/900/equaldotsize/R/3_Ratio_900_L_9_R_10.png","img/500/randomdotsizeEA/L/10_Ratio_500_L_4_R_2.png","img/500/randomdotsizeEA/L/8_Ratio_500_L_8_R_4.png","img/500/randomdotsizeEA/R/6_Ratio_500_L_9_R_18.png","img/250/equaldotanddens/L/3_Ratio_250_L_8_R_2.png","img/900/equaldotsize/L/10_Ratio_900_L_20_R_18.png","img/500/equaldotsize/L/10_Ratio_500_L_4_R_2.png","img/750/equaldotsize/L/10_Ratio_750_L_4_R_3.png","img/750/equaldotanddens/R/2_Ratio_750_L_6_R_8.png","img/250/equaldotsize/L/15_Ratio_250_L_12_R_3.png","img/250/equaldotsize/L/7_Ratio_250_L_8_R_2.png","img/500/equaldotsize/R/3_Ratio_500_L_10_R_20.png","img/500/randomdotsizeEA/R/9_Ratio_500_L_2_R_4.png","img/500/randomdotsizeEA/L/13_Ratio_500_L_12_R_6.png","img/750/equaldotanddens/L/13_Ratio_750_L_8_R_6.png","img/900/equaldotanddens/R/3_Ratio_900_L_9_R_10.png","img/250/randomdotsizeEA/L/5_Ratio_250_L_24_R_6.png","img/750/equaldotsize/L/6_Ratio_750_L_24_R_18.png","img/500/equaldotanddens/R/9_Ratio_500_L_2_R_4.png","img/900/equaldotanddens/L/2_Ratio_900_L_20_R_18.png","img/500/equaldotanddens/R/12_Ratio_500_L_1_R_2.png","img/500/randomdotsizeEA/L/10_Ratio_500_L_4_R_2.png","img/900/equaldotanddens/L/4_Ratio_900_L_20_R_18.png","img/900/randomdotsizeEA/R/7_Ratio_900_L_9_R_10.png","img/750/equaldotsize/L/1_Ratio_750_L_20_R_15.png","img/900/equaldotanddens/L/10_Ratio_900_L_20_R_18.png","img/250/randomdotsizeEA/R/8_Ratio_250_L_1_R_4.png","img/250/randomdotsizeEA/L/3_Ratio_250_L_8_R_2.png","img/750/equaldotanddens/R/7_Ratio_750_L_3_R_4.png","img/900/randomdotsizeEA/R/5_Ratio_900_L_9_R_10.png","img/500/equaldotanddens/R/6_Ratio_500_L_9_R_18.png","img/250/equaldotanddens/L/15_Ratio_250_L_12_R_3.png","img/900/equaldotsize/R/5_Ratio_900_L_9_R_10.png","img/750/randomdotsizeEA/R/15_Ratio_750_L_9_R_12.png","img/250/equaldotanddens/L/5_Ratio_250_L_24_R_6.png","img/500/equaldotsize/L/5_Ratio_500_L_4_R_2.png","img/500/equaldotanddens/R/3_Ratio_500_L_10_R_20.png","img/750/equaldotsize/L/6_Ratio_750_L_24_R_18.png","img/250/randomdotsizeEA/L/1_Ratio_250_L_8_R_2.png","img/750/equaldotanddens/L/10_Ratio_750_L_4_R_3.png","img/250/equaldotsize/L/3_Ratio_250_L_8_R_2.png","img/500/equaldotanddens/R/14_Ratio_500_L_5_R_10.png","img/750/randomdotsizeEA/R/15_Ratio_750_L_9_R_12.png","img/500/equaldotsize/R/15_Ratio_500_L_1_R_2.png","img/500/randomdotsizeEA/L/10_Ratio_500_L_4_R_2.png","img/900/equaldotanddens/L/2_Ratio_900_L_20_R_18.png","img/250/equaldotanddens/R/12_Ratio_250_L_5_R_20.png","img/900/equaldotsize/R/3_Ratio_900_L_9_R_10.png","img/500/equaldotanddens/R/12_Ratio_500_L_1_R_2.png","img/750/randomdotsizeEA/R/5_Ratio_750_L_15_R_20.png","img/750/randomdotsizeEA/R/4_Ratio_750_L_15_R_20.png","img/750/equaldotsize/R/12_Ratio_750_L_3_R_4.png","img/750/equaldotsize/L/10_Ratio_750_L_4_R_3.png","img/500/equaldotsize/R/15_Ratio_500_L_1_R_2.png","img/900/equaldotsize/L/1_Ratio_900_L_10_R_9.png","img/900/equaldotanddens/R/15_Ratio_900_L_9_R_10.png","img/750/randomdotsizeEA/R/15_Ratio_750_L_9_R_12.png","img/750/randomdotsizeEA/R/12_Ratio_750_L_3_R_4.png","img/900/randomdotsizeEA/L/1_Ratio_900_L_10_R_9.png","img/750/equaldotanddens/L/1_Ratio_750_L_20_R_15.png","img/900/randomdotsizeEA/L/4_Ratio_900_L_20_R_18.png","img/250/randomdotsizeEA/L/14_Ratio_250_L_12_R_3.png","img/750/randomdotsizeEA/L/8_Ratio_750_L_4_R_3.png","img/250/equaldotsize/L/3_Ratio_250_L_8_R_2.png","img/900/equaldotanddens/L/10_Ratio_900_L_20_R_18.png","img/900/randomdotsizeEA/L/1_Ratio_900_L_10_R_9.png","img/900/equaldotsize/L/10_Ratio_900_L_20_R_18.png","img/900/randomdotsizeEA/L/10_Ratio_900_L_20_R_18.png","img/250/equaldotsize/L/15_Ratio_250_L_12_R_3.png","img/750/equaldotanddens/L/14_Ratio_750_L_8_R_6.png"],"Rat0":[["12_Ratio_0_L_9_R_0.png","13_Ratio_0_L_6_R_0.png","5_Ratio_0_L_2_R_0.png","6_Ratio_0_L_4_R_0.png","8_Ratio_0_L_6_R_0.png"],["1_Ratio_0_L_0_R_17.png","10_Ratio_0_L_0_R_22.png","11_Ratio_0_L_0_R_1.png","14_Ratio_0_L_0_R_24.png","15_Ratio_0_L_0_R_4.png","2_Ratio_0_L_0_R_5.png","3_Ratio_0_L_0_R_17.png","4_Ratio_0_L_0_R_7.png","7_Ratio_0_L_0_R_19.png","9_Ratio_0_L_0_R_15.png"]],"Rat250":[["1_Ratio_250_L_8_R_2.png","14_Ratio_250_L_12_R_3.png","15_Ratio_250_L_12_R_3.png","2_Ratio_250_L_16_R_4.png","3_Ratio_250_L_8_R_2.png","5_Ratio_250_L_24_R_6.png","7_Ratio_250_L_8_R_2.png"],["10_Ratio_250_L_4_R_16.png","11_Ratio_250_L_3_R_12.png","12_Ratio_250_L_5_R_20.png","13_Ratio_250_L_2_R_8.png","4_Ratio_250_L_3_R_12.png","6_Ratio_250_L_6_R_24.png","8_Ratio_250_L_1_R_4.png","9_Ratio_250_L_3_R_12.png"]],"Rat500":[["10_Ratio_500_L_4_R_2.png","11_Ratio_500_L_12_R_6.png","13_Ratio_500_L_12_R_6.png","4_Ratio_500_L_18_R_9.png","5_Ratio_500_L_4_R_2.png","7_Ratio_500_L_10_R_5.png","8_Ratio_500_L_8_R_4.png"],["1_Ratio_500_L_9_R_18.png","12_Ratio_500_L_1_R_2.png","14_Ratio_500_L_5_R_10.png","15_Ratio_500_L_1_R_2.png","2_Ratio_500_L_3_R_6.png","3_Ratio_500_L_10_R_20.png","6_Ratio_500_L_9_R_18.png","9_Ratio_500_L_2_R_4.png"]],"Rat750":[["1_Ratio_750_L_20_R_15.png","10_Ratio_750_L_4_R_3.png","13_Ratio_750_L_8_R_6.png","14_Ratio_750_L_8_R_6.png","6_Ratio_750_L_24_R_18.png","8_Ratio_750_L_4_R_3.png","9_Ratio_750_L_4_R_3.png"],["11_Ratio_750_L_12_R_16.png","12_Ratio_750_L_3_R_4.png","15_Ratio_750_L_9_R_12.png","2_Ratio_750_L_6_R_8.png","3_Ratio_750_L_15_R_20.png","4_Ratio_750_L_15_R_20.png","5_Ratio_750_L_15_R_20.png","7_Ratio_750_L_3_R_4.png"]],"Rat900":[["1_Ratio_900_L_10_R_9.png","10_Ratio_900_L_20_R_18.png","2_Ratio_900_L_20_R_18.png","4_Ratio_900_L_20_R_18.png","8_Ratio_900_L_20_R_18.png"],["11_Ratio_900_L_18_R_20.png","12_Ratio_900_L_18_R_20.png","13_Ratio_900_L_18_R_20.png","14_Ratio_900_L_18_R_20.png","15_Ratio_900_L_9_R_10.png","3_Ratio_900_L_9_R_10.png","5_Ratio_900_L_9_R_10.png","6_Ratio_900_L_9_R_10.png","7_Ratio_900_L_9_R_10.png","9_Ratio_900_L_18_R_20.png"]],"Rat1000":[["10_Ratio_1000_L_16_R_16.png","11_Ratio_1000_L_6_R_6.png","12_Ratio_1000_L_14_R_14.png","13_Ratio_1000_L_20_R_20.png","15_Ratio_1000_L_15_R_15.png","2_Ratio_1000_L_17_R_17.png","4_Ratio_1000_L_9_R_9.png","5_Ratio_1000_L_6_R_6.png","6_Ratio_1000_L_19_R_19.png","8_Ratio_1000_L_14_R_14.png","9_Ratio_1000_L_25_R_25.png"],["1_Ratio_1000_L_1_R_1.png","14_Ratio_1000_L_17_R_17.png","3_Ratio_1000_L_17_R_17.png","7_Ratio_1000_L_6_R_6.png"]]}},{"start_time":1551881950991,"click_time":1551881951898,"finger_time":1551881951598,"fix_duration":250,"trial":1,"RT":607,"MT":300,"sideResp":1,"stimulus":"img/250/equaldotanddens/L/5_Ratio_250_L_24_R_6.png","xmouse":[753,753,753,753,753,753,753,753,753,753,753,753,753,753,753,753,753,753,753,753,753,753,753,753,753,753,753,753,755,759,774,774,750,711,662,561,531,516,516,516,516,513,511,506,497,477],"ymouse":[538,538,538,538,538,538,538,538,538,538,538,538,538,538,538,538,538,538,538,538,538,538,538,538,538,538,538,538,537,521,432,375,309,247,193,132,118,114,114,114,113,111,110,106,100,84],"timestamp_mouse":[8,26,48,67,88,106,127,146,168,186,207,227,248,268,286,307,328,348,366,388,408,427,447,468,486,508,527,546,566,588,607,626,647,667,688,707,727,746,767,787,808,826,848,867,886,907],"xSR":741.5,"ySR":469.95,"xT1":424.9,"yT1":0,"xT2":1058.1,"yT2":0,"toosoon":0,"cond_shown":"equaldotanddens","ratio_trial":250,"smaller_num":"6","larger_num":"24","correct_side":1,"subjID":"LucasMateoPena37","gender":"0","age":"12","school":"6"},{"start_time":1551881954167,"click_time":1551881955178,"finger_time":1551881954738,"fix_duration":1427.565910942031,"trial":2,"RT":571,"MT":440,"sideResp":2,"stimulus":"img/750/equaldotsize/R/3_Ratio_750_L_15_R_20.png","xmouse":[807,807,807,807,807,807,807,807,807,807,807,807,807,807,807,807,807,807,807,807,807,807,810,813,815,816,819,824,846,872,908,975,1010,1041,1059,1067,1072,1072,1072,1072,1072,1072,1072,1072,1072,1074,1075,1077,1078,1079,1081],"ymouse":[511,511,511,511,511,511,511,511,511,511,511,511,511,511,511,511,511,511,511,511,511,509,506,504,502,500,490,477,433,388,340,258,220,178,146,129,114,114,114,114,114,114,114,114,113,111,108,106,104,103,99],"timestamp_mouse":[10,30,59,71,91,111,131,152,172,190,211,231,252,272,290,311,332,350,371,392,410,432,451,472,491,511,531,551,570,591,610,632,650,671,691,712,730,751,771,792,811,831,851,872,890,911,931,951,971,992,1011],"xSR":741.5,"ySR":469.95,"xT1":424.9,"yT1":0,"xT2":1058.1,"yT2":0,"toosoon":0,"cond_shown":"equaldotsize","ratio_trial":750,"smaller_num":"15","larger_num":"20","correct_side":2,"subjID":"LucasMateoPena37","gender":"0","age":"12","school":"6"},{"start_time":1551881957518,"click_time":1551881958379,"finger_time":1551881958039,"fix_duration":1460.4159643860714,"trial":3,"RT":521,"MT":340,"sideResp":2,"stimulus":"img/250/equaldotanddens/R/6_Ratio_250_L_6_R_24.png","xmouse":[805,805,805,805,805,805,805,805,805,805,805,805,805,805,805,805,805,805,805,805,805,805,805,804,808,822,849,889,981,1013,1027,1040,1049,1049,1049,1049,1049,1049,1049,1049,1049,1049,1120],"ymouse":[509,509,509,509,509,509,509,509,509,509,509,509,509,509,509,509,509,509,509,509,509,509,509,508,487,443,376,294,127,73,45,17,1,1,1,1,1,1,1,1,1,1,4],"timestamp_mouse":[20,40,61,80,100,120,140,161,180,201,221,239,260,281,299,321,339,359,381,401,421,440,459,480,500,521,540,559,580,601,620,639,660,679,700,720,740,760,780,800,820,839,860],"xSR":741.5,"ySR":469.95,"xT1":424.9,"yT1":0,"xT2":1058.1,"yT2":0,"toosoon":0,"cond_shown":"equaldotanddens","ratio_trial":250,"smaller_num":"6","larger_num":"24","correct_side":2,"subjID":"LucasMateoPena37","gender":"0","age":"12","school":"6"},{"start_time":1551881959968,"click_time":1551881960779,"finger_time":1551881960558,"fix_duration":708.0583774649434,"trial":4,"RT":590,"MT":221,"sideResp":2,"stimulus":"img/500/equaldotsize/R/6_Ratio_500_L_9_R_18.png","xmouse":[798,798,798,798,798,798,798,798,798,798,798,798,798,798,798,798,798,798,798,798,798,798,798,798,798,798,798,800,802,819,843,898,919,932,942,949,967,978,1000,1030,1059],"ymouse":[513,513,513,513,513,513,513,513,513,513,513,513,513,513,513,513,513,513,513,513,513,513,513,513,513,509,508,501,496,466,426,336,311,291,272,255,221,200,163,126,95],"timestamp_mouse":[10,30,58,70,91,111,131,151,169,189,210,230,251,269,290,309,331,351,369,390,409,430,449,470,489,511,530,550,570,590,611,631,649,671,690,710,729,751,770,790,811],"xSR":741.5,"ySR":469.95,"xT1":424.9,"yT1":0,"xT2":1058.1,"yT2":0,"toosoon":0,"cond_shown":"equaldotsize","ratio_trial":500,"smaller_num":"9","larger_num":"18","correct_side":2,"subjID":"LucasMateoPena37","gender":"0","age":"12","school":"6"},{"start_time":1551881962599,"click_time":1551881963798,"finger_time":1551881963459,"fix_duration":860.5499401799732,"trial":5,"RT":860,"MT":339,"sideResp":2,"stimulus":"img/500/randomdotsizeEA/L/8_Ratio_500_L_8_R_4.png","xmouse":[785,785,785,785,785,785,785,785,785,785,785,785,785,785,785,785,785,785,785,785,785,785,785,785,785,785,785,785,785,785,785,785,785,785,785,785,785,785,785,785,789,797,808,829,881,904,932,979,997,1018,1028,1038,1049,1058,1066,1068,1074,1081,1086,1105],"ymouse":[519,519,519,519,519,519,519,519,519,519,519,519,519,519,519,519,519,519,519,519,519,519,519,519,519,519,519,519,519,519,519,519,519,519,519,519,519,519,519,513,499,478,451,417,347,320,288,235,213,188,174,158,141,128,117,115,112,108,105,91],"timestamp_mouse":[20,38,60,79,99,120,139,158,180,199,219,239,258,279,300,320,339,359,380,399,419,439,458,479,499,519,540,558,579,599,618,640,659,679,699,720,739,758,779,799,819,839,860,880,899,919,939,959,979,1000,1019,1039,1059,1078,1098,1120,1138,1158,1180,1199],"xSR":741.5,"ySR":469.95,"xT1":424.9,"yT1":0,"xT2":1058.1,"yT2":0,"toosoon":0,"cond_shown":"randomdotsizeEA","ratio_trial":500,"smaller_num":"4","larger_num":"8","correct_side":1,"subjID":"LucasMateoPena37","gender":"0","age":"12","school":"6"},{"start_time":1551881965581,"click_time":1551881966778,"finger_time":1551881966478,"fix_duration":982.0815866611184,"trial":6,"RT":897,"MT":300,"sideResp":1,"stimulus":"img/250/randomdotsizeEA/L/15_Ratio_250_L_12_R_3.png","xmouse":[795,795,795,795,795,795,795,795,795,795,795,795,795,795,795,795,795,795,795,795,795,795,795,795,795,795,795,795,795,795,795,795,795,795,795,795,795,795,795,795,795,795,794,794,793,767,750,727,700,685,651,633,615,600,590,570,559,544,534,522],"ymouse":[505,505,505,505,505,505,505,505,505,505,505,505,505,505,505,505,505,505,505,505,505,505,505,505,505,505,505,505,505,505,505,505,505,505,505,505,505,505,505,505,505,505,490,476,433,318,268,226,185,166,126,110,94,81,73,61,56,53,49,46],"timestamp_mouse":[17,36,62,77,96,116,138,158,176,197,217,237,258,277,297,317,337,356,377,397,416,438,456,477,497,517,537,557,576,597,617,637,656,678,697,718,737,756,777,797,818,836,858,877,897,917,938,957,977,997,1018,1037,1057,1078,1097,1117,1137,1156,1177,1197],"xSR":741.5,"ySR":469.95,"xT1":424.9,"yT1":0,"xT2":1058.1,"yT2":0,"toosoon":0,"cond_shown":"randomdotsizeEA","ratio_trial":250,"smaller_num":"3","larger_num":"12","correct_side":1,"subjID":"LucasMateoPena37","gender":"0","age":"12","school":"6"},{"start_time":1551881968314,"click_time":1551881969598,"finger_time":1551881969238,"fix_duration":755.7584720732536,"trial":7,"RT":924,"MT":360,"sideResp":1,"stimulus":"img/500/equaldotsize/L/10_Ratio_500_L_4_R_2.png","xmouse":[804,804,804,804,804,804,804,804,804,804,804,804,804,804,804,804,804,804,804,804,804,804,804,804,804,804,804,804,804,804,804,804,804,804,804,804,804,804,804,804,804,805,806,806,806,808,808,808,805,768,708,665,631,601,585,579,571,562,556,542,535,530,528,526,524],"ymouse":[523,523,523,523,523,523,523,523,523,523,523,523,523,523,523,523,523,523,523,523,523,523,523,523,523,523,523,523,523,523,523,523,523,523,523,523,523,523,523,523,523,522,521,521,511,494,465,426,389,266,150,90,54,35,26,23,20,16,15,15,19,25,27,30,33],"timestamp_mouse":[8,28,44,65,84,105,124,143,165,184,204,224,244,265,283,304,324,344,365,384,404,425,443,464,485,505,525,544,564,583,605,624,644,664,683,705,725,743,764,784,805,823,844,864,884,904,924,944,964,983,1005,1023,1045,1064,1084,1104,1123,1143,1165,1183,1204,1224,1244,1264,1283],"xSR":741.5,"ySR":469.95,"xT1":424.9,"yT1":0,"xT2":1058.1,"yT2":0,"toosoon":0,"cond_shown":"equaldotsize","ratio_trial":500,"smaller_num":"2","larger_num":"4","correct_side":1,"subjID":"LucasMateoPena37","gender":"0","age":"12","school":"6"},{"start_time":1551881971065,"click_time":1551881972078,"finger_time":1551881971738,"fix_duration":725.9746244110748,"trial":8,"RT":673,"MT":340,"sideResp":2,"stimulus":"img/900/equaldotsize/R/14_Ratio_900_L_18_R_20.png","xmouse":[787,787,787,787,787,787,787,787,787,787,787,787,787,787,787,787,787,787,787,787,787,787,787,787,787,786,786,786,786,786,787,789,791,795,802,812,836,852,878,910,933,959,971,991,1003,1012,1033,1044,1053,1058,1059],"ymouse":[512,512,512,512,512,512,512,512,512,512,512,512,512,512,512,512,512,512,512,512,512,512,512,512,512,512,511,509,506,504,498,481,471,459,433,410,357,328,285,241,208,173,157,132,116,103,79,69,63,60,58],"timestamp_mouse":[14,33,62,74,93,113,133,152,172,193,213,234,253,272,293,313,333,352,374,394,414,433,453,472,493,514,534,553,573,593,614,632,653,673,692,713,733,753,773,794,813,833,853,873,893,914,932,952,972,994,1013],"xSR":741.5,"ySR":469.95,"xT1":424.9,"yT1":0,"xT2":1058.1,"yT2":0,"toosoon":0,"cond_shown":"equaldotsize","ratio_trial":900,"smaller_num":"18","larger_num":"20","correct_side":2,"subjID":"LucasMateoPena37","gender":"0","age":"12","school":"6"},{"start_time":1551881973242,"click_time":1551881974178,"finger_time":1551881973897,"fix_duration":522.1589743180494,"trial":9,"RT":655,"MT":281,"sideResp":1,"stimulus":"img/250/randomdotsizeEA/L/15_Ratio_250_L_12_R_3.png","xmouse":[805,805,805,805,805,805,805,805,805,805,805,805,805,804,804,804,803,803,803,803,803,802,802,802,802,802,802,802,801,799,797,794,779,763,758,725,705,662,645,630,613,592,564,555,545,529,519],"ymouse":[546,546,546,546,546,546,546,546,546,546,546,546,546,545,545,544,544,544,543,543,543,543,543,543,543,543,543,543,543,537,524,500,397,292,261,159,113,61,49,39,30,22,15,14,15,28,40],"timestamp_mouse":[19,36,55,77,96,117,137,157,176,196,217,236,255,277,296,316,335,356,376,395,416,436,456,475,496,516,537,556,575,597,616,635,655,677,696,716,736,756,776,796,816,837,855,876,896,915,936],"xSR":741.5,"ySR":469.95,"xT1":424.9,"yT1":0,"xT2":1058.1,"yT2":0,"toosoon":0,"cond_shown":"randomdotsizeEA","ratio_trial":250,"smaller_num":"3","larger_num":"12","correct_side":1,"subjID":"LucasMateoPena37","gender":"0","age":"12","school":"6"},{"start_time":1551881976134,"click_time":1551881977297,"finger_time":1551881976758,"fix_duration":1175.031587329115,"trial":10,"RT":624,"MT":539,"sideResp":1,"stimulus":"img/750/randomdotsizeEA/L/6_Ratio_750_L_24_R_18.png","xmouse":[808,808,808,808,808,808,808,808,808,808,808,808,808,808,808,808,808,808,808,808,808,808,808,808,808,808,809,811,815,816,818,822,826,830,831,831,831,831,831,831,831,831,831,831,831,831,831,831,808,778,764,722,684,606,583,563,544,531,500],"ymouse":[511,511,511,511,511,511,511,511,511,511,511,511,511,511,511,511,511,511,511,511,511,511,511,511,511,509,507,503,491,488,483,468,452,419,410,406,405,405,405,405,405,405,405,405,405,405,403,393,348,301,284,239,206,147,126,112,100,89,70],"timestamp_mouse":[8,23,44,65,84,104,124,144,164,184,203,225,244,264,284,305,324,345,364,384,404,424,443,463,484,504,524,545,564,584,604,624,644,664,684,704,724,744,764,785,804,824,844,864,884,903,924,945,964,985,1004,1023,1044,1063,1084,1104,1124,1143,1163],"xSR":741.5,"ySR":469.95,"xT1":424.9,"yT1":0,"xT2":1058.1,"yT2":0,"toosoon":0,"cond_shown":"randomdotsizeEA","ratio_trial":750,"smaller_num":"18","larger_num":"24","correct_side":1,"subjID":"LucasMateoPena37","gender":"0","age":"12","school":"6"},{"start_time":1551881978330,"click_time":1551881979298,"finger_time":1551881978998,"fix_duration":250,"trial":11,"RT":668,"MT":300,"sideResp":2,"stimulus":"img/250/equaldotsize/R/9_Ratio_250_L_3_R_12.png","xmouse":[784,784,784,784,784,784,784,784,784,784,784,784,784,784,784,784,784,784,784,784,784,784,784,784,784,784,784,784,784,784,784,786,792,831,882,934,968,984,995,997,999,1002,1005,1011,1014,1022,1032,1043,1062],"ymouse":[509,508,508,508,508,508,508,508,508,508,508,508,508,508,508,508,508,508,508,508,508,508,508,508,508,508,508,508,508,508,508,506,497,443,379,310,263,237,208,193,183,172,160,147,141,129,119,108,97],"timestamp_mouse":[8,28,49,68,89,107,127,149,169,189,209,228,249,269,289,309,328,348,368,389,409,427,449,469,488,508,528,549,567,588,609,627,648,667,687,708,728,749,768,788,808,828,848,867,888,909,928,948,968],"xSR":741.5,"ySR":469.95,"xT1":424.9,"yT1":0,"xT2":1058.1,"yT2":0,"toosoon":0,"cond_shown":"equaldotsize","ratio_trial":250,"smaller_num":"3","larger_num":"12","correct_side":2,"subjID":"LucasMateoPena37","gender":"0","age":"12","school":"6"},{"start_time":1551881980326,"click_time":1551881981138,"finger_time":1551881980798,"fix_duration":447.78756081000193,"trial":12,"RT":472,"MT":340,"sideResp":2,"stimulus":"img/500/equaldotanddens/R/1_Ratio_500_L_9_R_18.png","xmouse":[772,772,772,772,772,772,772,772,772,772,772,772,772,771,771,771,771,771,771,771,771,778,791,850,901,953,1003,1032,1056,1060,1061,1069,1076,1085,1085,1085,1085,1083,1075,1072,1075],"ymouse":[532,532,532,532,532,532,532,532,532,532,532,532,532,530,528,527,527,527,527,523,519,505,488,419,367,316,267,238,212,205,204,189,176,157,155,154,153,148,122,100,84],"timestamp_mouse":[13,33,52,72,91,111,132,152,173,192,213,232,251,272,292,313,332,352,372,391,412,432,453,472,492,513,532,551,571,593,612,633,652,671,691,712,732,753,771,793,812],"xSR":741.5,"ySR":469.95,"xT1":424.9,"yT1":0,"xT2":1058.1,"yT2":0,"toosoon":0,"cond_shown":"equaldotanddens","ratio_trial":500,"smaller_num":"9","larger_num":"18","correct_side":2,"subjID":"LucasMateoPena37","gender":"0","age":"12","school":"6"},{"start_time":1551881983249,"click_time":1551881984118,"finger_time":1551881983698,"fix_duration":1350.1774635757122,"trial":13,"RT":449,"MT":420,"sideResp":1,"stimulus":"img/250/randomdotsizeEA/R/10_Ratio_250_L_4_R_16.png","xmouse":[800,800,800,800,800,800,800,800,800,800,800,800,800,800,800,800,800,800,800,800,808,822,866,888,906,916,916,906,893,880,865,849,792,759,697,662,638,609,596,586,577,569,539,523],"ymouse":[535,535,535,535,535,535,535,535,535,535,535,535,535,535,535,535,535,535,534,531,521,505,458,440,424,409,405,396,391,388,383,378,335,299,219,178,151,117,103,92,83,73,48,38],"timestamp_mouse":[9,29,59,70,89,110,130,148,170,190,209,229,248,269,289,309,330,349,369,388,409,429,449,468,489,508,529,549,568,588,609,629,649,669,688,709,730,749,769,789,810,830,849,869],"xSR":741.5,"ySR":469.95,"xT1":424.9,"yT1":0,"xT2":1058.1,"yT2":0,"toosoon":0,"cond_shown":"randomdotsizeEA","ratio_trial":250,"smaller_num":"4","larger_num":"16","correct_side":2,"subjID":"LucasMateoPena37","gender":"0","age":"12","school":"6"},{"start_time":1551881986107,"click_time":1551881987538,"finger_time":1551881987258,"fix_duration":1107.936875252974,"trial":14,"RT":1151,"MT":280,"sideResp":2,"stimulus":"img/250/randomdotsizeEA/L/15_Ratio_250_L_12_R_3.png","xmouse":[822,817,810,797,785,785,785,785,785,785,785,785,785,785,785,785,785,785,785,785,785,785,785,785,785,785,785,785,785,785,785,785,785,785,785,785,785,785,785,785,785,785,785,785,785,785,785,785,785,785,785,785,785,785,785,787,812,842,873,916,924,926,928,928,928,928,928,932,945,1002,1038,1074],"ymouse":[546,546,547,553,557,557,557,557,557,557,557,557,557,557,557,557,557,557,557,557,557,557,557,557,557,557,557,557,557,557,557,557,557,557,557,557,557,557,557,557,557,557,557,557,557,557,557,557,557,557,557,557,557,557,557,550,515,476,418,266,209,164,112,95,75,70,68,64,61,59,59,68],"timestamp_mouse":[17,37,50,72,90,112,131,151,172,192,211,230,252,272,291,312,331,352,371,391,411,430,451,472,491,512,532,552,571,591,611,631,650,672,691,711,730,751,772,792,811,832,852,871,892,912,930,950,972,992,1011,1030,1052,1072,1091,1111,1132,1151,1172,1191,1210,1231,1250,1270,1292,1310,1331,1350,1370,1391,1411,1431],"xSR":741.5,"ySR":469.95,"xT1":424.9,"yT1":0,"xT2":1058.1,"yT2":0,"toosoon":0,"cond_shown":"randomdotsizeEA","ratio_trial":250,"smaller_num":"3","larger_num":"12","correct_side":1,"subjID":"LucasMateoPena37","gender":"0","age":"12","school":"6"},{"start_time":1551881988531,"click_time":1551881989918,"finger_time":1551881988958,"fix_duration":250,"trial":15,"RT":427,"MT":960,"sideResp":2,"stimulus":"img/750/equaldotsize/R/15_Ratio_750_L_9_R_12.png","xmouse":[780,780,780,780,780,780,780,780,780,780,780,780,780,780,780,780,780,780,780,780,789,814,859,1011,1062,1094,1111,1114,1098,1076,1042,1028,1022,1021,1021,1021,1021,1018,1012,1012,1012,1012,1012,1014,1014,1015,1018,1022,1033,1037,1040,1041,1041,1041,1041,1040,1035,1031,1022,1017,1006,1002,999,999,999,998,1005,1018,1044,1060],"ymouse":[485,485,485,485,485,485,485,485,485,485,485,485,485,485,485,485,485,485,485,485,480,466,439,351,313,279,248,223,159,122,74,52,43,41,41,41,40,40,54,65,66,66,66,67,67,67,67,67,67,67,67,67,67,67,67,67,67,67,67,67,69,70,71,71,71,71,72,72,72,72],"timestamp_mouse":[6,34,47,68,87,108,128,147,167,188,208,226,248,268,287,307,326,347,367,386,407,427,446,467,486,508,527,547,567,586,606,627,648,667,687,708,727,748,767,787,807,827,846,867,887,907,928,947,966,987,1006,1027,1048,1067,1087,1106,1127,1148,1167,1186,1206,1228,1248,1267,1286,1307,1327,1348,1366,1387],"xSR":741.5,"ySR":469.95,"xT1":424.9,"yT1":0,"xT2":1058.1,"yT2":0,"toosoon":0,"cond_shown":"equaldotsize","ratio_trial":750,"smaller_num":"9","larger_num":"12","correct_side":2,"subjID":"LucasMateoPena37","gender":"0","age":"12","school":"6"},{"start_time":1551881991144,"click_time":1551881992158,"finger_time":1551881991758,"fix_duration":445.5601474395102,"trial":16,"RT":614,"MT":400,"sideResp":1,"stimulus":"img/500/equaldotsize/L/5_Ratio_500_L_4_R_2.png","xmouse":[815,815,815,815,815,815,815,815,815,815,815,815,815,815,815,815,815,815,815,815,815,815,815,815,815,815,815,815,815,815,815,815,810,804,800,793,784,753,739,726,708,698,670,656,645,633,615,570,551,535,514],"ymouse":[486,486,486,486,486,486,486,486,486,486,486,486,486,486,486,486,486,486,486,486,486,486,486,486,486,486,486,486,486,471,450,417,361,338,319,298,269,224,211,201,192,189,184,182,178,173,162,132,119,105,88],"timestamp_mouse":[14,33,54,74,94,115,134,154,173,195,215,234,255,273,294,314,335,353,375,395,414,435,454,473,495,514,534,554,575,594,614,635,653,674,694,714,733,753,774,794,813,835,854,873,894,914,933,954,974,995,1014],"xSR":741.5,"ySR":469.95,"xT1":424.9,"yT1":0,"xT2":1058.1,"yT2":0,"toosoon":0,"cond_shown":"equaldotsize","ratio_trial":500,"smaller_num":"2","larger_num":"4","correct_side":1,"subjID":"LucasMateoPena37","gender":"0","age":"12","school":"6"},{"start_time":1551881994870,"click_time":1551881995958,"finger_time":1551881995519,"fix_duration":250,"trial":17,"RT":649,"MT":439,"sideResp":1,"stimulus":"img/900/randomdotsizeEA/L/1_Ratio_900_L_10_R_9.png","xmouse":[802,802,802,802,802,802,802,802,801,801,801,801,801,801,800,799,799,799,798,798,798,798,798,796,793,790,789,789,789,789,788,777,755,742,706,688,653,632,612,577,548,512,501,500,498,498,497,497,496,494,493,488,487,486,486],"ymouse":[521,521,521,521,521,521,521,522,523,523,523,523,523,522,520,518,518,517,517,517,517,517,517,514,510,507,507,507,507,507,504,477,436,417,367,337,270,227,201,178,166,146,138,136,135,134,133,132,132,132,131,128,123,111,97],"timestamp_mouse":[7,28,54,68,88,108,127,148,168,187,209,229,248,267,289,309,328,348,368,389,409,428,448,467,488,508,527,547,568,588,608,628,649,668,688,709,727,747,769,788,809,827,849,867,888,908,928,948,967,988,1009,1027,1048,1067,1088],"xSR":741.5,"ySR":469.95,"xT1":424.9,"yT1":0,"xT2":1058.1,"yT2":0,"toosoon":0,"cond_shown":"randomdotsizeEA","ratio_trial":900,"smaller_num":"9","larger_num":"10","correct_side":1,"subjID":"LucasMateoPena37","gender":"0","age":"12","school":"6"},{"start_time":1551881997232,"click_time":1551881998158,"finger_time":1551881997698,"fix_duration":413.79042259043297,"trial":18,"RT":466,"MT":460,"sideResp":2,"stimulus":"img/500/randomdotsizeEA/R/9_Ratio_500_L_2_R_4.png","xmouse":[776,776,776,776,776,776,776,776,776,776,776,776,776,776,776,776,776,776,777,777,779,782,788,803,837,849,888,913,921,921,921,921,921,921,921,925,937,946,968,981,995,1018,1035,1046,1047,1050,1059],"ymouse":[518,518,518,518,518,518,518,518,518,518,518,518,518,518,517,516,513,512,507,504,500,489,480,459,419,405,347,307,269,264,263,262,262,258,250,234,208,192,155,139,124,108,99,95,95,94,93],"timestamp_mouse":[8,26,47,66,86,107,125,146,166,186,207,227,247,265,286,306,327,345,365,386,406,425,447,466,485,506,527,546,565,585,606,626,646,666,687,706,725,745,766,786,805,826,847,867,887,905,925],"xSR":741.5,"ySR":469.95,"xT1":424.9,"yT1":0,"xT2":1058.1,"yT2":0,"toosoon":0,"cond_shown":"randomdotsizeEA","ratio_trial":500,"smaller_num":"2","larger_num":"4","correct_side":2,"subjID":"LucasMateoPena37","gender":"0","age":"12","school":"6"},{"start_time":1551881999879,"click_time":1551882001258,"finger_time":1551882000557,"fix_duration":940.1997314616691,"trial":19,"RT":678,"MT":701,"sideResp":2,"stimulus":"img/750/equaldotanddens/R/3_Ratio_750_L_15_R_20.png","xmouse":[819,819,819,819,819,819,819,819,819,817,816,815,814,813,813,813,813,813,813,813,813,813,813,813,813,813,813,813,813,813,813,815,815,812,807,791,782,775,773,775,813,898,927,946,961,977,981,984,986,989,996,999,1003,1015,1037,1110,1142,1178,1194,1196,1199,1199,1199,1199,1199,1192,1181,1167,1153],"ymouse":[525,525,525,525,525,525,525,525,525,524,523,523,523,522,522,522,522,522,522,522,522,522,522,522,522,522,522,522,522,522,517,497,480,461,440,396,375,352,341,332,322,329,334,334,333,321,315,310,307,303,298,296,295,293,293,290,278,216,154,124,93,89,84,83,82,77,72,66,60],"timestamp_mouse":[19,38,59,79,99,119,139,159,178,200,218,239,259,280,298,319,339,359,378,399,419,438,460,479,499,520,539,559,578,599,618,640,658,678,699,718,739,760,779,798,818,839,858,878,898,919,939,960,979,998,1019,1039,1059,1080,1100,1119,1138,1159,1179,1198,1219,1239,1258,1278,1298,1319,1339,1358,1379],"xSR":741.5,"ySR":469.95,"xT1":424.9,"yT1":0,"xT2":1058.1,"yT2":0,"toosoon":0,"cond_shown":"equaldotanddens","ratio_trial":750,"smaller_num":"15","larger_num":"20","correct_side":2,"subjID":"LucasMateoPena37","gender":"0","age":"12","school":"6"},{"start_time":1551882002684,"click_time":1551882003599,"finger_time":1551882003338,"fix_duration":584.2715837255255,"trial":20,"RT":654,"MT":261,"sideResp":1,"stimulus":"img/250/equaldotsize/L/2_Ratio_250_L_16_R_4.png","xmouse":[796,796,796,796,796,796,796,796,796,796,796,796,796,796,796,796,796,796,796,796,796,796,796,796,796,796,796,796,796,796,796,793,772,756,737,707,695,680,661,642,616,606,592,565,539,486],"ymouse":[521,521,521,521,521,521,521,521,521,521,521,521,521,521,521,521,521,521,521,521,521,521,521,521,521,521,521,521,521,521,520,505,452,395,332,231,195,157,114,73,35,26,22,19,19,19],"timestamp_mouse":[14,34,59,74,93,114,134,155,174,195,214,235,256,274,294,314,336,355,376,394,416,434,454,474,494,514,535,555,574,595,614,635,654,674,694,714,734,756,775,795,815,835,855,874,894,915],"xSR":741.5,"ySR":469.95,"xT1":424.9,"yT1":0,"xT2":1058.1,"yT2":0,"toosoon":0,"cond_shown":"equaldotsize","ratio_trial":250,"smaller_num":"4","larger_num":"16","correct_side":1,"subjID":"LucasMateoPena37","gender":"0","age":"12","school":"6"},{"start_time":1551882005759,"click_time":1551882006479,"finger_time":1551882006319,"fix_duration":1338.9807520203474,"trial":21,"RT":560,"MT":160,"sideResp":2,"stimulus":"img/900/randomdotsizeEA/R/15_Ratio_900_L_9_R_10.png","xmouse":[773,773,773,773,773,773,773,773,773,773,773,773,773,773,773,773,773,773,773,773,773,773,773,773,773,773,773,782,801,829,873,903,964,992,1020,1051,1076],"ymouse":[505,505,505,505,505,505,505,505,505,505,505,505,505,505,505,505,505,505,505,505,505,505,505,505,505,505,504,479,438,378,289,236,139,102,74,51,34],"timestamp_mouse":[2,21,41,59,79,100,119,139,161,179,200,219,240,259,280,300,319,340,360,381,400,421,439,460,479,500,520,539,560,579,601,620,640,659,679,699,720],"xSR":741.5,"ySR":469.95,"xT1":424.9,"yT1":0,"xT2":1058.1,"yT2":0,"toosoon":0,"cond_shown":"randomdotsizeEA","ratio_trial":900,"smaller_num":"9","larger_num":"10","correct_side":2,"subjID":"LucasMateoPena37","gender":"0","age":"12","school":"6"},{"start_time":1551882008220,"click_time":1551882009039,"finger_time":1551882008738,"fix_duration":1040.7625928300604,"trial":22,"RT":518,"MT":301,"sideResp":1,"stimulus":"img/750/equaldotsize/L/1_Ratio_750_L_20_R_15.png","xmouse":[817,817,817,817,817,817,817,817,817,817,817,817,817,817,817,817,817,817,817,817,817,817,817,817,820,822,822,815,775,756,732,706,678,641,621,603,576,560,535,528,520],"ymouse":[499,499,499,499,498,498,498,498,498,498,498,498,498,498,498,498,498,498,498,498,498,498,498,498,491,464,414,349,228,177,144,112,85,61,54,46,41,41,44,48,52],"timestamp_mouse":[19,43,58,79,99,118,140,158,178,200,218,238,259,278,299,318,338,358,378,398,420,438,459,478,499,518,538,559,579,598,618,638,658,678,698,718,739,759,778,798,819],"xSR":741.5,"ySR":469.95,"xT1":424.9,"yT1":0,"xT2":1058.1,"yT2":0,"toosoon":0,"cond_shown":"equaldotsize","ratio_trial":750,"smaller_num":"15","larger_num":"20","correct_side":1,"subjID":"LucasMateoPena37","gender":"0","age":"12","school":"6"},{"start_time":1551882010011,"click_time":1551882011018,"finger_time":1551882010618,"fix_duration":250,"trial":23,"RT":607,"MT":400,"sideResp":1,"stimulus":"img/500/equaldotanddens/L/13_Ratio_500_L_12_R_6.png","xmouse":[820,820,820,820,820,820,820,820,820,820,820,820,820,820,820,820,820,820,820,820,820,820,820,820,820,820,820,820,820,820,820,820,813,796,729,713,672,655,642,609,593,578,567,560,551,545,542,537,533,525,521],"ymouse":[508,508,508,508,508,508,508,508,508,508,508,508,508,508,508,508,508,508,508,508,508,508,508,508,508,508,508,508,508,495,468,425,371,314,190,170,135,128,124,123,123,123,123,123,118,110,103,95,89,76,70],"timestamp_mouse":[7,38,47,67,88,109,129,147,167,187,208,228,248,267,287,307,329,347,369,388,407,428,447,467,487,508,527,548,567,588,607,627,648,669,688,707,727,749,768,788,807,828,848,868,887,907,928,948,968,987,1007],"xSR":741.5,"ySR":469.95,"xT1":424.9,"yT1":0,"xT2":1058.1,"yT2":0,"toosoon":0,"cond_shown":"equaldotanddens","ratio_trial":500,"smaller_num":"6","larger_num":"12","correct_side":1,"subjID":"LucasMateoPena37","gender":"0","age":"12","school":"6"},{"start_time":1551882013065,"click_time":1551882013658,"finger_time":1551882013498,"fix_duration":1126.330090898637,"trial":24,"RT":433,"MT":160,"sideResp":2,"stimulus":"img/250/equaldotsize/R/6_Ratio_250_L_6_R_24.png","xmouse":[774,775,776,776,776,776,776,776,776,776,776,776,776,776,776,776,777,777,778,779,785,829,874,944,974,999,1030,1041,1056,1069],"ymouse":[488,490,490,490,490,490,490,490,490,490,490,490,490,490,490,490,490,490,489,486,473,398,335,266,231,199,143,116,91,71],"timestamp_mouse":[15,46,53,73,93,113,135,154,173,194,214,234,255,274,295,314,334,354,374,393,414,433,454,473,493,513,533,553,573,593],"xSR":741.5,"ySR":469.95,"xT1":424.9,"yT1":0,"xT2":1058.1,"yT2":0,"toosoon":0,"cond_shown":"equaldotsize","ratio_trial":250,"smaller_num":"6","larger_num":"24","correct_side":2,"subjID":"LucasMateoPena37","gender":"0","age":"12","school":"6"},{"start_time":1551882016254,"click_time":1551882017379,"finger_time":1551882016979,"fix_duration":354.3383301917952,"trial":25,"RT":725,"MT":400,"sideResp":2,"stimulus":"img/900/equaldotanddens/L/1_Ratio_900_L_10_R_9.png","xmouse":[812,812,812,812,812,812,812,812,812,812,812,812,812,811,811,811,811,811,811,811,811,811,811,811,811,811,811,811,811,811,811,811,809,806,803,801,801,820,833,856,885,910,939,946,949,957,964,983,997,1010,1022,1031,1041,1046,1048,1054,1061],"ymouse":[524,524,524,524,524,524,524,524,524,524,524,523,523,523,523,523,522,522,522,522,522,522,522,522,522,522,522,522,522,522,522,522,519,510,499,472,450,407,386,358,323,292,251,237,225,203,186,153,137,125,113,101,89,83,82,78,73],"timestamp_mouse":[7,24,54,65,85,104,124,144,164,184,205,225,244,264,284,305,325,344,365,384,404,424,444,464,485,504,524,545,566,585,606,624,644,665,684,706,725,744,764,785,804,825,844,866,884,905,924,945,964,984,1004,1026,1044,1064,1085,1105,1125],"xSR":741.5,"ySR":469.95,"xT1":424.9,"yT1":0,"xT2":1058.1,"yT2":0,"toosoon":0,"cond_shown":"equaldotanddens","ratio_trial":900,"smaller_num":"9","larger_num":"10","correct_side":1,"subjID":"LucasMateoPena37","gender":"0","age":"12","school":"6"},{"start_time":1551882018568,"click_time":1551882019298,"finger_time":1551882019159,"fix_duration":468.5560081902134,"trial":26,"RT":591,"MT":139,"sideResp":1,"stimulus":"img/900/equaldotsize/L/4_Ratio_900_L_20_R_18.png","xmouse":[782,782,782,782,782,782,782,782,782,782,782,782,782,782,782,782,782,782,782,782,782,782,782,782,782,782,782,781,780,772,760,702,665,619,577,537,494],"ymouse":[497,497,497,497,497,497,497,497,497,497,497,497,497,497,497,497,497,497,497,497,497,497,497,497,497,497,497,493,490,463,427,300,236,168,124,90,53],"timestamp_mouse":[10,30,50,70,92,111,132,152,170,190,210,230,250,270,291,310,330,351,370,391,412,431,450,472,490,510,531,550,570,591,610,631,651,670,690,711,730],"xSR":741.5,"ySR":469.95,"xT1":424.9,"yT1":0,"xT2":1058.1,"yT2":0,"toosoon":0,"cond_shown":"equaldotsize","ratio_trial":900,"smaller_num":"18","larger_num":"20","correct_side":1,"subjID":"LucasMateoPena37","gender":"0","age":"12","school":"6"},{"start_time":1551882020838,"click_time":1551882021639,"finger_time":1551882021358,"fix_duration":718.9090912563236,"trial":27,"RT":520,"MT":281,"sideResp":1,"stimulus":"img/500/equaldotanddens/L/4_Ratio_500_L_18_R_9.png","xmouse":[796,796,796,796,796,796,796,796,796,796,796,796,796,796,796,796,796,796,796,794,794,794,794,790,785,772,722,683,611,585,566,551,541,532,528,520,510,502,501,500,499],"ymouse":[542,542,542,542,542,542,542,542,542,542,542,542,542,542,542,542,542,542,541,540,540,540,539,536,523,493,402,340,246,214,186,156,132,110,106,103,101,101,101,100,98],"timestamp_mouse":[7,20,42,60,82,102,121,141,161,181,200,221,241,261,282,300,321,340,361,381,401,420,442,460,480,501,520,541,561,580,600,620,640,660,681,700,721,740,760,780,801],"xSR":741.5,"ySR":469.95,"xT1":424.9,"yT1":0,"xT2":1058.1,"yT2":0,"toosoon":0,"cond_shown":"equaldotanddens","ratio_trial":500,"smaller_num":"9","larger_num":"18","correct_side":1,"subjID":"LucasMateoPena37","gender":"0","age":"12","school":"6"},{"start_time":1551882025109,"click_time":1551882025938,"finger_time":1551882025659,"fix_duration":1289.00821597318,"trial":28,"RT":550,"MT":279,"sideResp":1,"stimulus":"img/500/equaldotanddens/L/8_Ratio_500_L_8_R_4.png","xmouse":[803,803,803,803,803,803,803,803,803,803,803,803,803,803,803,803,803,803,803,803,803,803,803,803,803,804,794,773,739,654,631,612,603,593,585,583,582,580,578,561,545,517],"ymouse":[522,522,522,522,522,522,522,522,522,522,522,522,522,522,522,522,522,522,522,522,522,522,522,522,522,519,493,437,357,210,172,142,126,114,102,100,99,98,96,87,79,69],"timestamp_mouse":[9,35,49,69,89,109,130,149,169,189,210,229,250,270,290,310,329,349,370,390,410,429,449,469,490,509,529,550,569,589,610,629,649,670,689,709,730,749,769,790,810,829],"xSR":741.5,"ySR":469.95,"xT1":424.9,"yT1":0,"xT2":1058.1,"yT2":0,"toosoon":0,"cond_shown":"equaldotanddens","ratio_trial":500,"smaller_num":"4","larger_num":"8","correct_side":1,"subjID":"LucasMateoPena37","gender":"0","age":"12","school":"6"},{"start_time":1551882027413,"click_time":1551882028219,"finger_time":1551882027799,"fix_duration":652.9245065760199,"trial":29,"RT":386,"MT":420,"sideResp":1,"stimulus":"img/250/equaldotsize/L/2_Ratio_250_L_16_R_4.png","xmouse":[820,820,820,820,820,820,820,820,820,820,820,820,820,820,820,820,815,809,805,790,774,755,740,727,703,692,681,666,652,620,607,597,592,587,576,566,561,556,552,532,519],"ymouse":[526,526,526,526,526,526,526,526,526,526,526,526,526,524,518,514,504,494,489,467,436,401,378,359,323,302,280,243,211,154,132,121,116,111,100,92,88,87,86,84,82],"timestamp_mouse":[9,30,45,67,85,105,126,145,165,186,206,226,245,265,285,305,325,345,366,386,405,425,445,467,485,506,525,545,565,586,605,627,646,665,686,706,725,745,766,786,805],"xSR":741.5,"ySR":469.95,"xT1":424.9,"yT1":0,"xT2":1058.1,"yT2":0,"toosoon":0,"cond_shown":"equaldotsize","ratio_trial":250,"smaller_num":"4","larger_num":"16","correct_side":1,"subjID":"LucasMateoPena37","gender":"0","age":"12","school":"6"},{"start_time":1551882031552,"click_time":1551882032239,"finger_time":1551882031998,"fix_duration":250,"trial":30,"RT":446,"MT":241,"sideResp":2,"stimulus":"img/250/equaldotanddens/R/4_Ratio_250_L_3_R_12.png","xmouse":[792,792,792,792,792,792,792,792,792,792,792,792,792,792,792,792,792,792,792,792,792,796,808,818,832,844,860,903,935,974,1025,1050,1082,1088,1088],"ymouse":[543,543,543,543,543,543,543,543,543,543,543,543,543,543,543,543,543,543,543,543,543,536,432,361,307,286,269,232,214,192,162,144,110,100,98],"timestamp_mouse":[7,27,47,66,101,107,126,148,167,187,206,226,246,266,288,306,327,347,368,386,406,427,446,466,486,506,527,546,567,586,606,626,646,666,687],"xSR":741.5,"ySR":469.95,"xT1":424.9,"yT1":0,"xT2":1058.1,"yT2":0,"toosoon":0,"cond_shown":"equaldotanddens","ratio_trial":250,"smaller_num":"3","larger_num":"12","correct_side":2,"subjID":"LucasMateoPena37","gender":"0","age":"12","school":"6"},{"start_time":1551882034315,"click_time":1551882034939,"finger_time":1551882034618,"fix_duration":1275.0340110464404,"trial":31,"RT":303,"MT":321,"sideResp":2,"stimulus":"img/250/equaldotanddens/R/11_Ratio_250_L_3_R_12.png","xmouse":[810,810,810,810,810,810,810,810,810,810,810,810,810,810,811,814,815,816,817,821,826,834,853,869,900,918,941,966,994,1041,1057,1077],"ymouse":[477,477,477,477,477,477,477,477,477,477,477,477,477,477,474,461,453,446,438,426,413,396,366,345,301,278,244,203,167,110,95,80],"timestamp_mouse":[8,23,43,63,84,103,124,143,164,183,203,225,245,264,283,303,323,343,364,383,403,423,444,464,484,503,524,543,563,585,604,624],"xSR":741.5,"ySR":469.95,"xT1":424.9,"yT1":0,"xT2":1058.1,"yT2":0,"toosoon":0,"cond_shown":"equaldotanddens","ratio_trial":250,"smaller_num":"3","larger_num":"12","correct_side":2,"subjID":"LucasMateoPena37","gender":"0","age":"12","school":"6"},{"start_time":1551882037215,"click_time":1551882038098,"finger_time":1551882037798,"fix_duration":1455.2734727590978,"trial":32,"RT":583,"MT":300,"sideResp":2,"stimulus":"img/750/equaldotanddens/R/11_Ratio_750_L_12_R_16.png","xmouse":[802,802,802,802,802,802,802,802,802,802,802,802,802,802,802,802,802,802,802,802,802,802,802,802,802,803,805,813,822,832,834,838,845,856,896,916,963,1006,1040,1080,1092,1102,1112,1128,1150],"ymouse":[530,530,530,530,530,530,530,530,530,530,530,530,530,530,530,530,530,530,530,530,530,530,530,530,530,524,514,489,470,445,441,435,427,416,378,359,304,251,204,153,137,124,113,100,85],"timestamp_mouse":[9,23,44,65,83,103,124,144,165,184,203,224,243,270,283,305,324,343,365,383,404,425,444,464,483,503,523,544,564,583,603,624,643,663,683,703,723,745,764,784,804,823,843,864,883],"xSR":741.5,"ySR":469.95,"xT1":424.9,"yT1":0,"xT2":1058.1,"yT2":0,"toosoon":0,"cond_shown":"equaldotanddens","ratio_trial":750,"smaller_num":"12","larger_num":"16","correct_side":2,"subjID":"LucasMateoPena37","gender":"0","age":"12","school":"6"},{"start_time":1551882039090,"click_time":1551882039859,"finger_time":1551882039698,"fix_duration":250,"trial":33,"RT":608,"MT":161,"sideResp":1,"stimulus":"img/750/equaldotsize/L/1_Ratio_750_L_20_R_15.png","xmouse":[816,816,816,816,816,816,816,816,816,816,816,816,816,816,816,816,816,816,816,816,816,816,816,816,816,816,816,816,815,814,802,774,747,715,686,624,579,542,517],"ymouse":[499,499,499,499,499,499,499,499,499,499,499,499,499,499,499,499,499,499,499,499,499,499,499,499,499,499,499,499,493,486,423,333,276,229,195,129,100,80,68],"timestamp_mouse":[9,36,48,69,88,108,128,148,168,188,208,229,249,268,290,308,328,348,368,389,409,428,448,468,488,508,528,549,568,589,608,629,648,670,689,709,728,748,768],"xSR":741.5,"ySR":469.95,"xT1":424.9,"yT1":0,"xT2":1058.1,"yT2":0,"toosoon":0,"cond_shown":"equaldotsize","ratio_trial":750,"smaller_num":"15","larger_num":"20","correct_side":1,"subjID":"LucasMateoPena37","gender":"0","age":"12","school":"6"},{"start_time":1551882041814,"click_time":1551882042559,"finger_time":1551882042379,"fix_duration":1315.258939160624,"trial":34,"RT":565,"MT":180,"sideResp":2,"stimulus":"img/250/randomdotsizeEA/R/10_Ratio_250_L_4_R_16.png","xmouse":[821,821,821,821,821,821,821,821,821,821,821,821,821,821,821,821,821,821,821,821,821,821,821,821,821,821,821,831,848,920,956,988,1012,1030,1074,1105,1113,1129],"ymouse":[505,505,505,505,505,505,505,505,505,505,505,505,505,505,505,505,505,505,505,505,505,505,505,505,505,505,499,483,456,360,319,281,250,225,162,118,110,88],"timestamp_mouse":[7,30,46,64,85,106,124,144,165,184,205,226,244,265,286,304,325,344,365,386,405,425,444,465,486,504,524,545,565,584,604,625,645,665,684,704,725,745],"xSR":741.5,"ySR":469.95,"xT1":424.9,"yT1":0,"xT2":1058.1,"yT2":0,"toosoon":0,"cond_shown":"randomdotsizeEA","ratio_trial":250,"smaller_num":"4","larger_num":"16","correct_side":2,"subjID":"LucasMateoPena37","gender":"0","age":"12","school":"6"},{"start_time":1551882044544,"click_time":1551882045618,"finger_time":1551882045159,"fix_duration":1144.4149242007352,"trial":35,"RT":615,"MT":459,"sideResp":1,"stimulus":"img/900/randomdotsizeEA/R/5_Ratio_900_L_9_R_10.png","xmouse":[802,802,802,802,802,802,802,802,802,802,802,802,802,802,802,802,802,802,802,802,802,802,802,802,802,802,802,802,802,802,802,798,765,739,712,686,660,626,612,609,604,600,590,584,577,571,566,558,555,552,550,546,525,504],"ymouse":[507,507,507,507,507,507,507,507,507,507,507,507,507,507,507,507,507,507,507,507,507,507,507,507,507,507,507,507,504,497,460,412,290,231,183,140,115,91,85,84,83,83,84,84,86,89,93,99,100,100,100,97,85,77],"timestamp_mouse":[15,36,55,75,94,114,135,154,176,194,214,234,256,275,294,314,335,354,376,394,414,435,455,475,496,516,534,554,575,595,615,634,655,674,695,715,734,754,774,794,815,835,855,875,896,915,935,954,974,995,1015,1035,1055,1074],"xSR":741.5,"ySR":469.95,"xT1":424.9,"yT1":0,"xT2":1058.1,"yT2":0,"toosoon":0,"cond_shown":"randomdotsizeEA","ratio_trial":900,"smaller_num":"9","larger_num":"10","correct_side":2,"subjID":"LucasMateoPena37","gender":"0","age":"12","school":"6"},{"start_time":1551882047174,"click_time":1551882048138,"finger_time":1551882047698,"fix_duration":834.1817875330391,"trial":36,"RT":524,"MT":440,"sideResp":2,"stimulus":"img/900/equaldotanddens/R/9_Ratio_900_L_18_R_20.png","xmouse":[801,801,801,801,801,801,801,801,801,801,801,801,801,801,801,801,801,801,801,801,801,801,801,801,803,807,832,888,910,971,1002,1034,1040,1046,1049,1050,1050,1051,1051,1051,1051,1051,1051,1051,1051,1051,1051,1105,1111],"ymouse":[515,515,515,515,515,515,515,515,515,515,515,515,515,515,515,515,515,515,515,515,515,515,514,512,510,503,458,376,346,256,198,119,94,72,52,39,10,1,1,1,1,1,1,1,1,1,1,0,22],"timestamp_mouse":[8,25,46,64,85,104,126,144,166,186,205,226,244,265,286,305,325,344,364,386,404,424,444,465,485,506,524,544,564,586,605,624,645,665,685,705,724,745,764,785,804,825,845,866,885,905,924,945,964],"xSR":741.5,"ySR":469.95,"xT1":424.9,"yT1":0,"xT2":1058.1,"yT2":0,"toosoon":0,"cond_shown":"equaldotanddens","ratio_trial":900,"smaller_num":"18","larger_num":"20","correct_side":2,"subjID":"LucasMateoPena37","gender":"0","age":"12","school":"6"},{"start_time":1551882049761,"click_time":1551882050718,"finger_time":1551882050379,"fix_duration":962.3610218067399,"trial":37,"RT":618,"MT":339,"sideResp":2,"stimulus":"img/750/equaldotanddens/R/11_Ratio_750_L_12_R_16.png","xmouse":[801,801,801,801,801,801,801,801,801,801,801,801,801,801,801,801,801,801,801,801,801,801,801,801,801,801,801,801,801,811,833,906,940,971,991,1005,1017,1021,1026,1027,1027,1027,1027,1029,1034,1039,1056,1068],"ymouse":[515,515,515,515,515,515,515,515,515,515,515,515,515,515,515,515,515,515,515,515,515,515,515,515,515,515,515,515,513,490,444,314,258,216,184,158,134,126,118,114,110,109,109,106,102,98,86,77],"timestamp_mouse":[18,39,58,77,99,118,139,157,178,199,218,239,259,277,299,317,338,358,377,399,417,438,459,477,497,519,537,557,577,597,618,638,657,677,697,718,737,758,778,798,817,838,857,878,897,919,937,957],"xSR":741.5,"ySR":469.95,"xT1":424.9,"yT1":0,"xT2":1058.1,"yT2":0,"toosoon":0,"cond_shown":"equaldotanddens","ratio_trial":750,"smaller_num":"12","larger_num":"16","correct_side":2,"subjID":"LucasMateoPena37","gender":"0","age":"12","school":"6"},{"start_time":1551882052195,"click_time":1551882053118,"finger_time":1551882052798,"fix_duration":755.0582290255514,"trial":38,"RT":603,"MT":320,"sideResp":1,"stimulus":"img/750/equaldotanddens/L/6_Ratio_750_L_24_R_18.png","xmouse":[787,787,787,787,787,787,787,787,787,787,787,787,787,787,787,787,787,787,787,787,787,787,787,787,787,787,787,787,785,779,731,692,650,617,596,585,583,581,579,577,572,569,565,558,548,532,523],"ymouse":[530,530,530,530,530,530,530,530,530,530,530,530,530,530,530,530,530,530,530,530,530,530,530,530,530,530,530,530,520,501,361,267,185,124,94,73,70,69,68,68,69,71,72,72,70,63,60],"timestamp_mouse":[8,24,47,63,85,104,123,145,163,185,203,223,243,264,284,305,323,344,363,385,404,424,445,464,484,504,523,543,564,584,603,623,643,663,683,703,724,744,763,783,803,825,845,864,883,903,923],"xSR":741.5,"ySR":469.95,"xT1":424.9,"yT1":0,"xT2":1058.1,"yT2":0,"toosoon":0,"cond_shown":"equaldotanddens","ratio_trial":750,"smaller_num":"18","larger_num":"24","correct_side":1,"subjID":"LucasMateoPena37","gender":"0","age":"12","school":"6"},{"start_time":1551882054070,"click_time":1551882054900,"finger_time":1551882054519,"fix_duration":250,"trial":39,"RT":449,"MT":381,"sideResp":1,"stimulus":"img/250/equaldotsize/L/3_Ratio_250_L_8_R_2.png","xmouse":[798,798,798,798,798,798,798,798,798,798,798,798,798,798,798,798,797,796,793,790,788,779,771,756,738,712,661,638,619,599,573,573,573,573,573,573,573,573,573,573,573,441],"ymouse":[512,512,512,512,512,512,512,512,512,512,512,512,512,512,512,512,511,510,508,504,500,478,460,419,374,312,194,149,94,45,5,5,5,5,5,5,5,5,5,5,5,4],"timestamp_mouse":[9,28,49,68,89,108,129,150,168,189,208,229,250,270,290,309,330,348,370,388,409,428,449,469,488,508,529,549,569,589,608,628,649,668,689,709,729,750,769,789,809,830],"xSR":741.5,"ySR":469.95,"xT1":424.9,"yT1":0,"xT2":1058.1,"yT2":0,"toosoon":0,"cond_shown":"equaldotsize","ratio_trial":250,"smaller_num":"2","larger_num":"8","correct_side":1,"subjID":"LucasMateoPena37","gender":"0","age":"12","school":"6"},{"start_time":1551882056720,"click_time":1551882057519,"finger_time":1551882057198,"fix_duration":1020.1590713631135,"trial":40,"RT":478,"MT":321,"sideResp":2,"stimulus":"img/900/equaldotsize/R/3_Ratio_900_L_9_R_10.png","xmouse":[813,813,813,813,813,813,813,813,813,813,813,813,813,813,813,813,813,813,813,813,813,814,822,858,886,915,947,967,996,1011,1032,1045,1056,1073,1076,1076,1076,1073,1068,1064],"ymouse":[508,508,508,508,508,508,508,508,508,508,508,508,508,508,508,508,508,508,508,508,508,508,498,450,411,369,325,293,244,223,196,180,165,139,133,130,128,125,106,97],"timestamp_mouse":[18,38,60,79,99,118,138,160,178,199,218,240,258,278,299,320,339,359,378,400,418,438,458,478,498,519,538,559,578,599,619,638,659,679,698,718,739,758,778,799],"xSR":741.5,"ySR":469.95,"xT1":424.9,"yT1":0,"xT2":1058.1,"yT2":0,"toosoon":0,"cond_shown":"equaldotsize","ratio_trial":900,"smaller_num":"9","larger_num":"10","correct_side":2,"subjID":"LucasMateoPena37","gender":"0","age":"12","school":"6"},{"start_time":1551882058551,"click_time":1551882059218,"finger_time":1551882059039,"fix_duration":250,"trial":41,"RT":488,"MT":179,"sideResp":1,"stimulus":"img/900/randomdotsizeEA/L/2_Ratio_900_L_20_R_18.png","xmouse":[764,764,764,764,764,764,764,764,764,764,764,764,764,764,764,764,764,764,764,764,764,764,764,763,760,753,738,682,652,629,598,577,540,519],"ymouse":[524,524,524,524,524,524,524,524,524,524,524,524,524,524,523,522,519,514,514,514,513,511,497,483,469,450,411,315,272,241,196,168,118,95],"timestamp_mouse":[9,36,48,68,88,107,127,148,168,189,207,227,249,267,288,308,327,347,368,389,408,427,447,467,488,508,528,547,567,587,607,628,647,667],"xSR":741.5,"ySR":469.95,"xT1":424.9,"yT1":0,"xT2":1058.1,"yT2":0,"toosoon":0,"cond_shown":"randomdotsizeEA","ratio_trial":900,"smaller_num":"18","larger_num":"20","correct_side":1,"subjID":"LucasMateoPena37","gender":"0","age":"12","school":"6"},{"start_time":1551882060112,"click_time":1551882060979,"finger_time":1551882060698,"fix_duration":250,"trial":42,"RT":586,"MT":281,"sideResp":1,"stimulus":"img/900/equaldotsize/L/1_Ratio_900_L_10_R_9.png","xmouse":[785,785,785,785,785,785,785,785,785,785,785,785,785,785,785,785,785,785,785,785,784,784,784,784,784,784,781,774,759,708,681,636,604,575,544,534,529,525,520,515,514,513,513,513],"ymouse":[555,555,555,555,555,555,555,555,555,555,555,555,555,555,555,555,555,555,555,555,555,555,555,555,555,555,547,526,488,364,317,249,207,172,144,139,136,132,125,113,110,106,101,95],"timestamp_mouse":[7,33,46,68,87,108,128,147,166,188,206,228,248,267,287,306,326,347,368,386,406,426,447,467,487,506,527,546,568,586,606,626,647,667,687,706,727,746,767,786,806,826,848,867],"xSR":741.5,"ySR":469.95,"xT1":424.9,"yT1":0,"xT2":1058.1,"yT2":0,"toosoon":0,"cond_shown":"equaldotsize","ratio_trial":900,"smaller_num":"9","larger_num":"10","correct_side":1,"subjID":"LucasMateoPena37","gender":"0","age":"12","school":"6"},{"start_time":1551882062082,"click_time":1551882063000,"finger_time":1551882062738,"fix_duration":342.0326215027437,"trial":43,"RT":656,"MT":262,"sideResp":1,"stimulus":"img/500/equaldotsize/L/10_Ratio_500_L_4_R_2.png","xmouse":[795,795,795,795,795,795,795,795,795,795,795,795,795,795,795,795,795,795,795,795,795,795,795,796,796,796,796,796,796,796,791,784,767,723,681,607,586,574,563,559,554,546,540,535,532,524],"ymouse":[530,530,530,530,530,530,530,530,530,530,530,530,530,530,530,530,530,530,530,530,530,530,530,528,527,523,521,520,519,518,500,477,425,326,261,171,136,115,98,90,84,80,78,77,77,78],"timestamp_mouse":[18,36,57,76,97,117,137,158,178,198,218,237,256,278,297,316,336,357,376,398,418,436,457,476,496,517,536,558,576,598,616,638,656,678,697,717,736,756,777,797,816,836,856,877,896,917],"xSR":741.5,"ySR":469.95,"xT1":424.9,"yT1":0,"xT2":1058.1,"yT2":0,"toosoon":0,"cond_shown":"equaldotsize","ratio_trial":500,"smaller_num":"2","larger_num":"4","correct_side":1,"subjID":"LucasMateoPena37","gender":"0","age":"12","school":"6"},{"start_time":1551882064193,"click_time":1551882064779,"finger_time":1551882064598,"fix_duration":352.91685961186437,"trial":44,"RT":405,"MT":181,"sideResp":2,"stimulus":"img/250/equaldotanddens/R/9_Ratio_250_L_3_R_12.png","xmouse":[808,808,808,808,808,808,808,808,808,808,808,808,808,808,807,802,802,801,801,807,869,909,946,992,1039,1098,1111,1123,1126,1129],"ymouse":[509,509,509,509,509,509,509,509,509,509,509,509,509,508,507,501,500,495,488,471,385,334,291,240,195,136,121,106,101,94],"timestamp_mouse":[5,35,47,65,86,106,126,146,165,187,205,225,246,266,285,306,325,345,366,385,405,425,445,466,485,505,526,546,566,586],"xSR":741.5,"ySR":469.95,"xT1":424.9,"yT1":0,"xT2":1058.1,"yT2":0,"toosoon":0,"cond_shown":"equaldotanddens","ratio_trial":250,"smaller_num":"3","larger_num":"12","correct_side":2,"subjID":"LucasMateoPena37","gender":"0","age":"12","school":"6"},{"start_time":1551882067012,"click_time":1551882067718,"finger_time":1551882067440,"fix_duration":1471.4639763852297,"trial":45,"RT":428,"MT":278,"sideResp":1,"stimulus":"img/750/randomdotsizeEA/L/1_Ratio_750_L_20_R_15.png","xmouse":[789,789,789,789,789,789,789,789,789,789,789,789,789,789,789,789,789,789,789,789,789,785,779,767,723,694,649,628,613,588,576,563,555,547,515,495],"ymouse":[513,513,513,513,513,513,513,513,513,513,513,513,513,513,513,513,513,513,513,498,482,459,435,406,334,299,246,222,202,171,158,149,142,134,105,80],"timestamp_mouse":[7,30,46,68,86,106,127,146,167,188,206,228,246,268,286,306,326,346,366,388,406,428,447,467,486,506,526,546,567,586,606,626,646,667,686,706],"xSR":741.5,"ySR":469.95,"xT1":424.9,"yT1":0,"xT2":1058.1,"yT2":0,"toosoon":0,"cond_shown":"randomdotsizeEA","ratio_trial":750,"smaller_num":"15","larger_num":"20","correct_side":1,"subjID":"LucasMateoPena37","gender":"0","age":"12","school":"6"},{"start_time":1551882069484,"click_time":1551882070359,"finger_time":1551882069898,"fix_duration":1144.4494158232033,"trial":46,"RT":414,"MT":461,"sideResp":2,"stimulus":"img/750/randomdotsizeEA/R/2_Ratio_750_L_6_R_8.png","xmouse":[780,780,780,780,780,780,780,780,780,780,780,780,780,780,780,780,780,780,780,786,808,830,882,937,997,1090,1110,1119,1122,1124,1127,1129,1134,1136,1136,1134,1128,1121,1112,1105,1095,1087,1084,1079],"ymouse":[522,522,522,522,522,522,522,522,522,522,522,522,522,522,522,522,522,521,513,499,456,422,357,309,264,202,188,181,178,176,168,159,143,136,130,124,122,118,116,113,108,103,100,91],"timestamp_mouse":[20,44,55,74,95,116,135,154,174,194,216,234,254,274,295,315,334,355,375,394,414,435,454,474,494,515,534,555,574,595,614,636,655,676,695,715,734,754,775,796,814,835,854,875],"xSR":741.5,"ySR":469.95,"xT1":424.9,"yT1":0,"xT2":1058.1,"yT2":0,"toosoon":0,"cond_shown":"randomdotsizeEA","ratio_trial":750,"smaller_num":"6","larger_num":"8","correct_side":2,"subjID":"LucasMateoPena37","gender":"0","age":"12","school":"6"},{"start_time":1551882072715,"click_time":1551882073479,"finger_time":1551882073199,"fix_duration":1494.1954813762782,"trial":47,"RT":484,"MT":280,"sideResp":1,"stimulus":"img/500/randomdotsizeEA/L/13_Ratio_500_L_12_R_6.png","xmouse":[790,790,790,790,790,790,790,790,790,790,790,790,790,790,790,790,790,790,790,790,790,790,790,787,774,764,742,716,691,645,618,612,594,585,564,557,547,537,523],"ymouse":[488,488,488,488,488,488,488,488,488,488,488,488,488,488,488,488,488,488,488,488,488,488,482,473,440,418,383,347,309,240,200,190,159,142,116,108,95,87,75],"timestamp_mouse":[10,24,43,64,85,104,123,144,164,185,203,224,245,263,285,304,323,343,363,383,403,424,444,464,484,503,524,543,564,583,604,623,644,663,684,703,724,744,764],"xSR":741.5,"ySR":469.95,"xT1":424.9,"yT1":0,"xT2":1058.1,"yT2":0,"toosoon":0,"cond_shown":"randomdotsizeEA","ratio_trial":500,"smaller_num":"6","larger_num":"12","correct_side":1,"subjID":"LucasMateoPena37","gender":"0","age":"12","school":"6"},{"start_time":1551882075008,"click_time":1551882075898,"finger_time":1551882075418,"fix_duration":909.1793872461144,"trial":48,"RT":410,"MT":480,"sideResp":2,"stimulus":"img/900/equaldotanddens/R/13_Ratio_900_L_18_R_20.png","xmouse":[823,822,822,820,820,820,820,820,820,820,820,820,820,820,820,820,820,820,823,833,843,843,842,834,823,823,823,831,843,874,892,911,929,945,972,985,1001,1009,1011,1018,1024,1032,1043,1053,1080],"ymouse":[550,550,550,550,550,550,550,550,550,550,550,550,550,550,550,550,550,550,547,537,513,477,427,380,296,267,240,219,215,212,209,203,196,186,166,155,138,126,118,98,83,68,57,50,39],"timestamp_mouse":[11,41,51,70,90,112,130,151,171,190,212,230,250,270,290,311,330,351,371,390,410,432,451,471,490,510,530,552,571,590,610,632,651,670,690,711,731,750,771,791,811,831,851,871,890],"xSR":741.5,"ySR":469.95,"xT1":424.9,"yT1":0,"xT2":1058.1,"yT2":0,"toosoon":0,"cond_shown":"equaldotanddens","ratio_trial":900,"smaller_num":"18","larger_num":"20","correct_side":2,"subjID":"LucasMateoPena37","gender":"0","age":"12","school":"6"},{"start_time":1551882078537,"click_time":1551882079099,"finger_time":1551882078999,"fix_duration":257.3239527661565,"trial":49,"RT":462,"MT":100,"sideResp":1,"stimulus":"img/250/equaldotanddens/L/2_Ratio_250_L_16_R_4.png","xmouse":[765,765,765,765,765,765,765,765,765,765,765,765,765,765,765,765,765,765,765,765,765,765,762,714,683,641,592,542,503],"ymouse":[516,516,516,516,516,516,516,516,516,516,516,516,516,516,516,516,516,516,516,516,516,516,510,412,336,257,164,71,2],"timestamp_mouse":[10,22,42,62,82,101,122,142,161,181,202,222,241,263,282,301,321,342,362,381,401,423,442,462,482,502,521,542,562],"xSR":741.5,"ySR":469.95,"xT1":424.9,"yT1":0,"xT2":1058.1,"yT2":0,"toosoon":0,"cond_shown":"equaldotanddens","ratio_trial":250,"smaller_num":"4","larger_num":"16","correct_side":1,"subjID":"LucasMateoPena37","gender":"0","age":"12","school":"6"},{"start_time":1551882080918,"click_time":1551882081578,"finger_time":1551882081298,"fix_duration":817.6238146804935,"trial":50,"RT":380,"MT":280,"sideResp":2,"stimulus":"img/900/equaldotsize/R/3_Ratio_900_L_9_R_10.png","xmouse":[786,786,786,786,786,786,786,786,786,786,786,786,786,786,786,786,786,787,792,855,922,994,1095,1147,1185,1186,1186,1186,1184,1182,1176,1173,1165,1157],"ymouse":[497,497,497,497,497,497,497,497,497,497,497,497,497,497,497,497,497,493,488,434,379,318,230,179,128,121,118,115,104,93,72,66,59,58],"timestamp_mouse":[8,27,41,60,80,102,120,141,160,182,202,221,240,260,282,301,320,340,361,380,401,420,440,461,480,500,520,541,562,580,600,620,641,660],"xSR":741.5,"ySR":469.95,"xT1":424.9,"yT1":0,"xT2":1058.1,"yT2":0,"toosoon":0,"cond_shown":"equaldotsize","ratio_trial":900,"smaller_num":"9","larger_num":"10","correct_side":2,"subjID":"LucasMateoPena37","gender":"0","age":"12","school":"6"},{"start_time":1551882084001,"click_time":1551882085179,"finger_time":1551882084639,"fix_duration":1340.7744649097642,"trial":51,"RT":638,"MT":540,"sideResp":2,"stimulus":"img/500/randomdotsizeEA/L/10_Ratio_500_L_4_R_2.png","xmouse":[810,810,810,810,810,810,810,810,810,810,810,810,810,810,810,810,810,810,810,810,810,810,810,810,810,810,810,810,809,806,802,797,793,789,783,783,783,791,805,854,885,927,970,1012,1071,1087,1100,1110,1131,1152,1157,1159,1159,1159,1156,1148,1145,1131,1121],"ymouse":[508,508,508,508,508,508,508,508,508,508,508,508,508,508,508,508,508,508,508,508,508,508,508,508,508,508,508,508,508,496,480,462,446,425,369,325,300,278,259,231,220,206,194,187,180,178,175,170,162,153,147,143,138,134,124,115,111,100,93],"timestamp_mouse":[27,38,58,78,98,118,138,159,179,198,219,238,257,278,297,317,338,358,378,397,419,438,458,477,497,517,537,557,578,598,618,638,658,677,697,717,737,758,777,798,818,837,857,877,897,918,937,958,977,997,1018,1038,1058,1078,1097,1117,1137,1158,1178],"xSR":741.5,"ySR":469.95,"xT1":424.9,"yT1":0,"xT2":1058.1,"yT2":0,"toosoon":0,"cond_shown":"randomdotsizeEA","ratio_trial":500,"smaller_num":"2","larger_num":"4","correct_side":1,"subjID":"LucasMateoPena37","gender":"0","age":"12","school":"6"},{"start_time":1551882086432,"click_time":1551882087298,"finger_time":1551882086818,"fix_duration":491.0552924905247,"trial":52,"RT":386,"MT":480,"sideResp":1,"stimulus":"img/500/randomdotsizeEA/L/8_Ratio_500_L_8_R_4.png","xmouse":[786,786,786,785,783,781,780,780,780,780,780,780,780,780,780,780,779,776,758,745,729,713,705,694,691,687,678,669,640,621,599,584,574,559,557,556,556,556,549,542,536,532,527,518],"ymouse":[526,526,526,528,531,533,534,534,534,534,534,534,534,534,534,534,532,514,471,449,420,396,376,339,319,303,284,271,231,204,176,153,134,103,100,99,99,98,94,89,86,84,83,79],"timestamp_mouse":[8,28,47,67,86,106,127,148,168,186,207,227,247,267,288,307,327,347,366,386,407,427,446,466,486,506,527,547,567,586,606,626,646,666,687,707,726,746,767,786,807,827,846,866],"xSR":741.5,"ySR":469.95,"xT1":424.9,"yT1":0,"xT2":1058.1,"yT2":0,"toosoon":0,"cond_shown":"randomdotsizeEA","ratio_trial":500,"smaller_num":"4","larger_num":"8","correct_side":1,"subjID":"LucasMateoPena37","gender":"0","age":"12","school":"6"},{"start_time":1551882089389,"click_time":1551882090298,"finger_time":1551882089699,"fix_duration":1389.8510370727718,"trial":53,"RT":310,"MT":599,"sideResp":2,"stimulus":"img/500/randomdotsizeEA/R/6_Ratio_500_L_9_R_18.png","xmouse":[813,813,813,813,813,813,813,813,813,813,813,813,816,822,836,865,879,895,916,932,968,984,1002,1013,1022,1033,1037,1042,1044,1047,1053,1056,1060,1067,1079,1102,1111,1116,1117,1117,1117,1117,1117,1117,1117,1117],"ymouse":[519,519,519,519,519,519,519,519,519,519,519,519,506,496,478,442,425,407,382,364,322,307,291,276,264,242,230,214,205,198,187,181,170,155,143,125,120,116,115,115,112,109,106,105,103,99],"timestamp_mouse":[10,36,50,71,90,111,130,149,170,191,210,230,249,269,291,310,329,349,369,390,410,429,450,470,489,510,529,550,569,589,609,630,650,670,689,709,730,749,770,789,809,829,849,870,891,909],"xSR":741.5,"ySR":469.95,"xT1":424.9,"yT1":0,"xT2":1058.1,"yT2":0,"toosoon":0,"cond_shown":"randomdotsizeEA","ratio_trial":500,"smaller_num":"9","larger_num":"18","correct_side":2,"subjID":"LucasMateoPena37","gender":"0","age":"12","school":"6"},{"start_time":1551882092452,"click_time":1551882093298,"finger_time":1551882092839,"fix_duration":1071.9035324077338,"trial":54,"RT":387,"MT":459,"sideResp":1,"stimulus":"img/250/equaldotanddens/L/3_Ratio_250_L_8_R_2.png","xmouse":[809,808,806,801,798,797,795,794,794,794,794,794,794,794,793,793,792,790,788,783,774,762,721,701,663,638,618,601,601,601,599,597,593,593,590,589,585,570,561,550,538,528,493],"ymouse":[485,485,485,480,477,476,475,475,475,475,475,475,475,475,475,475,474,472,471,465,454,436,376,348,284,239,195,134,116,98,83,73,68,67,67,67,68,73,74,75,75,73,72],"timestamp_mouse":[8,27,47,66,86,107,128,146,167,186,206,226,246,268,287,306,326,347,366,387,407,426,446,466,488,508,526,546,566,587,607,626,646,666,688,707,727,747,767,786,806,827,846],"xSR":741.5,"ySR":469.95,"xT1":424.9,"yT1":0,"xT2":1058.1,"yT2":0,"toosoon":0,"cond_shown":"equaldotanddens","ratio_trial":250,"smaller_num":"2","larger_num":"8","correct_side":1,"subjID":"LucasMateoPena37","gender":"0","age":"12","school":"6"},{"start_time":1551882094191,"click_time":1551882094999,"finger_time":1551882094699,"fix_duration":250,"trial":55,"RT":508,"MT":300,"sideResp":2,"stimulus":"img/900/equaldotsize/L/10_Ratio_900_L_20_R_18.png","xmouse":[757,757,757,757,757,757,757,757,757,757,757,757,757,755,755,752,751,749,749,749,749,749,749,749,749,755,792,820,852,888,943,961,976,992,1009,1037,1042,1044,1046,1048,1061],"ymouse":[506,506,506,506,506,506,506,506,506,506,506,506,505,502,500,493,492,489,489,489,489,489,489,489,487,455,372,327,280,239,177,159,143,129,119,104,102,101,101,99,93],"timestamp_mouse":[9,35,48,67,87,108,128,148,167,187,207,228,248,267,288,307,328,348,368,387,409,427,449,468,488,508,527,547,568,588,608,627,648,667,687,707,728,749,769,788,808],"xSR":741.5,"ySR":469.95,"xT1":424.9,"yT1":0,"xT2":1058.1,"yT2":0,"toosoon":0,"cond_shown":"equaldotsize","ratio_trial":900,"smaller_num":"18","larger_num":"20","correct_side":1,"subjID":"LucasMateoPena37","gender":"0","age":"12","school":"6"},{"start_time":1551882098226,"click_time":1551882099119,"finger_time":1551882098619,"fix_duration":827.4411173996002,"trial":56,"RT":393,"MT":500,"sideResp":1,"stimulus":"img/500/equaldotsize/L/10_Ratio_500_L_4_R_2.png","xmouse":[785,785,785,785,785,785,785,785,785,785,785,785,785,783,780,778,775,772,766,761,750,732,709,669,650,638,623,611,586,572,563,557,554,547,544,540,536,535,534,534,533,532,529,525,523],"ymouse":[530,530,530,530,530,530,530,530,530,530,530,530,530,528,522,516,511,505,487,469,441,398,351,282,246,227,204,182,131,110,96,89,86,81,79,77,76,76,75,75,75,76,77,78,78],"timestamp_mouse":[18,34,52,74,92,112,134,152,173,193,213,232,254,272,292,312,333,352,374,393,412,432,454,472,492,512,532,552,573,592,613,632,653,672,693,713,732,754,773,792,814,833,854,872,893],"xSR":741.5,"ySR":469.95,"xT1":424.9,"yT1":0,"xT2":1058.1,"yT2":0,"toosoon":0,"cond_shown":"equaldotsize","ratio_trial":500,"smaller_num":"2","larger_num":"4","correct_side":1,"subjID":"LucasMateoPena37","gender":"0","age":"12","school":"6"},{"start_time":1551882100230,"click_time":1551882101679,"finger_time":1551882100558,"fix_duration":331.52819519146703,"trial":57,"RT":328,"MT":1121,"sideResp":2,"stimulus":"img/750/equaldotsize/L/10_Ratio_750_L_4_R_3.png","xmouse":[807,807,807,807,807,807,807,807,807,807,807,807,807,807,805,801,796,792,784,783,783,788,800,841,921,982,1042,1083,1114,1118,1120,1120,1121,1121,1121,1118,1118,1118,1118,1118,1118,1118,1118,1118,1118,1118,1118,1118,1118,1118,1118,1118,1117,1115,1113,1112,1111,1111,1111,1111,1111,1111,1111,1111,1111,1111,1111,1111,1111,1111,1111,1109,1106],"ymouse":[545,545,545,544,540,530,525,520,515,513,512,511,510,504,497,480,462,444,406,392,375,360,344,311,263,228,201,182,164,160,157,150,143,126,120,114,113,113,113,113,113,113,113,113,113,113,113,113,113,113,113,113,113,113,115,117,118,119,120,120,120,120,120,120,120,120,119,117,114,111,108,103,97],"timestamp_mouse":[9,29,50,68,88,109,129,150,169,188,209,228,249,268,289,308,328,348,368,388,409,428,450,468,489,509,529,548,568,588,609,629,648,669,689,709,729,749,769,788,808,828,850,869,889,908,929,949,969,989,1010,1028,1049,1068,1089,1108,1129,1149,1169,1188,1209,1228,1248,1269,1289,1308,1329,1349,1369,1388,1409,1428,1449],"xSR":741.5,"ySR":469.95,"xT1":424.9,"yT1":0,"xT2":1058.1,"yT2":0,"toosoon":0,"cond_shown":"equaldotsize","ratio_trial":750,"smaller_num":"3","larger_num":"4","correct_side":1,"subjID":"LucasMateoPena37","gender":"0","age":"12","school":"6"},{"start_time":1551882102830,"click_time":1551882104118,"finger_time":1551882103499,"fix_duration":250,"trial":58,"RT":669,"MT":619,"sideResp":2,"stimulus":"img/750/equaldotanddens/R/2_Ratio_750_L_6_R_8.png","xmouse":[811,811,811,811,811,811,811,811,811,811,811,811,811,811,811,811,811,811,811,811,811,811,811,811,811,811,811,811,811,811,811,811,811,799,790,774,759,742,698,682,674,672,672,711,768,905,1002,1105,1268,1299,1310,1311,1311,1300,1274,1252,1234,1217,1183,1172,1164,1160,1159,1159,1158],"ymouse":[514,514,514,514,514,514,514,514,514,514,514,514,514,514,514,514,514,514,514,514,514,514,514,514,514,514,514,514,514,514,513,508,487,417,389,357,330,305,243,229,218,211,209,206,206,189,180,164,130,120,113,110,109,100,90,82,79,79,81,82,83,83,83,83,83],"timestamp_mouse":[8,31,49,69,88,110,128,148,169,188,208,228,248,269,289,308,329,349,368,389,409,428,450,469,488,509,528,548,568,590,609,629,648,669,689,708,728,748,769,789,808,830,849,869,889,908,928,948,969,989,1009,1028,1048,1069,1089,1109,1128,1150,1169,1189,1209,1230,1248,1268,1288],"xSR":741.5,"ySR":469.95,"xT1":424.9,"yT1":0,"xT2":1058.1,"yT2":0,"toosoon":0,"cond_shown":"equaldotanddens","ratio_trial":750,"smaller_num":"6","larger_num":"8","correct_side":2,"subjID":"LucasMateoPena37","gender":"0","age":"12","school":"6"},{"start_time":1551882105680,"click_time":1551882106439,"finger_time":1551882106119,"fix_duration":980.7974195741506,"trial":59,"RT":439,"MT":320,"sideResp":1,"stimulus":"img/250/equaldotsize/L/15_Ratio_250_L_12_R_3.png","xmouse":[791,791,791,791,791,791,791,791,791,791,791,791,791,791,791,791,791,791,791,787,774,764,753,731,720,698,676,648,639,638,629,622,621,617,609,572,547,523],"ymouse":[528,528,528,528,528,528,528,528,528,528,528,528,528,528,528,528,528,528,525,517,472,439,395,324,281,204,131,73,60,58,47,42,42,40,40,53,63,78],"timestamp_mouse":[19,40,58,78,99,120,138,159,179,199,220,238,259,280,299,319,339,359,379,399,418,439,458,478,498,518,539,558,578,598,618,638,659,679,699,719,738,759],"xSR":741.5,"ySR":469.95,"xT1":424.9,"yT1":0,"xT2":1058.1,"yT2":0,"toosoon":0,"cond_shown":"equaldotsize","ratio_trial":250,"smaller_num":"3","larger_num":"12","correct_side":1,"subjID":"LucasMateoPena37","gender":"0","age":"12","school":"6"},{"start_time":1551882109113,"click_time":1551882109758,"finger_time":1551882109499,"fix_duration":471.0000554607554,"trial":60,"RT":386,"MT":259,"sideResp":1,"stimulus":"img/250/equaldotsize/L/7_Ratio_250_L_8_R_2.png","xmouse":[769,769,769,769,769,769,769,769,769,769,769,769,769,769,769,769,769,764,757,721,680,651,625,606,575,564,549,539,533,524,514,505,485],"ymouse":[502,502,502,502,502,502,502,502,502,502,502,502,502,502,502,502,502,493,484,423,361,322,286,256,210,196,178,167,159,145,133,120,94],"timestamp_mouse":[8,33,46,65,86,106,125,145,165,186,205,226,247,265,285,306,325,346,365,386,406,426,445,466,486,506,526,546,566,585,606,625,645],"xSR":741.5,"ySR":469.95,"xT1":424.9,"yT1":0,"xT2":1058.1,"yT2":0,"toosoon":0,"cond_shown":"equaldotsize","ratio_trial":250,"smaller_num":"2","larger_num":"8","correct_side":1,"subjID":"LucasMateoPena37","gender":"0","age":"12","school":"6"},{"start_time":1551882116698,"click_time":1551882117498,"finger_time":1551882117139,"fix_duration":1479.3143176089368,"trial":61,"RT":441,"MT":359,"sideResp":2,"stimulus":"img/500/equaldotsize/R/3_Ratio_500_L_10_R_20.png","xmouse":[772,772,772,772,772,772,772,772,772,772,771,769,766,764,763,763,763,763,763,763,767,772,776,804,872,1015,1063,1095,1114,1132,1148,1150,1150,1148,1145,1138,1124,1106,1088,1074,1062],"ymouse":[502,502,502,502,502,502,502,502,502,502,502,502,502,502,502,502,502,502,499,498,484,471,467,439,391,326,297,272,249,218,173,154,137,132,127,123,119,116,112,104,98],"timestamp_mouse":[8,22,40,61,81,100,120,142,162,180,202,220,240,261,282,301,320,341,361,380,401,421,441,460,481,500,520,541,561,582,600,621,641,661,680,701,720,740,761,780,800],"xSR":741.5,"ySR":469.95,"xT1":424.9,"yT1":0,"xT2":1058.1,"yT2":0,"toosoon":0,"cond_shown":"equaldotsize","ratio_trial":500,"smaller_num":"10","larger_num":"20","correct_side":2,"subjID":"LucasMateoPena37","gender":"0","age":"12","school":"6"},{"start_time":1551882119726,"click_time":1551882120698,"finger_time":1551882120119,"fix_duration":1445.3542613934587,"trial":62,"RT":393,"MT":579,"sideResp":2,"stimulus":"img/500/randomdotsizeEA/R/9_Ratio_500_L_2_R_4.png","xmouse":[801,801,801,801,801,801,801,801,801,801,801,801,801,801,801,801,801,800,789,776,746,726,702,684,686,695,712,732,775,795,817,826,833,854,873,892,914,940,995,1017,1028,1029,1029,1029,1029,1032,1035,1039,1060],"ymouse":[509,509,509,509,509,509,509,509,509,509,509,509,509,509,504,498,497,495,470,449,402,366,323,270,260,254,244,235,221,216,212,210,210,205,200,197,191,186,168,158,149,140,126,103,94,81,72,67,60],"timestamp_mouse":[14,34,53,74,93,112,132,152,173,192,212,232,253,272,293,314,332,354,373,393,413,433,453,473,492,513,533,553,572,593,613,632,652,672,692,712,732,752,772,793,813,833,853,873,892,912,932,953,972],"xSR":741.5,"ySR":469.95,"xT1":424.9,"yT1":0,"xT2":1058.1,"yT2":0,"toosoon":0,"cond_shown":"randomdotsizeEA","ratio_trial":500,"smaller_num":"2","larger_num":"4","correct_side":2,"subjID":"LucasMateoPena37","gender":"0","age":"12","school":"6"},{"start_time":1551882123050,"click_time":1551882123918,"finger_time":1551882123678,"fix_duration":250,"trial":63,"RT":628,"MT":240,"sideResp":1,"stimulus":"img/500/randomdotsizeEA/L/13_Ratio_500_L_12_R_6.png","xmouse":[784,784,784,784,784,784,784,784,785,785,785,785,785,785,785,785,785,778,773,771,768,768,767,767,767,767,767,767,767,767,765,759,736,710,669,641,618,583,573,568,565,560,531,512],"ymouse":[554,554,554,554,554,554,554,554,554,554,554,554,554,554,554,554,551,534,523,516,511,509,506,505,503,497,496,493,490,484,475,464,415,372,300,250,196,127,113,110,108,106,95,89],"timestamp_mouse":[8,27,47,69,88,108,129,148,169,189,207,228,249,267,287,307,328,347,368,389,408,427,448,468,487,509,528,548,568,589,607,628,647,669,688,708,728,748,768,787,807,827,847,868],"xSR":741.5,"ySR":469.95,"xT1":424.9,"yT1":0,"xT2":1058.1,"yT2":0,"toosoon":0,"cond_shown":"randomdotsizeEA","ratio_trial":500,"smaller_num":"6","larger_num":"12","correct_side":1,"subjID":"LucasMateoPena37","gender":"0","age":"12","school":"6"},{"start_time":1551882125658,"click_time":1551882126458,"finger_time":1551882126098,"fix_duration":1119.6732911026152,"trial":64,"RT":440,"MT":360,"sideResp":1,"stimulus":"img/750/equaldotanddens/L/13_Ratio_750_L_8_R_6.png","xmouse":[797,797,797,797,797,797,797,797,797,797,797,797,797,797,797,797,797,797,797,797,797,795,778,759,722,691,660,614,601,590,581,570,551,548,545,541,536,529,527,525,523],"ymouse":[530,530,530,530,530,530,530,530,530,530,530,530,530,530,530,530,530,530,530,522,512,489,427,391,339,306,276,238,226,216,203,189,157,144,134,122,111,93,89,85,83],"timestamp_mouse":[1,20,39,61,79,99,120,140,160,181,201,219,239,261,280,300,319,341,360,380,400,420,440,460,480,499,519,539,559,580,600,621,639,659,680,700,720,739,759,780,800],"xSR":741.5,"ySR":469.95,"xT1":424.9,"yT1":0,"xT2":1058.1,"yT2":0,"toosoon":0,"cond_shown":"equaldotanddens","ratio_trial":750,"smaller_num":"6","larger_num":"8","correct_side":1,"subjID":"LucasMateoPena37","gender":"0","age":"12","school":"6"},{"start_time":1551882128108,"click_time":1551882129018,"finger_time":1551882128498,"fix_duration":909.9800423319905,"trial":65,"RT":390,"MT":520,"sideResp":2,"stimulus":"img/900/equaldotanddens/R/3_Ratio_900_L_9_R_10.png","xmouse":[786,786,786,786,786,786,786,786,786,786,786,786,786,786,786,786,786,787,790,808,835,859,881,894,910,912,914,916,918,929,945,959,975,993,1015,1023,1028,1034,1041,1064,1071,1075,1079,1080,1080,1080],"ymouse":[497,497,497,497,497,497,497,497,497,497,497,497,497,497,497,497,497,494,488,464,445,430,413,396,356,340,326,313,300,269,249,236,224,210,188,177,171,164,158,142,135,130,121,112,101,99],"timestamp_mouse":[10,34,49,69,89,110,130,149,169,190,210,230,250,270,291,311,329,350,369,390,409,430,450,470,490,509,531,550,571,590,611,630,650,670,690,710,730,750,771,789,809,830,850,870,890,910],"xSR":741.5,"ySR":469.95,"xT1":424.9,"yT1":0,"xT2":1058.1,"yT2":0,"toosoon":0,"cond_shown":"equaldotanddens","ratio_trial":900,"smaller_num":"9","larger_num":"10","correct_side":2,"subjID":"LucasMateoPena37","gender":"0","age":"12","school":"6"},{"start_time":1551882130995,"click_time":1551882131879,"finger_time":1551882131258,"fix_duration":1294.9417187032593,"trial":66,"RT":263,"MT":621,"sideResp":1,"stimulus":"img/250/randomdotsizeEA/L/5_Ratio_250_L_24_R_6.png","xmouse":[781,781,781,781,781,781,781,781,781,781,781,781,781,781,781,774,764,745,726,705,667,654,647,639,632,611,592,580,571,562,553,550,550,545,540,523,523,523,523,523,523,523,523,523,465],"ymouse":[506,506,506,506,506,506,506,506,506,505,498,490,477,456,436,377,343,292,265,238,204,195,189,183,179,165,151,140,126,111,81,70,63,48,34,0,0,0,0,0,0,0,0,0,1],"timestamp_mouse":[9,22,43,62,83,103,122,144,162,183,204,223,243,263,284,303,323,343,362,382,403,422,443,463,484,502,523,542,563,583,603,622,644,662,682,702,723,743,763,782,803,823,844,862,884],"xSR":741.5,"ySR":469.95,"xT1":424.9,"yT1":0,"xT2":1058.1,"yT2":0,"toosoon":0,"cond_shown":"randomdotsizeEA","ratio_trial":250,"smaller_num":"6","larger_num":"24","correct_side":1,"subjID":"LucasMateoPena37","gender":"0","age":"12","school":"6"},{"start_time":1551882132749,"click_time":1551882133838,"finger_time":1551882133298,"fix_duration":268.06272655778275,"trial":67,"RT":549,"MT":540,"sideResp":2,"stimulus":"img/750/equaldotsize/L/6_Ratio_750_L_24_R_18.png","xmouse":[780,780,780,780,780,780,780,780,780,780,780,780,780,780,780,780,780,780,780,780,780,780,780,780,780,782,785,797,803,804,805,809,829,845,866,888,908,934,941,954,962,970,991,1001,1011,1019,1026,1042,1054,1073,1082,1090,1102,1110,1117],"ymouse":[528,528,528,528,528,528,528,528,528,528,528,528,528,528,528,528,526,526,525,525,525,525,525,525,525,516,505,459,443,440,438,433,408,389,368,351,334,313,305,288,278,268,249,240,229,218,207,180,164,142,133,127,111,100,90],"timestamp_mouse":[10,29,48,69,89,109,129,150,169,189,209,235,250,269,290,310,329,349,368,389,408,428,449,468,490,509,529,549,569,589,609,629,649,668,689,708,728,748,769,789,809,829,849,869,888,908,930,949,969,990,1009,1029,1049,1068,1089],"xSR":741.5,"ySR":469.95,"xT1":424.9,"yT1":0,"xT2":1058.1,"yT2":0,"toosoon":0,"cond_shown":"equaldotsize","ratio_trial":750,"smaller_num":"18","larger_num":"24","correct_side":1,"subjID":"LucasMateoPena37","gender":"0","age":"12","school":"6"},{"start_time":1551882134810,"click_time":1551882135638,"finger_time":1551882135479,"fix_duration":250,"trial":68,"RT":669,"MT":159,"sideResp":2,"stimulus":"img/500/equaldotanddens/R/9_Ratio_500_L_2_R_4.png","xmouse":[770,770,770,770,770,770,770,770,770,770,770,770,770,770,770,770,770,770,771,771,771,771,771,771,772,772,772,772,772,772,772,775,780,793,825,851,904,938,964,1004,1027,1064],"ymouse":[504,504,504,504,504,504,504,504,504,504,504,504,504,504,504,504,504,504,504,504,503,502,502,502,501,501,501,501,501,501,501,494,485,457,395,354,285,244,208,146,109,54],"timestamp_mouse":[8,33,48,69,88,108,129,149,167,189,208,228,248,268,289,307,327,348,368,387,407,429,448,468,487,509,527,549,567,588,608,627,647,669,687,707,728,747,767,789,809,828],"xSR":741.5,"ySR":469.95,"xT1":424.9,"yT1":0,"xT2":1058.1,"yT2":0,"toosoon":0,"cond_shown":"equaldotanddens","ratio_trial":500,"smaller_num":"2","larger_num":"4","correct_side":2,"subjID":"LucasMateoPena37","gender":"0","age":"12","school":"6"},{"start_time":1551882137536,"click_time":1551882138258,"finger_time":1551882138118,"fix_duration":957.6263350538701,"trial":69,"RT":582,"MT":140,"sideResp":1,"stimulus":"img/900/equaldotanddens/L/2_Ratio_900_L_20_R_18.png","xmouse":[812,811,811,811,811,809,809,809,809,809,809,809,809,809,809,809,809,809,809,809,809,809,809,809,809,809,809,808,793,773,714,668,633,588,565,541,521],"ymouse":[491,492,492,492,492,492,492,492,492,492,492,492,492,492,492,492,492,492,492,492,492,492,492,492,492,492,492,492,478,451,362,284,220,130,96,73,63],"timestamp_mouse":[1,22,42,62,81,102,121,142,161,182,201,222,242,263,281,302,323,343,361,381,403,423,442,462,482,501,521,543,562,582,602,622,641,661,682,703,722],"xSR":741.5,"ySR":469.95,"xT1":424.9,"yT1":0,"xT2":1058.1,"yT2":0,"toosoon":0,"cond_shown":"equaldotanddens","ratio_trial":900,"smaller_num":"18","larger_num":"20","correct_side":1,"subjID":"LucasMateoPena37","gender":"0","age":"12","school":"6"},{"start_time":1551882143074,"click_time":1551882144098,"finger_time":1551882143777,"fix_duration":1135.7847579417798,"trial":70,"RT":703,"MT":321,"sideResp":2,"stimulus":"img/500/equaldotanddens/R/12_Ratio_500_L_1_R_2.png","xmouse":[767,767,767,767,767,767,767,767,767,767,767,767,767,767,767,767,767,767,767,767,767,767,767,767,767,767,767,767,767,767,767,767,767,768,789,823,906,940,964,979,984,989,997,1009,1021,1032,1034,1034,1035,1039,1045,1074],"ymouse":[526,526,526,526,526,526,526,526,526,526,526,526,526,526,526,526,526,526,526,526,526,526,526,526,526,526,526,526,526,526,526,526,526,518,486,439,310,236,175,121,88,55,42,33,25,19,18,18,18,18,18,30],"timestamp_mouse":[8,35,45,64,84,103,123,144,163,183,204,224,244,265,283,303,324,344,364,384,404,424,443,465,483,505,524,545,565,584,604,624,644,664,683,703,724,744,764,784,805,823,843,863,884,904,924,944,964,984,1003,1023],"xSR":741.5,"ySR":469.95,"xT1":424.9,"yT1":0,"xT2":1058.1,"yT2":0,"toosoon":0,"cond_shown":"equaldotanddens","ratio_trial":500,"smaller_num":"1","larger_num":"2","correct_side":2,"subjID":"LucasMateoPena37","gender":"0","age":"12","school":"6"},{"start_time":1551882145136,"click_time":1551882146078,"finger_time":1551882145777,"fix_duration":396.79837707146504,"trial":71,"RT":641,"MT":301,"sideResp":1,"stimulus":"img/500/randomdotsizeEA/L/10_Ratio_500_L_4_R_2.png","xmouse":[778,778,778,778,778,778,778,778,778,778,778,778,778,778,778,778,778,778,778,778,778,778,778,778,778,778,778,778,778,778,778,776,773,759,745,728,707,691,662,647,630,598,578,545,534,525,516,507],"ymouse":[510,510,510,510,510,510,510,510,510,510,510,510,510,510,510,510,510,510,510,510,510,510,510,510,510,510,510,510,504,496,485,473,455,407,367,327,290,266,232,221,209,190,176,149,135,122,106,89],"timestamp_mouse":[7,29,41,62,83,101,123,142,162,183,203,221,241,262,282,301,323,342,361,381,401,423,442,463,482,502,522,542,561,581,602,622,641,662,683,702,721,742,762,782,802,822,841,862,882,902,922,942],"xSR":741.5,"ySR":469.95,"xT1":424.9,"yT1":0,"xT2":1058.1,"yT2":0,"toosoon":0,"cond_shown":"randomdotsizeEA","ratio_trial":500,"smaller_num":"2","larger_num":"4","correct_side":1,"subjID":"LucasMateoPena37","gender":"0","age":"12","school":"6"},{"start_time":1551882147323,"click_time":1551882148178,"finger_time":1551882147879,"fix_duration":644.11656896923,"trial":72,"RT":556,"MT":299,"sideResp":2,"stimulus":"img/900/equaldotanddens/L/4_Ratio_900_L_20_R_18.png","xmouse":[786,786,786,786,786,786,786,786,786,786,786,786,786,786,786,786,786,786,786,786,786,786,786,786,791,805,826,885,916,949,990,1011,1020,1028,1030,1032,1037,1041,1048,1049,1052,1055,1060],"ymouse":[519,519,519,519,519,519,519,519,519,519,519,519,519,519,519,519,519,519,519,519,519,519,519,519,516,502,482,415,373,319,221,175,153,137,131,125,115,108,99,98,93,88,80],"timestamp_mouse":[15,37,56,76,94,114,135,154,175,196,214,235,254,275,294,316,335,354,374,395,415,434,456,476,495,515,535,556,574,594,615,635,655,674,695,715,735,755,774,795,815,834,855],"xSR":741.5,"ySR":469.95,"xT1":424.9,"yT1":0,"xT2":1058.1,"yT2":0,"toosoon":0,"cond_shown":"equaldotanddens","ratio_trial":900,"smaller_num":"18","larger_num":"20","correct_side":1,"subjID":"LucasMateoPena37","gender":"0","age":"12","school":"6"},{"start_time":1551882149269,"click_time":1551882150198,"finger_time":1551882149898,"fix_duration":250,"trial":73,"RT":629,"MT":300,"sideResp":1,"stimulus":"img/900/randomdotsizeEA/R/7_Ratio_900_L_9_R_10.png","xmouse":[780,780,780,780,780,780,780,780,780,780,780,780,780,780,780,780,780,780,780,780,780,780,780,780,780,780,780,780,781,781,781,781,773,763,751,708,682,661,646,633,621,598,585,574,557,538,499],"ymouse":[515,515,515,515,515,515,515,515,515,515,515,515,515,515,515,515,515,515,515,515,515,515,515,515,515,515,515,515,515,513,506,468,419,385,358,294,264,243,229,222,215,202,192,182,157,129,80],"timestamp_mouse":[8,36,48,69,89,108,130,149,168,190,210,228,250,269,290,308,328,349,370,389,408,430,450,468,490,508,529,549,569,589,609,629,650,669,689,710,728,749,769,789,809,828,849,869,888,909,929],"xSR":741.5,"ySR":469.95,"xT1":424.9,"yT1":0,"xT2":1058.1,"yT2":0,"toosoon":0,"cond_shown":"randomdotsizeEA","ratio_trial":900,"smaller_num":"9","larger_num":"10","correct_side":2,"subjID":"LucasMateoPena37","gender":"0","age":"12","school":"6"},{"start_time":1551882151338,"click_time":1551882152138,"finger_time":1551882151898,"fix_duration":298.7618682580601,"trial":74,"RT":560,"MT":240,"sideResp":1,"stimulus":"img/750/equaldotsize/L/1_Ratio_750_L_20_R_15.png","xmouse":[779,779,779,779,779,779,779,779,779,779,779,779,779,779,779,779,779,779,779,779,779,779,779,779,778,777,773,766,725,679,649,626,601,575,567,557,546,538,528,526,523],"ymouse":[531,531,531,531,531,531,531,531,531,531,531,531,531,531,531,531,531,531,531,531,531,531,531,531,527,520,506,480,378,289,226,172,125,89,78,68,59,55,53,52,51],"timestamp_mouse":[7,21,40,59,79,100,120,140,159,180,200,220,239,259,280,300,319,341,360,380,400,420,439,460,480,499,519,540,560,579,599,619,640,660,680,699,719,740,759,780,800],"xSR":741.5,"ySR":469.95,"xT1":424.9,"yT1":0,"xT2":1058.1,"yT2":0,"toosoon":0,"cond_shown":"equaldotsize","ratio_trial":750,"smaller_num":"15","larger_num":"20","correct_side":1,"subjID":"LucasMateoPena37","gender":"0","age":"12","school":"6"},{"start_time":1551882154110,"click_time":1551882154817,"finger_time":1551882154478,"fix_duration":1311.3562648774318,"trial":75,"RT":368,"MT":339,"sideResp":1,"stimulus":"img/900/equaldotanddens/L/10_Ratio_900_L_20_R_18.png","xmouse":[765,765,765,765,765,765,765,765,765,765,765,765,765,765,763,761,759,757,757,762,772,791,799,807,811,811,811,811,811,801,786,754,728,620,558,513],"ymouse":[531,531,531,531,531,531,531,531,531,531,531,531,531,531,529,515,496,476,456,415,389,347,326,305,279,270,267,265,265,259,251,233,217,157,122,94],"timestamp_mouse":[8,32,47,69,87,107,127,148,168,189,208,227,249,269,287,309,329,348,368,387,407,428,448,468,488,508,528,547,567,588,608,628,648,669,688,707],"xSR":741.5,"ySR":469.95,"xT1":424.9,"yT1":0,"xT2":1058.1,"yT2":0,"toosoon":0,"cond_shown":"equaldotanddens","ratio_trial":900,"smaller_num":"18","larger_num":"20","correct_side":1,"subjID":"LucasMateoPena37","gender":"0","age":"12","school":"6"},{"start_time":1551882155710,"click_time":1551882156577,"finger_time":1551882156297,"fix_duration":250,"trial":76,"RT":587,"MT":280,"sideResp":2,"stimulus":"img/250/randomdotsizeEA/R/8_Ratio_250_L_1_R_4.png","xmouse":[811,811,811,811,811,811,811,811,811,811,811,811,811,811,811,811,811,811,811,811,811,811,811,811,811,811,812,814,818,831,839,849,868,883,978,1060,1125,1171,1176,1174,1160,1154,1141,1133],"ymouse":[500,500,500,500,500,500,500,500,500,500,500,500,500,500,500,500,500,498,497,495,494,493,492,491,491,489,485,481,474,453,439,425,399,371,263,201,161,131,125,121,115,111,103,97],"timestamp_mouse":[8,33,49,68,87,108,128,149,167,187,208,227,248,268,288,309,327,348,367,388,407,428,449,467,487,507,529,547,568,587,608,627,648,668,687,707,727,748,769,788,808,828,847,867],"xSR":741.5,"ySR":469.95,"xT1":424.9,"yT1":0,"xT2":1058.1,"yT2":0,"toosoon":0,"cond_shown":"randomdotsizeEA","ratio_trial":250,"smaller_num":"1","larger_num":"4","correct_side":2,"subjID":"LucasMateoPena37","gender":"0","age":"12","school":"6"},{"start_time":1551882157588,"click_time":1551882158358,"finger_time":1551882158079,"fix_duration":250,"trial":77,"RT":491,"MT":279,"sideResp":1,"stimulus":"img/250/randomdotsizeEA/L/3_Ratio_250_L_8_R_2.png","xmouse":[782,782,782,782,782,782,782,782,782,782,782,782,782,782,782,782,782,782,782,782,782,782,777,773,729,690,644,595,578,562,544,540,539,535,532,526,518,510,509],"ymouse":[530,530,530,530,530,530,530,530,530,530,530,530,530,530,530,530,530,530,530,530,530,530,513,500,425,370,314,247,220,196,164,156,151,143,138,125,114,102,95],"timestamp_mouse":[11,30,52,70,90,111,131,151,170,191,210,230,250,270,290,309,330,349,370,390,409,430,450,470,491,509,530,550,570,590,610,631,650,669,689,711,730,750,770],"xSR":741.5,"ySR":469.95,"xT1":424.9,"yT1":0,"xT2":1058.1,"yT2":0,"toosoon":0,"cond_shown":"randomdotsizeEA","ratio_trial":250,"smaller_num":"2","larger_num":"8","correct_side":1,"subjID":"LucasMateoPena37","gender":"0","age":"12","school":"6"},{"start_time":1551882160040,"click_time":1551882161398,"finger_time":1551882160558,"fix_duration":1121.7169113546067,"trial":78,"RT":518,"MT":840,"sideResp":2,"stimulus":"img/750/equaldotanddens/R/7_Ratio_750_L_3_R_4.png","xmouse":[789,789,789,789,789,789,789,789,789,789,789,789,789,789,789,789,789,789,789,789,789,789,789,789,795,811,840,901,917,926,930,933,947,957,964,965,967,970,977,990,1013,1051,1135,1152,1153,1153,1154,1155,1155,1156,1156,1156,1156,1156,1155,1154,1154,1165,1166,1166,1166,1165,1165,1164,1164,1163,1161,1158],"ymouse":[503,503,503,503,503,503,503,503,503,503,503,503,503,503,503,503,503,503,503,503,503,503,503,503,484,456,414,340,318,300,282,267,241,230,221,219,212,208,203,198,189,177,161,159,157,157,156,155,153,151,151,151,151,149,144,137,129,107,94,91,90,89,89,89,89,89,89,89],"timestamp_mouse":[18,45,58,79,99,118,138,159,178,198,217,238,259,277,299,318,337,358,378,397,418,437,457,479,497,518,538,557,579,599,617,638,658,678,697,719,739,757,778,798,817,838,857,878,897,918,938,958,978,999,1018,1039,1058,1079,1097,1117,1138,1158,1178,1197,1217,1238,1258,1278,1297,1317,1338,1358],"xSR":741.5,"ySR":469.95,"xT1":424.9,"yT1":0,"xT2":1058.1,"yT2":0,"toosoon":0,"cond_shown":"equaldotanddens","ratio_trial":750,"smaller_num":"3","larger_num":"4","correct_side":2,"subjID":"LucasMateoPena37","gender":"0","age":"12","school":"6"},{"start_time":1551882162914,"click_time":1551882163719,"finger_time":1551882163499,"fix_duration":495.09034534380993,"trial":79,"RT":585,"MT":220,"sideResp":1,"stimulus":"img/900/randomdotsizeEA/R/5_Ratio_900_L_9_R_10.png","xmouse":[791,791,791,791,791,791,791,791,791,791,791,791,791,791,791,791,791,791,791,791,791,791,791,791,791,791,791,790,788,764,731,705,680,663,635,625,620,614,600,557,524],"ymouse":[518,518,518,518,518,518,518,518,518,518,518,518,518,518,518,518,518,518,518,518,518,518,518,518,518,518,518,518,509,430,331,264,210,170,128,115,110,105,95,79,70],"timestamp_mouse":[4,34,44,63,85,105,123,145,164,185,204,225,245,265,284,304,324,344,363,385,404,425,445,464,484,503,523,543,564,585,604,623,643,664,684,704,724,743,764,783,805],"xSR":741.5,"ySR":469.95,"xT1":424.9,"yT1":0,"xT2":1058.1,"yT2":0,"toosoon":0,"cond_shown":"randomdotsizeEA","ratio_trial":900,"smaller_num":"9","larger_num":"10","correct_side":2,"subjID":"LucasMateoPena37","gender":"0","age":"12","school":"6"},{"start_time":1551882165418,"click_time":1551882166038,"finger_time":1551882165917,"fix_duration":857.9511298222316,"trial":80,"RT":499,"MT":121,"sideResp":2,"stimulus":"img/500/equaldotanddens/R/6_Ratio_500_L_9_R_18.png","xmouse":[777,777,777,777,777,777,777,777,777,777,777,777,777,777,777,777,777,777,777,777,777,776,776,776,791,8