[{"start_time":1551881098946,"click_time":1551881102102,"finger_time":1551881101022,"fix_duration":401.4779438036451,"trial":0,"RT":2076,"MT":1080,"sideResp":1,"stimulus":[],"xmouse":[789,789,789,789,789,789,789,789,789,789,789,789,789,789,789,789,789,789,789,789,789,789,789,789,789,789,789,789,789,789,789,789,789,789,789,789,789,789,789,789,789,789,789,789,789,789,789,789,789,789,789,789,789,789,789,789,789,789,789,789,789,789,789,789,789,789,789,789,789,789,789,789,789,789,789,789,789,789,789,789,789,789,789,789,789,789,789,789,789,789,789,789,789,789,789,789,789,789,789,789,789,789,785,747,683,617,559,485,469,464,464,464,464,464,464,464,464,464,464,464,464,464,464,464,464,463,468,483,483,482,478,473,460,453,448,443,439,427,422,415,411,406,402,402,402,402,402,405,408,408,408,408,410,414,418,421,422,427],"ymouse":[539,539,539,539,539,539,539,539,539,539,539,539,539,539,539,539,539,539,539,539,539,539,539,539,539,539,539,539,539,539,539,539,539,539,539,539,539,539,539,539,539,539,539,539,539,539,539,539,539,539,539,539,539,539,539,539,539,539,539,539,539,539,539,539,539,539,539,539,539,539,539,539,539,539,539,539,539,539,539,539,539,539,539,539,539,539,539,539,539,539,539,539,539,539,539,539,539,539,539,539,539,538,518,453,373,339,337,363,371,372,372,372,372,372,372,372,372,372,372,372,372,372,372,372,372,372,360,324,316,311,303,299,287,279,275,271,265,233,214,186,176,152,125,119,114,111,106,98,90,90,90,90,90,89,88,86,86,83],"timestamp_mouse":[15,41,55,75,94,116,136,154,175,194,215,236,254,276,296,314,335,356,376,395,415,436,456,475,495,516,534,554,576,596,614,636,655,675,696,716,735,755,776,796,815,835,855,874,894,916,935,956,975,995,1015,1035,1056,1076,1095,1115,1134,1155,1176,1195,1215,1235,1256,1275,1296,1315,1335,1355,1376,1395,1414,1435,1454,1476,1495,1516,1534,1555,1574,1596,1616,1636,1654,1675,1695,1715,1736,1756,1774,1795,1815,1836,1854,1875,1895,1915,1935,1955,1975,1995,2015,2036,2055,2076,2095,2116,2136,2155,2174,2194,2215,2236,2256,2275,2295,2315,2335,2356,2375,2395,2415,2435,2456,2475,2495,2515,2535,2556,2575,2594,2616,2635,2655,2675,2695,2715,2736,2755,2775,2795,2815,2835,2855,2875,2895,2915,2935,2954,2976,2995,3015,3035,3056,3074,3095,3116,3135,3155],"xSR":741.5,"ySR":500.5,"xT1":424.9,"yT1":0,"xT2":1058.1,"yT2":0,"toosoon":0,"cond_shown":"Congruent","ratio_trial":300,"L_num":20,"L_den":25,"R_num":9,"R_den":18,"correct_side":1,"subjID":"lucasMateoPena37","gender":"0","age":"12","school":"6","test":{"fix_dur":[250,1500],"timestim":1000,"targets_dim":[100,100],"targets_relative_coord":[0.3,0.7],"size_stim":[880,420],"start_dim":[100,100],"size_start":[300,300],"size_fix":60,"samplingrate":20,"img_types":["Congruent","Incongruent"],"ratios":[100,200,300],"rep_conds":19,"nTrials":120,"trials_to_rest":500,"Trials_order":[10,94,51,71,23,56,43,15,82,57,78,68,16,49,60,42,100,103,4,98,24,29,107,26,25,87,85,3,106,84,37,5,69,46,9,76,81,99,30,17,61,8,45,115,65,83,95,12,64,31,113,74,108,102,14,110,50,90,2,112,97,109,47,117,66,96,20,40,32,75,35,118,62,54,21,116,28,22,114,89,41,73,6,33,1,105,44,91,101,11,67,52,36,70,13,111,39,63,88,34,104,48,27,77,55,119,38,86,18,7,93,19,53,58,92,0,59,80,79,72],"cond_shown":["Congruent","Congruent","Incongruent","Incongruent","Incongruent","Congruent","Incongruent","Incongruent","Congruent","Incongruent","Congruent","Congruent","Congruent","Incongruent","Congruent","Congruent","Congruent","Incongruent","Congruent","Congruent","Congruent","Incongruent","Incongruent","Congruent","Incongruent","Incongruent","Incongruent","Incongruent","Congruent","Congruent","Incongruent","Incongruent","Incongruent","Congruent","Incongruent","Congruent","Incongruent","Incongruent","Congruent","Incongruent","Incongruent","Congruent","Incongruent","Incongruent","Incongruent","Incongruent","Incongruent","Congruent","Congruent","Incongruent","Incongruent","Congruent","Congruent","Congruent","Congruent","Congruent","Congruent","Congruent","Congruent","Congruent","Incongruent","Incongruent","Incongruent","Incongruent","Congruent","Congruent","Congruent","Congruent","Congruent","Incongruent","Incongruent","Congruent","Congruent","Congruent","Incongruent","Congruent","Congruent","Congruent","Congruent","Incongruent","Incongruent","Incongruent","Congruent","Incongruent","Incongruent","Incongruent","Congruent","Incongruent","Incongruent","Incongruent","Incongruent","Congruent","Congruent","Congruent","Incongruent","Incongruent","Incongruent","Incongruent","Congruent","Congruent","Congruent","Congruent","Incongruent","Incongruent","Incongruent","Incongruent","Congruent","Congruent","Congruent","Incongruent","Incongruent","Incongruent","Incongruent","Congruent","Congruent","Congruent","Incongruent","Congruent","Incongruent","Congruent"],"ratio_trial":[300,300,200,300,300,200,100,200,300,200,100,200,300,100,100,100,300,100,300,200,100,300,300,200,100,200,100,200,300,100,100,300,200,300,200,300,200,200,100,300,100,200,200,100,300,300,300,100,300,100,300,200,100,100,200,200,200,100,200,300,100,100,300,200,100,100,200,300,200,200,300,300,200,100,200,200,300,300,100,300,300,100,100,200,100,200,200,100,300,300,100,300,100,300,100,200,200,200,300,300,200,100,200,300,100,300,200,200,100,100,200,100,300,300,200,100,300,200,100,100],"left_num":[20,1,7,4,8,3,3,7,9,6,3,20,8,3,11,4,4,6,20,3,9,4,4,12,3,4,9,7,3,3,8,7,11,11,14,1,1,1,11,13,12,6,14,9,2,3,3,11,9,9,1,6,2,15,16,7,13,8,21,3,13,9,4,4,10,12,1,24,1,4,7,2,21,3,11,4,3,5,1,4,4,4,8,7,8,7,15,10,3,4,11,20,11,1,10,1,14,3,1,3,4,4,7,4,9,2,14,8,10,11,6,3,4,8,3,4,4,4,9,1],"right_num":[9,11,4,2,9,14,7,8,3,3,2,9,10,11,6,15,2,7,13,14,8,6,6,6,4,1,13,8,11,4,1,8,3,2,12,8,3,3,4,12,2,3,6,14,6,4,4,6,3,14,2,7,6,13,9,18,14,2,2,11,12,6,2,1,3,13,21,2,21,1,8,10,2,2,3,3,2,6,3,2,2,8,2,14,6,8,4,8,4,8,9,14,4,7,8,2,12,11,19,4,3,15,14,6,13,6,6,3,3,9,3,8,6,10,14,6,8,3,6,3],"left_den":[25,5,15,20,10,6,9,10,10,20,6,25,15,5,22,10,5,10,25,10,15,5,5,15,6,30,15,10,12,20,20,10,20,22,30,30,2,2,22,26,30,15,30,15,4,6,6,22,10,15,2,12,5,25,30,15,26,16,30,12,26,18,20,30,25,30,2,30,2,30,10,20,30,6,20,8,6,25,2,20,20,8,16,10,16,10,25,25,6,5,22,25,22,20,25,3,30,4,3,6,10,10,10,5,15,4,28,15,25,22,20,5,5,15,6,8,5,10,18,2],"right_den":[18,22,6,4,18,20,30,16,5,6,5,15,12,22,15,30,4,14,26,28,16,12,12,10,10,3,26,16,20,16,2,20,4,10,18,24,10,10,10,15,4,15,9,28,30,20,20,15,5,28,10,10,12,26,27,27,20,5,4,20,20,10,4,3,10,26,30,4,30,3,20,25,4,5,4,10,10,12,5,4,4,20,5,28,10,16,10,16,20,16,15,28,10,20,16,15,18,20,30,5,15,30,28,12,26,30,20,9,10,15,6,16,12,12,20,10,16,15,10,5],"correct_side":[1,2,2,2,1,2,1,1,1,2,1,1,2,1,1,2,1,1,1,2,1,1,1,1,1,2,1,1,2,2,2,1,2,1,2,2,1,1,1,2,2,1,2,1,1,1,1,1,1,1,1,2,2,1,1,2,2,1,1,2,2,2,2,2,1,2,2,1,2,2,1,2,1,1,2,1,1,2,2,2,2,1,1,1,2,1,1,2,1,1,2,1,1,2,2,1,2,1,2,2,1,2,1,1,1,1,1,1,1,2,2,1,1,2,2,2,1,1,2,2],"img_shown":["img2/300/Congruent/L/C_Dist_300_LN_20_LD_25_RN_9_RD_18_0.png","img2/300/Congruent/R/C_Dist_300_LN_1_LD_5_RN_11_RD_22_1.png","img2/200/Incongruent/R/I_Dist_200_LN_7_LD_15_RN_4_RD_6_1.png","img2/300/Incongruent/R/I_Dist_300_LN_4_LD_20_RN_2_RD_4_1.png","img2/300/Incongruent/L/I_Dist_300_LN_8_LD_10_RN_9_RD_18_0.png","img2/200/Congruent/R/C_Dist_200_LN_3_LD_6_RN_14_RD_20_1.png","img2/100/Incongruent/L/I_Dist_100_LN_3_LD_9_RN_7_RD_30_0.png","img2/200/Incongruent/L/I_Dist_200_LN_7_LD_10_RN_8_RD_16_0.png","img2/300/Congruent/L/C_Dist_300_LN_9_LD_10_RN_3_RD_5_0.png","img2/200/Incongruent/R/I_Dist_200_LN_6_LD_20_RN_3_RD_6_1.png","img2/100/Congruent/L/C_Dist_100_LN_3_LD_6_RN_2_RD_5_0.png","img2/200/Congruent/L/C_Dist_200_LN_20_LD_25_RN_9_RD_15_0.png","img2/300/Congruent/R/C_Dist_300_LN_8_LD_15_RN_10_RD_12_1.png","img2/100/Incongruent/L/I_Dist_100_LN_3_LD_5_RN_11_RD_22_0.png","img2/100/Congruent/L/C_Dist_100_LN_11_LD_22_RN_6_RD_15_0.png","img2/100/Congruent/R/C_Dist_100_LN_4_LD_10_RN_15_RD_30_1.png","img2/300/Congruent/L/C_Dist_300_LN_4_LD_5_RN_2_RD_4_0.png","img2/100/Incongruent/L/I_Dist_100_LN_6_LD_10_RN_7_RD_14_0.png","img2/300/Congruent/L/C_Dist_300_LN_20_LD_25_RN_13_RD_26_0.png","img2/200/Congruent/R/C_Dist_200_LN_3_LD_10_RN_14_RD_28_1.png","img2/100/Congruent/L/C_Dist_100_LN_9_LD_15_RN_8_RD_16_0.png","img2/300/Incongruent/L/I_Dist_300_LN_4_LD_5_RN_6_RD_12_0.png","img2/300/Incongruent/L/I_Dist_300_LN_4_LD_5_RN_6_RD_12_0.png","img2/200/Congruent/L/C_Dist_200_LN_12_LD_15_RN_6_RD_10_0.png","img2/100/Incongruent/L/I_Dist_100_LN_3_LD_6_RN_4_RD_10_0.png","img2/200/Incongruent/R/I_Dist_200_LN_4_LD_30_RN_1_RD_3_1.png","img2/100/Incongruent/L/I_Dist_100_LN_9_LD_15_RN_13_RD_26_0.png","img2/200/Incongruent/L/I_Dist_200_LN_7_LD_10_RN_8_RD_16_0.png","img2/300/Congruent/R/C_Dist_300_LN_3_LD_12_RN_11_RD_20_1.png","img2/100/Congruent/R/C_Dist_100_LN_3_LD_20_RN_4_RD_16_1.png","img2/100/Incongruent/R/I_Dist_100_LN_8_LD_20_RN_1_RD_2_1.png","img2/300/Incongruent/L/I_Dist_300_LN_7_LD_10_RN_8_RD_20_0.png","img2/200/Incongruent/R/I_Dist_200_LN_11_LD_20_RN_3_RD_4_1.png","img2/300/Congruent/L/C_Dist_300_LN_11_LD_22_RN_2_RD_10_0.png","img2/200/Incongruent/R/I_Dist_200_LN_14_LD_30_RN_12_RD_18_1.png","img2/300/Congruent/R/C_Dist_300_LN_1_LD_30_RN_8_RD_24_1.png","img2/200/Incongruent/L/I_Dist_200_LN_1_LD_2_RN_3_RD_10_0.png","img2/200/Incongruent/L/I_Dist_200_LN_1_LD_2_RN_3_RD_10_0.png","img2/100/Congruent/L/C_Dist_100_LN_11_LD_22_RN_4_RD_10_0.png","img2/300/Incongruent/R/I_Dist_300_LN_13_LD_26_RN_12_RD_15_1.png","img2/100/Incongruent/R/I_Dist_100_LN_12_LD_30_RN_2_RD_4_1.png","img2/200/Congruent/L/C_Dist_200_LN_6_LD_15_RN_3_RD_15_0.png","img2/200/Incongruent/R/I_Dist_200_LN_14_LD_30_RN_6_RD_9_1.png","img2/100/Incongruent/L/I_Dist_100_LN_9_LD_15_RN_14_RD_28_0.png","img2/300/Incongruent/L/I_Dist_300_LN_2_LD_4_RN_6_RD_30_0.png","img2/300/Incongruent/L/I_Dist_300_LN_3_LD_6_RN_4_RD_20_0.png","img2/300/Incongruent/L/I_Dist_300_LN_3_LD_6_RN_4_RD_20_0.png","img2/100/Congruent/L/C_Dist_100_LN_11_LD_22_RN_6_RD_15_0.png","img2/300/Congruent/L/C_Dist_300_LN_9_LD_10_RN_3_RD_5_0.png","img2/100/Incongruent/L/I_Dist_100_LN_9_LD_15_RN_14_RD_28_0.png","img2/300/Incongruent/L/I_Dist_300_LN_1_LD_2_RN_2_RD_10_0.png","img2/200/Congruent/R/C_Dist_200_LN_6_LD_12_RN_7_RD_10_1.png","img2/100/Congruent/R/C_Dist_100_LN_2_LD_5_RN_6_RD_12_1.png","img2/100/Congruent/L/C_Dist_100_LN_15_LD_25_RN_13_RD_26_0.png","img2/200/Congruent/L/C_Dist_200_LN_16_LD_30_RN_9_RD_27_0.png","img2/200/Congruent/R/C_Dist_200_LN_7_LD_15_RN_18_RD_27_1.png","img2/200/Congruent/R/C_Dist_200_LN_13_LD_26_RN_14_RD_20_1.png","img2/100/Congruent/L/C_Dist_100_LN_8_LD_16_RN_2_RD_5_0.png","img2/200/Congruent/L/C_Dist_200_LN_21_LD_30_RN_2_RD_4_0.png","img2/300/Congruent/R/C_Dist_300_LN_3_LD_12_RN_11_RD_20_1.png","img2/100/Incongruent/R/I_Dist_100_LN_13_LD_26_RN_12_RD_20_1.png","img2/100/Incongruent/R/I_Dist_100_LN_9_LD_18_RN_6_RD_10_1.png","img2/300/Incongruent/R/I_Dist_300_LN_4_LD_20_RN_2_RD_4_1.png","img2/200/Incongruent/R/I_Dist_200_LN_4_LD_30_RN_1_RD_3_1.png","img2/100/Congruent/L/C_Dist_100_LN_10_LD_25_RN_3_RD_10_0.png","img2/100/Congruent/R/C_Dist_100_LN_12_LD_30_RN_13_RD_26_1.png","img2/200/Congruent/R/C_Dist_200_LN_1_LD_2_RN_21_RD_30_1.png","img2/300/Congruent/L/C_Dist_300_LN_24_LD_30_RN_2_RD_4_0.png","img2/200/Congruent/R/C_Dist_200_LN_1_LD_2_RN_21_RD_30_1.png","img2/200/Incongruent/R/I_Dist_200_LN_4_LD_30_RN_1_RD_3_1.png","img2/300/Incongruent/L/I_Dist_300_LN_7_LD_10_RN_8_RD_20_0.png","img2/300/Congruent/R/C_Dist_300_LN_2_LD_20_RN_10_RD_25_1.png","img2/200/Congruent/L/C_Dist_200_LN_21_LD_30_RN_2_RD_4_0.png","img2/100/Congruent/L/C_Dist_100_LN_3_LD_6_RN_2_RD_5_0.png","img2/200/Incongruent/R/I_Dist_200_LN_11_LD_20_RN_3_RD_4_1.png","img2/200/Congruent/L/C_Dist_200_LN_4_LD_8_RN_3_RD_10_0.png","img2/300/Congruent/L/C_Dist_300_LN_3_LD_6_RN_2_RD_10_0.png","img2/300/Congruent/R/C_Dist_300_LN_5_LD_25_RN_6_RD_12_1.png","img2/100/Congruent/R/C_Dist_100_LN_1_LD_2_RN_3_RD_5_1.png","img2/300/Incongruent/R/I_Dist_300_LN_4_LD_20_RN_2_RD_4_1.png","img2/300/Incongruent/R/I_Dist_300_LN_4_LD_20_RN_2_RD_4_1.png","img2/100/Incongruent/L/I_Dist_100_LN_4_LD_8_RN_8_RD_20_0.png","img2/100/Congruent/L/C_Dist_100_LN_8_LD_16_RN_2_RD_5_0.png","img2/200/Incongruent/L/I_Dist_200_LN_7_LD_10_RN_14_RD_28_0.png","img2/100/Incongruent/R/I_Dist_100_LN_8_LD_16_RN_6_RD_10_1.png","img2/200/Incongruent/L/I_Dist_200_LN_7_LD_10_RN_8_RD_16_0.png","img2/200/Congruent/L/C_Dist_200_LN_15_LD_25_RN_4_RD_10_0.png","img2/100/Incongruent/R/I_Dist_100_LN_10_LD_25_RN_8_RD_16_1.png","img2/300/Incongruent/L/I_Dist_300_LN_3_LD_6_RN_4_RD_20_0.png","img2/300/Incongruent/L/I_Dist_300_LN_4_LD_5_RN_8_RD_16_0.png","img2/100/Incongruent/R/I_Dist_100_LN_11_LD_22_RN_9_RD_15_1.png","img2/300/Congruent/L/C_Dist_300_LN_20_LD_25_RN_14_RD_28_0.png","img2/100/Congruent/L/C_Dist_100_LN_11_LD_22_RN_4_RD_10_0.png","img2/300/Congruent/R/C_Dist_300_LN_1_LD_20_RN_7_RD_20_1.png","img2/100/Incongruent/R/I_Dist_100_LN_10_LD_25_RN_8_RD_16_1.png","img2/200/Incongruent/L/I_Dist_200_LN_1_LD_3_RN_2_RD_15_0.png","img2/200/Incongruent/R/I_Dist_200_LN_14_LD_30_RN_12_RD_18_1.png","img2/200/Incongruent/L/I_Dist_200_LN_3_LD_4_RN_11_RD_20_0.png","img2/300/Congruent/R/C_Dist_300_LN_1_LD_3_RN_19_RD_30_1.png","img2/300/Congruent/R/C_Dist_300_LN_3_LD_6_RN_4_RD_5_1.png","img2/200/Congruent/L/C_Dist_200_LN_4_LD_10_RN_3_RD_15_0.png","img2/100/Congruent/R/C_Dist_100_LN_4_LD_10_RN_15_RD_30_1.png","img2/200/Incongruent/L/I_Dist_200_LN_7_LD_10_RN_14_RD_28_0.png","img2/300/Incongruent/L/I_Dist_300_LN_4_LD_5_RN_6_RD_12_0.png","img2/100/Incongruent/L/I_Dist_100_LN_9_LD_15_RN_13_RD_26_0.png","img2/300/Incongruent/L/I_Dist_300_LN_2_LD_4_RN_6_RD_30_0.png","img2/200/Congruent/L/C_Dist_200_LN_14_LD_28_RN_6_RD_20_0.png","img2/200/Congruent/L/C_Dist_200_LN_8_LD_15_RN_3_RD_9_0.png","img2/100/Congruent/L/C_Dist_100_LN_10_LD_25_RN_3_RD_10_0.png","img2/100/Incongruent/R/I_Dist_100_LN_11_LD_22_RN_9_RD_15_1.png","img2/200/Incongruent/R/I_Dist_200_LN_6_LD_20_RN_3_RD_6_1.png","img2/100/Incongruent/L/I_Dist_100_LN_3_LD_5_RN_8_RD_16_0.png","img2/300/Incongruent/L/I_Dist_300_LN_4_LD_5_RN_6_RD_12_0.png","img2/300/Congruent/R/C_Dist_300_LN_8_LD_15_RN_10_RD_12_1.png","img2/200/Congruent/R/C_Dist_200_LN_3_LD_6_RN_14_RD_20_1.png","img2/100/Congruent/R/C_Dist_100_LN_4_LD_8_RN_6_RD_10_1.png","img2/300/Incongruent/L/I_Dist_300_LN_4_LD_5_RN_8_RD_16_0.png","img2/200/Congruent/L/C_Dist_200_LN_4_LD_10_RN_3_RD_15_0.png","img2/100/Incongruent/R/I_Dist_100_LN_9_LD_18_RN_6_RD_10_1.png","img2/100/Congruent/R/C_Dist_100_LN_1_LD_2_RN_3_RD_5_1.png"],"dist100_C":[["C_Dist_100_LN_10_LD_25_RN_3_RD_10_0.png","C_Dist_100_LN_11_LD_22_RN_4_RD_10_0.png","C_Dist_100_LN_11_LD_22_RN_6_RD_15_0.png","C_Dist_100_LN_15_LD_25_RN_13_RD_26_0.png","C_Dist_100_LN_3_LD_6_RN_2_RD_5_0.png","C_Dist_100_LN_6_LD_20_RN_5_RD_25_0.png","C_Dist_100_LN_8_LD_16_RN_2_RD_5_0.png","C_Dist_100_LN_9_LD_15_RN_8_RD_16_0.png"],["C_Dist_100_LN_1_LD_2_RN_18_RD_30_1.png","C_Dist_100_LN_1_LD_2_RN_3_RD_5_1.png","C_Dist_100_LN_12_LD_30_RN_13_RD_26_1.png","C_Dist_100_LN_2_LD_5_RN_11_RD_22_1.png","C_Dist_100_LN_2_LD_5_RN_6_RD_12_1.png","C_Dist_100_LN_3_LD_20_RN_4_RD_16_1.png","C_Dist_100_LN_4_LD_10_RN_15_RD_30_1.png","C_Dist_100_LN_4_LD_8_RN_6_RD_10_1.png","C_Dist_100_LN_6_LD_12_RN_15_RD_25_1.png","C_Dist_100_LN_7_LD_14_RN_15_RD_25_1.png","C_Dist_100_LN_7_LD_14_RN_9_RD_15_1.png"]],"dist100_I":[["I_Dist_100_LN_1_LD_2_RN_8_RD_20_0.png","I_Dist_100_LN_2_LD_4_RN_6_RD_15_0.png","I_Dist_100_LN_2_LD_4_RN_8_RD_20_0.png","I_Dist_100_LN_3_LD_5_RN_11_RD_22_0.png","I_Dist_100_LN_3_LD_5_RN_8_RD_16_0.png","I_Dist_100_LN_3_LD_6_RN_4_RD_10_0.png","I_Dist_100_LN_3_LD_9_RN_7_RD_30_0.png","I_Dist_100_LN_4_LD_8_RN_8_RD_20_0.png","I_Dist_100_LN_6_LD_10_RN_11_RD_22_0.png","I_Dist_100_LN_6_LD_10_RN_13_RD_26_0.png","I_Dist_100_LN_6_LD_10_RN_7_RD_14_0.png","I_Dist_100_LN_9_LD_10_RN_20_RD_25_0.png","I_Dist_100_LN_9_LD_15_RN_13_RD_26_0.png","I_Dist_100_LN_9_LD_15_RN_14_RD_28_0.png"],["I_Dist_100_LN_10_LD_25_RN_8_RD_16_1.png","I_Dist_100_LN_10_LD_25_RN_9_RD_18_1.png","I_Dist_100_LN_11_LD_22_RN_9_RD_15_1.png","I_Dist_100_LN_12_LD_24_RN_9_RD_15_1.png","I_Dist_100_LN_12_LD_30_RN_2_RD_4_1.png","I_Dist_100_LN_13_LD_26_RN_12_RD_20_1.png","I_Dist_100_LN_13_LD_26_RN_6_RD_10_1.png","I_Dist_100_LN_17_LD_30_RN_10_RD_15_1.png","I_Dist_100_LN_6_LD_12_RN_3_RD_5_1.png","I_Dist_100_LN_8_LD_16_RN_6_RD_10_1.png","I_Dist_100_LN_8_LD_20_RN_1_RD_2_1.png","I_Dist_100_LN_9_LD_18_RN_6_RD_10_1.png"]],"dist100_S":[["E_Dist_100_LN_2_LD_12_RN_2_RD_30_0.png","E_Dist_100_LN_6_LD_10_RN_6_RD_12_0.png"],["E_Dist_100_LN_6_LD_12_RN_6_RD_10_1.png"]],"dist200_C":[["C_Dist_200_LN_11_LD_22_RN_3_RD_10_0.png","C_Dist_200_LN_12_LD_15_RN_6_RD_10_0.png","C_Dist_200_LN_12_LD_20_RN_6_RD_15_0.png","C_Dist_200_LN_14_LD_28_RN_6_RD_20_0.png","C_Dist_200_LN_15_LD_25_RN_4_RD_10_0.png","C_Dist_200_LN_16_LD_20_RN_12_RD_20_0.png","C_Dist_200_LN_16_LD_30_RN_9_RD_27_0.png","C_Dist_200_LN_20_LD_25_RN_9_RD_15_0.png","C_Dist_200_LN_21_LD_30_RN_2_RD_4_0.png","C_Dist_200_LN_4_LD_10_RN_3_RD_15_0.png","C_Dist_200_LN_4_LD_8_RN_3_RD_10_0.png","C_Dist_200_LN_6_LD_15_RN_3_RD_15_0.png","C_Dist_200_LN_7_LD_21_RN_2_RD_15_0.png","C_Dist_200_LN_8_LD_15_RN_2_RD_6_0.png","C_Dist_200_LN_8_LD_15_RN_3_RD_9_0.png","C_Dist_200_LN_8_LD_15_RN_7_RD_21_0.png","C_Dist_200_LN_9_LD_20_RN_4_RD_16_0.png"],["C_Dist_200_LN_1_LD_2_RN_21_RD_30_1.png","C_Dist_200_LN_13_LD_26_RN_14_RD_20_1.png","C_Dist_200_LN_3_LD_10_RN_11_RD_22_1.png","C_Dist_200_LN_3_LD_10_RN_14_RD_28_1.png","C_Dist_200_LN_3_LD_10_RN_7_RD_14_1.png","C_Dist_200_LN_3_LD_12_RN_9_RD_20_1.png","C_Dist_200_LN_3_LD_6_RN_14_RD_20_1.png","C_Dist_200_LN_5_LD_10_RN_14_RD_20_1.png","C_Dist_200_LN_6_LD_12_RN_7_RD_10_1.png","C_Dist_200_LN_6_LD_20_RN_11_RD_22_1.png","C_Dist_200_LN_7_LD_15_RN_18_RD_27_1.png","C_Dist_200_LN_9_LD_30_RN_13_RD_26_1.png"]],"dist200_I":[["I_Dist_200_LN_1_LD_2_RN_3_RD_10_0.png","I_Dist_200_LN_1_LD_3_RN_2_RD_15_0.png","I_Dist_200_LN_3_LD_4_RN_11_RD_20_0.png","I_Dist_200_LN_4_LD_5_RN_6_RD_10_0.png","I_Dist_200_LN_4_LD_6_RN_14_RD_30_0.png","I_Dist_200_LN_7_LD_10_RN_12_RD_24_0.png","I_Dist_200_LN_7_LD_10_RN_14_RD_28_0.png","I_Dist_200_LN_7_LD_10_RN_8_RD_16_0.png"],["I_Dist_200_LN_11_LD_20_RN_3_RD_4_1.png","I_Dist_200_LN_14_LD_30_RN_12_RD_18_1.png","I_Dist_200_LN_14_LD_30_RN_6_RD_9_1.png","I_Dist_200_LN_3_LD_10_RN_1_RD_2_1.png","I_Dist_200_LN_4_LD_30_RN_1_RD_3_1.png","I_Dist_200_LN_6_LD_20_RN_3_RD_6_1.png","I_Dist_200_LN_7_LD_15_RN_4_RD_6_1.png","I_Dist_200_LN_7_LD_15_RN_6_RD_9_1.png","I_Dist_200_LN_9_LD_15_RN_8_RD_10_1.png"]],"dist200_S":[["E_Dist_200_LN_3_LD_6_RN_3_RD_10_0.png"],["E_Dist_200_LN_3_LD_10_RN_3_RD_6_1.png"]],"dist300_C":[["C_Dist_300_LN_11_LD_22_RN_1_RD_5_0.png","C_Dist_300_LN_11_LD_22_RN_2_RD_10_0.png","C_Dist_300_LN_11_LD_22_RN_4_RD_20_0.png","C_Dist_300_LN_12_LD_24_RN_2_RD_10_0.png","C_Dist_300_LN_18_LD_20_RN_9_RD_15_0.png","C_Dist_300_LN_20_LD_25_RN_13_RD_26_0.png","C_Dist_300_LN_20_LD_25_RN_14_RD_28_0.png","C_Dist_300_LN_20_LD_25_RN_5_RD_10_0.png","C_Dist_300_LN_20_LD_25_RN_8_RD_16_0.png","C_Dist_300_LN_20_LD_25_RN_9_RD_18_0.png","C_Dist_300_LN_24_LD_30_RN_2_RD_4_0.png","C_Dist_300_LN_24_LD_30_RN_8_RD_16_0.png","C_Dist_300_LN_3_LD_6_RN_2_RD_10_0.png","C_Dist_300_LN_4_LD_10_RN_1_RD_10_0.png","C_Dist_300_LN_4_LD_5_RN_2_RD_4_0.png","C_Dist_300_LN_8_LD_16_RN_1_RD_5_0.png","C_Dist_300_LN_9_LD_10_RN_3_RD_5_0.png"],["C_Dist_300_LN_1_LD_20_RN_7_RD_20_1.png","C_Dist_300_LN_1_LD_3_RN_19_RD_30_1.png","C_Dist_300_LN_1_LD_30_RN_8_RD_24_1.png","C_Dist_300_LN_1_LD_5_RN_11_RD_22_1.png","C_Dist_300_LN_1_LD_5_RN_3_RD_6_1.png","C_Dist_300_LN_1_LD_5_RN_6_RD_12_1.png","C_Dist_300_LN_2_LD_10_RN_12_RD_24_1.png","C_Dist_300_LN_2_LD_20_RN_10_RD_25_1.png","C_Dist_300_LN_3_LD_12_RN_11_RD_20_1.png","C_Dist_300_LN_3_LD_6_RN_4_RD_5_1.png","C_Dist_300_LN_4_LD_20_RN_13_RD_26_1.png","C_Dist_300_LN_5_LD_25_RN_6_RD_12_1.png","C_Dist_300_LN_5_LD_25_RN_7_RD_14_1.png","C_Dist_300_LN_7_LD_14_RN_20_RD_25_1.png","C_Dist_300_LN_8_LD_15_RN_10_RD_12_1.png"]],"dist300_I":[["I_Dist_300_LN_1_LD_2_RN_2_RD_10_0.png","I_Dist_300_LN_1_LD_2_RN_3_RD_15_0.png","I_Dist_300_LN_2_LD_4_RN_6_RD_30_0.png","I_Dist_300_LN_3_LD_6_RN_4_RD_20_0.png","I_Dist_300_LN_4_LD_5_RN_6_RD_12_0.png","I_Dist_300_LN_4_LD_5_RN_8_RD_16_0.png","I_Dist_300_LN_7_LD_10_RN_8_RD_20_0.png","I_Dist_300_LN_8_LD_10_RN_14_RD_28_0.png","I_Dist_300_LN_8_LD_10_RN_9_RD_18_0.png"],["I_Dist_300_LN_13_LD_26_RN_12_RD_15_1.png","I_Dist_300_LN_4_LD_20_RN_2_RD_4_1.png"]],"dist300_S":[["E_Dist_300_LN_9_LD_12_RN_9_RD_20_0.png"],["E_Dist_300_LN_18_LD_30_RN_18_RD_20_1.png","E_Dist_300_LN_3_LD_10_RN_3_RD_5_1.png","E_Dist_300_LN_9_LD_20_RN_9_RD_12_1.png"]],"dist500_C":[["C_Dist_500_LN_10_LD_13_RN_7_RD_26_0.png","C_Dist_500_LN_10_LD_15_RN_4_RD_24_0.png","C_Dist_500_LN_12_LD_16_RN_3_RD_12_0.png","C_Dist_500_LN_12_LD_18_RN_4_RD_24_0.png","C_Dist_500_LN_15_LD_18_RN_5_RD_15_0.png","C_Dist_500_LN_15_LD_20_RN_1_RD_4_0.png","C_Dist_500_LN_18_LD_27_RN_1_RD_6_0.png","C_Dist_500_LN_20_LD_24_RN_1_RD_3_0.png","C_Dist_500_LN_20_LD_24_RN_3_RD_9_0.png","C_Dist_500_LN_20_LD_24_RN_7_RD_21_0.png","C_Dist_500_LN_20_LD_28_RN_3_RD_14_0.png","C_Dist_500_LN_21_LD_28_RN_6_RD_24_0.png","C_Dist_500_LN_22_LD_28_RN_2_RD_7_0.png","C_Dist_500_LN_25_LD_30_RN_9_RD_27_0.png","C_Dist_500_LN_4_LD_6_RN_1_RD_6_0.png","C_Dist_500_LN_5_LD_6_RN_2_RD_6_0.png","C_Dist_500_LN_6_LD_9_RN_1_RD_6_0.png","C_Dist_500_LN_7_LD_10_RN_1_RD_5_0.png","C_Dist_500_LN_8_LD_12_RN_1_RD_6_0.png","C_Dist_500_LN_8_LD_12_RN_4_RD_24_0.png"],["C_Dist_500_LN_1_LD_4_RN_12_RD_16_1.png","C_Dist_500_LN_1_LD_4_RN_9_RD_12_1.png","C_Dist_500_LN_1_LD_9_RN_11_RD_18_1.png","C_Dist_500_LN_10_LD_24_RN_22_RD_24_1.png","C_Dist_500_LN_2_LD_12_RN_10_RD_15_1.png","C_Dist_500_LN_2_LD_12_RN_12_RD_18_1.png","C_Dist_500_LN_2_LD_12_RN_4_RD_6_1.png","C_Dist_500_LN_2_LD_24_RN_7_RD_12_1.png","C_Dist_500_LN_2_LD_5_RN_18_RD_20_1.png","C_Dist_500_LN_2_LD_5_RN_9_RD_10_1.png","C_Dist_500_LN_2_LD_8_RN_12_RD_16_1.png","C_Dist_500_LN_2_LD_8_RN_21_RD_28_1.png","C_Dist_500_LN_3_LD_10_RN_4_RD_5_1.png","C_Dist_500_LN_3_LD_12_RN_15_RD_20_1.png","C_Dist_500_LN_3_LD_30_RN_6_RD_10_1.png","C_Dist_500_LN_3_LD_8_RN_14_RD_16_1.png","C_Dist_500_LN_4_LD_16_RN_15_RD_20_1.png","C_Dist_500_LN_4_LD_24_RN_12_RD_18_1.png","C_Dist_500_LN_5_LD_14_RN_6_RD_7_1.png","C_Dist_500_LN_7_LD_21_RN_20_RD_24_1.png","C_Dist_500_LN_7_LD_28_RN_12_RD_16_1.png","C_Dist_500_LN_7_LD_28_RN_9_RD_12_1.png","C_Dist_500_LN_9_LD_27_RN_20_RD_24_1.png"]],"dist500_I":[["I_Dist_500_LN_2_LD_3_RN_4_RD_24_0.png","I_Dist_500_LN_5_LD_6_RN_6_RD_18_0.png","I_Dist_500_LN_7_LD_8_RN_9_RD_24_0.png"],["I_Dist_500_LN_7_LD_21_RN_5_RD_6_1.png"]],"dist500_S":[["E_Dist_500_LN_6_LD_8_RN_6_RD_24_0.png"],["E_Dist_500_LN_2_LD_12_RN_2_RD_3_1.png","E_Dist_500_LN_6_LD_24_RN_6_RD_8_1.png"]]}},{"start_time":1551881106426,"click_time":1551881109021,"finger_time":1551881108601,"fix_duration":903.4287946277083,"trial":1,"RT":2175,"MT":420,"sideResp":1,"stimulus":[],"xmouse":[813,813,813,813,813,813,813,813,813,813,813,813,813,813,813,813,813,813,813,813,813,813,813,813,813,813,813,813,813,813,813,813,813,813,813,813,813,813,813,812,812,812,812,812,812,812,812,812,812,812,812,812,812,812,812,812,812,812,812,812,812,812,812,812,812,812,812,812,812,812,812,812,812,812,812,812,812,812,812,812,812,812,812,812,812,812,812,812,812,812,812,812,812,812,812,812,812,812,812,812,812,812,812,812,812,812,809,798,743,703,660,630,616,605,605,605,605,605,595,591,588,584,577,563,560,559,554,543,533,524],"ymouse":[514,514,514,514,514,514,514,514,514,514,514,514,514,514,514,514,514,514,514,514,514,514,514,514,514,514,514,514,514,514,514,514,514,514,514,514,514,514,514,514,514,514,514,514,514,514,514,514,514,514,514,514,514,514,514,514,514,514,514,514,514,514,514,514,514,514,514,514,514,514,514,514,514,514,514,514,514,514,514,514,514,514,514,514,514,514,514,514,514,514,514,514,514,514,514,514,514,514,514,514,514,514,514,514,514,514,512,488,376,309,247,212,188,169,165,162,155,147,129,125,122,120,115,104,102,100,95,82,70,63],"timestamp_mouse":[15,45,55,74,96,115,134,155,176,195,214,235,255,274,294,316,335,355,375,396,415,434,455,476,495,515,535,554,576,596,615,635,655,675,694,716,735,754,776,795,815,835,856,876,896,915,934,956,976,994,1014,1035,1056,1076,1095,1116,1135,1156,1174,1195,1216,1234,1255,1274,1295,1315,1335,1356,1374,1396,1416,1434,1455,1476,1495,1515,1535,1555,1575,1595,1615,1635,1656,1676,1694,1716,1736,1756,1775,1796,1814,1835,1855,1875,1896,1916,1935,1954,1975,1996,2016,2034,2056,2076,2096,2115,2136,2156,2175,2195,2215,2235,2256,2275,2295,2314,2335,2355,2375,2394,2415,2435,2455,2475,2495,2515,2535,2555,2576,2595],"xSR":741.5,"ySR":469.95,"xT1":424.9,"yT1":0,"xT2":1058.1,"yT2":0,"toosoon":0,"cond_shown":"Congruent","ratio_trial":300,"L_num":1,"L_den":5,"R_num":11,"R_den":22,"correct_side":2,"subjID":"lucasMateoPena37","gender":"0","school":"6","age":"12"},{"start_time":1551881113839,"click_time":1551881115882,"finger_time":1551881115201,"fix_duration":816.0856612621403,"trial":2,"RT":1362,"MT":681,"sideResp":2,"stimulus":[],"xmouse":[755,755,755,755,755,755,755,755,755,755,755,755,755,755,755,755,755,755,755,755,755,755,755,755,755,755,755,755,755,755,755,755,755,755,755,755,755,755,755,755,755,755,755,755,755,755,755,755,755,755,755,755,755,755,755,755,755,755,755,755,755,755,755,755,755,764,774,831,946,993,1040,1082,1118,1150,1165,1194,1201,1217,1224,1226,1226,1226,1226,1226,1226,1226,1182,1177,1175,1175,1175,1175,1175,1175,1175,1175,1175,1175,1175,1175,1172,1166,1158],"ymouse":[534,534,534,534,534,534,534,534,534,534,534,534,534,534,534,534,534,534,534,534,534,534,534,534,534,534,534,534,534,534,534,534,534,534,534,534,534,534,534,534,534,534,534,534,534,534,534,534,534,534,534,534,534,534,534,534,534,534,534,534,534,534,534,534,534,530,523,482,402,355,308,262,212,157,130,81,70,42,21,3,3,3,3,3,3,3,16,35,49,53,57,61,65,67,67,67,67,67,67,68,70,70,70],"timestamp_mouse":[8,23,43,63,83,103,123,142,163,182,201,222,243,263,281,302,322,343,362,383,401,423,443,461,483,502,522,543,563,582,603,622,643,662,682,702,721,743,763,783,803,823,843,863,882,903,923,942,962,983,1002,1023,1042,1061,1083,1102,1121,1143,1162,1182,1203,1221,1243,1263,1282,1302,1323,1341,1362,1381,1402,1422,1443,1462,1483,1502,1522,1543,1562,1581,1601,1621,1643,1663,1683,1702,1723,1743,1762,1782,1802,1823,1843,1863,1882,1902,1921,1942,1963,1982,2002,2022,2043],"xSR":741.5,"ySR":469.95,"xT1":424.9,"yT1":0,"xT2":1058.1,"yT2":0,"toosoon":0,"cond_shown":"Incongruent","ratio_trial":200,"L_num":7,"L_den":15,"R_num":4,"R_den":6,"correct_side":2,"subjID":"lucasMateoPena37","gender":"0","school":"6","age":"12"},{"start_time":1551881120047,"click_time":1551881122381,"finger_time":1551881121600,"fix_duration":1145.6383322389513,"trial":3,"RT":1553,"MT":781,"sideResp":2,"stimulus":[],"xmouse":[757,757,757,757,757,757,757,757,757,757,757,757,757,757,757,757,757,757,757,757,757,757,757,757,757,757,757,757,757,757,757,757,757,757,757,757,757,757,757,757,757,757,757,757,757,757,757,757,757,757,757,757,757,757,757,757,757,757,757,757,757,757,757,757,757,757,757,757,757,757,757,757,757,757,757,759,767,781,843,889,935,977,1009,1043,1049,1050,1052,1052,1052,1052,1052,1052,1052,1052,1052,1052,1052,1051,1050,1050,1049,1049,1049,1049,1049,1049,1049,1049,1049,1049,1049,1049,1049,1049,1049,1050,1061],"ymouse":[503,503,503,503,503,503,503,503,503,503,503,503,503,503,503,503,503,503,503,503,503,503,503,503,503,503,503,503,503,503,503,503,503,503,503,503,503,503,503,503,503,503,503,503,503,503,503,503,503,503,503,503,503,503,503,503,503,503,503,503,503,503,503,503,503,503,503,503,503,503,503,503,503,503,501,489,471,443,353,295,246,197,158,118,110,106,103,99,96,96,96,96,96,96,96,96,96,97,98,98,99,99,99,99,99,99,99,99,99,99,99,99,99,99,99,98,85],"timestamp_mouse":[14,33,55,74,93,114,133,153,174,194,215,234,255,275,293,314,334,355,374,394,415,434,455,475,494,514,534,554,574,595,614,635,654,675,693,714,735,754,774,795,815,833,854,874,893,914,934,954,973,995,1015,1033,1054,1075,1095,1114,1134,1154,1174,1195,1214,1234,1254,1275,1294,1313,1335,1354,1375,1395,1415,1435,1455,1474,1494,1514,1534,1553,1574,1594,1614,1634,1654,1674,1694,1714,1734,1754,1774,1794,1814,1835,1854,1874,1893,1914,1935,1954,1973,1994,2014,2034,2055,2074,2094,2115,2133,2155,2174,2194,2215,2234,2254,2274,2295,2315,2334],"xSR":741.5,"ySR":469.95,"xT1":424.9,"yT1":0,"xT2":1058.1,"yT2":0,"toosoon":0,"cond_shown":"Incongruent","ratio_trial":300,"L_num":4,"L_den":20,"R_num":2,"R_den":4,"correct_side":2,"subjID":"lucasMateoPena37","gender":"0","school":"6","age":"12"},{"start_time":1551881123853,"click_time":1551881126082,"finger_time":1551881124061,"fix_duration":250,"trial":4,"RT":208,"MT":2021,"sideResp":2,"stimulus":[],"xmouse":[744,744,744,744,744,744,744,744,744,742,741,740,740,740,740,740,740,740,740,740,740,740,740,740,740,740,740,740,740,740,740,740,740,741,743,748,757,761,766,766,766,766,766,766,766,767,769,771,771,771,771,771,771,771,771,771,771,771,771,771,771,771,771,771,771,771,771,771,771,771,771,771,771,771,771,771,771,770,770,769,769,769,776,795,832,884,985,1056,1062,1063,1063,1063,1059,1056,1054,1051,1050,1050,1050,1050,1050,1050,1050,1050,1050,1050,1050,1053,1054,1055,1057,1061],"ymouse":[511,511,511,511,511,511,511,511,511,511,510,509,509,509,509,509,509,509,509,508,508,508,508,508,508,508,508,508,508,507,506,505,505,505,505,505,507,508,509,509,509,509,509,509,509,509,508,503,503,503,503,503,503,503,503,503,503,503,503,503,503,503,503,503,503,503,503,503,503,503,503,503,503,503,503,503,502,496,496,492,489,485,450,414,364,303,217,159,152,149,149,148,137,125,115,105,99,99,99,99,99,99,99,99,99,98,98,98,98,98,98,98],"timestamp_mouse":[7,37,49,69,88,108,127,149,169,188,208,228,249,267,287,308,328,349,368,387,408,429,449,467,488,509,528,548,568,588,609,628,648,668,688,708,728,748,768,788,809,828,847,869,888,908,928,948,968,987,1009,1028,1047,1069,1089,1107,1128,1148,1168,1188,1208,1228,1248,1269,1287,1309,1329,1349,1369,1388,1407,1427,1449,1468,1488,1508,1528,1548,1569,1588,1608,1628,1648,1668,1688,1709,1729,1749,1767,1788,1808,1828,1848,1867,1888,1908,1929,1949,1969,1989,2008,2028,2047,2067,2087,2109,2128,2148,2168,2188,2209,2229],"xSR":741.5,"ySR":469.95,"xT1":424.9,"yT1":0,"xT2":1058.1,"yT2":0,"toosoon":0,"cond_shown":"Incongruent","ratio_trial":300,"L_num":8,"L_den":10,"R_num":9,"R_den":18,"correct_side":1,"subjID":"lucasMateoPena37","gender":"0","school":"6","age":"12"},{"start_time":1551881129907,"click_time":1551881131762,"finger_time":1551881131302,"fix_duration":1164.8781773258909,"trial":5,"RT":1395,"MT":460,"sideResp":1,"stimulus":[],"xmouse":[785,785,785,785,785,785,785,785,785,785,785,785,785,785,785,785,785,785,785,785,785,785,785,785,785,785,785,785,785,785,785,785,785,785,785,785,785,785,785,785,785,785,785,785,785,785,785,785,785,785,785,785,785,785,785,785,785,785,785,785,785,785,785,785,785,785,785,785,784,761,745,714,702,663,615,597,586,578,574,569,569,568,565,564,563,563,561,559,555,542,535,527,522],"ymouse":[499,499,499,499,499,499,499,499,499,499,499,499,499,499,499,499,499,499,499,499,499,499,499,499,499,499,499,499,499,499,499,499,499,499,499,499,499,499,499,499,499,499,499,499,499,499,499,499,499,499,499,499,499,499,499,499,499,499,499,499,499,499,499,499,499,499,499,499,494,456,428,375,353,275,171,138,117,106,100,96,96,95,93,91,90,90,90,90,90,89,87,85,83],"timestamp_mouse":[15,33,56,74,95,115,134,154,174,194,215,234,254,275,295,315,334,354,373,394,414,434,454,474,493,514,535,554,574,594,614,633,654,674,694,715,734,754,773,795,815,833,855,874,895,914,935,954,973,995,1014,1034,1053,1074,1094,1114,1135,1155,1174,1195,1214,1235,1254,1273,1294,1315,1334,1353,1375,1395,1415,1433,1454,1474,1494,1515,1534,1555,1574,1594,1614,1634,1655,1673,1695,1714,1734,1754,1774,1794,1813,1834,1855],"xSR":741.5,"ySR":469.95,"xT1":424.9,"yT1":0,"xT2":1058.1,"yT2":0,"toosoon":0,"cond_shown":"Congruent","ratio_trial":200,"L_num":3,"L_den":6,"R_num":14,"R_den":20,"correct_side":2,"subjID":"lucasMateoPena37","gender":"0","school":"6","age":"12"},{"start_time":1551881134527,"click_time":1551881137321,"finger_time":1551881136821,"fix_duration":1064.710645419832,"trial":6,"RT":2294,"MT":500,"sideResp":1,"stimulus":[],"xmouse":[801,801,801,801,801,801,801,801,801,801,801,801,801,801,801,801,801,801,801,801,801,801,801,801,801,801,801,801,801,801,801,801,801,801,801,801,801,801,801,801,801,801,801,801,801,801,801,801,801,801,801,801,801,801,801,801,801,801,801,801,801,801,801,801,801,801,801,801,801,801,801,801,801,801,801,801,801,801,801,801,801,801,801,801,801,801,801,801,801,801,801,801,801,801,801,801,801,801,801,801,801,801,801,801,801,801,801,801,801,801,801,801,801,797,794,785,769,747,696,674,656,640,634,625,617,610,601,594,591,591,589,585,578,559,553,546,542,536,527,523],"ymouse":[498,498,498,498,498,498,498,498,498,498,498,498,498,498,498,498,498,498,498,498,498,498,498,498,498,498,498,498,498,498,498,498,498,498,498,498,498,498,498,498,498,498,498,498,498,498,498,498,498,498,498,498,498,498,498,498,498,498,498,498,498,498,498,498,498,498,498,498,498,498,498,498,498,498,498,498,498,498,498,498,498,498,498,498,498,498,498,498,498,498,498,498,498,498,498,498,498,498,498,498,498,498,498,498,498,498,498,498,498,498,498,498,496,471,448,414,362,310,223,183,151,123,110,87,71,57,45,37,35,35,35,35,36,41,42,45,46,49,54,56],"timestamp_mouse":[14,34,55,74,95,115,133,154,175,193,215,235,255,274,294,315,335,355,375,395,414,435,455,473,494,513,534,554,575,594,614,634,654,675,693,714,735,755,774,795,815,835,855,875,893,915,935,953,974,994,1014,1034,1054,1074,1095,1115,1133,1155,1173,1195,1214,1235,1255,1275,1295,1315,1335,1354,1374,1395,1414,1434,1454,1474,1495,1515,1534,1555,1575,1595,1614,1635,1654,1674,1695,1714,1735,1753,1773,1795,1815,1833,1855,1874,1895,1915,1933,1954,1975,1995,2015,2034,2054,2074,2095,2115,2135,2154,2175,2195,2214,2235,2254,2274,2294,2314,2333,2354,2374,2394,2414,2433,2454,2474,2494,2514,2534,2555,2574,2594,2614,2634,2654,2674,2693,2714,2734,2754,2774,2794],"xSR":741.5,"ySR":469.95,"xT1":424.9,"yT1":0,"xT2":1058.1,"yT2":0,"toosoon":0,"cond_shown":"Incongruent","ratio_trial":100,"L_num":3,"L_den":9,"R_num":7,"R_den":30,"correct_side":1,"subjID":"lucasMateoPena37","gender":"0","school":"6","age":"12"},{"start_time":1551881138875,"click_time":1551881140561,"finger_time":1551881140221,"fix_duration":653.1454520402618,"trial":7,"RT":1346,"MT":340,"sideResp":2,"stimulus":[],"xmouse":[815,815,815,815,815,815,815,815,815,815,815,815,814,814,814,814,814,814,814,814,814,814,814,814,814,814,813,813,812,812,812,812,812,812,812,812,812,812,811,811,811,811,811,811,811,811,811,811,811,811,811,811,811,811,811,811,811,811,811,811,811,811,811,811,810,812,828,845,869,897,930,995,1016,1030,1042,1046,1048,1053,1057,1060,1063,1063,1063,1063,1062],"ymouse":[528,528,528,528,528,528,528,528,528,528,528,528,528,528,528,528,528,528,528,528,528,528,528,528,528,528,528,528,528,528,528,529,529,529,529,529,529,529,529,529,529,529,529,529,529,529,529,529,529,529,529,529,529,529,529,529,529,529,529,529,529,529,529,529,529,522,485,458,426,396,365,295,263,238,211,200,189,172,160,144,129,108,103,100,94],"timestamp_mouse":[8,38,46,66,86,105,126,147,165,186,206,226,247,266,285,307,327,346,366,386,406,426,446,467,486,506,527,546,566,586,606,627,647,666,686,706,727,747,766,786,806,826,847,866,885,906,926,946,966,986,1006,1026,1047,1066,1086,1106,1125,1146,1166,1187,1205,1227,1246,1265,1286,1307,1326,1346,1367,1386,1406,1426,1446,1466,1487,1506,1527,1547,1566,1586,1606,1626,1646,1665,1686],"xSR":741.5,"ySR":469.95,"xT1":424.9,"yT1":0,"xT2":1058.1,"yT2":0,"toosoon":0,"cond_shown":"Incongruent","ratio_trial":200,"L_num":7,"L_den":10,"R_num":8,"R_den":16,"correct_side":1,"subjID":"lucasMateoPena37","gender":"0","school":"6","age":"12"},{"start_time":1551881141872,"click_time":1551881143201,"finger_time":1551881142781,"fix_duration":250,"trial":8,"RT":909,"MT":420,"sideResp":1,"stimulus":[],"xmouse":[812,812,812,812,812,812,812,812,809,807,803,797,796,796,796,795,794,791,790,790,790,790,790,790,790,790,790,790,790,790,790,790,790,790,790,790,790,790,790,790,790,790,790,787,781,773,756,717,699,690,681,669,663,656,649,645,634,630,627,623,616,596,584,572,550,535,518],"ymouse":[498,498,498,498,498,498,498,498,498,498,498,499,499,499,499,499,499,499,499,499,499,499,499,499,499,499,499,499,499,499,499,499,499,499,499,499,499,499,499,499,499,499,499,499,489,467,430,341,296,261,228,174,158,144,134,130,126,125,124,124,120,111,104,95,81,75,71],"timestamp_mouse":[9,35,49,69,88,109,129,150,169,190,210,229,248,268,290,310,329,350,370,389,409,429,449,468,489,510,529,550,570,588,609,629,648,669,688,709,729,749,768,790,809,828,849,869,890,909,930,950,969,990,1010,1029,1049,1069,1088,1109,1129,1150,1170,1190,1209,1229,1249,1270,1288,1309,1329],"xSR":741.5,"ySR":469.95,"xT1":424.9,"yT1":0,"xT2":1058.1,"yT2":0,"toosoon":0,"cond_shown":"Congruent","ratio_trial":300,"L_num":9,"L_den":10,"R_num":3,"R_den":5,"correct_side":1,"subjID":"lucasMateoPena37","gender":"0","school":"6","age":"12"},{"start_time":1551881145416,"click_time":1551881147821,"finger_time":1551881147461,"fix_duration":1274.8324176761273,"trial":9,"RT":2045,"MT":360,"sideResp":1,"stimulus":[],"xmouse":[793,793,793,793,793,793,793,793,793,793,793,793,793,793,793,793,793,793,793,793,793,793,793,793,793,793,793,793,793,793,793,793,793,793,793,793,793,793,793,793,793,793,793,793,793,793,793,793,793,793,793,793,793,793,793,793,793,793,793,793,793,793,793,793,793,793,793,793,793,793,793,793,793,793,793,793,793,793,793,793,793,793,793,793,793,793,793,793,793,793,793,792,792,791,790,790,789,788,785,780,774,763,751,737,704,679,642,632,612,604,592,587,580,571,550,544,540,535,532,525,523],"ymouse":[548,548,548,548,548,548,548,548,548,548,548,548,548,548,548,548,548,548,548,548,548,548,548,548,548,548,548,548,548,548,548,548,548,548,548,548,548,548,548,548,548,548,548,548,548,548,548,548,548,548,548,548,548,548,548,548,548,548,548,548,548,548,548,548,548,548,548,548,548,548,548,548,548,548,548,548,548,547,546,545,545,545,545,545,545,544,544,544,543,542,541,540,539,539,537,535,534,530,524,511,499,481,461,435,375,327,252,234,197,184,165,158,149,137,112,105,100,97,94,88,86],"timestamp_mouse":[8,25,45,65,85,104,125,144,165,185,205,226,245,265,285,306,326,345,366,385,405,426,444,465,484,506,525,545,566,586,605,625,645,664,686,704,725,744,765,785,805,825,845,866,886,905,925,946,966,986,1005,1026,1046,1065,1085,1106,1126,1146,1165,1185,1206,1225,1246,1266,1286,1306,1325,1345,1365,1384,1406,1425,1444,1466,1486,1505,1525,1544,1564,1585,1605,1626,1645,1665,1685,1705,1725,1746,1765,1786,1805,1824,1846,1865,1885,1904,1925,1946,1965,1985,2005,2026,2045,2066,2085,2105,2125,2146,2166,2185,2204,2225,2245,2265,2285,2304,2325,2344,2365,2385,2405],"xSR":741.5,"ySR":469.95,"xT1":424.9,"yT1":0,"xT2":1058.1,"yT2":0,"toosoon":0,"cond_shown":"Incongruent","ratio_trial":200,"L_num":6,"L_den":20,"R_num":3,"R_den":6,"correct_side":2,"subjID":"lucasMateoPena37","gender":"0","school":"6","age":"12"},{"start_time":1551881151545,"click_time":1551881155341,"finger_time":1551881153462,"fix_duration":1122.022690456894,"trial":10,"RT":1917,"MT":1879,"sideResp":1,"stimulus":[],"xmouse":[766,766,766,766,766,766,766,766,766,766,766,766,766,766,766,766,766,766,766,766,766,766,766,766,766,766,766,766,766,766,766,766,766,766,766,766,766,766,766,766,766,766,766,766,766,766,766,766,766,766,766,766,766,766,766,766,766,766,766,766,766,766,766,766,766,766,766,766,766,766,766,766,766,766,766,766,766,766,766,766,766,766,766,766,766,766,766,766,766,766,766,766,767,764,761,756,751,738,730,725,717,702,691,672,663,650,637,613,603,598,594,590,589,588,587,585,583,576,572,569,562,557,550,549,548,547,546,544,543,542,541,540,540,539,539,538,538,537,537,537,537,537,537,537,537,537,537,536,536,534,533,532,529,527,526,526,526,526,526,526,526,526,526,526,526,526,526,526,526,526,526,526,526,526,526,526,526,526,526,526,526,526,526,526,526,526,526,525,525,524],"ymouse":[503,503,503,503,503,503,503,503,503,503,503,503,503,503,503,503,503,503,503,503,503,503,503,503,503,503,503,503,503,503,503,503,503,503,503,503,503,503,503,503,503,503,503,503,503,503,503,503,503,503,503,503,503,503,503,503,503,503,503,503,503,503,503,503,503,503,503,503,503,503,503,503,503,503,503,503,503,503,503,503,503,503,503,503,503,503,503,503,503,503,503,503,502,494,481,467,450,421,409,395,380,349,332,297,280,261,241,211,200,193,189,184,181,180,178,176,173,163,156,152,140,132,119,115,113,110,109,105,102,101,98,97,96,95,95,94,94,94,94,94,94,94,94,94,94,94,94,94,93,92,92,92,91,90,90,90,90,90,90,90,90,90,90,90,90,90,90,90,90,90,90,90,90,90,90,90,90,90,90,90,90,90,90,90,90,90,90,89,89,89],"timestamp_mouse":[17,43,57,76,97,116,137,156,176,196,215,236,256,275,297,317,335,356,377,395,416,436,457,476,497,516,535,556,576,596,617,637,657,677,695,717,737,757,776,796,815,836,857,875,896,917,936,957,977,995,1016,1036,1057,1077,1096,1117,1137,1156,1176,1197,1217,1235,1257,1277,1296,1315,1337,1356,1376,1395,1417,1437,1456,1477,1497,1516,1536,1557,1576,1596,1617,1637,1656,1676,1696,1716,1737,1757,1777,1796,1815,1837,1855,1877,1897,1917,1936,1956,1976,1996,2017,2036,2056,2076,2097,2116,2136,2156,2175,2197,2217,2237,2257,2277,2295,2316,2336,2355,2377,2397,2416,2437,2456,2475,2497,2516,2537,2555,2576,2596,2615,2636,2656,2677,2697,2717,2737,2756,2775,2797,2817,2836,2857,2876,2897,2916,2936,2956,2976,2997,3016,3036,3056,3077,3096,3117,3137,3156,3176,3197,3216,3237,3257,3276,3297,3316,3337,3356,3376,3396,3416,3436,3457,3477,3496,3517,3536,3556,3577,3597,3616,3637,3656,3677,3696,3715,3736,3757,3776,3796],"xSR":741.5,"ySR":469.95,"xT1":424.9,"yT1":0,"xT2":1058.1,"yT2":0,"toosoon":0,"cond_shown":"Congruent","ratio_trial":100,"L_num":3,"L_den":6,"R_num":2,"R_den":5,"correct_side":1,"subjID":"lucasMateoPena37","gender":"0","school":"6","age":"12"},{"start_time":1551881157602,"click_time":1551881159182,"finger_time":1551881158700,"fix_duration":1180.3467999583047,"trial":11,"RT":1098,"MT":482,"sideResp":1,"stimulus":[],"xmouse":[816,816,816,816,816,816,816,816,816,816,816,816,816,816,816,816,816,816,816,816,816,816,816,816,816,816,816,816,816,816,816,816,816,816,816,816,814,813,812,810,810,809,808,806,805,802,801,801,801,801,801,801,801,801,795,788,774,760,744,736,711,697,685,674,652,644,637,632,620,598,583,568,554,542,530,527,526,525,522],"ymouse":[491,491,491,491,491,491,491,491,491,491,491,491,491,491,491,491,491,491,491,491,491,491,491,491,491,491,491,491,491,491,491,491,491,491,490,490,489,489,488,488,488,487,486,484,482,478,477,477,477,477,477,477,476,472,428,376,322,276,218,190,131,108,90,75,57,51,46,45,45,53,60,67,73,78,83,83,83,83,82],"timestamp_mouse":[19,49,58,79,99,119,139,158,179,199,219,239,259,279,299,319,339,360,379,398,419,439,459,479,498,519,539,558,579,599,618,640,658,680,699,719,739,760,778,798,819,838,859,878,899,919,939,959,978,999,1019,1038,1058,1079,1098,1118,1138,1159,1178,1198,1219,1239,1258,1279,1299,1318,1338,1359,1379,1398,1418,1438,1460,1478,1498,1518,1538,1559,1580],"xSR":741.5,"ySR":469.95,"xT1":424.9,"yT1":0,"xT2":1058.1,"yT2":0,"toosoon":0,"cond_shown":"Congruent","ratio_trial":200,"L_num":20,"L_den":25,"R_num":9,"R_den":15,"correct_side":1,"subjID":"lucasMateoPena37","gender":"0","school":"6","age":"12"},{"start_time":1551881161162,"click_time":1551881162920,"finger_time":1551881162520,"fix_duration":1239.8161852677383,"trial":12,"RT":1358,"MT":400,"sideResp":2,"stimulus":[],"xmouse":[808,808,808,808,808,808,808,808,808,806,806,806,806,806,806,806,806,806,806,806,806,806,806,806,806,806,806,806,806,806,806,806,806,806,806,806,806,806,806,806,806,806,806,806,806,806,806,806,806,806,806,806,806,806,806,806,806,806,806,806,807,809,816,819,822,823,825,830,852,878,924,1014,1089,1102,1108,1109,1109,1106,1105,1104,1103,1101,1098,1089,1086,1085,1085,1085,1085],"ymouse":[533,533,533,533,533,533,533,533,533,532,532,532,532,532,532,532,532,532,532,532,532,532,532,532,532,532,532,532,532,532,532,532,532,532,532,532,532,532,532,532,532,532,532,532,532,532,532,532,532,532,532,532,532,532,532,532,532,532,531,530,530,529,529,529,529,529,528,525,504,475,426,334,244,219,201,191,183,173,170,167,164,161,157,137,126,117,109,103,94],"timestamp_mouse":[1,18,38,59,78,99,120,140,158,179,198,219,239,258,278,299,320,339,359,378,399,419,438,459,479,498,520,539,558,579,599,619,639,659,678,699,718,738,759,778,799,820,839,859,879,898,919,938,959,978,1000,1019,1039,1059,1078,1100,1119,1138,1158,1179,1199,1219,1239,1258,1279,1299,1319,1338,1358,1379,1399,1418,1438,1458,1478,1499,1519,1539,1558,1578,1599,1619,1639,1659,1678,1699,1718,1738,1758],"xSR":741.5,"ySR":469.95,"xT1":424.9,"yT1":0,"xT2":1058.1,"yT2":0,"toosoon":0,"cond_shown":"Congruent","ratio_trial":300,"L_num":8,"L_den":15,"R_num":10,"R_den":12,"correct_side":2,"subjID":"lucasMateoPena37","gender":"0","school":"6","age":"12"},{"start_time":1551881165277,"click_time":1551881166981,"finger_time":1551881166640,"fix_duration":1356.1540229231198,"trial":13,"RT":1363,"MT":341,"sideResp":1,"stimulus":[],"xmouse":[813,813,813,813,813,813,813,813,813,813,813,813,813,813,813,813,813,813,813,813,813,813,813,813,813,813,813,813,813,813,813,813,813,813,813,813,813,813,813,813,813,813,813,813,813,813,813,813,813,813,813,813,813,813,813,813,813,813,813,813,813,813,813,813,813,809,796,783,767,751,741,734,717,709,697,675,661,640,632,622,606,569,551,532,514,509],"ymouse":[524,524,524,524,524,524,524,524,524,524,524,524,524,524,524,524,524,524,524,524,524,524,524,524,524,524,524,524,524,524,524,524,524,524,524,524,524,524,524,524,524,524,524,524,524,524,524,524,524,524,524,524,524,524,524,524,524,524,524,524,524,524,524,524,520,514,495,473,440,404,376,351,309,292,274,247,231,206,194,180,162,134,123,113,101,97],"timestamp_mouse":[8,24,43,64,84,104,123,143,163,183,204,224,243,264,284,304,324,343,364,383,403,423,445,463,483,516,523,543,563,583,604,623,645,663,683,703,725,744,765,783,804,823,844,864,883,904,924,943,964,983,1003,1023,1043,1063,1083,1103,1124,1144,1163,1184,1204,1224,1245,1263,1283,1303,1324,1343,1363,1383,1404,1423,1444,1463,1484,1505,1524,1544,1564,1583,1604,1623,1643,1664,1684,1704],"xSR":741.5,"ySR":469.95,"xT1":424.9,"yT1":0,"xT2":1058.1,"yT2":0,"toosoon":0,"cond_shown":"Incongruent","ratio_trial":100,"L_num":3,"L_den":5,"R_num":11,"R_den":22,"correct_side":1,"subjID":"lucasMateoPena37","gender":"0","school":"6","age":"12"},{"start_time":1551881169236,"click_time":1551881173561,"finger_time":1551881170820,"fix_duration":1435.1682812093088,"trial":14,"RT":1584,"MT":2741,"sideResp":2,"stimulus":[],"xmouse":[812,812,812,812,812,812,812,812,812,812,812,812,812,812,812,812,812,812,812,812,812,812,812,812,812,812,812,812,812,812,812,812,812,812,812,812,812,812,812,812,812,812,812,812,812,812,812,812,812,812,812,812,812,812,812,812,812,812,812,812,812,812,812,812,812,812,812,812,812,812,812,812,812,812,812,812,812,812,810,796,780,760,741,714,705,693,681,660,649,626,606,600,593,578,567,560,554,553,550,549,547,546,545,544,543,543,543,543,543,543,543,543,542,541,541,540,540,539,536,535,534,533,532,529,527,526,525,525,525,525,525,525,525,525,525,525,525,525,525,525,525,525,525,525,525,525,525,525,525,525,525,525,525,525,525,525,525,525,525,525,525,525,525,525,525,526,529,531,539,555,584,629,672,758,811,868,927,949,958,966,971,977,985,1007,1019,1027,1032,1033,1034,1036,1039,1042,1044,1047,1047,1048,1048,1048,1048,1048,1049,1050,1051,1053,1054,1054,1055,1056,1056,1056,1056,1056,1056,1056,1057,1058,1059],"ymouse":[548,548,548,548,548,548,548,548,548,548,548,548,548,548,548,548,548,548,548,548,548,548,548,548,548,548,548,548,548,548,548,548,548,548,548,548,548,548,548,548,548,548,548,548,548,548,548,548,548,548,548,548,548,548,548,548,547,546,545,544,544,542,542,541,541,541,540,540,540,540,540,540,540,540,533,529,514,500,480,422,386,343,306,265,251,236,223,202,190,173,158,153,148,136,127,122,117,116,113,112,110,109,107,106,105,105,105,105,105,105,104,103,103,102,102,101,100,99,97,96,95,95,95,94,94,93,93,93,93,93,93,93,93,93,93,93,93,93,93,93,93,93,93,93,93,93,93,93,93,93,93,93,93,93,93,93,93,93,93,93,93,93,93,93,94,94,94,94,94,97,102,111,117,118,114,106,98,95,95,95,95,95,95,95,95,95,95,95,96,96,96,96,96,95,95,95,95,95,95,95,95,94,94,91,90,88,87,85,85,83,83,83,83,83,82,81,80],"timestamp_mouse":[8,24,45,64,86,104,125,144,165,185,205,226,244,264,286,306,324,344,366,385,404,424,445,465,485,505,524,545,564,584,604,624,644,664,684,704,724,744,766,785,804,824,845,865,884,904,926,945,965,984,1004,1026,1044,1065,1084,1106,1124,1144,1164,1184,1206,1224,1244,1264,1286,1304,1324,1344,1364,1384,1404,1426,1445,1464,1485,1505,1524,1544,1565,1584,1604,1625,1644,1665,1684,1704,1725,1745,1765,1785,1805,1824,1845,1864,1884,1905,1926,1944,1965,1984,2004,2025,2046,2064,2084,2105,2125,2145,2165,2185,2204,2225,2245,2265,2284,2304,2325,2345,2364,2384,2405,2425,2444,2465,2484,2505,2526,2545,2564,2584,2604,2626,2644,2665,2684,2705,2724,2744,2764,2785,2804,2825,2845,2864,2884,2904,2924,2945,2964,2985,3005,3025,3044,3065,3084,3105,3125,3144,3165,3185,3205,3224,3245,3265,3285,3305,3324,3345,3365,3384,3404,3424,3445,3464,3484,3505,3524,3545,3564,3584,3604,3626,3645,3665,3684,3705,3724,3745,3764,3784,3804,3824,3845,3864,3884,3904,3925,3944,3965,3984,4005,4024,4044,4064,4084,4104,4124,4144,4165,4184,4204,4224,4245,4265,4284,4304,4325],"xSR":741.5,"ySR":469.95,"xT1":424.9,"yT1":0,"xT2":1058.1,"yT2":0,"toosoon":0,"cond_shown":"Congruent","ratio_trial":100,"L_num":11,"L_den":22,"R_num":6,"R_den":15,"correct_side":1,"subjID":"lucasMateoPena37","gender":"0","school":"6","age":"12"},{"start_time":1551881184052,"click_time":1551881185861,"finger_time":1551881185401,"fix_duration":250,"trial":15,"RT":1349,"MT":460,"sideResp":1,"stimulus":[],"xmouse":[830,830,830,830,830,830,830,830,830,830,830,830,830,830,830,830,830,830,830,830,830,830,830,830,830,830,830,830,830,830,830,830,830,830,830,830,830,830,830,830,830,830,830,830,830,830,830,830,830,830,830,830,830,830,830,830,830,830,830,829,829,829,828,827,827,826,825,822,814,801,784,756,685,643,605,574,561,555,555,555,555,555,555,555,555,555,555,555,555,506,509],"ymouse":[501,501,501,501,501,501,501,501,501,501,501,501,501,501,501,501,501,501,501,501,501,501,501,501,501,501,501,501,501,501,501,501,501,501,501,501,501,501,501,501,501,501,501,501,501,501,501,501,501,501,501,501,501,501,501,501,501,501,501,501,501,500,499,498,497,490,481,460,387,346,308,271,163,110,62,23,9,1,1,1,1,1,1,1,1,1,1,1,1,0,2],"timestamp_mouse":[8,31,49,68,89,110,128,148,169,189,209,229,248,268,288,310,328,349,368,388,409,428,449,468,489,509,529,548,569,589,609,628,649,668,689,708,728,750,768,788,809,830,848,869,888,909,930,949,970,989,1008,1028,1048,1068,1090,1109,1130,1148,1169,1190,1210,1228,1249,1268,1289,1310,1329,1349,1369,1388,1408,1429,1448,1470,1490,1508,1529,1548,1569,1589,1609,1628,1649,1668,1689,1709,1728,1749,1769,1789,1809],"xSR":741.5,"ySR":469.95,"xT1":424.9,"yT1":0,"xT2":1058.1,"yT2":0,"toosoon":0,"cond_shown":"Congruent","ratio_trial":100,"L_num":4,"L_den":10,"R_num":15,"R_den":30,"correct_side":2,"subjID":"lucasMateoPena37","gender":"0","school":"6","age":"12"},{"start_time":1551881187515,"click_time":1551881189060,"finger_time":1551881188500,"fix_duration":274.9636931592082,"trial":16,"RT":985,"MT":560,"sideResp":1,"stimulus":[],"xmouse":[803,803,803,803,803,803,803,803,803,803,803,803,803,803,803,803,803,803,803,803,803,803,803,803,803,803,803,803,803,803,803,803,803,803,803,803,803,803,803,803,803,803,803,803,803,802,797,786,773,734,716,701,694,684,682,678,674,669,665,647,636,614,599,589,566,556,550,549,549,549,548,547,542,539,532,528,523,519],"ymouse":[556,556,556,556,556,556,556,556,556,556,556,556,556,556,556,556,556,556,556,556,556,556,556,556,556,556,556,556,556,556,556,556,556,556,556,556,556,556,556,556,556,556,556,556,556,555,549,539,520,440,392,357,327,295,282,260,247,235,227,204,195,180,171,166,152,146,142,141,141,141,140,137,129,126,117,110,101,92],"timestamp_mouse":[9,35,45,67,85,106,125,147,165,185,205,226,247,265,285,306,326,347,365,386,405,426,445,466,485,505,525,546,565,585,606,625,646,666,685,705,725,745,765,786,805,826,846,865,885,905,926,946,966,985,1005,1025,1045,1067,1086,1106,1125,1146,1166,1185,1206,1226,1245,1265,1285,1305,1326,1345,1366,1387,1405,1425,1445,1465,1486,1506,1526,1545],"xSR":741.5,"ySR":469.95,"xT1":424.9,"yT1":0,"xT2":1058.1,"yT2":0,"toosoon":0,"cond_shown":"Congruent","ratio_trial":300,"L_num":4,"L_den":5,"R_num":2,"R_den":4,"correct_side":1,"subjID":"lucasMateoPena37","gender":"0","school":"6","age":"12"},{"start_time":1551881191469,"click_time":1551881193580,"finger_time":1551881192900,"fix_duration":1467.4815878618774,"trial":17,"RT":1431,"MT":680,"sideResp":2,"stimulus":[],"xmouse":[813,813,813,813,813,813,813,813,813,813,813,813,813,813,813,813,813,813,813,813,813,813,813,813,813,813,813,813,813,813,813,813,813,813,813,813,813,813,813,813,813,813,813,813,813,813,813,813,813,813,813,813,813,813,813,813,813,813,813,813,813,813,813,813,813,813,813,813,813,814,816,844,866,891,899,918,949,964,978,990,1000,1027,1037,1043,1047,1047,1048,1048,1048,1048,1048,1048,1048,1048,1048,1048,1048,1048,1048,1048,1048,1048,1050,1054,1058,1063],"ymouse":[506,506,506,506,506,506,506,506,506,506,506,506,506,506,506,506,506,506,506,506,506,506,506,506,506,506,506,506,506,506,506,506,506,506,506,506,506,506,506,506,506,506,506,506,506,506,506,506,506,506,506,506,506,506,506,506,506,506,506,506,506,506,506,506,506,506,506,506,504,501,491,431,393,355,346,320,283,264,246,230,212,160,136,121,106,99,91,89,89,89,89,89,89,89,89,89,89,89,89,89,89,89,88,87,86,84],"timestamp_mouse":[12,43,52,72,91,111,131,152,172,192,211,232,252,273,291,311,333,352,372,392,411,432,453,471,492,511,532,552,572,591,612,633,651,671,691,712,733,752,771,791,813,832,851,873,892,911,932,951,972,992,1013,1031,1052,1071,1091,1112,1132,1153,1171,1191,1211,1231,1253,1271,1291,1312,1331,1353,1371,1392,1412,1431,1451,1471,1491,1513,1532,1551,1571,1591,1611,1631,1652,1671,1693,1713,1732,1751,1771,1793,1812,1832,1851,1872,1891,1912,1933,1952,1972,1991,2012,2032,2052,2073,2091,2111],"xSR":741.5,"ySR":469.95,"xT1":424.9,"yT1":0,"xT2":1058.1,"yT2":0,"toosoon":0,"cond_shown":"Incongruent","ratio_trial":100,"L_num":6,"L_den":10,"R_num":7,"R_den":14,"correct_side":1,"subjID":"lucasMateoPena37","gender":"0","school":"6","age":"12"},{"start_time":1551881194672,"click_time":1551881196040,"finger_time":1551881195420,"fix_duration":250,"trial":18,"RT":748,"MT":620,"sideResp":1,"stimulus":[],"xmouse":[808,808,808,808,808,808,808,808,808,808,808,808,808,808,808,808,808,808,808,808,808,808,808,808,808,808,808,808,808,808,808,808,808,808,807,806,803,786,773,763,756,738,731,722,714,709,695,688,681,677,673,662,655,645,629,615,604,589,587,585,584,576,570,564,562,558,554,526,504],"ymouse":[503,503,503,503,503,503,503,503,503,503,503,503,503,503,503,503,503,503,503,503,503,503,503,503,503,503,503,503,503,503,503,503,503,503,502,497,476,415,383,360,341,298,278,258,235,221,189,171,155,145,137,119,110,99,85,76,70,64,64,64,64,65,66,69,69,70,71,77,78],"timestamp_mouse":[8,30,53,69,89,110,128,148,169,188,208,228,250,269,289,309,329,349,369,388,410,428,448,469,488,509,529,550,570,588,610,628,648,668,688,709,729,748,768,788,809,828,848,869,888,909,928,948,972,988,1008,1028,1048,1070,1088,1108,1128,1149,1168,1189,1209,1229,1249,1269,1288,1308,1328,1349,1368],"xSR":741.5,"ySR":469.95,"xT1":424.9,"yT1":0,"xT2":1058.1,"yT2":0,"toosoon":0,"cond_shown":"Congruent","ratio_trial":300,"L_num":20,"L_den":25,"R_num":13,"R_den":26,"correct_side":1,"subjID":"lucasMateoPena37","gender":"0","school":"6","age":"12"},{"start_time":1551881198073,"click_time":1551881199520,"finger_time":1551881199101,"fix_duration":1309.6502508133503,"trial":19,"RT":1028,"MT":419,"sideResp":2,"stimulus":[],"xmouse":[809,808,808,808,808,808,808,808,808,808,808,808,808,808,808,808,808,808,808,808,808,808,808,808,808,808,808,808,808,808,808,808,808,808,808,808,808,808,808,808,808,808,808,808,808,808,808,808,810,812,817,827,834,844,854,876,894,925,939,952,961,970,975,980,989,995,1001,1014,1018,1025,1032,1040,1065],"ymouse":[492,491,491,491,491,491,491,491,491,491,491,491,491,491,491,491,491,491,491,491,491,491,491,491,491,491,491,491,491,491,491,491,491,491,491,491,491,491,491,491,491,491,491,491,491,491,491,491,486,484,477,463,453,444,433,405,384,347,329,314,299,270,252,234,203,185,166,137,126,114,104,93,70],"timestamp_mouse":[8,29,49,67,88,107,128,147,167,188,207,227,247,267,287,307,329,347,368,387,409,428,448,467,487,507,528,548,567,587,607,627,647,667,687,707,729,748,767,787,808,828,848,868,888,908,927,947,967,987,1007,1028,1047,1067,1087,1109,1128,1148,1167,1187,1207,1228,1247,1268,1288,1307,1327,1347,1367,1388,1408,1428,1447],"xSR":741.5,"ySR":469.95,"xT1":424.9,"yT1":0,"xT2":1058.1,"yT2":0,"toosoon":0,"cond_shown":"Congruent","ratio_trial":200,"L_num":3,"L_den":10,"R_num":14,"R_den":28,"correct_side":2,"subjID":"lucasMateoPena37","gender":"0","school":"6","age":"12"},{"start_time":1551881200912,"click_time":1551881206441,"finger_time":1551881206340,"fix_duration":250,"trial":20,"RT":5428,"MT":101,"sideResp":1,"stimulus":[],"xmouse":[777,777,777,777,777,777,777,777,777,777,777,777,777,777,777,777,777,777,777,777,777,777,777,777,777,777,777,777,777,777,777,777,777,777,777,777,777,777,777,777,778,778,778,778,778,778,778,778,778,778,778,778,778,778,778,778,778,778,778,778,780,781,782,782,782,782,782,782,782,782,782,782,782,782,782,782,782,782,782,782,782,782,782,782,782,782,782,782,782,782,782,782,782,782,782,782,782,782,783,784,784,784,784,784,784,784,784,784,784,784,784,784,784,784,784,784,784,784,784,784,784,784,784,784,784,784,784,784,784,784,784,784,784,784,784,784,784,784,784,784,784,784,784,784,784,784,784,784,784,784,784,784,784,784,784,784,784,784,784,784,784,784,784,784,784,784,784,784,784,784,784,784,784,784,784,784,784,784,784,784,784,784,784,784,784,784,784,784,784,784,784,784,784,784,784,784,784,784,784,784,784,784,784,784,784,784,784,784,784,784,784,784,784,784,784,784,784,784,784,784,784,784,784,784,784,784,784,784,784,784,784,784,784,784,784,784,784,784,784,784,784,784,784,784,784,784,784,784,785,786,786,786,786,786,786,786,786,786,786,786,787,787,787,787,787,787,787,787,787,787,783,756,738,657,595,516,505],"ymouse":[520,520,520,520,520,520,520,520,520,520,520,520,520,520,520,520,520,520,520,520,520,520,520,520,520,520,520,520,520,520,520,520,520,520,520,520,520,520,520,520,519,517,516,516,516,516,516,516,516,516,516,516,516,516,516,516,516,516,516,516,516,517,518,518,518,518,518,518,518,518,518,518,518,518,518,518,518,518,518,518,518,518,518,518,518,518,518,518,518,518,518,518,518,518,518,518,518,518,519,519,519,519,519,519,519,519,519,519,519,519,519,519,519,519,519,519,519,519,519,519,519,519,519,519,519,519,519,519,519,519,519,519,519,519,519,519,519,519,519,519,519,519,519,519,519,519,519,519,519,519,519,519,519,519,519,519,519,519,519,519,519,519,519,519,519,519,519,519,519,519,519,519,519,519,519,519,519,519,519,519,519,519,519,519,519,519,519,519,519,519,519,519,519,519,519,519,519,519,519,519,519,519,519,519,519,519,519,519,519,519,519,519,519,519,519,519,519,519,519,519,519,519,519,519,519,519,519,519,519,519,519,519,519,519,519,519,519,519,519,519,519,519,519,519,519,519,519,519,519,518,516,516,516,516,516,516,516,516,510,503,500,500,500,500,500,500,500,500,500,497,488,444,409,288,210,110,85],"timestamp_mouse":[8,38,49,68,88,108,130,149,168,188,208,229,249,269,290,309,328,348,368,388,410,428,448,470,489,510,528,548,568,589,608,628,649,669,688,708,730,748,769,789,808,828,848,869,888,908,928,949,968,989,1009,1028,1048,1069,1089,1108,1128,1149,1169,1190,1208,1229,1248,1269,1288,1308,1329,1348,1370,1389,1410,1428,1448,1469,1489,1509,1528,1548,1568,1589,1609,1628,1648,1668,1688,1708,1728,1749,1768,1788,1808,1829,1848,1868,1889,1909,1929,1949,1968,1989,2008,2028,2049,2068,2088,2108,2128,2148,2168,2188,2208,2229,2248,2269,2289,2310,2329,2348,2368,2388,2409,2430,2449,2468,2489,2509,2529,2548,2570,2588,2608,2629,2649,2670,2688,2708,2728,2748,2768,2789,2809,2828,2848,2869,2888,2909,2928,2949,2968,2989,3010,3028,3049,3068,3088,3109,3128,3149,3169,3188,3208,3228,3249,3269,3288,3308,3328,3349,3370,3389,3408,3428,3449,3469,3489,3508,3529,3550,3569,3589,3609,3628,3649,3669,3688,3710,3729,3749,3770,3788,3809,3828,3849,3869,3889,3909,3930,3949,3969,3989,4008,4029,4050,4068,4088,4110,4130,4150,4169,4189,4208,4228,4249,4269,4290,4309,4330,4350,4369,4389,4408,4429,4449,4469,4490,4509,4529,4548,4569,4588,4609,4630,4648,4668,4689,4709,4729,4749,4769,4790,4809,4829,4848,4868,4890,4909,4928,4949,4968,4989,5008,5028,5048,5068,5089,5108,5129,5148,5169,5188,5209,5228,5248,5269,5289,5310,5329,5349,5368,5388,5409,5428,5449,5469,5489,5509,5528],"xSR":741.5,"ySR":469.95,"xT1":424.9,"yT1":0,"xT2":1058.1,"yT2":0,"toosoon":0,"cond_shown":"Congruent","ratio_trial":100,"L_num":9,"L_den":15,"R_num":8,"R_den":16,"correct_side":1,"subjID":"lucasMateoPena37","gender":"0","school":"6","age":"12"},{"start_time":1551881208233,"click_time":1551881209701,"finger_time":1551881209341,"fix_duration":850.3373915590736,"trial":21,"RT":1108,"MT":360,"sideResp":1,"stimulus":[],"xmouse":[819,819,819,819,819,819,819,819,819,819,819,819,819,819,819,819,819,819,819,819,819,819,819,819,819,819,819,819,819,819,819,819,819,819,819,819,819,819,819,819,819,819,819,819,819,819,819,819,819,819,819,818,816,809,799,785,761,719,669,655,643,633,623,614,596,584,575,567,564,559,555,547,531,505],"ymouse":[525,525,525,525,525,525,525,525,525,525,525,525,525,525,525,525,525,525,525,525,525,525,525,525,525,525,525,525,525,525,525,525,525,525,525,525,525,525,525,525,525,525,525,525,525,525,525,525,525,525,525,524,520,496,472,440,382,286,201,176,157,143,128,111,79,65,54,47,46,45,45,48,54,63],"timestamp_mouse":[9,27,47,69,87,108,128,148,168,193,207,228,247,267,287,307,327,348,369,388,408,427,447,467,487,507,527,548,567,587,608,628,647,668,687,707,727,747,767,787,808,827,847,867,888,907,928,949,968,988,1009,1027,1047,1067,1087,1108,1128,1147,1168,1187,1207,1228,1247,1268,1287,1307,1327,1349,1368,1388,1407,1427,1448,1468],"xSR":741.5,"ySR":469.95,"xT1":424.9,"yT1":0,"xT2":1058.1,"yT2":0,"toosoon":0,"cond_shown":"Incongruent","ratio_trial":300,"L_num":4,"L_den":5,"R_num":6,"R_den":12,"correct_side":1,"subjID":"lucasMateoPena37","gender":"0","school":"6","age":"12"},{"start_time":1551881211283,"click_time":1551881212400,"finger_time":1551881212020,"fix_duration":640.4360419826291,"trial":22,"RT":737,"MT":380,"sideResp":1,"stimulus":[],"xmouse":[791,791,791,792,793,794,794,794,794,794,794,794,794,794,794,794,794,794,794,794,794,794,794,794,794,794,794,794,794,794,794,794,794,795,795,793,789,781,768,756,725,705,689,666,653,627,610,589,560,529,493,484,482,480,480,484],"ymouse":[498,498,498,498,498,498,498,498,498,498,498,498,498,498,498,498,498,498,498,498,498,498,498,498,498,498,498,498,498,498,497,497,497,496,493,478,464,439,407,384,328,302,280,251,236,206,191,179,165,150,134,129,126,119,112,96],"timestamp_mouse":[19,38,58,77,97,117,138,157,178,197,218,238,257,279,298,317,337,358,377,399,417,437,457,479,498,517,539,559,577,598,618,637,657,678,697,717,737,757,777,799,817,837,858,877,898,918,938,958,977,999,1017,1037,1058,1079,1097,1117],"xSR":741.5,"ySR":469.95,"xT1":424.9,"yT1":0,"xT2":1058.1,"yT2":0,"toosoon":0,"cond_shown":"Incongruent","ratio_trial":300,"L_num":4,"L_den":5,"R_num":6,"R_den":12,"correct_side":1,"subjID":"lucasMateoPena37","gender":"0","school":"6","age":"12"},{"start_time":1551881214644,"click_time":1551881215740,"finger_time":1551881215361,"fix_duration":1202.2675025441158,"trial":23,"RT":717,"MT":379,"sideResp":1,"stimulus":[],"xmouse":[800,800,800,800,800,800,800,800,800,800,800,800,800,800,800,800,800,800,800,800,800,800,800,800,800,800,800,800,800,800,800,800,800,800,800,794,776,723,688,650,624,604,588,585,579,577,573,572,568,564,561,557,539,528,518],"ymouse":[504,504,504,504,504,504,504,504,504,504,504,504,504,504,504,504,504,504,504,504,504,504,504,504,504,504,504,504,504,504,504,504,504,492,474,433,391,293,241,194,162,139,117,108,96,92,88,87,84,82,79,78,73,71,70],"timestamp_mouse":[16,46,56,78,97,117,137,157,176,197,218,237,258,276,296,316,336,357,376,397,417,437,457,477,497,517,537,556,576,596,617,636,657,677,698,717,736,756,776,796,817,836,857,876,896,916,937,957,976,996,1016,1037,1057,1076,1096],"xSR":741.5,"ySR":469.95,"xT1":424.9,"yT1":0,"xT2":1058.1,"yT2":0,"toosoon":0,"cond_shown":"Congruent","ratio_trial":200,"L_num":12,"L_den":15,"R_num":6,"R_den":10,"correct_side":1,"subjID":"lucasMateoPena37","gender":"0","school":"6","age":"12"},{"start_time":1551881216914,"click_time":1551881218601,"finger_time":1551881218321,"fix_duration":250,"trial":24,"RT":1407,"MT":280,"sideResp":1,"stimulus":[],"xmouse":[798,798,798,798,798,797,797,797,797,797,797,797,797,797,797,797,797,797,797,797,797,797,797,797,797,797,797,797,797,797,797,797,797,797,797,797,797,797,797,797,797,797,797,797,797,797,797,797,797,797,797,797,797,797,797,797,797,797,797,797,797,797,797,797,797,797,797,797,797,797,797,794,781,728,593,526,488,488,488,488,488,488,488,488,474],"ymouse":[511,511,511,511,510,510,510,510,510,510,510,510,510,510,510,510,510,510,510,510,510,510,510,510,510,510,510,510,510,510,510,510,510,510,510,510,510,510,510,510,510,510,510,510,510,510,510,510,510,510,510,510,510,510,510,510,510,510,510,510,509,509,509,509,509,509,509,509,505,487,461,424,368,263,87,31,0,0,0,0,0,0,0,0,4],"timestamp_mouse":[7,34,46,66,86,107,127,146,166,186,207,226,246,266,287,307,326,347,366,386,407,428,446,467,486,506,528,546,567,586,606,627,646,667,686,707,727,747,768,787,806,828,848,868,888,906,928,947,967,987,1007,1027,1047,1067,1087,1108,1126,1148,1166,1187,1206,1228,1247,1266,1288,1306,1327,1348,1367,1387,1407,1426,1447,1468,1487,1508,1526,1548,1567,1587,1608,1627,1647,1666,1687],"xSR":741.5,"ySR":469.95,"xT1":424.9,"yT1":0,"xT2":1058.1,"yT2":0,"toosoon":0,"cond_shown":"Incongruent","ratio_trial":100,"L_num":3,"L_den":6,"R_num":4,"R_den":10,"correct_side":1,"subjID":"lucasMateoPena37","gender":"0","school":"6","age":"12"},{"start_time":1551881220723,"click_time":1551881223182,"finger_time":1551881222861,"fix_duration":1120.4077849237872,"trial":25,"RT":2138,"MT":321,"sideResp":2,"stimulus":[],"xmouse":[805,805,805,805,805,805,805,805,805,805,805,805,805,805,805,805,805,805,805,805,805,805,805,805,805,805,805,805,805,805,805,805,805,805,805,805,805,805,805,805,805,805,805,805,805,805,805,805,805,805,805,805,805,805,805,805,805,805,805,805,805,805,805,805,805,805,805,805,805,805,805,805,805,805,805,805,805,805,805,805,805,805,805,805,805,805,805,805,805,805,805,805,805,805,805,805,805,805,805,805,805,805,805,806,812,822,839,862,941,987,1027,1060,1096,1132,1145,1155,1163,1167,1172,1171,1166,1160,1155],"ymouse":[509,509,509,509,509,509,509,509,509,509,509,509,509,509,509,509,509,509,509,509,509,509,509,509,509,509,509,509,509,509,509,509,509,509,509,509,509,509,509,509,509,509,509,509,509,509,509,509,509,509,509,509,509,509,509,509,509,509,509,509,509,509,509,509,509,509,509,509,509,509,509,509,509,509,509,509,509,509,509,509,509,509,509,509,509,509,509,509,509,509,509,509,509,508,507,507,507,507,507,507,507,507,506,502,494,481,461,430,343,300,270,244,216,185,174,160,147,138,119,105,94,86,79],"timestamp_mouse":[18,45,58,79,99,118,139,159,178,198,217,239,258,279,299,318,339,359,379,397,418,438,459,478,499,518,538,558,577,599,618,637,658,678,698,718,739,758,778,798,817,838,859,878,898,918,939,959,979,998,1018,1038,1057,1078,1098,1118,1139,1158,1178,1199,1219,1238,1258,1278,1299,1318,1339,1359,1378,1397,1418,1439,1459,1479,1498,1519,1539,1558,1579,1598,1619,1639,1658,1679,1699,1718,1739,1759,1778,1799,1819,1839,1859,1879,1898,1919,1937,1958,1978,1997,2017,2038,2059,2078,2099,2119,2138,2159,2178,2199,2217,2238,2258,2278,2298,2317,2338,2358,2379,2399,2417,2438,2459],"xSR":741.5,"ySR":469.95,"xT1":424.9,"yT1":0,"xT2":1058.1,"yT2":0,"toosoon":0,"cond_shown":"Incongruent","ratio_trial":200,"L_num":4,"L_den":30,"R_num":1,"R_den":3,"correct_side":2,"subjID":"lucasMateoPena37","gender":"0","school":"6","age":"12"},{"start_time":1551881225231,"click_time":1551881228302,"finger_time":1551881227041,"fix_duration":1128.5379157471762,"trial":26,"RT":1810,"MT":1261,"sideResp":1,"stimulus":[],"xmouse":[835,835,835,835,835,835,835,835,835,835,835,835,835,834,834,834,834,834,834,832,831,831,831,830,830,830,830,829,829,829,829,829,829,829,829,829,829,829,829,829,829,829,829,829,829,829,829,829,829,829,829,829,829,829,829,829,829,829,829,829,829,829,829,829,829,829,829,829,829,829,829,829,829,829,829,829,829,829,829,829,829,829,829,827,825,823,823,822,818,816,815,815,813,792,764,737,719,713,708,703,701,697,692,674,662,651,641,633,630,629,623,614,604,591,587,583,579,573,568,561,560,559,558,556,555,551,549,545,540,538,537,537,537,537,537,537,537,537,537,537,537,537,537,537,537,537,537,537,537,537,537,537,532,506],"ymouse":[498,498,498,498,498,498,498,498,498,498,499,499,500,500,500,501,501,501,501,501,501,501,501,501,501,501,501,501,501,501,501,501,501,501,501,501,501,501,501,501,501,501,501,501,501,501,501,501,501,501,501,501,501,501,501,501,501,501,501,501,501,501,501,501,501,501,501,501,501,501,501,501,501,501,501,501,501,501,501,501,501,501,501,501,501,502,503,503,497,484,468,447,420,321,256,202,159,146,136,123,120,117,116,110,108,107,107,107,105,105,105,105,104,101,99,98,97,94,92,88,88,88,87,86,86,85,84,84,84,83,83,83,83,83,83,83,83,83,83,83,83,83,83,83,83,83,83,83,83,83,83,83,80,68],"timestamp_mouse":[9,34,50,70,89,110,130,151,169,190,210,230,250,270,291,310,330,351,370,390,409,430,450,470,489,511,530,551,570,590,610,631,650,670,691,710,731,750,769,790,809,831,851,870,891,909,931,950,971,989,1010,1029,1049,1070,1090,1110,1129,1151,1170,1190,1211,1230,1250,1270,1291,1310,1330,1350,1371,1391,1410,1430,1450,1469,1491,1510,1530,1551,1571,1591,1611,1630,1651,1670,1691,1710,1731,1750,1769,1790,1810,1829,1851,1870,1890,1910,1930,1951,1970,1990,2009,2030,2050,2070,2090,2111,2131,2150,2171,2190,2209,2230,2251,2271,2289,2309,2331,2350,2370,2391,2411,2431,2451,2470,2490,2509,2530,2551,2570,2589,2610,2630,2651,2670,2691,2710,2730,2750,2770,2790,2810,2830,2850,2870,2891,2910,2930,2950,2970,2990,3009,3031,3051,3071],"xSR":741.5,"ySR":469.95,"xT1":424.9,"yT1":0,"xT2":1058.1,"yT2":0,"toosoon":0,"cond_shown":"Incongruent","ratio_trial":100,"L_num":9,"L_den":15,"R_num":13,"R_den":26,"correct_side":1,"subjID":"lucasMateoPena37","gender":"0","school":"6","age":"12"},{"start_time":1551881230430,"click_time":1551881231982,"finger_time":1551881231641,"fix_duration":1206.1938101867675,"trial":27,"RT":1211,"MT":341,"sideResp":1,"stimulus":[],"xmouse":[819,819,819,819,819,819,819,819,819,819,819,819,819,819,818,818,818,817,817,817,817,817,817,817,817,817,817,817,817,817,817,817,817,817,817,817,817,817,816,816,816,816,816,816,816,816,816,816,817,818,818,818,818,818,818,818,818,818,818,818,813,805,793,759,742,722,689,676,657,657,657,657,657,657,657,553,536,518],"ymouse":[513,513,513,513,513,513,513,513,513,513,513,513,513,513,513,513,513,513,513,513,513,513,513,513,513,513,513,513,513,513,513,513,513,513,513,513,513,513,512,512,512,512,512,512,512,510,506,503,494,492,492,492,492,492,492,492,492,492,492,486,467,443,408,296,236,176,89,48,7,7,7,7,7,7,7,1,10,23],"timestamp_mouse":[11,34,51,71,92,111,131,152,170,191,210,230,252,270,291,311,330,352,372,390,412,432,452,471,491,511,532,551,572,592,611,630,652,671,691,712,732,752,771,792,812,831,851,872,892,912,932,952,971,991,1011,1031,1051,1072,1091,1110,1131,1151,1171,1190,1211,1231,1251,1272,1292,1311,1331,1351,1371,1391,1411,1430,1451,1472,1491,1511,1531,1552],"xSR":741.5,"ySR":469.95,"xT1":424.9,"yT1":0,"xT2":1058.1,"yT2":0,"toosoon":0,"cond_shown":"Incongruent","ratio_trial":200,"L_num":7,"L_den":10,"R_num":8,"R_den":16,"correct_side":1,"subjID":"lucasMateoPena37","gender":"0","school":"6","age":"12"},{"start_time":1551881233252,"click_time":1551881234641,"finger_time":1551881234501,"fix_duration":250,"trial":28,"RT":1249,"MT":140,"sideResp":2,"stimulus":[],"xmouse":[801,801,801,801,801,801,801,801,801,801,801,801,801,801,801,801,801,801,801,801,801,801,801,801,801,801,801,801,801,801,801,801,801,801,801,801,801,801,801,801,801,801,801,801,801,801,801,801,801,801,801,801,801,801,801,801,801,802,802,803,804,807,831,859,898,967,1010,1094,1122,1139],"ymouse":[484,484,484,484,484,484,484,484,484,484,484,484,484,484,484,484,484,484,484,484,484,484,484,484,484,484,484,484,484,484,484,484,484,484,484,484,484,484,484,484,484,484,484,484,484,484,484,484,484,484,484,484,484,484,484,484,484,483,483,482,481,479,462,442,412,351,305,183,127,87],"timestamp_mouse":[9,35,50,69,88,110,128,149,169,189,209,229,249,269,289,308,329,348,370,388,409,429,450,470,488,510,529,550,569,590,610,629,650,669,689,709,730,749,770,790,808,830,850,870,890,910,929,949,969,990,1010,1030,1048,1069,1089,1110,1128,1150,1170,1188,1209,1230,1249,1269,1289,1310,1330,1349,1369,1389],"xSR":741.5,"ySR":469.95,"xT1":424.9,"yT1":0,"xT2":1058.1,"yT2":0,"toosoon":0,"cond_shown":"Congruent","ratio_trial":300,"L_num":3,"L_den":12,"R_num":11,"R_den":20,"correct_side":2,"subjID":"lucasMateoPena37","gender":"0","school":"6","age":"12"},{"start_time":1551881236964,"click_time":1551881238442,"finger_time":1551881237962,"fix_duration":1062.4927918284682,"trial":29,"RT":998,"MT":480,"sideResp":2,"stimulus":[],"xmouse":[786,786,786,786,786,786,786,786,786,786,788,789,789,789,789,789,789,790,790,790,790,790,790,790,790,790,790,790,790,790,790,790,790,790,790,790,790,790,790,791,791,791,791,791,791,792,793,795,801,836,880,953,975,989,1002,1012,1018,1019,1021,1025,1028,1036,1041,1041,1041,1041,1041,1041,1041,1041,1041,1041,1041,1101],"ymouse":[475,475,475,475,475,475,475,475,475,475,476,477,477,477,477,477,477,477,477,477,477,477,477,477,477,477,477,477,477,477,477,477,477,477,477,477,477,477,477,478,478,478,478,478,478,478,478,476,470,432,380,272,232,200,168,130,92,85,77,65,55,24,6,6,6,6,6,6,6,6,6,6,6,13],"timestamp_mouse":[16,37,57,77,97,118,138,157,177,198,217,237,256,277,297,316,337,358,377,398,417,437,457,478,497,517,536,557,577,597,617,637,657,676,698,717,737,757,776,798,817,838,856,877,897,918,937,957,976,998,1016,1036,1057,1077,1097,1117,1137,1156,1177,1197,1216,1238,1258,1277,1297,1317,1337,1358,1378,1396,1417,1438,1457,1478],"xSR":741.5,"ySR":469.95,"xT1":424.9,"yT1":0,"xT2":1058.1,"yT2":0,"toosoon":0,"cond_shown":"Congruent","ratio_trial":100,"L_num":3,"L_den":20,"R_num":4,"R_den":16,"correct_side":2,"subjID":"lucasMateoPena37","gender":"0","school":"6","age":"12"},{"start_time":1551881241521,"click_time":1551881243401,"finger_time":1551881243161,"fix_duration":277.1906957155129,"trial":30,"RT":1640,"MT":240,"sideResp":2,"stimulus":[],"xmouse":[769,769,769,769,769,769,769,769,769,769,769,769,769,769,769,769,769,769,769,769,769,769,769,769,769,769,769,769,769,769,769,769,769,770,770,770,770,770,770,770,770,770,770,770,770,770,770,770,770,770,770,770,770,770,770,770,770,770,770,770,770,770,770,770,770,770,770,770,770,770,770,771,771,771,771,771,771,771,771,773,782,803,859,920,997,1161,1224,1248,1252,1235,1219,1197,1171,1160,1156],"ymouse":[541,541,541,541,541,541,541,541,541,541,541,541,541,541,541,541,541,541,541,541,541,541,541,541,541,541,541,541,541,541,541,541,540,539,539,539,539,539,539,539,539,539,539,539,539,539,539,539,539,539,539,539,539,539,539,539,539,539,539,539,539,539,539,539,539,539,539,539,539,539,538,538,538,538,537,537,537,537,537,535,524,504,455,406,342,207,137,75,51,33,33,33,40,45,47],"timestamp_mouse":[8,21,40,60,79,100,121,141,159,181,201,220,240,260,281,300,319,341,361,381,400,420,440,461,480,501,520,539,560,580,600,619,640,661,681,701,720,740,760,780,799,821,840,860,881,901,921,940,960,980,1001,1021,1040,1060,1081,1101,1121,1141,1161,1180,1200,1219,1239,1261,1280,1300,1321,1341,1360,1381,1401,1420,1441,1460,1481,1501,1520,1540,1559,1581,1599,1621,1640,1661,1680,1699,1720,1740,1761,1781,1799,1820,1841,1860,1880],"xSR":741.5,"ySR":469.95,"xT1":424.9,"yT1":0,"xT2":1058.1,"yT2":0,"toosoon":0,"cond_shown":"Incongruent","ratio_trial":100,"L_num":8,"L_den":20,"R_num":1,"R_den":2,"correct_side":2,"subjID":"lucasMateoPena37","gender":"0","school":"6","age":"12"},{"start_time":1551881245836,"click_time":1551881247341,"finger_time":1551881247000,"fix_duration":1451.9570641034402,"trial":31,"RT":1164,"MT":341,"sideResp":1,"stimulus":[],"xmouse":[826,826,826,826,826,826,826,826,826,826,826,826,826,826,826,826,826,826,826,826,826,826,826,826,826,826,826,826,826,826,826,826,826,826,826,826,826,826,826,826,826,826,826,826,826,826,826,826,826,826,826,826,826,826,826,826,827,813,794,782,772,761,748,705,679,659,636,622,596,587,578,568,557,545,534,518],"ymouse":[502,502,502,502,502,502,502,502,502,502,502,502,502,502,502,502,502,502,502,502,502,502,502,502,502,502,502,502,502,502,502,502,502,502,502,502,502,502,502,502,502,502,502,502,502,502,502,502,502,502,502,502,502,502,502,502,494,470,417,380,340,308,282,237,218,202,181,169,149,142,136,130,124,115,106,94],"timestamp_mouse":[7,25,45,66,84,106,126,145,166,185,205,225,245,264,285,306,324,346,365,386,404,426,445,466,485,506,525,545,566,586,605,625,646,665,685,706,725,745,766,785,805,826,846,866,885,906,925,946,964,985,1005,1025,1045,1066,1085,1105,1126,1145,1164,1184,1205,1226,1246,1265,1285,1305,1325,1344,1365,1384,1405,1425,1446,1465,1484,1505],"xSR":741.5,"ySR":469.95,"xT1":424.9,"yT1":0,"xT2":1058.1,"yT2":0,"toosoon":0,"cond_shown":"Incongruent","ratio_trial":300,"L_num":7,"L_den":10,"R_num":8,"R_den":20,"correct_side":1,"subjID":"lucasMateoPena37","gender":"0","school":"6","age":"12"},{"start_time":1551881248767,"click_time":1551881249902,"finger_time":1551881249361,"fix_duration":484.7176444479553,"trial":32,"RT":594,"MT":541,"sideResp":2,"stimulus":[],"xmouse":[781,782,782,782,782,782,782,782,782,782,782,782,782,782,782,782,782,782,782,782,782,782,782,782,782,782,782,788,809,828,852,876,947,977,998,1007,1015,1015,1016,1017,1018,1020,1022,1026,1030,1033,1040,1043,1051,1061,1064,1075,1082,1089,1092,1093,1095],"ymouse":[498,498,498,498,498,498,498,498,498,498,498,498,498,498,498,498,498,498,498,498,498,498,498,498,498,498,498,496,483,468,448,427,337,291,253,233,213,213,210,208,199,192,189,182,174,168,159,155,144,133,130,118,111,106,103,102,98],"timestamp_mouse":[15,45,54,74,94,115,135,154,174,195,214,234,253,275,295,313,333,355,374,394,413,433,454,474,495,514,535,553,574,594,614,634,654,674,694,715,733,753,774,793,815,834,853,874,895,914,933,954,974,994,1015,1033,1055,1074,1094,1115,1135],"xSR":741.5,"ySR":469.95,"xT1":424.9,"yT1":0,"xT2":1058.1,"yT2":0,"toosoon":0,"cond_shown":"Incongruent","ratio_trial":200,"L_num":11,"L_den":20,"R_num":3,"R_den":4,"correct_side":2,"subjID":"lucasMateoPena37","gender":"0","school":"6","age":"12"},{"start_time":1551881251419,"click_time":1551881252801,"finger_time":1551881252421,"fix_duration":696.6794418933669,"trial":33,"RT":1002,"MT":380,"sideResp":1,"stimulus":[],"xmouse":[820,820,820,820,820,820,820,820,820,820,820,820,820,820,820,820,820,820,820,820,820,820,820,819,819,819,819,819,819,819,819,819,819,819,819,819,819,819,819,819,819,819,819,819,819,819,819,819,819,819,819,811,789,756,674,639,608,583,575,572,570,570,570,570,570,570,566,556,545,511],"ymouse":[485,485,485,485,485,485,485,485,485,485,485,485,485,485,485,485,485,485,485,485,485,485,485,485,485,485,485,485,485,485,485,485,485,485,485,485,485,485,485,485,485,485,485,485,485,485,485,485,485,476,460,431,384,326,218,180,149,126,118,111,107,107,107,107,107,106,104,98,91,73],"timestamp_mouse":[8,23,43,63,82,103,122,143,163,181,203,223,243,263,283,303,322,341,363,383,403,423,442,462,483,502,522,542,562,582,601,621,642,662,681,702,723,742,762,782,802,822,841,862,883,902,922,943,961,982,1002,1022,1041,1063,1082,1102,1123,1143,1162,1182,1203,1222,1242,1262,1283,1302,1323,1343,1362,1382],"xSR":741.5,"ySR":469.95,"xT1":424.9,"yT1":0,"xT2":1058.1,"yT2":0,"toosoon":0,"cond_shown":"Congruent","ratio_trial":300,"L_num":11,"L_den":22,"R_num":2,"R_den":10,"correct_side":1,"subjID":"lucasMateoPena37","gender":"0","school":"6","age":"12"},{"start_time":1551881254419,"click_time":1551881255741,"finger_time":1551881255401,"fix_duration":737.6810342959621,"trial":34,"RT":982,"MT":340,"sideResp":2,"stimulus":[],"xmouse":[810,810,810,810,810,810,810,810,810,810,810,810,810,810,810,810,810,810,810,810,810,810,810,810,810,810,810,810,810,810,810,810,810,810,810,810,810,810,810,810,810,810,810,810,810,810,811,812,816,832,847,867,884,898,911,922,925,942,951,976,991,1017,1048,1080,1115,1124,1129],"ymouse":[495,495,495,495,495,495,495,495,495,495,495,495,495,495,495,495,495,495,495,495,495,495,495,495,495,495,495,495,495,495,495,495,495,495,495,495,495,495,495,495,495,495,495,495,494,492,492,488,485,468,456,441,427,413,394,374,367,337,320,283,263,233,202,174,139,120,99],"timestamp_mouse":[8,21,43,62,82,103,121,143,162,181,202,222,242,263,283,303,322,342,361,383,403,422,442,462,483,502,521,542,562,581,603,623,642,663,683,703,723,741,763,781,802,821,843,863,883,902,923,943,963,982,1002,1022,1042,1062,1083,1101,1122,1143,1163,1182,1202,1222,1242,1262,1282,1303,1322],"xSR":741.5,"ySR":469.95,"xT1":424.9,"yT1":0,"xT2":1058.1,"yT2":0,"toosoon":0,"cond_shown":"Incongruent","ratio_trial":200,"L_num":14,"L_den":30,"R_num":12,"R_den":18,"correct_side":2,"subjID":"lucasMateoPena37","gender":"0","school":"6","age":"12"},{"start_time":1551881256834,"click_time":1551881259222,"finger_time":1551881258780,"fix_duration":250,"trial":35,"RT":1946,"MT":442,"sideResp":2,"stimulus":[],"xmouse":[804,804,804,804,804,804,804,804,804,804,804,806,806,806,806,806,806,806,806,806,806,806,806,806,806,806,806,806,806,806,806,806,806,806,806,806,806,806,806,806,806,806,806,806,806,806,806,806,806,806,806,806,806,806,806,806,806,806,806,806,806,806,806,806,806,806,806,806,806,806,806,806,806,806,806,806,806,806,806,806,806,806,806,806,806,806,808,810,812,813,813,813,813,814,817,822,834,850,896,925,956,978,990,1000,1006,1009,1011,1013,1014,1016,1020,1023,1025,1027,1034,1043,1050,1053,1057,1059],"ymouse":[550,550,550,550,550,550,550,550,550,550,550,548,546,546,546,546,546,546,546,546,546,546,546,546,546,546,546,546,546,546,546,546,546,546,546,546,546,546,546,546,546,546,546,546,546,546,546,546,546,546,546,546,546,546,546,546,546,546,546,546,546,546,546,546,546,546,546,546,546,546,546,546,546,546,546,546,546,546,546,546,546,546,546,546,546,545,542,535,530,529,529,528,528,527,520,513,491,469,406,362,312,265,229,177,161,150,141,135,129,124,117,113,111,109,106,102,100,100,100,99],"timestamp_mouse":[10,27,47,66,86,108,127,147,167,187,208,228,246,268,287,307,327,348,367,387,407,427,446,468,488,508,527,547,567,588,606,628,647,667,687,708,727,748,767,787,807,827,846,867,888,906,928,947,967,988,1008,1027,1048,1067,1087,1107,1127,1148,1166,1188,1206,1227,1248,1267,1288,1307,1326,1348,1367,1387,1407,1427,1448,1468,1486,1508,1527,1546,1567,1588,1607,1627,1647,1668,1688,1707,1727,1746,1767,1786,1807,1827,1847,1866,1887,1908,1926,1946,1967,1986,2008,2027,2047,2068,2088,2106,2127,2147,2167,2187,2207,2227,2247,2267,2287,2308,2326,2347,2367,2387],"xSR":741.5,"ySR":469.95,"xT1":424.9,"yT1":0,"xT2":1058.1,"yT2":0,"toosoon":0,"cond_shown":"Congruent","ratio_trial":300,"L_num":1,"L_den":30,"R_num":8,"R_den":24,"correct_side":2,"subjID":"lucasMateoPena37","gender":"0","school":"6","age":"12"},{"start_time":1551881262210,"click_time":1551881263561,"finger_time":1551881263241,"fix_duration":566.3634217481002,"trial":36,"RT":1031,"MT":320,"sideResp":1,"stimulus":[],"xmouse":[799,799,799,799,799,799,799,799,799,799,799,799,799,799,799,799,799,799,799,799,799,799,799,799,799,799,799,799,799,799,799,799,799,799,799,799,799,799,799,799,798,796,796,796,795,794,793,793,793,783,767,742,710,683,636,622,613,604,592,571,560,549,542,540,532,528,523,515],"ymouse":[526,526,526,526,526,526,526,526,526,526,526,526,526,526,526,526,526,526,526,526,526,526,526,526,526,526,526,526,526,526,526,526,526,526,526,526,526,526,526,526,525,524,524,524,524,523,523,523,522,512,491,456,409,359,282,259,242,227,207,177,166,158,154,152,142,132,119,93],"timestamp_mouse":[12,36,51,71,91,111,131,152,172,190,211,231,251,272,291,310,331,351,371,391,411,431,451,472,492,511,531,551,572,592,610,631,651,671,690,711,731,752,771,791,811,832,851,872,891,911,932,952,971,991,1011,1031,1051,1071,1092,1111,1130,1151,1171,1191,1210,1231,1252,1271,1290,1310,1331,1351],"xSR":741.5,"ySR":469.95,"xT1":424.9,"yT1":0,"xT2":1058.1,"yT2":0,"toosoon":0,"cond_shown":"Incongruent","ratio_trial":200,"L_num":1,"L_den":2,"R_num":3,"R_den":10,"correct_side":1,"subjID":"lucasMateoPena37","gender":"0","school":"6","age":"12"},{"start_time":1551881265250,"click_time":1551881266401,"finger_time":1551881265900,"fix_duration":1047.2317418592902,"trial":37,"RT":650,"MT":501,"sideResp":1,"stimulus":[],"xmouse":[798,798,798,800,800,800,800,800,800,800,800,800,800,800,800,800,800,800,800,800,800,800,800,800,800,800,800,800,800,800,800,798,785,777,766,742,721,703,667,652,638,623,582,565,554,547,541,533,528,525,524,523,523,522,522,521,521,518],"ymouse":[532,531,531,531,531,530,530,530,530,530,530,530,530,530,530,530,530,530,530,530,530,530,530,530,530,530,530,530,530,526,522,508,468,444,420,377,350,330,297,282,266,251,216,202,192,185,176,160,152,141,134,130,125,121,113,109,105,84],"timestamp_mouse":[11,31,51,72,91,111,131,151,171,191,212,231,251,271,291,311,331,352,371,391,411,430,452,472,490,511,531,551,571,592,611,631,650,671,691,711,730,751,771,791,811,831,852,872,891,911,931,951,972,991,1012,1030,1051,1071,1090,1110,1131,1151],"xSR":741.5,"ySR":469.95,"xT1":424.9,"yT1":0,"xT2":1058.1,"yT2":0,"toosoon":0,"cond_shown":"Incongruent","ratio_trial":200,"L_num":1,"L_den":2,"R_num":3,"R_den":10,"correct_side":1,"subjID":"lucasMateoPena37","gender":"0","school":"6","age":"12"},{"start_time":1551881268036,"click_time":1551881269622,"finger_time":1551881269081,"fix_duration":1034.730324435051,"trial":38,"RT":1045,"MT":541,"sideResp":1,"stimulus":[],"xmouse":[815,815,815,815,815,815,815,815,815,815,815,815,815,814,814,814,813,812,811,810,809,808,808,808,808,808,808,808,808,808,808,808,808,808,808,808,808,808,808,808,808,808,808,808,808,808,808,808,808,807,805,802,796,767,752,728,715,665,629,627,626,625,623,617,599,592,583,577,554,539,527,516,512,510,510,510,510,508,503,499],"ymouse":[536,536,536,536,536,536,536,536,536,536,536,536,534,533,533,533,533,532,530,528,527,526,526,526,526,526,526,526,526,526,526,526,526,526,526,526,526,526,526,526,526,526,526,526,526,526,526,526,526,521,509,487,454,375,344,298,281,223,191,188,186,184,180,170,154,150,144,140,128,122,118,114,113,113,113,113,112,111,104,97],"timestamp_mouse":[8,25,44,64,85,105,125,145,164,185,205,225,245,264,285,305,324,345,364,385,406,425,445,465,485,505,524,546,565,585,605,626,644,665,685,705,725,746,765,785,805,825,845,864,885,906,925,945,966,985,1006,1024,1045,1064,1085,1106,1124,1145,1165,1185,1205,1225,1246,1265,1284,1306,1326,1345,1366,1385,1405,1425,1446,1465,1484,1505,1526,1546,1565,1586],"xSR":741.5,"ySR":469.95,"xT1":424.9,"yT1":0,"xT2":1058.1,"yT2":0,"toosoon":0,"cond_shown":"Congruent","ratio_trial":100,"L_num":11,"L_den":22,"R_num":4,"R_den":10,"correct_side":1,"subjID":"lucasMateoPena37","gender":"0","school":"6","age":"12"},{"start_time":1551881271954,"click_time":1551881273301,"finger_time":1551881272300,"fix_duration":1391.7585497090338,"trial":39,"RT":346,"MT":1001,"sideResp":2,"stimulus":[],"xmouse":[804,804,804,804,804,804,804,804,804,804,804,804,804,803,802,801,799,794,790,786,785,785,787,788,790,792,792,795,796,799,802,804,807,810,815,823,834,872,901,921,953,966,971,972,972,975,982,1000,1008,1016,1025,1029,1035,1036,1037,1037,1037,1035,1035,1035,1035,1035,1039,1047,1052,1055,1058,1063],"ymouse":[501,501,501,501,501,501,501,501,501,501,501,501,501,501,496,492,480,452,440,428,424,421,416,414,411,409,409,406,405,405,405,404,403,403,401,399,395,360,326,303,276,269,265,263,257,248,231,173,140,116,91,80,64,59,51,47,45,44,44,44,44,44,45,48,51,52,53,57],"timestamp_mouse":[7,32,48,66,87,106,127,146,167,187,207,228,248,267,287,307,327,346,366,387,407,426,447,468,487,507,527,547,567,588,608,628,646,666,687,707,727,746,767,787,807,827,846,868,887,907,928,948,967,986,1007,1027,1047,1067,1087,1108,1126,1147,1166,1187,1208,1227,1248,1267,1287,1307,1327,1347],"xSR":741.5,"ySR":469.95,"xT1":424.9,"yT1":0,"xT2":1058.1,"yT2":0,"toosoon":0,"cond_shown":"Incongruent","ratio_trial":300,"L_num":13,"L_den":26,"R_num":12,"R_den":15,"correct_side":2,"subjID":"lucasMateoPena37","gender":"0","school":"6","age":"12"},{"start_time":1551881275689,"click_time":1551881276782,"finger_time":1551881276580,"fix_duration":1207.5508071801323,"trial":40,"RT":891,"MT":202,"sideResp":2,"stimulus":[],"xmouse":[806,805,805,805,805,805,805,805,805,805,805,805,805,805,805,805,805,805,805,805,805,805,805,805,805,805,805,805,805,805,805,805,805,805,805,805,805,805,805,805,805,806,806,808,811,822,832,845,858,877,905,968,1018,1047,1074],"ymouse":[491,490,490,490,490,490,490,490,490,490,490,490,490,490,490,490,490,490,490,490,490,490,490,490,490,490,490,490,490,490,490,490,490,490,490,490,490,490,490,486,480,478,476,472,465,444,426,405,381,347,294,175,90,49,8],"timestamp_mouse":[17,43,52,71,91,112,132,153,171,193,213,232,252,273,292,312,332,353,372,392,412,432,453,472,492,513,532,551,573,592,612,632,652,673,692,712,732,752,772,792,812,832,852,872,891,912,931,952,972,993,1012,1032,1051,1072,1093],"xSR":741.5,"ySR":469.95,"xT1":424.9,"yT1":0,"xT2":1058.1,"yT2":0,"toosoon":0,"cond_shown":"Incongruent","ratio_trial":100,"L_num":12,"L_den":30,"R_num":2,"R_den":4,"correct_side":2,"subjID":"lucasMateoPena37","gender":"0","school":"6","age":"12"},{"start_time":1551881290178,"click_time":1551881292481,"finger_time":1551881291941,"fix_duration":1475.3368816001287,"trial":41,"RT":1763,"MT":540,"sideResp":1,"stimulus":[],"xmouse":[820,820,820,822,823,823,823,823,823,823,823,823,823,823,823,823,823,823,823,823,823,823,823,823,823,823,823,823,823,823,823,823,823,823,823,823,823,823,823,823,823,823,823,823,823,823,823,823,823,823,823,823,823,823,823,823,823,823,823,823,823,823,823,823,823,823,823,823,823,823,823,823,823,823,823,823,823,823,823,823,823,824,824,824,824,824,824,824,824,824,824,824,824,824,823,817,780,740,672,609,537,376,376,376,376,376,376,376,376,376,376,376,376,412,424,431],"ymouse":[507,507,507,507,507,507,507,507,507,507,507,507,507,507,507,507,507,507,507,507,507,507,507,507,507,507,507,507,507,507,507,507,507,507,507,507,507,507,507,507,507,507,507,507,507,507,507,507,507,507,507,507,507,507,507,507,507,507,507,507,507,507,507,507,507,507,507,507,507,507,507,507,507,507,507,507,507,507,507,507,507,507,502,499,496,493,482,472,457,427,405,378,373,369,364,352,312,278,223,176,121,5,5,5,5,5,5,5,5,5,5,5,5,0,9,16],"timestamp_mouse":[8,23,43,68,83,103,124,143,163,183,203,223,243,263,283,303,323,343,363,384,403,423,443,463,484,502,523,543,563,583,604,623,644,664,683,703,724,744,763,783,803,822,843,863,884,903,924,944,963,983,1002,1023,1044,1063,1083,1104,1123,1144,1163,1183,1203,1224,1243,1263,1284,1304,1324,1343,1364,1382,1404,1424,1445,1464,1483,1503,1524,1543,1563,1583,1604,1623,1643,1663,1684,1703,1723,1743,1763,1784,1803,1823,1844,1863,1883,1904,1924,1943,1963,1983,2004,2024,2043,2063,2083,2103,2123,2144,2162,2183,2202,2223,2242,2264,2284,2303],"xSR":741.5,"ySR":469.95,"xT1":424.9,"yT1":0,"xT2":1058.1,"yT2":0,"toosoon":0,"cond_shown":"Congruent","ratio_trial":200,"L_num":6,"L_den":15,"R_num":3,"R_den":15,"correct_side":1,"subjID":"lucasMateoPena37","gender":"0","school":"6","age":"12"},{"start_time":1551881294894,"click_time":1551881296061,"finger_time":1551881295581,"fix_duration":1451.271729394283,"trial":42,"RT":687,"MT":480,"sideResp":2,"stimulus":[],"xmouse":[822,822,822,822,822,822,822,822,822,822,822,822,822,822,822,822,822,822,822,822,822,822,822,822,822,822,822,822,822,822,822,822,822,826,850,893,911,930,950,967,993,1001,1007,1015,1018,1021,1022,1024,1027,1030,1031,1031,1031,1032,1034,1041,1046,1053,1061],"ymouse":[490,490,490,490,490,490,490,490,490,490,490,490,490,490,490,490,490,490,490,490,490,490,490,490,490,490,490,490,490,490,490,490,488,483,463,414,382,341,298,257,199,182,171,159,155,150,148,146,140,134,130,130,130,128,127,119,114,106,99],"timestamp_mouse":[8,27,46,67,87,108,127,148,167,187,208,227,248,267,287,306,328,347,367,387,408,426,447,467,487,508,527,548,567,587,607,627,648,667,687,708,728,747,767,788,808,827,847,868,887,907,927,947,966,987,1007,1028,1047,1067,1088,1107,1126,1147,1167],"xSR":741.5,"ySR":469.95,"xT1":424.9,"yT1":0,"xT2":1058.1,"yT2":0,"toosoon":0,"cond_shown":"Incongruent","ratio_trial":200,"L_num":14,"L_den":30,"R_num":6,"R_den":9,"correct_side":2,"subjID":"lucasMateoPena37","gender":"0","school":"6","age":"12"},{"start_time":1551881298424,"click_time":1551881300001,"finger_time":1551881299501,"fix_duration":1041.5449871053816,"trial":43,"RT":1077,"MT":500,"sideResp":2,"stimulus":[],"xmouse":[808,808,808,808,808,808,808,808,808,808,808,805,803,800,800,800,800,800,800,800,800,800,800,800,800,800,800,800,800,800,799,799,799,799,799,799,799,799,799,800,800,800,800,800,800,800,800,800,800,800,800,800,800,805,810,815,822,832,865,889,915,940,974,1021,1040,1044,1053,1057,1067,1073,1077,1078,1078,1078,1078,1078,1083,1090,1099],"ymouse":[496,496,496,496,496,496,496,496,496,496,496,496,496,497,497,497,497,497,497,497,497,497,497,497,497,497,497,497,497,497,496,495,495,495,495,495,494,489,480,478,478,478,478,478,478,477,476,475,475,475,475,475,471,459,448,435,416,394,328,295,263,238,213,179,168,166,162,161,154,140,130,127,126,126,125,124,116,104,86],"timestamp_mouse":[17,40,58,77,97,117,138,158,177,197,217,237,257,277,298,317,337,358,378,398,417,437,457,477,497,518,537,557,577,597,618,637,657,677,698,717,738,757,777,797,817,837,858,877,897,918,938,957,977,998,1018,1037,1058,1077,1098,1117,1138,1158,1177,1198,1217,1237,1257,1277,1297,1317,1337,1357,1377,1397,1417,1438,1458,1477,1497,1517,1537,1558,1577],"xSR":741.5,"ySR":469.95,"xT1":424.9,"yT1":0,"xT2":1058.1,"yT2":0,"toosoon":0,"cond_shown":"Incongruent","ratio_trial":100,"L_num":9,"L_den":15,"R_num":14,"R_den":28,"correct_side":1,"subjID":"lucasMateoPena37","gender":"0","school":"6","age":"12"},{"start_time":1551881302628,"click_time":1551881303901,"finger_time":1551881303501,"fix_duration":1265.2025643130225,"trial":44,"RT":873,"MT":400,"sideResp":1,"stimulus":[],"xmouse":[789,789,789,789,789,789,789,789,789,789,789,789,789,789,789,789,789,789,788,788,788,788,788,788,788,788,788,788,787,787,787,787,787,787,787,787,787,787,787,787,787,787,787,787,772,752,730,699,658,644,634,630,627,624,621,616,614,600,570,553,538,521,502,471],"ymouse":[531,531,531,531,531,531,531,531,531,531,531,530,529,524,523,523,523,522,522,522,522,522,522,522,522,522,520,517,516,516,516,516,516,516,516,516,516,516,516,516,516,511,506,447,398,352,305,261,196,176,165,160,158,155,153,152,152,146,134,127,120,112,101,86],"timestamp_mouse":[13,37,54,73,93,114,133,153,173,193,214,232,254,273,293,314,333,353,374,393,413,433,453,473,494,513,533,554,573,594,613,633,654,673,694,713,734,754,774,794,814,833,854,873,893,913,933,953,973,993,1013,1033,1053,1073,1094,1113,1133,1153,1174,1193,1214,1233,1253,1273],"xSR":741.5,"ySR":469.95,"xT1":424.9,"yT1":0,"xT2":1058.1,"yT2":0,"toosoon":0,"cond_shown":"Incongruent","ratio_trial":300,"L_num":2,"L_den":4,"R_num":6,"R_den":30,"correct_side":1,"subjID":"lucasMateoPena37","gender":"0","school":"6","age":"12"},{"start_time":1551881306251,"click_time":1551881307582,"finger_time":1551881307221,"fix_duration":1286.26455203365,"trial":45,"RT":970,"MT":361,"sideResp":1,"stimulus":[],"xmouse":[778,778,778,778,778,778,778,778,778,778,778,778,778,778,778,778,778,778,778,778,778,778,778,778,778,778,778,778,778,778,778,778,778,778,778,778,778,778,778,778,778,778,778,778,778,778,778,778,778,778,773,759,708,669,628,581,564,550,549,549,549,549,546,542,536,531,523],"ymouse":[496,496,496,496,496,496,496,496,496,496,496,496,496,496,496,496,496,496,496,496,496,496,496,496,496,496,496,496,496,496,496,496,496,496,496,496,496,496,496,496,496,496,496,496,496,496,494,479,459,424,373,324,212,155,100,41,19,2,1,1,1,1,4,7,12,16,25],"timestamp_mouse":[10,37,50,70,89,110,130,150,171,191,210,230,250,270,291,310,330,350,371,389,410,431,450,469,490,510,530,549,570,590,611,630,651,670,690,710,730,750,770,791,811,830,850,870,889,910,931,950,970,990,1009,1031,1050,1070,1091,1110,1130,1150,1169,1190,1210,1230,1250,1271,1289,1310,1331],"xSR":741.5,"ySR":469.95,"xT1":424.9,"yT1":0,"xT2":1058.1,"yT2":0,"toosoon":0,"cond_shown":"Incongruent","ratio_trial":300,"L_num":3,"L_den":6,"R_num":4,"R_den":20,"correct_side":1,"subjID":"lucasMateoPena37","gender":"0","school":"6","age":"12"},{"start_time":1551881308753,"click_time":1551881310001,"finger_time":1551881309662,"fix_duration":250,"trial":46,"RT":909,"MT":339,"sideResp":1,"stimulus":[],"xmouse":[755,756,757,757,757,758,758,758,758,758,758,758,758,758,758,759,759,760,761,761,761,761,762,762,762,762,763,763,763,763,763,763,764,764,765,765,765,765,765,765,765,766,767,768,770,770,769,742,720,696,652,628,598,589,582,577,573,566,564,556,546,536,519],"ymouse":[522,521,521,520,520,519,519,519,519,519,519,519,519,519,519,518,517,517,516,516,515,515,515,514,513,513,512,512,512,512,512,512,510,510,509,509,509,509,509,509,508,506,498,489,471,453,427,344,297,243,166,128,85,72,63,55,50,40,37,30,21,14,5],"timestamp_mouse":[9,29,48,68,88,108,128,148,168,188,208,228,248,269,288,308,328,348,368,387,408,428,447,468,488,509,528,548,568,589,608,629,648,667,688,708,728,747,769,789,808,828,848,869,888,909,929,948,967,988,1008,1028,1049,1069,1088,1109,1128,1148,1169,1189,1208,1228,1248],"xSR":741.5,"ySR":469.95,"xT1":424.9,"yT1":0,"xT2":1058.1,"yT2":0,"toosoon":0,"cond_shown":"Incongruent","ratio_trial":300,"L_num":3,"L_den":6,"R_num":4,"R_den":20,"correct_side":1,"subjID":"lucasMateoPena37","gender":"0","school":"6","age":"12"},{"start_time":1551881312138,"click_time":1551881313221,"finger_time":1551881313000,"fix_duration":1235.0244025155457,"trial":47,"RT":862,"MT":221,"sideResp":1,"stimulus":[],"xmouse":[812,812,812,814,814,814,814,814,814,814,814,814,814,814,814,814,814,814,814,814,814,814,814,814,814,814,814,814,814,814,814,814,814,814,814,814,814,813,810,808,805,798,785,763,750,735,719,697,641,606,593,557,540,525,519],"ymouse":[528,528,528,527,527,525,524,523,522,522,521,521,521,521,521,520,519,519,519,519,519,517,517,517,517,517,517,517,517,517,517,517,517,517,517,517,517,516,515,513,510,503,490,462,439,402,345,286,169,103,87,46,33,23,22],"timestamp_mouse":[9,29,43,63,83,104,124,143,164,184,204,222,243,263,284,303,323,343,363,384,403,423,443,463,483,502,524,542,564,583,603,622,643,662,683,703,723,743,763,782,803,823,844,862,883,903,924,942,963,983,1003,1023,1043,1063,1083],"xSR":741.5,"ySR":469.95,"xT1":424.9,"yT1":0,"xT2":1058.1,"yT2":0,"toosoon":0,"cond_shown":"Congruent","ratio_trial":100,"L_num":11,"L_den":22,"R_num":6,"R_den":15,"correct_side":1,"subjID":"lucasMateoPena37","gender":"0","school":"6","age":"12"},{"start_time":1551881314595,"click_time":1551881315821,"finger_time":1551881315321,"fix_duration":250,"trial":48,"RT":726,"MT":500,"sideResp":1,"stimulus":[],"xmouse":[780,780,780,780,780,780,780,780,780,780,780,780,780,780,780,780,780,780,780,780,780,780,780,780,780,780,780,780,780,780,780,780,780,779,776,766,762,760,756,748,738,730,725,710,690,655,638,626,618,615,610,597,588,582,577,569,564,557,546,540,526,521],"ymouse":[493,493,493,493,493,493,493,493,493,493,493,493,493,493,493,493,493,493,493,493,493,493,493,493,493,493,493,493,493,493,493,493,493,489,485,471,466,463,455,436,389,355,325,288,255,211,199,192,188,186,183,169,160,152,148,133,124,112,93,78,56,49],"timestamp_mouse":[9,34,46,67,86,106,127,147,166,186,206,227,246,267,286,307,326,346,366,386,406,427,446,467,486,506,526,546,567,587,606,627,647,666,687,706,726,747,767,786,806,826,846,866,887,906,926,947,966,987,1006,1026,1046,1066,1086,1106,1126,1147,1166,1187,1206,1226],"xSR":741.5,"ySR":469.95,"xT1":424.9,"yT1":0,"xT2":1058.1,"yT2":0,"toosoon":0,"cond_shown":"Congruent","ratio_trial":300,"L_num":9,"L_den":10,"R_num":3,"R_den":5,"correct_side":1,"subjID":"lucasMateoPena37","gender":"0","school":"6","age":"12"},{"start_time":1551881317379,"click_time":1551881318341,"finger_time":1551881318102,"fix_duration":717.333293230677,"trial":49,"RT":723,"MT":239,"sideResp":1,"stimulus":[],"xmouse":[796,796,796,796,796,797,797,798,798,798,798,799,799,799,799,799,799,799,799,799,799,798,798,798,798,799,800,802,803,803,803,804,804,804,805,805,80